File: 01_Data/Cotton_Shirt/STA/N2/30K_min/Cotton_Shirt_STA_N2_30KData_21297_R3.csv
##Temp./Â°C,Time/min,DSC(subtr.2)/(mW/mg),Mass loss(subtr.2)/mg,Sensit./(uV/mW)
50.559,10.01,-0.00214136,-0.04596,0.6235
51.159,10.99512,0.01982783,-0.04898453,0.6235
51.759,11.2107,0.03865331,-0.04893405,0.62349
52.359,11.35735,0.05565504,-0.05094608,0.62348
52.959,11.4727,0.07256471,-0.04901143,0.62347
53.559,11.56903,0.08457222,-0.05035612,0.62347
54.159,11.65323,0.10178,-0.05073821,0.62346
54.759,11.7288,0.11675,-0.05038268,0.62345
55.359,11.79785,0.12415,-0.05140936,0.62344
55.959,11.8622,0.13603,-0.05313547,0.62343
56.559,11.92183,0.1468,-0.05168973,0.62342
57.159,11.97863,0.15988,-0.05248521,0.6234
57.759,12.03236,0.17408,-0.05066128,0.62339
58.359,12.0829,0.18066,-0.0513537,0.62338
58.959,12.13162,0.18965,-0.05144407,0.62337
59.559,12.17882,0.20157,-0.05361978,0.62335
60.159,12.2243,0.21252,-0.05387009,0.62334
60.759,12.2682,0.21663,-0.05458015,0.62332
61.359,12.31062,0.22752,-0.05269746,0.62331
61.959,12.35229,0.23786,-0.0528463,0.62329
62.559,12.39343,0.2461,-0.0536276,0.62327
63.159,12.4335,0.25291,-0.05511671,0.62326
63.759,12.4725,0.26376,-0.0547986,0.62324
64.359,12.5108,0.27037,-0.05631986,0.62322
64.959,12.54828,0.28209,-0.05689041,0.6232
65.559,12.58495,0.29092,-0.05656792,0.62318
66.159,12.62117,0.29794,-0.0573678,0.62316
66.759,12.6569,0.3042,-0.05537001,0.62314
67.359,12.69219,0.31112,-0.05496929,0.62312
67.959,12.72659,0.32487,-0.0556626,0.6231
68.559,12.76093,0.32914,-0.05603629,0.62308
69.159,12.7948,0.3376,-0.05738368,0.62306
69.759,12.82877,0.34844,-0.05877756,0.62303
70.359,12.8621,0.35493,-0.05892103,0.62301
70.959,12.895,0.36441,-0.0572774,0.62299
71.559,12.9275,0.37081,-0.05782063,0.62296
72.159,12.95986,0.37812,-0.05768264,0.62294
72.759,12.99178,0.38392,-0.05892419,0.62291
73.359,13.0235,0.39296,-0.0593196,0.62289
73.959,13.05503,0.40206,-0.0592028,0.62286
74.559,13.0863,0.40513,-0.05928814,0.62283
75.159,13.11718,0.41576,-0.06068321,0.6228
75.759,13.1479,0.42297,-0.06217291,0.62278
76.359,13.1785,0.42618,-0.06076329,0.62275
76.959,13.2087,0.43662,-0.06164625,0.62272
77.559,13.2391,0.44266,-0.06205966,0.62269
78.159,13.269,0.44891,-0.06365556,0.62266
78.759,13.2991,0.45083,-0.06362346,0.62263
79.359,13.32862,0.46265,-0.06452421,0.62259
79.959,13.358,0.47003,-0.06420974,0.62256
80.559,13.38725,0.47788,-0.06447221,0.62253
81.159,13.4161,0.4811,-0.06558928,0.6225
81.759,13.4452,0.48894,-0.06656752,0.62246
82.359,13.474,0.49445,-0.06658052,0.62243
82.959,13.50275,0.5008,-0.06657039,0.62239
83.559,13.53094,0.50544,-0.06731863,0.62236
84.159,13.55914,0.51254,-0.06758797,0.62232
84.759,13.5872,0.52178,-0.06759092,0.62229
85.359,13.6153,0.52808,-0.0681383,0.62225
85.959,13.64326,0.53391,-0.06812807,0.62221
86.559,13.6708,0.53949,-0.06885449,0.62218
87.159,13.6982,0.54599,-0.07002635,0.62214
87.759,13.7254,0.55594,-0.07106193,0.6221
88.359,13.7527,0.55664,-0.07108777,0.62206
88.959,13.7797,0.56204,-0.07171207,0.62202
89.559,13.80665,0.56786,-0.07135355,0.62198
90.159,13.83346,0.57264,-0.07101262,0.62194
90.759,13.8599,0.58114,-0.0732571,0.6219
91.359,13.88641,0.58278,-0.07393457,0.62186
91.959,13.91275,0.58727,-0.07481447,0.62181
92.559,13.9389,0.59239,-0.07522059,0.62177
93.159,13.965,0.59638,-0.07675167,0.62173
93.759,13.9908,0.60181,-0.07773189,0.62168
94.359,14.0168,0.60315,-0.07704237,0.62164
94.959,14.0427,0.60603,-0.07677338,0.62159
95.559,14.0681,0.61004,-0.07677686,0.62155
96.159,14.09344,0.61516,-0.07694139,0.6215
96.759,14.1187,0.61897,-0.07811248,0.62146
97.359,14.14381,0.62302,-0.07809398,0.62141
97.959,14.16905,0.62704,-0.07934737,0.62136
98.559,14.19394,0.62928,-0.07934423,0.62131
99.159,14.2187,0.6296,-0.08081728,0.62127
99.759,14.24342,0.63109,-0.08116069,0.62122
100.359,14.268,0.63901,-0.0835122,0.62117
100.959,14.2923,0.64413,-0.0834445,0.62112
101.559,14.3164,0.64649,-0.08461998,0.62107
102.159,14.34035,0.64899,-0.08479072,0.62102
102.759,14.3645,0.65402,-0.08478991,0.62096
103.359,14.3887,0.65614,-0.08621705,0.62091
103.959,14.41293,0.65786,-0.08633835,0.62086
104.559,14.4371,0.66309,-0.08633128,0.62081
105.159,14.4608,0.66409,-0.08632273,0.62075
105.759,14.48449,0.66217,-0.08733804,0.6207
106.359,14.5079,0.66615,-0.08762854,0.62064
106.959,14.5314,0.66532,-0.08902182,0.62059
107.559,14.5549,0.66597,-0.08896662,0.62053
108.159,14.57825,0.6669,-0.08896026,0.62048
108.759,14.60157,0.66542,-0.08895803,0.62042
109.359,14.6247,0.66561,-0.08887562,0.62036
109.959,14.6477,0.66344,-0.09034367,0.62031
110.559,14.6706,0.67032,-0.09038181,0.62025
111.159,14.69348,0.66457,-0.09054411,0.62019
111.759,14.7162,0.66804,-0.09175282,0.62013
112.359,14.73894,0.66563,-0.09227209,0.62007
112.959,14.7617,0.66135,-0.09301417,0.62001
113.559,14.7842,0.6629,-0.09322661,0.61995
114.159,14.8068,0.65961,-0.09436458,0.61989
114.759,14.8291,0.65547,-0.09433059,0.61983
115.359,14.8514,0.65826,-0.09432994,0.61977
115.959,14.8736,0.65464,-0.09432963,0.61971
116.559,14.8958,0.65666,-0.094323,0.61964
117.159,14.91789,0.65416,-0.09548984,0.61958
117.759,14.93985,0.65516,-0.09564932,0.61952
118.359,14.9618,0.65356,-0.0956593,0.61945
118.959,14.98357,0.65425,-0.09594775,0.61939
119.559,15.0054,0.65636,-0.09707863,0.61932
120.159,15.0271,0.65806,-0.09815314,0.61926
120.759,15.04865,0.65951,-0.09838343,0.61919
121.359,15.0703,0.65676,-0.09839007,0.61912
121.959,15.09175,0.65397,-0.09838997,0.61906
122.559,15.11324,0.65076,-0.09838848,0.61899
123.159,15.1347,0.64907,-0.09836046,0.61892
123.759,15.15603,0.64831,-0.09771374,0.61885
124.359,15.17733,0.64796,-0.0983674,0.61878
124.959,15.19849,0.64177,-0.09839861,0.61871
125.559,15.2195,0.64059,-0.09901118,0.61864
126.159,15.24059,0.64449,-0.09969564,0.61857
126.759,15.2615,0.64205,-0.09969845,0.6185
127.359,15.28226,0.63839,-0.09968003,0.61843
127.959,15.30301,0.64084,-0.09997709,0.61836
128.559,15.3238,0.63714,-0.09972185,0.61829
129.159,15.3446,0.63666,-0.09971082,0.61821
129.759,15.36536,0.63157,-0.09971006,0.61814
130.359,15.38601,0.63218,-0.09971005,0.61807
130.959,15.40651,0.62844,-0.09971057,0.61799
131.559,15.427,0.62771,-0.09971774,0.61792
132.159,15.44733,0.62707,-0.09981272,0.61784
132.759,15.46774,0.62745,-0.09887892,0.61776
133.359,15.488,0.62657,-0.09973093,0.61769
133.959,15.50821,0.62559,-0.09971143,0.61761
134.559,15.52845,0.62444,-0.0997114,0.61754
135.159,15.5486,0.62554,-0.09993704,0.61746
135.759,15.5687,0.62528,-0.10104,0.61738
136.359,15.58884,0.62607,-0.10102,0.6173
136.959,15.6088,0.62463,-0.10102,0.61722
137.559,15.6288,0.62392,-0.10102,0.61714
138.159,15.64874,0.62307,-0.10099,0.61706
138.759,15.6686,0.62654,-0.10228,0.61698
139.359,15.68842,0.63216,-0.10227,0.6169
139.959,15.70822,0.63015,-0.10365,0.61682
140.559,15.728,0.62761,-0.10366,0.61674
141.159,15.7477,0.62937,-0.10348,0.61666
141.759,15.76738,0.63136,-0.1034,0.61657
142.359,15.7869,0.63317,-0.10372,0.61649
142.959,15.8065,0.63619,-0.10236,0.61641
143.559,15.826,0.6321,-0.10233,0.61632
144.159,15.8455,0.6319,-0.10236,0.61624
144.759,15.8649,0.63727,-0.10286,0.61615
145.359,15.88435,0.6392,-0.10229,0.61607
145.959,15.9037,0.64064,-0.10202,0.61598
146.559,15.9231,0.6421,-0.10201,0.6159
147.159,15.9424,0.64192,-0.10202,0.61581
147.759,15.96161,0.64333,-0.10208,0.61572
148.359,15.9808,0.64439,-0.10128,0.61563
148.959,15.9999,0.64265,-0.10102,0.61555
149.559,16.01905,0.64729,-0.10128,0.61546
150.159,16.03818,0.64739,-0.10237,0.61537
150.759,16.0573,0.64665,-0.10234,0.61528
151.359,16.07635,0.64907,-0.10233,0.61519
151.959,16.0953,0.65141,-0.10217,0.6151
152.559,16.11429,0.65318,-0.10215,0.61501
153.159,16.13322,0.65264,-0.10232,0.61492
153.759,16.1521,0.65643,-0.10233,0.61483
154.359,16.171,0.65778,-0.10233,0.61473
154.959,16.18996,0.66284,-0.10233,0.61464
155.559,16.20877,0.66286,-0.10227,0.61455
156.159,16.22768,0.66283,-0.10363,0.61445
156.759,16.24646,0.66577,-0.10365,0.61436
157.359,16.26525,0.66623,-0.10364,0.61427
157.959,16.28397,0.66657,-0.10346,0.61417
158.559,16.3027,0.66871,-0.10228,0.61408
159.159,16.32135,0.67114,-0.10232,0.61398
159.759,16.34003,0.67609,-0.10266,0.61388
160.359,16.3586,0.67918,-0.10242,0.61379
160.959,16.37724,0.67756,-0.10235,0.61369
161.559,16.39588,0.67891,-0.10234,0.61359
162.159,16.4145,0.67821,-0.10235,0.6135
162.759,16.433,0.685,-0.10248,0.6134
163.359,16.4516,0.68845,-0.10369,0.6133
163.959,16.47012,0.68993,-0.10365,0.6132
164.559,16.48856,0.69213,-0.10365,0.6131
165.159,16.50684,0.69458,-0.10365,0.613
165.759,16.52531,0.6937,-0.10365,0.6129
166.359,16.5437,0.69728,-0.10364,0.6128
166.959,16.56206,0.69639,-0.10242,0.6127
167.559,16.5804,0.70413,-0.10366,0.6126
168.159,16.59884,0.70799,-0.10366,0.61249
168.759,16.6171,0.70839,-0.10366,0.61239
169.359,16.63533,0.70806,-0.10366,0.61229
169.959,16.65362,0.71089,-0.10366,0.61218
170.559,16.6719,0.71152,-0.10366,0.61208
171.159,16.69014,0.71626,-0.10366,0.61198
171.759,16.7084,0.71565,-0.10366,0.61187
172.359,16.72661,0.71379,-0.10366,0.61177
172.959,16.74479,0.71728,-0.10366,0.61166
173.559,16.76303,0.72358,-0.10366,0.61156
174.159,16.7811,0.72681,-0.10366,0.61145
174.759,16.79924,0.72737,-0.10365,0.61134
175.359,16.81729,0.72988,-0.10322,0.61124
175.959,16.83536,0.7336,-0.1022,0.61113
176.559,16.8534,0.72899,-0.10352,0.61102
177.159,16.8714,0.73594,-0.10365,0.61091
177.759,16.8894,0.73953,-0.10393,0.6108
178.359,16.90744,0.73997,-0.10502,0.61069
178.959,16.92539,0.74257,-0.10498,0.61058
179.559,16.94325,0.74488,-0.10497,0.61047
180.159,16.96118,0.74666,-0.10497,0.61036
180.759,16.979,0.74738,-0.10497,0.61025
181.359,16.99684,0.74959,-0.105,0.61014
181.959,17.01464,0.74991,-0.10461,0.61003
182.559,17.0324,0.75329,-0.10464,0.60992
183.159,17.0501,0.75664,-0.10464,0.6098
183.759,17.06784,0.76108,-0.10443,0.60969
184.359,17.08553,0.75963,-0.10361,0.60958
184.959,17.10325,0.75849,-0.10366,0.60946
185.559,17.12099,0.76419,-0.10366,0.60935
186.159,17.13864,0.76792,-0.10366,0.60924
186.759,17.15631,0.76873,-0.10366,0.60912
187.359,17.174,0.77239,-0.10366,0.60901
187.959,17.19161,0.77632,-0.10366,0.60889
188.559,17.2092,0.78038,-0.10366,0.60877
189.159,17.2268,0.78115,-0.10365,0.60866
189.759,17.2443,0.78282,-0.10445,0.60854
190.359,17.2618,0.78474,-0.10502,0.60842
190.959,17.27926,0.78912,-0.10626,0.60831
191.559,17.29671,0.79436,-0.10627,0.60819
192.159,17.3142,0.8009,-0.10628,0.60807
192.759,17.33171,0.8029,-0.10628,0.60795
193.359,17.34916,0.80389,-0.10628,0.60783
193.959,17.3666,0.80313,-0.1064,0.60771
194.559,17.38399,0.80131,-0.1077,0.60759
195.159,17.4013,0.81079,-0.1076,0.60747
195.759,17.41864,0.80973,-0.1076,0.60735
196.359,17.43595,0.81273,-0.1076,0.60723
196.959,17.45327,0.81799,-0.1076,0.60711
197.559,17.47056,0.81822,-0.1076,0.60698
198.159,17.48788,0.82194,-0.1076,0.60686
198.759,17.50517,0.83154,-0.1076,0.60674
199.359,17.5225,0.83316,-0.1076,0.60662
199.959,17.53977,0.83246,-0.1076,0.60649
200.559,17.55708,0.83039,-0.10762,0.60637
201.159,17.57426,0.83112,-0.10697,0.60624
201.759,17.5915,0.83531,-0.10663,0.60612
202.359,17.60868,0.83207,-0.10662,0.60599
202.959,17.62586,0.83164,-0.10662,0.60587
203.559,17.643,0.83721,-0.10662,0.60574
204.159,17.66021,0.83331,-0.10662,0.60562
204.759,17.67736,0.83569,-0.10772,0.60549
205.359,17.69451,0.835,-0.1079,0.60536
205.959,17.71165,0.8419,-0.1079,0.60523
206.559,17.7288,0.83904,-0.10881,0.60511
207.159,17.7459,0.8376,-0.10926,0.60498
207.759,17.76306,0.83625,-0.10925,0.60485
208.359,17.78011,0.84187,-0.10925,0.60472
208.959,17.79719,0.84255,-0.10925,0.60459
209.559,17.81417,0.84693,-0.10918,0.60446
210.159,17.8312,0.84983,-0.10822,0.60433
210.759,17.8482,0.85293,-0.10827,0.6042
211.359,17.86523,0.84967,-0.10826,0.60407
211.959,17.88225,0.8537,-0.10826,0.60394
212.559,17.89927,0.8545,-0.10826,0.60381
213.159,17.9163,0.85661,-0.10727,0.60368
213.759,17.93326,0.85932,-0.10698,0.60354
214.359,17.95024,0.85731,-0.10695,0.60341
214.959,17.96717,0.86069,-0.10695,0.60328
215.559,17.98411,0.86344,-0.10695,0.60314
216.159,18.0011,0.86317,-0.10695,0.60301
216.759,18.01814,0.86506,-0.10695,0.60288
217.359,18.03511,0.86365,-0.10695,0.60274
217.959,18.05209,0.86517,-0.10696,0.60261
218.559,18.069,0.86947,-0.10819,0.60247
219.159,18.08585,0.86836,-0.10824,0.60234
219.759,18.10269,0.86984,-0.10826,0.6022
220.359,18.1195,0.865,-0.10826,0.60206
220.959,18.13637,0.86561,-0.10837,0.60193
221.559,18.1533,0.86669,-0.10968,0.60179
222.159,18.17015,0.86737,-0.10958,0.60165
222.759,18.18698,0.86804,-0.10958,0.60152
223.359,18.2038,0.86794,-0.10958,0.60138
223.959,18.22063,0.86533,-0.10958,0.60124
224.559,18.2374,0.86824,-0.10958,0.6011
225.159,18.25411,0.87374,-0.10957,0.60096
225.759,18.27088,0.86859,-0.10999,0.60082
226.359,18.28771,0.87469,-0.11094,0.60068
226.959,18.3045,0.87439,-0.11089,0.60054
227.559,18.3213,0.87323,-0.11085,0.6004
228.159,18.33811,0.87543,-0.10966,0.60026
228.759,18.35493,0.87553,-0.10959,0.60012
229.359,18.37165,0.8748,-0.10958,0.59998
229.959,18.38843,0.87454,-0.10958,0.59984
230.559,18.4052,0.88065,-0.10958,0.59969
231.159,18.4219,0.87976,-0.10959,0.59955
231.759,18.43856,0.88184,-0.10952,0.59941
232.359,18.45528,0.88318,-0.11084,0.59927
232.959,18.47195,0.88432,-0.1109,0.59912
233.559,18.48862,0.88487,-0.1109,0.59898
234.159,18.50528,0.88876,-0.1109,0.59883
234.759,18.52195,0.88852,-0.1109,0.59869
235.359,18.53866,0.88752,-0.11113,0.59854
235.959,18.5553,0.88961,-0.1123,0.5984
236.559,18.572,0.89156,-0.11222,0.59825
237.159,18.58875,0.88987,-0.11221,0.59811
237.759,18.60539,0.89185,-0.11221,0.59796
238.359,18.62207,0.88924,-0.11221,0.59781
238.959,18.63875,0.8865,-0.11221,0.59767
239.559,18.65535,0.88694,-0.11221,0.59752
240.159,18.67194,0.88907,-0.11221,0.59737
240.759,18.6886,0.88541,-0.11221,0.59722
241.359,18.70521,0.89076,-0.11221,0.59708
241.959,18.7218,0.88961,-0.1122,0.59693
242.559,18.7384,0.88884,-0.11393,0.59678
243.159,18.755,0.89245,-0.11489,0.59663
243.759,18.77157,0.89267,-0.11495,0.59648
244.359,18.78813,0.89005,-0.11623,0.59633
244.959,18.80465,0.89086,-0.11596,0.59618
245.559,18.8212,0.89442,-0.11605,0.59603
246.159,18.83773,0.89937,-0.11696,0.59588
246.759,18.85428,0.89539,-0.11693,0.59573
247.359,18.8708,0.90107,-0.11692,0.59557
247.959,18.88734,0.9018,-0.11692,0.59542
248.559,18.9039,0.89767,-0.11692,0.59527
249.159,18.92051,0.90097,-0.11692,0.59512
249.759,18.93711,0.90133,-0.11692,0.59496
250.359,18.95364,0.90266,-0.11692,0.59481
250.959,18.9702,0.9029,-0.11727,0.59466
251.559,18.98665,0.90355,-0.11844,0.5945
252.159,19.00314,0.90286,-0.11849,0.59435
252.759,19.0196,0.90674,-0.11975,0.59419
253.359,19.03613,0.90893,-0.11976,0.59404
253.959,19.05266,0.90936,-0.11976,0.59388
254.559,19.06925,0.90632,-0.11978,0.59373
255.159,19.0858,0.90417,-0.12037,0.59357
255.759,19.10229,0.90182,-0.12083,0.59342
256.359,19.11877,0.90454,-0.12204,0.59326
256.959,19.13525,0.90427,-0.12208,0.5931
257.559,19.15171,0.90638,-0.12214,0.59295
258.159,19.1681,0.91232,-0.12352,0.59279
258.759,19.18457,0.90517,-0.12386,0.59263
259.359,19.20097,0.9079,-0.12529,0.59247
259.959,19.21742,0.91379,-0.12568,0.59232
260.559,19.2338,0.92141,-0.12688,0.59216
261.159,19.25026,0.91655,-0.12716,0.592
261.759,19.26673,0.91504,-0.12848,0.59184
262.359,19.28321,0.91949,-0.12945,0.59168
262.959,19.29972,0.92703,-0.12998,0.59152
263.559,19.31619,0.92807,-0.13111,0.59136
264.159,19.3326,0.93298,-0.13129,0.5912
264.759,19.34901,0.93168,-0.13265,0.59104
265.359,19.36541,0.93277,-0.13298,0.59088
265.959,19.38188,0.94065,-0.1344,0.59072
266.559,19.39827,0.94869,-0.13595,0.59056
267.159,19.41466,0.94949,-0.13747,0.59039
267.759,19.43113,0.952,-0.13806,0.59023
268.359,19.4476,0.94935,-0.13961,0.59007
268.959,19.464,0.94683,-0.13963,0.58991
269.559,19.48036,0.95208,-0.13999,0.58974
270.159,19.49684,0.95698,-0.14108,0.58958
270.759,19.5133,0.9591,-0.14221,0.58942
271.359,19.52968,0.96486,-0.1431,0.58925
271.959,19.54608,0.96588,-0.14482,0.58909
272.559,19.56253,0.96688,-0.14609,0.58893
273.159,19.57892,0.97014,-0.14656,0.58876
273.759,19.59535,0.96144,-0.14793,0.5886
274.359,19.61175,0.95852,-0.14887,0.58843
274.959,19.62811,0.95625,-0.15014,0.58826
275.559,19.64451,0.96242,-0.15184,0.5881
276.159,19.66091,0.97363,-0.15374,0.58793
276.759,19.6773,0.96727,-0.15551,0.58777
277.359,19.69374,0.96493,-0.15688,0.5876
277.959,19.7102,0.96927,-0.15796,0.58743
278.559,19.72664,0.97225,-0.15976,0.58726
279.159,19.74305,0.97603,-0.16062,0.5871
279.759,19.7595,0.98311,-0.16166,0.58693
280.359,19.77593,0.98712,-0.16339,0.58676
280.959,19.7924,0.98757,-0.16521,0.58659
281.559,19.80874,0.99278,-0.16742,0.58642
282.159,19.82508,0.99735,-0.16917,0.58626
282.759,19.84144,1.00543,-0.1717,0.58609
283.359,19.85783,1.01045,-0.17422,0.58592
283.959,19.8742,1.01269,-0.17551,0.58575
284.559,19.89051,1.01779,-0.17687,0.58558
285.159,19.90685,1.02225,-0.17861,0.58541
285.759,19.92335,1.02221,-0.18113,0.58524
286.359,19.9397,1.0249,-0.18291,0.58506
286.959,19.95611,1.03132,-0.18479,0.58489
287.559,19.97256,1.03949,-0.18703,0.58472
288.159,19.9891,1.0403,-0.18847,0.58455
288.759,20.00546,1.04648,-0.18981,0.58438
289.359,20.02187,1.05101,-0.19191,0.58421
289.959,20.03828,1.05577,-0.19492,0.58403
290.559,20.0547,1.05926,-0.19807,0.58386
291.159,20.07106,1.05987,-0.20047,0.58369
291.759,20.08749,1.07122,-0.20217,0.58352
292.359,20.1039,1.07495,-0.20478,0.58334
292.959,20.12032,1.08543,-0.20637,0.58317
293.559,20.13672,1.0909,-0.2085,0.58299
294.159,20.15314,1.09478,-0.21141,0.58282
294.759,20.16955,1.10264,-0.21347,0.58264
295.359,20.18595,1.1073,-0.21628,0.58247
295.959,20.2024,1.11382,-0.21982,0.58229
296.559,20.21879,1.11464,-0.22159,0.58212
297.159,20.2352,1.11077,-0.22369,0.58194
297.759,20.25161,1.11955,-0.22675,0.58177
298.359,20.26804,1.12257,-0.22924,0.58159
298.959,20.2845,1.12743,-0.23221,0.58142
299.559,20.30095,1.12697,-0.23532,0.58124
300.159,20.3174,1.12843,-0.23741,0.58106
300.759,20.33384,1.13223,-0.24026,0.58089
301.359,20.3503,1.13852,-0.24366,0.58071
301.959,20.36672,1.14276,-0.24597,0.58053
302.559,20.38314,1.14588,-0.25017,0.58035
303.159,20.39947,1.14861,-0.25377,0.58017
303.759,20.41575,1.15149,-0.25832,0.58
304.359,20.4322,1.15609,-0.26157,0.57982
304.959,20.4485,1.16435,-0.26496,0.57964
305.559,20.46491,1.17158,-0.26795,0.57946
306.159,20.4813,1.1762,-0.27136,0.57928
306.759,20.49784,1.18048,-0.27607,0.5791
307.359,20.51437,1.19334,-0.28193,0.57892
307.959,20.5308,1.20299,-0.28515,0.57874
308.559,20.54724,1.21082,-0.28921,0.57856
309.159,20.5637,1.21886,-0.29265,0.57838
309.759,20.58015,1.23881,-0.29676,0.5782
310.359,20.59659,1.24483,-0.30087,0.57802
310.959,20.61297,1.25186,-0.30339,0.57784
311.559,20.6294,1.25536,-0.30796,0.57766
312.159,20.6458,1.26289,-0.31182,0.57747
312.759,20.66216,1.2744,-0.31704,0.57729
313.359,20.67859,1.28221,-0.32216,0.57711
313.959,20.6949,1.28891,-0.32639,0.57693
314.559,20.71126,1.29906,-0.33273,0.57674
315.159,20.72767,1.30895,-0.33651,0.57656
315.759,20.74413,1.31956,-0.3417,0.57638
316.359,20.76063,1.32805,-0.34633,0.57619
316.959,20.77709,1.3354,-0.35152,0.57601
317.559,20.79365,1.34437,-0.35817,0.57583
318.159,20.8101,1.35724,-0.36377,0.57564
318.759,20.82656,1.36691,-0.37099,0.57546
319.359,20.843,1.37593,-0.37583,0.57527
319.959,20.85943,1.38388,-0.38116,0.57509
320.559,20.8759,1.38721,-0.38705,0.57491
321.159,20.89234,1.39594,-0.39246,0.57472
321.759,20.90875,1.40586,-0.39974,0.57453
322.359,20.9252,1.4163,-0.40516,0.57435
322.959,20.94166,1.42836,-0.41176,0.57416
323.559,20.9581,1.43791,-0.41809,0.57398
324.159,20.97456,1.45045,-0.4238,0.57379
324.759,20.99099,1.46277,-0.43162,0.5736
325.359,21.00751,1.47909,-0.4381,0.57342
325.959,21.02396,1.49418,-0.44606,0.57323
326.559,21.04042,1.50372,-0.45305,0.57304
327.159,21.05687,1.51702,-0.45999,0.57286
327.759,21.07335,1.53047,-0.46848,0.57267
328.359,21.08979,1.5447,-0.47506,0.57248
328.959,21.10625,1.56202,-0.48432,0.57229
329.559,21.12271,1.57976,-0.49232,0.5721
330.159,21.13918,1.59058,-0.50089,0.57192
330.759,21.15561,1.60851,-0.50976,0.57173
331.359,21.17203,1.62637,-0.51672,0.57154
331.959,21.18854,1.64254,-0.52679,0.57135
332.559,21.205,1.65883,-0.53561,0.57116
333.159,21.2215,1.67591,-0.54612,0.57097
333.759,21.23803,1.69203,-0.5555,0.57078
334.359,21.25465,1.7098,-0.56331,0.57059
334.959,21.27113,1.73131,-0.5732,0.5704
335.559,21.28765,1.75875,-0.58215,0.57021
336.159,21.3041,1.77548,-0.59432,0.57002
336.759,21.32066,1.79508,-0.6053,0.56983
337.359,21.33703,1.82294,-0.61575,0.56964
337.959,21.35351,1.84445,-0.62769,0.56945
338.559,21.37001,1.86833,-0.63762,0.56926
339.159,21.38655,1.89673,-0.65053,0.56907
339.759,21.40306,1.92212,-0.66182,0.56887
340.359,21.41964,1.94934,-0.67448,0.56868
340.959,21.43631,1.97917,-0.68842,0.56849
341.559,21.45283,2.00822,-0.70094,0.5683
342.159,21.46941,2.03545,-0.71618,0.56811
342.759,21.486,2.07422,-0.72809,0.56791
343.359,21.50253,2.1084,-0.74275,0.56772
343.959,21.519,2.14153,-0.7569,0.56753
344.559,21.53557,2.18271,-0.77083,0.56733
345.159,21.55209,2.21768,-0.78811,0.56714
345.759,21.5686,2.259,-0.80183,0.56695
346.359,21.58515,2.30234,-0.8191,0.56675
346.959,21.60171,2.34206,-0.83394,0.56656
347.559,21.61831,2.38821,-0.85038,0.56636
348.159,21.6349,2.43812,-0.8692,0.56617
348.759,21.65149,2.48491,-0.88514,0.56598
349.359,21.6681,2.53457,-0.90602,0.56578
349.959,21.68466,2.58721,-0.9224,0.56559
350.559,21.70123,2.6455,-0.94218,0.56539
351.159,21.71777,2.69705,-0.96248,0.5652
351.759,21.7344,2.75674,-0.98178,0.565
352.359,21.75095,2.81858,-1.00588,0.5648
352.959,21.76752,2.8791,-1.02359,0.56461
353.559,21.78412,2.94499,-1.04751,0.56441
354.159,21.80075,3.01513,-1.06955,0.56422
354.759,21.81737,3.08048,-1.09358,0.56402
355.359,21.83396,3.14485,-1.12131,0.56382
355.959,21.8506,3.22226,-1.14376,0.56363
356.559,21.86719,3.29338,-1.17258,0.56343
357.159,21.88379,3.37151,-1.19578,0.56323
357.759,21.90042,3.44907,-1.22282,0.56304
358.359,21.91706,3.52125,-1.25184,0.56284
358.959,21.9337,3.60137,-1.27844,0.56264
359.559,21.95029,3.67842,-1.31227,0.56244
360.159,21.96694,3.76166,-1.33882,0.56225
360.759,21.98358,3.84119,-1.3719,0.56205
361.359,22.00021,3.92439,-1.40278,0.56185
361.959,22.01684,4.00273,-1.43465,0.56165
362.559,22.03354,4.08484,-1.47201,0.56145
363.159,22.05021,4.16261,-1.50135,0.56125
363.759,22.0669,4.24205,-1.53917,0.56105
364.359,22.0836,4.3189,-1.57065,0.56085
364.959,22.1003,4.39385,-1.60797,0.56066
365.559,22.117,4.46797,-1.64715,0.56046
366.159,22.1338,4.53586,-1.68159,0.56026
366.759,22.15052,4.60345,-1.72447,0.56006
367.359,22.16725,4.66584,-1.75808,0.55986
367.959,22.18403,4.71843,-1.8012,0.55966
368.559,22.2008,4.76908,-1.84033,0.55946
369.159,22.21754,4.82413,-1.8848,0.55926
369.759,22.23428,4.86845,-1.92674,0.55906
370.359,22.2511,4.91036,-1.97957,0.55885
370.959,22.2679,4.93847,-2.02205,0.55865
371.559,22.2847,4.96518,-2.06519,0.55845
372.159,22.3015,4.98425,-2.10816,0.55825
372.759,22.31832,4.99462,-2.15116,0.55805
373.359,22.3352,5.0032,-2.19418,0.55785
373.959,22.35207,5.00918,-2.23612,0.55765
374.559,22.36894,4.99594,-2.27844,0.55745
375.159,22.38583,4.97898,-2.32109,0.55724
375.759,22.4027,4.96028,-2.364,0.55704
376.359,22.4196,4.92776,-2.40677,0.55684
376.959,22.43654,4.8912,-2.44845,0.55664
377.559,22.45342,4.84066,-2.48871,0.55643
378.159,22.47033,4.78193,-2.5319,0.55623
378.759,22.48722,4.71974,-2.57132,0.55603
379.359,22.50415,4.64888,-2.61081,0.55583
379.959,22.52107,4.57037,-2.65006,0.55562
380.559,22.53802,4.4875,-2.68904,0.55542
381.159,22.55499,4.38656,-2.72453,0.55522
381.759,22.57193,4.28389,-2.75455,0.55501
382.359,22.5889,4.18006,-2.79179,0.55481
382.959,22.6058,4.06604,-2.82048,0.5546
383.559,22.6228,3.94048,-2.85317,0.5544
384.159,22.6397,3.81333,-2.88276,0.5542
384.759,22.6567,3.67671,-2.91195,0.55399
385.359,22.67363,3.53617,-2.94558,0.55379
385.959,22.69053,3.39871,-2.97083,0.55358
386.559,22.70748,3.25844,-3.00024,0.55338
387.159,22.72439,3.11542,-3.02201,0.55317
387.759,22.74139,2.97257,-3.0471,0.55297
388.359,22.75835,2.82188,-3.07064,0.55276
388.959,22.77533,2.67813,-3.09079,0.55256
389.559,22.7924,2.53165,-3.11283,0.55235
390.159,22.8094,2.3938,-3.12821,0.55215
390.759,22.82647,2.24725,-3.14654,0.55194
391.359,22.84347,2.11339,-3.16116,0.55174
391.959,22.86052,1.97458,-3.17694,0.55153
392.559,22.87752,1.83725,-3.19212,0.55132
393.159,22.8945,1.71039,-3.20433,0.55112
393.759,22.91149,1.58749,-3.21846,0.55091
394.359,22.92848,1.47616,-3.22833,0.55071
394.959,22.9454,1.3583,-3.2396,0.5505
395.559,22.96246,1.24501,-3.24836,0.55029
396.159,22.9795,1.13812,-3.25716,0.55009
396.759,22.99646,1.03984,-3.26565,0.54988
397.359,23.0135,0.94101,-3.27254,0.54967
397.959,23.03046,0.84871,-3.28012,0.54946
398.559,23.04745,0.7613,-3.28564,0.54926
399.159,23.06444,0.68179,-3.29167,0.54905
399.759,23.08141,0.60725,-3.29643,0.54884
400.359,23.0984,0.53884,-3.30128,0.54863
400.959,23.11541,0.47384,-3.30583,0.54843
401.559,23.13232,0.41436,-3.30894,0.54822
402.159,23.1493,0.35812,-3.31272,0.54801
402.759,23.1663,0.3087,-3.31571,0.5478
403.359,23.1833,0.26449,-3.31897,0.54759
403.959,23.2003,0.22449,-3.322,0.54739
404.559,23.21735,0.19131,-3.32383,0.54718
405.159,23.2344,0.15679,-3.32608,0.54697
405.759,23.25139,0.12853,-3.32808,0.54676
406.359,23.26839,0.09596609,-3.3291,0.54655
406.959,23.28541,0.07524398,-3.33024,0.54634
407.559,23.3024,0.05344985,-3.33214,0.54613
408.159,23.31944,0.03354893,-3.33375,0.54592
408.759,23.33644,0.01630667,-3.33535,0.54572
409.359,23.35344,0.002791869,-3.33642,0.54551
409.959,23.37045,-0.01020544,-3.3373,0.5453
410.559,23.38751,-0.02684123,-3.33731,0.54509
411.159,23.40461,-0.03433557,-3.33731,0.54488
411.759,23.42173,-0.04054114,-3.3373,0.54467
412.359,23.43885,-0.05037978,-3.33786,0.54446
412.959,23.4559,-0.05928884,-3.3388,0.54425
413.559,23.47297,-0.06713812,-3.34034,0.54404
414.159,23.49002,-0.0698018,-3.3406,0.54383
414.759,23.50708,-0.07642054,-3.34199,0.54362
415.359,23.5242,-0.0802843,-3.34262,0.54341
415.959,23.54124,-0.0850164,-3.34406,0.5432
416.559,23.55845,-0.09109704,-3.34576,0.54299
417.159,23.5756,-0.09300066,-3.34591,0.54277
417.759,23.59271,-0.09412934,-3.34754,0.54256
418.359,23.60985,-0.09667187,-3.3474,0.54235
418.959,23.62695,-0.1011,-3.34891,0.54214
419.559,23.6442,-0.10194,-3.34929,0.54193
420.159,23.66134,-0.10404,-3.35037,0.54172
420.759,23.67855,-0.10878,-3.3509,0.54151
421.359,23.69578,-0.11435,-3.35175,0.5413
421.959,23.7131,-0.1149,-3.35193,0.54109
422.559,23.73025,-0.11961,-3.353,0.54087
423.159,23.7474,-0.12089,-3.35313,0.54066
423.759,23.76465,-0.1212,-3.3546,0.54045
424.359,23.78182,-0.12185,-3.35536,0.54024
424.959,23.79906,-0.12249,-3.35597,0.54003
425.559,23.81634,-0.12464,-3.35606,0.53982
426.159,23.83362,-0.12936,-3.3575,0.5396
426.759,23.85087,-0.13064,-3.35781,0.53939
427.359,23.8682,-0.13316,-3.35896,0.53918
427.959,23.8854,-0.1352,-3.35986,0.53897
428.559,23.90267,-0.13499,-3.36159,0.53875
429.159,23.91994,-0.13812,-3.36341,0.53854
429.759,23.93727,-0.14001,-3.36339,0.53833
430.359,23.9546,-0.14296,-3.36339,0.53812
430.959,23.97191,-0.14507,-3.36386,0.5379
431.559,23.98923,-0.14439,-3.36445,0.53769
432.159,24.0065,-0.1465,-3.36335,0.53748
432.759,24.02383,-0.14467,-3.3634,0.53726
433.359,24.04117,-0.14831,-3.36428,0.53705
433.959,24.05847,-0.15312,-3.3662,0.53684
434.559,24.07581,-0.15497,-3.36772,0.53663
435.159,24.09314,-0.15717,-3.36782,0.53641
435.759,24.11046,-0.15576,-3.36914,0.5362
436.359,24.12781,-0.15668,-3.36907,0.53598
436.959,24.14519,-0.15862,-3.37031,0.53577
437.559,24.16255,-0.15902,-3.37075,0.53556
438.159,24.17991,-0.16458,-3.3723,0.53534
438.759,24.19734,-0.16699,-3.37308,0.53513
439.359,24.21473,-0.16523,-3.37389,0.53492
439.959,24.2321,-0.16918,-3.37535,0.5347
440.559,24.24956,-0.16733,-3.37526,0.53449
441.159,24.26705,-0.16866,-3.37525,0.53427
441.759,24.28448,-0.16915,-3.37606,0.53406
442.359,24.30194,-0.17176,-3.37657,0.53385
442.959,24.31943,-0.17553,-3.37655,0.53363
443.559,24.3369,-0.1748,-3.37797,0.53342
444.159,24.35434,-0.17253,-3.37841,0.5332
444.759,24.3718,-0.17676,-3.3795,0.53299
445.359,24.38932,-0.17889,-3.37929,0.53277
445.959,24.4068,-0.18173,-3.37974,0.53256
446.559,24.42432,-0.18496,-3.38083,0.53234
447.159,24.44181,-0.18563,-3.38127,0.53213
447.759,24.45934,-0.18127,-3.38362,0.53192
448.359,24.47673,-0.17862,-3.38425,0.5317
448.959,24.4942,-0.17772,-3.3858,0.53149
449.559,24.51175,-0.18035,-3.3862,0.53127
450.159,24.52926,-0.18231,-3.3871,0.53106
450.759,24.54678,-0.18458,-3.38829,0.53084
451.359,24.56437,-0.18532,-3.38842,0.53062
451.959,24.58191,-0.18657,-3.38843,0.53041
452.559,24.5994,-0.18665,-3.3887,0.53019
453.159,24.61696,-0.18889,-3.39006,0.52998
453.759,24.6345,-0.18803,-3.39038,0.52976
454.359,24.65211,-0.19024,-3.39129,0.52955
454.959,24.66972,-0.19316,-3.39128,0.52933
455.559,24.68727,-0.19551,-3.39147,0.52912
456.159,24.7049,-0.19458,-3.39201,0.5289
456.759,24.72255,-0.1966,-3.39317,0.52869
457.359,24.74019,-0.19452,-3.39525,0.52847
457.959,24.75776,-0.19684,-3.39589,0.52825
458.559,24.77543,-0.19764,-3.39588,0.52804
459.159,24.793,-0.19753,-3.39589,0.52782
459.759,24.81069,-0.19814,-3.3959,0.52761
460.359,24.82834,-0.19821,-3.39714,0.52739
460.959,24.84607,-0.20101,-3.39728,0.52717
461.559,24.86374,-0.20242,-3.39876,0.52696
462.159,24.8814,-0.20138,-3.39873,0.52674
462.759,24.8991,-0.20733,-3.39994,0.52653
463.359,24.91672,-0.20581,-3.39999,0.52631
463.959,24.93436,-0.20425,-3.39986,0.52609
464.559,24.9521,-0.20599,-3.40025,0.52588
465.159,24.96981,-0.20859,-3.40027,0.52566
465.759,24.98751,-0.20965,-3.40139,0.52544
466.359,25.00526,-0.21173,-3.40155,0.52523
466.959,25.023,-0.21176,-3.40224,0.52501
467.559,25.0407,-0.21216,-3.403,0.5248
468.159,25.05845,-0.21378,-3.40316,0.52458
468.759,25.0762,-0.21407,-3.40568,0.52436
469.359,25.094,-0.21526,-3.40561,0.52415
469.959,25.11176,-0.21406,-3.40644,0.52393
470.559,25.12961,-0.21917,-3.40697,0.52371
471.159,25.14741,-0.21936,-3.4075,0.5235
471.759,25.16518,-0.21863,-3.40739,0.52328
472.359,25.183,-0.22152,-3.40766,0.52306
472.959,25.20081,-0.22338,-3.40892,0.52285
473.559,25.2186,-0.22549,-3.40988,0.52263
474.159,25.23639,-0.22656,-3.41043,0.52241
474.759,25.25424,-0.22759,-3.41147,0.52219
475.359,25.27201,-0.22834,-3.4123,0.52198
475.959,25.28981,-0.22991,-3.41343,0.52176
476.559,25.30764,-0.23289,-3.4147,0.52154
477.159,25.32549,-0.23358,-3.41473,0.52133
477.759,25.34336,-0.23865,-3.41606,0.52111
478.359,25.36124,-0.24024,-3.41596,0.52089
478.959,25.37913,-0.24049,-3.41624,0.52067
479.559,25.39697,-0.24198,-3.417,0.52046
480.159,25.41483,-0.24425,-3.41711,0.52024
480.759,25.4326,-0.24911,-3.41726,0.52002
481.359,25.45046,-0.25061,-3.41764,0.51981
481.959,25.4683,-0.25159,-3.41862,0.51959
482.559,25.4863,-0.25089,-3.4186,0.51937
483.159,25.50424,-0.25445,-3.41864,0.51915
483.759,25.52228,-0.25408,-3.41895,0.51894
484.359,25.5402,-0.25887,-3.42089,0.51872
484.959,25.5582,-0.25768,-3.4209,0.5185
485.559,25.57612,-0.25827,-3.42123,0.51828
486.159,25.59404,-0.25877,-3.42221,0.51807
486.759,25.61199,-0.26201,-3.42306,0.51785
487.359,25.62995,-0.26383,-3.42407,0.51763
487.959,25.64786,-0.26367,-3.42538,0.51741
488.559,25.66584,-0.26546,-3.42542,0.5172
489.159,25.68384,-0.26783,-3.42646,0.51698
489.759,25.70184,-0.26836,-3.4268,0.51676
490.359,25.71986,-0.27103,-3.42713,0.51654
490.959,25.73788,-0.26927,-3.42818,0.51633
491.559,25.75584,-0.2704,-3.42845,0.51611
492.159,25.77388,-0.27093,-3.42961,0.51589
492.759,25.79192,-0.27341,-3.42956,0.51567
493.359,25.80994,-0.27493,-3.42955,0.51546
493.959,25.82797,-0.27479,-3.43079,0.51524
494.559,25.84604,-0.27631,-3.43086,0.51502
495.159,25.86407,-0.2768,-3.43166,0.5148
495.759,25.88208,-0.27856,-3.43227,0.51459
496.359,25.90001,-0.27626,-3.43262,0.51437
496.959,25.91808,-0.27781,-3.43365,0.51415
497.559,25.9361,-0.27823,-3.43362,0.51393
498.159,25.9542,-0.27595,-3.43361,0.51371
498.759,25.9723,-0.2819,-3.43359,0.5135
499.359,25.99052,-0.28011,-3.43432,0.51328
499.959,26.0086,-0.2816,-3.43507,0.51306
500.559,26.02671,-0.28241,-3.43543,0.51284
501.159,26.04478,-0.28494,-3.4364,0.51263
501.759,26.06278,-0.28454,-3.43635,0.51241
502.359,26.08094,-0.28492,-3.43635,0.51219
502.959,26.09907,-0.28483,-3.43771,0.51197
503.559,26.11717,-0.28422,-3.43789,0.51175
504.159,26.13533,-0.28666,-3.43943,0.51154
504.759,26.1536,-0.29048,-3.43935,0.51132
505.359,26.17171,-0.29159,-3.43944,0.5111
505.959,26.18992,-0.28972,-3.44063,0.51088
506.559,26.20808,-0.28825,-3.44063,0.51066
507.159,26.2263,-0.28993,-3.44062,0.51045
507.759,26.2445,-0.28771,-3.44055,0.51023
508.359,26.2627,-0.29288,-3.4418,0.51001
508.959,26.2809,-0.29262,-3.44195,0.50979
509.559,26.29917,-0.29023,-3.44195,0.50958
510.159,26.31734,-0.29245,-3.44191,0.50936
510.759,26.33558,-0.29622,-3.4432,0.50914
511.359,26.35387,-0.29411,-3.44379,0.50892
511.959,26.372,-0.29377,-3.44364,0.5087
512.559,26.3902,-0.2952,-3.44371,0.50849
513.159,26.4085,-0.29635,-3.44501,0.50827
513.759,26.4267,-0.29448,-3.44503,0.50805
514.359,26.4449,-0.29567,-3.44528,0.50783
514.959,26.46323,-0.29369,-3.44639,0.50762
515.559,26.4815,-0.29547,-3.44634,0.5074
516.159,26.49985,-0.29671,-3.44665,0.50718
516.759,26.5181,-0.29826,-3.4477,0.50696
517.359,26.53643,-0.30065,-3.44802,0.50674
517.959,26.5547,-0.30034,-3.44902,0.50653
518.559,26.57297,-0.29893,-3.44898,0.50631
519.159,26.5913,-0.30099,-3.44852,0.50609
519.759,26.60956,-0.29976,-3.44893,0.50587
520.359,26.62787,-0.30189,-3.44895,0.50566
520.959,26.6462,-0.30086,-3.44897,0.50544
521.559,26.6646,-0.30243,-3.44898,0.50522
522.159,26.6829,-0.30451,-3.44909,0.505
522.759,26.7013,-0.30873,-3.45043,0.50479
523.359,26.7196,-0.30217,-3.45039,0.50457
523.959,26.7379,-0.30193,-3.45234,0.50435
524.559,26.7563,-0.30599,-3.45302,0.50413
525.159,26.7747,-0.30947,-3.45304,0.50391
525.759,26.79301,-0.3106,-3.45317,0.5037
526.359,26.8114,-0.30749,-3.45438,0.50348
526.959,26.8298,-0.30849,-3.45435,0.50326
527.559,26.8482,-0.30742,-3.45435,0.50304
528.159,26.86652,-0.31129,-3.45435,0.50283
528.759,26.88498,-0.31564,-3.45435,0.50261
529.359,26.90343,-0.31007,-3.45437,0.50239
529.959,26.9219,-0.3103,-3.45586,0.50217
530.559,26.94036,-0.31043,-3.45578,0.50196
531.159,26.9588,-0.30902,-3.45581,0.50174
531.759,26.9772,-0.3104,-3.45578,0.50152
532.359,26.9957,-0.31357,-3.45577,0.50131
532.959,27.0141,-0.31939,-3.45577,0.50109
533.559,27.03258,-0.31664,-3.45578,0.50087
534.159,27.0511,-0.31778,-3.45584,0.50065
534.759,27.06956,-0.31748,-3.45737,0.50044
535.359,27.088,-0.31902,-3.45844,0.50022
535.959,27.10647,-0.31935,-3.45841,0.5
536.559,27.12493,-0.31759,-3.45846,0.49978
537.159,27.1434,-0.32067,-3.45982,0.49957
537.759,27.1619,-0.32319,-3.45973,0.49935
538.359,27.18038,-0.32551,-3.45972,0.49913
538.959,27.1989,-0.32617,-3.45972,0.49892
539.559,27.21739,-0.32682,-3.45971,0.4987
540.159,27.2359,-0.32613,-3.46068,0.49848
540.759,27.25442,-0.32494,-3.46101,0.49827
541.359,27.2729,-0.32259,-3.46098,0.49805
541.959,27.29147,-0.32479,-3.46213,0.49783
542.559,27.3101,-0.32197,-3.46235,0.49761
543.159,27.32862,-0.32304,-3.46235,0.4974
543.759,27.34716,-0.32669,-3.46237,0.49718
544.359,27.36575,-0.3256,-3.4627,0.49696
544.959,27.38433,-0.32724,-3.46335,0.49675
545.559,27.40285,-0.32694,-3.46331,0.49653
546.159,27.4215,-0.32774,-3.46413,0.49631
546.759,27.44003,-0.32911,-3.46477,0.4961
547.359,27.45859,-0.33083,-3.46531,0.49588
547.959,27.47717,-0.33201,-3.46611,0.49566
548.559,27.4958,-0.33567,-3.46608,0.49545
549.159,27.51432,-0.33963,-3.46608,0.49523
549.759,27.5329,-0.33603,-3.46608,0.49502
550.359,27.55159,-0.33348,-3.46608,0.4948
550.959,27.5702,-0.33355,-3.46608,0.49458
551.559,27.5889,-0.33372,-3.4667,0.49437
552.159,27.60753,-0.33404,-3.46612,0.49415
552.759,27.62619,-0.33724,-3.4661,0.49393
553.359,27.6448,-0.33686,-3.46633,0.49372
553.959,27.6635,-0.33877,-3.46745,0.4935
554.559,27.68215,-0.33949,-3.4674,0.49329
555.159,27.70086,-0.33975,-3.46739,0.49307
555.759,27.71947,-0.34286,-3.46834,0.49285
556.359,27.7381,-0.34484,-3.46873,0.49264
556.959,27.7568,-0.34495,-3.46878,0.49242
557.559,27.77545,-0.3456,-3.46782,0.49221
558.159,27.79407,-0.34634,-3.46773,0.49199
558.759,27.81274,-0.34513,-3.46773,0.49177
559.359,27.8314,-0.34417,-3.46774,0.49156
559.959,27.85009,-0.34315,-3.46906,0.49134
560.559,27.8688,-0.34182,-3.47035,0.49113
561.159,27.8875,-0.34291,-3.47035,0.49091
561.759,27.90625,-0.34454,-3.47136,0.4907
562.359,27.925,-0.34516,-3.47166,0.49048
562.959,27.9437,-0.35064,-3.47168,0.49026
563.559,27.96254,-0.35172,-3.47168,0.49005
564.159,27.9813,-0.3479,-3.47168,0.48983
564.759,27.99997,-0.34827,-3.47168,0.48962
565.359,28.01867,-0.34878,-3.47295,0.4894
565.959,28.03738,-0.34953,-3.473,0.48919
566.559,28.0561,-0.35217,-3.4731,0.48897
567.159,28.0748,-0.35486,-3.47175,0.48876
567.759,28.0936,-0.35657,-3.4717,0.48854
568.359,28.11236,-0.35544,-3.47186,0.48833
568.959,28.13118,-0.35484,-3.47298,0.48811
569.559,28.15,-0.35536,-3.47365,0.4879
570.159,28.1688,-0.3575,-3.47361,0.48768
570.759,28.18761,-0.35298,-3.47434,0.48747
571.359,28.2064,-0.35609,-3.47431,0.48725
571.959,28.2251,-0.36032,-3.47426,0.48704
572.559,28.2439,-0.36293,-3.47528,0.48682
573.159,28.26268,-0.36193,-3.47561,0.48661
573.759,28.2815,-0.36373,-3.47562,0.48639
574.359,28.30027,-0.36368,-3.47563,0.48618
574.959,28.31897,-0.3642,-3.47468,0.48597
575.559,28.33772,-0.37065,-3.4757,0.48575
576.159,28.35653,-0.37575,-3.47575,0.48554
576.759,28.3753,-0.37772,-3.47603,0.48532
577.359,28.39418,-0.37881,-3.4771,0.48511
577.959,28.41317,-0.37935,-3.47705,0.48489
578.559,28.43208,-0.37781,-3.47705,0.48468
579.159,28.45096,-0.38009,-3.47704,0.48447
579.759,28.4698,-0.37968,-3.4777,0.48425
580.359,28.48865,-0.38157,-3.47838,0.48404
580.959,28.50752,-0.38188,-3.47837,0.48383
581.559,28.5264,-0.38725,-3.4784,0.48361
582.159,28.5452,-0.38668,-3.47886,0.4834
582.759,28.56413,-0.38818,-3.4797,0.48318
583.359,28.5831,-0.3869,-3.47969,0.48297
583.959,28.602,-0.38796,-3.47969,0.48276
584.559,28.62088,-0.38979,-3.47969,0.48254
585.159,28.63979,-0.39033,-3.4797,0.48233
585.759,28.65867,-0.38803,-3.47867,0.48212
586.359,28.6775,-0.3911,-3.4787,0.4819
586.959,28.69636,-0.39544,-3.47869,0.48169
587.559,28.71521,-0.39375,-3.47861,0.48148
588.159,28.7341,-0.39289,-3.47993,0.48126
588.759,28.7531,-0.39273,-3.48002,0.48105
589.359,28.772,-0.39227,-3.48003,0.48084
589.959,28.79099,-0.3917,-3.48009,0.48063
590.559,28.81,-0.39266,-3.48133,0.48041
591.159,28.82886,-0.39351,-3.48133,0.4802
591.759,28.8478,-0.39592,-3.48133,0.47999
592.359,28.86676,-0.39539,-3.48133,0.47978
592.959,28.8857,-0.39603,-3.48133,0.47956
593.559,28.9046,-0.39953,-3.48133,0.47935
594.159,28.92355,-0.39894,-3.48133,0.47914
594.759,28.9424,-0.39648,-3.48133,0.47893
595.359,28.9614,-0.39665,-3.48134,0.47871
595.959,28.9803,-0.39745,-3.48135,0.4785
596.559,28.9992,-0.40071,-3.48455,0.47829
597.159,29.0182,-0.40583,-3.4889,0.47808
597.759,29.0371,-0.401,-3.49261,0.47787
598.359,29.05616,-0.40042,-3.49045,0.47765
598.959,29.0752,-0.40145,-3.48379,0.47744
599.559,29.09416,-0.40235,-3.47827,0.47723
600.159,29.11315,-0.40343,-3.47786,0.47702
600.759,29.13208,-0.40144,-3.47946,0.47681
601.359,29.151,-0.40169,-3.48177,0.4766
601.959,29.17,-0.40478,-3.48254,0.47639
602.559,29.18895,-0.40343,-3.48355,0.47617
603.159,29.20798,-0.40371,-3.48353,0.47596
603.759,29.22702,-0.41047,-3.48346,0.47575
604.359,29.246,-0.4101,-3.48433,0.47554
604.959,29.26505,-0.40594,-3.48558,0.47533
605.559,29.2841,-0.40311,-3.4855,0.47512
606.159,29.3031,-0.3974,-3.48549,0.47491
606.759,29.32218,-0.39805,-3.48549,0.4747
607.359,29.3412,-0.39964,-3.48549,0.47449
607.959,29.3603,-0.39937,-3.48549,0.47428
608.559,29.37936,-0.402,-3.48549,0.47407
609.159,29.3984,-0.40047,-3.48549,0.47386
609.759,29.41745,-0.39973,-3.48549,0.47365
610.359,29.43655,-0.40212,-3.48548,0.47343
610.959,29.45563,-0.40313,-3.48642,0.47322
611.559,29.4747,-0.40793,-3.48596,0.47301
612.159,29.4937,-0.39966,-3.48624,0.4728
612.759,29.5127,-0.39964,-3.4868,0.47259
613.359,29.53176,-0.40371,-3.48682,0.47239
613.959,29.5508,-0.40302,-3.48682,0.47218
614.559,29.5699,-0.40209,-3.48682,0.47197
615.159,29.5892,-0.4037,-3.48773,0.47176
615.759,29.6083,-0.40249,-3.48814,0.47155
616.359,29.62743,-0.40419,-3.48856,0.47134
616.959,29.6465,-0.41097,-3.49136,0.47113
617.559,29.66558,-0.41219,-3.49618,0.47092
618.159,29.6847,-0.41108,-3.49911,0.47071
618.759,29.70379,-0.4085,-3.49211,0.4705
619.359,29.7229,-0.40873,-3.4827,0.47029
619.959,29.742,-0.41205,-3.47852,0.47008
620.559,29.76118,-0.41461,-3.48255,0.46987
621.159,29.7803,-0.42038,-3.48686,0.46967
621.759,29.79942,-0.42299,-3.48913,0.46946
622.359,29.8185,-0.4206,-3.49057,0.46925
622.959,29.8377,-0.42041,-3.49031,0.46904
623.559,29.8568,-0.42081,-3.48981,0.46883
624.159,29.87595,-0.42373,-3.491,0.46862
624.759,29.89507,-0.42186,-3.49119,0.46842
625.359,29.91419,-0.42957,-3.49122,0.46821
625.959,29.93334,-0.43046,-3.4915,0.468
626.559,29.95249,-0.4246,-3.49216,0.46779
627.159,29.97167,-0.42419,-3.49219,0.46758
627.759,29.9908,-0.4289,-3.49219,0.46738
628.359,30.01,-0.42623,-3.49219,0.46717
628.959,30.02917,-0.42946,-3.49219,0.46696
629.559,30.04833,-0.42939,-3.49219,0.46675
630.159,30.06751,-0.43224,-3.49214,0.46655
630.759,30.08673,-0.42744,-3.49312,0.46634
631.359,30.1059,-0.43442,-3.49317,0.46613
631.959,30.12513,-0.43216,-3.49316,0.46592
632.559,30.14433,-0.43354,-3.493,0.46572
633.159,30.16354,-0.43178,-3.49321,0.46551
633.759,30.18275,-0.43454,-3.49316,0.4653
634.359,30.202,-0.43263,-3.49308,0.4651
634.959,30.22125,-0.43565,-3.49217,0.46489
635.559,30.24052,-0.43698,-3.49218,0.46468
636.159,30.25978,-0.43368,-3.49349,0.46448
636.759,30.27903,-0.43287,-3.4935,0.46427
637.359,30.2983,-0.43287,-3.4935,0.46407
637.959,30.3176,-0.43217,-3.49345,0.46386
638.559,30.33685,-0.42899,-3.49468,0.46365
639.159,30.3561,-0.42829,-3.49481,0.46345
639.759,30.37545,-0.43513,-3.49482,0.46324
640.359,30.39469,-0.43102,-3.49488,0.46304
640.959,30.41398,-0.431,-3.49623,0.46283
641.559,30.43328,-0.42883,-3.49614,0.46263
642.159,30.45263,-0.42643,-3.49613,0.46242
642.759,30.4719,-0.42831,-3.49613,0.46222
643.359,30.49125,-0.42763,-3.49615,0.46201
643.959,30.5106,-0.42506,-3.4951,0.4618
644.559,30.5299,-0.42641,-3.49482,0.4616
645.159,30.54917,-0.42942,-3.49482,0.4614
645.759,30.56852,-0.43199,-3.49485,0.46119
646.359,30.5878,-0.42954,-3.49358,0.46099
646.959,30.60715,-0.42709,-3.49342,0.46078
647.559,30.6263,-0.4297,-3.49485,0.46058
648.159,30.6457,-0.43195,-3.49492,0.46037
648.759,30.66494,-0.43011,-3.49492,0.46017
649.359,30.68429,-0.43444,-3.49493,0.45996
649.959,30.70372,-0.42767,-3.49733,0.45976
650.559,30.72315,-0.42751,-3.49763,0.45956
651.159,30.74251,-0.4271,-3.49854,0.45935
651.759,30.76197,-0.42808,-3.49898,0.45915
652.359,30.78132,-0.43149,-3.49899,0.45894
652.959,30.8007,-0.43157,-3.49899,0.45874
653.559,30.82005,-0.43094,-3.49899,0.45854
654.159,30.83942,-0.42722,-3.49838,0.45833
654.759,30.85878,-0.42684,-3.49766,0.45813
655.359,30.8782,-0.42838,-3.49767,0.45793
655.959,30.89756,-0.43018,-3.49767,0.45773
656.559,30.91692,-0.41881,-3.49768,0.45752
657.159,30.93628,-0.42201,-3.49802,0.45732
657.759,30.9557,-0.4177,-3.49915,0.45712
658.359,30.975,-0.41869,-3.4991,0.45691
658.959,30.99438,-0.4209,-3.4991,0.45671
659.559,31.0137,-0.42749,-3.4991,0.45651
660.159,31.03316,-0.4213,-3.4991,0.45631
660.759,31.0526,-0.41689,-3.4991,0.45611
661.359,31.072,-0.41169,-3.4991,0.4559
661.959,31.09147,-0.40808,-3.4991,0.4557
662.559,31.1109,-0.40425,-3.4991,0.4555
663.159,31.13024,-0.41101,-3.4991,0.4553
663.759,31.14968,-0.42745,-3.50005,0.4551
664.359,31.1691,-0.43348,-3.50045,0.4549
664.959,31.18862,-0.43591,-3.49906,0.45469
665.559,31.2081,-0.43257,-3.50033,0.45449
666.159,31.22755,-0.4293,-3.50153,0.45429
666.759,31.247,-0.43004,-3.50172,0.45409
667.359,31.26646,-0.43054,-3.50071,0.45389
667.959,31.28593,-0.43176,-3.50043,0.45369
668.559,31.3054,-0.42941,-3.50041,0.45349
669.159,31.3247,-0.42971,-3.50042,0.45329
669.759,31.34423,-0.43077,-3.50062,0.45309
670.359,31.36368,-0.42803,-3.50178,0.45289
670.959,31.38307,-0.43125,-3.50173,0.45269
671.559,31.40263,-0.42695,-3.50173,0.45249
672.159,31.4221,-0.4229,-3.50173,0.45229
672.759,31.44156,-0.41881,-3.50174,0.45209
673.359,31.4611,-0.4209,-3.50141,0.45189
673.959,31.4806,-0.42391,-3.50173,0.45169
674.559,31.5001,-0.4195,-3.50173,0.45149
675.159,31.5195,-0.42108,-3.50173,0.45129
675.759,31.53895,-0.41794,-3.50173,0.45109
676.359,31.5584,-0.41471,-3.50173,0.45089
676.959,31.57788,-0.41638,-3.50173,0.45069
677.559,31.5974,-0.42227,-3.50173,0.45049
678.159,31.617,-0.42467,-3.50173,0.45029
678.759,31.6365,-0.42722,-3.50174,0.45009
679.359,31.656,-0.42555,-3.50206,0.4499
679.959,31.6755,-0.42006,-3.50309,0.4497
680.559,31.69496,-0.42199,-3.50304,0.4495
681.159,31.7145,-0.42121,-3.50304,0.4493
681.759,31.73398,-0.42414,-3.50304,0.4491
682.359,31.75347,-0.42357,-3.50304,0.4489
682.959,31.77305,-0.42753,-3.50304,0.44871
683.559,31.79259,-0.4302,-3.50304,0.44851
684.159,31.8121,-0.43051,-3.50304,0.44831
684.759,31.83179,-0.43487,-3.50304,0.44811
685.359,31.8514,-0.4322,-3.50305,0.44792
685.959,31.87097,-0.43161,-3.5031,0.44772
686.559,31.89054,-0.42811,-3.50436,0.44752
687.159,31.9101,-0.43061,-3.50436,0.44732
687.759,31.9296,-0.42663,-3.50436,0.44713
688.359,31.94898,-0.42751,-3.50436,0.44693
688.959,31.96851,-0.43126,-3.50316,0.44673
689.559,31.9881,-0.43253,-3.50306,0.44654
690.159,32.00764,-0.43036,-3.50305,0.44634
690.759,32.0274,-0.42703,-3.50304,0.44614
691.359,32.0471,-0.4318,-3.50412,0.44595
691.959,32.0667,-0.4339,-3.50538,0.44575
692.559,32.08632,-0.43752,-3.50565,0.44556
693.159,32.1059,-0.43762,-3.50567,0.44536
693.759,32.12556,-0.43155,-3.50567,0.44516
694.359,32.14523,-0.42891,-3.50567,0.44497
694.959,32.16483,-0.42249,-3.50567,0.44477
695.559,32.1845,-0.42454,-3.50567,0.44458
696.159,32.20407,-0.42816,-3.50566,0.44438
696.759,32.2237,-0.42971,-3.5055,0.44419
697.359,32.24333,-0.42682,-3.50431,0.44399
697.959,32.26295,-0.428,-3.50436,0.4438
698.559,32.2826,-0.43541,-3.50436,0.4436
699.159,32.30219,-0.4445,-3.50436,0.44341
699.759,32.32181,-0.45192,-3.50433,0.44321
700.359,32.34142,-0.45892,-3.50545,0.44302
700.959,32.36104,-0.46445,-3.50568,0.44282
701.559,32.38062,-0.46266,-3.50568,0.44263
702.159,32.40017,-0.46901,-3.50568,0.44244
702.759,32.41984,-0.47266,-3.50568,0.44224
703.359,32.43949,-0.48011,-3.50568,0.44205
703.959,32.4591,-0.48619,-3.50568,0.44186
704.559,32.47893,-0.48371,-3.50568,0.44166
705.159,32.49865,-0.48846,-3.50568,0.44147
705.759,32.51831,-0.49732,-3.50564,0.44128
706.359,32.53799,-0.49771,-3.50692,0.44108
706.959,32.55764,-0.49134,-3.50699,0.44089
707.559,32.5773,-0.49235,-3.50702,0.4407
708.159,32.597,-0.49373,-3.50747,0.4405
708.759,32.61668,-0.49258,-3.50762,0.44031
709.359,32.63637,-0.49568,-3.50721,0.44012
709.959,32.65597,-0.49452,-3.50701,0.43993
710.559,32.6755,-0.49678,-3.50699,0.43973
711.159,32.69515,-0.50044,-3.50699,0.43954
711.759,32.71484,-0.50607,-3.50701,0.43935
712.359,32.73454,-0.51256,-3.50728,0.43916
712.959,32.75439,-0.51789,-3.50763,0.43897
713.559,32.77415,-0.51764,-3.50757,0.43877
714.159,32.79385,-0.52083,-3.50887,0.43858
714.759,32.81354,-0.52645,-3.50897,0.43839
715.359,32.83324,-0.52713,-3.50897,0.4382
715.959,32.8529,-0.52702,-3.50897,0.43801
716.559,32.8726,-0.5357,-3.50897,0.43782
717.159,32.8923,-0.53476,-3.50897,0.43763
717.759,32.91199,-0.53723,-3.50897,0.43744
718.359,32.93173,-0.53734,-3.50897,0.43725
718.959,32.9514,-0.5407,-3.50897,0.43705
719.559,32.97105,-0.54806,-3.50897,0.43686
720.159,32.9908,-0.54061,-3.50897,0.43667
720.759,33.0105,-0.53696,-3.50897,0.43648
721.359,33.0302,-0.53777,-3.50897,0.43629
721.959,33.0499,-0.53537,-3.50897,0.4361
722.559,33.06965,-0.53479,-3.50897,0.43591
723.159,33.08935,-0.53173,-3.51025,0.43573
723.759,33.10907,-0.53005,-3.50963,0.43554
724.359,33.1288,-0.53471,-3.50962,0.43535
724.959,33.1486,-0.53262,-3.50962,0.43516
725.559,33.1683,-0.53356,-3.50962,0.43497
726.159,33.18809,-0.53189,-3.50962,0.43478
726.759,33.20782,-0.5331,-3.50962,0.43459
727.359,33.2275,-0.5288,-3.50962,0.4344
727.959,33.24735,-0.52915,-3.50962,0.43421
728.559,33.26706,-0.53163,-3.50962,0.43402
729.159,33.28671,-0.53707,-3.50962,0.43384
729.759,33.30754,-0.52972,-3.50962,0.43365
730.359,33.32868,-0.53368,-3.50962,0.43346
730.559,33.33311,-0.53335,-3.50962,0.4334