File: 01_Data/FDNY_LDF/Cone/FDNY_LDF_Cone_HF50Scan_220913_R2.csv
Names,Time,Stack TC,Smoke TC,Exh Press,Smoke Comp,Smoke Meas,CO Meter,CO2 Meter,O2 Meter,Sample Mass,Ext Coeff,Start Test,Flame Verif
Chan Gain,,500,500,1,1,1,1,1,1,1,1,1.0,1.0
Offset,,0,0,0.139139,0,0,0,0,0,0,0,0.0,0.0
Gain,,1,1,25.011,13.0826,14.7555,1,1,1,1.00088,1.03743,1.0,1.0
Units,sec,C,C,Pa,%,%,%,%,%,g,/m,,
Baseline,,50.8845,52.3998,137.587,97.9988,99.515,0.00101608,0.0494675,20.9839,-445.082,-0.139653,,
4,0.75,48.974,50.3388,137.603,98.2339,99.8429,0.00212266,0.0558219,20.976,79.9804,-0.147845,0.0,0.0
8,1.75,48.404,50.0528,140.158,98.2351,99.1467,0.00192896,0.055433,20.9772,79.8503,-0.0840586,0.0,0.0
12,2.75,48.8395,49.9861,138.275,98.2467,98.6906,0.0017767,0.0547654,20.9779,79.8803,-0.0410195,0.0,0.0
16,3.75,48.5787,50.3473,135.183,98.2467,97.0933,0.0016974,0.0564629,20.9746,79.8703,0.107465,0.0,0.0
20,4.75,49.2874,50.402,140.617,98.2643,96.5453,0.00171396,0.0660873,20.955,79.6902,0.160602,0.0,0.0
24,5.75,48.9088,49.8586,125.481,98.2375,100.422,0.00182822,0.0911195,20.9119,79.6702,-0.2001,0.0,1.0
28,6.75,49.4287,50.6212,121.98,98.2327,99.9217,0.00196144,0.129979,20.87,79.47,-0.155135,0.0,1.0
32,7.75,50.0612,50.7173,120.21,98.2427,99.0409,0.00216198,0.172356,20.816,79.3999,-0.0736372,0.0,1.0
36,8.75,50.9207,51.4263,121.674,98.2295,99.9847,0.00238362,0.216671,20.7589,79.2298,-0.161171,0.0,1.0
40,9.75,52.4977,51.7617,124.279,98.2315,99.4232,0.00261566,0.260144,20.7109,79.1297,-0.109733,0.0,1.0
44,10.75,52.4121,50.802,122.37,98.2403,99.0422,0.00284649,0.296271,20.6698,78.9996,-0.0739833,0.0,1.0
48,11.75,53.1797,51.9257,124.495,98.2379,98.4978,0.00303397,0.325372,20.6372,78.8795,-0.0240452,0.0,0.0
52,12.75,54.5936,52.5156,124.805,98.2251,98.0255,0.00319163,0.349156,20.6117,78.7393,0.0185189,0.0,0.0
56,13.75,55.365,53.6263,123.681,98.2188,98.4758,0.00331807,0.36838,20.5936,78.6593,-0.0237809,0.0,0.0
60,14.75,56.2243,54.3375,123.378,98.2072,97.6247,0.00345161,0.382481,20.58,78.4791,0.0541371,0.0,0.0
64,15.75,57.0592,55.0843,127.451,98.204,97.4482,0.00360094,0.392712,20.5711,78.339,0.0703106,0.0,0.0
68,16.75,57.6629,55.3995,118.875,98.1836,97.5054,0.00375866,0.399943,20.5652,78.2389,0.0630845,0.0,0.0
72,17.75,58.642,56.1598,121.28,98.1736,97.4031,0.00388906,0.404879,20.5606,78.1288,0.0717035,0.0,0.0
76,18.75,59.5341,56.6887,121.341,98.1752,97.3644,0.00397011,0.408518,20.5575,77.9687,0.0754709,0.0,0.0
80,19.75,60.2235,57.5063,122.231,98.1645,97.1127,0.00400027,0.411718,20.5547,77.8786,0.09803,0.0,0.0
84,20.75,61.234,58.7854,121.074,98.1637,97.4937,0.00398719,0.414258,20.5529,77.7585,0.062326,0.0,0.0
88,21.75,61.505,58.9722,121.59,98.172,96.303,0.00396246,0.416042,20.5517,77.6184,0.174921,0.0,0.0
92,22.75,62.086,59.5559,121.833,98.1533,97.9422,0.00394427,0.417403,20.5509,77.5683,0.019595,0.0,0.0
96,23.75,62.8648,59.6881,119.643,98.1529,97.6972,0.0039506,0.418485,20.5509,77.4282,0.0423478,0.0,0.0
100,24.75,63.104,60.6978,125.165,98.1497,96.4413,0.00396696,0.419309,20.5512,77.3081,0.159794,0.0,0.0
104,25.75,63.9799,61.3319,123.929,98.1529,96.9803,0.0039771,0.419515,20.552,77.1579,0.109371,0.0,0.0
108,26.75,63.9319,61.793,123.753,98.1513,96.5295,0.00399192,0.418686,20.5538,77.0979,0.151619,0.0,0.0
112,27.75,64.8014,62.4309,121.856,98.1637,96.7678,0.00402006,0.417781,20.5556,76.9678,0.130337,0.0,0.0
116,28.75,65.5782,62.7953,121.49,98.1788,97.2649,0.00406925,0.416455,20.5584,76.8277,0.0851111,0.0,0.0
120,29.75,65.6692,63.4367,120.497,98.1645,96.3949,0.00412644,0.414821,20.5602,76.7076,0.165542,0.0,0.0
124,30.75,66.1716,63.6242,124.849,98.1521,96.2382,0.00419675,0.413224,20.563,76.6375,0.1792,0.0,0.0
128,31.75,66.3779,64.3021,127.761,98.1621,95.832,0.00426466,0.41186,20.5648,76.5374,0.218615,0.0,0.0
132,32.75,66.627,64.7811,120.454,98.1641,96.1972,0.00431416,0.410542,20.5667,76.4173,0.184187,0.0,0.0
136,33.75,67.0237,64.8971,120.423,98.1764,96.5246,0.0043327,0.408874,20.5699,76.2872,0.154418,0.0,0.0
140,34.75,67.4641,65.5231,125.767,98.1844,96.1004,0.00434231,0.406527,20.5735,76.1771,0.195237,0.0,0.0
144,35.75,67.9919,65.8903,120.151,98.184,96.1941,0.00435038,0.403429,20.577,76.087,0.186335,0.0,0.0
148,36.75,67.588,66.1904,123.777,98.1852,96.9537,0.00435541,0.400231,20.5811,75.9769,0.114862,0.0,0.0
152,37.75,68.7409,66.6344,125.267,98.1824,97.3041,0.00434407,0.397108,20.5856,75.8968,0.0817788,0.0,0.0
156,38.75,68.5684,66.8892,124.735,98.1944,97.3581,0.00432118,0.393932,20.5893,75.7867,0.0778365,0.0,0.0
160,39.75,69.0964,66.9549,124.337,98.2012,97.409,0.00429017,0.390987,20.5922,75.6566,0.0737106,0.0,0.0
164,40.75,69.0567,67.0275,126.5,98.2052,97.5738,0.00426359,0.388282,20.5952,75.5465,0.0586954,0.0,0.0
168,41.75,68.6201,67.769,123.405,98.2219,98.804,0.00423687,0.385749,20.5985,75.4565,-0.0537713,0.0,0.0
172,42.75,69.1735,68.3419,127.804,98.2259,97.93,0.00421007,0.383064,20.6022,75.3664,0.0274603,0.0,0.0
176,43.75,69.3778,67.9818,127.061,98.2295,97.7643,0.00418517,0.380046,20.6055,75.2463,0.0432052,0.0,0.0
180,44.75,69.3241,68.4112,121.581,98.2335,96.725,0.00417235,0.377546,20.608,75.1362,0.140835,0.0,0.0
184,45.75,69.3216,68.9494,128.931,98.2247,97.4212,0.00416542,0.375044,20.6112,74.986,0.0747576,0.0,0.0
188,46.75,69.9003,68.9553,127.099,98.2251,97.5319,0.00415391,0.372396,20.6144,74.906,0.0644526,0.0,0.0
192,47.75,70.1572,69.2596,122.774,98.2291,97.2212,0.00410232,0.369805,20.6177,74.8459,0.0938596,0.0,0.0
196,48.75,69.8295,69.7143,129.631,98.202,97.2469,0.00400451,0.366894,20.6207,74.7358,0.0889428,0.0,0.0
200,49.75,70.2195,69.753,124.082,98.192,98.3128,0.00384638,0.364133,20.6238,74.6257,-0.011184,0.0,0.0
204,50.75,70.7768,69.9474,126.49,98.1968,98.1376,0.00368806,0.361709,20.6263,74.5056,0.00548872,0.0,0.0
208,51.75,70.6967,70.0947,128.675,98.1864,98.4046,0.00356254,0.359662,20.6296,74.4255,-0.0202004,0.0,0.0
212,52.75,70.5687,70.6011,123.402,98.1912,97.767,0.00347733,0.357188,20.6331,74.2754,0.0394017,0.0,0.0
216,53.75,70.8172,70.3656,126.212,98.1824,97.4851,0.00342514,0.354915,20.6364,74.2254,0.0648652,0.0,0.0
220,54.75,70.521,70.8087,124.934,98.18,97.0087,0.00339745,0.352214,20.6397,74.0852,0.109225,0.0,0.0
224,55.75,70.7385,70.8934,127.732,98.1728,97.1294,0.00334465,0.349134,20.6432,74.0052,0.0972454,0.0,0.0
228,56.75,70.8345,71.4628,126.694,98.174,98.1515,0.00324637,0.34581,20.6467,73.9051,0.00208591,0.0,0.0
232,57.75,70.8004,71.3551,128.859,98.1609,98.9814,0.00313675,0.342961,20.6499,73.805,-0.075758,0.0,0.0
236,58.75,71.2728,71.7461,127.121,98.1681,99.3516,0.00303069,0.340164,20.6531,73.6949,-0.10906,0.0,0.0
240,59.75,70.9498,71.264,125.891,98.1772,98.8594,0.00297236,0.337388,20.6568,73.5748,-0.0630147,0.0,0.0
244,60.75,70.832,71.7096,126.109,98.1744,99.2025,0.0029269,0.334753,20.6604,73.5348,-0.0948049,0.0,0.0
248,61.75,71.2056,71.5979,123.914,98.1768,98.7446,0.00291466,0.332543,20.6629,73.4547,-0.0524756,0.0,0.0
252,62.75,71.2044,72.0907,120.941,98.1748,99.1246,0.00290565,0.330253,20.6651,73.3646,-0.0876188,0.0,0.0
256,63.75,71.2255,71.7726,125.863,98.1605,98.3609,0.00287669,0.327521,20.6692,73.2045,-0.0185664,0.0,0.0
260,64.75,71.1506,72.2728,129.924,98.1521,99.3367,0.0028341,0.325283,20.6725,73.1344,-0.10918,0.0,0.0
264,65.75,71.1088,72.4286,125.971,98.1465,98.3609,0.00278892,0.322549,20.6751,72.9843,-0.0198612,0.0,0.0
268,66.75,70.9217,72.3654,121.615,98.1485,98.8954,0.00275454,0.320009,20.6774,72.9342,-0.0689953,0.0,0.0
272,67.75,71.0726,72.2686,125.739,98.1473,97.7445,0.00272767,0.317815,20.6795,72.8241,0.0374259,0.0,0.0
276,68.75,71.2682,72.2297,129.121,98.1489,99.3259,0.00270696,0.314847,20.6821,72.704,-0.108485,0.0,0.0
280,69.75,71.1937,72.6284,130.078,98.1461,98.7923,0.00269973,0.312289,20.6848,72.614,-0.0597234,0.0,0.0
284,70.75,70.9618,72.6221,121.356,98.1325,99.117,0.00272917,0.309723,20.6874,72.5239,-0.0908402,0.0,0.0
288,71.75,70.907,72.1767,125.443,98.1345,99.4128,0.00277627,0.307755,20.6903,72.4038,-0.117778,0.0,0.0
292,72.75,71.1393,72.5018,128.46,98.1221,99.2989,0.00281254,0.305772,20.6927,72.3037,-0.10849,0.0,0.0
296,73.75,70.9244,73.1242,129.696,98.1273,98.7257,0.00282488,0.30388,20.6956,72.1836,-0.0553222,0.0,0.0
300,74.75,71.2729,72.5896,128.479,98.113,99.0202,0.00282395,0.302374,20.6976,72.1135,-0.0837608,0.0,0.0
304,75.75,70.813,73.0055,133.261,98.1042,99.4372,0.00279085,0.300707,20.7,72.0134,-0.122817,0.0,0.0
308,76.75,70.8406,72.9108,127.887,98.1165,99.7402,0.00274115,0.298584,20.702,71.8933,-0.149362,0.0,0.0
312,77.75,71.2428,72.9147,127.74,98.095,99.8938,0.00267317,0.296677,20.7044,71.8333,-0.165361,0.0,0.0
316,78.75,71.0334,73.5144,125.198,98.0978,99.5876,0.00260938,0.294503,20.7075,71.7432,-0.137164,0.0,0.0
320,79.75,70.5667,73.5022,130.96,98.1201,98.9769,0.00255143,0.292079,20.711,71.6631,-0.0791208,0.0,0.0
324,80.75,70.3463,73.5252,127.938,98.099,99.9334,0.00249986,0.289641,20.7138,71.563,-0.1686,0.0,0.0
328,81.75,70.4254,73.2683,129.079,98.1014,99.348,0.00245834,0.287811,20.7159,71.493,-0.114913,0.0,0.0
332,82.75,70.1515,72.9874,132.242,98.1026,99.6353,0.00242904,0.286158,20.7178,71.3528,-0.14108,0.0,0.0
336,83.75,70.5271,72.8658,129.385,98.105,99.7654,0.00241442,0.284414,20.7191,71.3128,-0.152737,0.0,0.0
340,84.75,70.5141,73.152,127.82,98.1185,99.7339,0.00242781,0.282978,20.7199,71.2327,-0.148601,0.0,0.0
344,85.75,70.2376,72.8067,127.845,98.1229,99.7713,0.00246922,0.281784,20.7209,71.1326,-0.151604,0.0,0.0
348,86.75,70.0739,73.4301,131.137,98.1213,99.4786,0.00251786,0.280611,20.7224,71.0426,-0.125016,0.0,0.0
352,87.75,70.3758,73.0624,131.307,98.0914,99.8348,0.00254594,0.27934,20.7239,70.9425,-0.160319,0.0,0.0
356,88.75,69.9877,73.0449,131.856,98.089,99.393,0.00255224,0.278126,20.7258,70.8624,-0.120185,0.0,0.0
360,89.75,70.4991,73.2475,123.24,98.0814,99.9645,0.00254813,0.276876,20.7275,70.7823,-0.173059,0.0,0.0
364,90.75,70.3102,73.4553,124.56,98.0954,100.407,0.00252244,0.275331,20.7287,70.7123,-0.21197,0.0,0.0
368,91.75,70.2315,73.6257,130.392,98.0934,100.731,0.00248489,0.273478,20.7294,70.5922,-0.241493,0.0,0.0
372,92.75,69.8581,73.7613,130.792,98.115,99.452,0.00244822,0.271862,20.7315,70.5121,-0.123177,0.0,0.0
376,93.75,69.8889,73.487,129.182,98.1221,100.114,0.00238948,0.270335,20.7344,70.422,-0.182922,0.0,0.0
380,94.75,70.114,73.2712,129.027,98.1261,100.049,0.0023339,0.269217,20.7363,70.352,-0.176615,0.0,0.0
384,95.75,69.9261,73.4564,130.067,98.1529,100.623,0.00228766,0.267892,20.7391,70.2318,-0.226207,0.0,0.0
388,96.75,69.7106,73.3533,129.128,98.1533,99.5024,0.00223436,0.266523,20.741,70.1818,-0.124237,0.0,0.0
392,97.75,69.4357,73.1953,128.08,98.1613,99.7073,0.00219185,0.265442,20.7424,70.0617,-0.142216,0.0,0.0
396,98.75,69.5081,72.8713,126.591,98.1645,99.9073,0.00216547,0.264573,20.7434,70.0217,-0.160149,0.0,0.0
400,99.75,69.3267,73.1412,128.664,98.1808,100.656,0.00217208,0.263899,20.7441,69.9316,-0.226589,0.0,0.0
404,100.75,69.7067,72.9015,129.892,98.186,100.63,0.00219461,0.263297,20.745,69.8615,-0.223746,0.0,0.0
408,101.75,69.0775,73.4318,128.919,98.208,100.564,0.00220867,0.26224,20.747,69.8215,-0.215764,0.0,0.0
412,102.75,69.4204,72.8811,131.149,98.1856,100.18,0.00220593,0.260867,20.7488,69.7014,-0.18301,0.0,0.0
416,103.75,69.1713,72.7415,127.697,98.1904,100.163,0.00219693,0.259377,20.7501,69.6313,-0.181012,0.0,0.0
420,104.75,68.8089,73.0312,130.934,98.1884,100.471,0.00216348,0.258199,20.7515,69.5613,-0.209179,0.0,0.0
424,105.75,69.1065,73.3827,128.843,98.1848,100.864,0.00212547,0.257425,20.7526,69.5212,-0.245008,0.0,0.0
428,106.75,69.313,73.1524,128.933,98.1808,99.7812,0.00210586,0.256719,20.7533,69.4211,-0.14714,0.0,0.0
432,107.75,68.7858,72.6413,129.063,98.1924,99.8015,0.0021089,0.255869,20.7541,69.3511,-0.147915,0.0,0.0
436,108.75,69.1034,72.8005,127.166,98.178,100.184,0.00213468,0.254976,20.7551,69.291,-0.184081,0.0,0.0
440,109.75,68.9677,72.9524,128.564,98.184,100.719,0.00216711,0.254177,20.7563,69.1609,-0.231991,0.0,0.0
444,110.75,69.3799,72.8082,123.505,98.1928,101.287,0.0021966,0.253528,20.7571,69.1009,-0.282297,0.0,0.0
448,111.75,68.8077,73.0345,128.46,98.198,100.484,0.00221366,0.252816,20.7582,69.0408,-0.209433,0.0,0.0
452,112.75,68.5135,73.0697,129.639,98.1948,100.524,0.00222255,0.25192,20.7591,68.9207,-0.213317,0.0,0.0
456,113.75,69.0466,73.3481,129.514,98.2255,100.428,0.00223298,0.251017,20.7597,68.8506,-0.201781,0.0,0.0
460,114.75,68.7881,72.614,128.985,98.212,102.012,0.00225361,0.250088,20.7604,68.7906,-0.345508,0.0,0.0
464,115.75,68.9492,72.5168,126.686,98.2247,100.29,0.00227476,0.249148,20.7613,68.6705,-0.189401,0.0,0.0
468,116.75,68.384,72.9507,123.751,98.2188,100.939,0.00229413,0.248382,20.7617,68.6004,-0.248645,0.0,0.0
472,117.75,68.6334,72.6365,129.048,98.2259,100.302,0.00230522,0.247841,20.762,68.5303,-0.190352,0.0,0.0
476,118.75,68.8155,72.3038,128.164,98.2347,100.976,0.0022781,0.247229,20.7627,68.4703,-0.250494,0.0,0.0
480,119.75,68.5167,72.7781,128.449,98.2375,100.278,0.00222949,0.246648,20.7634,68.3602,-0.187114,0.0,0.0
484,120.75,68.2789,72.8106,130.608,98.2459,100.521,0.00217379,0.246077,20.7639,68.2601,-0.208378,0.0,0.0
488,121.75,68.3046,72.4825,129.376,98.2439,100.4,0.00213464,0.245588,20.7643,68.2101,-0.19759,0.0,0.0
492,122.75,68.543,72.4977,127.081,98.2459,100.065,0.00211035,0.24521,20.7645,68.15,-0.166988,0.0,0.0
496,123.75,68.697,72.5452,128.627,98.2467,100.656,0.00209211,0.245446,20.7638,68.0799,-0.220444,0.0,0.0
500,124.75,68.1802,72.8477,127.769,98.2503,100.65,0.00207852,0.246028,20.7634,67.9799,-0.219622,0.0,0.0
504,125.75,68.2111,72.7489,132.125,98.2415,101.223,0.00206237,0.24657,20.7631,67.9198,-0.272038,0.0,0.0
508,126.75,68.0056,72.252,130.317,98.2507,101.287,0.00203356,0.246959,20.7629,67.8498,-0.276934,0.0,0.0
512,127.75,68.0243,72.1277,126.453,98.2515,100.127,0.00199388,0.247158,20.7628,67.7897,-0.172038,0.0,0.0
516,128.75,68.144,72.1072,129.687,98.2471,100.894,0.00193935,0.247155,20.7628,67.7096,-0.241959,0.0,0.0
520,129.75,68.2731,72.4114,132.019,98.2487,100.974,0.00187735,0.246934,20.763,67.5795,-0.249038,0.0,0.0
524,130.75,68.5287,72.4068,128.48,98.2571,101.145,0.00182272,0.246748,20.7632,67.5095,-0.263589,0.0,0.0
528,131.75,68.1937,72.5679,128.044,98.2635,100.64,0.00178038,0.246886,20.7625,67.4494,-0.217507,0.0,0.0
532,132.75,68.1871,72.523,130.181,98.2687,100.805,0.00175079,0.247112,20.762,67.3793,-0.231917,0.0,0.0
536,133.75,68.0705,72.0292,127.883,98.2519,101.303,0.00173451,0.247521,20.7617,67.3193,-0.278279,0.0,0.0
540,134.75,67.654,72.2314,123.54,98.2471,100.36,0.00173382,0.248087,20.761,67.2192,-0.193661,0.0,0.0
544,135.75,68.0267,72.4529,126.625,98.2519,101.826,0.00174302,0.248774,20.7598,67.1191,-0.325164,0.0,0.0
548,136.75,68.1825,72.0304,126.378,98.2583,101.573,0.00176364,0.249529,20.7586,67.0691,-0.301926,0.0,0.0
552,137.75,68.1239,72.6457,129.213,98.2599,100.313,0.00180225,0.250241,20.7579,67.009,-0.188148,0.0,0.0
556,138.75,68.198,72.5782,127.366,98.2758,101.503,0.00183341,0.250816,20.7574,66.9189,-0.294044,0.0,0.0
560,139.75,68.1282,72.3656,131.325,98.2838,100.72,0.00185506,0.251455,20.7568,66.8489,-0.222785,0.0,0.0
564,140.75,68.1634,72.3652,128.916,98.2966,101.463,0.0018411,0.252117,20.7556,66.7888,-0.288488,0.0,0.0
568,141.75,68.2519,72.2987,126.57,98.3098,100.907,0.00179903,0.252893,20.7536,66.6687,-0.237333,0.0,0.0
572,142.75,68.2913,71.9267,120.237,98.323,101.089,0.00174615,0.254233,20.7509,66.5786,-0.252465,0.0,0.0
576,143.75,68.2919,71.914,126.9,98.3345,100.95,0.00171807,0.255973,20.7485,66.5086,-0.238899,0.0,0.0
580,144.75,68.3352,72.6162,127.21,98.3258,101.227,0.00173275,0.257387,20.747,66.3985,-0.264642,0.0,0.0
584,145.75,68.2456,72.5504,130.733,98.3501,100.259,0.00177165,0.258569,20.746,66.3184,-0.174892,0.0,0.0
588,146.75,68.1377,72.372,129.559,98.3581,101.252,0.00184777,0.259846,20.744,66.2083,-0.263876,0.0,0.0
592,147.75,67.9398,72.1422,127.339,98.3581,101.348,0.00194488,0.261352,20.7425,66.1182,-0.272492,0.0,0.0
596,148.75,68.3715,72.2514,133.434,98.3832,100.612,0.00206646,0.262773,20.7404,66.0682,-0.203814,0.0,0.0
600,149.75,68.2129,72.1256,131.062,98.4048,101.152,0.00218463,0.264114,20.7382,65.9481,-0.250565,0.0,0.0
604,150.75,68.6607,72.2717,128.821,98.4144,101.519,0.00226102,0.265147,20.7362,65.898,-0.282637,0.0,0.0
608,151.75,68.5068,71.8734,129.024,98.418,100.944,0.00228718,0.267085,20.7333,65.808,-0.230611,0.0,0.0
612,152.75,68.5609,72.0394,128.298,98.4407,101.407,0.00226849,0.269574,20.7297,65.7579,-0.270185,0.0,0.0
616,153.75,68.2223,72.0229,124.78,98.4507,101.238,0.00222909,0.272194,20.7268,65.6878,-0.254095,0.0,0.0
620,154.75,68.2897,72.3629,125.297,98.4799,101.55,0.00219134,0.274877,20.7238,65.5878,-0.27941,0.0,0.0
624,155.75,68.4887,72.1546,125.657,98.4819,101.531,0.00216477,0.27767,20.7198,65.5077,-0.27745,0.0,0.0
628,156.75,68.056,72.7341,126.971,98.493,101.758,0.00215408,0.280622,20.7156,65.4476,-0.296775,0.0,0.0
632,157.75,68.5082,72.3259,129.82,98.4942,100.741,0.00216711,0.284181,20.7108,65.3676,-0.205236,0.0,0.0
636,158.75,68.8334,72.4824,124.388,98.515,100.216,0.00220044,0.287835,20.7061,65.2775,-0.155805,0.0,0.0
640,159.75,69.1223,72.6705,127.322,98.5182,101.274,0.00222766,0.291176,20.7031,65.1874,-0.251059,0.0,0.0
644,160.75,69.2225,72.4816,125.675,98.523,100.754,0.00228459,0.293891,20.7005,65.0973,-0.20376,0.0,0.0
648,161.75,69.0559,72.8989,128.064,98.521,101.351,0.00236563,0.296617,20.6986,65.0273,-0.257716,0.0,0.0
652,162.75,69.078,72.8871,126.919,98.5266,100.263,0.00243151,0.299617,20.6957,64.9372,-0.158987,0.0,0.0
656,163.75,69.3862,72.9824,124.911,98.5378,100.2,0.00250373,0.3023,20.694,64.8271,-0.15219,0.0,0.0
660,164.75,69.3941,72.9417,127.399,98.5354,99.8555,0.00254622,0.305007,20.6904,64.767,-0.121111,0.0,0.0
664,165.75,70.207,73.3597,126.01,98.5433,99.8839,0.00254009,0.308032,20.6857,64.677,-0.12296,0.0,0.0
668,166.75,70.0721,73.2515,121.899,98.5541,99.9307,0.00252021,0.312183,20.6814,64.5869,-0.12623,0.0,0.0
672,167.75,70.0104,73.4345,129.796,98.5605,99.4124,0.00247515,0.315994,20.676,64.4568,-0.0783176,0.0,0.0
676,168.75,70.0356,73.4288,125.513,98.5621,100.081,0.00241637,0.319705,20.671,64.3967,-0.139137,0.0,0.0
680,169.75,70.5117,73.4326,126.195,98.5693,99.4336,0.00237296,0.322476,20.6665,64.3266,-0.0794436,0.0,0.0
684,170.75,70.6913,73.4792,122.499,98.5721,99.3219,0.00235643,0.326084,20.662,64.1965,-0.0689592,0.0,0.0
688,171.75,70.3567,73.3293,126.677,98.5937,98.9144,0.00236678,0.330747,20.6558,64.1365,-0.0295529,0.0,0.0
692,172.75,70.7415,73.8711,127.764,98.5801,99.2264,0.00244026,0.335475,20.6499,64.0364,-0.0594706,0.0,0.0
696,173.75,70.9001,73.7202,126.321,98.5909,97.708,0.00254832,0.339752,20.6442,63.9363,0.0818584,0.0,0.0
700,174.75,71.2095,74.1234,124.143,98.5909,98.2096,0.00265868,0.34386,20.6394,63.8462,0.0352573,0.0,0.0
704,175.75,70.8364,74.3988,131.125,98.5992,98.1687,0.00276942,0.347612,20.6334,63.7662,0.0398283,0.0,0.0
708,176.75,71.2439,74.4891,123.981,98.6004,98.1263,0.00284468,0.352007,20.6266,63.6561,0.0438638,0.0,0.0
712,177.75,72.0937,74.3142,126.079,98.6056,98.5429,0.00289837,0.356613,20.6214,63.566,0.00579554,0.0,0.0
716,178.75,71.5504,74.5343,126.035,98.6156,98.478,0.0029566,0.360364,20.6161,63.4459,0.0127065,0.0,0.0
720,179.75,72.0182,74.7336,128.043,98.6008,98.0732,0.00302837,0.364072,20.612,63.3958,0.0488298,0.0,0.0
724,180.75,72.3121,75.2641,121.398,98.6108,97.1793,0.00309095,0.367123,20.6086,63.2557,0.133073,0.0,0.0
728,181.75,72.2641,75.222,123.231,98.6148,97.8724,0.00319217,0.36954,20.6059,63.2257,0.0687743,0.0,0.0
732,182.75,72.3804,75.7266,127.286,98.612,96.9042,0.00328498,0.372013,20.6036,63.0956,0.158984,0.0,0.0
736,183.75,72.4424,75.2985,126.536,98.62,97.3973,0.00334904,0.374118,20.6017,63.0055,0.113533,0.0,0.0
740,184.75,72.7011,75.7188,119.964,98.6312,97.6954,0.00337672,0.375891,20.6005,62.8954,0.0867542,0.0,0.0
744,185.75,73.0139,75.6867,123.268,98.6352,97.7274,0.0033866,0.377552,20.599,62.7753,0.0841449,0.0,0.0
748,186.75,72.9076,76.0221,131.199,98.6408,96.9627,0.00341357,0.378544,20.5979,62.6952,0.15614,0.0,0.0
752,187.75,73.3861,76.1481,127.428,98.6328,97.3027,0.00346766,0.378981,20.5966,62.6051,0.123552,0.0,0.0
756,188.75,73.177,76.0114,125.355,98.6348,96.0869,0.00351369,0.379303,20.5958,62.465,0.238163,0.0,0.0
760,189.75,73.2252,76.0934,124.632,98.6336,97.7359,0.00355179,0.379491,20.5953,62.3949,0.0832011,0.0,0.0
764,190.75,73.5696,76.8081,125.746,98.6412,96.421,0.00358007,0.379696,20.5941,62.3149,0.207162,0.0,0.0
768,191.75,73.8067,76.4005,124.457,98.6376,96.5498,0.00361019,0.379675,20.5934,62.1748,0.194684,0.0,0.0
772,192.75,73.8092,76.6619,128.059,98.6448,97.1672,0.00364846,0.380078,20.5929,62.0847,0.137342,0.0,0.0
776,193.75,73.9446,76.6927,127.178,98.6611,96.2877,0.0036944,0.380902,20.5913,62.0246,0.221592,0.0,0.0
780,194.75,74.1402,77.0822,123.251,98.6515,97.2379,0.0037209,0.382306,20.589,61.8845,0.131349,0.0,0.0
784,195.75,74.4556,76.5412,122.321,98.6531,96.634,0.0037346,0.383994,20.5868,61.8044,0.188187,0.0,0.0
788,196.75,74.0208,77.1174,122.81,98.6551,96.9632,0.00373905,0.385541,20.5854,61.7244,0.157424,0.0,0.0
792,197.75,74.5134,77.1535,125.446,98.6575,96.2841,0.00374891,0.386911,20.5844,61.6143,0.221602,0.0,0.0
796,198.75,74.5755,77.3464,121.631,98.6623,96.3616,0.00376233,0.387622,20.583,61.4841,0.214726,0.0,0.0
800,199.75,74.8313,77.7709,125.694,98.6647,96.2823,0.00377807,0.38799,20.582,61.4241,0.222435,0.0,0.0
804,200.75,74.4949,77.6776,124.803,98.6647,95.7843,0.00379333,0.388707,20.5798,61.304,0.269629,0.0,0.0
808,201.75,74.5488,78.1152,125.526,98.6771,95.2336,0.00381478,0.390796,20.576,61.2539,0.323244,0.0,0.0
812,202.75,75.0922,78.0315,121.8,98.6843,95.5416,0.00383068,0.393509,20.5728,61.1639,0.294522,0.0,0.0
816,203.75,75.2766,77.7115,123.747,98.6691,97.0762,0.0038416,0.39611,20.5703,61.0638,0.148112,0.0,0.0
820,204.75,75.0656,77.9858,128.851,98.6595,97.0965,0.00385005,0.398136,20.5683,60.9337,0.145328,0.0,0.0
824,205.75,75.3187,77.9607,121.952,98.6551,96.6664,0.00384989,0.399887,20.5665,60.8136,0.185319,0.0,0.0
828,206.75,75.6896,78.6738,123.589,98.6663,96.8857,0.00382125,0.401163,20.5651,60.6935,0.165727,0.0,0.0
832,207.75,75.2416,78.8644,127.606,98.6639,96.8506,0.00375678,0.402299,20.5636,60.6034,0.168806,0.0,0.0
836,208.75,76.0023,78.5452,119.729,98.6575,96.272,0.00367512,0.403748,20.5613,60.5133,0.222751,0.0,0.0
840,209.75,75.8459,78.8946,124.757,98.6679,97.0821,0.00357176,0.405341,20.5596,60.3932,0.147452,0.0,0.0
844,210.75,75.7801,78.9876,123.033,98.6567,96.5025,0.00345598,0.406764,20.5583,60.233,0.200909,0.0,0.0
848,211.75,75.8752,78.7534,125.191,98.6607,96.6385,0.00338254,0.407765,20.5569,60.193,0.188461,0.0,0.0
852,212.75,76.0716,78.9319,121.411,98.6611,97.2708,0.00337244,0.40912,20.5559,60.133,0.129157,0.0,0.0
856,213.75,76.4791,78.8421,123.446,98.6567,97.241,0.003433,0.410635,20.5553,60.0129,0.131533,0.0,0.0
860,214.75,76.7431,79.2984,125.015,98.6595,97.404,0.00354882,0.411923,20.5549,59.8827,0.116549,0.0,0.0
864,215.75,76.9729,79.4854,123.727,98.6571,96.3458,0.00365436,0.412426,20.5539,59.7526,0.215736,0.0,0.0
868,216.75,76.7849,79.427,125.681,98.6667,97.5,0.0037163,0.41243,20.5536,59.6425,0.108254,0.0,0.0
872,217.75,76.7724,79.7774,124.446,98.6575,96.3445,0.00372944,0.412494,20.5538,59.5324,0.2159,0.0,0.0
876,218.75,76.8927,79.6741,120.927,98.6647,97.214,0.00371969,0.41258,20.5544,59.4323,0.134799,0.0,0.0
880,219.75,77.2354,80.3281,122.169,98.6515,97.3878,0.00370014,0.412502,20.5553,59.3423,0.117327,0.0,0.0
884,220.75,77.152,80.6414,121.985,98.6627,97.0569,0.00368548,0.411624,20.557,59.2222,0.149338,0.0,0.0
888,221.75,77.4611,80.3494,122.636,98.6575,98.2389,0.00367829,0.410034,20.5592,59.1221,0.0386974,0.0,0.0
892,222.75,77.5667,80.6105,125.26,98.6583,97.5495,0.00367695,0.408326,20.5607,59.022,0.10286,0.0,0.0
896,223.75,77.5466,80.6492,123.609,98.6571,97.1694,0.00364137,0.406257,20.5632,58.9419,0.138273,0.0,0.0
900,224.75,77.8026,80.664,124.478,98.6599,96.7412,0.00358977,0.403707,20.5657,58.8118,0.178726,0.0,0.0
904,225.75,77.3566,81.2203,122.012,98.6703,98.0322,0.00347858,0.400138,20.5708,58.6817,0.0590414,0.0,0.0
908,226.75,77.3897,81.0345,125.818,98.6639,97.0663,0.00336066,0.39495,20.577,58.6016,0.148561,0.0,0.0
912,227.75,77.8573,81.1564,121.67,98.6655,96.3337,0.00323814,0.391265,20.5846,58.4815,0.217657,0.0,0.0
916,228.75,77.7705,80.9449,126.2,98.6523,96.7862,0.00311346,0.385186,20.5925,58.4415,0.173791,0.0,0.0
920,229.75,77.3654,81.3408,123.995,98.6611,98.2659,0.00302238,0.378849,20.6005,58.3214,0.0365269,0.0,0.0
924,230.75,77.5941,81.3886,125.291,98.6488,96.883,0.00297201,0.372261,20.6074,58.2813,0.164361,0.0,0.0
928,231.75,77.1654,81.1704,125.683,98.6539,97.5558,0.00296184,0.36555,20.6136,58.2013,0.101866,0.0,0.0
932,232.75,77.2164,81.0422,121.023,98.6575,97.8066,0.00297038,0.358101,20.6206,58.1512,0.0788303,0.0,0.0
936,233.75,77.0359,81.1072,127.219,98.6452,97.6134,0.00299468,0.348447,20.6304,58.0211,0.0956815,0.0,0.0
940,234.75,76.9642,81.2192,125.523,98.6591,97.2455,0.00301846,0.341052,20.6418,57.951,0.131333,0.0,0.0
944,235.75,76.2792,80.5029,126.186,98.6483,95.9072,0.00305081,0.328982,20.6583,57.921,0.256447,0.0,0.0
948,236.75,76.5293,80.7424,126.571,98.6539,96.938,0.00308029,0.315609,20.6754,57.8509,0.159681,0.0,0.0
952,237.75,76.4847,80.5819,127.316,98.6555,97.4288,0.00312963,0.301904,20.6916,57.8209,0.113867,0.0,0.0
956,238.75,75.9584,80.4736,129.083,98.6539,98.6861,0.00317355,0.287975,20.7088,57.7308,-0.00296155,0.0,0.0
960,239.75,75.8026,80.3239,128.37,98.6555,98.5703,0.00320929,0.272292,20.727,57.7008,0.00786386,0.0,0.0
964,240.75,75.1399,79.7418,133.411,98.6567,99.1818,0.00322581,0.258665,20.7475,57.6508,-0.0483079,0.0,0.0
968,241.75,74.9855,79.3188,130.502,98.6575,99.624,0.00321357,0.243546,20.7679,57.6608,-0.0887175,0.0,0.0
972,242.75,74.1359,79.4099,130.487,98.6595,99.9158,0.00316862,0.227603,20.7858,57.5807,-0.115149,0.0,0.0
976,243.75,73.6732,79.1173,133.51,98.6464,100.051,0.00313538,0.214078,20.7996,57.6107,-0.12866,0.0,0.0
980,244.75,73.3547,78.9421,130.39,98.6491,100.241,0.0031273,0.201719,20.8115,57.6608,-0.14567,0.0,0.0
984,245.75,72.7349,78.2533,134.799,98.6515,99.9807,0.00318844,0.191478,20.822,57.5607,-0.121789,0.0,0.0
988,246.75,72.5478,78.0652,134.548,98.6623,100.729,0.00331569,0.181577,20.8321,57.6007,-0.188661,0.0,0.0
992,247.75,71.4522,77.3991,133.595,98.6655,101.098,0.00348478,0.173185,20.8412,57.5707,-0.221665,0.0,0.0
996,248.75,71.6677,77.4448,131.473,98.6559,100.662,0.00365649,0.166037,20.8495,57.5507,-0.183146,0.0,0.0
1000,249.75,70.9197,77.3109,134.592,98.6543,100.011,0.00385493,0.159626,20.8562,57.5307,-0.124277,0.0,0.0
1004,250.75,70.5466,76.8742,134.345,98.6523,100.99,0.00406563,0.154073,20.8615,57.5006,-0.213106,0.0,0.0
1008,251.75,69.9676,76.3221,133.434,98.646,100.63,0.00426765,0.149229,20.8666,57.5006,-0.181217,0.0,0.0
1012,252.75,69.134,75.902,135.012,98.6607,100.954,0.00444452,0.145193,20.8715,57.4406,-0.209087,0.0,0.0
1016,253.75,69.2796,75.579,131.333,98.6623,100.846,0.00460536,0.14171,20.8758,57.4206,-0.199192,0.0,0.0
1020,254.75,68.2782,75.3965,131.287,98.6567,100.313,0.00473999,0.138303,20.8787,57.4106,-0.15155,0.0,0.0
1024,255.75,68.4622,74.8026,128.703,98.6615,100.892,0.0049367,0.135321,20.8812,57.4606,-0.20341,0.0,0.0
1028,256.75,67.7348,74.8127,132.852,98.6691,100.261,0.00518876,0.132726,20.8838,57.4206,-0.145668,0.0,0.0
1032,257.75,67.3508,74.2021,132.968,98.6711,101.013,0.00540182,0.130728,20.8859,57.4306,-0.213445,0.0,0.0
1036,258.75,67.2488,73.8325,133.951,98.6867,100.698,0.00560723,0.128698,20.888,57.4306,-0.183649,0.0,0.0
1040,259.75,66.6986,73.7145,135.758,98.6683,100.265,0.00578013,0.126809,20.8911,57.4306,-0.146068,0.0,0.0
1044,260.75,66.3621,73.0848,135.554,98.6703,100.298,0.00593339,0.125171,20.893,57.4306,-0.148868,0.0,0.0
1048,261.75,65.6131,72.9065,135.57,98.6767,100.952,0.00604579,0.123726,20.8947,57.4106,-0.20741,0.0,0.0
1052,262.75,65.809,72.497,134.88,98.6795,101.115,0.00618162,0.122314,20.8962,57.3705,-0.221835,0.0,0.0
1056,263.75,65.9433,71.9231,134.823,98.6719,100.368,0.00629071,0.121069,20.8972,57.3805,-0.155091,0.0,0.0
1060,264.75,64.7917,71.9826,132.043,98.6763,100.715,0.00637152,0.120138,20.8983,57.3605,-0.186071,0.0,0.0
1064,265.75,64.8074,71.5219,135.532,98.6839,101.248,0.00642148,0.118816,20.8999,57.3405,-0.233459,0.0,0.0
1068,266.75,64.5964,71.0609,137.755,98.6739,100.367,0.00645666,0.117683,20.9012,57.3005,-0.154785,0.0,0.0
1072,267.75,64.1108,71.2016,133.91,98.6763,100.943,0.00649585,0.116798,20.9024,57.2704,-0.206717,0.0,0.0
1076,268.75,63.991,70.8642,135.525,98.6791,101.382,0.00655022,0.1159,20.9037,57.2804,-0.245914,0.0,0.0
1080,269.75,63.3699,70.699,137.649,98.6787,100.949,0.00662526,0.115072,20.9045,57.2504,-0.207024,0.0,0.0
1084,270.75,63.1358,70.1707,137.227,98.6743,100.192,0.00669446,0.114398,20.9051,57.2504,-0.138933,0.0,0.0
1088,271.75,63.1671,69.3884,133.96,98.6771,100.318,0.00680804,0.113902,20.9055,57.2704,-0.150121,0.0,0.0
1092,272.75,62.356,69.8319,132.578,98.6815,100.892,0.00693902,0.113471,20.9063,57.2804,-0.201568,0.0,0.0
1096,273.75,63.0101,69.3695,134.501,98.6863,100.754,0.00706392,0.113001,20.9071,57.2905,-0.18873,0.0,0.0
1100,274.75,62.7005,69.2001,136.18,98.6719,100.663,0.00719534,0.112534,20.9076,57.2905,-0.181836,0.0,0.0
1104,275.75,62.4423,68.8559,135.589,98.6787,100.697,0.00732177,0.111874,20.9083,57.2404,-0.184263,0.0,0.0
1108,276.75,61.6204,68.5196,134.41,98.6747,100.264,0.00743317,0.111124,20.9092,57.2404,-0.145397,0.0,0.0
1112,277.75,61.7467,68.2018,136.713,98.6759,100.485,0.00751175,0.110407,20.9104,57.1904,-0.165292,0.0,0.0
1116,278.75,61.3435,67.8597,138.304,98.6783,101.245,0.00760051,0.109779,20.9112,57.2104,-0.233651,0.0,0.0
1120,279.75,60.6002,67.8016,138.875,98.6751,100.816,0.00768176,0.109261,20.9115,57.2504,-0.195332,0.0,0.0
1124,280.75,60.7806,67.7711,136.652,98.6663,101.028,0.0077435,0.108952,20.9115,57.1804,-0.215226,0.0,0.0
1128,281.75,60.9361,66.734,130.579,98.6679,100.382,0.00783589,0.108824,20.9109,57.1603,-0.156726,0.0,0.0
1132,282.75,60.8053,66.8524,134.088,98.6635,100.309,0.00793856,0.108845,20.9105,57.1904,-0.150515,0.0,0.0
1136,283.75,60.2353,67.1059,136.831,98.6571,99.8897,0.00803461,0.108794,20.9103,57.1703,-0.11299,0.0,0.0
1140,284.75,60.5706,66.629,133.326,98.6551,100.51,0.00810716,0.108684,20.9101,57.1503,-0.16949,0.0,0.0
1144,285.75,59.9701,66.4677,136.886,98.6499,100.727,0.00816422,0.108471,20.91,57.1403,-0.189599,0.0,0.0
1148,286.75,60.1616,66.358,131.87,98.6491,101.103,0.00820639,0.108173,20.9106,57.1203,-0.223621,0.0,0.0
1152,287.75,59.7124,65.7022,135.146,98.6376,100.529,0.00823779,0.107881,20.9111,57.1103,-0.172823,0.0,0.0
1156,288.75,59.3124,65.6386,135.588,98.6308,100.752,0.00825007,0.107665,20.9115,57.0803,-0.193645,0.0,0.0
1160,289.75,59.64,65.6198,133.997,98.6288,100.177,0.00823732,0.107528,20.9117,57.0703,-0.141742,0.0,0.0
1164,290.75,59.1648,65.3303,136.032,98.632,99.4345,0.00819364,0.107494,20.9119,57.0803,-0.0737411,0.0,0.0
1168,291.75,59.5454,64.8785,134.975,98.6128,100.746,0.00815398,0.107367,20.9122,57.0602,-0.194775,0.0,0.0
1172,292.75,58.8938,65.0741,132.944,98.6152,100.84,0.00811385,0.107046,20.913,57.0602,-0.20301,0.0,0.0
1176,293.75,59.1113,64.7468,136.83,98.6164,100.383,0.00808448,0.106756,20.9135,57.0402,-0.161599,0.0,0.0
1180,294.75,59.2073,64.8559,137.224,98.6136,100.251,0.00806048,0.10654,20.9139,57.0102,-0.149848,0.0,0.0
1184,295.75,58.0432,64.1505,135.261,98.6056,100.561,0.00804211,0.106377,20.9141,57.0002,-0.178705,0.0,0.0
1188,296.75,59.0347,64.1846,135.162,98.6052,100.082,0.00803805,0.106223,20.9142,56.9702,-0.13532,0.0,0.0
1192,297.75,58.2976,64.1222,138.098,98.6044,99.7001,0.00805046,0.105986,20.9146,56.9502,-0.100566,0.0,0.0
1196,298.75,58.2766,63.8804,132.056,98.6012,100.121,0.00813316,0.105726,20.9149,56.9401,-0.13921,0.0,0.0
1200,299.75,58.1639,63.8052,132.504,98.6096,100.461,0.008256,0.105527,20.915,56.9201,-0.169245,0.0,0.0
1204,300.75,58.1284,63.4171,132.578,98.606,101.044,0.00834964,0.105405,20.9152,56.9001,-0.222248,0.0,0.0
1208,301.75,58.2327,63.4587,131.488,98.6012,100.152,0.00852487,0.105313,20.9146,56.9001,-0.142034,0.0,0.0
1212,302.75,57.8382,63.2422,136.173,98.6072,100.738,0.00870155,0.105095,20.9141,56.9101,-0.194517,0.0,0.0
1216,303.75,57.7066,63.089,134.525,98.6004,100.494,0.00886498,0.104937,20.9138,56.9001,-0.173151,0.0,0.0
1220,304.75,57.4865,63.1663,136.35,98.6032,100.236,0.00898172,0.10488,20.9136,56.8901,-0.149498,0.0,0.0
1224,305.75,57.9812,62.3981,137.153,98.6188,100.468,0.00904518,0.104859,20.9135,56.8801,-0.16909,0.0,0.0
1228,306.75,57.524,62.3391,137.901,98.6048,100.219,0.00905519,0.104732,20.9136,56.8601,-0.147756,0.0,0.0
1232,307.75,57.3921,62.5504,136.941,98.6264,100.294,0.00903232,0.104548,20.9143,56.8801,-0.152592,0.0,0.0
1236,308.75,57.8375,62.4035,138.341,98.6108,101.059,0.00897115,0.104409,20.9147,56.83,-0.223144,0.0,0.0
1240,309.75,57.3343,62.245,131.621,98.5968,100.437,0.00887854,0.104265,20.915,56.83,-0.168302,0.0,0.0
1244,310.75,57.6296,61.9798,135.387,98.594,99.4227,0.00878415,0.104025,20.9152,56.81,-0.0761699,0.0,0.0
1248,311.75,57.694,62.0055,138.769,98.5917,100.405,0.00867957,0.103725,20.9153,56.8,-0.165884,0.0,0.0
1252,312.75,57.1215,62.34375,135.795,98.604,101.452,0.0086035,0.103515,20.9154,56.82,-0.259141,0.0,0.0
1256,313.75,57.2194,61.8074,136.457,98.5913,100.567,0.00858331,0.103359,20.9154,56.81,-0.18052,0.0,0.0
1260,314.75,56.8417,61.8322,137.025,98.5921,100.675,0.00862156,0.103249,20.9155,56.78,-0.190302,0.0,0.0
1264,315.75,57.0226,61.4302,139.363,98.5984,99.8357,0.00868438,0.103149,20.9155,56.79,-0.113481,0.0,0.0
1268,316.75,57.1045,61.5534,138.324,98.604,100.415,0.00874705,0.103006,20.9155,56.78,-0.165599,0.0,0.0
1272,317.75,57.3029,61.3679,132.613,98.5845,100.252,0.00880903,0.10295,20.9155,56.74,-0.152661,0.0,0.0
1276,318.75,56.9125,60.772,135.189,98.5777,100.368,0.00885713,0.103018,20.9155,56.73,-0.163826,0.0,0.0
1280,319.75,56.4034,60.7046,132.913,98.5885,100.885,0.00891005,0.10322,20.9155,56.76,-0.209542,0.0,0.0
1284,320.75,56.7382,60.7172,140.832,98.5789,100.258,0.00897285,0.103333,20.9155,56.75,-0.153667,0.0,0.0
1288,321.75,56.6802,60.3694,138.095,98.5837,100.71,0.00901785,0.103342,20.9155,56.6999,-0.194169,0.0,0.0
1292,322.75,56.8031,60.6778,133.305,98.5829,100.53,0.00902205,0.103241,20.9155,56.7099,-0.177952,0.0,0.0
1296,323.75,56.515,60.6685,135.699,98.5777,100.326,0.00899686,0.103025,20.9163,56.7099,-0.159947,0.0,0.0
1300,324.75,56.4454,60.6824,137.485,98.5817,100.77,0.00892816,0.102778,20.9166,56.6999,-0.199764,0.0,0.0
1304,325.75,56.5341,60.6326,136.486,98.5805,100.518,0.00884515,0.102589,20.9168,56.7099,-0.177155,0.0,0.0
1308,326.75,56.6849,59.995,137.576,98.5885,100.756,0.00880563,0.102437,20.917,56.6599,-0.197876,0.0,0.0
1312,327.75,56.4573,60.3273,138.139,98.5761,99.9347,0.00879545,0.1024,20.917,56.6399,-0.124571,0.0,0.0
1316,328.75,56.3704,59.8571,139.207,98.5709,100.812,0.00882634,0.102462,20.9171,56.6599,-0.204621,0.0,0.0
1320,329.75,56.3559,59.9363,133.93,98.5681,100.589,0.00888422,0.10254,20.9171,56.6599,-0.184695,0.0,0.0
1324,330.75,56.4521,59.4388,136.908,98.5753,100.208,0.00894117,0.102467,20.9172,56.6399,-0.14946,0.0,0.0
1328,331.75,56.1417,59.8327,137.332,98.5681,99.6528,0.00899369,0.10222,20.9172,56.6599,-0.099602,0.0,0.0
1332,332.75,56.0553,59.6425,136.525,98.5681,100.447,0.00902814,0.101889,20.9172,56.6499,-0.171812,0.0,0.0
1336,333.75,56.1625,59.5679,136.493,98.5681,99.4984,0.0090283,0.101609,20.9172,56.6799,-0.085487,0.0,0.0
1340,334.75,56.0317,59.3795,134.083,98.5713,100.289,0.00900739,0.101489,20.9172,56.6199,-0.157228,0.0,0.0
1344,335.75,55.6929,59.3646,130.8,98.5705,100.643,0.00898403,0.101452,20.9172,56.6399,-0.189321,0.0,0.0
1348,336.75,56.0453,59.2606,136.929,98.5709,99.6461,0.00897281,0.101343,20.9172,56.6699,-0.0987279,0.0,0.0
1352,337.75,55.9539,59.4478,136.853,98.5793,100.467,0.00897745,0.101122,20.9172,56.6799,-0.172616,0.0,0.0
1356,338.75,55.7419,58.9549,137.069,98.5741,101.091,0.00900474,0.100898,20.9172,56.5898,-0.229453,0.0,0.0
1360,339.75,55.5127,59.4645,134.608,98.5717,100.617,0.0090354,0.100849,20.9172,56.6499,-0.18693,0.0,0.0
1364,340.75,55.5577,59.3786,134.415,98.5721,99.8078,0.00908402,0.100798,20.9172,56.5898,-0.113369,0.0,0.0
1368,341.75,55.6788,58.9652,138.793,98.5861,100.152,0.00913018,0.100923,20.9172,56.6099,-0.143434,0.0,0.0
1372,342.75,55.1057,58.8657,134.793,98.5701,100.342,0.00915809,0.100983,20.9172,56.5798,-0.162159,0.0,0.0
1376,343.75,55.652,58.4844,138.11,98.5669,100.554,0.00915976,0.100987,20.9172,56.5998,-0.181627,0.0,0.0
1380,344.75,56.1062,58.7663,135.773,98.5721,100.221,0.00913473,0.100938,20.9178,56.5698,-0.150941,0.0,0.0
1384,345.75,55.5855,58.7024,133.137,98.5641,100.569,0.00910147,0.100939,20.9184,56.5398,-0.18323,0.0,0.0
1388,346.75,55.7827,58.5805,137.753,98.5673,101.011,0.00907511,0.100807,20.9188,56.5198,-0.222862,0.0,0.0
1392,347.75,55.801,58.377,131.248,98.5617,100.709,0.00906905,0.10048,20.9194,56.5198,-0.196156,0.0,0.0
1396,348.75,55.4066,58.1726,135.715,98.5537,101.049,0.0090848,0.100136,20.9199,56.5398,-0.227563,0.0,0.0
1400,349.75,55.1733,58.6561,132.814,98.5509,100.213,0.00910881,0.0999099,20.9201,56.5398,-0.152199,0.0,0.0
1404,350.75,55.3667,58.1671,136.092,98.5657,99.7267,0.00911889,0.0997616,20.9201,56.5098,-0.106565,0.0,0.0
1408,351.75,55.6649,58.5166,137.992,98.5633,101.06,0.00910451,0.0997431,20.9201,56.4998,-0.22761,0.0,0.0
1412,352.75,55.8225,58.4207,130.981,98.5649,99.6375,0.00907119,0.0997549,20.92,56.5098,-0.0984998,0.0,0.0
1416,353.75,55.1907,58.3802,137.023,98.5641,100.055,0.0090527,0.0996839,20.92,56.4998,-0.136578,0.0,0.0
1420,354.75,55.2615,58.2423,134.471,98.5617,101.065,0.00910232,0.0994717,20.9206,56.4998,-0.228203,0.0,0.0
1424,355.75,55.7265,58.1269,138.834,98.5581,100.363,0.00919194,0.099288,20.9212,56.4597,-0.165102,0.0,0.0
1428,356.75,54.53125,57.0163,137.381,98.5621,99.8712,0.00930546,0.0991239,20.9216,56.4497,-0.120078,0.0,0.0
1432,357.75,53.6984,56.1536,137.908,98.5557,100.209,0.0094347,0.098923,20.9219,56.4497,-0.151389,0.0,0.0
1436,358.75,53.156,56.5825,135.892,98.5537,100.411,0.00955892,0.0986572,20.922,56.4197,-0.169875,0.0,0.0
1440,359.75,53.4516,56.1219,136.778,98.5541,100.566,0.00968109,0.0983253,20.9221,56.4597,-0.183867,0.0,0.0
1444,360.75,53.2583,56.2003,132.084,98.5386,101.011,0.00979306,0.0979646,20.9222,56.4797,-0.225516,0.0,0.0
1448,361.75,53.3839,56.0008,134.142,98.5529,99.4556,0.00988157,0.0976387,20.9222,56.4197,-0.0829747,0.0,0.0
1452,362.75,53.7871,56.0827,134.864,98.5394,100.537,0.00991631,0.0973505,20.9223,56.4197,-0.182623,0.0,0.0
1456,363.75,53.3888,55.7895,136.55,98.5414,100.578,0.00988964,0.0971351,20.9223,56.3897,-0.186188,0.0,0.0
1460,364.75,53.7333,56.3107,136.928,98.537,100.129,0.00982989,0.0969318,20.9223,56.3396,-0.145881,0.0,0.0
1464,365.75,53.1694,55.6049,138.59,98.5202,100.677,0.00973592,0.0966577,20.9223,56.3696,-0.19706,0.0,0.0
1468,366.75,53.2819,55.9035,132.091,98.5174,100.934,0.00963143,0.0964446,20.9223,56.3797,-0.220571,0.0,0.0
1472,367.75,53.5031,55.5742,136.264,98.5018,100.222,0.00952914,0.0963482,20.9223,56.2896,-0.157553,0.0,0.0
1476,368.75,53.3501,56.2234,134.037,98.5054,99.4142,0.00945689,0.0962622,20.9223,56.3296,-0.0835714,0.0,0.0
1480,369.75,53.2396,55.6168,137.936,98.4883,100.131,0.00941268,0.0960902,20.9223,56.3296,-0.150544,0.0,0.0
1484,370.75,53.5064,55.7042,134.967,98.4807,99.7699,0.00942173,0.0958329,20.9226,56.3096,-0.118364,0.0,0.0
1488,371.75,53.5951,55.9239,137.817,98.4615,100.168,0.00944267,0.0957198,20.9228,56.2996,-0.156372,0.0,0.0
1492,372.75,53.112,55.1495,137.971,98.4631,99.8875,0.00947357,0.0957372,20.9234,56.2696,-0.130702,0.0,0.0
1496,373.75,53.3323,55.7168,136.518,98.4455,99.9158,0.009503,0.0959488,20.9241,56.2595,-0.134909,0.0,0.0
1500,374.75,52.9771,55.4578,137.148,98.418,99.8366,0.00951967,0.0959633,20.9246,56.2395,-0.130234,0.0,0.0
1504,375.75,53.202,55.4497,130.389,98.418,100.091,0.00951564,0.0958054,20.9249,56.2195,-0.153396,0.0,0.0
1508,376.75,53.426,55.6329,137.592,98.3828,100.331,0.00949357,0.0954134,20.9251,56.2195,-0.178401,0.0,0.0
1512,377.75,53.1652,55.0491,134.654,98.3733,100.852,0.00944946,0.0951039,20.9253,56.1895,-0.226502,0.0,0.0
1516,378.75,53.1702,55.5997,139.591,98.3633,100.547,0.00939354,0.0948595,20.9262,56.1995,-0.199794,0.0,0.0
1520,379.75,53.1993,55.5707,134.18,98.3473,100.138,0.0093212,0.0947293,20.9267,56.1895,-0.164231,0.0,0.0
1524,380.75,52.8334,55.3322,137.266,98.3234,99.6407,0.00925253,0.0946695,20.9267,56.1695,-0.121116,0.0,0.0
1528,381.75,52.8982,55.4149,134.697,98.3046,100.256,0.00919041,0.0946709,20.9269,56.1494,-0.1789,0.0,0.0
1532,382.75,53.0988,55.2483,137.727,98.279,100.613,0.00912756,0.0947265,20.9275,56.1494,-0.213621,0.0,0.0
1536,383.75,52.7044,54.9352,136.123,98.2723,100.358,0.0090599,0.0948389,20.9271,56.1394,-0.191168,0.0,0.0
1540,384.75,52.4635,55.369,132.239,98.2523,99.2489,0.00898988,0.0948602,20.9271,56.1294,-0.0918456,0.0,0.0
1544,385.75,53.1663,55.1844,135.802,98.2184,100.388,0.00892103,0.094848,20.9277,56.1394,-0.198855,0.0,0.0
1548,386.75,52.6768,55.1418,137.298,98.2008,100.277,0.00885659,0.0947367,20.928,56.1194,-0.190354,0.0,0.0
1552,387.75,52.8703,54.8562,134.461,98.2028,99.9293,0.00879582,0.0946566,20.9283,56.1194,-0.158607,0.0,0.0
1556,388.75,53.0495,54.7426,132.91,98.1752,100.464,0.00876306,0.0946715,20.9284,56.1494,-0.209706,0.0,0.0
1560,389.75,53.249,55.3385,134.42,98.1748,100.004,0.00877714,0.0947599,20.9285,56.1294,-0.168002,0.0,0.0
1564,390.75,53.4173,54.552,134.692,98.17,99.2831,0.00882925,0.0948201,20.9284,56.0894,-0.102604,0.0,0.0
1568,391.75,51.9984,54.1977,137.243,98.1768,99.5907,0.00888806,0.0948708,20.9282,56.1094,-0.130121,0.0,0.0
1572,392.75,52.4304,55.1032,136.064,98.198,99.9955,0.00893017,0.0949597,20.9281,56.0994,-0.165077,0.0,0.0
1576,393.75,52.4429,54.774,133.349,98.1888,99.3849,0.00892974,0.0950945,20.9279,56.0594,-0.110187,0.0,0.0
1580,394.75,52.3645,54.3049,135.506,98.1856,99.7803,0.00889819,0.0952616,20.9272,56.0894,-0.146614,0.0,0.0
1584,395.75,52.9549,54.9495,134.592,98.2028,99.941,0.00887093,0.0952119,20.9264,56.0494,-0.159672,0.0,0.0
1588,396.75,52.9635,54.2792,132.733,98.19,99.8523,0.00883333,0.0949741,20.9259,56.0594,-0.152775,0.0,0.0
1592,397.75,52.8237,54.9408,134.644,98.2008,99.5578,0.00878182,0.0946322,20.9255,56.0093,-0.124897,0.0,0.0
1596,398.75,52.8577,54.5825,135.523,98.21,100.097,0.00867179,0.0945127,20.9255,56.0093,-0.173224,0.0,0.0
1600,399.75,52.255,54.615,133.478,98.22,100.099,0.00854235,0.0944756,20.9261,56.0093,-0.172421,0.0,0.0
1604,400.75,52.1568,54.8273,139.981,98.2207,100.386,0.00839123,0.094421,20.9265,55.9893,-0.19847,0.0,0.0
1608,401.75,52.8026,54.4304,135.037,98.2243,99.719,0.00830517,0.0943122,20.9267,55.9793,-0.137438,0.0,0.0
1612,402.75,52.6376,54.6149,136.329,98.2327,100.591,0.00825952,0.0941828,20.9269,55.9893,-0.215874,0.0,0.0
1616,403.75,52.8484,53.8985,133.952,98.2275,99.9807,0.00828324,0.0941448,20.927,55.9993,-0.160986,0.0,0.0
1620,404.75,52.6322,54.5572,133.217,98.2164,100.54,0.00832893,0.094162,20.9271,55.9993,-0.212827,0.0,0.0
1624,405.75,52.6119,54.2743,136.276,98.2307,100.675,0.00839251,0.0942042,20.9271,56.0193,-0.223673,0.0,0.0
1628,406.75,52.2675,54.2425,137.278,98.2303,99.806,0.0084417,0.0941009,20.9271,56.0093,-0.144811,0.0,0.0
1632,407.75,52.7704,54.7907,134.111,98.2451,100.293,0.00844539,0.0939918,20.9272,55.9993,-0.18772,0.0,0.0
1636,408.75,52.8565,54.4306,133.942,98.2483,100.153,0.00842873,0.0939917,20.9272,56.0594,-0.174748,0.0,0.0
1640,409.75,52.6622,54.2485,138.898,98.2543,99.8348,0.00833736,0.0939106,20.9272,56.0293,-0.145219,0.0,0.0
1644,410.75,52.355,54.4119,137.011,98.2695,100.037,0.00822712,0.0936852,20.9272,56.0293,-0.162225,0.0,0.0
1648,411.75,52.4778,53.9688,136.341,98.2619,100.294,0.00810603,0.0934984,20.9274,56.0193,-0.186248,0.0,0.0
1652,412.75,52.455,54.7922,131.994,98.2774,100.02,0.00801525,0.0933758,20.928,56.0293,-0.159929,0.0,0.0
1656,413.75,52.2837,54.3646,138.723,98.2886,99.7843,0.00797751,0.0932428,20.9289,55.9893,-0.137442,0.0,0.0
1660,414.75,52.4288,54.1498,134.32,98.3126,99.9955,0.00798357,0.0930271,20.9294,56.0093,-0.154464,0.0,0.0
1664,415.75,53.1959,53.9531,136.881,98.313,101.23,0.00800763,0.0929236,20.9297,55.9893,-0.266068,0.0,0.0
1668,416.75,52.2713,54.4044,140.457,98.3329,99.7488,0.00806254,0.0929486,20.9297,55.9793,-0.130094,0.0,0.0
1672,417.75,52.5009,54.1515,137.765,98.3353,100.128,0.00809791,0.092965,20.9294,55.9593,-0.164439,0.0,0.0
1676,418.75,52.6209,54.0819,132.062,98.3557,99.9307,0.00809069,0.0929377,20.9295,55.9593,-0.144571,0.0,0.0
1680,419.75,52.6984,53.8756,134.796,98.3537,100.91,0.00804793,0.0928269,20.9301,55.9593,-0.233471,0.0,0.0
1684,420.75,52.3896,53.9942,140.101,98.3753,99.8213,0.00798135,0.0925971,20.9305,55.9293,-0.132791,0.0,0.0
1688,421.75,52.4535,54.1655,137.034,98.3944,99.6164,0.00791625,0.092394,20.9307,55.8992,-0.11232,0.0,0.0
1692,422.75,52.4497,53.9825,134.845,98.3984,100.2,0.00789715,0.0922195,20.9307,55.8792,-0.165149,0.0,0.0
1696,423.75,52.013,54.2109,141.364,98.4008,100.7,0.00790323,0.0920939,20.9306,55.8592,-0.21021,0.0,0.0
1700,424.75,52.79,53.8476,137.503,98.4248,99.4628,0.00792397,0.0920536,20.9303,55.8292,-0.0954752,0.0,0.0
1704,425.75,52.3504,53.8221,135.98,98.4383,99.8258,0.00794578,0.0921146,20.9297,55.8392,-0.127368,0.0,0.0
1708,426.75,52.4918,53.9947,133.572,98.4531,100.14,0.00794338,0.0922846,20.9299,55.8892,-0.15461,0.0,0.0
1712,427.75,52.1904,53.9057,140.653,98.4755,100.334,0.00789912,0.0923438,20.9301,55.8792,-0.170123,0.0,0.0
1716,428.75,52.506,53.6774,141.747,98.4695,99.1589,0.0078184,0.0922383,20.9302,55.8392,-0.0634894,0.0,0.0
1720,429.75,52.269,53.5676,138.486,98.4815,100.02,0.00774328,0.0920476,20.9302,55.8091,-0.141057,0.0,0.0
1724,430.75,52.3785,53.8069,135.836,98.4871,100.162,0.00767748,0.0917973,20.9303,55.7991,-0.153478,0.0,0.0
1728,431.75,52.1691,54.2427,136.828,98.5154,100.065,0.00766733,0.0916259,20.9303,55.7891,-0.142018,0.0,0.0
1732,432.75,52.2444,53.449,136.93,98.5218,100.51,0.00769228,0.0915768,20.9297,55.7891,-0.181799,0.0,0.0
1736,433.75,51.7394,53.6257,136.531,98.5306,100.817,0.00773761,0.0916219,20.9291,55.8192,-0.208751,0.0,0.0
1740,434.75,52.1996,53.7909,142.299,98.5374,100.987,0.007771,0.0917486,20.9287,55.7991,-0.223436,0.0,0.0
1744,435.75,52.0941,53.4139,133.548,98.5585,100.533,0.00779762,0.0918722,20.9289,55.7991,-0.180486,0.0,0.0
1748,436.75,52.2871,53.856,131.879,98.5897,100.94,0.00782481,0.0919161,20.9294,55.8192,-0.214385,0.0,0.0
1752,437.75,52.208,53.6008,135.04,98.5757,100.062,0.00785742,0.091945,20.9297,55.8192,-0.136205,0.0,0.0
1756,438.75,52.2115,54.0448,133.632,98.5793,100.725,0.00788217,0.0918592,20.93,55.8192,-0.195918,0.0,0.0
1760,439.75,52.0279,53.2386,135.145,98.5825,100.147,0.00790101,0.0917617,20.9302,55.7891,-0.143275,0.0,0.0
1764,440.75,52.0169,54.0937,136.095,98.5865,100.292,0.00791027,0.0916432,20.9308,55.7691,-0.156073,0.0,0.0
1768,441.75,52.027,53.3901,135.406,98.6028,99.661,0.00789777,0.0915303,20.9312,55.7891,-0.0971362,0.0,0.0
1772,442.75,52.6106,53.4833,134.054,98.608,99.9464,0.00787107,0.0915086,20.9314,55.7791,-0.122689,0.0,0.0
1776,443.75,52.0493,53.1256,138.312,98.6144,100.006,0.00783682,0.091285,20.9316,55.7691,-0.127511,0.0,0.0
1780,444.75,51.9925,53.7082,139.991,98.6164,100.071,0.00778367,0.0910337,20.9317,55.7591,-0.133266,0.0,0.0
1784,445.75,52.0518,53.7778,134.733,98.6248,100.084,0.00773936,0.0908894,20.9318,55.7191,-0.133679,0.0,0.0
1788,446.75,52.0689,53.6232,137.133,98.6308,99.692,0.00772144,0.0907858,20.9318,55.689,-0.0973939,0.0,0.0
1792,447.75,51.7285,53.6432,135.456,98.6292,100.14,0.0077257,0.0906758,20.9318,55.689,-0.13835,0.0,0.0
1796,448.75,52.0697,53.5433,136.275,98.6336,100.584,0.00775917,0.0905141,20.9318,55.659,-0.178204,0.0,0.0
1800,449.75,51.7922,53.777,134.998,98.6392,100.554,0.0077904,0.0904014,20.9319,55.659,-0.174957,0.0,0.0
1804,450.75,52.0577,53.4835,137.597,98.6424,100.807,0.00782205,0.0904397,20.9319,55.629,-0.197498,0.0,0.0
1808,451.75,51.6692,53.7155,137.771,98.6464,100.37,0.00784951,0.09058,20.9319,55.629,-0.157611,0.0,0.0
1812,452.75,51.9,53.5112,132.718,98.6476,100.505,0.00786483,0.0906349,20.9319,55.629,-0.169782,0.0,0.0
1816,453.75,52.0816,53.4178,135.164,98.6428,100.547,0.00786624,0.0906071,20.9322,55.609,-0.173974,0.0,0.0
1820,454.75,51.8031,53.2382,136.769,98.6471,100.289,0.00785596,0.090692,20.9324,55.599,-0.150227,0.0,0.0
1824,455.75,51.7617,53.2163,137.348,98.6579,100.012,0.00783415,0.0907333,20.9325,55.619,-0.124069,0.0,0.0
1828,456.75,51.8968,53.4439,136.02,98.6623,100.722,0.00777972,0.0906829,20.9326,55.589,-0.18801,0.0,0.0
1832,457.75,51.6739,53.4796,135.692,98.6791,100.686,0.00770623,0.0906436,20.9326,55.599,-0.183208,0.0,0.0
1836,458.75,51.8049,53.3311,130.816,98.6875,100.006,0.00759486,0.0906412,20.9327,55.609,-0.120811,0.0,0.0
1840,459.75,52.1596,53.0221,135.441,98.7054,100.78,0.00748038,0.0906397,20.9327,55.599,-0.189322,0.0,0.0
1844,460.75,51.9804,53.3361,134.226,98.6943,100.976,0.00736464,0.0905602,20.9327,55.599,-0.208023,0.0,0.0
1848,461.75,52.0333,53.2023,134.838,98.7162,100.429,0.00728554,0.0904668,20.9327,55.589,-0.156557,0.0,0.0
1852,462.75,51.5904,52.8017,139.885,98.7154,100.753,0.00727387,0.0903326,20.9328,55.5589,-0.185961,0.0,0.0
1856,463.75,51.9123,53.4698,140.046,98.7278,100.018,0.00733396,0.0901867,20.9331,55.5689,-0.118159,0.0,0.0
1860,464.75,51.7176,53.2634,137.212,98.737,100.915,,0.0901027,,55.5489,-0.198604,0.0,0.0
1864,465.75,51.4413,53.6836,137.663,98.7402,100.499,,0.0901033,,55.5389,-0.160712,0.0,0.0
1868,466.75,51.7963,53.1568,135.1,98.7561,100.407,,0.0899445,,55.5689,-0.150877,0.0,0.0
1872,467.75,51.626,53.7529,136.196,98.7689,99.8726,,,,55.5489,-0.101126,0.0,0.0
1876,468.75,51.4779,53.1913,132.675,98.7745,100.323,,,,55.5389,-0.14159,0.0,0.0
1880,469.75,52.0024,52.7395,135.423,98.7885,100.892,,,,55.5289,-0.191707,0.0,0.0
1884,470.75,51.4444,53.5479,134.059,98.8013,100.049,,,,55.5189,-0.114217,0.0,0.0
1888,471.75,51.8491,53.232,127.856,98.8049,100.38,,,,55.5089,-0.1439,0.0,0.0
1892,472.75,51.14,53.3411,135.559,98.7989,100.489,,,,55.4688,-0.154366,0.0,0.0
1896,473.75,51.6085,53.5354,135.367,98.8164,99.9181,,,,55.4889,-0.100892,0.0,0.0
1900,474.75,51.5946,52.5533,138.606,98.822,100.458,,,,55.4588,-0.14946,0.0,0.0
1903,475.5,51.7462,53.171,137.028,98.818,100.955,,,,55.4789,-0.19471,0.0,0.0