File: 01_Data/FDNY_LDF/Cone/FDNY_LDF_Cone_HF25Scan_220913_R4.csv
Names,Time,Stack TC,Smoke TC,Exh Press,Smoke Comp,Smoke Meas,CO Meter,CO2 Meter,O2 Meter,Sample Mass,Ext Coeff,Start Test,Flame Verif
Chan Gain,,500,500,1,1,1,1,1,1,1,1,1.0,1.0
Offset,,0,0,0.139139,0,0,0,0,0,0,0,0.0,0.0
Gain,,1,1,25.011,13.0826,14.7555,1,1,1,1.00088,1.03743,1.0,1.0
Units,sec,C,C,Pa,%,%,%,%,%,g,/m,,
Baseline,,36.0601,36.5563,145.287,98.0431,97.7555,0.000933445,0.0464242,20.9902,-442.286,0.0267661,,
5,1,34.4698,34.9837,147.602,97.9716,98.3551,0.000730152,0.0484694,20.9867,83.2033,-0.035549,0.0,0.0
10,2.25,33.9882,34.408,141.833,97.9588,97.6085,0.000755105,0.0484225,20.987,83.1232,0.0326071,0.0,0.0
15,3.5,34.0479,34.8371,142.268,97.956,97.5634,0.000774205,0.0483216,20.9881,83.1132,0.0365464,0.0,0.0
20,4.75,34.2038,34.9595,148.028,97.9664,97.5432,0.000790044,0.0481121,20.9888,83.0631,0.0394017,0.0,0.0
25,6,34.2992,34.9636,142.857,97.956,97.0902,0.000816561,0.0478201,20.9892,83.0932,0.0807982,0.0,0.0
30,7.25,34.5149,34.7444,145.892,97.9724,97.4432,0.0008345,0.0475048,20.9897,83.0631,0.0492894,0.0,0.0
35,8.5,34.4818,34.7631,143.391,97.962,97.7017,0.000809592,0.0472618,20.9906,83.0631,0.0242172,0.0,0.0
40,9.75,34.0626,34.6434,144.151,97.962,97.8697,0.000763946,0.0470363,20.9909,83.0631,0.00858571,0.0,0.0
45,11,34.1809,34.7754,143.597,97.9521,97.423,0.000753359,0.0469027,20.9912,83.0331,0.0492905,0.0,0.0
50,12.25,34.4071,35.0471,144.7,97.9489,97.3842,0.00079923,0.0467794,20.9913,82.9831,0.052611,0.0,0.0
55,13.5,34.0321,34.613,145.865,97.9576,97.2356,0.000876185,0.0466241,20.9911,83.0131,0.067324,0.0,0.0
60,14.75,34.5991,35.1782,144.449,97.9441,97.3779,0.000969571,0.0465838,20.9909,82.9931,0.0527555,0.0,0.0
65,16,34.5413,35.1067,144.83,97.9505,96.7092,0.00104071,0.0465272,20.9908,82.9831,0.116056,0.0,0.0
70,17.25,34.4083,34.9267,147.59,97.9277,96.6529,0.00105225,0.0464937,20.9907,82.923,0.119241,0.0,0.0
75,18.5,34.3107,35.2669,144.56,97.9321,96.9456,0.00102385,0.046474,20.9907,82.953,0.0921308,0.0,0.0
80,19.75,35.0857,34.6053,145.649,97.9349,96.6624,0.000987124,0.0465698,20.9906,82.943,0.119018,0.0,0.0
85,21,34.7351,34.9571,145.859,97.9241,96.1288,0.00096646,0.0465943,20.9906,82.923,0.168392,0.0,0.0
90,22.25,34.9857,35.1088,145.844,97.9153,96.3719,0.000960517,0.046686,20.9906,82.903,0.144584,0.0,0.0
95,23.5,34.6233,34.7434,144.536,97.9205,96.6529,0.000957975,0.0467307,20.9907,82.923,0.118573,0.0,0.0
100,24.75,34.4942,35.1296,145.298,97.9149,95.9122,0.000952876,0.0467363,20.991,82.893,0.188066,0.0,0.0
105,26,34.4669,35.2756,146.245,97.9053,96.0212,0.000975414,0.0467817,20.9912,82.853,0.176842,0.0,0.0
110,27.25,34.4494,35.445,143.254,97.9033,96.1792,0.00105921,0.0468502,20.9913,82.8329,0.161689,0.0,0.0
115,28.5,34.8009,35.2599,145.428,97.8914,96.0585,0.00120243,0.0470296,20.9914,82.853,0.172002,0.0,0.0
120,29.75,34.3789,35.2392,144.301,97.8938,95.909,0.0013512,0.0472825,20.9906,82.7929,0.186399,0.0,0.0
125,31,34.5624,35.0975,141.432,97.8938,95.705,0.00143905,0.0474625,20.99,82.7429,0.205775,0.0,0.0
130,32.25,34.4873,34.9434,147.358,97.8838,96.0459,0.00144745,0.0475756,20.9899,82.7629,0.17249,0.0,0.0
135,33.5,34.8488,35.3762,144.35,97.881,95.4376,0.00140717,0.047758,20.99,82.7329,0.230056,0.0,0.0
140,34.75,34.9132,35.2597,139.971,97.875,95.8352,0.0013875,0.0480716,20.9889,82.7229,0.191665,0.0,0.0
145,36,34.9495,35.3401,145.108,97.8734,95.2453,0.00146675,0.0488782,20.9865,82.6628,0.247704,0.0,0.0
150,37.25,35.065,35.0498,153.388,97.8766,97.8629,0.00160512,0.0554988,20.9603,82.5927,0.00127351,0.0,1.0
155,38.5,34.8625,35.7211,134.613,97.8566,100.195,0.00176366,0.0784561,20.9149,82.4726,-0.214903,0.0,1.0
160,39.75,35.7391,35.4186,136.592,97.8542,99.3791,0.00194239,0.117801,20.8575,82.3525,-0.140713,0.0,1.0
165,41,36.9487,36.0789,131.106,97.8423,98.8761,0.0021267,0.159053,20.806,82.1724,-0.0956506,0.0,1.0
170,42.25,36.3178,36.0933,132.025,97.8383,98.8036,0.00229992,0.196548,20.7695,82.1624,-0.0893469,0.0,1.0
175,43.5,37.2532,35.6885,132.847,97.8395,98.7477,0.00246382,0.22657,20.7437,82.0322,-0.0840909,0.0,1.0
180,44.75,38.1319,35.7266,139.288,97.8167,98.9238,0.0025826,0.248322,20.7276,81.9021,-0.10242,0.0,1.0
185,46,38.7982,36.4762,138.811,97.8199,97.9061,0.00264111,0.263458,20.718,81.802,-0.00801833,0.0,1.0
190,47.25,39.9174,37.4767,134.45,97.8175,98.8792,0.00265441,0.273667,20.7124,81.712,-0.0982432,0.0,0.0
195,48.5,40.5153,37.985,137.968,97.8151,97.459,0.00264907,0.279716,20.7095,81.5919,0.033193,0.0,0.0
200,49.75,41.1461,38.4325,133.135,97.8187,98.7428,0.00261716,0.282784,20.7093,81.4417,-0.0855664,0.0,0.0
205,51,41.7666,39.6324,134.482,97.8131,98.3227,0.00256052,0.284409,20.7098,81.3917,-0.0472828,0.0,0.0
210,52.25,42.5783,39.6992,129.988,97.8007,98.8216,0.00250539,0.285046,20.7104,81.3216,-0.0944974,0.0,0.0
215,53.5,42.6731,40.0647,135.383,97.7971,98.9283,0.00247283,0.28444,20.7133,81.2215,-0.104654,0.0,0.0
220,54.75,43.3398,40.6121,136.233,97.7816,98.9162,0.0024628,0.282942,20.7176,81.0614,-0.104984,0.0,0.0
225,56,43.9124,41.1696,132.739,97.7872,98.9711,0.00242689,0.281375,20.7213,81.0113,-0.109517,0.0,0.0
230,57.25,44.2668,41.6411,138.824,97.7792,99.239,0.00232919,0.278997,20.7244,80.9113,-0.134863,0.0,0.0
235,58.5,44.4408,41.479,132.842,97.7712,99.017,0.00223509,0.277041,20.7274,80.8412,-0.115226,0.0,0.0
240,59.75,44.4032,42.1777,136.364,97.7612,98.7567,0.00219044,0.275552,20.7298,80.6911,-0.0922023,0.0,0.0
245,61,44.9741,42.6669,136.643,97.7584,98.6608,0.00216109,0.274179,20.7319,80.661,-0.0836206,0.0,0.0
250,62.25,45.4643,42.6938,131.767,97.7612,98.7378,0.00213549,0.272959,20.735,80.5409,-0.09046,0.0,0.0
255,63.5,45.4626,43.2076,135.252,97.7456,98.7549,0.00214741,0.270928,20.7378,80.4308,-0.0934857,0.0,0.0
260,64.75,46.0835,43.8675,136.287,97.7409,98.9742,0.00220729,0.268799,20.7397,80.3508,-0.114118,0.0,0.0
265,66,46.1637,44.1391,135.532,97.7341,99.0247,0.00230208,0.266847,20.7424,80.2807,-0.119387,0.0,0.0
270,67.25,46.2271,43.9256,133.295,97.7317,99.7839,0.00238644,0.26472,20.7463,80.2106,-0.189115,0.0,0.0
275,68.5,46.6875,44.7181,135.295,97.7189,99.3133,0.00243447,0.262289,20.7499,80.0805,-0.147286,0.0,0.0
280,69.75,46.8372,44.2601,135.426,97.7201,98.6797,0.00243808,0.260032,20.7523,80.0305,-0.0889333,0.0,0.0
285,71,46.8795,45.0503,134.228,97.7125,98.5825,0.00241746,0.258083,20.7538,79.9104,-0.0806655,0.0,0.0
290,72.25,47.1929,45.3102,136.639,97.7017,98.7342,0.00236541,0.256031,20.7575,79.8203,-0.0956665,0.0,0.0
295,73.5,46.9891,45.3361,138.554,97.6929,99.0391,0.00226375,0.253405,20.7606,79.7002,-0.12454,0.0,0.0
300,74.75,47.1393,45.5693,128.596,97.6941,97.7899,0.0021618,0.251175,20.7639,79.6601,-0.00892067,0.0,0.0
305,76,47.75,46.1057,131.483,97.6905,98.1461,0.00212682,0.249046,20.7663,79.6001,-0.042342,0.0,0.0
310,77.25,47.6797,45.8549,138.173,97.687,98.7315,0.00213986,0.247106,20.7678,79.5,-0.0967941,0.0,0.0
315,78.5,47.3587,46.2188,138.114,97.6878,99.7573,0.00229568,0.245341,20.7694,79.3799,-0.190781,0.0,0.0
320,79.75,47.5757,46.3774,138.901,97.6794,98.3929,0.00244007,0.244069,20.7708,79.3299,-0.0662351,0.0,0.0
325,81,47.8953,46.825,134.632,97.6738,98.9477,0.00253924,0.242238,20.7723,79.2698,-0.117922,0.0,0.0
330,82.25,48.0866,46.6561,138.046,97.6646,98.7338,0.00259736,0.240727,20.7745,79.1197,-0.0990843,0.0,0.0
335,83.5,48.0927,46.9806,142.074,97.6762,99.3097,0.00261182,0.239184,20.7761,79.0997,-0.150936,0.0,0.0
340,84.75,47.8274,47.6533,136.995,97.6626,98.6018,0.00256975,0.237868,20.7778,79.0296,-0.0871018,0.0,0.0
345,86,48.031,46.9338,137.851,97.6678,98.8,0.00249373,0.236463,20.7794,78.9395,-0.104887,0.0,0.0
350,87.25,48.1255,47.6904,133.003,97.6478,98.3416,0.00244459,0.235111,20.7809,78.7894,-0.0644245,0.0,0.0
355,88.5,47.9797,47.7412,140.039,97.6718,98.5217,0.00245894,0.233644,20.7829,78.7994,-0.078845,0.0,0.0
360,89.75,48.7211,47.6696,135.577,97.6542,98.0741,0.0024947,0.231965,20.7852,78.6993,-0.039044,0.0,0.0
365,91,47.7875,47.6945,138.079,97.6554,97.9111,0.00253773,0.230172,20.7866,78.5992,-0.023794,0.0,0.0
370,92.25,48.1392,47.9697,138.163,97.6518,97.7922,0.00255932,0.228712,20.7879,78.4791,-0.013073,0.0,0.0
375,93.5,48.3662,47.9177,136.718,97.6538,98.3983,0.00255498,0.22738,20.7901,78.4191,-0.0691155,0.0,0.0
380,94.75,48.3004,48.3709,137.693,97.6474,98.3564,0.0025278,0.225308,20.792,78.379,-0.0658368,0.0,0.0
385,96,48.3711,48.0232,140.281,97.6518,98.342,0.0024749,0.223445,20.7935,78.319,-0.0640946,0.0,0.0
390,97.25,48.0847,48.1507,139.211,97.6418,98.6698,0.00240772,0.222063,20.7943,78.1889,-0.0953097,0.0,0.0
395,98.5,47.9279,48.1679,134.033,97.6442,98.5109,0.0023271,0.221269,20.795,78.1088,-0.0804138,0.0,0.0
400,99.75,48.3594,48.5798,134.627,97.6626,98.5478,0.00227194,0.22045,20.7956,78.0487,-0.0821131,0.0,0.0
405,101,48.2631,48.7534,138.869,97.6734,99.1791,0.00226652,0.219393,20.7959,77.9887,-0.139222,0.0,0.0
410,102.25,47.8489,48.5928,138.604,97.6874,98.4136,0.00230018,0.218477,20.7967,77.9186,-0.0674066,0.0,0.0
415,103.5,48.3042,48.7031,135.761,97.7065,98.2956,0.00235181,0.217942,20.7974,77.8385,-0.0547055,0.0,0.0
420,104.75,48.1754,47.9714,137.929,97.7201,98.0547,0.0024362,0.217314,20.7995,77.7585,-0.0311099,0.0,0.0
425,106,48.086,48.6888,136.84,97.7161,97.8701,0.00251283,0.216379,20.801,77.6384,-0.0143312,0.0,0.0
430,107.25,47.741,49.0711,133.831,97.7836,98.8121,0.00257044,0.215261,20.8022,77.6083,-0.0952242,0.0,0.0
435,108.5,48.0858,48.4697,136.77,97.7704,98.2884,0.00260075,0.213914,20.8035,77.5683,-0.0480914,0.0,0.0
440,109.75,48.2709,49.022,139.072,97.7496,98.2614,0.00263311,0.212611,20.804,77.4782,-0.0475216,0.0,0.0
445,111,48.049,49.0971,137.273,97.7285,99.1255,0.00268093,0.211361,20.8045,77.3081,-0.129171,0.0,0.0
450,112.25,47.7104,49.2024,134.54,97.7169,98.745,0.00273812,0.210512,20.8055,77.2781,-0.0952499,0.0,0.0
455,113.5,48.2477,49.2971,137.295,97.6973,98.2335,0.00276472,0.20978,20.8068,77.228,-0.049806,0.0,0.0
460,114.75,47.96,49.0576,131.319,97.6694,98.0867,0.0027532,0.209125,20.8077,77.188,-0.0388,0.0,0.0
465,116,48.3347,49.1787,132.589,97.659,98.011,0.00269469,0.208627,20.8086,77.0579,-0.0327462,0.0,0.0
470,117.25,48.0799,49.486,137.129,97.661,98.1993,0.00262594,0.207671,20.8099,77.0278,-0.0500198,0.0,0.0
475,118.5,47.7423,49.086,138.994,97.665,98.5456,0.00254715,0.206682,20.8116,76.9277,-0.0816818,0.0,0.0
480,119.75,48.2437,48.8704,140.077,97.6762,99.2183,0.00248967,0.205472,20.8126,76.8176,-0.142555,0.0,0.0
485,121,47.7068,49.3337,143.073,97.6538,98.3073,0.00245349,0.204352,20.8136,76.7376,-0.0606986,0.0,0.0
490,122.25,48.0981,49.1701,137.35,97.675,98.5676,0.00243857,0.203142,20.8148,76.7176,-0.0827897,0.0,0.0
495,123.5,48.0065,49.1776,142.953,97.6905,98.8225,0.00243607,0.202141,20.8153,76.6475,-0.10484,0.0,0.0
500,124.75,48.0228,49.1069,138.373,97.6838,98.5924,0.00245897,0.20109,20.8154,76.5074,-0.0842568,0.0,0.0
505,126,47.838,49.676,137.273,97.7181,98.7716,0.00252103,0.200138,20.8159,76.4774,-0.0975863,0.0,0.0
510,127.25,48.0607,49.5838,135.96,97.7353,98.1542,0.00259043,0.199181,20.8167,76.4373,-0.0389291,0.0,0.0
515,128.5,47.6666,49.415,142.202,97.7417,99.1611,0.00264918,0.19822,20.8178,76.3673,-0.13121,0.0,0.0
520,129.75,48.1687,49.6376,139.044,97.77,98.99,0.00270022,0.197243,20.8196,76.2271,-0.112854,0.0,0.0
525,131,47.9862,49.5439,141.502,97.7971,98.7158,0.00271664,0.196392,20.8208,76.1971,-0.0850807,0.0,0.0
530,132.25,47.7602,48.8895,139.028,97.8103,99.3466,0.00269345,0.195259,20.8222,76.127,-0.141829,0.0,0.0
535,133.5,47.815,49.7699,141.858,97.8247,98.4947,0.00267366,0.194192,20.8233,76.077,-0.0621135,0.0,0.0
540,134.75,47.4059,49.733,140.378,97.8411,98.9405,0.0026456,0.193103,20.824,75.9669,-0.101687,0.0,0.0
545,136,47.98,49.7399,138.022,97.8598,98.5041,0.00259408,0.192131,20.8253,75.9569,-0.0597196,0.0,0.0
550,137.25,47.433,49.5204,140.334,97.8694,98.8657,0.00255992,0.1911,20.8267,75.8368,-0.0921733,0.0,0.0
555,138.5,47.4961,49.4424,139.236,97.897,99.1895,0.00258052,0.19014,20.8279,75.7267,-0.119365,0.0,0.0
560,139.75,47.5483,49.2984,131.195,97.9041,99.0202,0.00263847,0.189225,20.829,75.7167,-0.103149,0.0,0.0
565,141,47.4635,49.6077,140.004,97.9369,99.017,0.0026793,0.188292,20.8302,75.6466,-0.099817,0.0,0.0
570,142.25,47.3849,49.1053,134.077,97.9608,99.0976,0.00269244,0.187283,20.8309,75.6066,-0.104996,0.0,0.0
575,143.5,47.3952,49.598,138.794,97.9644,98.7829,0.00270065,0.186338,20.832,75.4765,-0.0757121,0.0,0.0
580,144.75,47.45,49.3695,137.006,98.0123,98.8401,0.00270593,0.185312,20.8329,75.4364,-0.0765293,0.0,0.0
585,146,47.2555,49.4901,136.29,98.0399,98.809,0.00271728,0.184052,20.8343,75.3964,-0.0711101,0.0,0.0
590,147.25,47.0697,49.0873,143.412,98.0495,98.6586,0.002747,0.18286,20.8367,75.3063,-0.0563591,0.0,0.0
595,148.5,47.3851,49.2194,134.451,98.0619,99.0422,0.00279199,0.181961,20.8386,75.1962,-0.0905296,0.0,0.0
600,149.75,47.0233,49.1924,140.712,98.0822,99.3061,0.00285752,0.181214,20.8397,75.1762,-0.112854,0.0,0.0
605,151,47.3594,49.3511,138.433,98.1038,99.035,0.00296322,0.180416,20.8403,75.1162,-0.0859787,0.0,0.0
610,152.25,46.8356,49.525,138.672,98.1157,98.7631,0.00305037,0.179768,20.8407,75.0261,-0.0598408,0.0,0.0
615,153.5,46.8449,48.7595,137.885,98.1389,98.5541,0.00305107,0.179117,20.8416,74.896,-0.0384209,0.0,0.0
620,154.75,47.0885,48.7659,140.782,98.1696,99.0774,0.00299119,0.17861,20.8424,74.8759,-0.083758,0.0,0.0
625,156,46.8859,48.9984,137.514,98.1836,99.1386,0.00293763,0.178082,20.8431,74.8359,-0.088086,0.0,0.0
630,157.25,46.8224,48.9065,139.411,98.188,99.6736,0.00292892,0.177341,20.8447,74.7458,-0.136653,0.0,0.0
635,158.5,46.5781,49.0181,139.373,98.2231,98.2641,0.00295034,0.176571,20.8462,74.6658,-0.00379502,0.0,0.0
640,159.75,46.6966,48.8454,138.336,98.2335,98.7342,0.00296753,0.175636,20.847,74.6457,-0.0462671,0.0,0.0
645,161,46.4218,49.0343,137.856,98.2547,99.2052,0.00295509,0.174777,20.848,74.5857,-0.0876172,0.0,0.0
650,162.25,46.5836,48.7252,136.753,98.2551,99.6501,0.00292234,0.173892,20.8491,74.4556,-0.128301,0.0,0.0
655,163.5,46.7848,49.0054,137.496,98.2758,99.4925,0.00289571,0.173044,20.8497,74.4255,-0.111973,0.0,0.0
660,164.75,46.6485,48.652,141.133,98.2878,98.9414,0.00291407,0.172319,20.8503,74.3755,-0.0603098,0.0,0.0
665,166,47.0029,48.619,138.183,98.3006,99.081,0.00298306,0.17163,20.8514,74.3255,-0.071958,0.0,0.0
670,167.25,46.4204,48.7482,138.84,98.3102,100.027,0.00308209,0.171056,20.852,74.2254,-0.157513,0.0,0.0
675,168.5,46.3533,48.4113,138.241,98.3305,98.9909,0.00315807,0.170665,20.8524,74.1953,-0.060911,0.0,0.0
680,169.75,46.3422,48.5593,140.22,98.3405,99.3237,0.00320799,0.170359,20.8526,74.0652,-0.0905279,0.0,0.0
685,171,46.2412,48.4824,138.317,98.3401,99.8897,0.00323532,0.169962,20.8534,74.0552,-0.142279,0.0,0.0
690,172.25,46.0866,48.2532,141.419,98.3549,99.2016,0.00322505,0.169542,20.8541,73.9451,-0.0780101,0.0,0.0
695,173.5,45.9761,48.6301,139.21,98.3717,98.8914,0.00318817,0.169006,20.8547,73.9351,-0.0479524,0.0,0.0
700,174.75,46.0403,48.5459,135.851,98.3757,98.6455,0.00313557,0.168389,20.8561,73.835,-0.0249301,0.0,0.0
705,176,45.7437,48.3685,144.626,98.3872,98.7662,0.00310578,0.167794,20.8574,73.755,-0.0349849,0.0,0.0
710,177.25,45.6355,48.0835,138.664,98.404,99.1409,0.00308978,0.167102,20.8584,73.6849,-0.0678891,0.0,0.0
715,178.5,45.9795,48.2272,140.97,98.4044,99.466,0.00312973,0.166568,20.859,73.6549,-0.0976467,0.0,0.0
720,179.75,45.7687,48.0529,137.764,98.4052,99.0913,0.00317117,0.166,20.8601,73.6048,-0.0632305,0.0,0.0
725,181,45.5923,48.2415,140.497,98.4164,99.3192,0.00324281,0.165447,20.8609,73.5147,-0.0830984,0.0,0.0
730,182.25,45.6676,48.3121,136.811,98.4316,99.7258,0.00333937,0.16509,20.8614,73.4847,-0.118877,0.0,0.0
735,183.5,45.5035,47.8948,136.339,98.4328,99.6281,0.00346845,0.164685,20.8617,73.4247,-0.109845,0.0,0.0
740,184.75,45.7937,48.2834,135.514,98.432,98.7351,0.00357942,0.163961,20.8628,73.3646,-0.0279863,0.0,0.0
745,186,45.4308,47.8659,138.086,98.4391,99.2552,0.00364833,0.163422,20.8635,73.2645,-0.0751334,0.0,0.0
750,187.25,45.6287,48.1893,139.689,98.4583,98.9351,0.00368112,0.162807,20.8639,73.2545,-0.0439596,0.0,0.0
755,188.5,45.8979,47.6853,139.117,98.4599,98.9706,0.00369639,0.162058,20.8641,73.2045,-0.0470843,0.0,0.0
760,189.75,45.5826,48.0038,140.068,98.4647,99.0823,0.0036994,0.161314,20.8651,73.1144,-0.0569038,0.0,0.0
765,191,45.1625,47.9208,136.429,98.4703,99.2949,0.00369052,0.16067,20.8657,73.0143,-0.0758877,0.0,0.0
770,192.25,45.7691,47.4097,139.052,98.4922,99.1183,0.00369461,0.160127,20.8661,73.0143,-0.0576658,0.0,0.0
775,193.5,45.6111,47.5746,138.944,98.4926,99.7199,0.00375175,0.159656,20.8664,72.9643,-0.112698,0.0,0.0
780,194.75,44.9816,47.904,140.898,98.4914,99.1314,0.0038365,0.159179,20.8665,72.8542,-0.0589389,0.0,0.0
785,196,45.244,47.4979,139.144,98.4966,98.7216,0.00390403,0.158743,20.8665,72.7741,-0.0207636,0.0,0.0
790,197.25,45.4327,47.4146,136.747,98.503,99.9352,0.00391186,0.158497,20.867,72.7441,-0.13136,0.0,0.0
795,198.5,44.839,47.4871,139.067,98.5154,99.7528,0.00386776,0.158419,20.8678,72.694,-0.113594,0.0,0.0
800,199.75,45.1534,47.5667,138.443,98.5074,99.7123,0.00380074,0.158135,20.8682,72.5939,-0.110633,0.0,0.0
805,201,45.0851,47.9262,138.43,98.5082,99.0467,0.00374867,0.157592,20.8685,72.5539,-0.0496151,0.0,0.0
810,202.25,45.1928,47.1677,140.907,98.5182,99.597,0.00370563,0.157143,20.8695,72.5039,-0.0991112,0.0,0.0
815,203.5,44.5404,47.608,135.7,98.507,99.2003,0.00368129,0.156732,20.8702,72.4938,-0.0638226,0.0,0.0
820,204.75,44.934,47.5068,141.322,98.501,99.1499,0.00367717,0.156267,20.8706,72.3537,-0.0597485,0.0,0.0
825,206,44.9645,47.0388,145.359,98.4982,98.9576,0.00369697,0.155532,20.8709,72.3337,-0.0423409,0.0,0.0
830,207.25,44.4859,46.866,138.444,98.5058,98.836,0.00372145,0.155042,20.871,72.2837,-0.0304525,0.0,0.0
835,208.5,44.6354,47.218,137.572,98.4958,99.0067,0.00372379,0.154978,20.8711,72.2036,-0.0470756,0.0,0.0
840,209.75,44.7152,47.2329,139.557,98.4962,99.5182,0.00370094,0.155174,20.8712,72.0935,-0.0939367,0.0,0.0
845,211,44.4752,47.0041,140.671,98.5042,99.4835,0.00365493,0.155396,20.8712,72.1135,-0.0900272,0.0,0.0
850,212.25,44.5008,46.9304,136.432,98.4986,98.8999,0.00358874,0.155759,20.8712,72.0535,-0.037002,0.0,0.0
855,213.5,44.551,47.1908,140.781,98.4759,98.8734,0.00348522,0.156031,20.8712,71.9834,-0.03666,0.0,0.0
860,214.75,44.5012,46.2593,140.274,98.4763,99.0094,0.00337998,0.156151,20.8713,71.9133,-0.0491314,0.0,0.0
865,216,44.8103,46.4793,142.222,98.4667,98.8401,0.00328837,0.156291,20.8713,71.8833,-0.0344415,0.0,0.0
870,217.25,44.5489,46.7863,139.495,98.4639,99.1102,0.00323019,0.156365,20.8708,71.8132,-0.0595411,0.0,0.0
875,218.5,44.3268,46.8485,138.546,98.4332,98.9693,0.0031955,0.156337,20.8705,71.6831,-0.0494324,0.0,0.0
880,219.75,44.137,46.6411,139.397,98.4355,99.1057,0.00318308,0.156404,20.8703,71.6931,-0.0617487,0.0,0.0
885,221,44.5819,46.4092,138.589,98.4208,98.5357,0.00315836,0.15679,20.8693,71.6131,-0.0106154,0.0,0.0
890,222.25,44.3245,46.8042,137.685,98.4184,99.1328,0.0031207,0.157223,20.8686,71.563,-0.065816,0.0,0.0
895,223.5,44.0736,46.4909,140.747,98.4012,98.7432,0.00306243,0.15755,20.8682,71.4429,-0.0315764,0.0,0.0
900,224.75,44.4397,47.0017,138.17,98.394,99.2462,0.00302308,0.157721,20.8678,71.4129,-0.078479,0.0,0.0
905,226,44.1261,46.5642,135.783,98.3804,99.1926,0.0029752,0.158058,20.8674,71.3929,-0.0748206,0.0,0.0
910,227.25,44.1825,45.9472,139.621,98.3685,99.2111,0.00293976,0.15848,20.8659,71.3328,-0.0776217,0.0,0.0
915,228.5,44.3534,46.4033,136.116,98.3717,98.7689,0.0029096,0.159187,20.8643,71.2027,-0.0366741,0.0,0.0
920,229.75,44.3056,46.1708,141.377,98.3629,99.2737,0.00287234,0.159895,20.8634,71.1527,-0.0838785,0.0,0.0
925,231,44.2788,46.5588,137.714,98.3553,98.7572,0.0028365,0.160407,20.8629,71.1527,-0.0371093,0.0,0.0
930,232.25,44.3272,46.556,143.138,98.3445,98.9774,0.00278835,0.160732,20.8626,71.0626,-0.0583755,0.0,0.0
935,233.5,44.4595,46.2449,138.864,98.3369,99.3354,0.00273592,0.161245,20.8624,71.0025,-0.0919333,0.0,0.0
940,234.75,44.5521,46.6033,139.637,98.3377,98.9162,0.00268838,0.161966,20.8613,70.9525,-0.0533714,0.0,0.0
945,236,44.3169,46.5023,136.103,98.3246,99.3872,0.00267182,0.162706,20.8607,70.9124,-0.097821,0.0,0.0
950,237.25,44.3578,46.7368,137.298,98.3062,98.3078,0.00267587,0.163394,20.8595,70.7423,-0.000148082,0.0,0.0
955,238.5,44.7923,46.2225,138.426,98.3002,99.1066,0.00268034,0.163971,20.8586,70.7823,-0.0743525,0.0,0.0
960,239.75,44.6912,46.2477,142.654,98.299,99.035,0.00266379,0.164416,20.8584,70.7323,-0.0678864,0.0,0.0
965,241,44.1649,46.4391,137.063,98.2719,99.0584,0.00263149,0.164801,20.8584,70.6823,-0.0725507,0.0,0.0
970,242.25,44.2697,46.5963,138.814,98.2563,99.0508,0.00260206,0.165544,20.8583,70.5621,-0.07329,0.0,0.0
975,243.5,44.6615,46.1069,138.138,98.2499,99.3304,0.00258182,0.166339,20.8573,70.5922,-0.0995378,0.0,0.0
980,244.75,44.2398,46.0916,139.446,98.2415,99.3498,0.00260678,0.167036,20.8565,70.5521,-0.102088,0.0,0.0
985,246,44.5656,46.0727,140.652,98.2219,99.6614,0.0026476,0.167546,20.8555,70.4821,-0.132399,0.0,0.0
990,247.25,44.8784,46.3821,141.789,98.2052,99.2728,0.00271566,0.167902,20.8552,70.382,-0.0983984,0.0,0.0
995,248.5,44.3463,46.5872,136.799,98.2124,98.9486,0.00277049,0.168391,20.8549,70.382,-0.0679629,0.0,0.0
1000,249.75,44.651,46.445,139.143,98.1944,99.4592,0.0027948,0.168664,20.8543,70.3119,-0.116471,0.0,0.0
1005,251,44.551,46.6953,141.984,98.1712,99.4822,0.00276582,0.168971,20.854,70.2619,-0.120718,0.0,0.0
1010,252.25,44.5448,46.5044,135.913,98.1561,98.6343,0.00270485,0.169464,20.8539,70.1818,-0.0442261,0.0,0.0
1015,253.5,44.6068,46.156,136.939,98.1337,98.6059,0.00260274,0.17008,20.8528,70.1418,-0.0436822,0.0,0.0
1020,254.75,44.6377,46.0951,143.021,98.105,98.6361,0.00251729,0.170652,20.8522,70.0617,-0.049133,0.0,0.0
1025,256,45.1007,46.526,137.369,98.0802,98.7113,0.00246212,0.170905,20.8518,69.9516,-0.058364,0.0,0.0
1030,257.25,44.3228,46.5562,139.308,98.0595,99.2768,0.00246228,0.171078,20.8519,69.9616,-0.112283,0.0,0.0
1035,258.5,45.0102,46.3544,137.126,98.0375,98.759,0.00252757,0.17142,20.8511,69.9216,-0.0667279,0.0,0.0
1040,259.75,44.2858,46.1497,137.356,98.0127,98.9896,0.00264733,0.171798,20.8505,69.8715,-0.0902463,0.0,0.0
1045,261,44.7113,46.7111,140.771,97.9784,98.9346,0.00283102,0.172303,20.8498,69.7214,-0.0883828,0.0,0.0
1050,262.25,44.7429,46.5578,145.511,97.9712,99.1143,0.00296313,0.172756,20.8486,69.7214,-0.105562,0.0,0.0
1055,263.5,44.7272,46.2973,136.38,97.9876,98.4127,0.00301686,0.173368,20.8478,69.6613,-0.0393976,0.0,0.0
1060,264.75,45.0132,46.5243,139.956,97.984,99.194,0.00301216,0.174196,20.8468,69.6213,-0.111691,0.0,0.0
1065,266,44.8005,46.2668,135.653,97.9848,99.4421,0.00298174,0.175022,20.8456,69.5412,-0.134351,0.0,0.0
1070,267.25,44.7641,46.6181,138.3,97.9928,98.8941,0.00295695,0.175663,20.8447,69.5412,-0.083319,0.0,0.0
1075,268.5,44.7494,46.4186,140.078,97.9988,98.9513,0.00293127,0.176212,20.8441,69.5012,-0.0880246,0.0,0.0
1080,269.75,44.8213,46.6571,140.085,98.0044,98.7171,0.00293781,0.176519,20.8438,69.4011,-0.0659444,0.0,0.0
1085,271,44.6026,46.6101,137.854,98.0243,98.8328,0.00298652,0.176708,20.8434,69.3411,-0.0747533,0.0,0.0
1090,272.25,45.023,46.4665,142.665,98.0415,99.0976,0.00301165,0.177119,20.8422,69.3211,-0.0975074,0.0,0.0
1095,273.5,44.9906,46.3138,138.188,98.0503,98.5136,0.0029667,0.177963,20.8403,69.261,-0.0429006,0.0,0.0
1100,274.75,44.9496,46.7341,139.364,98.0547,98.9616,0.00286261,0.179298,20.8387,69.1409,-0.083787,0.0,0.0
1105,276,44.811,46.5567,143.053,98.063,98.7459,0.00276061,0.180487,20.837,69.1109,-0.0631529,0.0,0.0
1110,277.25,45.1742,46.1982,137.552,98.0698,99.2962,0.00272569,0.181415,20.836,69.0808,-0.113095,0.0,0.0
1115,278.5,45.1833,46.963,138.861,98.0882,99.1093,0.00272916,0.182119,20.8356,69.0308,-0.0942475,0.0,0.0
1120,279.75,44.8922,46.3403,138.44,98.0802,98.8099,0.00271422,0.182813,20.8353,68.9207,-0.0674509,0.0,0.0
1125,281,45.1831,46.4625,139.69,98.0986,99.0985,0.0026683,0.183471,20.8342,68.9107,-0.0922922,0.0,0.0
1130,282.25,45.1219,46.9707,134.893,98.1142,99.647,0.00262761,0.184422,20.8331,68.8707,-0.141076,0.0,0.0
1135,283.5,45.2743,46.516,140.207,98.1245,98.3555,0.00261665,0.185426,20.8319,68.8106,-0.0213981,0.0,0.0
1140,284.75,45.2982,47.1377,139.51,98.1297,99.2048,0.00263102,0.186289,20.8312,68.6905,-0.0991573,0.0,0.0
1145,286,45.6546,46.923,137.975,98.1389,98.3952,0.00264731,0.187169,20.8314,68.6905,-0.0237314,0.0,0.0
1150,287.25,45.4423,47.1795,137.04,98.1433,98.7279,0.00260923,0.187844,20.8304,68.6304,-0.0540491,0.0,0.0
1155,288.5,45.5855,46.9725,136.025,98.1633,99.0242,0.00256428,0.189258,20.8295,68.5604,-0.0794688,0.0,0.0
1160,289.75,45.8105,47.0111,137.038,98.1605,99.692,0.00249149,0.190398,20.8284,68.4903,-0.140892,0.0,0.0
1165,291,45.8796,47.6161,135.456,98.176,99.3088,0.00241963,0.191498,20.8278,68.4303,-0.104401,0.0,0.0
1170,292.25,46.0643,47.3907,139.546,98.1876,98.5289,0.00236029,0.192609,20.827,68.4102,-0.0315758,0.0,0.0
1175,293.5,46.0709,47.4153,141.28,98.1936,98.954,0.00236386,0.19355,20.826,68.2701,-0.0701978,0.0,0.0
1180,294.75,46.1466,47.6079,137.621,98.204,99.6537,0.00238887,0.194391,20.8254,68.2501,-0.133364,0.0,0.0
1185,296,46.0234,47.1697,138.888,98.2108,99.4133,0.00237299,0.195192,20.8241,68.2101,-0.11075,0.0,0.0
1190,297.25,45.9823,47.0145,135.76,98.2251,98.9936,0.00232639,0.195813,20.8233,68.13,-0.0709188,0.0,0.0
1195,298.5,45.9504,47.5997,141.398,98.2311,98.7622,0.00225785,0.196759,20.8221,68.0299,-0.0490621,0.0,0.0
1200,299.75,46.4709,47.8464,133.948,98.2323,99.4074,0.00225201,0.197728,20.8204,68.0199,-0.108216,0.0,0.0
1205,301,46.3308,47.3101,131.953,98.2427,99.2147,0.00228338,0.198748,20.8192,67.9599,-0.0895945,0.0,0.0
1210,302.25,46.4432,47.9043,139.24,98.2551,99.0467,0.00229182,0.199879,20.8185,67.8898,-0.0730286,0.0,0.0
1215,303.5,46.9637,47.7414,138.717,98.2755,99.3602,0.00225682,0.200918,20.8175,67.7397,-0.0998932,0.0,0.0
1220,304.75,46.7641,47.9816,138.739,98.2906,98.8319,0.00216887,0.201702,20.8165,67.7196,-0.0499816,0.0,0.0
1225,306,46.8689,48.0608,139.532,98.3222,99.1805,0.00206919,0.20213,20.8161,67.6896,-0.0790978,0.0,0.0
1230,307.25,46.8675,47.8073,139.097,98.311,99.3291,0.00196225,0.202478,20.8157,67.6095,-0.0937569,0.0,0.0
1235,308.5,46.8848,48.2627,135.548,98.3206,98.9878,0.00190887,0.203081,20.8154,67.5295,-0.061545,0.0,0.0
1240,309.75,47.2136,47.6474,137.832,98.3401,99.8145,0.00194265,0.203985,20.8147,67.5095,-0.135425,0.0,0.0
1245,311,47.1612,48.2477,137.647,98.3525,99.0535,0.00206187,0.205228,20.8123,67.4294,-0.064631,0.0,0.0
1250,312.25,47.3125,48.4695,137.907,98.3553,99.1692,0.00217305,0.206737,20.8101,67.3293,-0.0749983,0.0,0.0
1255,313.5,46.8805,48.2734,137.334,98.3801,100.045,0.00225122,0.208469,20.8081,67.2993,-0.152687,0.0,0.0
1260,314.75,47.5332,48.5279,142.07,98.3888,99.1836,0.00230472,0.209637,20.8069,67.2192,-0.0732183,0.0,0.0
1265,316,47.5364,48.642,139.578,98.4088,98.9715,0.0023627,0.210526,20.8062,67.1591,-0.0518913,0.0,0.0
1270,317.25,47.4299,48.1082,142.348,98.412,99.3809,0.00239178,0.211391,20.8042,67.029,-0.0891546,0.0,0.0
1275,318.5,47.7686,48.1992,139.368,98.4343,99.488,0.00235155,0.212482,20.8027,67.0591,-0.0968961,0.0,0.0
1280,319.75,47.6834,48.3496,142.415,98.4495,99.8627,0.00226683,0.213674,20.8008,66.959,-0.1297,0.0,0.0
1285,321,47.5284,48.673,137.094,98.4611,99.8888,0.00217167,0.214538,20.7998,66.8989,-0.131009,0.0,0.0
1290,322.25,47.796,48.9344,136.368,98.4575,98.8662,0.00207438,0.21517,20.7991,66.7788,-0.0376948,0.0,0.0
1295,323.5,48.0618,48.5898,138.011,98.4715,99.2183,0.00199799,0.216033,20.7979,66.7388,-0.0687581,0.0,0.0
1300,324.75,48.0114,48.6908,134.548,98.4831,99.6574,0.00195148,0.217245,20.7961,66.6887,-0.107869,0.0,0.0
1305,326,47.9358,48.9647,136.005,98.4914,98.8292,0.00192265,0.218462,20.795,66.5686,-0.0311589,0.0,0.0
1310,327.25,47.7309,48.9309,137.556,98.5026,99.6542,0.00192304,0.219353,20.7944,66.5186,-0.105772,0.0,0.0
1315,328.5,48.1596,49.1237,135.585,98.5294,99.8307,0.00194742,0.219912,20.794,66.4385,-0.119407,0.0,0.0
1320,329.75,48.3335,49.4668,135.054,98.5402,99.8123,0.00200361,0.220359,20.7927,66.3985,-0.116728,0.0,0.0
1325,331,48.0166,49.4859,135.754,98.5326,100.408,0.00206984,0.221013,20.7917,66.2784,-0.171585,0.0,0.0
1330,332.25,48.6283,49.3553,134.771,98.5517,99.5736,0.00217326,0.222479,20.7903,66.2383,-0.0938737,0.0,0.0
1335,333.5,48.4958,49.8851,134.929,98.5557,99.334,0.0022611,0.2238,20.789,66.1983,-0.0715846,0.0,0.0
1340,334.75,48.392,49.353,135.499,98.5681,99.5286,0.00230394,0.225397,20.7875,66.0982,-0.0882454,0.0,0.0
1345,336,48.64,49.9707,139.154,98.5641,99.0548,0.0022635,0.226749,20.7861,65.9481,-0.0451969,0.0,0.0
1350,337.25,48.4376,49.6862,139.526,98.5817,99.7519,0.00219886,0.227652,20.7846,65.9381,-0.107391,0.0,0.0
1355,338.5,48.8873,49.8568,134.682,98.5873,99.5079,0.00213513,0.228496,20.7838,65.888,-0.0845825,0.0,0.0
1360,339.75,48.9067,49.8073,129.571,98.6004,100.041,0.00210152,0.229774,20.7824,65.838,-0.131954,0.0,0.0
1365,341,48.7804,49.9852,134.009,98.6152,100.099,0.00214536,0.231475,20.7801,65.6878,-0.135873,0.0,0.0
1370,342.25,49.5004,50.2133,133.443,98.6244,99.4277,0.00225442,0.233298,20.7775,65.6678,-0.0738226,0.0,0.0
1375,343.5,49.185,49.955,134.939,98.6344,100.599,0.00237727,0.235062,20.7757,65.5878,-0.179515,0.0,0.0
1380,344.75,49.2791,50.3471,134.507,98.6364,99.063,0.00244307,0.2366,20.7732,65.4476,-0.0392723,0.0,0.0
1385,346,49.5482,50.4872,138.777,98.6579,99.7848,0.00248278,0.238102,20.7713,65.3976,-0.103354,0.0,0.0
1390,347.25,49.977,50.3289,137.228,98.6655,99.3741,0.00248138,0.239666,20.7699,65.3676,-0.0651238,0.0,0.0
1395,348.5,49.8042,50.3298,135.771,98.6763,98.9549,0.00248781,0.240967,20.7681,65.2775,-0.0256563,0.0,0.0
1400,349.75,49.7547,50.6367,135.063,98.6611,99.0711,0.00250256,0.242727,20.7655,65.1073,-0.0377335,0.0,0.0
1405,351,49.7792,50.45,135.158,98.6859,100.485,0.00252878,0.244656,20.7621,65.0973,-0.164453,0.0,0.0
1410,352.25,50.1882,50.9396,131.23,98.707,98.9139,0.00259074,0.246793,20.7599,65.0273,-0.0190518,0.0,0.0
1415,353.5,49.9307,51.4199,132.21,98.7014,100.909,0.00267568,0.248875,20.7584,64.9372,-0.201312,0.0,0.0
1420,354.75,50.5302,50.9358,135.376,98.7019,99.7645,0.00272301,0.250571,20.7569,64.7971,-0.0974548,0.0,0.0
1425,356,50.319,51.4308,134.054,98.7154,99.5461,0.00274098,0.252404,20.7551,64.7871,-0.0762596,0.0,0.0
1430,357.25,50.8041,51.3427,135.283,98.725,99.9919,0.00268416,0.253646,20.7522,64.717,-0.116039,0.0,0.0
1435,358.5,50.9776,51.3157,135.376,98.7206,98.7207,0.00255281,0.255372,20.7498,64.5969,-1.0306e-05,0.0,0.0
1440,359.75,50.7225,51.457,134.181,98.7366,99.4781,0.00242148,0.256737,20.7484,64.4868,-0.0680919,0.0,0.0
1445,361,51.1246,51.6915,133.429,98.747,99.6812,0.00230732,0.257536,20.7484,64.4568,-0.0856945,0.0,0.0
1450,362.25,50.8639,51.6612,132.9,98.7466,100.106,0.00225206,0.258007,20.7488,64.3567,-0.124456,0.0,0.0
1455,363.5,51.1202,51.687,133.54,98.7358,99.2827,0.00225418,0.258598,20.7492,64.2166,-0.050269,0.0,0.0
1460,364.75,51.4202,52.2007,136.502,98.7569,99.8983,0.00228621,0.25905,20.7489,64.1865,-0.104568,0.0,0.0
1465,366,51.3235,52.5912,133.278,98.7641,99.1598,0.00233184,0.259512,20.7482,64.0965,-0.0363817,0.0,0.0
1470,367.25,51.401,52.2024,132.938,98.7633,99.2904,0.00238041,0.260172,20.7474,64.0164,-0.0484328,0.0,0.0
1475,368.5,52.0876,52.3387,130.418,98.7542,99.9978,0.00242295,0.261051,20.7464,63.9063,-0.113886,0.0,0.0
1480,369.75,51.8755,52.7258,132.205,98.7705,98.9693,0.00243525,0.261985,20.7452,63.8262,-0.0182958,0.0,0.0
1485,371,51.9559,52.6149,134.216,98.7709,99.1859,0.00242674,0.262796,20.7441,63.7662,-0.0381529,0.0,0.0
1490,372.25,51.442,53.3233,136.154,98.7705,99.2314,0.00239854,0.263552,20.7431,63.6861,-0.0423622,0.0,0.0
1495,373.5,51.6726,53.4506,139.037,98.7693,98.6208,0.002355,0.26421,20.7416,63.5159,0.0136977,0.0,0.0
1500,374.75,52.437,52.8419,133.9,98.7853,98.9513,0.00235221,0.264765,20.7407,63.4959,-0.0152781,0.0,0.0
1505,376,51.9856,52.697,136.844,98.7861,98.6163,0.0024342,0.265532,20.7392,63.3958,0.0156581,0.0,0.0
1510,377.25,51.9117,53.1921,138.245,98.7913,99.1755,0.00252667,0.266279,20.7383,63.3258,-0.0353269,0.0,0.0
1515,378.5,52.1376,53.3461,136.506,98.7921,99.3381,0.00267078,0.266593,20.7395,63.2557,-0.0501578,0.0,0.0
1520,379.75,52.7969,53.2912,135.851,98.7981,99.334,0.00281567,0.266545,20.7413,63.2057,-0.049235,0.0,0.0
1525,381,52.7491,53.8152,137.769,98.8092,98.1169,0.00292817,0.265454,20.7431,63.0756,0.0639916,0.0,0.0
1530,382.25,52.5094,53.8936,136.817,98.7833,100.141,0.00299108,0.264078,20.7445,62.9955,-0.124264,0.0,0.0
1535,383.5,52.6075,53.6856,138.093,98.7985,99.1643,0.00300184,0.262572,20.7466,62.9454,-0.0336314,0.0,0.0
1540,384.75,52.1178,53.6741,133.878,98.8041,98.9085,0.00300914,0.260469,20.7498,62.8854,-0.00961513,0.0,0.0
1545,386,52.8978,54.0145,132.728,98.8132,98.8464,0.0030707,0.258076,20.7529,62.8153,-0.00304945,0.0,0.0
1550,387.25,52.7076,53.817,132.867,98.7961,99.0161,0.00320472,0.255401,20.7559,62.6752,-0.0202466,0.0,0.0
1555,388.5,52.3798,54.2671,132.573,98.7941,98.868,0.00337175,0.252505,20.7595,62.6552,-0.00680449,0.0,0.0
1560,389.75,52.1761,54.2338,133.033,98.8041,98.3123,0.00350303,0.249421,20.7628,62.5851,0.0454053,0.0,0.0
1565,391,52.6668,53.7748,137.785,98.8049,99.2188,0.00359068,0.246009,20.7672,62.5351,-0.0380423,0.0,0.0
1570,392.25,52.5741,53.9403,138.306,98.8076,98.8414,0.00364929,0.242145,20.7715,62.405,-0.0031086,0.0,0.0
1575,393.5,52.4389,54.1516,136.236,98.8005,98.3776,0.00368432,0.23818,20.7748,62.425,0.0390333,0.0,0.0
1580,394.75,52.3306,54.4611,133.093,98.8053,98.7,0.0037155,0.234487,20.7781,62.3649,0.00969764,0.0,0.0
1585,396,52.3601,53.8102,137.479,98.8029,98.4271,0.00377418,0.230585,20.7824,62.2949,0.0346726,0.0,0.0
1590,397.25,52.0174,54.0814,140.694,98.8033,98.6874,0.00390866,0.226379,20.788,62.2048,0.0106772,0.0,0.0
1595,398.5,52.3098,53.5182,138.419,98.8041,98.9261,0.00407403,0.221728,20.7937,62.1948,-0.0112307,0.0,0.0
1600,399.75,51.7479,53.6153,136.845,98.8005,98.9891,0.00421347,0.216967,20.7983,62.1447,-0.0173588,0.0,0.0
1605,401,51.2429,53.7517,136.112,98.7937,97.7877,0.00433175,0.211703,20.803,62.0246,0.0931402,0.0,0.0
1610,402.25,51.6665,53.9968,139.784,98.7949,99.266,0.00445737,0.207096,20.8074,62.0346,-0.0432968,0.0,0.0
1615,403.5,50.9608,53.5508,140.995,98.7993,99.0738,0.00464468,0.201445,20.8125,61.9946,-0.0252488,0.0,0.0
1620,404.75,50.7649,53.5988,138.933,98.7957,99.0062,0.00495106,0.195942,20.8181,61.9646,-0.0193736,0.0,0.0
1625,406,51.0076,53.0481,138.353,98.7725,99.1364,0.00524421,0.190469,20.8262,61.8545,-0.0334604,0.0,0.0
1630,407.25,50.3308,53.1554,135.974,98.7857,99.2795,0.00550996,0.184597,20.8341,61.8745,-0.0453817,0.0,0.0
1635,408.5,50.1863,52.7961,138.114,98.7801,99.3489,0.00576147,0.178436,20.8411,61.8244,-0.0522508,0.0,0.0
1640,409.75,49.6363,53.0468,140.248,98.7733,99.1161,0.00601612,0.172708,20.8467,61.8244,-0.0315263,0.0,0.0
1645,411,49.6142,52.7991,138.91,98.7677,99.7492,0.0062883,0.16796,20.8517,61.7244,-0.0899867,0.0,0.0
1650,412.25,49.3069,52.8125,139.137,98.7585,98.8135,0.00648716,0.16343,20.856,61.7644,-0.00506164,0.0,0.0
1655,413.5,49.6974,52.3083,140.271,98.7605,98.5447,0.00684132,0.157933,20.8628,61.7143,0.0199143,0.0,0.0
1660,414.75,48.9894,51.8218,137.427,98.7438,98.7653,0.00716682,0.154108,20.8685,61.6743,-0.00198493,0.0,0.0
1665,416,48.6478,51.6891,142.907,98.7462,98.7482,0.00756471,0.147942,20.8731,61.6343,-0.000187137,0.0,0.0
1670,417.25,48.3992,51.6086,139.575,98.7374,98.972,0.00788615,0.144338,20.8773,61.6143,-0.0215977,0.0,0.0
1675,418.5,48.1689,51.0304,141.131,98.7482,99.3885,0.00820294,0.140404,20.8819,61.5942,-0.0588226,0.0,0.0
1680,419.75,47.8697,51.54,137.878,98.7182,99.3228,0.00845005,0.137527,20.8854,61.5442,-0.0555612,0.0,0.0
1685,421,47.772,50.8576,136.667,98.7402,98.9432,0.00859954,0.134524,20.8876,61.5442,-0.0186904,0.0,0.0
1690,422.25,46.9222,50.5388,143.341,98.7234,98.7716,0.00868568,0.131907,20.8898,61.5342,-0.00444242,0.0,0.0
1695,423.5,47.119,50.503,138.27,98.7082,98.868,0.00877768,0.129019,20.8927,61.4942,-0.0147147,0.0,0.0
1700,424.75,47.0391,50.32,140.099,98.6835,97.9539,0.00893378,0.126477,20.8956,61.4141,0.0675339,0.0,0.0
1705,426,46.5505,49.9333,141.691,98.6847,98.7518,0.00911033,0.123622,20.8989,61.4942,-0.00618678,0.0,0.0
1710,427.25,46.094,50.1178,141.113,98.6775,98.6978,0.00940066,0.120936,20.9019,61.4641,-0.00186937,0.0,0.0
1715,428.5,45.9645,49.5695,139.568,98.6655,98.7054,0.00969707,0.118521,20.9059,61.4341,-0.00367944,0.0,0.0
1720,429.75,45.8737,49.7637,144.567,98.6539,98.5726,0.0100224,0.116711,20.9085,61.354,0.00750833,0.0,0.0
1725,431,45.9905,49.6597,142.822,98.6627,98.8189,0.0102943,0.114635,20.911,61.3841,-0.0143926,0.0,0.0
1730,432.25,45.1908,49.2391,139.027,98.6699,98.6244,0.0105429,0.112624,20.9134,61.344,0.0042017,0.0,0.0
1735,433.5,45.1223,48.9176,138.791,98.6507,99.0891,0.0107521,0.110506,20.9163,61.354,-0.0403455,0.0,0.0
1740,434.75,45.2418,48.6063,141.886,98.6436,98.4501,0.010927,0.108477,20.9185,61.284,0.017866,0.0,0.0
1745,436,44.5352,48.6312,139.265,98.6304,98.6644,0.0110411,0.106803,20.9198,61.314,-0.0031417,0.0,0.0
1750,437.25,44.5608,48.1181,138.6,98.6272,98.5492,0.0111037,0.105563,20.9205,61.314,0.00720266,0.0,0.0
1755,438.5,44.1549,48.2807,146.796,98.6168,98.4807,0.0111142,0.104611,20.921,61.2039,0.0125668,0.0,0.0
1760,439.75,44.3049,47.8435,143.903,98.6264,98.5852,0.0110524,0.103685,20.9221,61.2439,0.00380265,0.0,0.0
1765,441,43.809,47.462,144.276,98.6132,99.0463,0.0109715,0.102622,20.9227,61.2439,-0.0398786,0.0,0.0
1770,442.25,43.7071,46.9819,138.167,98.6156,98.8761,0.0108779,0.101323,20.9242,61.2139,-0.0240044,0.0,0.0
1775,443.5,43.3566,47.1972,142.208,98.5849,98.7027,0.010795,0.1005,20.926,61.1138,-0.0108717,0.0,0.0
1780,444.75,43.0507,47.1553,144.618,98.5881,98.7973,0.0107407,0.0995936,20.9271,61.1739,-0.019291,0.0,0.0
1785,446,43.2142,46.5747,142.848,98.5757,98.641,0.0107101,0.0987305,20.9277,61.1539,-0.00602991,0.0,0.0
1790,447.25,43.1287,46.7087,141.063,98.5617,98.664,0.010709,0.0978681,20.9293,61.1338,-0.00943812,0.0,0.0
1795,448.5,42.6707,46.3996,142.437,98.5406,98.9986,0.0107481,0.0971445,20.9304,61.0738,-0.0421993,0.0,0.0
1800,449.75,42.6291,46.4303,145.186,98.5326,98.6955,0.0108055,0.0966068,20.9311,61.1238,-0.0150364,0.0,0.0
1805,451,42.4056,46.0903,141.191,98.517,98.2146,0.0108547,0.096408,20.9305,61.1138,0.0279773,0.0,0.0
1810,452.25,42.5147,45.5135,141.722,98.4938,98.4839,0.0108526,0.0961664,20.9302,61.1038,0.000920983,0.0,0.0
1815,453.5,42.4454,45.7226,144.775,98.4807,98.5447,0.0108298,0.0957283,20.9306,61.0738,-0.00591159,0.0,0.0
1820,454.75,41.1897,44.4484,141.2,98.4539,98.3272,0.0108268,0.0951125,20.9312,61.0938,0.0117239,0.0,0.0
1825,456,40.2774,43.8232,140.586,98.4352,98.5275,0.0108381,0.0945123,20.9315,61.0538,-0.00853736,0.0,0.0
1830,457.25,40.1602,43.392,142.448,98.4104,98.3335,0.0108724,0.0940082,20.932,61.0137,0.00711594,0.0,0.0
1835,458.5,39.5259,43.7032,142.289,98.392,98.2011,0.010929,0.0933869,20.9324,61.0438,0.0176787,0.0,0.0
1840,459.75,40.1439,43.3996,141.142,98.3641,98.3542,0.0110317,0.0928786,20.9328,61.0137,0.000916644,0.0,0.0
1845,461,39.659,43.0894,141.53,98.3389,98.5311,0.0111654,0.0923375,20.9338,61.0237,-0.0177702,0.0,0.0
1850,462.25,40.1926,42.935,140.95,98.307,98.2357,0.0112901,0.0919617,20.9344,60.9337,0.00659778,0.0,0.0
1855,463.5,39.5596,42.7148,143.55,98.2798,98.3092,0.0113252,0.0917359,20.9347,60.9837,-0.00271359,0.0,0.0
1860,464.75,39.5076,42.6387,143.775,98.2547,97.898,0.0112493,0.0915136,20.9349,60.9837,0.0330946,0.0,0.0
1865,466,39.43,42.6864,139.987,98.2407,98.3055,0.0111111,0.0913054,20.935,60.9937,-0.00600331,0.0,0.0
1870,467.25,38.9908,42.7548,141.458,98.2124,98.7167,0.010963,0.0910684,20.9348,60.8836,-0.0466089,0.0,0.0
1875,468.5,39.3384,42.4295,145.086,98.1996,98.2434,0.0108613,0.0907533,20.9346,60.9437,-0.00405875,0.0,0.0
1880,469.75,39.3276,42.0119,141.318,98.1804,98.6563,0.0108084,0.0906658,20.9343,60.9237,-0.0440048,0.0,0.0
1885,471,38.7538,41.8723,141.837,98.1545,98.4627,0.0107786,0.0907082,20.9341,60.8936,-0.028532,0.0,0.0
1890,472.25,38.6121,41.8922,147.153,98.1505,98.773,0.0107466,0.0908903,20.9339,60.8636,-0.0575321,0.0,0.0
1895,473.5,38.9396,41.5555,141.556,98.1245,98.1056,0.0106952,0.0910278,20.933,60.8936,0.0017551,0.0,0.0
1900,474.75,38.7522,42.0787,146.136,98.1086,98.1205,0.0106426,0.0909781,20.9323,60.8836,-0.00110443,0.0,0.0
1905,476,38.5031,41.8077,146.515,98.0806,98.6689,0.0105877,0.0910307,20.9322,60.8136,-0.0544239,0.0,0.0
1910,477.25,38.4906,41.0791,141.46,98.0583,98.6752,0.0105189,0.0910255,20.9328,60.8436,-0.0570796,0.0,0.0
1915,478.5,38.5505,41.5324,143.947,98.0431,98.5203,0.0104274,0.0908796,20.9332,60.8336,-0.0441912,0.0,0.0
1920,479.75,38.8171,41.3777,142.206,98.0163,97.7832,0.0103204,0.0906087,20.9334,60.8136,0.021671,0.0,0.0
1925,481,38.3592,41.2314,146.748,97.9948,97.78,0.0102289,0.0903167,20.9341,60.7335,0.019963,0.0,0.0
1930,482.25,38.4878,41.1697,143.335,97.9892,98.2213,0.0101899,0.0900972,20.9349,60.7535,-0.021534,0.0,0.0
1935,483.5,38.0605,41.0859,143.525,98.0016,97.8377,0.010222,0.0899676,20.9354,60.7635,0.0152314,0.0,0.0
1940,484.75,38.1577,40.6774,144.18,97.9592,97.8386,0.0103461,0.0898911,20.9356,60.7835,0.0112168,0.0,0.0
1945,486,38.4515,40.6069,140.369,97.9213,98.1551,0.0104661,0.0897927,20.9358,60.7135,-0.0217053,0.0,0.0
1950,487.25,38.1183,40.9036,139.839,97.9161,97.7265,0.010552,0.0894832,20.9361,60.7435,0.0176452,0.0,0.0
1955,488.5,37.9403,40.2236,144.329,97.8846,98.143,0.0105706,0.0891714,20.9364,60.7535,-0.0239919,0.0,0.0
1960,489.75,37.8534,40.4524,141.268,97.851,98.0822,0.0105231,0.0889557,20.9366,60.7335,-0.0214715,0.0,0.0
1965,491,37.8402,40.9417,142.626,97.8239,98.1119,0.01043,0.0889076,20.9367,60.6734,-0.026754,0.0,0.0
1970,492.25,37.8029,40.5906,139.957,97.7995,97.9282,0.0103593,0.0889465,20.9368,60.6935,-0.0119628,0.0,0.0
1975,493.5,37.7972,40.3828,140.325,97.794,97.386,0.0103397,0.0890317,20.9367,60.6834,0.0380395,0.0,0.0
1980,494.75,38.1793,40.1225,143.758,97.76,97.4221,0.0103802,0.0890053,20.9367,60.6634,0.0315153,0.0,0.0
1985,496,37.9477,39.8083,140.655,97.7405,97.9642,0.0104545,0.0887867,20.9367,60.6534,-0.0208099,0.0,0.0
1990,497.25,37.3733,40.3629,139.385,97.7412,97.7665,0.0104923,0.0885637,20.9367,60.6434,-0.00235386,0.0,0.0
1995,498.5,37.464,40.0322,141.363,97.7085,97.4455,0.010469,0.0884372,20.9367,60.6234,0.024532,0.0,0.0
2000,499.75,37.4913,39.8844,141.281,97.6794,97.3572,0.0104021,0.0884458,20.9367,60.5834,0.0300633,0.0,0.0
2005,501,37.7175,39.5966,145.073,97.6626,97.8998,0.010366,0.0887011,20.936,60.6234,-0.0220778,0.0,0.0
2010,502.25,37.4258,39.3069,144.518,97.6522,97.6783,0.0103838,0.0888445,20.9353,60.6234,-0.00242765,0.0,0.0
2015,503.5,37.401,39.1311,142.786,97.6299,97.5427,0.0104286,0.0888669,20.9349,60.5934,0.00812508,0.0,0.0
2020,504.75,37.6129,39.7082,143.421,97.6063,98.0182,0.0104706,0.089041,20.9347,60.5333,-0.0383266,0.0,0.0
2025,506,37.4538,40.0357,143.863,97.5843,97.6706,0.0104826,0.0890609,20.935,60.6034,-0.00804167,0.0,0.0
2030,507.25,37.9012,39.3722,140.181,97.5768,97.9007,0.0104671,0.0888214,20.9361,60.6034,-0.030164,0.0,0.0
2035,508.5,37.3118,39.607,143.856,97.5408,97.8057,0.0104474,0.0885487,20.9373,60.5533,-0.0246794,0.0,0.0
2040,509.75,37.609,39.3176,143.412,97.5193,98.1074,0.0104401,0.0883505,20.9377,60.4933,-0.0547192,0.0,0.0
2045,511,37.2499,39.1994,144.941,97.5157,97.2316,0.0104443,0.0883252,20.9379,60.5033,0.0265517,0.0,0.0
2050,512.25,37.464,39.1003,144.874,97.5149,97.7503,0.010454,0.0883298,20.938,60.5133,-0.0219456,0.0,0.0
2055,513.5,36.9892,38.995,144.96,97.4849,98.1079,0.0104412,0.0882391,20.9381,60.4733,-0.0579661,0.0,0.0
2060,514.75,36.9381,38.9999,143.401,97.4722,97.0821,0.0104165,0.08803,20.9381,60.4733,0.0364934,0.0,0.0
2065,516,36.9683,39.2763,147.586,97.465,97.4549,0.0104202,0.087852,20.9384,60.5133,0.000938338,0.0,0.0
2070,517.25,36.8131,39.0263,145.772,97.4526,97.1451,0.0104789,0.0877703,20.9387,60.4632,0.0287581,0.0,0.0
2075,518.5,37.289,38.2407,145.609,97.4282,97.2631,0.0105539,0.0878382,20.9388,60.3431,0.0154383,0.0,0.0
2080,519.75,37.1752,38.9343,140.732,97.4191,97.6544,0.0106223,0.0879344,20.9389,60.4132,-0.0219581,0.0,0.0
2085,521,37.2475,38.4351,141.628,97.4119,97.472,0.0106102,0.0879676,20.9393,60.4032,-0.00561904,0.0,0.0
2090,522.25,37.5287,38.7236,143.272,97.4031,97.3752,0.010531,0.0879581,20.9395,60.3632,0.00260324,0.0,0.0
2095,523.5,37.2422,38.581,144.375,97.3823,97.0875,0.0104119,0.0879365,20.9397,60.3231,0.0275944,0.0,0.0
2100,524.75,36.9271,38.5174,145.83,97.3923,96.7615,0.0102715,0.0879618,20.9398,60.3932,0.0591373,0.0,0.0
2105,526,37.0477,38.5471,144.701,97.3767,97.2811,0.0101247,0.0879933,20.9398,60.3832,0.00894228,0.0,0.0
2110,527.25,37.0885,38.4956,143.357,97.3444,97.7908,0.0100195,0.0878552,20.9398,60.3531,-0.0416412,0.0,0.0
2115,528.5,36.9814,38.4717,147.934,97.3316,98.152,0.00998339,0.0876193,20.9399,60.3231,-0.0763816,0.0,0.0
2120,529.75,37.2082,38.6257,141.267,97.3165,97.3054,0.0100162,0.0875845,20.9399,60.3331,0.00103162,0.0,0.0
2125,531,36.3642,38.2729,145.497,97.3065,97.6657,0.0101394,0.0876461,20.9395,60.3131,-0.0335312,0.0,0.0
2130,532.25,36.695,38.4851,144.448,97.2901,97.146,0.010288,0.0876177,20.9393,60.3031,0.0134865,0.0,0.0
2135,533.5,36.9106,38.5417,143.434,97.2789,96.8916,0.0104219,0.0876009,20.9392,60.2931,0.0363065,0.0,0.0
2140,534.75,36.8541,37.9439,142.342,97.2717,97.7724,0.0104732,0.0875476,20.9385,60.3231,-0.0467185,0.0,0.0
2145,536,36.7321,37.8083,143.194,97.2645,97.5774,0.0104491,0.0875485,20.9377,60.3131,-0.0292247,0.0,0.0
2150,537.25,36.6623,38.2515,144.363,97.2386,97.2924,0.0104069,0.0875911,20.9373,60.2431,-0.00503125,0.0,0.0
2155,538.5,36.8194,38.18,142.264,97.227,97.2334,0.0103797,0.0876163,20.937,60.3231,-0.000595054,0.0,0.0
2160,539.75,36.4419,38.0102,140.579,97.2186,97.3099,0.0103745,0.0877556,20.9369,60.2931,-0.0085417,0.0,0.0
2165,541,36.8665,38.2572,145.901,97.2086,96.5309,0.0103845,0.0880208,20.937,60.2831,0.0636706,0.0,0.0
2170,542.25,36.615,37.9894,144.778,97.2003,97.2401,0.0103635,0.0881111,20.938,60.203,-0.00373153,0.0,0.0
2175,543.5,36.9833,37.7038,146.015,97.1947,97.3104,0.0103042,0.0878775,20.9388,60.2531,-0.0108266,0.0,0.0
2180,544.75,36.8983,37.4842,139.844,97.1915,97.2244,0.0102316,0.0873836,20.94,60.233,-0.00307821,0.0,0.0
2185,546,36.9343,38.0406,141.065,97.1771,96.9128,0.0101815,0.0869077,20.9409,60.213,0.0247895,0.0,0.0
2190,547.25,36.4522,37.3365,142.677,97.148,97.1073,0.0101816,0.0865728,20.9415,60.163,0.00381025,0.0,0.0
2195,548.5,36.8957,38.176,153.315,97.1508,97.1721,0.0102138,0.0864468,20.9418,60.193,-0.00200229,0.0,0.0
2200,549.75,36.5713,37.9276,142.599,97.142,97.3649,0.0102799,0.0865173,20.9417,60.183,-0.0208561,0.0,0.0
2205,551,36.3262,37.5284,147.685,97.1308,97.2136,0.0103925,0.0865071,20.941,60.1029,-0.00775068,0.0,0.0
2210,552.25,36.1445,37.4801,142.75,97.1384,97.6801,0.0104847,0.0864501,20.9405,60.1229,-0.0506072,0.0,0.0
2215,553.5,36.6483,37.7624,148.154,97.1344,96.666,0.010501,0.0867737,20.9403,60.143,0.043989,0.0,0.0
2220,554.75,36.1781,37.4183,140.529,97.136,96.8146,0.0104034,0.0870118,20.9401,60.133,0.0301606,0.0,0.0
2225,556,36.5644,37.6575,138.92,97.1312,97.1411,0.0102505,0.0870591,20.9406,60.0429,-0.000924331,0.0,0.0
2230,557.25,35.9864,37.8246,145.004,97.1192,97.2365,0.0100985,0.0867926,20.9413,60.1029,-0.0109858,0.0,0.0
2235,558.5,36.6291,37.4331,147.589,97.1296,96.888,0.00997006,0.0864366,20.9417,60.0829,0.0226655,0.0,0.0
2240,559.75,36.5222,37.5336,144.92,97.12,96.6484,0.00988978,0.0860569,20.9419,60.1129,0.0442967,0.0,0.0
2245,561,35.966,37.2882,142.976,97.1136,97.0082,0.00984389,0.0859367,20.942,60.0629,0.00988295,0.0,0.0
2250,562.25,36.602,38.0385,140.836,97.1128,96.9929,0.0098395,0.0862351,20.9408,60.1029,0.0112439,0.0,0.0
2255,563.5,36.5377,37.3689,143.682,97.1268,97.2708,,0.086476,,60.0729,-0.0134766,0.0,0.0
2260,564.75,36.2446,37.6044,142.97,97.1072,97.6895,,0.0868443,,60.0629,-0.0544059,0.0,0.0
2265,566,36.5036,37.1306,146.517,97.1009,97.1402,,,,60.0028,-0.00368323,0.0,0.0
2270,567.25,36.4909,37.4266,139.758,97.0929,97.2635,,,,60.0329,-0.0159823,0.0,0.0
2275,568.5,36.474,37.5248,148.045,97.1001,96.8538,,,,60.0129,0.0231114,0.0,0.0
2280,569.75,36.4957,37.4875,141.527,97.0705,96.9546,,,,59.9928,0.0108701,0.0,0.0
2285,571,36.4795,37.4667,143.207,97.0885,97.2032,,,,59.9928,-0.0107468,0.0,0.0
2290,572.25,36.2089,37.5445,140.292,97.0857,97.3135,,,,59.9928,-0.0213318,0.0,0.0
2295,573.5,36.1831,37.6852,142.706,97.0701,96.652,,,,60.0028,0.0392796,0.0,0.0
2296,573.75,36.4317,37.4447,143.257,97.0545,96.6813,,,,59.9428,0.0350638,0.0,0.0