File: 01_Data/FDNY_LDF/Cone/FDNY_LDF_Cone_HF75Scan_220913_R1.csv
Names,Time,Stack TC,Smoke TC,Exh Press,Smoke Comp,Smoke Meas,CO Meter,CO2 Meter,O2 Meter,Sample Mass,Ext Coeff,Start Test,Flame Verif
Chan Gain,,500,500,1,1,1,1,1,1,1,1,1.0,1.0
Offset,,0,0,0.139139,0,0,0,0,0,0,0,0.0,0.0
Gain,,1,1,25.011,13.0826,14.7555,1,1,1,1.00088,1.03743,1.0,1.0
Units,sec,C,C,Pa,%,%,%,%,%,g,/m,,
Baseline,,60.7714,62.8954,133.649,98.5607,100.984,0.00109671,0.0509063,20.9757,-448.732,-0.220953,,
3,0.5,60.1125,62.3304,130.915,98.9681,101.318,0.00270093,0.0842087,20.9326,76.7876,-0.213554,0.0,0.0
6,1.25,58.6833,61.3316,132.759,98.9701,100.309,0.00274459,0.0859301,20.9275,76.8176,-0.122277,0.0,0.0
9,2,58.7374,61.4404,140.894,98.9849,98.9026,0.00281732,0.0954133,20.9237,76.7276,0.00756687,0.0,0.0
12,2.75,58.8442,60.8016,126.075,98.9809,100.284,0.00298534,0.10637,20.897,76.6675,-0.119038,0.0,1.0
15,3.5,59.0847,61.168,120.982,98.9745,98.899,0.00318484,0.144993,20.8464,76.3372,0.00694358,0.0,1.0
18,4.25,59.7137,61.195,113.454,98.9893,97.7337,0.00343909,0.184409,20.7853,76.3973,0.116173,0.0,1.0
21,5,60.7225,61.5885,118.457,98.9869,96.9191,0.00372016,0.232394,20.7219,76.2972,0.192121,0.0,1.0
24,5.75,61.4861,62.3084,116.901,98.9993,96.9452,0.0040094,0.285674,20.6448,76.2071,0.190806,0.0,1.0
27,6.5,62.792,63.1664,118.046,98.9897,95.6416,0.00433219,0.338441,20.5761,76.037,0.313127,0.0,1.0
30,7.25,64.0384,62.9379,106.397,98.9905,94.5779,0.0046021,0.387379,20.5207,75.9068,0.41497,0.0,1.0
33,8,64.2787,63.1944,109.135,99.0049,94.5797,0.00485803,0.433314,20.4664,75.8268,0.416118,0.0,1.0
36,8.75,65.124,63.5511,108.821,99.0125,94.2037,0.00507994,0.47415,20.4268,75.7167,0.453067,0.0,1.0
39,9.5,66.201,64.699,112.1,98.9997,94.2852,0.00530214,0.509006,20.3956,75.5165,0.444022,0.0,0.0
42,10.25,67.3942,65.5395,113.396,99.0017,94.7693,0.00546413,0.53869,20.3689,75.3464,0.397603,0.0,0.0
45,11,68.4414,66.0166,113.829,99.0145,94.1844,0.00562278,0.561072,20.3494,75.2763,0.45512,0.0,0.0
48,11.75,70.0689,66.9499,113.029,99.028,94.0723,0.00575137,0.578656,20.3351,75.1462,0.467208,0.0,0.0
51,12.5,70.7191,68.6024,114.521,99.0248,93.4454,0.00586288,0.591474,20.3247,74.986,0.527755,0.0,0.0
54,13.25,72.0393,69.1887,109.773,99.0085,94.9868,0.00596514,0.600637,20.3172,74.8059,0.377365,0.0,0.0
57,14,73.0263,69.7432,112.096,99.0232,94.9053,0.006063,0.60724,20.3126,74.7959,0.386535,0.0,0.0
60,14.75,73.8498,70.6568,111.963,99.03,94.1736,0.00615586,0.610905,20.3108,74.6257,0.457595,0.0,0.0
63,15.5,74.7948,71.5207,111.575,99.0181,93.785,0.00624338,0.612253,20.3127,74.4556,0.494125,0.0,0.0
66,16.25,75.956,72.2933,114.612,99.0157,93.6323,0.00632355,0.611819,20.315,74.2854,0.50873,0.0,0.0
69,17,75.9865,72.8074,112.738,99.0332,93.5724,0.00641615,0.610048,20.3183,74.1653,0.516167,0.0,0.0
72,17.75,77.208,73.403,112.493,99.0376,94.3555,0.00649416,0.606745,20.3226,74.1353,0.44073,0.0,0.0
75,18.5,77.2387,74.9277,113.822,99.0392,93.5508,0.00654714,0.603764,20.326,73.9351,0.51882,0.0,0.0
78,19.25,78.4187,74.8663,114.521,99.0384,93.341,0.00657796,0.600612,20.3288,73.765,0.539182,0.0,0.0
81,20,78.8917,75.8995,118.316,99.044,92.9456,0.00658992,0.596487,20.3347,73.6949,0.578323,0.0,0.0
84,20.75,79.5813,75.7333,115.992,99.0512,93.445,0.00657829,0.592891,20.3395,73.6749,0.53022,0.0,0.0
87,21.5,79.8881,76.7352,118.178,99.05,93.8273,0.006563,0.589263,20.3437,73.5247,0.492954,0.0,0.0
90,22.25,81.1257,77.5022,115.72,99.0416,93.5918,0.00654018,0.584722,20.3506,73.3446,0.515055,0.0,0.0
93,23,81.1452,78.2924,114.005,99.0536,94.8643,0.00652082,0.58047,20.3557,73.1945,0.393253,0.0,0.0
96,23.75,81.5651,78.5613,112.526,99.0664,93.9678,0.00650204,0.57576,20.3631,73.2045,0.480841,0.0,0.0
99,24.5,81.6654,78.7131,117.746,99.0616,94.3406,0.0064865,0.570105,20.3713,73.0443,0.444364,0.0,0.0
102,25.25,82.2343,79.5398,115.273,99.052,94.6054,0.0064674,0.564258,20.3788,72.9042,0.417979,0.0,0.0
105,26,82.6816,79.7509,116.469,99.05,93.8962,0.00644471,0.558665,20.385,72.8141,0.486275,0.0,0.0
108,26.75,83.5135,80.4865,113.688,99.0572,94.1484,0.00641884,0.553709,20.3909,72.7441,0.462527,0.0,0.0
111,27.5,83.4555,80.8163,115.685,99.0556,94.3415,0.00639444,0.549379,20.396,72.654,0.443727,0.0,0.0
114,28.25,83.6837,81.2358,112.729,99.0508,94.2087,0.00638313,0.545639,20.4002,72.5239,0.45611,0.0,0.0
117,29,84.0629,81.5961,116.59,99.0568,94.7662,0.00637764,0.541828,20.4051,72.3837,0.402968,0.0,0.0
120,29.75,84.2724,82.1685,120.254,99.064,94.4595,0.0063791,0.538158,20.4091,72.3237,0.433124,0.0,0.0
123,30.5,84.7332,82.8321,117.092,99.0608,94.7734,0.00638403,0.535102,20.4129,72.2837,0.402643,0.0,0.0
126,31.25,85.0562,82.3022,114.663,99.0588,94.9738,0.00638002,0.531337,20.4161,72.1035,0.383239,0.0,0.0
129,32,85.1342,82.8839,115.238,99.0412,93.9592,0.00636583,0.52783,20.4199,71.9834,0.47936,0.0,0.0
132,32.75,85.4376,83.9641,121.779,99.0532,95.2579,0.00633918,0.523968,20.4235,71.8433,0.35554,0.0,0.0
135,33.5,85.0559,83.5573,114.049,99.0596,95.0791,0.00631498,0.519917,20.4278,71.8333,0.373222,0.0,0.0
138,34.25,85.7692,84.0022,116.953,99.0516,95.3835,0.00628918,0.517476,20.4335,71.6331,0.343399,0.0,0.0
141,35,85.9097,84.2822,117.884,99.048,94.5703,0.00626299,0.513006,20.4389,71.513,0.420991,0.0,0.0
144,35.75,86.4041,84.9221,121.005,99.0512,96.2526,0.00623777,0.509748,20.4434,71.4629,0.260821,0.0,0.0
147,36.5,86.4754,85.1738,120.781,99.0576,95.3714,0.0062089,0.504909,20.4493,71.4029,0.345108,0.0,0.0
150,37.25,86.3844,85.4321,116.756,99.0488,95.2746,0.00618398,0.500532,20.4543,71.2127,0.353545,0.0,0.0
153,38,86.5269,85.3428,122.432,99.0416,95.2867,0.00616824,0.496978,20.4591,71.1627,0.351724,0.0,0.0
156,38.75,86.4817,85.6923,118.211,99.0476,94.5851,0.00616375,0.493073,20.4632,71.0526,0.419525,0.0,0.0
159,39.5,87.0132,86.1843,119.452,99.056,95.4002,0.00616565,0.489829,20.4669,71.0025,0.342213,0.0,0.0
162,40.25,86.837,86.4394,121.303,99.0448,96.072,0.0061672,0.486787,20.4708,70.8424,0.277322,0.0,0.0
165,41,87.1976,86.4523,114.715,99.0348,95.5299,0.00616484,0.483707,20.4756,70.7223,0.327906,0.0,0.0
168,41.75,87.1971,86.9976,115.889,99.0396,95.4042,0.00613725,0.480567,20.4798,70.6622,0.340322,0.0,0.0
171,42.5,86.9039,86.8643,116.513,99.0392,94.908,0.00608298,0.477373,20.484,70.6022,0.387743,0.0,0.0
174,43.25,87.5222,87.0263,118.274,99.0388,95.4614,0.00600387,0.473695,20.4883,70.4721,0.334796,0.0,0.0
177,44,87.3675,87.2781,119.951,99.0372,96.0027,0.00591496,0.470536,20.492,70.372,0.283196,0.0,0.0
180,44.75,87.7768,87.8736,123.195,99.0189,96.6304,0.00577975,0.467416,20.4954,70.2919,0.222199,0.0,0.0
183,45.5,87.5802,88.1391,117.325,99.0204,96.5678,0.00565217,0.463569,20.4993,70.2419,0.228242,0.0,0.0
186,46.25,87.6598,88.2465,120.803,99.0236,96.4926,0.00552697,0.460186,20.5034,70.1017,0.235625,0.0,0.0
189,47,87.8173,88.426,118.128,99.0149,96.344,0.00541045,0.456731,20.5075,69.9116,0.248844,0.0,0.0
192,47.75,87.9718,88.2798,117.669,99.0013,97.3973,0.00529296,0.452795,20.5144,69.8115,0.148649,0.0,0.0
195,48.5,88.2191,88.7794,118.268,99.0089,96.5746,0.0051853,0.448759,20.5194,69.7514,0.226542,0.0,0.0
198,49.25,87.6191,88.9084,120.046,99.0005,96.7016,0.0050914,0.444852,20.5235,69.6313,0.213813,0.0,0.0
201,50,87.9786,89.2459,118.186,98.9849,96.9713,0.00501636,0.441216,20.5272,69.5212,0.187033,0.0,0.0
204,50.75,88.3113,89.1972,119.687,98.9777,96.8628,0.00494476,0.438015,20.5306,69.4612,0.196562,0.0,0.0
207,51.5,88.3719,89.8063,116.507,98.9773,96.1148,0.00488789,0.435176,20.5326,69.3711,0.267069,0.0,0.0
210,52.25,88.1762,89.9846,119.668,98.9889,96.7889,0.00480935,0.432643,20.5352,69.281,0.204531,0.0,0.0
213,53,88.2065,89.5617,113.829,98.9618,96.6529,0.00474864,0.430331,20.5379,69.1609,0.214831,0.0,0.0
216,53.75,88.1542,89.3951,118.71,98.9474,97.6373,0.00470786,0.427849,20.5408,69.0808,0.121295,0.0,0.0
219,54.5,88.1838,89.9291,113.59,98.9526,97.4252,0.00468326,0.426117,20.5437,68.9707,0.141563,0.0,0.0
222,55.25,88.2242,89.6689,117.935,98.949,97.6936,0.00466752,0.423519,20.5458,68.9007,0.116197,0.0,0.0
225,56,88.4357,89.8788,121.764,98.9254,98.2222,0.0046278,0.420347,20.5486,68.7205,0.064919,0.0,0.0
228,56.75,88.4742,90.2972,117.553,98.9218,98.705,0.00456925,0.417385,20.5523,68.6805,0.0199728,0.0,0.0
231,57.5,88.0653,90.0351,118.429,98.9182,97.5382,0.00449656,0.414949,20.5558,68.6304,0.127853,0.0,0.0
234,58.25,88.2161,90.6096,119.777,98.9166,97.7485,0.00441995,0.412225,20.5596,68.5404,0.108106,0.0,0.0
237,59,88.3082,90.3439,118.812,98.9019,96.8547,0.00432375,0.41024,20.5628,68.4403,0.190347,0.0,0.0
240,59.75,88.0584,90.5091,116.625,98.8999,97.4441,0.00423057,0.407101,20.566,68.3502,0.134948,0.0,0.0
243,60.5,88.2092,90.5338,118.195,98.8883,98.5023,0.00414743,0.404419,20.57,68.2001,0.035589,0.0,0.0
246,61.25,88.9243,90.6226,119.376,98.8847,98.5212,0.0040776,0.401791,20.574,68.14,0.0335108,0.0,0.0
249,62,88.394,90.7068,120.687,98.8787,97.8868,0.00402542,0.399079,20.5773,68.0299,0.0917549,0.0,0.0
252,62.75,88.0365,91.0826,122.199,98.858,97.5112,0.00398811,0.396761,20.5803,67.9198,0.124826,0.0,0.0
255,63.5,88.6231,90.9109,120.93,98.8508,98.474,0.00396146,0.394012,20.583,67.8397,0.0347558,0.0,0.0
258,64.25,87.9662,91.2895,119.597,98.8396,97.6756,0.00394272,0.391403,20.5849,67.8197,0.107809,0.0,0.0
261,65,88.2209,91.135,120.551,98.8312,98.3911,0.00392107,0.388892,20.5885,67.7096,0.0406146,0.0,0.0
264,65.75,88.1205,91.1095,122.27,98.8192,97.8282,0.00388483,0.386457,20.5916,67.5895,0.0917227,0.0,0.0
267,66.5,88.0632,91.6739,124.034,98.8073,98.668,0.00383824,0.384012,20.5946,67.4694,0.0128311,0.0,0.0
270,67.25,88.1554,91.0548,120.302,98.7921,97.8566,0.00378472,0.382563,20.5976,67.3793,0.0865834,0.0,0.0
273,68,87.9555,91.5119,120.948,98.7877,99.1899,0.00370744,0.380252,20.6004,67.2993,-0.0369802,0.0,0.0
276,68.75,87.9832,91.7171,117.917,98.7609,98.1921,0.0036345,0.37846,20.6029,67.1992,0.0525689,0.0,0.0
279,69.5,88.3089,91.3784,120.189,98.749,99.638,0.00357089,0.376969,20.6047,67.0791,-0.0815625,0.0,0.0
282,70.25,87.912,91.2999,117.894,98.7414,99.9199,0.00351878,0.375321,20.6064,66.979,-0.107972,0.0,0.0
285,71,87.7761,91.1243,119.616,98.7198,98.782,0.00350264,0.373625,20.6085,66.9289,-0.00572813,0.0,0.0
288,71.75,88.2701,91.4115,117.417,98.6959,99.0895,0.00349087,0.372177,20.6109,66.8088,-0.0362254,0.0,0.0
291,72.5,88.0731,91.2234,120.49,98.6819,98.0164,0.00352602,0.370344,20.6131,66.7188,0.0615729,0.0,0.0
294,73.25,87.8754,91.4641,121.808,98.6715,98.931,0.00355164,0.368232,20.6159,66.6387,-0.0239033,0.0,0.0
297,74,87.9389,91.5497,117.646,98.6579,98.9234,0.00357032,0.366692,20.618,66.5586,-0.0244509,0.0,0.0
300,74.75,87.4111,91.151,119.913,98.6452,98.9225,0.0035475,0.364722,20.6195,66.4085,-0.0255464,0.0,0.0
303,75.5,87.7046,92.0251,120.975,98.6116,99.1962,0.00351272,0.363179,20.6206,66.3484,-0.0537926,0.0,0.0
306,76.25,87.8062,91.4933,121.338,98.5952,98.8549,0.00345635,0.361872,20.6214,66.2583,-0.0239354,0.0,0.0
309,77,87.1268,91.7291,124.921,98.5976,99.1395,0.00336979,0.360884,20.6219,66.2984,-0.0498758,0.0,0.0
312,77.75,87.6424,91.7928,121.974,98.5637,98.4915,0.00329266,0.360177,20.6224,66.2483,0.00666715,0.0,0.0
315,78.5,87.4474,91.5773,123.576,98.5485,99.4457,0.00323045,0.359707,20.6227,66.1382,-0.0824727,0.0,0.0
318,79.25,87.17,91.6886,116.526,98.527,100.076,0.00318846,0.359292,20.6229,65.9881,-0.141931,0.0,0.0
321,80,86.9541,91.6738,122.123,98.4998,99.5295,0.00316358,0.358634,20.6234,65.898,-0.0946339,0.0,0.0
324,80.75,87.694,91.7198,120,98.4914,99.4876,0.00314672,0.358002,20.6242,65.7579,-0.0915788,0.0,0.0
327,81.5,87.2078,91.5007,118.946,98.4503,98.5843,0.00313363,0.356506,20.6257,65.7179,-0.0123745,0.0,0.0
330,82.25,87.4812,91.6581,118.035,98.4451,99.2728,0.00312179,0.355415,20.6277,65.6578,-0.0761901,0.0,0.0
333,83,87.5489,91.6085,120.258,98.4391,99.0985,0.0031144,0.35371,20.6292,65.6078,-0.0607543,0.0,0.0
336,83.75,87.0545,91.9339,122.375,98.4028,99.0004,0.00310347,0.352079,20.6319,65.5277,-0.0550941,0.0,0.0
339,84.5,87.0821,91.2782,119.294,98.3677,98.8419,0.00309435,0.350195,20.6342,65.4276,-0.0437628,0.0,0.0
342,85.25,87.2293,91.7627,120.656,98.3489,99.0175,0.00307624,0.348335,20.6366,65.2775,-0.0616532,0.0,0.0
345,86,87.2517,91.8335,124.305,98.3589,98.8815,0.00305815,0.347239,20.6383,65.2374,-0.0482228,0.0,0.0
348,86.75,86.9524,91.5005,121.329,98.3345,99.407,0.00303222,0.345805,20.6395,65.1274,-0.0987115,0.0,0.0
351,87.5,87.0137,91.4694,121.833,98.3014,99.0922,0.00300186,0.344689,20.6404,65.0673,-0.0729181,0.0,0.0
354,88.25,86.7784,91.8985,121.57,98.2862,99.6506,0.00297911,0.343755,20.6409,65.0173,-0.125458,0.0,0.0
357,89,86.8459,91.9176,123.462,98.2747,99.565,0.00293628,0.343024,20.6414,64.9572,-0.118713,0.0,0.0
360,89.75,86.827,92.0835,119.419,98.2687,98.981,0.00286607,0.34247,20.6419,64.9172,-0.0657286,0.0,0.0
363,90.5,86.7739,91.9336,123.73,98.2375,99.6722,0.00280928,0.342552,20.6422,64.7871,-0.131943,0.0,0.0
366,91.25,86.177,91.2637,119.719,98.2279,99.2516,0.00275643,0.342819,20.6423,64.687,-0.0943494,0.0,0.0
369,92,86.2074,91.2398,118.379,98.2219,99.6078,0.00272681,0.343229,20.6425,64.6269,-0.127504,0.0,0.0
372,92.75,86.2778,91.4466,118.543,98.2419,99.5759,0.00271432,0.343213,20.6425,64.5168,-0.122733,0.0,0.0
375,93.5,86.2533,91.1347,124.749,98.1996,99.3719,0.00273426,0.343062,20.6426,64.4167,-0.107993,0.0,0.0
378,94.25,86.3699,91.6662,123.168,98.1868,99.5051,0.00277684,0.343035,20.6427,64.3367,-0.121375,0.0,0.0
381,95,86.5336,91.0159,119.877,98.1744,99.3052,0.0028308,0.343051,20.6427,64.2666,-0.104218,0.0,0.0
384,95.75,86.0158,91.3724,120.613,98.172,99.5484,0.00288542,0.34316,20.6425,64.1965,-0.126697,0.0,0.0
387,96.5,85.9679,91.2893,123.437,98.1645,100.064,0.00293378,0.343286,20.6417,64.0764,-0.174371,0.0,0.0
390,97.25,86.3003,91.6538,121.352,98.1313,99.1935,0.00297112,0.343641,20.6408,63.9363,-0.0979773,0.0,0.0
393,98,86.6107,91.6854,121.661,98.1122,98.9306,0.00299606,0.344051,20.6401,63.9163,-0.0755961,0.0,0.0
396,98.75,85.7693,91.5161,122.37,98.1058,99.5317,0.00300333,0.344606,20.6387,63.8763,-0.131319,0.0,0.0
399,99.5,85.6615,91.1298,118.575,98.0814,99.5015,0.00300863,0.345658,20.6373,63.7561,-0.13082,0.0,0.0
402,100.25,86.1347,91.1129,120.613,98.0834,98.9715,0.00297798,0.346796,20.6358,63.6861,-0.082031,0.0,0.0
405,101,86.1671,91.6805,125.069,98.0758,99.4254,0.00293873,0.347969,20.6342,63.586,-0.124376,0.0,0.0
408,101.75,86.1703,91.5297,121.913,98.0591,98.8491,0.00292288,0.349144,20.6334,63.546,-0.0730226,0.0,0.0
411,102.5,86.1838,91.508,118.942,98.0491,99.6844,0.00291596,0.350891,20.6322,63.4559,-0.150526,0.0,0.0
414,103.25,86.1978,91.5601,120.357,98.0323,99.371,0.0029304,0.352495,20.6306,63.3458,-0.123427,0.0,0.0
417,104,86.2884,92.0143,119.312,98.0239,99.6614,0.00295365,0.354694,20.6291,63.2557,-0.150764,0.0,0.0
420,104.75,86.2635,91.4895,119.504,98.0091,98.165,0.00297442,0.355491,20.6277,63.1456,-0.0144637,0.0,0.0
423,105.5,86.7061,91.5784,122.015,98.0179,98.9774,0.00299119,0.357331,20.6255,63.1056,-0.0886468,0.0,0.0
426,106.25,86.1168,91.1888,118.92,97.9828,98.5829,0.00300523,0.359066,20.623,63.0255,-0.0555683,0.0,0.0
429,107,86.5501,91.4914,122.144,97.968,98.6924,0.0030148,0.361427,20.6208,62.8954,-0.0670356,0.0,0.0
432,107.75,86.8034,92.2021,118.193,97.9688,98.4411,0.00302062,0.363869,20.6172,62.8153,-0.0437628,0.0,0.0
435,108.5,86.2636,91.4192,120.679,97.9557,98.3209,0.00301215,0.36659,20.6134,62.7352,-0.0338649,0.0,0.0
438,109.25,86.7166,92.0244,121.223,97.9365,98.5892,0.00300725,0.368975,20.6095,62.6051,-0.0604524,0.0,0.0
441,110,86.769,91.5915,117.668,97.9285,98.3267,0.00301361,0.372011,20.6059,62.485,-0.0369296,0.0,0.0
444,110.75,86.7599,91.8874,119.654,97.9137,98.7095,0.0030343,0.375275,20.6013,62.3749,-0.0736585,0.0,0.0
447,111.5,87.0345,91.9976,122.353,97.9025,98.8391,0.00309302,0.378102,20.5962,62.3949,-0.0866457,0.0,0.0
450,112.25,86.8679,91.6756,118.491,97.8966,98.3015,0.00317412,0.381568,20.5913,62.2949,-0.0375641,0.0,0.0
453,113,87.1784,92.6239,123.04,97.8934,98.3407,0.00324956,0.385066,20.5869,62.2248,-0.041487,0.0,0.0
456,113.75,86.9459,91.9838,119.808,97.8858,97.9588,0.00335311,0.388396,20.5832,62.1147,-0.00678658,0.0,0.0
459,114.5,86.8568,92.0267,116.663,97.8758,98.6631,0.00344929,0.39145,20.5798,62.1047,-0.0729072,0.0,0.0
462,115.25,86.9605,92.2506,117.869,97.8706,99.0107,0.00353582,0.395019,20.5759,61.9846,-0.105399,0.0,0.0
465,116,87.4523,92.2788,114.387,97.8734,97.9827,0.00359823,0.398882,20.5716,61.8945,-0.0101549,0.0,0.0
468,116.75,87.2344,92.4965,119.274,97.8602,97.9498,0.00364257,0.402236,20.5668,61.7744,-0.00832616,0.0,0.0
471,117.5,87.7413,92.8463,116.163,97.8626,97.7791,0.00368037,0.406265,20.5608,61.7344,0.00776631,0.0,0.0
474,118.25,87.5433,92.4021,116.919,97.8582,97.5099,0.00371704,0.409877,20.5551,61.6443,0.0324547,0.0,0.0
477,119,87.8129,92.7786,119.303,97.8506,98.1781,0.00375402,0.414403,20.5497,61.5142,-0.0304035,0.0,0.0
480,119.75,88.2211,92.8773,120.636,97.855,97.5328,0.00378533,0.418572,20.5445,61.4141,0.0300146,0.0,0.0
483,120.5,88.3371,92.9052,121.562,97.8479,98.1218,0.00382736,0.42246,20.5401,61.364,-0.0254441,0.0,0.0
486,121.25,88.3121,92.9785,117.833,97.8491,97.2374,0.00387022,0.426112,20.5356,61.2039,0.0570623,0.0,0.0
489,122,88.3865,93.2655,121.119,97.8315,96.5818,0.00390838,0.430049,20.5318,61.1338,0.116995,0.0,0.0
492,122.75,88.6638,93.2362,117.264,97.8327,97.0127,0.00393802,0.433959,20.5272,60.9737,0.076593,0.0,0.0
495,123.5,88.6573,93.4043,120.478,97.8351,97.2208,0.00396732,0.437253,20.523,60.9737,0.057321,0.0,0.0
498,124.25,88.8263,93.3855,120.074,97.8283,96.7551,0.00399195,0.441425,20.5189,60.8936,0.100378,0.0,0.0
501,125,88.9232,93.6364,115.748,97.8191,96.906,0.00402339,0.444971,20.5138,60.7635,0.0853465,0.0,0.0
504,125.75,89.5212,93.7254,115.89,97.8067,95.6334,0.00406937,0.448418,20.5086,60.6534,0.20449,0.0,0.0
507,126.5,89.1766,93.9337,117.652,97.8035,96.1914,0.0041358,0.451991,20.5039,60.5533,0.151256,0.0,0.0
510,127.25,89.4906,94.2052,119.296,97.8031,96.539,0.00418423,0.454595,20.5001,60.4833,0.118391,0.0,0.0
513,128,89.7972,94.0087,117.304,97.79,95.7902,0.00423782,0.45805,20.496,60.3832,0.188031,0.0,0.0
516,128.75,89.7902,94.3639,122.083,97.7792,95.9392,0.00426791,0.46128,20.4918,60.2831,0.172879,0.0,0.0
519,129.5,89.8637,94.3963,118.304,97.7728,96.0756,0.00428602,0.463937,20.4875,60.193,0.15935,0.0,0.0
522,130.25,90.3206,94.4177,118.881,97.7672,95.3705,0.00426565,0.466753,20.4834,60.1129,0.225871,0.0,0.0
525,131,90.2816,95.0005,117.823,97.7536,95.4812,0.00424032,0.469179,20.4797,59.9928,0.214044,0.0,0.0
528,131.75,90.4901,95.1049,115.676,97.7576,94.7238,0.00420365,0.471471,20.4763,59.8927,0.286891,0.0,0.0
531,132.5,90.6895,95.3307,118.966,97.7405,95.6713,0.00416423,0.473344,20.473,59.7927,0.194723,0.0,0.0
534,133.25,90.8146,95.3267,115.105,97.7544,94.0497,0.00414463,0.475663,20.4687,59.6826,0.351588,0.0,0.0
537,134,90.7888,95.3361,117.34,97.7536,93.0757,0.00415598,0.476718,20.4656,59.6025,0.44625,0.0,0.0
540,134.75,91.172,96.1094,116.457,97.7333,92.7389,0.00420808,0.478277,20.4633,59.5524,0.477346,0.0,0.0
543,135.5,91.202,95.2947,117.805,97.7297,92.7979,0.0042974,0.479395,20.4614,59.4223,0.471225,0.0,0.0
546,136.25,91.3631,95.4807,117.367,97.7397,92.0243,0.00438439,0.480202,20.4596,59.3923,0.548338,0.0,0.0
549,137,91.7243,95.7422,117.627,97.7424,92.2814,0.00448813,0.480948,20.4583,59.2822,0.523207,0.0,0.0
552,137.75,91.547,95.9565,118.059,97.7273,91.5695,0.00456889,0.481492,20.4562,59.1521,0.592274,0.0,0.0
555,138.5,91.5671,96.069,120.958,97.7221,91.868,0.00463063,0.483335,20.4527,59.092,0.562168,0.0,0.0
558,139.25,91.3027,95.9849,113.924,97.7157,92.5124,0.00467679,0.485786,20.4488,58.9819,0.497963,0.0,0.0
561,140,91.7766,96.2829,119.574,97.7173,92.4872,0.00471045,0.488013,20.4456,58.9219,0.500593,0.0,0.0
564,140.75,91.8788,96.6916,114.432,97.6961,91.3677,0.00473499,0.490387,20.4424,58.8418,0.609443,0.0,0.0
567,141.5,92.3591,96.4005,113.484,97.6973,90.6563,0.00475544,0.492488,20.4396,58.7217,0.680696,0.0,0.0
570,142.25,92.4209,96.2747,120.058,97.6917,92.172,0.00477687,0.494187,20.4374,58.6416,0.529281,0.0,0.0
573,143,92.2178,96.6464,117.027,97.6969,90.9886,0.00480174,0.49571,20.4358,58.5616,0.647361,0.0,0.0
576,143.75,92.0909,96.738,122.727,97.6997,91.1773,0.00484188,0.49764,20.4333,58.4415,0.62877,0.0,0.0
579,144.5,92.4526,96.5043,118.788,97.6854,90.5946,0.00488266,0.499397,20.4297,58.3314,0.685775,0.0,0.0
582,145.25,92.2159,97.1931,117.5,97.6782,90.0213,0.00493207,0.502304,20.4251,58.2513,0.74287,0.0,0.0
585,146,92.5455,97.7413,112.72,97.6866,89.9497,0.00500126,0.504848,20.4209,58.1712,0.750892,0.0,0.0
588,146.75,92.6717,97.2412,118.874,97.6818,90.1366,0.00505644,0.507429,20.4174,58.0611,0.73156,0.0,0.0
591,147.5,93.1953,97.2648,115.918,97.6794,89.082,0.00510479,0.509981,20.4148,57.961,0.838438,0.0,0.0
594,148.25,93.3088,97.5396,119.891,97.683,89.8547,0.00514003,0.512504,20.4126,57.8509,0.760175,0.0,0.0
597,149,93.1768,97.2756,119.354,97.6881,90.4171,0.00516314,0.514626,20.4107,57.881,0.703875,0.0,0.0
600,149.75,93.504,97.8478,116.267,97.6893,90.568,0.00517957,0.517358,20.4088,57.7408,0.688816,0.0,0.0
603,150.5,93.3665,98.1356,116.824,97.6786,90.5563,0.00519271,0.51935,20.4068,57.6508,0.688988,0.0,0.0
606,151.25,93.9141,98.0072,115.018,97.6794,89.4332,0.00519494,0.522224,20.404,57.4706,0.802628,0.0,0.0
609,152,93.8254,98.1283,117.954,97.6694,89.6462,0.0051927,0.524926,20.4011,57.3405,0.780051,0.0,0.0
612,152.75,93.8115,98.396,120.409,97.673,88.9104,0.00519213,0.527709,20.3986,57.2404,0.855387,0.0,0.0
615,153.5,93.7805,98.7772,115.447,97.6634,90.1501,0.00519636,0.529853,20.3968,57.1703,0.728485,0.0,0.0
618,154.25,94.0831,98.6647,116.643,97.663,90.3627,0.00523067,0.531574,20.396,57.0202,0.707018,0.0,0.0
621,155,93.798,98.538,117.398,97.6542,92.0788,0.00525569,0.533018,20.3955,56.9502,0.534993,0.0,0.0
624,155.75,94.2869,98.5972,114.942,97.6542,90.8823,0.00536406,0.534098,20.3952,56.8401,0.654015,0.0,0.0
627,156.5,93.6924,98.3062,115.944,97.6402,91.891,0.00550895,0.534774,20.3952,56.73,0.552268,0.0,0.0
630,157.25,93.869,98.9317,124.219,97.6347,92.1945,0.00564267,0.535079,20.3956,56.6399,0.521739,0.0,0.0
633,158,94.322,98.9932,118.551,97.6406,90.6747,0.00583058,0.535301,20.3959,56.5798,0.67356,0.0,0.0
636,158.75,94.1617,99.0983,115.184,97.6442,91.4555,0.0060207,0.535463,20.3961,56.4697,0.595865,0.0,0.0
639,159.5,94.0701,99.3471,117.703,97.6275,90.1519,0.00620722,0.535527,20.3963,56.3396,0.724953,0.0,0.0
642,160.25,94.2573,98.9446,116.407,97.6271,90.0456,0.0063864,0.535345,20.3964,56.2195,0.73565,0.0,0.0
645,161,94.05,99.283,116.859,97.6358,91.3907,0.0065469,0.535114,20.3974,56.1895,0.601539,0.0,0.0
648,161.75,94.1411,99.4548,118.52,97.637,90.6004,0.00667664,0.534025,20.3997,56.0894,0.680686,0.0,0.0
651,162.5,94.0118,99.3387,122.218,97.6211,88.4574,0.00678032,0.531885,20.4036,55.9493,0.897035,0.0,0.0
654,163.25,94.3776,99.3863,120.391,97.6195,90.7094,0.00685458,0.528749,20.4089,55.8692,0.668109,0.0,0.0
657,164,94.041,99.2094,117.674,97.6143,89.5962,0.0069065,0.52475,20.4151,55.7491,0.779991,0.0,0.0
660,164.75,94.4966,99.4452,120.474,97.6131,89.9029,0.00692581,0.520262,20.4205,55.7191,0.748785,0.0,0.0
663,165.5,93.5714,99.0404,118.321,97.6019,89.3792,0.00691782,0.516319,20.4259,55.5589,0.800909,0.0,0.0
666,166.25,94.0485,99.55,118.981,97.5807,89.6152,0.00690258,0.511106,20.4319,55.4288,0.774942,0.0,0.0
669,167,93.5623,99.2132,116.286,97.5804,88.8663,0.00683026,0.505251,20.4394,55.3688,0.851271,0.0,0.0
672,167.75,93.6029,99.2553,120.78,97.5776,90.3383,0.00672182,0.498716,20.4462,55.3187,0.701502,0.0,0.0
675,168.5,93.7643,99.3434,118.44,97.5696,89.0829,0.00661901,0.491571,20.4566,55.2286,0.828112,0.0,0.0
678,169.25,93.5953,98.9103,122.517,97.5552,89.8115,0.00644963,0.482007,20.4661,55.1486,0.752644,0.0,0.0
681,170,93.6294,99.1717,119.431,97.5512,90.0164,0.00625125,0.472709,20.4762,55.0785,0.731536,0.0,0.0
684,170.75,93.0559,99.2934,122.249,97.5428,89.7241,0.00599254,0.461956,20.4835,55.0385,0.760346,0.0,0.0
687,171.5,93.2778,99.1882,122.174,97.5304,92.5669,0.00579237,0.451221,20.5,54.9684,0.475338,0.0,0.0
690,172.25,93.1735,98.8388,118.713,97.5145,91.759,0.00561044,0.438443,20.5128,54.8883,0.553614,0.0,0.0
693,173,92.8217,98.5294,119.594,97.5089,92.0175,0.00528856,0.423148,20.5321,54.8283,0.527495,0.0,0.0
696,173.75,92.297,98.5884,123.625,97.5077,91.8662,0.0050063,0.409449,20.5538,54.8183,0.542358,0.0,0.0
699,174.5,92.5638,98.5076,125.119,97.4985,93.0555,0.00462895,0.383812,20.5785,54.7582,0.42445,0.0,0.0
702,175.25,92.2175,98.412,120.5,97.4789,94.6063,0.00422642,0.369101,20.6109,54.7182,0.27221,0.0,0.0
705,176,91.6674,98.1346,123.721,97.4805,96.657,0.00393299,0.347624,20.6391,54.6481,0.0772094,0.0,0.0
708,176.75,91.1886,97.9505,126.004,97.469,97.6148,0.00358831,0.325165,20.6672,54.6381,-0.0136043,0.0,0.0
711,177.5,91.022,98.1139,126.716,97.4618,98.4325,0.00331764,0.302873,20.6909,54.6481,-0.0901938,0.0,0.0
714,178.25,90.6122,97.4854,131.122,97.447,99.8573,0.00308714,0.281459,20.717,54.6481,-0.222351,0.0,0.0
717,179,89.6505,97.0106,130.445,97.4418,100.132,0.00289752,0.260306,20.7419,54.5881,-0.247875,0.0,0.0
720,179.75,88.9763,96.4582,131.104,97.437,100.074,0.00273104,0.242523,20.765,54.5781,-0.243042,0.0,0.0
723,180.5,88.181,96.1337,127.996,97.4406,99.7524,0.00259354,0.222582,20.7862,54.558,-0.213381,0.0,0.0
726,181.25,88.0316,96.3744,131.201,97.4195,100.65,0.0024796,0.206468,20.8068,54.488,-0.296905,0.0,0.0
729,182,87.5671,95.7048,129.302,97.4103,100.411,0.00238512,0.192027,20.8236,54.468,-0.276118,0.0,0.0
732,182.75,86.852,95.3023,126.731,97.4055,100.426,0.00231138,0.179124,20.8366,54.458,-0.277953,0.0,0.0
735,183.5,86.6177,94.4375,129.88,97.4107,100.446,0.00224858,0.168399,20.8474,54.538,-0.279263,0.0,0.0
738,184.25,86.0603,94.5711,128.706,97.3891,100.965,0.002199,0.159506,20.8563,54.508,-0.328155,0.0,0.0
741,185,85.3532,94.4613,132.437,97.3927,101.031,0.00215722,0.152146,20.8636,54.498,-0.333743,0.0,0.0
744,185.75,85.3185,93.5497,129.445,97.3827,99.6574,0.00211992,0.145867,20.8701,54.478,-0.210118,0.0,0.0
747,186.5,84.4984,93.2729,128.039,97.3855,100.802,0.00208731,0.140901,20.8754,54.508,-0.313746,0.0,0.0
750,187.25,83.8991,92.7446,127.236,97.3708,99.9829,0.00206353,0.136421,20.8794,54.468,-0.240917,0.0,0.0
753,188,83.5581,92.3849,130.098,97.3755,99.4813,0.0020462,0.132818,20.8829,54.508,-0.194696,0.0,0.0
756,188.75,83.3908,92.1812,127.128,97.3496,101.03,0.00205346,0.129854,20.8858,54.468,-0.337692,0.0,0.0
759,189.5,82.8052,92.0084,129.56,97.3532,101.043,0.00205874,0.127363,20.8882,54.458,-0.338532,0.0,0.0
762,190.25,82.765,91.4638,128.815,97.3408,99.9951,0.00207032,0.125046,20.8897,54.3979,-0.244822,0.0,0.0
765,191,81.7871,91.1473,127.939,97.3276,100.404,0.0020797,0.123123,20.8917,54.3979,-0.283148,0.0,0.0
768,191.75,81.5773,90.8543,128.154,97.316,100.565,0.00207701,0.12162,20.8932,54.4179,-0.298872,0.0,0.0
771,192.5,81.4623,90.3627,127.29,97.3165,100.109,0.00207049,0.120335,20.8947,54.458,-0.257503,0.0,0.0
774,193.25,81.2987,89.8855,131.284,97.3137,100.169,0.00207478,0.119621,20.896,54.458,-0.263208,0.0,0.0
777,194,80.7378,89.7171,128.976,97.2929,100.834,0.00207791,0.118693,20.8976,54.4379,-0.325291,0.0,0.0
780,194.75,80.4163,88.9753,129.584,97.2897,100.501,0.00210302,0.117854,20.8987,54.3979,-0.295548,0.0,0.0
783,195.5,80.338,89.2256,128.742,97.2893,100.619,0.00213707,0.11709,20.8994,54.4179,-0.306221,0.0,0.0
786,196.25,79.8227,88.8009,127.987,97.2925,100.024,0.00217217,0.116389,20.8999,54.3879,-0.251962,0.0,0.0
789,197,79.8046,88.5862,127.577,97.2713,99.0013,0.00219269,0.115785,20.9002,54.3479,-0.160423,0.0,0.0
792,197.75,79.0724,87.6957,133.291,97.2713,99.9271,0.00220548,0.115187,20.9005,54.3679,-0.24513,0.0,0.0
795,198.5,79.0913,87.4946,133.935,97.2693,99.8105,0.00220756,0.114688,20.9011,54.4179,-0.234689,0.0,0.0
798,199.25,77.2306,86.5199,128.33,97.2821,100.89,0.0022205,0.114256,20.9018,54.458,-0.331378,0.0,0.0
801,200,76.8163,85.851,129.717,97.2614,100.702,0.0022348,0.113822,20.9023,54.3779,-0.316327,0.0,0.0
804,200.75,75.9443,85.6987,130.471,97.261,100.266,0.00227964,0.113235,20.9026,54.3379,-0.276887,0.0,0.0
807,201.5,75.7198,85.4865,133.136,97.2442,100.105,0.00231105,0.112846,20.9029,54.3479,-0.263853,0.0,0.0
810,202.25,76.1426,85.1467,130.047,97.2538,99.8348,0.00232205,0.112628,20.903,54.3579,-0.238362,0.0,0.0
813,203,75.6536,84.7001,132.527,97.2342,100.091,0.00231065,0.112732,20.9025,54.2778,-0.263478,0.0,0.0
816,203.75,75.341,84.1257,129.088,97.2278,100.251,0.00226681,0.112973,20.9022,54.2878,-0.27864,0.0,0.0
819,204.5,75.161,83.9521,132.251,97.2242,100.673,0.00221436,0.113241,20.9019,54.2878,-0.317237,0.0,0.0
822,205.25,75.0858,84.4055,129.329,97.2322,99.0891,0.002167,0.113395,20.9017,54.2978,-0.172152,0.0,0.0
825,206,74.9428,83.6743,128.578,97.221,100.625,0.00213971,0.113507,20.9016,54.3078,-0.313139,0.0,0.0
828,206.75,74.4546,83.06,130.187,97.2075,100.486,0.00211982,0.113589,20.9017,54.2778,-0.301858,0.0,0.0
831,207.5,74.3737,83.0571,128.119,97.2083,99.973,0.00210198,0.113736,20.9022,54.2878,-0.255215,0.0,0.0
834,208.25,74.0504,82.5366,130.021,97.2035,99.7798,0.00208327,0.113822,20.9026,54.3178,-0.238062,0.0,0.0
837,209,74.2081,82.1051,133.353,97.2138,99.8627,0.00206582,0.11376,20.9028,54.2878,-0.244644,0.0,0.0
840,209.75,74.0251,82.4984,135.197,97.1843,100.131,0.00205149,0.113544,20.903,54.2478,-0.271794,0.0,0.0
843,210.5,73.4851,82.3652,128.42,97.1891,99.7843,0.00204904,0.113241,20.9034,54.2278,-0.239818,0.0,0.0
846,211.25,73.6752,81.5548,131.262,97.1799,100.145,0.00206362,0.112927,20.9041,54.2378,-0.273473,0.0,0.0
849,212,73.3316,82.0155,126.61,97.1731,100.712,0.00207882,0.112645,20.9046,54.1877,-0.325562,0.0,0.0
852,212.75,73.393,81.6215,127.76,97.1623,100.385,0.00208609,0.11241,20.9049,54.1577,-0.296984,0.0,0.0
855,213.5,72.8366,80.8717,131.538,97.1707,101.089,0.00208977,0.112227,20.9052,54.1677,-0.35974,0.0,0.0
858,214.25,72.3499,81.3631,131.749,97.1671,100.301,0.00209245,0.112108,20.9054,54.1777,-0.288899,0.0,0.0
861,215,72.0869,80.3372,128.228,97.1775,99.8069,0.00209983,0.112096,20.9051,54.1877,-0.242955,0.0,0.0
864,215.75,72.3362,80.3905,131.453,97.1603,100.112,0.00210521,0.112206,20.9046,54.0976,-0.272318,0.0,0.0
867,216.5,72.0556,80.4326,129.077,97.1476,100.09,0.00210914,0.11237,20.9043,54.1377,-0.271509,0.0,0.0
870,217.25,71.7342,80.4222,127.952,97.1512,100.125,0.002112,0.112445,20.9041,54.0876,-0.274405,0.0,0.0
873,218,71.86,80.048,128.866,97.1603,100.276,0.00210323,0.112474,20.904,54.1277,-0.287206,0.0,0.0
876,218.75,71.6487,79.651,130.51,97.1364,100.332,0.00209937,0.112481,20.9039,54.0976,-0.294555,0.0,0.0
879,219.5,71.4391,79.4332,128.651,97.1308,100.426,0.00209764,0.112487,20.9038,54.0676,-0.303571,0.0,0.0
882,220.25,71.369,79.2283,127.034,97.154,100.322,0.00211266,0.112462,20.9037,54.0576,-0.292012,0.0,0.0
885,221,71.2638,79.1396,132.417,97.154,99.9482,0.00213029,0.112431,20.9037,54.1077,-0.258045,0.0,0.0
888,221.75,71.1998,78.7746,128.708,97.14,100,0.00215456,0.112409,20.9036,54.0276,-0.264067,0.0,0.0
891,222.5,70.6933,78.6211,131.82,97.1244,100.385,0.00220484,0.112348,20.9036,54.0476,-0.300496,0.0,0.0
894,223.25,71.1249,78.2135,128.406,97.1392,100.992,0.00227773,0.112286,20.904,54.0176,-0.353974,0.0,0.0
897,224,71.112,77.7183,126.648,97.1376,100.428,0.00233086,0.112261,20.9045,54.0776,-0.303179,0.0,0.0
900,224.75,70.5748,78.3267,129.286,97.1212,100.1,0.00240404,0.11217,20.9053,54.0476,-0.274919,0.0,0.0
903,225.5,70.276,78.1378,130.469,97.1228,100.326,0.00245738,0.111981,20.9061,54.0576,-0.295256,0.0,0.0
906,226.25,70.3324,77.5059,133.107,97.1164,100.508,0.00249025,0.111685,20.9067,54.0276,-0.312422,0.0,0.0
909,227,70.1467,77.6929,130.8,97.1328,100.185,0.00250392,0.111303,20.9071,54.0676,-0.281526,0.0,0.0
912,227.75,70.1667,77.685,131.344,97.1152,100.28,0.00250625,0.111024,20.9074,54.0376,-0.29184,0.0,0.0
915,228.5,70.3016,77.4207,129.343,97.1112,100.242,0.00250537,0.110987,20.9076,54.0476,-0.288781,0.0,0.0
918,229.25,69.6445,77.3057,131.107,97.1072,99.7515,0.00250588,0.11115,20.9071,54.0576,-0.244487,0.0,0.0
921,230,69.7633,77.0432,129.924,97.1136,100.58,0.00251895,0.11145,20.9066,54.0876,-0.319124,0.0,0.0
924,230.75,69.995,76.4136,130.385,97.1017,100.073,0.0025339,0.111839,20.9057,54.0376,-0.274295,0.0,0.0
927,231.5,69.581,76.1379,129.03,97.1044,100.548,0.00254106,0.112373,20.9052,54.0176,-0.317132,0.0,0.0
930,232.25,69.7878,76.8322,127.379,97.1021,99.6718,0.00253131,0.112747,20.905,53.9675,-0.237699,0.0,0.0
933,233,69.4555,76.4203,127.145,97.1136,99.901,0.00250132,0.113014,20.9048,53.9875,-0.257516,0.0,0.0
936,233.75,69.1567,76.2329,131.671,97.1084,100.317,0.00244867,0.113122,20.9052,54.0476,-0.295827,0.0,0.0
939,234.5,69.4401,76.4417,133.06,97.0961,100.367,0.00240141,0.113164,20.9058,53.9875,-0.301519,0.0,0.0
942,235.25,69.3971,75.9252,128.667,97.0985,100.276,0.00236049,0.113005,20.9067,53.9375,-0.293044,0.0,0.0
945,236,69.3561,76.0019,135.008,97.0929,100.382,0.00232609,0.112762,20.9073,54.0276,-0.303166,0.0,0.0
948,236.75,69.2026,75.8211,132.056,97.1024,99.4002,0.0022974,0.112506,20.9078,54.0376,-0.212836,0.0,0.0
951,237.5,68.7337,75.3053,129.152,97.0973,100.423,0.00227648,0.112174,20.9082,53.9375,-0.306469,0.0,0.0
954,238.25,69.1565,75.5206,127.452,97.1084,100.603,0.00226123,0.111888,20.9084,53.9275,-0.32177,0.0,0.0
957,239,68.5398,75.7405,132.165,97.0925,99.4727,0.00225138,0.111617,20.9086,53.9475,-0.220407,0.0,0.0
960,239.75,69.0431,74.941,129.911,97.11,99.8046,0.00224474,0.111401,20.9092,53.9775,-0.249071,0.0,0.0
963,240.5,68.243,74.9325,128.742,97.0973,99.7416,0.00225056,0.111243,20.9098,53.9175,-0.244519,0.0,0.0
966,241.25,68.6253,74.8471,126.626,97.0917,99.8744,0.00227301,0.111128,20.9099,53.9175,-0.257154,0.0,0.0
969,242,68.5389,74.7638,126.207,97.1012,99.9091,0.00231351,0.110815,20.9099,53.8975,-0.259415,0.0,0.0
972,242.75,68.8604,74.8929,128.623,97.1084,100.805,0.00236135,0.110588,20.9097,53.9575,-0.33996,0.0,0.0
975,243.5,68.532,74.782,129.527,97.0993,100.126,0.00241195,0.110505,20.9096,53.9175,-0.27935,0.0,0.0
978,244.25,67.775,74.5929,128.955,97.1012,100.056,0.00245227,0.110647,20.9089,53.9075,-0.272817,0.0,0.0
981,245,67.8626,74.4357,131.063,97.1052,100.067,0.002481,0.110837,20.9084,53.8774,-0.273426,0.0,0.0
984,245.75,67.8535,74.6006,131.357,97.12,100.775,0.0025008,0.111164,20.908,53.9475,-0.336231,0.0,0.0
987,246.5,68.176,74.2492,127.632,97.1064,99.8127,0.00250979,0.111372,20.9077,53.9075,-0.250147,0.0,0.0
990,247.25,68.0567,73.7707,129.223,97.1076,99.6146,0.00251501,0.111466,20.9075,53.8674,-0.231952,0.0,0.0
993,248,68.1738,73.5534,129.091,97.1244,99.4709,0.00251653,0.111455,20.9074,53.8274,-0.217248,0.0,0.0
996,248.75,67.7305,74.0481,131.869,97.1104,100.671,0.00251763,0.111462,20.9073,53.8875,-0.32769,0.0,0.0
999,249.5,68.1391,73.5319,135.998,97.1152,100.236,0.00251335,0.111473,20.9072,53.8774,-0.287835,0.0,0.0
1002,250.25,67.9235,73.6293,131.627,97.1156,99.5385,0.00250272,0.111627,20.9071,53.8074,-0.22425,0.0,0.0
1005,251,67.7819,73.4939,129.813,97.0989,100.127,0.00248582,0.111754,20.9071,53.8274,-0.27943,0.0,0.0
1008,251.75,67.6995,73.2249,133.057,97.1184,99.5097,0.0024735,0.111829,20.9071,53.8574,-0.221351,0.0,0.0
1011,252.5,68.1261,72.9269,131.633,97.1172,100.145,0.00246452,0.111845,20.907,53.8574,-0.279426,0.0,0.0
1014,253.25,67.6346,73.3767,127.451,97.1132,99.1733,0.00248697,0.111732,20.9075,53.8274,-0.191024,0.0,0.0
1017,254,67.4604,73.1736,126.348,97.1104,99.9613,0.00252113,0.111595,20.908,53.8274,-0.263311,0.0,0.0
1020,254.75,67.5608,73.0881,130.95,97.1292,100.629,0.00256032,0.111404,20.9083,53.7573,-0.322145,0.0,0.0
1023,255.5,67.5708,72.8166,132.076,97.1344,99.7762,0.00260034,0.111218,20.9086,53.8074,-0.244202,0.0,0.0
1026,256.25,67.4583,73.0787,129.144,97.1164,100.159,0.00264402,0.111004,20.9086,53.7273,-0.280729,0.0,0.0
1029,257,67.5524,72.7025,131.81,97.1204,99.3489,0.00268096,0.11091,20.9081,53.7473,-0.206452,0.0,0.0
1032,257.75,67.4076,72.6849,128.522,97.1292,100.434,0.00271006,0.110915,20.9078,53.7573,-0.304455,0.0,0.0
1035,258.5,67.6342,72.6618,128.715,97.1432,100.221,0.00273127,0.111003,20.9076,53.7974,-0.283826,0.0,0.0
1038,259.25,67.4106,72.2635,130.12,97.1328,99.5214,0.00274272,0.11116,20.9074,53.7573,-0.221076,0.0,0.0
1041,260,67.1367,71.9578,131.23,97.1352,100.577,0.00274419,0.111315,20.9073,53.6472,-0.316859,0.0,0.0
1044,260.75,67.132,72.0919,129.33,97.1376,100.287,0.00272712,0.111398,20.9072,53.6873,-0.290399,0.0,0.0
1047,261.5,67.2053,71.9542,127.315,97.1432,100.218,0.00270069,0.111406,20.9072,53.7373,-0.28354,0.0,0.0
1050,262.25,67.0239,71.8558,131.782,97.142,100.781,0.00267545,0.111411,20.9071,53.7173,-0.334703,0.0,0.0
1053,263,67.093,72.2666,131.413,97.1524,99.4016,0.00265706,0.111459,20.9071,53.7273,-0.208284,0.0,0.0
1056,263.75,66.9268,72.0066,128.328,97.1496,101.08,0.00264365,0.111513,20.9075,53.7073,-0.360911,0.0,0.0
1059,264.5,67.0121,72.0945,131.045,97.1552,99.9046,0.00264023,0.111531,20.9081,53.7273,-0.253955,0.0,0.0
1062,265.25,66.4372,72.3941,131.299,97.1587,99.656,0.00264045,0.111544,20.9085,53.7273,-0.230948,0.0,0.0
1065,266,66.5168,71.931,127.77,97.1528,100.045,0.00264824,0.111533,20.9088,53.6973,-0.266968,0.0,0.0
1068,266.75,66.7617,71.6975,131.661,97.1563,100.24,0.00266119,0.111448,20.909,53.6873,-0.284309,0.0,0.0
1071,267.5,66.8036,71.6243,131.782,97.1607,100.317,0.0026775,0.111255,20.9091,53.7073,-0.290926,0.0,0.0
1074,268.25,66.8171,71.3531,131.247,97.1707,100.298,0.00268213,0.111158,20.9097,53.7073,-0.288235,0.0,0.0
1077,269,66.9536,71.2121,134.458,97.1575,101.103,0.00266897,0.111106,20.9103,53.6573,-0.36227,0.0,0.0
1080,269.75,66.9405,71.0249,128.587,97.1835,100.476,0.0026423,0.111089,20.9107,53.6372,-0.303244,0.0,0.0
1083,270.5,67.0454,71.6707,127.729,97.1967,100.579,0.0026057,0.111032,20.911,53.6573,-0.311305,0.0,0.0
1086,271.25,66.6433,71.2476,129.814,97.1995,101.002,0.00255364,0.110957,20.9112,53.6873,-0.34922,0.0,0.0
1089,272,66.5508,71.3899,129.252,97.1811,100.756,0.00251035,0.110876,20.9114,53.6272,-0.32876,0.0,0.0
1092,272.75,66.577,70.4617,128.786,97.1911,99.6164,0.00246964,0.110755,20.9115,53.6272,-0.224301,0.0,0.0
1095,273.5,66.6276,71.0329,130.597,97.2194,100.078,0.00245404,0.110579,20.9116,53.6573,-0.263755,0.0,0.0
1098,274.25,65.9897,70.8024,131.514,97.221,100.262,0.00246674,0.110413,20.9123,53.6973,-0.280255,0.0,0.0
1101,275,66.6171,70.7392,128.473,97.2234,100.313,0.00252496,0.110188,20.913,53.6372,-0.28469,0.0,0.0
1104,275.75,66.5788,70.9104,131.211,97.2198,99.3493,0.00258903,0.110025,20.9136,53.6472,-0.197182,0.0,0.0
1107,276.5,66.1486,70.7367,129.849,97.2366,100.565,0.00265032,0.109928,20.914,53.5872,-0.306264,0.0,0.0
1110,277.25,65.9924,70.6296,131.991,97.2757,101.416,0.00270416,0.109843,20.9143,53.6472,-0.379294,0.0,0.0
1113,278,66.3851,70.5049,134.576,97.259,99.6272,0.00274468,0.109828,20.9142,53.6072,-0.218935,0.0,0.0
1116,278.75,66.2952,70.3841,132.063,97.241,100.508,0.00277477,0.109909,20.9138,53.6072,-0.300676,0.0,0.0
1119,279.5,66.1909,70.7421,129.396,97.2558,100.197,0.00277854,0.110135,20.9135,53.5772,-0.271118,0.0,0.0
1122,280.25,66.119,70.5464,130.333,97.2745,100.413,0.00276476,0.110284,20.9133,53.6272,-0.288932,0.0,0.0
1125,281,65.9723,70.2363,134.613,97.2829,100.081,0.00273896,0.110367,20.9132,53.6072,-0.25806,0.0,0.0
1128,281.75,65.9071,70.2731,129.666,97.2749,100.217,0.00270527,0.110383,20.913,53.5972,-0.271165,0.0,0.0
1131,282.5,65.7248,70.0677,131.034,97.2929,100.105,0.0026662,0.110361,20.913,53.5772,-0.259296,0.0,0.0
1134,283.25,66.266,69.9361,130.959,97.3073,100.137,0.00263772,0.110319,20.9129,53.6072,-0.260899,0.0,0.0
1137,284,65.9758,70.3211,129.426,97.3141,100.57,0.0026077,0.110371,20.9128,53.5872,-0.299506,0.0,0.0
1140,284.75,65.9357,69.8974,127.567,97.3168,100.776,0.00259216,0.110425,20.9128,53.5271,-0.317888,0.0,0.0
1143,285.5,65.7546,70.009,130.379,97.3312,101.174,0.00258355,0.11049,20.9125,53.5372,-0.352379,0.0,0.0
1146,286.25,65.6872,69.772,128.69,97.352,100.099,0.00257727,0.110558,20.9121,53.5972,-0.253198,0.0,0.0
1149,287,66.2601,69.6144,131.362,97.356,100.063,0.00261622,0.110608,20.9117,53.5872,-0.249549,0.0,0.0
1152,287.75,66.092,69.7508,128.125,97.3508,100.224,0.00264715,0.110495,20.9115,53.5171,-0.264725,0.0,0.0
1155,288.5,65.8146,69.9345,129.726,97.3608,100.018,0.00267079,0.110413,20.9113,53.5271,-0.245006,0.0,0.0
1158,289.25,66.0461,69.423,132.029,97.3879,100.779,0.0026717,0.110367,20.9112,53.5672,-0.311488,0.0,0.0
1161,290,65.5702,69.7188,128.243,97.3883,100.481,0.00265964,0.11034,20.9111,53.5772,-0.284494,0.0,0.0
1164,290.75,65.8502,69.3028,126.81,97.3843,99.901,0.00264343,0.110258,20.911,53.5071,-0.232186,0.0,0.0
1167,291.5,65.4842,69.5695,128.129,97.3887,99.6992,0.00262817,0.110155,20.911,53.4871,-0.213381,0.0,0.0
1170,292.25,66.1128,69.9855,127.964,97.4111,101.061,0.00263518,0.109999,20.9112,53.5171,-0.334784,0.0,0.0
1173,293,66.272,69.3532,127.55,97.4191,100.741,0.0026403,0.109781,20.9117,53.5372,-0.305163,0.0,0.0
1176,293.75,65.4673,69.9498,130.988,97.4242,100.253,0.00268757,0.109549,20.9126,53.4571,-0.260436,0.0,0.0
1179,294.5,65.4322,69.3405,132.3,97.4207,100.004,0.00272204,0.109325,20.9134,53.4671,-0.23814,0.0,0.0
1182,295.25,65.9687,69.1199,125.799,97.4334,99.7267,0.00277813,0.109123,20.9139,53.4571,-0.21171,0.0,0.0
1185,296,65.4685,69.4225,127.533,97.4542,100.081,0.00283176,0.109136,20.9145,53.5171,-0.242052,0.0,0.0
1188,296.75,65.6301,69.2042,133.783,97.4474,100.444,0.00288098,0.109214,20.915,53.4371,-0.275629,0.0,0.0
1191,297.5,65.5033,69.0335,129.182,97.4646,100.902,0.00292489,0.109356,20.9154,53.407,-0.315464,0.0,0.0
1194,298.25,65.8139,69.2016,124.381,97.4941,100.418,0.00297326,0.109406,20.9152,53.417,-0.268942,0.0,0.0
1197,299,65.8423,68.7988,130.417,97.4925,100.925,0.00301234,0.10935,20.9149,53.4571,-0.314885,0.0,0.0
1200,299.75,65.4261,69.2045,129.406,97.4877,100.925,0.00304247,0.109247,20.9147,53.377,-0.315373,0.0,0.0
1203,300.5,65.4249,68.9359,130.645,97.4901,100.388,0.00304806,0.10923,20.9145,53.377,-0.266539,0.0,0.0
1206,301.25,65.5704,68.8125,129.86,97.4989,100.125,0.00304195,0.109304,20.9144,53.397,-0.241848,0.0,0.0
1209,302,65.6968,69.3904,129.016,97.5209,100.927,0.00303315,0.109463,20.9143,53.4271,-0.312442,0.0,0.0
1212,302.75,65.4245,68.8647,129.141,97.5276,100.45,0.00302674,0.109696,20.9142,53.407,-0.268709,0.0,0.0
1215,303.5,65.332,68.7769,129.963,97.5448,100.466,0.00303115,0.109915,20.9137,53.377,-0.268534,0.0,0.0
1218,304.25,65.322,69.0002,128.913,97.5624,101.069,0.00303946,0.110096,20.9132,53.377,-0.321309,0.0,0.0
1221,305,65.8126,68.4928,130.649,97.5672,99.9645,0.00304769,0.11014,20.9128,53.407,-0.220897,0.0,0.0
1224,305.75,65.7074,68.5504,131.909,97.5819,100.236,0.00304477,0.110081,20.9125,53.367,-0.244246,0.0,0.0
1227,306.5,65.6345,68.9178,131.299,97.5776,101.463,0.00303884,0.109946,20.9123,53.347,-0.355342,0.0,0.0
1230,307.25,64.8794,68.5055,130.614,97.5999,100.843,,0.109807,,53.3069,-0.297473,0.0,0.0
1233,308,65.4052,68.6019,127.583,97.6123,100.223,,0.10969,,53.327,-0.240189,0.0,0.0
1236,308.75,65.1168,68.7956,130.22,97.6279,100.593,,0.109599,,53.387,-0.272245,0.0,0.0
1239,309.5,65.2542,68.9001,127.437,97.6259,101.196,,0.109489,,53.337,-0.326815,0.0,0.0
1242,310.25,65.4344,68.3591,125.538,97.6398,100.93,,,,53.317,-0.30159,0.0,0.0
1245,311,65.3565,68.6419,127.872,97.6394,100.057,,,,53.337,-0.2226,0.0,0.0
1248,311.75,65.5906,68.611,130.413,97.671,100.288,,,,53.387,-0.240605,0.0,0.0
1251,312.5,65.3233,68.4182,129.531,97.6822,100.592,,,,53.3069,-0.267144,0.0,0.0
1254,313.25,65.2254,67.8624,128.32,97.6754,100.96,,,,53.2969,-0.300998,0.0,0.0
1257,314,65.4384,68.3854,127.746,97.7045,100.672,,,,53.2769,-0.27231,0.0,0.0
1260,314.75,65.0786,68.4457,129.483,97.7205,101.214,,,,53.347,-0.31966,0.0,0.0
1263,315.5,65.1199,68.1901,128.599,97.7253,101.164,,,,53.2969,-0.314718,0.0,0.0
1266,316.25,65.0348,68.1495,132.393,97.7393,101.3,,,,53.2369,-0.325602,0.0,0.0
1269,317,64.7961,68.4622,127.195,97.7512,100.531,,,,53.2669,-0.25521,0.0,0.0
1272,317.75,64.9141,68.5771,129.776,97.7672,101.335,,,,53.2969,-0.326195,0.0,0.0
1273,318,65.232,68.0701,133.434,97.7636,100.847,,,,53.2069,-0.282547,0.0,0.0