File: 01_Data/FDNY_LDF/Cone/FDNY_LDF_Cone_HF25Scan_220909_R2.csv
Names,Time,Stack TC,Smoke TC,Exh Press,Smoke Comp,Smoke Meas,CO Meter,CO2 Meter,O2 Meter,Sample Mass,Ext Coeff,Start Test,Flame Verif
Chan Gain,,500,500,1,1,1,1,1,1,1,1,1.0,1.0
Offset,,0,0,0.142519,0,0,0,0,0,0,0,0.0,0.0
Gain,,1,1,25.011,13.0826,14.7555,1,1,1,1.00088,1.03743,1.0,1.0
Units,sec,C,C,Pa,%,%,%,%,%,g,/m,,
Baseline,,41.7114,42.4472,138.459,100.038,106.564,0.000180927,0.0459546,20.9974,-443.987,-0.575062,,
5,1,40.1645,40.7584,138.206,99.8629,106.291,6.70787e-05,0.0505151,20.9933,81.0314,-0.567719,0.0,0.0
10,2.25,39.9187,40.7373,138.289,99.8605,106.337,6.977e-05,0.0503215,20.9932,80.9413,-0.571869,0.0,0.0
15,3.5,40.0584,40.6872,138.898,99.8469,106.316,0.000106193,0.0499403,20.9936,80.9813,-0.571334,0.0,0.0
20,4.75,40.0539,40.6371,141.874,99.8389,106.107,0.000133581,0.0495448,20.9943,80.8712,-0.55412,0.0,0.0
25,6,40.2393,40.8969,129.757,99.8409,106.082,0.000132076,0.0491273,20.9956,80.8512,-0.551775,0.0,0.0
30,7.25,39.9559,41.0767,139.52,99.8373,105.748,0.000107953,0.048723,20.9964,80.8812,-0.523433,0.0,0.0
35,8.5,40.6625,40.8356,138.434,99.8189,105.607,8.08425e-05,0.0484617,20.997,80.9313,-0.512971,0.0,0.0
40,9.75,39.8222,41.0084,136.289,99.7994,106.035,7.60321e-05,0.0484319,20.9969,80.8412,-0.551504,0.0,0.0
45,11,39.9017,41.0043,135.688,99.7974,105.256,9.32487e-05,0.048479,20.9961,80.8312,-0.484619,0.0,0.0
50,12.25,40.1867,40.6605,144.23,99.811,105.692,0.000114124,0.0485068,20.9953,80.8612,-0.521029,0.0,0.0
55,13.5,40.2345,41.0985,142.267,99.7778,105.637,0.000132501,0.0484472,20.9948,80.8312,-0.519319,0.0,0.0
60,14.75,39.7469,40.9301,138.734,99.7471,105.287,0.000147067,0.0483746,20.9945,80.7711,-0.491932,0.0,0.0
65,16,40.6424,41.0341,140.623,99.7563,105.156,0.000168626,0.0483546,20.9943,80.8212,-0.479762,0.0,0.0
70,17.25,40.1467,40.9637,139.109,99.7531,105.169,0.000193136,0.0482868,20.9942,80.8112,-0.481144,0.0,0.0
75,18.5,40.1485,41.1112,137.476,99.7495,105.126,0.000203213,0.0481221,20.9942,80.7711,-0.477769,0.0,0.0
80,19.75,40.9948,41.2286,137.067,99.7315,104.635,0.000225731,0.0479802,20.9941,80.7311,-0.436781,0.0,0.0
85,21,40.1771,40.6843,141.937,99.7227,104.552,0.000251724,0.0478603,20.9941,80.7611,-0.430374,0.0,0.0
90,22.25,40.4648,40.9158,139.618,99.7108,104.897,0.000271394,0.0477286,20.995,80.7211,-0.461401,0.0,0.0
95,23.5,40.3433,40.8095,136.927,99.7012,104.81,0.000324155,0.0475506,20.9947,80.7311,-0.454772,0.0,0.0
100,24.75,40.8036,41.168,135.602,99.684,104.641,0.00039064,0.0475434,20.9945,80.671,-0.441666,0.0,0.0
105,26,40.5414,41.1608,138.696,99.6792,104.111,0.000446201,0.047559,20.995,80.6911,-0.395854,0.0,0.0
110,27.25,40.7528,40.9138,138.58,99.6589,104.147,0.000490665,0.0475866,20.9946,80.6811,-0.400861,0.0,0.0
115,28.5,40.191,41.1415,142.623,99.6393,104.203,0.000517778,0.0475713,20.9944,80.611,-0.407525,0.0,0.0
120,29.75,40.5478,41.0185,139.073,99.6201,103.728,0.000524807,0.0476384,20.9943,80.621,-0.367692,0.0,0.0
125,31,40.1181,41.2964,138.97,99.6002,103.673,0.000537939,0.0477086,20.9942,80.601,-0.364695,0.0,0.0
130,32.25,40.6123,41.4093,137.965,99.5822,103.647,0.000609431,0.0478514,20.9949,80.581,-0.364084,0.0,0.0
135,33.5,40.4265,41.1522,143.805,99.553,103.598,0.000740452,0.0481362,20.9962,80.5309,-0.362397,0.0,0.0
140,34.75,40.3792,41.2507,136.751,99.5335,103.609,0.000878066,0.0503249,20.9945,80.5109,-0.365214,0.0,0.0
145,36,40.2296,41.2607,137.19,99.5035,103.736,0.000995592,0.0668781,20.97,80.4308,-0.379099,0.0,1.0
150,37.25,41.2366,41.4006,127.821,99.49,104.81,0.00109202,0.102482,20.9348,80.2807,-0.474071,0.0,1.0
155,38.5,42.4705,41.4937,127.239,99.4401,105.496,0.00120513,0.151541,20.8818,80.1005,-0.537989,0.0,1.0
160,39.75,42.0671,41.3242,126.427,99.4305,104.851,0.00135417,0.199777,20.8261,80.1206,-0.48307,0.0,1.0
165,41,42.7563,41.5657,127.813,99.3985,104.709,0.00151137,0.239609,20.7747,79.9904,-0.473636,0.0,0.0
170,42.25,43.7099,42.0674,125.651,99.369,104.398,0.00164976,0.271271,20.7391,79.8803,-0.449258,0.0,0.0
175,43.5,44.5748,42.528,131.06,99.3598,104.104,0.00175772,0.292735,20.7153,79.6702,-0.42447,0.0,0.0
180,44.75,45.7425,43.4391,127.08,99.3379,104.576,0.00184274,0.305716,20.7012,79.6301,-0.46768,0.0,0.0
185,46,46.311,43.7232,128.977,99.3203,104.526,0.00188692,0.312243,20.6928,79.5501,-0.46486,0.0,0.0
190,47.25,46.8493,44.8417,125.974,99.2899,104.372,0.0018881,0.31409,20.6898,79.3499,-0.454302,0.0,0.0
195,48.5,47.8402,45.0643,129.848,99.2828,104.557,0.00185668,0.313234,20.6914,79.2898,-0.471005,0.0,0.0
200,49.75,48.4982,46.0588,128.71,99.2756,104.703,0.00183406,0.310612,20.6946,79.2198,-0.484392,0.0,0.0
205,51,48.4966,46.0151,127.629,99.2692,104.486,0.00187496,0.307082,20.6982,79.0997,-0.466133,0.0,0.0
210,52.25,49.1159,46.9193,128.231,99.2508,104.526,0.00193621,0.304458,20.7005,78.9595,-0.471306,0.0,0.0
215,53.5,49.6846,47.3022,130.886,99.2576,104.802,0.00196527,0.303092,20.702,78.9195,-0.494606,0.0,0.0
220,54.75,50.3029,47.5438,125.518,99.2444,104.4,0.00197087,0.302186,20.7028,78.7994,-0.460869,0.0,0.0
225,56,50.7907,47.5611,128.325,99.2468,104.499,0.00191777,0.301093,20.7041,78.6993,-0.46932,0.0,0.0
230,57.25,50.6821,48.5069,128.663,99.2536,104.337,0.00187013,0.29964,20.7059,78.5492,-0.45457,0.0,0.0
235,58.5,51.303,48.9019,127.326,99.264,104.48,0.00180315,0.297274,20.7086,78.4991,-0.46606,0.0,0.0
240,59.75,51.6182,49.2734,129.59,99.2704,104.133,0.00174077,0.295014,20.7124,78.4191,-0.435184,0.0,0.0
245,61,52.0804,49.6784,125.891,99.28,104.376,0.00170979,0.292417,20.7149,78.2789,-0.455531,0.0,0.0
250,62.25,52.1369,50.1107,130.524,99.3111,104.629,0.00172651,0.290151,20.7179,78.1889,-0.474676,0.0,0.0
255,63.5,52.4495,50.2526,129.419,99.3323,104.832,0.00179207,0.287982,20.7212,78.0988,-0.490423,0.0,0.0
260,64.75,52.7234,50.8458,127.844,99.3726,104.997,0.00190317,0.285496,20.7245,77.9987,-0.501064,0.0,0.0
265,66,52.9095,51.1658,127.068,99.3918,105.155,0.00201584,0.282727,20.7275,77.8786,-0.512958,0.0,0.0
270,67.25,53.1848,51.317,132.076,99.4692,105.043,0.00207183,0.279464,20.7311,77.8486,-0.4962,0.0,0.0
275,68.5,53.5225,51.7302,129.197,99.5043,105.251,0.00205266,0.276408,20.735,77.7485,-0.510913,0.0,0.0
280,69.75,53.5986,51.8965,128.863,99.5706,104.931,0.00197282,0.274078,20.7377,77.5983,-0.477208,0.0,0.0
285,71,53.9674,52.1698,130.821,99.599,105.112,0.00190073,0.272318,20.74,77.4482,-0.490265,0.0,0.0
290,72.25,54.0835,52.3235,128.216,99.674,105.214,0.00183519,0.270545,20.7423,77.4382,-0.492216,0.0,0.0
295,73.5,54.2729,52.7248,130.538,99.7399,105.146,0.00176504,0.268804,20.7439,77.3581,-0.48032,0.0,0.0
300,74.75,54.1738,52.9345,133.914,99.8237,105.415,0.00168424,0.26665,20.7465,77.198,-0.495989,0.0,0.0
305,76,54.719,53.1595,127.42,99.8832,105.043,0.00160618,0.264119,20.749,77.0879,-0.4584,0.0,0.0
310,77.25,54.4978,53.2813,130.093,99.9487,105.478,0.00155031,0.261659,20.7509,77.1079,-0.489966,0.0,0.0
315,78.5,54.3734,53.7143,126.127,100.022,105.48,0.00152587,0.25923,20.7535,76.9878,-0.483513,0.0,0.0
320,79.75,54.5023,53.5901,130.221,100.076,105.178,0.00156311,0.256771,20.757,76.8477,-0.452502,0.0,0.0
325,81,54.7848,53.858,132.543,100.149,106.009,0.00162561,0.254616,20.7605,76.7676,-0.517502,0.0,0.0
330,82.25,54.683,54.2113,130.473,100.227,105.985,0.00166845,0.252481,20.7631,76.7576,-0.508269,0.0,0.0
335,83.5,54.6897,53.986,130.144,100.288,105.682,0.00168662,0.250652,20.765,76.7076,-0.476816,0.0,0.0
340,84.75,54.4987,54.5002,133.613,100.339,106.007,0.00169329,0.249027,20.767,76.5074,-0.500055,0.0,0.0
345,86,54.8515,54.2541,129.928,100.409,106.299,0.00163538,0.247603,20.7683,76.4473,-0.518777,0.0,0.0
350,87.25,55.0904,54.3554,131.738,100.455,106.448,0.00150141,0.24661,20.7698,76.3973,-0.527329,0.0,0.0
355,88.5,54.7898,54.9201,131.844,100.522,106.313,0.00138284,0.24599,20.7711,76.3472,-0.509701,0.0,0.0
360,89.75,55.0503,54.9006,129.481,100.57,106.526,0.00132305,0.244955,20.773,76.1671,-0.523651,0.0,0.0
365,91,55.037,55.4185,132.724,100.627,106.427,0.00133198,0.243121,20.7759,76.1471,-0.509983,0.0,0.0
370,92.25,55.0246,55.3209,128.401,100.664,106.633,0.00136894,0.240784,20.7789,76.057,-0.524167,0.0,0.0
375,93.5,55.0812,55.1964,130.758,100.708,106.751,0.00137401,0.23838,20.781,75.9969,-0.530299,0.0,0.0
380,94.75,55.1947,55.2531,131.628,100.747,106.347,0.00135016,0.23664,20.783,75.8468,-0.492301,0.0,0.0
385,96,55.0167,55.5344,132.654,100.782,107.101,0.00135141,0.234922,20.7844,75.8368,-0.55348,0.0,0.0
390,97.25,54.9592,55.7118,132.872,100.812,106.574,0.00139108,0.233779,20.7854,75.7767,-0.505863,0.0,0.0
395,98.5,55.1238,55.8673,129.632,100.825,106.797,0.00147245,0.232888,20.7867,75.6867,-0.523688,0.0,0.0
400,99.75,54.715,55.8208,128.211,100.86,106.157,0.00162178,0.23184,20.7884,75.5666,-0.465751,0.0,0.0
405,101,54.719,56.0312,129.208,100.889,107.349,0.00173304,0.230506,20.7895,75.5065,-0.564807,0.0,0.0
410,102.25,55.2081,55.9322,129.942,100.913,106.976,0.00175789,0.228979,20.7901,75.4164,-0.530983,0.0,0.0
415,103.5,55.0713,56.4848,127.126,100.926,106.837,0.00173891,0.227327,20.7918,75.2563,-0.517877,0.0,0.0
420,104.75,54.9117,56.2939,129.787,100.949,106.769,0.00169161,0.225042,20.7945,75.2663,-0.510144,0.0,0.0
425,106,54.8626,56.1073,132.411,100.942,107.186,0.00164189,0.223056,20.7969,75.1762,-0.54615,0.0,0.0
430,107.25,54.9443,55.6625,132.805,100.966,107.04,0.0015991,0.221775,20.7982,75.0961,-0.53156,0.0,0.0
435,108.5,54.8428,56.2805,128.974,100.97,107.185,0.00158671,0.221125,20.7986,74.896,-0.543519,0.0,0.0
440,109.75,55.1329,56.307,133.256,100.981,107.216,0.00159431,0.22051,20.7996,74.8859,-0.545223,0.0,0.0
445,111,54.9456,56.3502,131.729,100.974,107.575,0.00163179,0.219666,20.8012,74.8759,-0.576284,0.0,0.0
450,112.25,54.9336,56.54,130.733,100.968,107.276,0.00166612,0.218229,20.8023,74.7959,-0.551492,0.0,0.0
455,113.5,55.2561,56.2508,130.837,100.972,107.175,0.00168185,0.216642,20.8038,74.6357,-0.542536,0.0,0.0
460,114.75,55.182,56.3995,132.702,100.965,106.959,0.00164509,0.215425,20.8048,74.5757,-0.52481,0.0,0.0
465,116,54.5589,56.1734,129.472,100.948,107.22,0.00156222,0.21479,20.8057,74.5457,-0.548552,0.0,0.0
470,117.25,54.161,56.2082,131.099,100.922,107.209,0.00147471,0.213772,20.8069,74.4356,-0.549976,0.0,0.0
475,118.5,54.6682,56.8758,131.132,100.913,107.086,0.00142812,0.211933,20.8088,74.3154,-0.540251,0.0,0.0
480,119.75,54.8228,56.2829,130.537,100.878,107.017,0.00143556,0.210058,20.8104,74.2754,-0.537599,0.0,0.0
485,121,54.3602,56.5087,126.453,100.869,107.331,0.00146244,0.208972,20.8115,74.1953,-0.56508,0.0,0.0
490,122.25,54.6006,56.3541,131.225,100.832,106.853,0.00145033,0.208696,20.8122,74.0352,-0.527832,0.0,0.0
495,123.5,54.6204,56.4904,134.245,100.829,107.264,0.0014219,0.208746,20.8126,74.0352,-0.563067,0.0,0.0
500,124.75,54.5237,56.2698,132.147,100.795,106.935,0.00140737,0.208443,20.8137,73.9651,-0.538086,0.0,0.0
505,126,54.5537,56.3521,130.312,100.761,106.751,0.00139922,0.207733,20.8148,73.8751,-0.525499,0.0,0.0
510,127.25,54.6153,56.3493,132.846,100.716,107.282,0.0013944,0.206795,20.8161,73.765,-0.574798,0.0,0.0
515,128.5,55.3049,56.4505,133.7,100.691,106.805,0.00139171,0.205345,20.8187,73.755,-0.53653,0.0,0.0
520,129.75,54.1689,56.4404,133.801,100.644,107.041,0.00141681,0.203651,20.8209,73.6649,-0.560799,0.0,0.0
525,131,54.2092,56.7661,133.437,100.598,107.077,0.00145891,0.202572,20.8221,73.5348,-0.567973,0.0,0.0
530,132.25,52.8913,56.0077,131.917,100.566,106.571,0.00153846,0.201893,20.8229,73.4647,-0.527822,0.0,0.0
535,133.5,54.2142,55.6348,133.045,100.528,107.248,0.00161966,0.201238,20.8237,73.4447,-0.588829,0.0,0.0
540,134.75,54.062,56.0123,130.486,100.505,106.736,0.00170093,0.200641,20.8249,73.3946,-0.547339,0.0,0.0
545,136,53.5815,56.4239,134.426,100.478,106.893,0.00171364,0.200233,20.8255,73.2345,-0.563225,0.0,0.0
550,137.25,53.8601,56.554,132.791,100.455,106.515,0.00165939,0.199631,20.8264,73.1945,-0.533138,0.0,0.0
555,138.5,53.9995,56.3941,135.861,100.435,106.762,0.00159108,0.198586,20.828,73.1544,-0.55593,0.0,0.0
560,139.75,54.1268,56.1382,136.237,100.413,107.051,0.00158427,0.196937,20.8299,73.0643,-0.582604,0.0,0.0
565,141,53.6657,56.2478,130.543,100.369,106.347,0.00164231,0.195774,20.8314,72.9442,-0.526518,0.0,0.0
570,142.25,53.7772,55.5979,129.867,100.346,106.914,0.00172061,0.195387,20.8329,72.9342,-0.576964,0.0,0.0
575,143.5,53.5135,56.1496,133.508,100.313,107.187,0.00174977,0.194797,20.8341,72.8842,-0.603208,0.0,0.0
580,144.75,53.6496,56.311,131.19,100.262,106.741,0.00175728,0.19388,20.8348,72.8041,-0.569804,0.0,0.0
585,146,53.7441,56.1781,131.162,100.215,106.37,0.00177592,0.192938,20.8351,72.654,-0.542427,0.0,0.0
590,147.25,53.6,55.9954,134.768,100.187,106.792,0.00180252,0.192235,20.8362,72.654,-0.580959,0.0,0.0
595,148.5,53.4733,56.1038,130.172,100.16,106.019,0.0018814,0.191842,20.8368,72.5639,-0.517372,0.0,0.0
600,149.75,53.4716,56.1843,133.032,100.123,106.56,0.00198315,0.191533,20.8369,72.5139,-0.567016,0.0,0.0
605,151,53.1442,56.0867,133.627,100.091,106.754,0.00211112,0.191154,20.8368,72.4238,-0.586515,0.0,0.0
610,152.25,53.3837,55.7705,132.993,100.097,106.323,0.00221445,0.190529,20.837,72.3737,-0.549085,0.0,0.0
615,153.5,53.349,55.4503,132.833,100.08,106.043,0.00225905,0.189945,20.8379,72.3037,-0.526641,0.0,0.0
620,154.75,52.9663,56.0019,133.725,100.124,106.474,0.00222986,0.189107,20.8384,72.1836,-0.559556,0.0,0.0
625,156,53.4659,55.6058,132.958,100.183,106.56,0.0021479,0.188266,20.8387,72.1435,-0.561536,0.0,0.0
630,157.25,52.6595,55.7691,133.008,100.235,106.544,0.00201524,0.187811,20.8395,72.0835,-0.555551,0.0,0.0
635,158.5,52.5878,55.7066,130.319,100.278,106.862,0.00186922,0.187373,20.8402,72.0134,-0.578676,0.0,0.0
640,159.75,52.7067,55.6814,133.773,100.293,106.965,0.00176077,0.186517,20.8417,71.8633,-0.586151,0.0,0.0
645,161,52.8516,55.8306,132.293,100.311,106.755,0.00169674,0.185499,20.8428,71.8833,-0.566538,0.0,0.0
650,162.25,53.1607,55.3791,129.657,100.311,106.799,0.00163689,0.184659,20.8436,71.8233,-0.570335,0.0,0.0
655,163.5,53.0203,55.4154,136.161,100.312,106.749,0.00158576,0.184251,20.8449,71.7432,-0.565966,0.0,0.0
660,164.75,52.3195,55.3177,136.503,100.325,106.961,0.00158514,0.184132,20.8457,71.6231,-0.58287,0.0,0.0
665,166,52.7848,55.2044,133.904,100.35,106.623,0.00164131,0.183991,20.8462,71.6031,-0.551774,0.0,0.0
670,167.25,52.7154,54.7489,133.408,100.391,106.561,0.00170689,0.18324,20.8473,71.563,-0.54274,0.0,0.0
675,168.5,53.0453,55.3521,134.275,100.412,106.116,0.00172979,0.182376,20.8481,71.4129,-0.50282,0.0,0.0
680,169.75,52.5959,55.3526,132.661,100.437,106.709,0.00170642,0.181833,20.8485,71.2928,-0.551222,0.0,0.0
685,171,52.2373,55.2958,134.017,100.461,106.62,0.00165769,0.181254,20.8485,71.3328,-0.54152,0.0,0.0
690,172.25,52.5091,55.0806,133.052,100.472,106.953,0.00162565,0.180858,20.8481,71.2327,-0.568901,0.0,0.0
695,173.5,52.2453,54.7051,134.648,100.479,106.949,0.00163367,0.180721,20.8479,71.1126,-0.567904,0.0,0.0
700,174.75,52.3475,55.09,136.089,100.48,106.89,0.00164857,0.180545,20.8477,71.1727,-0.562813,0.0,0.0
705,176,52.1388,55.3667,132.308,100.475,106.633,0.00165473,0.180052,20.8483,71.1026,-0.541368,0.0,0.0
710,177.25,52.3781,55.0023,136.826,100.47,106.584,0.00167827,0.17956,20.8489,71.0326,-0.537648,0.0,0.0
715,178.5,52.3313,54.8837,132.45,100.435,106.997,0.00173562,0.179234,20.8493,70.9024,-0.575981,0.0,0.0
720,179.75,52.2552,54.7853,134.282,100.42,106.578,0.00181163,0.179076,20.8495,70.9024,-0.541595,0.0,0.0
725,181,52.2224,54.877,132.683,100.394,106.69,0.00187812,0.179109,20.8495,70.8224,-0.553478,0.0,0.0
730,182.25,52.2929,54.5235,131.36,100.356,106.697,0.00190943,0.179029,20.8493,70.7423,-0.557531,0.0,0.0
735,183.5,51.7576,54.8099,133.887,100.315,106.685,0.00189567,0.178569,20.8492,70.6122,-0.560224,0.0,0.0
740,184.75,52.0344,54.8466,134.726,100.28,106.483,0.00185132,0.177953,20.8491,70.6122,-0.546187,0.0,0.0
745,186,52.1142,54.6358,134.181,100.225,106.66,0.00178499,0.177757,20.849,70.5321,-0.566375,0.0,0.0
750,187.25,52.2792,54.9993,133.575,100.173,106.687,0.00171021,0.178025,20.849,70.5121,-0.573317,0.0,0.0
755,188.5,51.9424,54.578,135.117,100.128,106.331,0.00166402,0.178149,20.849,70.452,-0.547021,0.0,0.0
760,189.75,52.057,54.6085,135.207,100.086,106.609,0.0016328,0.178255,20.849,70.392,-0.574582,0.0,0.0
765,191,51.8711,54.5624,133.073,100.026,106.618,0.0015947,0.178366,20.849,70.3119,-0.580797,0.0,0.0
770,192.25,52.0154,54.4907,132.675,99.9623,106.66,0.00155484,0.178486,20.849,70.2318,-0.590146,0.0,0.0
775,193.5,51.7017,54.2287,132.226,99.9515,106.656,0.00151334,0.178712,20.849,70.1718,-0.59082,0.0,0.0
780,194.75,51.9395,54.2951,133.888,99.9064,106.016,0.00145661,0.178662,20.8491,70.0917,-0.540129,0.0,0.0
785,196,51.8295,54.5359,134.499,99.8764,105.855,0.00138762,0.178478,20.8491,70.0317,-0.529085,0.0,0.0
790,197.25,51.4194,54.1538,137.876,99.8002,106.356,0.00129623,0.178746,20.8482,69.9016,-0.578945,0.0,0.0
795,198.5,51.8825,54.2158,131.319,99.7639,105.946,0.00121115,0.179112,20.8477,69.9216,-0.547167,0.0,0.0
800,199.75,51.808,54.2943,133.153,99.7167,105.396,0.00114556,0.179543,20.8473,69.8515,-0.504115,0.0,0.0
805,201,51.7782,54.3888,136.919,99.686,105.917,0.00110286,0.179589,20.8478,69.7514,-0.551795,0.0,0.0
810,202.25,51.4766,54.1419,133.814,99.6916,106.035,0.00110419,0.179151,20.8486,69.6513,-0.561416,0.0,0.0
815,203.5,51.5381,54.5253,135.732,99.7207,106.169,0.00113693,0.179024,20.8492,69.6814,-0.570227,0.0,0.0
820,204.75,51.7311,54.0827,131.036,99.7303,106.035,0.00118161,0.179531,20.8495,69.6013,-0.557843,0.0,0.0
825,206,51.7016,54.0204,132.261,99.7395,105.726,0.00121108,0.180317,20.8497,69.5012,-0.530455,0.0,0.0
830,207.25,51.5557,54.4036,133.141,99.7535,106.431,0.00122318,0.18082,20.8489,69.4111,-0.589637,0.0,0.0
835,208.5,51.7226,54.3514,134.649,99.7762,105.904,0.00123599,0.181299,20.8484,69.4311,-0.542401,0.0,0.0
840,209.75,51.6638,54.3437,131.096,99.7962,106.002,0.00125341,0.181755,20.8481,69.3711,-0.549012,0.0,0.0
845,211,51.7668,54.0869,127.355,99.803,105.854,0.00127961,0.182238,20.8477,69.1909,-0.535627,0.0,0.0
850,212.25,51.7329,54.2584,132.218,99.8293,106.408,0.00129094,0.182802,20.8468,69.1709,-0.580755,0.0,0.0
855,213.5,51.419,53.8807,135.913,99.8792,106.474,0.00126906,0.183842,20.845,69.1309,-0.581905,0.0,0.0
860,214.75,51.3175,53.8018,132.26,99.8932,105.757,0.00122879,0.185082,20.8435,69.0808,-0.519115,0.0,0.0
865,216,51.8953,54.2212,133.049,99.9136,106.006,0.00120001,0.185979,20.8424,68.9307,-0.538623,0.0,0.0
870,217.25,51.9457,53.7486,134.417,99.9531,106.184,0.00117182,0.186505,20.8417,68.9908,-0.55032,0.0,0.0
875,218.5,51.716,53.7814,131.193,99.9802,106.296,0.00113158,0.186807,20.841,68.9307,-0.557415,0.0,0.0
880,219.75,51.965,53.7409,130.97,100.002,106.057,0.00108213,0.18686,20.8405,68.8707,-0.534922,0.0,0.0
885,221,51.6925,54.4262,135.415,100.033,106.106,0.00103298,0.18692,20.8395,68.7205,-0.536373,0.0,0.0
890,222.25,51.5213,53.8359,135.236,100.068,106.212,0.000997171,0.187578,20.8387,68.7005,-0.542288,0.0,0.0
895,223.5,51.7512,53.8735,130.78,100.112,106.134,0.000988175,0.188912,20.8375,68.7005,-0.531541,0.0,0.0
900,224.75,51.4106,54.0207,131.578,100.126,106.362,0.0010497,0.190357,20.8358,68.5904,-0.5499,0.0,0.0
905,226,51.552,53.7962,131.217,100.15,106.234,0.00111906,0.191651,20.8344,68.4903,-0.536702,0.0,0.0
910,227.25,51.5753,54.0336,132.143,100.191,106.201,0.00117009,0.193032,20.8329,68.4403,-0.530148,0.0,0.0
915,228.5,51.9083,53.9224,131.432,100.217,106.564,0.00119572,0.194083,20.832,68.4203,-0.558838,0.0,0.0
920,229.75,52.1283,53.9248,134.297,100.241,106.685,0.00120731,0.194766,20.8306,68.2701,-0.567001,0.0,0.0
925,231,52.1165,54.5736,132.14,100.26,106.414,0.00121415,0.195455,20.8297,68.2801,-0.54207,0.0,0.0
930,232.25,51.9859,53.8291,130.751,100.313,106.546,0.00122087,0.195982,20.8292,68.2101,-0.548565,0.0,0.0
935,233.5,52.1571,54.0883,131.533,100.315,106.698,0.0012236,0.196434,20.8288,68.18,-0.561374,0.0,0.0
940,234.75,52.3121,53.957,134.626,100.321,106.112,0.00120308,0.197156,20.8277,68.0199,-0.510652,0.0,0.0
945,236,51.8503,54.3889,131.096,100.347,106.388,0.00115817,0.198192,20.827,67.9999,-0.53194,0.0,0.0
950,237.25,52.3266,53.9865,133.675,100.362,106.757,0.00110336,0.198925,20.8262,67.9498,-0.562169,0.0,0.0
955,238.5,52.3715,54.5136,128.587,100.362,106.513,0.00106329,0.199748,20.8242,67.9198,-0.541376,0.0,0.0
960,239.75,52.078,54.4738,131.593,100.362,106.809,0.00105645,0.200837,20.8231,67.7697,-0.566619,0.0,0.0
965,241,52.3897,54.1483,130.957,100.374,106.583,0.00108981,0.201796,20.8217,67.6596,-0.546219,0.0,0.0
970,242.25,52.2662,54.0055,131.946,100.376,106.503,0.00112236,0.202583,20.8209,67.6596,-0.539264,0.0,0.0
975,243.5,52.2808,54.5593,133.898,100.36,106.501,0.00117436,0.203674,20.8198,67.5595,-0.540483,0.0,0.0
980,244.75,52.2134,54.191,132.315,100.351,106.099,0.00122557,0.20481,20.8187,67.5495,-0.506929,0.0,0.0
985,246,52.6981,54.8261,134.292,100.346,106.278,0.00128018,0.205665,20.8178,67.5195,-0.522645,0.0,0.0
990,247.25,52.53,54.3334,132.384,100.334,107.167,0.00131606,0.206082,20.8173,67.4494,-0.599528,0.0,0.0
995,248.5,53.0781,54.4793,132.19,100.308,106.653,0.00131465,0.206771,20.8154,67.3193,-0.558223,0.0,0.0
1000,249.75,52.7975,54.7859,132.405,100.284,106.843,0.0012655,0.207928,20.8136,67.3093,-0.57656,0.0,0.0
1005,251,52.9041,55.0361,127.733,100.277,106.473,0.00119579,0.209448,20.8119,67.2492,-0.545594,0.0,0.0
1010,252.25,53.1336,54.5527,130.534,100.254,106.397,0.00107508,0.2109,20.8108,67.1892,-0.541187,0.0,0.0
1015,253.5,52.8798,54.8023,130.683,100.227,106.522,0.000985259,0.21206,20.8096,67.0591,-0.55428,0.0,0.0
1020,254.75,52.8605,54.8025,132.679,100.205,106.534,0.000908053,0.212973,20.8085,67.0891,-0.557385,0.0,0.0
1025,256,53.1124,54.9133,133.225,100.178,105.718,0.000902302,0.213584,20.8074,66.999,-0.489886,0.0,0.0
1030,257.25,53.0865,55.1298,133.754,100.142,105.899,0.000938153,0.214438,20.8062,66.959,-0.508717,0.0,0.0
1035,258.5,53.2063,55.0354,131.206,100.11,106.136,0.000979801,0.215428,20.8051,66.8088,-0.53199,0.0,0.0
1040,259.75,53.2829,55.0895,131.615,100.074,105.449,0.00104064,0.216473,20.8044,66.7688,-0.476109,0.0,0.0
1045,261,53.6174,54.8337,130.367,100.053,106.092,0.00114792,0.21758,20.8031,66.7087,-0.533397,0.0,0.0
1050,262.25,52.8382,55.1305,130.831,99.9842,106.406,0.00125156,0.218816,20.8017,66.6087,-0.566453,0.0,0.0
1055,263.5,53.6692,54.8301,131.93,99.9575,106.357,0.00142563,0.220191,20.8006,66.5186,-0.564766,0.0,0.0
1060,264.75,53.3222,55.3112,128.655,99.9028,106.062,0.00154724,0.221378,20.7989,66.4485,-0.544436,0.0,0.0
1065,266,53.2973,55.3148,130.532,99.8653,106,0.00159852,0.223099,20.7975,66.3785,-0.542561,0.0,0.0
1070,267.25,53.4071,55.0144,131.336,99.807,105.922,0.00163857,0.224616,20.7954,66.2884,-0.541184,0.0,0.0
1075,268.5,53.4059,55.703,132.105,99.7611,105.807,0.00164312,0.225757,20.7938,66.2884,-0.535463,0.0,0.0
1080,269.75,54.0469,55.0098,126.369,99.7127,105.512,0.00159616,0.227212,20.7916,66.2283,-0.514467,0.0,0.0
1085,271,54.0832,55.5728,128.334,99.6684,105.618,0.0015014,0.228354,20.7899,66.1482,-0.527634,0.0,0.0
1090,272.25,53.9267,55.6813,137.865,99.6217,105.541,0.00135611,0.229178,20.7888,66.0081,-0.525302,0.0,0.0
1095,273.5,54.206,55.9153,131.902,99.575,105.609,0.00120218,0.230445,20.7878,66.0382,-0.535392,0.0,0.0
1100,274.75,54.5666,55.8073,131.413,99.5355,105.477,0.00105267,0.23176,20.7866,65.9481,-0.52759,0.0,0.0
1105,276,54.2661,55.9678,128.358,99.4912,105.374,0.000964691,0.232947,20.7847,65.848,-0.522781,0.0,0.0
1110,277.25,54.6498,55.8739,131.06,99.4476,105.069,0.000984984,0.234286,20.7829,65.6979,-0.500396,0.0,0.0
1115,278.5,54.8499,56.02,131.516,99.4225,105.247,0.00105068,0.235705,20.7811,65.6878,-0.518129,0.0,0.0
1120,279.75,54.8673,56.45,131.091,99.3925,105.224,0.00113904,0.237044,20.7799,65.6278,-0.518885,0.0,0.0
1125,281,54.6156,56.4513,128.515,99.357,105.034,0.00121553,0.238068,20.7782,65.4777,-0.50569,0.0,0.0
1130,282.25,54.9148,56.4331,128.554,99.3283,105.632,0.00123483,0.23904,20.7772,65.4176,-0.55991,0.0,0.0
1135,283.5,54.8638,56.6692,131.379,99.2967,104.974,0.00121797,0.239829,20.7762,65.3576,-0.505983,0.0,0.0
1140,284.75,54.938,56.5131,132.254,99.2616,105.428,0.00118569,0.241036,20.775,65.3275,-0.548468,0.0,0.0
1145,286,55.1238,56.5418,131.359,99.2257,105.228,0.00115847,0.242321,20.7734,65.1474,-0.534528,0.0,0.0
1150,287.25,54.9769,56.6775,129.838,99.2157,105.722,0.00113562,0.24329,20.7725,65.1774,-0.578064,0.0,0.0
1155,288.5,55.059,56.592,131.132,99.1881,104.759,0.00110472,0.243896,20.7719,65.1073,-0.497262,0.0,0.0
1160,289.75,55.2061,56.7494,130.189,99.1718,105.149,0.0010653,0.244584,20.7714,65.0373,-0.532577,0.0,0.0
1165,291,55.3957,56.9657,134.374,99.1726,104.982,0.00102741,0.245148,20.7699,64.7971,-0.518034,0.0,0.0
1170,292.25,55.7514,57.0087,129.312,99.1514,105.17,0.000984754,0.245946,20.7685,64.8171,-0.536278,0.0,0.0
1175,293.5,55.4319,57.1692,130.224,99.1518,104.918,0.000936319,0.246944,20.7671,64.7971,-0.514394,0.0,0.0
1180,294.75,55.763,57.537,133.228,99.1294,105.42,0.000898501,0.248115,20.7659,64.687,-0.559892,0.0,0.0
1185,296,55.8731,57.5469,127.894,99.1266,104.793,0.000920195,0.24917,20.7652,64.5569,-0.505878,0.0,0.0
1190,297.25,55.7113,56.9969,127.681,99.129,104.807,0.0010149,0.249536,20.7642,64.4668,-0.506871,0.0,0.0
1195,298.5,55.5655,57.5847,129.654,99.1362,105.327,0.00115755,0.250235,20.7636,64.3967,-0.551258,0.0,0.0
1200,299.75,55.9679,57.9641,129.15,99.1302,104.684,0.00131087,0.251445,20.763,64.3467,-0.496041,0.0,0.0
1205,301,56.2478,57.3253,134.862,99.151,105.048,0.00141767,0.25226,20.7619,64.2666,-0.525749,0.0,0.0
1210,302.25,56.1355,57.576,132.103,99.1646,104.985,0.00145312,0.252823,20.7613,64.1965,-0.51904,0.0,0.0
1215,303.5,56.357,58.0659,126.236,99.1802,104.724,0.0013895,0.253776,20.7603,64.1165,-0.494982,0.0,0.0
1220,304.75,56.0899,57.5976,131.575,99.1877,104.669,0.0012682,0.255139,20.7594,63.9864,-0.489512,0.0,0.0
1225,306,56.5927,57.9564,127.161,99.2069,104.845,0.00117502,0.255962,20.7589,63.9663,-0.503049,0.0,0.0
1230,307.25,56.3915,58.0107,128.084,99.234,104.663,0.00112607,0.256712,20.7567,63.8863,-0.484716,0.0,0.0
1235,308.5,56.2722,58.2424,129.486,99.2648,104.508,0.00109109,0.258031,20.7553,63.8362,-0.468457,0.0,0.0
1240,309.75,56.5861,57.9692,126.53,99.3015,104.713,0.00103161,0.259821,20.7529,63.6661,-0.482914,0.0,0.0
1245,311,56.6703,58.3579,130.246,99.3375,104.905,0.000993675,0.261236,20.7512,63.606,-0.496239,0.0,0.0
1250,312.25,57.0676,58.4307,130.051,99.3894,104.867,0.000981416,0.262546,20.7499,63.556,-0.488242,0.0,0.0
1255,313.5,56.5768,58.2226,128.664,99.4181,105.474,0.00100911,0.263901,20.7482,63.4659,-0.538095,0.0,0.0
1260,314.75,57.0836,58.4289,130.612,99.454,104.572,0.00108437,0.265776,20.7456,63.3358,-0.456651,0.0,0.0
1265,316,57.1911,58.6869,131.986,99.5011,104.749,0.00116915,0.26774,20.743,63.2757,-0.467729,0.0,0.0
1270,317.25,57.3009,58.61,128.468,99.5491,105.14,0.00126931,0.269442,20.7415,63.2257,-0.497242,0.0,0.0
1275,318.5,57.5385,59.0383,126.677,99.5814,104.999,0.0013574,0.271232,20.7398,63.0756,-0.482079,0.0,0.0
1280,319.75,57.685,58.8162,130.576,99.6341,105.17,0.00141286,0.272712,20.7381,63.0355,-0.492044,0.0,0.0
1285,321,57.3998,59.1144,129.188,99.69,104.984,0.00139762,0.273707,20.7367,62.9354,-0.470911,0.0,0.0
1290,322.25,57.5282,58.9743,130.467,99.7319,104.955,0.00131678,0.27471,20.7353,62.8353,-0.464509,0.0,0.0
1295,323.5,57.7841,59.1017,128.558,99.7894,105.332,0.00123248,0.276192,20.7341,62.6652,-0.491885,0.0,0.0
1300,324.75,57.8917,59.3984,130.725,99.8477,104.878,0.00120744,0.278245,20.7313,62.6652,-0.447271,0.0,0.0
1305,326,58.0204,59.5077,125.73,99.8972,104.791,0.00123732,0.280095,20.7289,62.5651,-0.435255,0.0,0.0
1310,327.25,57.8403,59.7674,136.188,99.9403,105.274,0.00127004,0.281108,20.7275,62.475,-0.473113,0.0,0.0
1315,328.5,58.0093,59.6783,131.927,100.004,105.162,0.00128351,0.282023,20.7262,62.3349,-0.457676,0.0,0.0
1320,329.75,58.1809,59.6396,128.062,100.066,104.762,0.00127087,0.283314,20.725,62.3049,-0.417338,0.0,0.0
1325,331,58.606,59.9196,123.781,100.12,105.206,0.00128409,0.284592,20.7242,62.2548,-0.450852,0.0,0.0
1330,332.25,58.8049,60.3118,128.535,100.168,105.056,0.00135927,0.28483,20.7236,62.1748,-0.433555,0.0,0.0
1335,333.5,58.625,60.1769,128.744,100.218,105.352,0.00147159,0.284796,20.723,62.0346,-0.454651,0.0,0.0
1340,334.75,59.0424,60.345,130.055,100.284,105.4,0.00154302,0.285186,20.7226,61.9445,-0.452797,0.0,0.0
1345,336,58.9448,60.5052,129.749,100.321,104.437,0.00155494,0.285993,20.7224,61.8645,-0.365923,0.0,0.0
1350,337.25,59.1617,60.3555,128.827,100.368,105.262,0.00152013,0.286434,20.7223,61.7944,-0.433251,0.0,0.0
1355,338.5,58.9433,60.4143,125.684,100.416,104.73,0.00147917,0.286423,20.7219,61.6443,-0.382812,0.0,0.0
1360,339.75,59.3618,60.6819,128.419,100.456,105.022,0.00147806,0.285886,20.7226,61.5442,-0.404553,0.0,0.0
1365,341,59.0576,60.865,128.089,100.496,104.369,0.00150387,0.284792,20.723,61.5342,-0.344182,0.0,0.0
1370,342.25,59.1382,60.6463,132.013,100.521,105.022,0.00154515,0.283863,20.7234,61.354,-0.398621,0.0,0.0
1375,343.5,59.0285,60.8435,128.344,100.564,105.154,0.00159699,0.282897,20.7245,61.3741,-0.406182,0.0,0.0
1380,344.75,59.0498,60.9302,132.406,100.605,104.871,0.00164015,0.281838,20.7263,61.294,-0.377917,0.0,0.0
1385,346,59.2789,61.5177,129.749,100.629,105.338,0.0016836,0.279422,20.7296,61.1839,-0.416145,0.0,0.0
1390,347.25,59.2233,60.9085,126.662,100.643,104.653,0.00172361,0.276437,20.7319,61.0938,-0.355479,0.0,0.0
1395,348.5,59.0778,60.8272,129.266,100.693,105.291,0.00177436,0.273328,20.7345,61.0237,-0.406356,0.0,0.0
1400,349.75,59.1214,61.2324,131.426,100.716,105.336,0.00183223,0.269003,20.7391,60.9136,-0.408119,0.0,0.0
1405,351,59.389,61.2957,135.331,100.732,105.052,0.00190188,0.264455,20.7432,60.8636,-0.382098,0.0,0.0
1410,352.25,58.9129,60.8755,129.795,100.763,104.809,0.00199222,0.259229,20.7476,60.8236,-0.358272,0.0,0.0
1415,353.5,59.0186,61.0315,131.092,100.807,105.322,0.00213064,0.254031,20.7539,60.7635,-0.398767,0.0,0.0
1420,354.75,58.9124,61.2813,128.294,100.804,105.309,0.00223552,0.2492,20.7595,60.7035,-0.39789,0.0,0.0
1425,356,58.8826,61.2204,130.644,100.829,105.214,0.00232425,0.24299,20.7651,60.5834,-0.38737,0.0,0.0
1430,357.25,58.4426,60.9347,132.306,100.829,105.618,0.00242005,0.237716,20.7714,60.5834,-0.422311,0.0,0.0
1435,358.5,58.4899,60.7673,133.192,100.849,105.463,0.00256062,0.231656,20.7788,60.5433,-0.407078,0.0,0.0
1440,359.75,58.4304,60.6545,130.989,100.863,105.347,0.0027439,0.225166,20.7883,60.4933,-0.395864,0.0,0.0
1445,361,58.038,60.4027,135.197,100.851,105.286,0.00292573,0.21872,20.7977,60.3832,-0.391651,0.0,0.0
1450,362.25,57.8108,60.3474,130.623,100.858,105.53,0.00307925,0.211462,20.8055,60.4132,-0.412037,0.0,0.0
1455,363.5,57.5581,60.3364,131.402,100.865,105.641,0.00331022,0.204251,20.8129,60.3632,-0.421087,0.0,0.0
1460,364.75,56.9365,60.2349,132.182,100.87,105.716,0.00361186,0.197309,20.8207,60.3331,-0.427055,0.0,0.0
1465,366,56.9823,59.9649,133.477,100.855,106.145,0.00398669,0.189752,20.83,60.213,-0.46518,0.0,0.0
1470,367.25,56.6948,59.9313,133.192,100.855,106.189,0.00440907,0.181251,20.841,60.223,-0.468959,0.0,0.0
1475,368.5,55.9546,59.6807,132.398,100.843,106.571,0.0047474,0.173073,20.8503,60.203,-0.502819,0.0,0.0
1480,369.75,56.1354,59.6329,132.832,100.822,105.888,0.00508926,0.165557,20.8565,60.133,-0.446138,0.0,0.0
1485,371,55.697,59.1347,134.078,100.819,106.735,0.00539506,0.159337,20.8637,60.1129,-0.518931,0.0,0.0
1490,372.25,55.5335,59.1416,132.824,100.803,106.507,0.00570143,0.15363,20.87,60.1029,-0.500923,0.0,0.0
1495,373.5,55.2483,58.7814,135.719,100.782,106.535,0.00603073,0.147963,20.8768,60.0929,-0.50522,0.0,0.0
1500,374.75,54.4899,58.5431,135.018,100.737,106.904,0.00642109,0.142549,20.8824,59.9928,-0.540707,0.0,0.0
1505,376,54.2544,57.9773,132.4,100.724,106.953,0.00685701,0.137471,20.8873,60.0028,-0.546001,0.0,0.0
1510,377.25,53.9805,58.0952,135.219,100.693,106.943,0.00726774,0.132883,20.8913,60.0329,-0.548044,0.0,0.0
1515,378.5,54.0994,57.0523,132.133,100.663,106.417,0.0075819,0.128767,20.8959,60.0028,-0.505923,0.0,0.0
1520,379.75,53.5998,57.4204,134.729,100.623,106.928,0.0078316,0.125191,20.8998,59.8927,-0.553061,0.0,0.0
1525,381,52.8768,57.3588,137.874,100.611,106.52,0.00802096,0.122081,20.903,59.9328,-0.519354,0.0,0.0
1530,382.25,52.1767,56.6764,137.111,100.597,106.121,0.00817978,0.119187,20.9067,59.9328,-0.486509,0.0,0.0
1535,383.5,52.5658,56.4305,136.77,100.573,106.648,0.0083577,0.116341,20.9098,59.9028,-0.533744,0.0,0.0
1540,384.75,51.9643,56.4502,140.308,100.534,106.52,0.00859663,0.113763,20.9128,59.8327,-0.526403,0.0,0.0
1545,386,51.7178,56.0984,137.635,100.51,106.115,0.00886576,0.111744,20.9147,59.8927,-0.493844,0.0,0.0
1550,387.25,51.6347,55.3905,135.561,100.476,106.954,0.00914298,0.1105,20.9167,59.8727,-0.568579,0.0,0.0
1555,388.5,51.164,55.3913,134.082,100.45,106.34,0.00938818,0.109302,20.9189,59.8527,-0.518558,0.0,0.0
1560,389.75,50.8383,54.7825,134.477,100.41,106.214,0.00958872,0.107763,20.9206,59.8227,-0.511341,0.0,0.0
1565,391,50.3792,54.8985,137.051,100.387,106.273,0.00976066,0.105862,20.9226,59.8027,-0.518568,0.0,0.0
1570,392.25,50.4039,54.3212,135.999,100.354,106.449,0.00990804,0.104299,20.9245,59.8027,-0.536525,0.0,0.0
1575,393.5,50.262,54.2068,137.801,100.311,106.314,0.0100402,0.102925,20.9264,59.7326,-0.528916,0.0,0.0
1580,394.75,50.0054,53.9358,137.251,100.288,105.941,0.0101889,0.101709,20.9278,59.7626,-0.499085,0.0,0.0
1585,396,49.3542,53.909,137.69,100.259,106.433,0.0103043,0.100589,20.9294,59.7526,-0.543832,0.0,0.0
1590,397.25,49.4238,53.7927,135.698,100.221,106.184,0.0103668,0.0992732,20.9306,59.7326,-0.525964,0.0,0.0
1595,398.5,48.9778,53.2882,137.403,100.189,106.299,0.0103897,0.0979508,20.932,59.6625,-0.5387,0.0,0.0
1600,399.75,48.945,52.7896,137.78,100.165,105.809,0.0103974,0.097007,20.933,59.7126,-0.49887,0.0,0.0
1605,401,48.0573,53.0209,137.784,100.138,106.538,0.0104049,0.0965271,20.9336,59.6826,-0.563791,0.0,0.0
1610,402.25,48.1079,52.8359,134.332,100.093,105.913,0.0104388,0.0960829,20.9338,59.6826,-0.514347,0.0,0.0
1615,403.5,48.0903,52.4029,135.021,100.058,105.799,0.0104715,0.0956886,20.9338,59.5825,-0.507745,0.0,0.0
1620,404.75,48.1109,51.9627,136.193,100.051,106.024,0.0104955,0.0955174,20.9338,59.6625,-0.527744,0.0,0.0
1625,406,47.5449,51.827,135.048,100.014,106.066,0.0104577,0.0955633,20.9338,59.6525,-0.534604,0.0,0.0
1630,407.25,47.5076,51.4308,134.276,99.9723,105.747,0.0103638,0.0954741,20.9338,59.5925,-0.511025,0.0,0.0
1635,408.5,47.4276,51.6543,140.772,99.9455,105.876,0.0102253,0.0948623,20.9348,59.5324,-0.524614,0.0,0.0
1640,409.75,47.4688,51.1893,139.153,99.9555,105.897,0.0101358,0.0941989,20.9353,59.5925,-0.525486,0.0,0.0
1645,411,47.2278,50.8364,134.866,100.026,106.119,0.0101296,0.0940069,20.9359,59.5825,-0.538109,0.0,0.0
1650,412.25,46.9235,50.9284,138.343,100.057,105.71,0.0102327,0.0941244,20.9371,59.4924,-0.500145,0.0,0.0
1655,413.5,47.1413,50.4257,140.846,100.118,105.282,0.0103306,0.0940368,20.9376,59.5424,-0.457689,0.0,0.0
1660,414.75,46.7345,50.3433,137.893,100.167,105.748,0.0104105,0.0937323,20.9379,59.5424,-0.493384,0.0,0.0
1665,416,46.7761,50.2798,137.879,100.201,106.003,0.0104218,0.0934274,20.9382,59.5324,-0.512284,0.0,0.0
1670,417.25,46.2519,50.0518,137.584,100.226,106.109,0.0103772,0.0930946,20.9383,59.4323,-0.519043,0.0,0.0
1675,418.5,46.3174,50.2313,138.528,100.265,105.827,0.0102967,0.0925171,20.939,59.4724,-0.491358,0.0,0.0
1680,419.75,45.6234,49.1403,139.247,100.304,106.202,0.0101961,0.0917977,20.9397,59.4624,-0.520006,0.0,0.0
1685,421,44.8242,47.9249,136.716,100.308,106.193,0.0101541,0.0912217,20.9402,59.4423,-0.518832,0.0,0.0
1690,422.25,44.2777,47.8526,137.815,100.33,105.958,0.0101834,0.0909331,20.9404,59.3723,-0.496712,0.0,0.0
1695,423.5,43.9614,47.8292,136.309,100.35,106.341,0.0102316,0.0908872,20.9406,59.4223,-0.527718,0.0,0.0
1700,424.75,44.3047,47.6372,133.768,100.358,106.197,0.0102677,0.0909582,20.9407,59.3823,-0.514618,0.0,0.0
1705,426,44.1026,47.8151,140.688,100.364,106.431,0.010216,0.0910941,20.9412,59.3723,-0.534154,0.0,0.0
1710,427.25,43.9281,47.2345,139.455,100.374,106.607,0.0101177,0.0912055,20.9417,59.3723,-0.548329,0.0,0.0
1715,428.5,43.8545,46.8557,136.687,100.381,106.32,0.0100289,0.0909334,20.942,59.3523,-0.523047,0.0,0.0
1720,429.75,43.7919,46.6394,139.942,100.38,106.2,0.00994632,0.0905735,20.9422,59.3623,-0.512895,0.0,0.0
1725,431,43.6632,46.9917,138.067,100.373,106.195,0.0098561,0.0902719,20.9429,59.2922,-0.513125,0.0,0.0
1730,432.25,43.8388,46.471,134.792,100.383,106.276,0.00973545,0.0898819,20.9437,59.3423,-0.519161,0.0,0.0
1735,433.5,43.4495,46.6865,136.102,100.384,106.225,0.00958306,0.0894397,20.9441,59.3222,-0.514655,0.0,0.0
1740,434.75,43.4022,46.5008,136.337,100.383,106.02,0.00945279,0.0892829,20.9437,59.3022,-0.497121,0.0,0.0
1745,436,42.7225,46.56,136.948,100.376,106.198,0.00930287,0.0893437,20.9432,59.2222,-0.513028,0.0,0.0
1750,437.25,43.2415,46.4521,135.036,100.377,106.276,0.00919324,0.0892118,20.9429,59.2922,-0.519668,0.0,0.0
1755,438.5,43.079,46.1636,138.792,100.366,105.99,0.00912013,0.0887925,20.9427,59.2422,-0.496202,0.0,0.0
1760,439.75,43.0249,45.7675,137.388,100.362,106.434,0.00908399,0.0887105,20.9426,59.2522,-0.534603,0.0,0.0
1765,441,43.0476,45.9198,137.446,100.357,105.98,0.00910497,0.0891224,20.9425,59.1821,-0.496145,0.0,0.0
1770,442.25,43.2704,45.839,138.944,100.35,106.506,0.00914445,0.0896112,20.9425,59.2722,-0.541811,0.0,0.0
1775,443.5,42.6918,45.6313,137.133,100.352,106.335,0.00918262,0.0899456,20.9425,59.2322,-0.526998,0.0,0.0
1780,444.75,42.7686,45.5404,138.911,100.338,106.098,0.00924671,0.0901325,20.9425,59.1721,-0.508046,0.0,0.0
1785,446,42.7818,45.3667,139.466,100.356,106.548,0.00931653,0.09012,20.9425,59.1221,-0.544882,0.0,0.0
1790,447.25,42.6674,45.1469,139.39,100.348,106.235,0.00938278,0.0900468,20.9425,59.1921,-0.518764,0.0,0.0
1795,448.5,42.7237,45.3222,138.73,100.318,105.963,0.00942611,0.0900036,20.9425,59.2021,-0.498188,0.0,0.0
1800,449.75,42.9484,45.0442,141.611,100.304,106.41,0.00945777,0.0898926,20.9425,59.1121,-0.537738,0.0,0.0
1805,451,43.0183,44.9269,136.533,100.313,106.813,0.00947271,0.0896459,20.9425,59.1621,-0.571344,0.0,0.0
1810,452.25,41.9339,44.7983,139.367,100.31,106.254,0.00945827,0.0892166,20.9425,59.1621,-0.523825,0.0,0.0
1815,453.5,41.9752,45.28,138.525,100.293,106.227,0.00940986,0.0890521,20.9425,59.1421,-0.523068,0.0,0.0
1820,454.75,42.138,44.9582,134.096,100.263,105.668,0.00935107,0.0891203,20.9425,59.062,-0.477896,0.0,0.0
1825,456,42.2086,44.8265,137.028,100.277,106.056,0.00930315,0.0892416,20.9422,59.1121,-0.509885,0.0,0.0
1830,457.25,42.1603,44.2726,133.702,100.271,106.081,0.0092711,0.0890371,20.9422,59.092,-0.512626,0.0,0.0
1835,458.5,41.9107,44.6772,137.069,100.262,105.691,0.00925887,0.0886989,20.9429,59.1121,-0.479833,0.0,0.0
1840,459.75,42.4828,44.3078,141.1,100.252,105.951,0.00925644,0.0883534,20.9432,59.002,-0.503196,0.0,0.0
1845,461,41.9152,44.2197,140.759,100.256,106.143,0.00925789,0.0882436,20.9435,59.052,-0.519296,0.0,0.0
1850,462.25,41.8517,44.3419,138.031,100.247,105.958,0.00925021,0.0882326,20.9437,59.052,-0.504287,0.0,0.0
1855,463.5,42.258,44.3067,137.102,100.247,106.009,0.00923111,0.0880715,20.9438,59.052,-0.508581,0.0,0.0
1860,464.75,42.0175,43.8885,138.584,100.247,105.774,0.00918089,0.0878626,20.9438,59.012,-0.488455,0.0,0.0
1865,466,41.7793,44.0189,139.358,100.247,106.268,0.009124,0.08776,20.9439,59.042,-0.530856,0.0,0.0
1870,467.25,42.0055,44.1255,141.096,100.243,105.929,0.00906932,0.0876381,20.9441,59.022,-0.502099,0.0,0.0
1875,468.5,41.6952,43.5908,136.438,100.233,106.167,0.00905104,0.0877221,20.9444,58.9719,-0.523372,0.0,0.0
1880,469.75,41.5978,43.4074,137.042,100.23,106.13,0.00905161,0.0879864,20.9445,58.992,-0.520534,0.0,0.0
1885,471,41.5672,44.2075,139.004,100.245,105.983,0.00905045,0.0881167,20.9446,58.992,-0.506522,0.0,0.0
1890,472.25,41.6615,43.4651,134.678,100.242,106.551,0.00897412,0.0881587,20.9447,58.9719,-0.5554,0.0,0.0
1895,473.5,41.5792,43.5474,140.543,100.239,105.994,0.00888481,0.0880908,20.9447,58.8819,-0.507994,0.0,0.0
1900,474.75,41.7808,43.4814,138.853,100.239,106.282,0.00874588,0.0879887,20.9447,58.9419,-0.532776,0.0,0.0
1905,476,41.6815,43.2176,134.16,100.253,105.945,0.00865725,0.0880136,20.9447,58.9519,-0.502549,0.0,0.0
1910,477.25,41.5837,43.1486,141.249,100.256,105.964,0.00864384,0.0879377,20.9443,58.9219,-0.503919,0.0,0.0
1915,478.5,41.8201,43.2668,133.994,100.253,106.313,0.00869676,0.087612,20.9442,58.8518,-0.534132,0.0,0.0
1920,479.75,41.5183,43.4639,140.117,100.251,105.774,0.00876649,0.0873787,20.9441,58.9219,-0.488056,0.0,0.0
1925,481,41.4917,43.3665,139.756,100.256,105.92,0.00883428,0.087333,20.944,58.9019,-0.50009,0.0,0.0
1930,482.25,41.3809,43.1138,136.228,100.261,106.105,0.00889264,0.0872944,20.944,58.8518,-0.515617,0.0,0.0
1935,483.5,41.5437,43.1026,140.109,100.263,106.442,0.00891172,0.0871391,20.9439,58.8118,-0.54424,0.0,0.0
1940,484.75,40.969,42.887,134.91,100.272,106.336,0.00886625,0.0870361,20.9449,58.8718,-0.534321,0.0,0.0
1945,486,41.5623,42.7071,137.209,100.275,105.833,0.00878034,0.0870732,20.9454,58.8518,-0.490917,0.0,0.0
1950,487.25,41.1842,42.786,136.341,100.272,105.829,0.00867679,0.0869737,20.9457,58.7718,-0.490786,0.0,0.0
1955,488.5,41.5558,43.1796,135.14,100.276,105.973,0.00856212,0.0865708,20.9463,58.8118,-0.502918,0.0,0.0
1960,489.75,40.9476,42.9895,137.754,100.28,106.238,0.00849764,0.0861885,20.9466,58.8118,-0.525153,0.0,0.0
1965,491,41.5755,43.2115,136.126,100.3,105.931,0.00850166,0.0859913,20.9468,58.8018,-0.49707,0.0,0.0
1970,492.25,41.4163,42.8711,135.319,100.279,105.955,0.00859981,0.0861153,20.9469,58.7117,-0.501006,0.0,0.0
1975,493.5,41.2426,42.879,134.677,100.294,105.977,0.00871673,0.0862605,20.947,58.7818,-0.501524,0.0,0.0
1980,494.75,41.2251,43.0716,135.107,100.294,106.343,0.00883745,0.0863825,20.9469,58.7818,-0.532981,0.0,0.0
1985,496,41.2406,42.5927,136.571,100.309,106.368,0.00895161,0.0865206,20.9467,58.7617,-0.533724,0.0,0.0
1990,497.25,41.4005,42.7404,139.221,100.296,106.101,0.00903483,0.0864806,20.9464,58.6817,-0.51197,0.0,0.0
1995,498.5,41.2206,42.399,136.092,100.317,105.937,0.00909008,0.0862933,20.9461,58.7417,-0.496091,0.0,0.0
2000,499.75,41.6421,42.5147,143.487,100.322,106.169,0.00909068,0.086048,20.9459,58.7317,-0.515484,0.0,0.0
2005,501,41.149,42.799,136.445,100.321,106.023,0.00905096,0.0858609,20.9457,58.7017,-0.503076,0.0,0.0
2010,502.25,41.0498,42.5398,138.087,100.329,106.132,0.00891085,0.0857246,20.9457,58.6917,-0.51174,0.0,0.0
2015,503.5,41.699,42.5232,134.517,100.348,106.192,0.00875952,0.0855093,20.9456,58.7217,-0.515136,0.0,0.0
2020,504.75,41.1934,42.4579,137.791,100.347,106.474,0.00865664,0.0853739,20.9456,58.7117,-0.539369,0.0,0.0
2025,506,41.2634,42.2225,139.396,100.338,106.182,0.00861836,0.0853552,20.9456,58.6617,-0.515192,0.0,0.0
2030,507.25,41.015,42.2041,138.141,100.358,106.401,0.00859484,0.0854758,20.9448,58.7017,-0.532043,0.0,0.0
2035,508.5,40.9925,42.3646,142.469,100.37,106.456,0.00855906,0.085747,20.9444,58.6917,-0.535691,0.0,0.0
2040,509.75,41.0014,42.8557,134.432,100.374,106.434,0.00853626,0.0858559,20.9443,58.6817,-0.533442,0.0,0.0
2045,511,40.9999,42.4114,137.117,100.369,106.349,0.00856298,0.0857999,20.9442,58.6016,-0.526674,0.0,0.0
2050,512.25,41.0947,42.382,139.024,100.383,106.278,0.00863498,0.0857476,20.9442,58.6516,-0.519281,0.0,0.0
2055,513.5,41.1706,42.2462,137.619,100.39,106.404,0.00867462,0.0859483,20.9441,58.6416,-0.529492,0.0,0.0
2060,514.75,41.3917,42.0739,133.508,100.388,106.41,0.00865563,0.086203,20.9441,58.6316,-0.530174,0.0,0.0
2065,516,41.2687,42.2868,136.293,100.388,105.31,0.00853386,0.0866054,20.9441,58.5416,-0.435603,0.0,0.0
2070,517.25,41.2719,42.3293,138.744,100.392,106.094,0.00842172,0.0869589,20.9441,58.6016,-0.502662,0.0,0.0
2075,518.5,41.3499,42.2197,139.943,100.387,106.195,0.00835375,0.0870965,20.9442,58.5916,-0.511819,0.0,0.0
2080,519.75,40.734,41.7601,136.29,100.367,106.227,0.00838702,0.0870956,20.9443,58.5516,-0.516443,0.0,0.0
2085,521,40.6234,41.9552,136.598,100.36,106.11,0.00853086,0.0869261,20.9443,58.5115,-0.507024,0.0,0.0
2090,522.25,40.886,41.9362,139.702,100.351,106.065,0.00867979,0.0868723,20.9444,58.5716,-0.503993,0.0,0.0
2095,523.5,41.3281,42.6031,134.904,100.329,106.097,0.00883288,0.086869,20.9444,58.5616,-0.508728,0.0,0.0
2100,524.75,41.2897,42.1233,139.591,100.295,106.107,0.00893339,0.0868715,20.9444,58.4815,-0.512695,0.0,0.0
2105,526,41.0418,42.3413,140.486,100.277,106.432,0.00897306,0.0868401,20.945,58.5015,-0.542091,0.0,0.0
2110,527.25,40.7968,42.16,136.523,100.262,106.247,0.00896446,0.0867607,20.9449,58.5315,-0.527591,0.0,0.0
2115,528.5,41.4642,41.8242,136.38,100.217,106.166,0.00894042,0.086554,20.9457,58.5315,-0.524783,0.0,0.0
2120,529.75,41.0666,42.1816,137.841,100.166,105.97,,0.0862085,,58.4315,-0.512541,0.0,0.0
2125,531,40.9491,42.3334,137.494,100.136,106.274,,0.0859582,,58.5015,-0.541366,0.0,0.0
2130,532.25,40.6665,41.8075,136.205,100.088,105.487,,,,58.5015,-0.478101,0.0,0.0
2135,533.5,41.075,41.9132,138.303,100.05,105.848,,,,58.4815,-0.512654,0.0,0.0
2140,534.75,41.0917,42.2218,135.542,99.9707,105.885,,,,58.4114,-0.52306,0.0,0.0
2145,536,40.8316,41.903,138.038,99.9615,106.076,,,,58.4615,-0.540251,0.0,0.0
2150,537.25,41.1828,41.7956,136.473,99.987,105.648,,,,58.4415,-0.501189,0.0,0.0
2155,538.5,40.4715,41.7898,138.427,99.9962,105.821,,,,58.4415,-0.515197,0.0,0.0
2159,539.5,40.6556,41.9208,137.135,100.01,106.261,,,,58.4315,-0.551718,0.0,0.0