File: 01_Data/FDNY_LDF/Cone/FDNY_LDF_Cone_HF75Scan_220913_R3.csv
Names,Time,Stack TC,Smoke TC,Exh Press,Smoke Comp,Smoke Meas,CO Meter,CO2 Meter,O2 Meter,Sample Mass,Ext Coeff,Start Test,Flame Verif
Chan Gain,,500,500,1,1,1,1,1,1,1,1,1.0,1.0
Offset,,0,0,0.139139,0,0,0,0,0,0,0,0.0,0.0
Gain,,1,1,25.011,13.0826,14.7555,1,1,1,1.00088,1.03743,1.0,1.0
Units,sec,C,C,Pa,%,%,%,%,%,g,/m,,
Baseline,,63.773,65.4052,133.076,97.2982,100.672,0.000791645,0.0498316,20.9831,-449.568,-0.310073,,
3,0.5,62.4821,64.3018,134.699,97.5404,100.287,0.00167467,0.0561294,20.9728,75.7968,-0.252737,0.0,0.0
6,1.25,61.003,62.5762,132.466,97.5588,99.941,0.00184956,0.0605522,20.9722,75.6766,-0.219547,0.0,0.0
9,2,61.2882,62.7747,133.525,97.5636,97.6067,0.00197706,0.0655588,20.9642,75.5766,-0.00401859,0.0,0.0
12,2.75,61.0234,63.2566,124.19,97.5672,99.511,0.00219336,0.0942828,20.9426,75.4565,-0.179522,0.0,1.0
15,3.5,60.9509,63.1277,116.217,97.5752,98.8792,0.00245666,0.136875,20.8999,75.2863,-0.120817,0.0,1.0
18,4.25,61.8863,63.2011,113.803,97.5855,96.8848,0.00273928,0.177155,20.8294,75.1262,0.0655793,0.0,1.0
21,5,62.1881,63.2291,119.279,97.6039,96.6367,0.00310767,0.223814,20.7497,75.1362,0.0906271,0.0,1.0
24,5.75,63.9838,64.1279,108.572,97.6175,95.1917,0.00345729,0.287401,20.6794,74.966,0.228999,0.0,1.0
27,6.5,65.5342,64.6822,113.474,97.6115,93.9808,0.00385077,0.3564,20.5965,74.8259,0.34494,0.0,1.0
30,7.25,66.5998,65.7084,110.432,97.6131,93.6647,0.00422646,0.415592,20.5318,74.6658,0.37575,0.0,1.0
33,8,66.5947,65.1244,111.612,97.6167,93.6999,0.00456672,0.462534,20.4775,74.5156,0.372674,0.0,1.0
36,8.75,67.8033,66.5063,111.672,97.6259,93.6863,0.00486353,0.505386,20.4309,74.4456,0.374843,0.0,1.0
39,9.5,69.4324,66.7174,116.609,97.6239,93.5657,0.00512595,0.538102,20.3934,74.2754,0.386386,0.0,0.0
42,10.25,70.6461,68.1464,109.141,97.6402,93.0505,0.00536149,0.564478,20.3636,74.1253,0.438154,0.0,0.0
45,11,71.772,68.662,110.891,97.641,93.0235,0.00556554,0.585214,20.3415,74.0052,0.44087,0.0,0.0
48,11.75,72.9984,69.8922,111.246,97.6602,92.6353,0.00572807,0.600657,20.3254,73.9251,0.480709,0.0,0.0
51,12.5,73.7733,70.9727,114.948,97.675,92.8119,0.00588937,0.611925,20.3137,73.7249,0.464761,0.0,0.0
54,13.25,74.9943,70.9866,111.314,97.6722,92.3643,0.0060252,0.619919,20.3052,73.5648,0.508495,0.0,0.0
57,14,75.8883,72.4597,111.588,97.6798,93.273,0.00617414,0.624412,20.3009,73.4547,0.420107,0.0,0.0
60,14.75,76.6647,73.2463,113.349,97.6981,93.4247,0.00632033,0.626976,20.299,73.3346,0.407025,0.0,0.0
63,15.5,77.6685,74.181,115.776,97.7065,93.001,0.00646139,0.627627,20.2985,73.1544,0.449174,0.0,0.0
66,16.25,78.2442,74.9699,113.058,97.7309,92.6642,0.00659577,0.626871,20.3006,72.9643,0.484462,0.0,0.0
69,17,79.3243,75.5803,114.006,97.7229,94.3555,0.00673266,0.625796,20.3035,72.9542,0.319114,0.0,0.0
72,17.75,79.5756,76.4211,115.83,97.7381,92.8132,0.00683895,0.623521,20.3067,72.8742,0.470505,0.0,0.0
75,18.5,81.0077,76.9529,111.862,97.7472,92.8258,0.0069192,0.620605,20.3098,72.7241,0.470123,0.0,0.0
78,19.25,81.1994,77.8395,115.007,97.7373,90.8413,0.00696288,0.617461,20.3138,72.5639,0.665855,0.0,0.0
81,20,81.6717,78.5404,109.218,97.748,91.9396,0.00697133,0.614735,20.3184,72.4438,0.557494,0.0,0.0
84,20.75,82.7317,78.6045,115.823,97.7624,91.682,0.00696866,0.610903,20.3219,72.3537,0.584363,0.0,0.0
87,21.5,82.9555,79.1081,116.897,97.7808,93.0082,0.00693038,0.606249,20.3282,72.2837,0.455383,0.0,0.0
90,22.25,83.4865,79.9397,112.444,97.786,92.48,0.00689564,0.602063,20.3337,72.1035,0.507695,0.0,0.0
93,23,83.7403,80.6612,112.819,97.784,92.9699,0.00685864,0.596569,20.3409,72.0034,0.459427,0.0,0.0
96,23.75,84.3607,80.7223,111.88,97.7943,92.2602,0.00683907,0.592509,20.3461,71.8633,0.530126,0.0,0.0
99,24.5,84.9804,81.4176,117.131,97.8115,92.9965,0.0068248,0.587817,20.3517,71.8032,0.45939,0.0,0.0
102,25.25,85.0487,82.0678,114.548,97.8139,92.865,0.00683128,0.582063,20.3575,71.6631,0.472488,0.0,0.0
105,26,85.7315,82.4985,116.624,97.8291,92.6772,0.00684319,0.576201,20.3632,71.563,0.49232,0.0,0.0
108,26.75,85.935,83.2573,116.497,97.8447,93.5139,0.00685373,0.571218,20.3696,71.3829,0.411982,0.0,0.0
111,27.5,86.2074,83.4755,114.735,97.8626,94.4298,0.00686011,0.566794,20.3757,71.3729,0.324954,0.0,0.0
114,28.25,86.7673,83.9873,117.166,97.8698,93.8399,0.00686421,0.562216,20.381,71.1427,0.382649,0.0,0.0
117,29,87.0189,84.0541,116.629,97.8846,93.6057,0.0068598,0.558091,20.3867,71.0125,0.40676,0.0,0.0
120,29.75,86.9858,85.0384,123.067,97.8962,93.7336,0.00684732,0.554748,20.3913,71.0025,0.395412,0.0,0.0
123,30.5,87.2893,85.0602,114.654,97.9225,92.8758,0.00683549,0.551274,20.3962,70.9425,0.481528,0.0,0.0
126,31.25,87.8022,84.9671,119.973,97.9261,94.6644,0.00682219,0.547633,20.401,70.7123,0.308274,0.0,0.0
129,32,88.0555,85.7548,114.335,97.9337,94.2821,0.0068199,0.543657,20.4071,70.5722,0.345806,0.0,0.0
132,32.75,88.0506,86.3574,120.221,97.9557,93.4779,0.00681824,0.539305,20.4127,70.4921,0.425806,0.0,0.0
135,33.5,88.8573,86.0506,116.073,97.974,94.1839,0.00681904,0.533841,20.4198,70.432,0.359032,0.0,0.0
138,34.25,88.9002,86.5676,119.769,97.9748,94.0741,0.00680636,0.528636,20.4227,70.3419,0.369729,0.0,0.0
141,35,89.0121,86.7074,123.268,97.9908,95.1165,0.00677504,0.52432,20.4279,70.2519,0.270925,0.0,0.0
144,35.75,88.9545,87.332,112.618,97.9984,94.4582,0.00669858,0.519677,20.4323,70.1017,0.334834,0.0,0.0
147,36.5,89.4314,87.4055,117.164,98.0163,95.0062,0.00661305,0.514812,20.4365,70.0317,0.283859,0.0,0.0
150,37.25,89.329,87.7946,119.542,98.0351,94.1024,0.00652504,0.512281,20.442,69.9516,0.372583,0.0,0.0
153,38,89.0205,87.9775,121.261,98.0419,95.0066,0.00645536,0.508074,20.4477,69.8215,0.286187,0.0,0.0
156,38.75,89.5938,88.0683,120.368,98.0503,95.6096,0.00639349,0.503895,20.4531,69.7214,0.229394,0.0,0.0
159,39.5,89.2851,88.4695,114.308,98.0778,94.5599,0.00633612,0.499882,20.4577,69.7314,0.33241,0.0,0.0
162,40.25,89.2651,88.5463,115.324,98.0974,94.1078,0.00627334,0.495352,20.4635,69.5512,0.377839,0.0,0.0
165,41,90.1557,89.0044,120.677,98.1026,95.3961,0.00617778,0.490965,20.468,69.4111,0.254584,0.0,0.0
168,41.75,90.1314,89.4201,119.192,98.109,94.7333,0.00608432,0.487305,20.4717,69.3211,0.318631,0.0,0.0
171,42.5,89.8938,89.6137,117.828,98.1333,95.6767,0.0059755,0.483149,20.4757,69.251,0.230713,0.0,0.0
174,43.25,89.6355,89.8217,119.216,98.1533,96.7011,0.005852,0.479697,20.4799,69.1509,0.135642,0.0,0.0
177,44,90.2036,90.1831,119.142,98.1573,95.1386,0.00574254,0.476457,20.4835,68.9807,0.284262,0.0,0.0
180,44.75,89.9818,90.1872,115.544,98.1593,95.882,0.00565446,0.47342,20.4868,68.8907,0.21361,0.0,0.0
183,45.5,90.5101,90.6905,117.595,98.178,96.2684,0.00558106,0.470716,20.4899,68.8006,0.178754,0.0,0.0
186,46.25,90.4389,90.6281,115.115,98.2064,97.2924,0.00552144,0.468535,20.4925,68.7305,0.0850928,0.0,0.0
189,47,90.7345,90.5086,119.914,98.2124,96.4755,0.00546755,0.46539,20.4951,68.5704,0.162375,0.0,0.0
192,47.75,90.3966,90.8087,119.841,98.2044,96.4877,0.00542825,0.461995,20.4982,68.4503,0.160489,0.0,0.0
195,48.5,90.5226,91.2206,118.247,98.2267,96.5714,0.00535,0.459051,20.5016,68.3702,0.154664,0.0,0.0
198,49.25,90.7531,90.9789,115.589,98.2527,96.9758,0.00526079,0.455673,20.5053,68.3001,0.119043,0.0,0.0
201,50,90.7396,91.2455,116.359,98.2571,97.377,0.0051685,0.45321,20.5092,68.14,0.0818756,0.0,0.0
204,50.75,90.6626,91.4662,116.271,98.2611,96.4517,0.00507807,0.45007,20.514,68.0199,0.16914,0.0,0.0
207,51.5,91.22,91.1907,117.217,98.2707,96.7817,0.00498832,0.446598,20.5196,67.9498,0.138937,0.0,0.0
210,52.25,90.9861,91.6651,114.786,98.2942,95.7866,0.00491004,0.443022,20.5254,67.8998,0.235178,0.0,0.0
213,53,91.0462,92.1519,123.83,98.3034,97.3401,0.00483067,0.438692,20.5323,67.8097,0.0896164,0.0,0.0
216,53.75,90.8159,92.3191,119.804,98.3102,96.8745,0.00480062,0.434773,20.5353,67.7196,0.133879,0.0,0.0
219,54.5,91.205,92.1714,119.316,98.3238,96.7322,0.0047659,0.431239,20.5393,67.6195,0.148512,0.0,0.0
222,55.25,91.3736,92.2682,121.016,98.3457,97.7944,0.00472593,0.428058,20.5431,67.5195,0.0511548,0.0,0.0
225,56,90.9878,92.5804,119.442,98.3585,97.5621,0.00468395,0.423683,20.5467,67.4294,0.073984,0.0,0.0
228,56.75,91.6121,92.7633,117.598,98.3577,98.2542,0.00463842,0.421884,20.5502,67.2893,0.00957952,0.0,0.0
231,57.5,90.8352,92.8032,121.612,98.3745,97.7179,0.00458906,0.418771,20.554,67.2192,0.0609403,0.0,0.0
234,58.25,91.3371,92.717,121.944,98.382,97.0996,0.00451099,0.415673,20.5585,67.0691,0.119403,0.0,0.0
237,59,91.3017,93.4353,118.346,98.4112,98.8671,0.00441564,0.412753,20.5628,66.979,-0.0420587,0.0,0.0
240,59.75,91.2057,93.2982,116.457,98.3908,98.5501,0.00432974,0.409753,20.5663,66.949,-0.0147153,0.0,0.0
243,60.5,91.0576,93.1458,121.986,98.4084,98.4267,0.00421847,0.406921,20.5698,66.8288,-0.0016898,0.0,0.0
246,61.25,91.0603,92.9799,120.141,98.4156,98.3231,0.00410383,0.404408,20.5727,66.6987,0.00855537,0.0,0.0
249,62,91.25,92.8939,121.003,98.42,98.2668,0.00399839,0.402279,20.5748,66.6487,0.0141732,0.0,0.0
252,62.75,91.1201,93.6027,114.789,98.4048,98.2267,0.00389418,0.400241,20.5772,66.5486,0.0164822,0.0,0.0
255,63.5,90.9338,93.2918,120.667,98.4296,99.0589,0.00381182,0.398547,20.5803,66.3985,-0.0580004,0.0,0.0
258,64.25,91.052,93.7399,121.121,98.4411,99.0931,0.00374906,0.395585,20.5842,66.3284,-0.0600734,0.0,0.0
261,65,91.2516,93.7284,122.273,98.4399,99.3448,0.00369966,0.392476,20.5879,66.2884,-0.0832714,0.0,0.0
264,65.75,90.7495,94.0914,122.462,98.4328,98.9175,0.00366364,0.389806,20.5914,66.1683,-0.0447058,0.0,0.0
267,66.5,90.7415,93.5952,119.783,98.418,99.4705,0.00364524,0.386927,20.5938,66.0782,-0.0968029,0.0,0.0
270,67.25,90.7859,93.622,120.17,98.4088,99.1422,0.0036233,0.384519,20.5965,65.9981,-0.06757,0.0,0.0
273,68,90.452,93.4978,118.01,98.4244,100.037,0.00360616,0.382632,20.5992,65.9481,-0.147932,0.0,0.0
276,68.75,90.6504,93.7079,116.359,98.4244,99.3093,0.00359002,0.380792,20.6011,65.838,-0.0814514,0.0,0.0
279,69.5,90.1551,93.4913,119.618,98.4196,99.3791,0.00356421,0.379608,20.6025,65.7379,-0.0882886,0.0,0.0
282,70.25,90.4234,93.4354,119.621,98.4292,98.9769,0.0035394,0.377928,20.6044,65.6178,-0.0505052,0.0,0.0
285,71,90.5111,93.8443,122.101,98.4383,99.09,0.00351258,0.376139,20.6067,65.6278,-0.0600428,0.0,0.0
288,71.75,90.015,93.9275,121.371,98.4375,99.6781,0.00347742,0.374325,20.6093,65.4877,-0.113967,0.0,0.0
291,72.5,90.2423,93.58,119.926,98.4288,99.4115,0.00345064,0.372542,20.6112,65.3976,-0.0904091,0.0,0.0
294,73.25,90.1559,94.0463,122.578,98.428,99.7024,0.00342929,0.371242,20.6143,65.2975,-0.117072,0.0,0.0
297,74,90.5079,93.9115,123.29,98.4439,100.214,0.00341373,0.368692,20.6174,65.2675,-0.162208,0.0,0.0
300,74.75,90.2022,94.0355,121.52,98.4443,99.2305,0.00340239,0.366427,20.62,65.1774,-0.0723829,0.0,0.0
303,75.5,90.1331,93.698,122.841,98.4559,99.1854,0.00339412,0.364601,20.6222,65.0473,-0.0671815,0.0,0.0
306,76.25,90.2711,93.8141,121.472,98.4623,99.7947,0.00339902,0.363271,20.6237,64.9272,-0.12232,0.0,0.0
309,77,90.2274,93.8583,118.677,98.4619,99.7987,0.00340259,0.361793,20.6249,64.8571,-0.122726,0.0,0.0
312,77.75,90.2889,93.8641,121.313,98.4787,100.039,0.00338987,0.360716,20.6266,64.7871,-0.143036,0.0,0.0
315,78.5,89.9803,93.8429,122.728,98.4683,100.043,0.003364,0.35834,20.6295,64.6469,-0.144364,0.0,0.0
318,79.25,90.0311,93.6665,120.941,98.4715,99.7866,0.00332792,0.356306,20.6316,64.5569,-0.120732,0.0,0.0
321,80,89.7906,93.7222,119.202,98.4954,100.147,0.00327995,0.354308,20.6336,64.5368,-0.151354,0.0,0.0
324,80.75,89.8118,93.7933,119.984,98.4986,101.028,0.00323573,0.352635,20.6352,64.4768,-0.230705,0.0,0.0
327,81.5,89.8253,93.8977,125.898,98.4811,99.9784,0.00315988,0.351449,20.6364,64.3667,-0.137324,0.0,0.0
330,82.25,89.4323,94.2834,123.192,98.4914,100.079,0.00309989,0.350687,20.6373,64.2466,-0.145542,0.0,0.0
333,83,89.7945,93.7056,121.284,98.5046,100.321,0.00304814,0.350284,20.6379,64.1865,-0.166246,0.0,0.0
336,83.75,89.3588,93.861,116.711,98.5142,100.489,0.0030195,0.350107,20.6384,64.1065,-0.180584,0.0,0.0
339,84.5,89.3505,93.2455,118.423,98.5146,100.597,0.00301678,0.350029,20.6387,64.0364,-0.190329,0.0,0.0
342,85.25,89.8455,93.7859,120.702,98.5178,101.134,0.00302499,0.349612,20.639,63.9663,-0.238502,0.0,0.0
345,86,89.3209,94.1295,123.128,98.5274,100.094,0.00303533,0.349055,20.6391,63.8362,-0.143574,0.0,0.0
348,86.75,89.2662,93.7786,121.201,98.5362,100.42,0.00302502,0.348542,20.6395,63.7461,-0.172314,0.0,0.0
351,87.5,89.4456,93.9492,120.974,98.5314,100.333,0.00300991,0.348168,20.6402,63.6661,-0.164878,0.0,0.0
354,88.25,89.386,93.7327,120.218,98.5322,100.863,0.00296579,0.347967,20.6407,63.626,-0.212749,0.0,0.0
357,89,89.5412,93.6884,119.721,98.5298,100.515,0.00290813,0.347785,20.641,63.5259,-0.181511,0.0,0.0
360,89.75,89.3496,93.9867,118.256,98.5425,100.712,0.00284663,0.347592,20.6413,63.4759,-0.198169,0.0,0.0
363,90.5,89.5696,93.447,121.552,98.5481,100.841,0.0027891,0.347115,20.6415,63.3758,-0.209324,0.0,0.0
366,91.25,89.6288,94.1895,119.577,98.5449,100.197,0.00275225,0.346624,20.6416,63.2457,-0.151321,0.0,0.0
369,92,89.3437,94.2726,121.664,98.5485,100.388,0.00273157,0.346099,20.6417,63.1656,-0.168273,0.0,0.0
372,92.75,89.0043,93.8409,121.053,98.5533,100.684,0.00272336,0.345867,20.6418,63.0655,-0.19461,0.0,0.0
375,93.5,89.009,93.8382,122.022,98.5601,101.349,0.00271269,0.346019,20.6418,62.9655,-0.253901,0.0,0.0
378,94.25,89.4356,93.9407,123.536,98.5525,100.722,0.0026969,0.346568,20.6416,62.9154,-0.198184,0.0,0.0
381,95,89.2638,93.7631,118.621,98.5541,100.411,0.00267335,0.347641,20.6414,62.8353,-0.169839,0.0,0.0
384,95.75,89.2528,94.2828,120.947,98.5625,100.969,0.00264687,0.348423,20.6413,62.7553,-0.219531,0.0,0.0
387,96.5,88.9272,93.733,121.912,98.5593,100.771,0.00261246,0.349381,20.641,62.6652,-0.20195,0.0,0.0
390,97.25,89.4008,93.9763,125.007,98.5521,100.701,0.00258576,0.350432,20.6403,62.5751,-0.196308,0.0,0.0
393,98,89.3697,94.1358,122.591,98.5533,100.541,0.0025826,0.351517,20.639,62.5151,-0.18174,0.0,0.0
396,98.75,89.1612,93.7998,124.156,98.5609,101.027,0.00258231,0.352481,20.6376,62.455,-0.224912,0.0,0.0
399,99.5,88.6853,93.8753,120.767,98.5601,101.132,0.00258553,0.354121,20.6353,62.3649,-0.234432,0.0,0.0
402,100.25,88.9667,94.2036,119.972,98.5501,99.4831,0.00258063,0.356539,20.6311,62.2248,-0.0857454,0.0,0.0
405,101,89.4814,94.0172,123.978,98.5465,100.761,0.00257886,0.358822,20.6272,62.1647,-0.202235,0.0,0.0
408,101.75,89.5781,93.5215,123.812,98.5621,100.44,0.00257758,0.361922,20.6239,62.0747,-0.171795,0.0,0.0
411,102.5,89.727,94.2818,115.475,98.5601,99.6465,0.00259345,0.365036,20.622,62.0246,-0.0997643,0.0,0.0
414,103.25,89.3869,93.7937,121.693,98.5505,100.812,0.0026225,0.368204,20.6196,61.9245,-0.206461,0.0,0.0
417,104,89.7218,94.0024,118.471,98.5477,100.932,0.002662,0.371424,20.6152,61.8244,-0.217566,0.0,0.0
420,104.75,89.3294,93.7099,117.298,98.5445,99.3813,0.00273618,0.375081,20.6107,61.7344,-0.0769477,0.0,0.0
423,105.5,89.5051,93.9954,123.41,98.5453,99.8298,0.00283231,0.377342,20.6061,61.6743,-0.11785,0.0,0.0
426,106.25,89.5918,94.4355,116.253,98.5505,100.509,0.00293844,0.381483,20.6016,61.5742,-0.179104,0.0,0.0
429,107,89.385,94.1613,120.151,98.5433,99.6709,0.0030468,0.385249,20.5974,61.4641,-0.103533,0.0,0.0
432,107.75,89.8431,94.0372,117.936,98.5397,100.053,0.00313735,0.388733,20.5931,61.364,-0.138704,0.0,0.0
435,108.5,89.6907,94.3907,121.561,98.5505,100.101,0.0032083,0.391994,20.5883,61.274,-0.142049,0.0,0.0
438,109.25,89.7314,94.8493,121.876,98.5585,100.041,0.0032447,0.39589,20.5844,61.2039,-0.135906,0.0,0.0
441,110,89.6553,94.9316,117.483,98.5382,98.9279,0.00326471,0.399119,20.581,61.0938,-0.0359199,0.0,0.0
444,110.75,90.0212,94.6244,118.066,98.5322,99.5335,0.0032793,0.402137,20.578,60.9637,-0.0920165,0.0,0.0
447,111.5,89.8649,94.6734,120.974,98.5366,99.7407,0.00330813,0.404578,20.5754,60.9737,-0.11053,0.0,0.0
450,112.25,90.3445,94.8684,121.085,98.5421,99.7186,0.00333923,0.406768,20.5731,60.8636,-0.108001,0.0,0.0
453,113,90.5681,95.045,118.014,98.5242,99.3498,0.00337914,0.408944,20.5695,60.7435,-0.0759413,0.0,0.0
456,113.75,90.0927,95.0345,119.698,98.5274,100.404,0.00343192,0.411122,20.5665,60.6234,-0.171656,0.0,0.0
459,114.5,90.4272,94.9291,115.975,98.5246,99.3286,0.00347678,0.413296,20.5636,60.5633,-0.0739648,0.0,0.0
462,115.25,90.2931,95.0604,116.187,98.5278,99.0323,0.00351221,0.415939,20.5607,60.4833,-0.046484,0.0,0.0
465,116,91.022,95.1998,119.881,98.511,100.426,0.00353165,0.418681,20.5586,60.3632,-0.175167,0.0,0.0
468,116.75,90.8558,95.1743,118.148,98.5034,98.3785,0.00354617,0.421363,20.5541,60.3031,0.0115484,0.0,0.0
471,117.5,90.5245,95.2449,112.856,98.5034,99.4277,0.00353934,0.423894,20.5521,60.213,-0.084992,0.0,0.0
474,118.25,90.9378,95.8165,115.104,98.517,99.2732,0.00351591,0.426184,20.5492,60.1029,-0.0695899,0.0,0.0
477,119,90.8976,95.4611,117.522,98.505,99.5223,0.0034911,0.428043,20.5471,60.0329,-0.093495,0.0,0.0
480,119.75,91.0132,95.7409,117.095,98.4954,99.5065,0.00347509,0.430392,20.5454,59.9228,-0.0929388,0.0,0.0
483,120.5,91.4067,95.8161,117.451,98.5014,99.6407,0.00347261,0.432092,20.541,59.8327,-0.10465,0.0,0.0
486,121.25,91.179,95.5914,117.969,98.5002,98.7423,0.0035036,0.435017,20.5346,59.7526,-0.0223409,0.0,0.0
489,122,91.6817,96.3096,120.829,98.495,99.3998,0.00354535,0.438793,20.5273,59.6625,-0.0832112,0.0,0.0
492,122.75,91.7893,96.2046,121.261,98.4843,98.8927,0.00358396,0.444353,20.5195,59.5524,-0.0376676,0.0,0.0
495,123.5,91.9353,95.8594,115.967,98.4874,98.1889,0.00361723,0.449162,20.5132,59.4423,0.0276258,0.0,0.0
498,124.25,92.0276,95.8373,113.798,98.4874,97.8494,0.0036376,0.453959,20.5073,59.3823,0.0591492,0.0,0.0
501,125,91.6916,96.3166,116.58,98.4886,98.3303,0.0036421,0.458523,20.5018,59.3222,0.0146412,0.0,0.0
504,125.75,92.2191,96.4408,117.639,98.4791,98.1754,0.00363991,0.462489,20.4974,59.2021,0.0281038,0.0,0.0
507,126.5,92.0876,96.522,118.43,98.4703,98.7784,0.00365493,0.465653,20.493,59.092,-0.028427,0.0,0.0
510,127.25,92.071,96.9907,115.003,98.4683,98.2326,0.00369316,0.468877,20.4882,59.042,0.0218084,0.0,0.0
513,128,92.6865,96.8247,119.927,98.4791,98.4663,0.00375557,0.472315,20.4821,58.9619,0.00117914,0.0,0.0
516,128.75,92.3628,97.0509,118.138,98.4527,97.8778,0.00385365,0.475556,20.4775,58.8418,0.0533013,0.0,0.0
519,129.5,92.742,96.8098,115.747,98.4587,97.7179,0.00394756,0.478666,20.4737,58.7718,0.0687291,0.0,0.0
522,130.25,92.7246,96.8891,115.91,98.4543,96.7705,0.00405321,0.481591,20.4711,58.6617,0.156988,0.0,0.0
525,131,93.17,97.5708,121.835,98.4671,96.2522,0.00415216,0.483655,20.4693,58.5716,0.20704,0.0,0.0
528,131.75,93.0869,97.3483,119.235,98.4491,96.122,0.00423468,0.485043,20.468,58.4315,0.217692,0.0,0.0
531,132.5,93.3333,97.6975,117.701,98.4447,95.728,0.00430217,0.486242,20.4652,58.3514,0.254666,0.0,0.0
534,133.25,93.2064,97.4033,111.672,98.4515,95.8509,0.00436163,0.487435,20.4622,58.2513,0.243614,0.0,0.0
537,134,93.6236,97.5801,118.455,98.4595,94.5257,0.00440935,0.489157,20.4597,58.1712,0.371051,0.0,0.0
540,134.75,94.0409,98.1485,116.485,98.4527,93.8084,0.00447345,0.491039,20.4565,58.0311,0.439747,0.0,0.0
543,135.5,93.9155,98.0553,116.561,98.4399,94.1339,0.00453816,0.492863,20.4538,57.941,0.407038,0.0,0.0
546,136.25,94.2783,97.9592,118.057,98.4387,94.0596,0.004593,0.494723,20.4509,57.8509,0.414113,0.0,0.0
549,137,93.8672,98.271,114.98,98.4463,92.1927,0.00465315,0.496395,20.4485,57.8209,0.597258,0.0,0.0
552,137.75,94.4445,97.8892,117.064,98.4296,93.4535,0.00469956,0.498014,20.4462,57.6508,0.472094,0.0,0.0
555,138.5,94.5888,98.2888,116.944,98.4316,93.3117,0.00473449,0.499648,20.4442,57.6007,0.486102,0.0,0.0
558,139.25,94.7145,98.5436,113.249,98.4335,91.8743,0.00476374,0.501979,20.4427,57.4906,0.627558,0.0,0.0
561,140,94.4519,99.6773,113.835,98.4391,91.2673,0.00478667,0.504165,20.4398,57.4506,0.688399,0.0,0.0
564,140.75,94.9962,98.8371,118.02,98.4491,92.6313,0.00481624,0.507445,20.4356,57.3205,0.554327,0.0,0.0
567,141.5,94.7092,99.2423,113.388,98.4363,89.6768,0.0048426,0.510331,20.4301,57.2104,0.848125,0.0,0.0
570,142.25,95.0618,99.5628,114.647,98.4347,92.2782,0.00485527,0.513279,20.4268,57.1403,0.587746,0.0,0.0
573,143,95.3881,99.3817,119.958,98.4447,91.0845,0.0048699,0.515428,20.4226,57.0703,0.707164,0.0,0.0
576,143.75,95.2375,99.5493,119.138,98.4623,92.0675,0.00488057,0.518235,20.4187,56.9602,0.6111,0.0,0.0
579,144.5,95.5233,99.9848,114.683,98.4399,91.7608,0.00490669,0.520622,20.415,56.81,0.639395,0.0,0.0
582,145.25,95.5271,99.9887,114.828,98.4335,91.5987,0.00493731,0.522044,20.4119,56.73,0.654895,0.0,0.0
585,146,95.8279,99.7102,115.037,98.4383,92.1427,0.00498286,0.523814,20.4097,56.6799,0.601455,0.0,0.0
588,146.75,95.988,100.241,114.999,98.4483,90.8319,0.00504736,0.525181,20.408,56.5798,0.732771,0.0,0.0
591,147.5,96.1493,100.639,114.14,98.4304,92.2085,0.00515319,0.52613,20.4068,56.4797,0.594226,0.0,0.0
594,148.25,96.381,99.7119,117.553,98.4352,91.1079,0.00527421,0.526685,20.4057,56.3696,0.703938,0.0,0.0
597,149,96.222,100.468,118.693,98.4467,90.7292,0.00538113,0.527117,20.4045,56.2495,0.742914,0.0,0.0
600,149.75,96.706,100.812,118.085,98.4427,91.3096,0.00549038,0.528115,20.4032,56.1795,0.684511,0.0,0.0
603,150.5,96.3496,100.613,114.261,98.4375,90.3001,0.00557002,0.529614,20.402,56.0594,0.785211,0.0,0.0
606,151.25,96.7022,100.83,110.43,98.4292,91.3776,0.00556929,0.53153,20.4,55.9393,0.676483,0.0,0.0
609,152,96.9151,100.848,110.167,98.4335,92.8357,0.00553522,0.533634,20.3981,55.8492,0.532824,0.0,0.0
612,152.75,96.7964,101.43,115.69,98.4415,92.4395,0.00548523,0.535167,20.3966,55.7691,0.57249,0.0,0.0
615,153.5,97.2845,100.871,115.29,98.4399,93.9592,0.00543024,0.536136,20.3956,55.649,0.423944,0.0,0.0
618,154.25,97.3093,101.964,116.959,98.434,92.779,0.00538463,0.536779,20.3966,55.5289,0.538425,0.0,0.0
621,155,97.5454,101.455,119.784,98.4391,93.3945,0.00534881,0.536296,20.399,55.4789,0.478727,0.0,0.0
624,155.75,97.3735,101.54,116.432,98.4423,92.9501,0.00531549,0.535031,20.4024,55.3888,0.522432,0.0,0.0
627,156.5,97.2522,101.932,117.845,98.4363,92.5867,0.00528077,0.533181,20.4068,55.2687,0.557526,0.0,0.0
630,157.25,97.7192,102.04,114.667,98.4204,93.4026,0.0052365,0.530912,20.41,55.1586,0.476202,0.0,0.0
633,158,97.533,102.25,119.626,98.4244,92.9469,0.00517178,0.528153,20.4129,55.0785,0.521079,0.0,0.0
636,158.75,97.6706,102.169,115.011,98.426,92.879,0.00506957,0.525219,20.4168,55.0485,0.527886,0.0,0.0
639,159.5,97.4924,102.425,119.732,98.4308,94.432,0.00497339,0.522686,20.4205,54.9384,0.377415,0.0,0.0
642,160.25,97.7626,102.234,116.21,98.4144,93.9732,0.0048662,0.519073,20.4237,54.8083,0.42023,0.0,0.0
645,161,97.8129,102.036,118.146,98.4248,93.1554,0.00474956,0.515692,20.4272,54.7082,0.500726,0.0,0.0
648,161.75,97.6712,102.527,115.744,98.422,93.9164,0.004638,0.51195,20.4316,54.6481,0.426428,0.0,0.0
651,162.5,97.7552,102.177,114.131,98.4188,93.6742,0.00453936,0.506757,20.4348,54.5881,0.449636,0.0,0.0
654,163.25,97.5743,102.46,118.333,98.4072,93.7872,0.00446745,0.502971,20.4409,54.448,0.437593,0.0,0.0
657,164,97.3773,102.208,122.732,98.4084,94.2213,0.00439491,0.495922,20.4487,54.3879,0.395681,0.0,0.0
660,164.75,97.3564,102.556,121.039,98.4168,95.2156,0.00434204,0.487956,20.4559,54.3178,0.300928,0.0,0.0
663,165.5,97.2134,102.483,114.864,98.418,95.0953,0.0043547,0.480944,20.4674,54.2278,0.312537,0.0,0.0
666,166.25,97.2507,102.353,121.178,98.4052,95.2836,0.00441527,0.471543,20.4798,54.1677,0.29336,0.0,0.0
669,167,96.9399,102.509,120.119,98.4008,95.8374,0.00450972,0.462862,20.4906,54.0776,0.240208,0.0,0.0
672,167.75,96.3544,102.196,119.372,98.4084,94.0376,0.00462717,0.452801,20.5022,54.0376,0.413442,0.0,0.0
675,168.5,96.7696,101.816,123.675,98.4268,94.4059,0.00474765,0.443963,20.5147,53.9675,0.379564,0.0,0.0
678,169.25,95.9552,102.025,120.899,98.4292,95.7186,0.00482391,0.43495,20.5279,53.8474,0.254124,0.0,0.0
681,170,96.4842,101.683,122.25,98.3996,94.5099,0.00487456,0.424024,20.5415,53.8374,0.367031,0.0,0.0
684,170.75,96.2792,101.818,121.984,98.3984,95.4367,0.00483079,0.412454,20.5571,53.7473,0.278122,0.0,0.0
687,171.5,95.2384,101.924,127.084,98.412,96.3382,0.00479889,0.40069,20.5703,53.7273,0.193818,0.0,0.0
690,172.25,95.0799,101.716,120.243,98.4156,96.806,0.0046448,0.389048,20.5832,53.6773,0.150063,0.0,0.0
693,173,95.0805,101.166,123.315,98.4224,95.8298,0.00443429,0.375091,20.5995,53.5872,0.242929,0.0,0.0
696,173.75,94.8043,101.004,124.081,98.406,97.1212,0.00420831,0.364916,20.6154,53.5772,0.119593,0.0,0.0
699,174.5,94.5332,100.53,126.377,98.4156,97.8863,0.00393614,0.349442,20.6338,53.5772,0.0490725,0.0,0.0
702,175.25,94.2423,100.781,126.024,98.414,97.98,0.00367149,0.330959,20.6574,53.5171,0.0402215,0.0,0.0
705,176,93.4325,100.446,127.777,98.4148,99.9374,0.00342352,0.311043,20.683,53.4771,-0.139719,0.0,0.0
708,176.75,93.0134,99.9208,130.107,98.4044,101.166,0.00319696,0.290432,20.7088,53.4571,-0.251898,0.0,0.0
711,177.5,92.3074,99.8483,126.555,98.416,101.482,0.00299011,0.270253,20.7336,53.4571,-0.279139,0.0,0.0
714,178.25,92.0375,99.3656,131.504,98.4092,101.761,0.00283931,0.25117,20.7565,53.4371,-0.304768,0.0,0.0
717,179,91.5826,98.9795,129.886,98.3956,102.392,0.00271127,0.23125,20.7772,53.397,-0.362307,0.0,0.0
720,179.75,91.4651,98.0641,127.315,98.3972,102.488,0.00261666,0.21345,20.7955,53.377,-0.37072,0.0,0.0
723,180.5,90.2813,98.2632,131.667,98.406,102.354,0.00254714,0.199077,20.8115,53.417,-0.357944,0.0,0.0
726,181.25,90.2708,97.7746,124.943,98.4076,102.068,0.00251034,0.18511,20.8205,53.417,-0.332378,0.0,0.0
729,182,89.6092,97.6997,128.205,98.388,102.169,0.00246582,0.173953,20.8353,53.357,-0.343177,0.0,0.0
732,182.75,88.8781,97.4014,130.604,98.4004,102.174,0.00242994,0.164152,20.8463,53.337,-0.342473,0.0,0.0
735,183.5,88.513,96.9087,129.454,98.3952,102.376,0.00239835,0.155449,20.8548,53.377,-0.360903,0.0,0.0
738,184.25,87.7545,96.413,131.043,98.4084,101.675,0.00237786,0.151,20.8628,53.377,-0.297187,0.0,0.0
741,185,86.9714,95.7974,128.739,98.3976,102.412,0.002364,0.144643,20.8687,53.347,-0.363883,0.0,0.0
744,185.75,86.8772,95.3968,131.532,98.4112,102.629,0.0023539,0.139626,20.8734,53.337,-0.381934,0.0,0.0
747,186.5,86.1965,95.1814,130.704,98.396,102.696,0.00235378,0.135698,20.8771,53.337,-0.389284,0.0,0.0
750,187.25,86.0159,95.0553,132.319,98.4124,102.107,0.00235369,0.132649,20.8801,53.357,-0.335428,0.0,0.0
753,188,85.8308,94.0653,129.261,98.4004,102.216,0.00234695,0.130265,20.8823,53.3069,-0.346162,0.0,0.0
756,188.75,85.0582,93.7758,128.889,98.404,102.642,0.0023306,0.128458,20.8844,53.317,-0.383757,0.0,0.0
759,189.5,83.1388,91.873,130.917,98.4052,102.057,0.00228068,0.126963,20.8867,53.2969,-0.331636,0.0,0.0
762,190.25,83.336,91.6874,130.049,98.4132,102.385,0.00220993,0.12557,20.8884,53.337,-0.360082,0.0,0.0
765,191,82.957,91.5288,128.594,98.4064,102.796,0.00214167,0.124282,20.8896,53.2969,-0.397139,0.0,0.0
768,191.75,82.0317,91.1678,130.761,98.4024,102.32,0.00206341,0.123167,20.8911,53.2869,-0.355273,0.0,0.0
771,192.5,82.0912,90.56,129.97,98.408,102.215,0.00200635,0.12211,20.8927,53.2969,-0.345381,0.0,0.0
774,193.25,81.1062,90.8332,131.727,98.4,101.259,0.00194489,0.121049,20.894,53.2769,-0.260605,0.0,0.0
777,194,81.1102,89.5262,129.199,98.4104,101.975,0.00192541,0.119921,20.895,53.2169,-0.323765,0.0,0.0
780,194.75,80.7544,89.9836,130.282,98.4004,102.004,0.00194069,0.119099,20.8961,53.2169,-0.3273,0.0,0.0
783,195.5,80.5812,89.1052,131.158,98.4136,101.973,0.00198377,0.118353,20.8969,53.1568,-0.323349,0.0,0.0
786,196.25,79.7771,88.8907,127.584,98.4144,101.561,0.00207309,0.117764,20.8971,53.1768,-0.28639,0.0,0.0
789,197,79.5507,88.5592,128.635,98.4024,102.365,0.00217758,0.117255,20.8979,53.1868,-0.359278,0.0,0.0
792,197.75,79.9679,88.5913,131.991,98.396,103.133,0.00229724,0.116925,20.8987,53.2069,-0.427909,0.0,0.0
795,198.5,79.3349,87.7367,131.333,98.4032,101.695,0.00239585,0.116715,20.8996,53.1968,-0.299441,0.0,0.0
798,199.25,79.0214,87.7435,130.979,98.4056,102.382,0.00245562,0.116589,20.9001,53.1768,-0.360464,0.0,0.0
801,200,78.6079,87.1197,131.862,98.4024,102.071,0.00253671,0.116524,20.9007,53.1668,-0.333139,0.0,0.0
804,200.75,78.6115,87.5326,132.636,98.3996,101.984,0.00258131,0.116434,20.9011,53.1168,-0.325606,0.0,0.0
807,201.5,78.0057,86.8284,129.987,98.4032,102.304,0.0025848,0.116338,20.9014,53.1368,-0.353798,0.0,0.0
810,202.25,77.6401,87.1445,128.202,98.4096,102.179,0.00258735,0.116252,20.9017,53.1668,-0.342065,0.0,0.0
813,203,77.7965,85.889,132.277,98.402,102.227,0.00252396,0.116051,20.9023,53.1468,-0.347057,0.0,0.0
816,203.75,77.0413,85.8737,127.795,98.418,102.099,0.00245972,0.115806,20.9029,53.1268,-0.334188,0.0,0.0
819,204.5,76.6334,85.8044,127.007,98.3972,102.317,0.00238205,0.115536,20.9034,53.0968,-0.355474,0.0,0.0
822,205.25,76.8433,85.2185,128.037,98.3952,102.033,0.00230371,0.115266,20.9037,53.0968,-0.33035,0.0,0.0
825,206,76.7044,84.9479,130.092,98.3964,101.62,0.00224527,0.115038,20.9039,53.1368,-0.293377,0.0,0.0
828,206.75,76.0882,84.913,129.668,98.3812,102.893,0.00220039,0.114663,20.9041,53.1068,-0.408032,0.0,0.0
831,207.5,76.2601,84.2567,130.698,98.3789,102.761,0.00218033,0.114331,20.9042,53.0868,-0.396577,0.0,0.0
834,208.25,75.8496,84.3625,132.449,98.3797,102.099,0.00218473,0.114065,20.9043,53.1068,-0.337733,0.0,0.0
837,209,75.7775,84.2348,134.151,98.382,102.235,0.00219606,0.113933,20.9049,53.0968,-0.349584,0.0,0.0
840,209.75,75.3303,84.0736,132.294,98.3801,102.247,0.0022257,0.113883,20.9054,53.0567,-0.350811,0.0,0.0
843,210.5,75.157,83.832,133.284,98.3661,102.507,0.00228387,0.113925,20.9053,53.0467,-0.37528,0.0,0.0
846,211.25,75.0899,83.2263,129.552,98.3733,102.296,0.00235709,0.113894,20.9052,53.0167,-0.355806,0.0,0.0
849,212,74.5063,83.5591,129.209,98.3557,102,0.00241555,0.113871,20.9051,53.0767,-0.331074,0.0,0.0
852,212.75,74.8388,82.3594,132.754,98.3449,101.856,0.00246034,0.11375,20.9051,53.0367,-0.319247,0.0,0.0
855,213.5,74.3611,82.8859,128.313,98.3349,102.138,0.00248232,0.113618,20.9051,52.9867,-0.345321,0.0,0.0
858,214.25,74.6684,82.3303,128.944,98.3385,103.129,0.00248011,0.113487,20.905,52.9666,-0.43283,0.0,0.0
861,215,74.063,82.7635,130.213,98.3417,102.012,0.002464,0.113366,20.9052,53.0467,-0.333453,0.0,0.0
864,215.75,73.7298,81.8881,131.12,98.3353,101.764,0.00245226,0.113263,20.9053,52.9566,-0.311883,0.0,0.0
867,216.5,74.2795,82.2746,134.048,98.3198,102.342,0.0024437,0.113163,20.9055,52.9266,-0.364842,0.0,0.0
870,217.25,73.7992,81.5197,125.855,98.3102,102.424,0.00246283,0.113177,20.9056,52.9266,-0.373014,0.0,0.0
873,218,72.8959,81.4829,135.525,98.309,102.17,0.00249965,0.113225,20.9056,52.9366,-0.350612,0.0,0.0
876,218.75,73.4464,81.231,132.314,98.3014,101.945,0.00254228,0.113385,20.9057,52.9266,-0.331238,0.0,0.0
879,219.5,73.1244,81.0659,132.807,98.2986,102.06,0.00258366,0.113429,20.9057,52.9266,-0.34174,0.0,0.0
882,220.25,73.04,80.7437,129.867,98.2842,102.067,0.00260619,0.113383,20.9057,52.9266,-0.343674,0.0,0.0
885,221,73.2386,80.551,129.115,98.2902,101.944,0.00260999,0.113271,20.9058,52.9666,-0.332152,0.0,0.0
888,221.75,72.9113,80.4538,129.053,98.2786,102.434,0.00259675,0.113231,20.9062,52.9266,-0.376854,0.0,0.0
891,222.5,72.793,80.2817,129.786,98.2623,102.926,0.00256422,0.11321,20.9065,52.9166,-0.421951,0.0,0.0
894,223.25,72.501,80.1375,128.528,98.2639,101.412,0.00253075,0.113207,20.9063,52.8866,-0.286954,0.0,0.0
897,224,72.7296,79.8099,129.057,98.2527,101.452,0.00249492,0.113147,20.9062,52.8666,-0.291584,0.0,0.0
900,224.75,72.38,79.8553,127.458,98.2643,102.231,0.00246527,0.113101,20.9061,52.9266,-0.360125,0.0,0.0
903,225.5,72.5496,79.6556,131.147,98.2407,102.022,0.00244593,0.113107,20.906,52.9166,-0.343688,0.0,0.0
906,226.25,72.1117,79.7761,130.821,98.2303,102.324,0.00243728,0.11317,20.906,52.9166,-0.371562,0.0,0.0
909,227,71.8927,79.1992,129.648,98.2311,101.112,0.00243096,0.113241,20.9059,52.8966,-0.263035,0.0,0.0
912,227.75,72.2964,79.0915,127.081,98.2363,102.435,0.00243723,0.113501,20.9059,52.9366,-0.380894,0.0,0.0
915,228.5,71.8182,78.9279,129.919,98.2212,102.346,0.00244715,0.113763,20.9059,52.8966,-0.374334,0.0,0.0
918,229.25,71.6748,78.7557,130.204,98.2152,101.726,0.00247089,0.113986,20.9059,52.8565,-0.319627,0.0,0.0
921,230,71.635,78.5601,133.021,98.2032,101.944,0.00250078,0.114017,20.9058,52.8666,-0.340214,0.0,0.0
924,230.75,71.5028,78.6563,130.289,98.2156,102.572,0.00253526,0.113983,20.9058,52.8866,-0.39497,0.0,0.0
927,231.5,71.6448,78.3979,128.29,98.1972,101.195,0.0025604,0.114021,20.9058,52.8666,-0.273674,0.0,0.0
930,232.25,71.3464,78.0858,132.591,98.1872,102.527,0.00257873,0.114122,20.9058,52.8666,-0.393602,0.0,0.0
933,233,71.2994,77.9507,131.334,98.1744,101.412,0.00258551,0.11418,20.9058,52.7865,-0.29528,0.0,0.0
936,233.75,70.9798,78.0102,131.1,98.1864,101.08,0.00258342,0.114144,20.9058,52.8666,-0.26434,0.0,0.0
939,234.5,71.1017,77.711,130.301,98.1577,102.511,0.002581,0.113868,20.9057,52.8365,-0.394941,0.0,0.0
942,235.25,71.0024,77.1281,132.452,98.1621,101.562,0.00256644,0.113666,20.9057,52.7765,-0.309833,0.0,0.0
945,236,70.566,77.0875,132.321,98.1633,102.238,0.00254567,0.113519,20.9056,52.7565,-0.370165,0.0,0.0
948,236.75,70.2754,77.0654,130.686,98.1477,101.544,0.00252352,0.113427,20.9054,52.7965,-0.309592,0.0,0.0
951,237.5,70.5844,77.2027,130.071,98.1417,101.902,0.00250279,0.113384,20.9058,52.7565,-0.342173,0.0,0.0
954,238.25,70.1536,76.9058,129.187,98.1177,102.06,0.00248406,0.113338,20.9062,52.6864,-0.3585,0.0,0.0
957,239,70.1371,76.6451,129.994,98.1161,102.249,0.00247107,0.113278,20.9064,52.7064,-0.375455,0.0,0.0
960,239.75,70.6742,77.1334,129.086,98.1257,102.434,0.00246342,0.113172,20.9066,52.7565,-0.391024,0.0,0.0
963,240.5,70.1768,76.6641,130.385,98.1253,101.552,0.00245898,0.113124,20.9067,52.7765,-0.312392,0.0,0.0
966,241.25,70.3837,76.2744,133.316,98.0946,102.053,0.00245441,0.113101,20.9068,52.7364,-0.360005,0.0,0.0
969,242,70.054,76.1753,127.143,98.099,102.346,0.00244879,0.113168,20.9069,52.7465,-0.385661,0.0,0.0
972,242.75,70.3466,76.2712,130.34,98.1058,102.148,0.00244469,0.113202,20.907,52.7665,-0.367437,0.0,0.0
975,243.5,70.0591,75.3988,129.947,98.0958,101.359,0.00244705,0.11322,20.907,52.7765,-0.297764,0.0,0.0
978,244.25,69.8626,75.7196,129.237,98.077,101.963,0.00245792,0.113213,20.907,52.7064,-0.353601,0.0,0.0
981,245,69.9407,75.7311,130.973,98.0742,101.523,0.00247388,0.113216,20.907,52.6864,-0.31455,0.0,0.0
984,245.75,70.1417,75.3058,127.814,98.0746,102.685,0.00250391,0.11323,20.907,52.7164,-0.418061,0.0,0.0
987,246.5,70.4051,76.259,129.848,98.0774,100.678,0.00253382,0.113262,20.9071,52.7465,-0.238132,0.0,0.0
990,247.25,69.2543,75.5181,130.811,98.0622,101.524,0.00256071,0.113285,20.9066,52.6964,-0.315742,0.0,0.0
993,248,70.0429,75.9288,129.221,98.0658,101.758,0.00258248,0.113302,20.9061,52.6864,-0.336293,0.0,0.0
996,248.75,69.8352,75.6275,130.922,98.0519,101.81,0.00259291,0.113271,20.9062,52.6764,-0.342301,0.0,0.0
999,249.5,69.8613,74.8924,129.963,98.0519,100.476,0.00260941,0.113206,20.9062,52.7164,-0.22221,0.0,0.0
1002,250.25,69.9432,75.3128,131.138,98.0419,101.542,0.00263461,0.113119,20.9058,52.6664,-0.319246,0.0,0.0
1005,251,69.6469,75.2219,129.089,98.0411,101.165,0.00266901,0.112998,20.9055,52.6664,-0.285397,0.0,0.0
1008,251.75,69.5456,74.9855,129.826,98.0263,101.649,0.00270936,0.112884,20.9053,52.6364,-0.330211,0.0,0.0
1011,252.5,69.6473,75.2444,128.761,98.0395,102.705,0.00275265,0.112801,20.9052,52.6764,-0.423117,0.0,0.0
1014,253.25,69.5391,74.6535,130.046,98.0351,102.247,0.00279682,0.112712,20.9057,52.6063,-0.382855,0.0,0.0
1017,254,69.4959,75.1141,130.551,98.0271,101.085,0.00284355,0.112657,20.9056,52.6364,-0.279523,0.0,0.0
1020,254.75,69.4617,74.7383,127.823,98.0371,102.11,0.00287761,0.112657,20.9054,52.6364,-0.370399,0.0,0.0
1023,255.5,69.3863,74.5262,131.224,98.0275,101.858,0.00290255,0.112927,20.9052,52.6464,-0.348786,0.0,0.0
1026,256.25,69.2615,74.5416,131.728,98.0275,101.71,0.00292073,0.113139,20.9057,52.6163,-0.335621,0.0,0.0
1029,257,69.2766,74.1162,130.905,98.0135,101.608,0.00293398,0.1133,20.906,52.6163,-0.327767,0.0,0.0
1032,257.75,68.7462,73.8704,127.193,98.0167,101.8,0.00294364,0.113208,20.9061,52.6063,-0.344636,0.0,0.0
1035,258.5,69.1742,74.4296,131.274,98.0103,101.624,0.00295068,0.113142,20.9061,52.6564,-0.329516,0.0,0.0
1038,259.25,69.0631,74.0567,132.51,98.0127,102.093,0.00293947,0.113093,20.9062,52.6764,-0.371215,0.0,0.0
1041,260,68.7208,74.013,129.554,98.0099,101.356,0.00291984,0.112935,20.9062,52.6163,-0.305529,0.0,0.0
1044,260.75,68.6601,73.976,133.991,98.0036,101.031,0.00290064,0.11284,20.9062,52.5663,-0.276885,0.0,0.0
1047,261.5,68.6224,73.937,132.778,98.0044,102.177,0.0028812,0.112728,20.9062,52.5863,-0.379416,0.0,0.0
1050,262.25,68.3302,73.519,128.621,98.0147,101.708,0.00287707,0.112627,20.9062,52.6364,-0.336565,0.0,0.0
1053,263,68.5549,73.3908,130.117,97.9976,102.134,0.00289126,0.112428,20.90625,52.5763,-0.376276,0.0,0.0
1056,263.75,68.1981,73.153,130.405,98.002,101.752,0.00292703,0.112196,20.9063,52.5363,-0.34174,0.0,0.0
1059,264.5,68.1429,73.4147,131.032,98.0171,102.224,0.00296331,0.111989,20.9063,52.5163,-0.382399,0.0,0.0
1062,265.25,68.5602,73.3165,129.034,98.006,102.529,0.00299409,0.11188,20.9063,52.5263,-0.410617,0.0,0.0
1065,266,68.5566,73.2187,127.474,98.0008,101.511,0.00302199,0.111947,20.9058,52.4762,-0.320238,0.0,0.0
1068,266.75,67.9924,73.1232,129.144,97.9952,102.688,0.00305126,0.112057,20.9053,52.5263,-0.425675,0.0,0.0
1071,267.5,68.3884,72.7059,128.158,97.994,102.204,0.00308109,0.112263,20.9049,52.5163,-0.382825,0.0,0.0
1074,268.25,68.5344,73.1096,126.894,97.9996,101.77,0.00311087,0.112369,20.9047,52.5463,-0.343572,0.0,0.0
1077,269,68.2791,72.6824,130.227,97.9936,102.301,0.00312855,0.112428,20.9045,52.4562,-0.391479,0.0,0.0
1080,269.75,68.2319,72.9199,133.384,97.9908,100.653,0.00313456,0.112242,20.9043,52.4662,-0.243895,0.0,0.0
1083,270.5,67.9942,72.4911,130.648,98.0016,102.723,0.00311348,0.112004,20.9047,52.4862,-0.428234,0.0,0.0
1086,271.25,68.2297,72.5668,126.774,98.0131,101.187,0.00307774,0.111848,20.9051,52.5263,-0.289977,0.0,0.0
1089,272,68.0281,72.0059,130.615,97.9968,101.965,0.00304299,0.11184,20.9054,52.4962,-0.361251,0.0,0.0
1092,272.75,67.791,72.7087,128.677,97.9804,101.374,0.0029995,0.111892,20.9061,52.4862,-0.30985,0.0,0.0
1095,273.5,68.345,72.4429,129.033,97.9776,101.294,0.0029709,0.111932,20.9063,52.4662,-0.302911,0.0,0.0
1098,274.25,68.4994,72.0764,133.893,97.9904,101.72,0.00293787,0.111922,20.9063,52.5363,-0.339955,0.0,0.0
1101,275,67.8303,72.45,127.593,97.9804,101.86,0.00291378,0.111871,20.9063,52.5062,-0.353402,0.0,0.0
1104,275.75,68.0476,72.3558,131.678,97.9776,102.305,0.00289489,0.111791,20.9063,52.4262,-0.393283,0.0,0.0
1107,276.5,67.7917,72.2095,131.822,97.996,101.262,0.00287882,0.111723,20.9063,52.4462,-0.298373,0.0,0.0
1110,277.25,68.1697,72.1486,128.967,97.9756,101.95,0.00285056,0.111659,20.9063,52.5062,-0.36189,0.0,0.0
1113,278,68.1727,72.1398,128.657,97.9856,101.584,0.00282291,0.111673,20.9063,52.4662,-0.328185,0.0,0.0
1116,278.75,67.7672,72.0907,132.919,97.9864,102.082,0.00279368,0.111774,20.9063,52.4362,-0.372618,0.0,0.0
1119,279.5,68.1155,71.6181,127.194,98.0107,102.753,0.00277237,0.111933,20.9063,52.4262,-0.429974,0.0,0.0
1122,280.25,67.7967,71.5641,134.493,98.0315,103.015,0.00278406,0.112193,20.9073,52.4862,-0.451227,0.0,0.0
1125,281,67.7706,71.9805,132.207,98.0495,101.777,0.00281167,0.112456,20.908,52.5263,-0.339544,0.0,0.0
1128,281.75,68.0182,72.0005,133.153,98.0626,102.379,0.00284464,0.112679,20.9085,52.4662,-0.391955,0.0,0.0
1131,282.5,67.4716,71.7237,130.177,98.0786,102.594,0.00287669,0.112841,20.9083,52.3761,-0.409625,0.0,0.0
1134,283.25,67.7561,71.4971,127.699,98.1074,102.072,0.00289604,0.112936,20.9081,52.3961,-0.360547,0.0,0.0
1137,284,67.9109,71.3048,126.642,98.1233,101.776,0.00290327,0.112966,20.9079,52.4062,-0.33261,0.0,0.0
1140,284.75,67.7271,71.5153,129.039,98.1209,102.258,0.0029049,0.112905,20.9079,52.3661,-0.375853,0.0,0.0
1143,285.5,67.4984,71.4745,132.367,98.1405,101.387,0.00290228,0.112837,20.9078,52.3461,-0.296164,0.0,0.0
1146,286.25,68.051,71.5302,133.919,98.1621,102.112,0.00289404,0.112748,20.9077,52.3561,-0.359047,0.0,0.0
1149,287,67.7056,71.6356,129.145,98.198,101.956,0.00288002,0.112669,20.9081,52.3761,-0.34178,0.0,0.0
1152,287.75,67.9896,71.4438,131.201,98.196,101.98,0.00286176,0.112589,20.9086,52.3361,-0.344135,0.0,0.0
1155,288.5,67.7165,71.0016,133.139,98.2148,102.093,0.0028347,0.112505,20.909,52.3261,-0.352397,0.0,0.0
1158,289.25,67.9479,71.358,128.884,98.2196,102.455,0.00280772,0.112443,20.9092,52.286,-0.384167,0.0,0.0
1161,290,67.7823,71.3979,131.82,98.2559,102.343,0.00279273,0.112307,20.9094,52.3861,-0.370877,0.0,0.0
1164,290.75,67.4888,71.2157,132.572,98.2854,101.257,0.00278983,0.112049,20.9096,52.3661,-0.271087,0.0,0.0
1167,291.5,67.5051,71.2879,132.22,98.2703,102.309,0.00279916,0.111861,20.9097,52.3561,-0.366502,0.0,0.0
1170,292.25,68.1261,70.8985,130.543,98.2727,102.137,0.00282486,0.111725,20.9097,52.2961,-0.350967,0.0,0.0
1173,293,67.5135,71.2742,124.74,98.3034,102.96,0.00285961,0.11175,20.9098,52.3461,-0.421208,0.0,0.0
1176,293.75,67.9413,71.0004,126.417,98.3066,102.396,0.00290215,0.11176,20.9098,52.3661,-0.370906,0.0,0.0
1179,294.5,67.2227,70.8735,130.335,98.307,102.399,0.00295227,0.111755,20.9099,52.3261,-0.371148,0.0,0.0
1182,295.25,67.2772,70.7995,128.645,98.315,101.645,0.00301353,0.111647,20.9101,52.286,-0.30313,0.0,0.0
1185,296,67.6622,70.6981,133.738,98.3353,102.193,0.00306526,0.111539,20.9107,52.2961,-0.350138,0.0,0.0
1188,296.75,67.3123,70.6898,129.749,98.3557,102.191,0.00311955,0.111417,20.9111,52.3061,-0.348134,0.0,0.0
1191,297.5,67.3422,70.4982,128.182,98.3633,102.599,,0.11123,,52.266,-0.38365,0.0,0.0
1194,298.25,67.4965,70.9725,130.518,98.3848,102.533,,0.111015,,52.286,-0.375782,0.0,0.0
1197,299,67.4206,70.8879,130.092,98.4184,102.234,,0.110857,,52.2961,-0.346104,0.0,0.0
1200,299.75,67.375,70.9635,130.36,98.4324,102.411,,0.110743,,52.2961,-0.360631,0.0,0.0
1203,300.5,67.339,70.6914,129.781,98.4383,101.482,,,,52.226,-0.277112,0.0,0.0
1206,301.25,67.1483,70.7093,128.702,98.4603,102.451,,,,52.206,-0.361608,0.0,0.0
1209,302,67.7269,70.7198,129.298,98.4755,102.821,,,,52.206,-0.392986,0.0,0.0
1212,302.75,67.0923,70.6932,130.103,98.4938,102.959,,,,52.286,-0.403516,0.0,0.0
1215,303.5,67.1956,70.4007,129.092,98.5006,102,,,,52.236,-0.317675,0.0,0.0
1218,304.25,67.3066,70.4775,128.928,98.5142,102.542,,,,52.216,-0.364705,0.0,0.0
1221,305,67.3377,70.7934,130.129,98.5358,102.433,,,,52.1759,-0.353036,0.0,0.0
1224,305.75,67.0207,70.0017,133.213,98.5601,101.682,,,,52.216,-0.283773,0.0,0.0
1227,306.5,67.4271,70.279,131.135,98.5765,102.8,,,,52.1759,-0.381742,0.0,0.0
1230,307.25,66.9404,69.7489,130.318,98.5873,102.207,,,,52.1459,-0.328096,0.0,0.0
1233,308,67.1202,70.2958,128.622,98.6012,101.451,,,,52.1559,-0.259319,0.0,0.0