File: 01_Data/FDNY_LDF/Cone/FDNY_LDF_Cone_HF25Scan_220909_R3.csv
Names,Time,Stack TC,Smoke TC,Exh Press,Smoke Comp,Smoke Meas,CO Meter,CO2 Meter,O2 Meter,Sample Mass,Ext Coeff,Start Test,Flame Verif
Chan Gain,,500,500,1,1,1,1,1,1,1,1,1.0,1.0
Offset,,0,0,0.139139,0,0,0,0,0,0,0,0.0,0.0
Gain,,1,1,25.011,13.0826,14.7555,1,1,1,1.00088,1.03743,1.0,1.0
Units,sec,C,C,Pa,%,%,%,%,%,g,/m,,
Baseline,,32.722,32.8964,146.871,96.5837,95.8728,0.000977371,0.0457379,20.991,-441.962,0.067256,,
5,1,30.88,31.6251,152.618,97.4402,96.7804,0.00110458,0.0475615,20.9887,83.9639,0.0618347,0.0,0.0
10,2.25,31.3501,31.504,146.838,97.4526,96.9781,0.00121155,0.0472891,20.9887,83.8939,0.0444219,0.0,0.0
15,3.5,30.9279,31.4307,147.531,97.4618,97.0974,0.0013106,0.0470146,20.9888,83.8639,0.0340879,0.0,0.0
20,4.75,31.0748,31.7116,145.668,97.4797,97.0064,0.00139867,0.04674,20.9896,83.9039,0.0442945,0.0,0.0
25,6,31.0614,31.6875,144.008,97.5105,97.0609,0.00147472,0.0465201,20.9902,83.8739,0.0420541,0.0,0.0
30,7.25,31.0203,31.6358,146.874,97.5276,96.6673,0.00151616,0.0463447,20.9906,83.8438,0.0806315,0.0,0.0
35,8.5,31.6935,31.5153,142.383,97.55,96.861,0.0014903,0.0461717,20.9908,83.8138,0.0645065,0.0,0.0
40,9.75,31.6206,31.3555,145.046,97.5724,96.9641,0.00142368,0.0460995,20.991,83.8038,0.0569092,0.0,0.0
45,11,31.9536,32.0663,151.678,97.574,96.6345,0.00132713,0.0461493,20.9902,83.7738,0.0880468,0.0,0.0
50,12.25,31.705,31.7887,144.975,97.5816,96.6543,0.0011627,0.0461788,20.992,83.7437,0.0868896,0.0,0.0
55,13.5,31.6179,32.0123,143.617,97.6031,96.8434,0.000986348,0.0461738,20.9926,83.7237,0.0711093,0.0,0.0
60,14.75,31.8596,31.8687,148.474,97.6191,96.48,0.000900254,0.046144,20.9924,83.7337,0.10681,0.0,0.0
65,16,31.4365,31.5447,150.685,97.643,96.0878,0.000833304,0.0461756,20.9923,83.7437,0.146114,0.0,0.0
70,17.25,31.5202,32.1933,144.795,97.6418,96.2071,0.000809345,0.0461741,20.9923,83.7337,0.134707,0.0,0.0
75,18.5,31.3168,31.7037,145.266,97.6562,96.1954,0.000797952,0.0460918,20.9922,83.7037,0.137155,0.0,0.0
80,19.75,31.5168,32.4137,142.78,97.681,95.8181,0.000808115,0.0460464,20.9922,83.7237,0.175229,0.0,0.0
85,21,31.9075,32.1329,143.174,97.7009,96.1666,0.00082438,0.0461788,20.9922,83.7137,0.144047,0.0,0.0
90,22.25,31.8233,32.2421,145.643,97.6917,96.1468,0.000859694,0.0462109,20.9922,83.6537,0.145066,0.0,0.0
95,23.5,31.653,31.7414,147.094,97.7089,95.7721,0.000885303,0.046192,20.9922,83.6737,0.182197,0.0,0.0
100,24.75,31.9301,31.991,147.539,97.7129,95.9198,0.000870119,0.0462264,20.9922,83.6437,0.168544,0.0,0.0
105,26,31.8328,32.1511,147.098,97.7221,95.5011,0.000828571,0.0463012,20.9922,83.6337,0.209218,0.0,0.0
110,27.25,32.3131,31.9857,145.619,97.7229,95.71,0.000793018,0.0462788,20.9922,83.5836,0.189405,0.0,0.0
115,28.5,31.9098,31.8687,147.629,97.7385,95.4659,0.000818747,0.0462958,20.9922,83.5936,0.21409,0.0,0.0
120,29.75,31.5995,32.0396,145.195,97.7468,96.0117,0.000946856,0.0463779,20.9922,83.5836,0.162993,0.0,0.0
125,31,32.0881,32.0363,145.504,97.7393,95.2714,0.00112706,0.0465133,20.9922,83.5436,0.232727,0.0,0.0
130,32.25,31.3424,32.2729,144.762,97.746,95.1786,0.00126925,0.0466851,20.9922,83.5035,0.242224,0.0,0.0
135,33.5,32.068,32.5765,144.66,97.776,95.117,0.00136513,0.0468394,20.9922,83.5436,0.250912,0.0,0.0
140,34.75,31.7913,32.2359,148.06,97.762,95.1088,0.00144441,0.0469962,20.9916,83.5135,0.250386,0.0,0.0
145,36,31.6975,32.2518,145.946,97.7596,95.0404,0.00154892,0.0477893,20.9913,83.4935,0.256715,0.0,0.0
150,37.25,31.7186,32.1282,143.221,97.7828,95.6492,0.00164199,0.0529098,20.9871,83.4035,0.200762,0.0,0.0
155,38.5,32.1567,32.0989,140.569,97.784,98.5253,0.00172025,0.0640934,20.9507,83.3334,-0.0687307,0.0,1.0
160,39.75,32.2653,31.6425,139.183,97.7987,98.3362,0.00178177,0.0957991,20.892,83.1632,-0.0498709,0.0,1.0
165,41,33.0828,32.8667,137.689,97.7892,99.3412,0.00182937,0.130882,20.8398,83.0431,-0.143303,0.0,1.0
170,42.25,34.6904,33.7631,134.093,97.8083,99.2165,0.00186929,0.167483,20.7992,82.923,-0.130086,0.0,1.0
175,43.5,34.2196,32.6106,134.816,97.8151,99.235,0.00190894,0.198325,20.7696,82.8329,-0.131148,0.0,1.0
180,44.75,34.6975,32.6817,135.885,97.8235,98.7685,0.00194947,0.222323,20.7492,82.7329,-0.0874857,0.0,1.0
185,46,35.9962,33.322,137.427,97.8135,98.6437,0.0019918,0.240067,20.7359,82.5727,-0.0769144,0.0,1.0
190,47.25,36.5295,33.7561,135.18,97.8283,98.1011,0.00204179,0.253299,20.7281,82.5427,-0.0253429,0.0,1.0
195,48.5,37.2209,34.3915,135.467,97.8311,98.2538,0.00207871,0.262087,20.7242,82.4226,-0.0392331,0.0,1.0
200,49.75,38.2936,35.1498,135.669,97.8375,98.5492,0.00205752,0.267559,20.7231,82.3325,-0.0659575,0.0,0.0
205,51,38.3781,35.7442,135.813,97.8455,98.27,0.00204642,0.27096,20.7234,82.1724,-0.0393976,0.0,0.0
210,52.25,39.0749,36.479,138.963,97.8491,99.0967,0.00207217,0.272865,20.7247,82.1123,-0.115304,0.0,0.0
215,53.5,39.061,36.4591,134.339,97.8578,98.4586,0.00213196,0.273625,20.7256,82.0322,-0.055702,0.0,0.0
220,54.75,40.1876,37.0628,136.334,97.8602,98.279,0.00221608,0.273581,20.7271,81.8921,-0.0388572,0.0,0.0
225,56,40.7448,37.6338,133.587,97.8778,98.2574,0.00227189,0.273079,20.7292,81.812,-0.0352229,0.0,0.0
230,57.25,41.1188,38.1662,137.003,97.8738,98.338,0.0023453,0.272369,20.7316,81.742,-0.0430559,0.0,0.0
235,58.5,40.6898,38.4745,133.952,97.8766,98.4942,0.00237095,0.271622,20.7335,81.6719,-0.057245,0.0,0.0
240,59.75,41.585,38.5957,136.425,97.8722,98.5721,0.00235191,0.270913,20.7346,81.5218,-0.0648474,0.0,0.0
245,61,41.5197,38.8631,133.835,97.8798,98.6172,0.00232112,0.269751,20.7369,81.3617,-0.068299,0.0,0.0
250,62.25,42.0489,39.4766,136.331,97.883,98.6307,0.00230104,0.268808,20.7385,81.2916,-0.0692478,0.0,0.0
255,63.5,42.8194,40.092,134.993,97.8878,98.6554,0.00229323,0.268014,20.7395,81.2616,-0.0710872,0.0,0.0
260,64.75,42.6101,40.5377,136.228,97.8818,98.5474,0.00229008,0.26718,20.7411,81.1014,-0.0616696,0.0,0.0
265,66,43.1662,40.2133,133.521,97.8882,98.161,0.00228593,0.266115,20.7434,81.0914,-0.0253277,0.0,0.0
270,67.25,43.3567,40.7032,136.786,97.885,98.188,0.00228227,0.264904,20.7457,81.0113,-0.0281299,0.0,0.0
275,68.5,44.1379,40.9432,137.182,97.8854,97.7409,0.00229087,0.263157,20.7485,80.9313,0.0134453,0.0,0.0
280,69.75,43.8306,41.5524,141.867,97.8854,98.7775,0.00231043,0.260559,20.7514,80.7912,-0.0825598,0.0,0.0
285,71,43.8064,41.2656,137.698,97.8966,98.1223,0.00228387,0.257954,20.7543,80.7611,-0.0209572,0.0,0.0
290,72.25,43.6079,41.8059,135.577,97.893,98.5951,0.00224405,0.255543,20.7577,80.651,-0.065038,0.0,0.0
295,73.5,44.242,41.9707,136.328,97.8946,98.5163,0.00224037,0.253173,20.7601,80.5409,-0.0576129,0.0,0.0
300,74.75,44.1652,42.2962,135.434,97.9145,98.7946,0.00227683,0.251123,20.7617,80.4709,-0.0814268,0.0,0.0
305,76,44.082,42.3275,138.056,97.8998,98.0016,0.00230531,0.24965,20.7633,80.3708,-0.00946093,0.0,0.0
310,77.25,44.5682,42.9334,141.625,97.9145,98.4613,0.00229412,0.248465,20.7646,80.3107,-0.0506808,0.0,0.0
315,78.5,44.628,42.6845,139.581,97.9009,98.1047,0.00225941,0.247469,20.766,80.1806,-0.0189214,0.0,0.0
320,79.75,44.7385,43.4159,135.991,97.9045,99.0206,0.0022371,0.246711,20.7669,80.1606,-0.103154,0.0,0.0
325,81,44.6361,43.3795,135.831,97.9057,98.0867,0.00224495,0.245924,20.7686,80.0705,-0.016805,0.0,0.0
330,82.25,44.8469,43.7592,136.592,97.9145,99.4723,0.00228411,0.244955,20.7703,80.0105,-0.143639,0.0,0.0
335,83.5,44.7981,43.3806,139.72,97.8974,98.4942,0.00232597,0.243443,20.7728,79.8303,-0.0553145,0.0,0.0
340,84.75,44.9624,44.0614,140.307,97.9057,98.1889,0.00237707,0.241359,20.7763,79.8203,-0.0262835,0.0,0.0
345,86,45.2903,43.9863,140.023,97.9109,98.1371,0.00244065,0.239049,20.7792,79.7102,-0.0209996,0.0,0.0
350,87.25,45.1985,44.3083,138.762,97.9097,98.5514,0.00250721,0.237168,20.7808,79.6301,-0.0594461,0.0,0.0
355,88.5,45.0065,44.2198,135.753,97.9073,98.5235,0.00252712,0.235337,20.7818,79.49,-0.0570905,0.0,0.0
360,89.75,44.9125,44.6087,138.626,97.9077,98.3641,0.00250729,0.234039,20.7832,79.44,-0.0423175,0.0,0.0
365,91,45.1419,44.7269,140.193,97.9221,97.7274,0.00246806,0.232799,20.7848,79.3799,0.0181172,0.0,0.0
370,92.25,45.1614,44.9584,141.384,97.9025,97.7575,0.00238943,0.231352,20.7867,79.1897,0.0134897,0.0,0.0
375,93.5,45.2383,44.6128,140.568,97.8998,98.3357,0.00228878,0.229917,20.7882,79.2398,-0.0404349,0.0,0.0
380,94.75,45.5225,44.7332,134.316,97.9053,98.7581,0.00217691,0.228542,20.79,79.1697,-0.0789211,0.0,0.0
385,96,44.866,45.093,139.891,97.9017,98.2191,0.002082,0.227315,20.791,79.0596,-0.02945,0.0,0.0
390,97.25,45.2346,45.0738,134.819,97.8962,98.5266,0.00202868,0.226179,20.7917,78.9495,-0.0584202,0.0,0.0
395,98.5,45.5001,45.0853,138.798,97.9006,98.2488,0.00201359,0.225073,20.7925,78.8895,-0.032315,0.0,0.0
400,99.75,45.4219,45.2536,138.947,97.893,98.6437,0.00203527,0.224221,20.7935,78.8695,-0.0695254,0.0,0.0
405,101,45.101,45.5595,143.737,97.8858,98.184,0.00207935,0.223359,20.7941,78.7794,-0.0276794,0.0,0.0
410,102.25,45.5934,45.4341,137.234,97.8798,98.1912,0.00212003,0.222229,20.7949,78.6693,-0.0289042,0.0,0.0
415,103.5,45.6016,45.7038,138.069,97.8878,98.2222,0.00221139,0.221032,20.7969,78.6192,-0.0310402,0.0,0.0
420,104.75,45.5258,45.2913,136.465,97.879,98.9891,0.00229665,0.219629,20.7984,78.5592,-0.102632,0.0,0.0
425,106,45.164,46.0295,140.775,97.8706,98.0025,0.00247602,0.218332,20.8002,78.4491,-0.0122545,0.0,0.0
430,107.25,45.2155,45.7445,137.84,97.867,98.3758,0.00262353,0.216775,20.8026,78.359,-0.0471874,0.0,0.0
435,108.5,45.7232,45.926,134.956,97.8662,98.8081,0.00271799,0.214992,20.8039,78.2889,-0.0871626,0.0,0.0
440,109.75,45.1511,45.4968,137.108,97.861,98.8419,0.00274835,0.213648,20.8048,78.2289,-0.0907559,0.0,0.0
445,111,45.389,45.6775,136.876,97.8622,98.591,0.00270252,0.212995,20.8051,78.0888,-0.0675219,0.0,0.0
450,112.25,45.1798,45.9567,138.238,97.8546,98.1443,0.00262973,0.21254,20.8051,78.0187,-0.0269014,0.0,0.0
455,113.5,45.6113,46.4224,140.807,97.8602,99.2606,0.00251612,0.211804,20.8055,77.9587,-0.129305,0.0,0.0
460,114.75,45.0925,46.1729,141.151,97.8582,97.6008,0.00244975,0.21085,20.8063,77.8886,0.0239694,0.0,0.0
465,116,45.5361,46.3398,139.74,97.8423,98.2159,0.00244858,0.209799,20.8076,77.7685,-0.0346892,0.0,0.0
470,117.25,45.1168,46.053,137.95,97.8554,98.7581,0.00247033,0.208968,20.8094,77.7184,-0.0835604,0.0,0.0
475,118.5,45.0189,46.736,139.585,97.8451,98.1565,0.00248824,0.207949,20.8105,77.7184,-0.02892,0.0,0.0
480,119.75,45.0621,46.2206,137.471,97.8526,98.301,0.00250089,0.207075,20.8112,77.5883,-0.0416053,0.0,0.0
485,121,45.0597,46.3128,138.659,97.8311,98.5397,0.00250074,0.206285,20.8115,77.4882,-0.0656783,0.0,0.0
490,122.25,45.0603,46.408,140.886,97.8299,98.46,0.00246466,0.205539,20.8118,77.4682,-0.0584263,0.0,0.0
495,123.5,45.3966,46.7785,136.384,97.8327,97.6513,0.00240231,0.204771,20.8125,77.3781,0.0168915,0.0,0.0
500,124.75,45.3208,46.4745,140.273,97.8171,98.6982,0.00233553,0.203892,20.8135,77.3181,-0.0816052,0.0,0.0
505,126,45.4664,46.2401,139.098,97.8115,98.6815,0.00229771,0.202867,20.8152,77.188,-0.0805895,0.0,0.0
510,127.25,45.1978,46.7421,135.016,97.8135,97.7485,0.00229346,0.201945,20.8174,77.1479,0.00604923,0.0,0.0
515,128.5,45.458,46.7362,142.072,97.8123,98.4163,0.00229834,0.201149,20.8194,77.0979,-0.0560229,0.0,0.0
520,129.75,45.6642,46.2951,140.544,97.8031,98.2231,0.00231768,0.200248,20.8218,76.9678,-0.0389961,0.0,0.0
525,131,44.8631,46.1225,134.548,97.7979,98.2785,0.00237311,0.199485,20.8232,76.9378,-0.0446098,0.0,0.0
530,132.25,45.2813,46.5732,139.217,97.7948,98.773,0.00247415,0.198561,20.8243,76.8877,-0.0905745,0.0,0.0
535,133.5,45.4026,46.7109,135.914,97.7983,98.4217,0.00258446,0.197684,20.8257,76.7976,-0.0578219,0.0,0.0
540,134.75,45.3545,46.4286,138.391,97.7688,97.9147,0.00266474,0.197005,20.8268,76.6675,-0.0135684,0.0,0.0
545,136,44.5711,46.6087,138.655,97.78,98.446,0.00268693,0.196105,20.8285,76.6575,-0.0617793,0.0,0.0
550,137.25,45.3753,46.7211,137.94,97.7744,98.3843,0.00267375,0.195415,20.8294,76.5674,-0.0565949,0.0,0.0
555,138.5,44.8037,46.3094,142.164,97.768,98.3398,0.00265172,0.194321,20.8304,76.4974,-0.0530659,0.0,0.0
560,139.75,45.0157,46.8709,143.432,97.7584,98.4181,0.00260873,0.193125,20.8316,76.3873,-0.0612054,0.0,0.0
565,141,45.0822,46.047,136.982,97.7608,98.2614,0.00252235,0.192047,20.8322,76.3773,-0.0464808,0.0,0.0
570,142.25,44.6695,46.3015,137.137,97.76,97.5788,0.00238754,0.191072,20.8332,76.2872,0.0168883,0.0,0.0
575,143.5,44.9761,46.4561,135.776,97.7385,98.5946,0.00225982,0.190182,20.8348,76.2471,-0.0793703,0.0,0.0
580,144.75,44.7869,46.3182,137.321,97.7373,98.2024,0.00219761,0.189234,20.8368,76.127,-0.0432085,0.0,0.0
585,146,44.9377,46.0228,140.755,97.7261,98.2366,0.00219807,0.188299,20.8382,76.087,-0.0474202,0.0,0.0
590,147.25,45.1145,46.6889,140.566,97.7157,98.3272,0.00231903,0.187306,20.839,76.027,-0.0567679,0.0,0.0
595,148.5,44.721,46.5377,139.45,97.7029,98.0448,0.00244222,0.186384,20.8395,75.8968,-0.0317897,0.0,0.0
600,149.75,44.5673,46.3873,136.655,97.7141,97.8521,0.00258349,0.18557,20.839,75.7968,-0.0128416,0.0,0.0
605,151,44.3354,46.3015,138.145,97.6953,98.0345,0.0027065,0.184867,20.8386,75.7067,-0.031535,0.0,0.0
610,152.25,44.6301,46.5371,138.256,97.6929,98.4145,0.00279017,0.184125,20.8384,75.6466,-0.0669694,0.0,0.0
615,153.5,44.6257,46.0056,139.931,97.6842,98.7784,0.00287112,0.183826,20.8379,75.5766,-0.10137,0.0,0.0
620,154.75,44.3483,46.6024,137.511,97.6909,99.2219,0.00292353,0.183601,20.8376,75.5766,-0.141509,0.0,0.0
625,156,44.3151,46.0183,138.169,97.6746,98.32,0.00292268,0.183301,20.8382,75.4765,-0.059932,0.0,0.0
630,157.25,44.2705,46.5338,138.146,97.6598,98.4033,0.00287499,0.182805,20.8387,75.4264,-0.0690155,0.0,0.0
635,158.5,44.2991,46.3477,138.645,97.6518,98.5059,0.00282885,0.182218,20.8399,75.2863,-0.0792494,0.0,0.0
640,159.75,44.5461,46.2279,140.115,97.6422,97.7584,0.00281882,0.181612,20.8416,75.2863,-0.0108228,0.0,0.0
645,161,44.0491,46.3761,139.759,97.6474,98.3006,0.00285723,0.180906,20.8434,75.2062,-0.0606691,0.0,0.0
650,162.25,44.0649,46.4773,139.394,97.6327,98.152,0.00289785,0.180099,20.8445,75.1562,-0.048279,0.0,0.0
655,163.5,43.9969,46.2984,138.302,97.6199,98.1214,0.00294869,0.179274,20.8455,75.0461,-0.0466302,0.0,0.0
660,164.75,43.6031,45.7778,138.991,97.6362,97.9503,0.00299368,0.178494,20.8463,75.0461,-0.0292209,0.0,0.0
665,166,44.1087,46.006,140.69,97.6083,97.5319,0.00302695,0.177729,20.8477,74.966,0.00712353,0.0,0.0
670,167.25,43.7865,46.0795,140.172,97.5871,98.0763,0.00305758,0.176732,20.8485,74.8459,-0.0455049,0.0,0.0
675,168.5,43.5849,46.1831,138.685,97.5959,98.8837,0.00311589,0.175738,20.8499,74.8059,-0.119296,0.0,0.0
680,169.75,43.618,46.2746,135.043,97.5756,97.9521,0.00318437,0.174962,20.8508,74.7558,-0.0350459,0.0,0.0
685,171,43.6441,46.2045,140.107,97.5728,97.907,0.00324935,0.174173,20.8513,74.6758,-0.0311219,0.0,0.0
690,172.25,43.7555,45.8442,137.283,97.562,98.1808,0.00329973,0.173356,20.8519,74.5757,-0.0575392,0.0,0.0
695,173.5,43.9663,46.1807,138.469,97.5624,97.8269,0.00335255,0.172687,20.8535,74.5657,-0.0246369,0.0,0.0
700,174.75,43.7307,45.7744,138.478,97.5656,98.3641,0.00339764,0.172021,20.8544,74.4756,-0.0741758,0.0,0.0
705,176,43.8611,46.1674,137.173,97.6195,98.2168,0.00345993,0.171117,20.8549,74.4456,-0.0555175,0.0,0.0
710,177.25,43.7122,46.292,136.474,97.6746,98.2371,0.00353151,0.170564,20.8552,74.3455,-0.0522595,0.0,0.0
715,178.5,42.9849,45.6793,139.579,97.7337,98.1002,0.00359861,0.170402,20.8554,74.3355,-0.0340658,0.0,0.0
720,179.75,43.3759,46.1729,136.082,97.7724,98.2191,0.00363553,0.170286,20.8555,74.2554,-0.0414821,0.0,0.0
725,181,43.3733,46.0666,138.273,97.8267,98.193,0.00363443,0.170048,20.8556,74.2053,-0.0340092,0.0,0.0
730,182.25,43.4072,46.0178,145.079,97.8918,97.5513,0.00358697,0.169712,20.8564,74.0552,0.0317077,0.0,0.0
735,183.5,43.5064,45.5476,139.432,97.9205,98.8428,0.00355882,0.169023,20.857,74.0352,-0.0853079,0.0,0.0
740,184.75,42.9429,45.8012,140.013,97.964,98.6176,0.00356557,0.16825,20.8574,73.9651,-0.0605113,0.0,0.0
745,186,43.2285,45.6233,142.002,97.9916,97.962,0.00358672,0.1676,20.8586,73.9151,0.00275074,0.0,0.0
750,187.25,42.7829,45.2118,142.164,98.0387,98.4118,0.00356498,0.167053,20.8593,73.815,-0.0345689,0.0,0.0
755,188.5,43.0268,45.087,138.01,98.0886,98.0745,0.0034968,0.166742,20.8597,73.785,0.00130497,0.0,0.0
760,189.75,42.84,45.2687,137.313,98.1177,98.8518,0.00341686,0.166477,20.8606,73.7149,-0.0678257,0.0,0.0
765,191,43.119,45.7996,141.558,98.1425,98.3974,0.00337607,0.165881,20.8614,73.6148,-0.0236063,0.0,0.0
770,192.25,42.8147,45.0587,138.232,98.1776,98.2799,0.00339979,0.165278,20.8619,73.6248,-0.00947233,0.0,0.0
775,193.5,42.9328,45.4876,139.207,98.2148,98.3663,0.00344762,0.164971,20.8622,73.5247,-0.0140335,0.0,0.0
780,194.75,42.8172,45.3182,143.322,98.2399,98.5375,0.00349043,0.164806,20.8624,73.4747,-0.0275206,0.0,0.0
785,196,43.3529,45.7821,138.433,98.2435,98.483,0.00347746,0.164587,20.8624,73.3646,-0.0221539,0.0,0.0
790,197.25,42.7252,45.0295,143.076,98.2711,98.5717,0.00339482,0.164385,20.8622,73.3346,-0.0277953,0.0,0.0
795,198.5,42.933,44.9828,141.303,98.2806,98.424,0.00328007,0.163885,20.8621,73.2645,-0.0132621,0.0,0.0
800,199.75,42.8894,45.1017,140.394,98.283,98.9153,0.00317971,0.163411,20.8621,73.1945,-0.0583515,0.0,0.0
805,201,42.7952,44.9144,140.094,98.2862,98.3961,0.00314405,0.163212,20.862,73.1044,-0.0101636,0.0,0.0
810,202.25,43.0321,45.7309,143.979,98.2954,98.043,0.00314535,0.16324,20.862,73.0844,0.023397,0.0,0.0
815,203.5,42.7245,45.0047,141.53,98.2938,98.1178,0.00315174,0.16354,20.862,73.0343,0.0163133,0.0,0.0
820,204.75,42.6694,44.6731,140.914,98.3018,98.2853,0.00311612,0.163613,20.8625,72.9242,0.0015295,0.0,0.0
825,206,42.5742,44.5524,139.119,98.2978,98.32,0.00304794,0.163598,20.8632,72.8542,-0.00205004,0.0,0.0
830,207.25,42.5262,44.9978,141.176,98.3305,98.5811,0.00298225,0.163543,20.8637,72.8542,-0.023162,0.0,0.0
835,208.5,42.4655,44.7297,141.016,98.3385,99.2021,0.00295176,0.163369,20.8639,72.7641,-0.0795656,0.0,0.0
840,209.75,42.4279,45.0876,139.221,98.3425,99.0724,0.0029892,0.163028,20.8649,72.644,-0.0672924,0.0,0.0
845,211,42.7081,44.7417,139.826,98.3617,99.244,0.00302748,0.162624,20.8655,72.634,-0.0812642,0.0,0.0
850,212.25,42.3512,44.6502,141.55,98.3809,98.5618,0.00308055,0.162321,20.866,72.4938,-0.0167197,0.0,0.0
855,213.5,42.2138,44.5703,145.633,98.3777,98.7023,0.00314427,0.162238,20.8663,72.5039,-0.0299779,0.0,0.0
860,214.75,42.0976,44.7162,141.329,98.3952,98.6748,0.0032222,0.162295,20.8664,72.3537,-0.0258194,0.0,0.0
865,216,42.2639,44.2232,141.419,98.3928,97.9363,0.00327497,0.1624,20.8665,72.3938,0.042323,0.0,0.0
870,217.25,42.2038,44.4461,140.681,98.3968,98.7063,0.00329226,0.162479,20.8666,72.3137,-0.0285788,0.0,0.0
875,218.5,42.6147,44.3944,137.763,98.4164,99.013,0.00327742,0.162569,20.8656,72.2636,-0.0549986,0.0,0.0
880,219.75,42.3638,44.7712,142.827,98.4004,98.7887,0.00315392,0.162869,20.864,72.1636,-0.0358409,0.0,0.0
885,221,42.427,44.4851,141.535,98.4088,99.3575,0.00296791,0.163471,20.8618,72.1836,-0.0873061,0.0,0.0
890,222.25,42.5864,45.0308,147.669,98.4084,98.85,0.00277059,0.1644,20.8603,72.1135,-0.0407416,0.0,0.0
895,223.5,42.2047,44.6094,140.426,98.4012,99.257,0.00262878,0.165039,20.8593,72.0334,-0.0788051,0.0,0.0
900,224.75,42.2271,44.3384,137.639,98.4012,98.374,0.00255117,0.165525,20.8596,72.0034,0.00251757,0.0,0.0
905,226,42.317,44.4402,142.799,98.3944,99.2291,0.00251273,0.165973,20.8599,71.9333,-0.0768733,0.0,0.0
910,227.25,42.5107,44.7208,139.929,98.3912,99.1796,0.0024893,0.166238,20.8595,71.8733,-0.0726251,0.0,0.0
915,228.5,42.7778,44.3947,145.324,98.3717,99.14,0.00249954,0.166414,20.8585,71.7632,-0.0707974,0.0,0.0
920,229.75,42.1536,44.0515,141.316,98.3693,99.2967,0.00254629,0.166855,20.8579,71.7132,-0.0853923,0.0,0.0
925,231,42.3422,44.2232,139.805,98.3577,98.4465,0.00265089,0.167366,20.8572,71.6531,-0.0082116,0.0,0.0
930,232.25,42.4843,44.4027,136.015,98.3381,98.8306,0.00275124,0.16778,20.8563,71.6131,-0.0454597,0.0,0.0
935,233.5,42.2097,44.1797,138.356,98.3214,98.5248,0.00288456,0.168003,20.8557,71.503,-0.0188137,0.0,0.0
940,234.75,42.6729,44.5698,142.063,98.3046,98.5429,0.00298551,0.168221,20.8553,71.523,-0.0220294,0.0,0.0
945,236,42.4293,44.1822,139.956,98.2982,98.1047,0.0030401,0.16846,20.8551,71.4429,0.017931,0.0,0.0
950,237.25,42.3585,44.5839,136.502,98.2747,98.161,0.00303832,0.168784,20.8551,71.4029,0.010531,0.0,0.0
955,238.5,42.6894,44.4809,137.953,98.2459,98.433,0.00295603,0.169025,20.8553,71.2728,-0.0173126,0.0,0.0
960,239.75,42.6231,44.4419,142.206,98.2275,98.1551,0.00281288,0.16912,20.8548,71.2728,0.00670943,0.0,0.0
965,241,42.6815,44.4671,142.611,98.2156,98.333,0.0026544,0.169519,20.8542,71.2427,-0.0108766,0.0,0.0
970,242.25,42.2648,44.0691,144.299,98.1796,98.4879,0.00250567,0.170421,20.8535,71.1126,-0.0285304,0.0,0.0
975,243.5,42.3458,44.4042,137.398,98.1641,98.5438,0.00239911,0.171556,20.8521,70.9825,-0.0351319,0.0,0.0
980,244.75,42.6461,44.3926,139.61,98.1413,99.4016,0.00235227,0.172907,20.8511,71.0025,-0.116118,0.0,0.0
985,246,42.5844,44.4378,144.044,98.1046,98.5104,0.00234771,0.173769,20.8506,70.9525,-0.0375706,0.0,0.0
990,247.25,42.8731,44.5787,140.363,98.0686,99.4191,0.00236317,0.174573,20.8494,70.8224,-0.124466,0.0,0.0
995,248.5,42.5565,44.425,144.675,98.0375,97.6522,0.00239487,0.175048,20.8486,70.8224,0.0358397,0.0,0.0
1000,249.75,42.8744,44.4535,142.377,98.0119,98.8446,0.00245255,0.17555,20.8478,70.7723,-0.0769811,0.0,0.0
1005,251,42.7337,44.2093,139.198,97.9824,98.9639,0.00254698,0.176409,20.8464,70.7323,-0.0907044,0.0,0.0
1010,252.25,42.7754,44.7503,139.653,97.9409,98.2371,0.00269438,0.17738,20.8449,70.5922,-0.0274819,0.0,0.0
1015,253.5,43.0313,44.162,137.663,97.9073,98.5658,0.00284304,0.17848,20.8441,70.5922,-0.0609995,0.0,0.0
1020,254.75,42.986,44.8673,137.605,97.873,98.3569,0.00303206,0.17942,20.8435,70.5421,-0.0448808,0.0,0.0
1025,256,43.0251,44.7169,139.952,97.853,98.0624,0.00319,0.180021,20.8425,70.4621,-0.0194475,0.0,0.0
1030,257.25,42.952,44.4935,142.118,97.8498,98.1871,0.00326675,0.18088,20.8408,70.3319,-0.0313135,0.0,0.0
1035,258.5,43.1315,44.4877,140.591,97.869,98.6978,0.00323128,0.181707,20.8397,70.352,-0.0767366,0.0,0.0
1040,259.75,42.7255,44.8855,141.255,97.881,97.7818,0.00312342,0.182281,20.839,70.2919,0.00922189,0.0,0.0
1045,261,42.7372,44.1509,141.554,97.887,98.3123,0.00302676,0.183015,20.8383,70.1718,-0.0394553,0.0,0.0
1050,262.25,43.34,44.7787,140.652,97.9029,97.9989,0.00299774,0.183824,20.8372,70.1318,-0.00891361,0.0,0.0
1055,263.5,43.328,44.4524,138.269,97.9157,98.3015,0.00299384,0.184448,20.8366,70.1217,-0.0357827,0.0,0.0
1060,264.75,43.5469,44.0376,136.16,97.9329,97.9385,0.00299154,0.185028,20.8362,70.0417,-0.000525078,0.0,0.0
1065,266,43.4366,45.0962,139.471,97.9325,98.6694,0.0029374,0.185571,20.836,69.9216,-0.0682187,0.0,0.0
1070,267.25,43.0684,44.7285,145.306,97.9501,98.5334,0.0028567,0.185938,20.8359,69.8916,-0.0540354,0.0,0.0
1075,268.5,42.8344,44.9507,137.505,97.9632,99.1278,0.00276879,0.186269,20.8348,69.8115,-0.107544,0.0,0.0
1080,269.75,43.7043,44.7515,139.8,97.986,98.9774,0.00269075,0.186537,20.8342,69.7815,-0.0916122,0.0,0.0
1085,271,43.4707,45.0641,140.01,98.0012,98.1858,0.00264448,0.187114,20.8338,69.6513,-0.0171257,0.0,0.0
1090,272.25,43.2172,44.9042,140.557,98.0227,98.6527,0.0026575,0.187602,20.8336,69.6914,-0.0583018,0.0,0.0
1095,273.5,43.0675,45.1412,139.349,98.0427,98.6208,0.0026936,0.187891,20.8331,69.6213,-0.0534991,0.0,0.0
1100,274.75,43.4977,44.7978,137.111,98.067,98.7284,0.00273566,0.188523,20.8316,69.5713,-0.0611639,0.0,0.0
1105,276,43.6658,44.9583,140.084,98.0834,99.4466,0.0027678,0.189474,20.8304,69.4712,-0.125608,0.0,0.0
1110,277.25,43.3905,44.996,139.05,98.1193,99.1494,0.00277046,0.19062,20.8289,69.4712,-0.0950384,0.0,0.0
1115,278.5,43.4744,45.0798,139.691,98.1333,98.7288,0.00274715,0.191519,20.8278,69.3811,-0.0550575,0.0,0.0
1120,279.75,43.5982,45.2245,139.322,98.1485,98.3497,0.00266447,0.192181,20.8272,69.311,-0.0186355,0.0,0.0
1125,281,43.8641,45.3246,141.513,98.1772,98.7513,0.00257578,0.192808,20.8268,69.251,-0.053061,0.0,0.0
1130,282.25,43.7732,45.1362,141.59,98.2132,98.6865,0.00251273,0.193459,20.8257,69.211,-0.043753,0.0,0.0
1135,283.5,43.704,45.1017,143.627,98.2331,98.5784,0.0024937,0.194105,20.8243,69.1109,-0.0319329,0.0,0.0
1140,284.75,43.7596,45.1647,134.532,98.2431,98.6356,0.00249057,0.19499,20.8232,69.0308,-0.0362858,0.0,0.0
1145,286,43.9001,45.7694,138.034,98.2727,98.9364,0.00250171,0.196147,20.8222,69.0108,-0.0612594,0.0,0.0
1150,287.25,43.8667,45.6234,138.917,98.303,98.7162,0.00253517,0.197324,20.821,68.9607,-0.0381736,0.0,0.0
1155,288.5,44.3259,45.2042,138.379,98.3254,99.0067,0.00256524,0.198373,20.8197,68.9007,-0.0628399,0.0,0.0
1160,289.75,44.3452,45.7255,138.286,98.3369,98.4577,0.0025849,0.199497,20.8177,68.7706,-0.0111742,0.0,0.0
1165,291,44.3484,45.6987,135.843,98.3729,97.8431,0.00257742,0.200586,20.816,68.7606,0.0491416,0.0,0.0
1170,292.25,44.8007,45.3285,136.089,98.3972,99.6231,0.00253476,0.202048,20.8144,68.7205,-0.112678,0.0,0.0
1175,293.5,44.6677,45.9815,140.716,98.4112,99.0675,0.00247627,0.203419,20.8131,68.6404,-0.0604846,0.0,0.0
1180,294.75,44.6134,45.3292,140.004,98.422,99.3984,0.00243982,0.204342,20.8124,68.4903,-0.0898404,0.0,0.0
1185,296,44.8176,45.5724,140.029,98.4543,99.0643,0.00243753,0.205092,20.811,68.5103,-0.0562079,0.0,0.0
1190,297.25,44.9387,46.1561,136.238,98.4495,99.0125,0.00245913,0.205823,20.8101,68.4102,-0.0518929,0.0,0.0
1195,298.5,44.8755,46.0899,138.468,98.4615,99.3376,0.00249678,0.206739,20.8096,68.3202,-0.0806185,0.0,0.0
1200,299.75,45.1488,45.9484,136.775,98.4775,98.9355,0.00252967,0.207891,20.8089,68.2601,-0.0422298,0.0,0.0
1205,301,45.2927,46.1537,134.125,98.4934,99.1382,0.00254584,0.208912,20.8074,68.2201,-0.059374,0.0,0.0
1210,302.25,45.121,45.8244,136.424,98.5022,99.3336,0.00251573,0.209681,20.8057,68.14,-0.076485,0.0,0.0
1215,303.5,45.3716,46.201,138.301,98.5142,99.6997,0.00243659,0.210481,20.8048,68.0499,-0.108856,0.0,0.0
1220,304.75,45.5521,46.3228,141.461,98.523,99.8568,0.00235584,0.211481,20.803,67.9999,-0.122378,0.0,0.0
1225,306,45.5622,46.5326,134.125,98.5314,99.5191,0.00230562,0.212841,20.8013,67.9098,-0.0907734,0.0,0.0
1230,307.25,45.5259,46.618,140.845,98.5625,99.3354,0.00229393,0.214197,20.7993,67.8798,-0.0710817,0.0,0.0
1235,308.5,45.4778,46.5144,140.226,98.5457,99.9235,0.00229401,0.215524,20.7976,67.7897,-0.126348,0.0,0.0
1240,309.75,45.5492,46.8004,136.944,98.5605,99.5628,0.00228961,0.216818,20.7962,67.7096,-0.0920746,0.0,0.0
1245,311,45.5438,46.7859,136.548,98.5681,99.067,0.00230171,0.217933,20.7953,67.6496,-0.0459454,0.0,0.0
1250,312.25,45.8271,46.7778,135.009,98.5789,99.5029,0.0023546,0.218739,20.796,67.5595,-0.0849033,0.0,0.0
1255,313.5,45.4942,46.5848,137.189,98.5849,99.2534,0.00242602,0.219374,20.7963,67.4294,-0.0615063,0.0,0.0
1260,314.75,45.802,47.0004,137.176,98.594,100.141,0.00249336,0.220296,20.7959,67.4294,-0.141674,0.0,0.0
1265,316,46.0653,47.3849,135.391,98.5992,99.2129,0.00249428,0.221539,20.7934,67.3393,-0.0564628,0.0,0.0
1270,317.25,45.8764,47.3719,138.59,98.6008,99.6159,0.00240598,0.222635,20.792,67.2893,-0.0932084,0.0,0.0
1275,318.5,46.4521,47.3122,138.754,98.6216,98.7725,0.00221851,0.223589,20.7911,67.1491,-0.0139145,0.0,0.0
1280,319.75,46.0062,47.3049,136.466,98.6312,99.7762,0.00203559,0.224649,20.7896,67.1391,-0.10504,0.0,0.0
1285,321,46.388,47.5588,133.687,98.624,100.586,0.00186956,0.226042,20.788,67.0691,-0.179251,0.0,0.0
1290,322.25,46.2336,47.3025,138.95,98.6284,99.4826,0.00179243,0.227346,20.786,66.949,-0.0784806,0.0,0.0
1295,323.5,46.271,47.6714,137.531,98.6352,99.9104,0.00178647,0.228486,20.785,66.9189,-0.116904,0.0,0.0
1300,324.75,46.5631,47.5762,137.888,98.6404,99.8622,0.00182355,0.229495,20.7841,66.8288,-0.112035,0.0,0.0
1305,326,46.5413,47.4823,141.015,98.6559,99.3534,0.00184881,0.230246,20.7836,66.7488,-0.0641099,0.0,0.0
1310,327.25,47.1912,48.0252,137.808,98.6555,100.133,0.0018465,0.230951,20.7833,66.5986,-0.135264,0.0,0.0
1315,328.5,46.9154,47.9042,140.861,98.6723,99.2215,0.0018215,0.231488,20.7831,66.6087,-0.0505068,0.0,0.0
1320,329.75,46.7243,47.9562,133.189,98.6659,100.471,0.00175949,0.231862,20.783,66.5586,-0.164948,0.0,0.0
1325,331,47.2613,48.0564,140.95,98.6751,99.4399,0.00166078,0.232205,20.783,66.4585,-0.0702584,0.0,0.0
1330,332.25,47.5288,48.1062,134.963,98.6763,99.5421,0.00158666,0.232578,20.7826,66.3284,-0.0794978,0.0,0.0
1335,333.5,47.4189,48.1628,139.671,98.6819,99.6006,0.00153965,0.232986,20.7824,66.3284,-0.0843323,0.0,0.0
1340,334.75,47.4412,48.3066,142.254,98.6767,98.7171,0.00159128,0.233299,20.7821,66.2483,-0.00372719,0.0,0.0
1345,336,47.4949,48.5101,141.055,98.6759,99.6168,0.00171965,0.233545,20.7819,66.1983,-0.0863658,0.0,0.0
1350,337.25,47.5912,48.6543,132.186,98.6839,98.8256,0.00184767,0.233801,20.7811,66.0482,-0.0130633,0.0,0.0
1355,338.5,47.8932,48.9364,134.799,98.6919,98.7941,0.00195501,0.234343,20.7804,65.9981,-0.009424,0.0,0.0
1360,339.75,47.4579,48.9032,133.42,98.6927,99.9064,0.00202726,0.235288,20.7789,65.898,-0.111231,0.0,0.0
1365,341,47.9354,48.649,133.806,98.6839,99.9145,0.00207819,0.236528,20.7771,65.828,-0.112779,0.0,0.0
1370,342.25,47.8309,48.5385,133.06,98.6871,100.139,0.00215277,0.237712,20.7764,65.808,-0.132887,0.0,0.0
1375,343.5,48.5482,49.155,136.962,98.6919,99.5849,0.00220714,0.238309,20.776,65.7379,-0.0819714,0.0,0.0
1380,344.75,48.3612,49.6331,136.914,98.6883,100.396,0.00225767,0.238463,20.7757,65.6178,-0.156114,0.0,0.0
1385,346,48.1877,48.988,135.916,98.6763,99.2516,0.00230095,0.239226,20.7752,65.5177,-0.052906,0.0,0.0
1390,347.25,48.4418,49.2823,137.244,98.6803,99.5124,0.00232562,0.24027,20.7737,65.4877,-0.0764111,0.0,0.0
1395,348.5,48.5402,49.3358,139.542,98.6639,100.047,0.00231396,0.2413,20.7725,65.4276,-0.126671,0.0,0.0
1400,349.75,48.5737,49.3018,134.003,98.6655,99.543,0.00227115,0.242268,20.7718,65.3375,-0.0805741,0.0,0.0
1405,351,48.2946,49.306,138.369,98.6543,99.5686,0.00224149,0.243075,20.7707,65.1774,-0.0839513,0.0,0.0
1410,352.25,48.7477,49.63,136.244,98.6464,99.5574,0.00221584,0.244005,20.769,65.1574,-0.0836589,0.0,0.0
1415,353.5,48.8582,49.3675,133.739,98.6503,99.6551,0.00219309,0.245247,20.7673,65.1274,-0.0922176,0.0,0.0
1420,354.75,49.2098,49.7264,138.403,98.634,99.6821,0.0021844,0.246751,20.7649,65.0072,-0.0961955,0.0,0.0
1425,356,48.9287,50.182,135.709,98.6404,99.3277,0.00219514,0.247978,20.7635,64.8871,-0.0631944,0.0,0.0
1430,357.25,49.2166,49.7182,133.669,98.6336,99.9127,0.00221028,0.249033,20.762,64.8471,-0.117256,0.0,0.0
1435,358.5,49.0016,50.0557,139.23,98.6352,99.4534,0.00226761,0.25027,20.7597,64.767,-0.0751777,0.0,0.0
1440,359.75,48.9896,50.2608,133.51,98.6192,98.9211,0.00233437,0.251463,20.7572,64.6469,-0.027816,0.0,0.0
1445,361,48.915,50.3254,138.052,98.624,99.1674,0.00239097,0.252969,20.7557,64.5869,-0.0500067,0.0,0.0
1450,362.25,49.416,50.5879,132.565,98.6144,99.7091,0.0024259,0.254012,20.7548,64.5068,-0.100466,0.0,0.0
1455,363.5,49.4979,51.0825,138.128,98.6156,99.1039,0.00243363,0.254628,20.7543,64.4367,-0.0449511,0.0,0.0
1460,364.75,49.4909,50.5566,137.97,98.6072,99.5934,0.00240144,0.255293,20.7535,64.2766,-0.0905614,0.0,0.0
1465,366,49.8585,50.7084,137.43,98.596,100.063,0.00234742,0.256303,20.7519,64.2566,-0.134367,0.0,0.0
1470,367.25,49.2845,51.0908,133.794,98.6028,99.2291,0.00228192,0.257243,20.7507,64.1965,-0.0576183,0.0,0.0
1475,368.5,50.0043,50.896,134.853,98.5853,98.4893,0.00222051,0.257777,20.7499,64.0965,0.00886642,0.0,0.0
1480,369.75,49.8005,51.1365,135.676,98.5813,99.3746,0.00210447,0.25809,20.7495,63.9864,-0.0729373,0.0,0.0
1485,371,50.1473,50.7667,135.28,98.5829,98.9774,0.00202371,0.258259,20.7492,63.9463,-0.0363463,0.0,0.0
1490,372.25,50.3561,51.1518,133.956,98.5697,98.4672,0.00199728,0.258112,20.7493,63.8162,0.0094679,0.0,0.0
1495,373.5,49.8624,51.4391,141.404,98.5533,98.5555,0.0020249,0.257442,20.7505,63.8062,-0.000197443,0.0,0.0
1500,374.75,50.3676,51.4115,138.136,98.5505,99.5196,0.002101,0.256347,20.753,63.6861,-0.0890445,0.0,0.0
1505,376,50.0101,51.0304,135.904,98.5306,99.2075,0.00222351,0.254602,20.7551,63.6961,-0.062308,0.0,0.0
1510,377.25,50.3147,51.2839,132.674,98.5122,98.7901,0.00238164,0.252929,20.7564,63.616,-0.0256323,0.0,0.0
1515,378.5,50.0221,51.3235,137.831,98.5014,99.0765,0.00251756,0.251448,20.7571,63.4959,-0.0529715,0.0,0.0
1520,379.75,50.2082,51.5362,139.85,98.4859,98.8247,0.00260056,0.249771,20.7589,63.3958,-0.0312601,0.0,0.0
1525,381,50.6456,51.4322,134.761,98.4707,98.22,0.00264497,0.247969,20.7617,63.3858,0.0231979,0.0,0.0
1530,382.25,49.9533,51.6375,139.033,98.4615,98.5843,0.00272242,0.245688,20.7642,63.3058,-0.0113409,0.0,0.0
1535,383.5,50.3548,51.439,136.304,98.4523,97.9894,0.00289728,0.242667,20.7677,63.2157,0.0428867,0.0,0.0
1540,384.75,49.8527,51.7761,136.156,98.4252,98.2155,0.00313142,0.239484,20.7714,63.1556,0.0194077,0.0,0.0
1545,386,50.0307,51.7626,137.583,98.4088,98.3497,0.00339237,0.236418,20.7755,63.1356,0.0054692,0.0,0.0
1550,387.25,49.8646,52.2228,137.314,98.398,98.3078,0.00363037,0.232998,20.7804,63.0756,0.00834835,0.0,0.0
1555,388.5,50.1571,51.7424,136.676,98.3749,98.7396,0.00384995,0.229731,20.7854,62.9655,-0.033682,0.0,0.0
1560,389.75,49.9181,51.399,138.739,98.3641,97.8854,0.00401983,0.22585,20.79,62.9655,0.0443928,0.0,0.0
1565,391,49.2469,51.3807,139.227,98.3557,97.7814,0.00417523,0.221907,20.794,62.9054,0.0532926,0.0,0.0
1570,392.25,49.439,51.0433,137.283,98.3301,98.2902,0.00434923,0.218353,20.7982,62.8253,0.00369422,0.0,0.0
1575,393.5,49.6056,51.1872,140.352,98.3042,98.0119,0.00451753,0.214773,20.8031,62.7653,0.0270936,0.0,0.0
1580,394.75,49.2223,51.3188,135.636,98.2922,98.7261,0.00470206,0.210745,20.8078,62.7352,-0.0400851,0.0,0.0
1585,396,49.2291,51.2732,138.199,98.2727,98.7117,0.00482876,0.206548,20.8119,62.7252,-0.0405678,0.0,0.0
1590,397.25,48.8405,50.8599,139.988,98.2375,98.7739,0.00502799,0.202067,20.8163,62.5851,-0.0495491,0.0,0.0
1595,398.5,48.8004,51.0473,141.284,98.214,97.998,0.00529763,0.198968,20.8204,62.5251,0.0200345,0.0,0.0
1600,399.75,48.8594,51.2916,137.734,98.196,98.107,0.00556876,0.194971,20.8253,62.5451,0.00825514,0.0,0.0
1605,401,48.6407,51.2363,139.891,98.1688,98.0957,0.00579097,0.190574,20.8305,62.5151,0.00678315,0.0,0.0
1610,402.25,48.0595,50.6356,139.885,98.1341,97.7305,0.00594193,0.186319,20.8354,62.415,0.0375058,0.0,0.0
1615,403.5,47.9725,50.4456,140.143,98.1157,97.975,0.00603285,0.182078,20.8404,62.425,0.0130619,0.0,0.0
1620,404.75,48.1405,50.5205,138.105,98.109,97.5391,0.00618382,0.177638,20.8433,62.3649,0.0530101,0.0,0.0
1625,406,47.7645,50.5073,140.989,98.0674,98.356,0.00634067,0.173754,20.847,62.3449,-0.0267366,0.0,0.0
1630,407.25,47.2878,50.1696,140.971,98.0279,97.6882,0.00652115,0.169929,20.8501,62.2548,0.0315942,0.0,0.0
1635,408.5,47.4501,49.8525,139.81,98.0107,98.3006,0.00672193,0.166009,20.8542,62.3049,-0.0268726,0.0,0.0
1640,409.75,47.213,49.7672,138.74,97.998,98.025,0.00690324,0.162576,20.8582,62.2849,-0.00251067,0.0,0.0
1645,411,47.0549,49.8818,142.257,97.962,98.4172,0.00701468,0.159089,20.8618,62.2348,-0.0421873,0.0,0.0
1650,412.25,46.6366,49.2939,141.77,97.9389,97.4644,0.00709686,0.155576,20.8665,62.1547,0.0441974,0.0,0.0
1655,413.5,46.3442,49.4982,139.105,97.9121,98.2105,0.00721161,0.152036,20.8711,62.1848,-0.0276925,0.0,0.0
1660,414.75,46.2701,49.1652,141.732,97.887,98.1587,0.00737504,0.14855,20.8751,62.1147,-0.0252304,0.0,0.0
1665,416,45.6575,48.9004,140.31,97.855,97.7391,0.00758901,0.144848,20.8786,62.1447,0.010791,0.0,0.0
1670,417.25,45.3491,48.7803,139.718,97.8195,97.5351,0.00774769,0.141472,20.8819,62.1047,0.0264987,0.0,0.0
1675,418.5,45.1549,49.0197,142.258,97.8115,97.5702,0.00802606,0.138597,20.8847,62.0947,0.0224794,0.0,0.0
1680,419.75,45.5017,48.4859,140.552,97.788,98.3249,0.00829186,0.136017,20.8876,62.0446,-0.0498322,0.0,0.0
1685,421,44.8553,48.1666,145.25,97.7464,97.9043,0.00853267,0.133391,20.8912,61.9646,-0.014687,0.0,0.0
1690,422.25,45.0944,48.3706,142.42,97.7492,98.0957,0.00876161,0.130765,20.8949,62.0146,-0.0321985,0.0,0.0
1695,423.5,44.5205,47.8389,142.965,97.7101,97.4648,0.008931,0.128299,20.8981,61.9846,0.0228733,0.0,0.0
1700,424.75,43.8668,47.9491,141.126,97.6937,97.5891,0.00913577,0.125729,20.9004,61.9345,0.00975182,0.0,0.0
1705,426,43.9091,47.7126,143.811,97.6598,97.6197,0.00936928,0.123337,20.9026,61.8645,0.00373434,0.0,0.0
1710,427.25,43.9415,47.6188,142.272,97.663,97.8931,0.00964818,0.120726,20.9047,61.8845,-0.0214123,0.0,0.0
1715,428.5,43.6021,47.2025,146.249,97.6215,96.8974,0.00992431,0.118137,20.9073,61.9145,0.0677461,0.0,0.0
1720,429.75,43.1691,47.0034,147.094,97.6047,96.8812,0.0102204,0.115181,20.9117,61.8945,0.0677041,0.0,0.0
1725,431,42.9788,46.5814,145.845,97.5792,96.7993,0.0104599,0.112187,20.9162,61.7944,0.073023,0.0,0.0
1730,432.25,42.7637,46.5412,144.969,97.5752,96.9938,0.0106897,0.109421,20.9194,61.8445,0.0543819,0.0,0.0
1735,433.5,42.6422,46.4547,144.54,97.55,97.345,0.0108815,0.107123,20.9213,61.8945,0.0191414,0.0,0.0
1740,434.75,42.2951,45.9106,146.739,97.5037,97.11,0.0110539,0.105173,20.9234,61.7844,0.0368197,0.0,0.0
1745,436,42.2264,46.2973,142.602,97.4817,97.3207,0.0112357,0.103326,20.9245,61.7644,0.015043,0.0,0.0
1750,437.25,42.1369,46.0849,144.476,97.4594,97.2892,0.0113856,0.102183,20.9249,61.8044,0.0159029,0.0,0.0
1755,438.5,41.888,45.0387,142.495,97.4394,97.2401,0.0114952,0.101284,20.9254,61.7744,0.0186315,0.0,0.0
1760,439.75,41.3595,45.4337,146.119,97.4199,96.9101,0.0115734,0.100287,20.9269,61.6843,0.0477463,0.0,0.0
1765,441,39.6243,43.8099,143.797,97.3963,96.7907,0.0115886,0.0989794,20.9284,61.7143,0.0567594,0.0,0.0
1770,442.25,39.5459,43.3433,138.688,97.3676,96.9078,0.0115812,0.097768,20.9301,61.6743,0.0430713,0.0,0.0
1775,443.5,39.2687,43.1332,145.855,97.3584,96.7939,0.0116068,0.0968551,20.9309,61.6243,0.0529173,0.0,0.0
1780,444.75,39.1522,43.1826,140.823,97.326,97.0168,0.0116755,0.0959821,20.9316,61.6143,0.0289625,0.0,0.0
1785,446,39.1665,42.4744,144.517,97.3133,97.3392,0.0117257,0.09544,20.932,61.5842,-0.00242548,0.0,0.0
1790,447.25,38.9284,42.7385,140.971,97.2937,96.6615,0.0117056,0.0947093,20.9325,61.6443,0.059326,0.0,0.0
1795,448.5,38.5665,42.7947,144.668,97.2821,96.8317,0.0116396,0.0941218,20.9335,61.6043,0.0422312,0.0,0.0
1800,449.75,38.401,42.3575,141.001,97.2594,96.7817,0.0115022,0.0936462,20.9348,61.5842,0.0448008,0.0,0.0
1805,451,38.8808,41.6067,141.792,97.259,96.9132,0.011348,0.0932785,20.9357,61.5742,0.0324082,0.0,0.0
1810,452.25,38.5888,41.9889,142.707,97.2326,96.5061,0.0112256,0.0930875,20.9362,61.6043,0.0682478,0.0,0.0
1815,453.5,38.3018,41.5553,147.906,97.2098,97.1073,0.0111514,0.0929012,20.9366,61.5742,0.00960553,0.0,0.0
1820,454.75,38.0061,41.0555,143.867,97.2079,97.1897,0.0111824,0.0925892,20.9368,61.5242,0.00169979,0.0,0.0
1825,456,38.2118,41.693,144.953,97.1851,96.8078,0.011256,0.0924361,20.9369,61.5342,0.0353945,0.0,0.0
1830,457.25,37.9872,41.3456,145.487,97.1759,96.2513,0.0113406,0.0924932,20.9369,61.5242,0.0870057,0.0,0.0
1835,458.5,38.2585,40.9908,143.092,97.1572,96.276,0.0113984,0.0926411,20.937,61.4441,0.0829076,0.0,0.0
1840,459.75,37.3994,40.9632,140.904,97.1623,96.3215,0.0114173,0.0927351,20.937,61.5142,0.0790949,0.0,0.0
1845,461,38.0138,40.9787,147.008,97.152,96.7457,0.0113962,0.0926786,20.937,61.5042,0.0381346,0.0,0.0
1850,462.25,37.5336,41.0864,141.542,97.144,96.7957,0.0113231,0.0924827,20.937,61.4741,0.032686,0.0,0.0
1855,463.5,37.6948,40.4374,146.431,97.1208,96.1049,0.0111793,0.0923008,20.937,61.4141,0.0956922,0.0,0.0
1860,464.75,37.5907,40.1464,145.584,97.1032,96.6664,0.0109875,0.0920152,20.9373,61.4341,0.0410293,0.0,0.0
1865,466,37.7783,40.0351,138.962,97.0937,96.3764,0.0108261,0.0916335,20.9381,61.4541,0.0674726,0.0,0.0
1870,467.25,37.3683,40.1481,146.716,97.0585,96.5282,0.0107198,0.0912561,20.9384,61.3841,0.0498613,0.0,0.0
1875,468.5,36.7439,40.4065,139.78,97.0462,96.7277,0.0106838,0.0910279,20.9381,61.304,0.029913,0.0,0.0
1880,469.75,37.2205,40.067,146.094,97.0402,96.802,0.0106812,0.090875,20.9386,61.344,0.0223636,0.0,0.0
1885,471,37.039,40.2179,142.887,97.019,96.7434,0.010675,0.0908462,20.9389,61.3941,0.0258843,0.0,0.0
1890,472.25,37.0114,39.78,147.881,96.9867,96.1936,0.0106552,0.0907429,20.9389,61.344,0.0747178,0.0,0.0
1895,473.5,36.9448,39.3633,142.112,96.9711,96.6944,0.0106137,0.090603,20.9383,61.334,0.0260076,0.0,0.0
1900,474.75,37.2693,39.3715,144.433,96.9699,96.4089,0.0105189,0.0904432,20.9379,61.344,0.0528041,0.0,0.0
1905,476,37.2596,39.7272,144.931,96.9835,95.9838,0.0104095,0.0902075,20.9377,61.324,0.0942912,0.0,0.0
1910,477.25,36.4479,39.4474,147.931,96.9264,96.4323,0.0103228,0.0900161,20.9376,61.284,0.0465085,0.0,0.0
1915,478.5,36.6407,39.4086,141.814,96.9208,96.5345,0.0102725,0.0898991,20.9375,61.324,0.0363422,0.0,0.0
1920,479.75,36.717,39.2914,139.226,96.9128,96.607,0.0102372,0.089741,20.9375,61.274,0.0287603,0.0,0.0
1925,481,36.3266,39.2827,140.772,96.9024,96.0518,0.010193,0.0895804,20.9374,61.2539,0.0802391,0.0,0.0
1930,482.25,35.9938,39.0897,140.484,96.8557,96.3945,0.0101682,0.0894293,20.9374,61.1839,0.0434416,0.0,0.0
1935,483.5,36.6395,38.8954,147.986,96.8573,96.3386,0.0101761,0.0892702,20.9374,61.2339,0.0488643,0.0,0.0
1940,484.75,36.3243,38.6187,143.929,96.8465,96.5052,0.0102184,0.0891133,20.9374,61.2339,0.0321272,0.0,0.0
1945,486,36.5982,38.5296,139.662,96.8266,96.734,0.0102647,0.0891019,20.9374,61.1939,0.00870602,0.0,0.0
1950,487.25,36.3609,38.4604,144.401,96.8174,96.0225,0.0102783,0.0891825,20.9374,61.1739,0.0750212,0.0,0.0
1955,488.5,36.1629,38.4864,144.518,96.7986,96.3337,0.0102438,0.0891623,20.9374,61.1939,0.0438163,0.0,0.0
1960,489.75,36.3075,38.4117,146.698,96.7926,96.0756,0.0101775,0.0889523,20.9374,61.2039,0.067661,0.0,0.0
1965,491,35.8984,38.4794,145.961,96.7679,96.539,0.0101263,0.0888196,20.9382,61.1639,0.0215487,0.0,0.0
1970,492.25,36.2725,38.0577,143.464,96.7711,96.1936,0.0101236,0.088861,20.9388,61.1539,0.0544649,0.0,0.0
1975,493.5,36.1197,38.4252,143.156,96.7655,96.5584,0.0101607,0.0888488,20.9392,61.1138,0.0194986,0.0,0.0
1980,494.75,35.9343,38.1858,143.306,96.7607,96.2382,0.0102309,0.0887794,20.9394,61.1338,0.0492732,0.0,0.0
1985,496,35.5299,38.3792,139.157,96.7339,96.4458,0.0102611,0.0886534,20.9395,61.0738,0.0271477,0.0,0.0
1990,497.25,36.1944,37.9526,146.265,96.7359,96.3976,0.0102271,0.0884613,20.9396,61.1539,0.0318829,0.0,0.0
1995,498.5,35.6269,38.0286,141.263,96.7443,96.4458,0.0101925,0.0881912,20.9387,61.1539,0.0281244,0.0,0.0
2000,499.75,35.7531,37.4954,141.922,96.7435,96.127,0.010207,0.0880328,20.9384,61.1338,0.0581813,0.0,0.0
2005,501,35.8586,37.4404,145.298,96.7291,95.8356,0.0102509,0.0880403,20.939,61.0538,0.0844533,0.0,0.0
2010,502.25,35.8972,37.9734,144.019,96.7232,96.5917,0.0103194,0.0880834,20.9393,61.0838,0.0123783,0.0,0.0
2015,503.5,35.5564,37.6303,143.304,96.7184,96.0788,0.0103476,0.0881559,20.9395,61.0638,0.0603778,0.0,0.0
2020,504.75,35.7812,37.4433,142.268,96.7048,96.7754,0.0103006,0.0881987,20.9396,61.0438,-0.00664273,0.0,0.0
2025,506,35.5777,37.6213,142.161,96.708,96.1797,0.0101096,0.0881662,20.9404,61.0337,0.0498526,0.0,0.0
2030,507.25,35.3764,37.6486,145.043,96.71,96.3386,0.0099429,0.0879568,20.941,61.0337,0.035013,0.0,0.0
2035,508.5,35.8144,37.0302,140.255,96.7084,96.2837,0.00979122,0.0876655,20.9414,61.0237,0.040053,0.0,0.0
2040,509.75,35.7639,37.4184,145.061,96.6876,96.4517,0.0097522,0.087334,20.9417,60.9737,0.022237,0.0,0.0
2045,511,36.0247,37.0389,143.241,96.6948,96.4503,0.00978696,0.0871301,20.9419,60.9537,0.0230421,0.0,0.0
2050,512.25,35.4569,37.2632,144.382,96.6996,96.1612,0.00982646,0.0869708,20.9419,60.9837,0.0508107,0.0,0.0
2055,513.5,35.2844,37.212,143.806,96.7104,96.2116,0.00984116,0.0869002,20.942,60.9937,0.0470524,0.0,0.0
2060,514.75,35.0993,37.1951,144.571,96.6816,96.5286,0.00981793,0.0868495,20.942,60.9136,0.0144115,0.0,0.0
2065,516,35.4558,36.8747,142.198,96.6948,96.1418,0.00976074,0.0868362,20.942,60.9437,0.0521925,0.0,0.0
2070,517.25,35.48,36.9822,142.778,96.7004,96.5061,0.00971404,0.0867851,20.9421,60.9437,0.0183013,0.0,0.0
2075,518.5,35.625,37.319,143.679,96.6928,96.1193,0.00972024,0.0866328,20.9421,60.9437,0.0541349,0.0,0.0
2080,519.75,35.2956,37.0279,140.787,96.6848,96.3692,0.0098104,0.0864595,20.9421,60.8536,0.0297529,0.0,0.0
2085,521,35.7103,37.0669,145.616,96.6812,96.4859,0.00990645,0.0864293,20.9421,60.7935,0.0184085,0.0,0.0
2090,522.25,35.4323,36.7938,144.093,96.6844,96.1887,0.00997842,0.0865771,20.9421,60.9036,0.0467826,0.0,0.0
2095,523.5,35.1323,36.9013,140.224,96.6741,96.7295,0.0100031,0.0866653,20.9421,60.8236,-0.00521632,0.0,0.0
2100,524.75,35.4128,36.7864,145.214,96.6832,96.408,0.0099642,0.0866758,20.9421,60.8236,0.0259471,0.0,0.0
2105,526,35.2757,36.2755,144.122,96.6992,96.5039,0.00989252,0.0867332,20.9421,60.8836,0.0184009,0.0,0.0
2110,527.25,35.4982,36.8157,144.637,96.708,96.272,0.00982821,0.0866942,20.9421,60.8836,0.0411222,0.0,0.0
2115,528.5,34.915,37.0505,145.56,96.6964,95.9788,0.00980352,0.0866251,20.9421,60.8035,0.0677848,0.0,0.0
2120,529.75,35.3298,36.5778,143.618,96.7144,96.3737,0.00978934,0.0866339,20.9421,60.8136,0.0321077,0.0,0.0
2125,531,35.7623,36.6315,144.585,96.7164,96.227,0.00975544,0.0865435,20.9421,60.8336,0.0461685,0.0,0.0
2130,532.25,35.4432,36.5171,141.748,96.7208,96.4314,0.00970859,0.0864287,20.9421,60.8236,0.0272678,0.0,0.0
2135,533.5,35.5362,36.6993,143.813,96.7036,96.6088,0.00970807,0.0863466,20.9421,60.7535,0.00892494,0.0,0.0
2140,534.75,35.6748,36.4668,141.262,96.726,96.403,0.00973622,0.0862494,20.9421,60.7935,0.0304341,0.0,0.0
2145,536,35.0221,36.4537,145.844,96.7296,95.9464,0.00977752,0.0860367,20.9421,60.7835,0.0739775,0.0,0.0
2150,537.25,34.8683,36.4212,144.756,96.7515,95.8757,0.00982652,0.085766,20.9421,60.8035,0.0827517,0.0,0.0
2155,538.5,35.2476,36.3307,145.303,96.7379,96.3904,0.0098674,0.0856364,20.9421,60.7235,0.0327509,0.0,0.0
2160,539.75,35.3401,36.3792,140.642,96.7635,96.0937,0.00985426,0.085653,20.9413,60.7635,0.0632149,0.0,0.0
2165,541,35.3599,35.9326,141.87,96.7719,96.326,0.00979717,0.0857205,20.9406,60.7935,0.042025,0.0,0.0
2170,542.25,34.562,36.397,144.825,96.7475,96.2558,0.00964207,0.0857343,20.94,60.7435,0.0463735,0.0,0.0
2175,543.5,35.1536,35.9445,139.991,96.7479,96.6354,0.00949735,0.0856802,20.9399,60.7335,0.0105916,0.0,0.0
2180,544.75,35.028,36.5974,147.976,96.7591,96.4517,0.00939658,0.0855044,20.9404,60.7135,0.0289614,0.0,0.0
2185,546,35.168,36.2285,146.96,96.7723,96.4035,0.0093442,0.0853063,20.9413,60.7035,0.0347483,0.0,0.0
2190,547.25,34.8392,36.0894,147.411,96.7619,96.5363,0.00929703,0.0851528,20.9421,60.6734,0.0212402,0.0,0.0
2195,548.5,34.7663,35.7045,141.613,96.7727,96.6953,0.00925848,0.0849006,20.9427,60.6734,0.00728179,0.0,0.0
2200,549.75,35.0969,35.956,144.937,96.7787,96.4724,,0.0846597,,60.6734,0.0288468,0.0,0.0
2205,551,35.1277,35.9353,145.088,96.7878,96.2828,,0.0846024,,60.6534,0.0476115,0.0,0.0
2210,552.25,34.93,36.1331,141.326,96.7735,96.3346,,,,60.5733,0.0413663,0.0,0.0
2215,553.5,34.8943,36.2261,143.849,96.785,96.3278,,,,60.6334,0.043094,0.0,0.0
2220,554.75,35.353,35.7015,142.888,96.7858,96.2828,,,,60.6434,0.0474237,0.0,0.0
2225,556,34.753,36.0017,143.131,96.7862,96.8961,,,,60.6434,-0.0103227,0.0,0.0
2230,557.25,34.7513,35.8046,141.411,96.793,96.4444,,,,60.5433,0.0328331,0.0,0.0
2235,558.5,35.1974,36.0822,142.203,96.8026,96.4863,,,,60.6034,0.0297832,0.0,0.0
2240,559.75,34.7939,36.0698,141.772,96.817,96.8961,,,,60.5934,-0.00743256,0.0,0.0