File: 01_Data/FDNY_LDF/Cone/FDNY_LDF_Cone_HF50Scan_220913_R1.csv
Names,Time,Stack TC,Smoke TC,Exh Press,Smoke Comp,Smoke Meas,CO Meter,CO2 Meter,O2 Meter,Sample Mass,Ext Coeff,Start Test,Flame Verif
Chan Gain,,500,500,1,1,1,1,1,1,1,1,1.0,1.0
Offset,,0,0,0.139139,0,0,0,0,0,0,0,0.0,0.0
Gain,,1,1,25.011,13.0826,14.7555,1,1,1,1.00088,1.03743,1.0,1.0
Units,sec,C,C,Pa,%,%,%,%,%,g,/m,,
Baseline,,46.8865,48.1891,139.696,97.9027,99.0401,0.00145517,0.0482968,20.9857,-443.597,-0.105062,,
5,1,46.2178,47.741,140.477,98.0902,99.1859,0.00487857,0.0617847,20.9719,82.3926,-0.101089,0.0,0.0
10,2.25,45.581,47.3983,139.635,98.0922,99.2219,0.00420899,0.0600323,20.9743,82.3625,-0.104208,0.0,0.0
15,3.5,45.6153,47.6115,137.604,98.111,97.3901,0.00353919,0.0583079,20.9757,82.3525,0.0671118,0.0,0.0
20,4.75,45.5996,47.0512,139.38,98.1265,97.0794,0.00307664,0.0603317,20.9547,82.3325,0.0976361,0.0,0.0
25,6,46.3124,46.7837,133.726,98.1297,100.684,0.00280498,0.0776413,20.8999,82.1323,-0.23381,0.0,1.0
30,7.25,46.4332,47.5152,127.632,98.1369,99.3687,0.00277317,0.126253,20.8355,81.9422,-0.113514,0.0,1.0
35,8.5,47.8322,47.7194,126.141,98.1589,99.9217,0.0028258,0.174997,20.7679,81.8321,-0.16198,0.0,1.0
40,9.75,48.9049,48.8478,122.789,98.1764,99.1485,0.00290325,0.229912,20.7093,81.712,-0.0896618,0.0,1.0
45,11,49.5296,48.371,125.381,98.1824,98.3159,0.00299382,0.279673,20.663,81.5218,-0.0123631,0.0,1.0
50,12.25,50.2714,48.8756,122.213,98.2044,98.2335,0.00313929,0.318821,20.6263,81.3116,-0.00269731,0.0,1.0
55,13.5,52.0169,49.4785,120.793,98.2263,98.0313,0.00331623,0.348081,20.6025,81.2315,0.0180869,0.0,1.0
60,14.75,52.6869,50.8092,127.007,98.2499,97.0001,0.00351226,0.369156,20.5871,81.0914,0.116502,0.0,0.0
65,16,54.0404,51.3646,123.872,98.2667,97.3811,0.00372701,0.384318,20.5756,80.8712,0.0823852,0.0,0.0
70,17.25,55.6353,52.5538,124.313,98.2806,97.9624,0.00393658,0.395716,20.5677,80.7011,0.029514,0.0,0.0
75,18.5,56.3062,54.0077,123.817,98.3146,98.0854,0.00411013,0.403224,20.5619,80.611,0.0212424,0.0,0.0
80,19.75,57.0932,54.338,123.008,98.3317,97.6522,0.00422665,0.408281,20.5585,80.4909,0.0631125,0.0,0.0
85,21,57.6947,55.0514,122.91,98.3517,97.1829,0.00427921,0.411286,20.5577,80.2707,0.108792,0.0,0.0
90,22.25,59.0833,55.9528,127.786,98.3848,97.468,0.00428642,0.412243,20.5583,80.1105,0.0852046,0.0,0.0
95,23.5,59.3459,56.3204,125.023,98.4244,97.0461,0.00428046,0.412092,20.5599,79.9304,0.12834,0.0,0.0
100,24.75,60.1328,57.684,124.557,98.4316,97.205,0.00428706,0.410945,20.5619,79.8203,0.114111,0.0,0.0
105,26,61.0764,58.2635,121.089,98.4547,97.3748,0.00431118,0.410027,20.5633,79.6001,0.100371,0.0,0.0
110,27.25,61.3693,58.7177,123.918,98.4715,96.9699,0.00432892,0.409379,20.5641,79.49,0.139834,0.0,0.0
115,28.5,61.9542,59.0317,121.328,98.5122,96.3643,0.00431525,0.407961,20.5645,79.4199,0.200614,0.0,0.0
120,29.75,62.645,59.7984,122.637,98.5102,96.9011,0.00425987,0.405759,20.5694,79.2498,0.14988,0.0,0.0
125,31,63.1608,60.7891,124.784,98.5214,96.2684,0.00416434,0.402166,20.5757,79.0696,0.210524,0.0,0.0
130,32.25,63.3326,60.7667,125.503,98.5449,97.717,0.00405545,0.398155,20.5816,79.0196,0.0767802,0.0,0.0
135,33.5,64.0174,61.5627,122.884,98.5617,97.4783,0.00394592,0.394516,20.587,78.9095,0.100583,0.0,0.0
140,34.75,64.3669,61.9039,128.255,98.5681,97.7485,0.00384884,0.390982,20.5913,78.7494,0.0759841,0.0,0.0
145,36,64.7151,62.6871,126.41,98.5905,97.5891,0.00375523,0.387214,20.5965,78.5392,0.0929007,0.0,0.0
150,37.25,65.0457,63.0508,131.062,98.6164,97.3257,0.00367498,0.383211,20.6012,78.399,0.119894,0.0,0.0
155,38.5,65.4966,63.3157,125.157,98.626,97.4878,0.00356764,0.379018,20.6057,78.319,0.105633,0.0,0.0
160,39.75,65.2013,63.6437,122.378,98.6368,97.5162,0.00351182,0.375567,20.6109,78.1488,0.10398,0.0,0.0
165,41,66.0793,64.4249,125.046,98.6444,98.5185,0.00351214,0.372022,20.6152,78.0287,0.0116145,0.0,0.0
170,42.25,66.1525,64.4641,126.786,98.6703,98.0736,0.00360988,0.368838,20.6197,77.9386,0.0551971,0.0,0.0
175,43.5,66.2044,64.7678,127.304,98.6667,96.5692,0.00369542,0.366109,20.6224,77.7685,0.195547,0.0,0.0
180,44.75,65.4051,65.0648,128.564,98.6727,97.785,0.00372897,0.363229,20.6263,77.6284,0.0822411,0.0,0.0
185,46,66.4886,65.6515,127.536,98.6963,98.6298,0.00370484,0.360042,20.6314,77.5583,0.00613379,0.0,0.0
190,47.25,66.2593,65.6706,130.196,98.7062,97.9521,0.0036433,0.356675,20.6366,77.4682,0.0697993,0.0,0.0
195,48.5,66.8048,66.0182,126.513,98.7066,97.1757,0.00358804,0.353298,20.6404,77.248,0.142248,0.0,0.0
200,49.75,67.0191,66.3464,126.141,98.709,98.5969,0.00355813,0.349989,20.6432,77.1179,0.0103446,0.0,0.0
205,51,67.2528,66.1914,127.506,98.7458,96.9186,0.00355876,0.347337,20.6456,77.0579,0.169966,0.0,0.0
210,52.25,67.2859,66.7479,129.082,98.7258,97.8525,0.00358458,0.345165,20.6488,76.9878,0.0808531,0.0,0.0
215,53.5,67.3624,66.7461,124.214,98.7058,98.1948,0.00359452,0.343111,20.652,76.7876,0.0472413,0.0,0.0
220,54.75,67.6263,66.8046,135.964,98.7042,98.4456,0.00357749,0.340741,20.6539,76.6875,0.0238796,0.0,0.0
225,56,67.4253,67.6971,131.492,98.7154,98.2727,0.0035297,0.338377,20.6558,76.6175,0.0409073,0.0,0.0
230,57.25,67.6671,67.7247,124.593,98.6891,99.3088,0.00347288,0.336188,20.6592,76.4673,-0.0569688,0.0,0.0
235,58.5,67.8019,67.6571,129.304,98.6791,99.1174,0.00340397,0.333416,20.6622,76.2872,-0.0403352,0.0,0.0
240,59.75,67.7366,68.4619,129.626,98.6795,99.4714,0.00334117,0.33026,20.6646,76.1771,-0.0727366,0.0,0.0
245,61,67.7246,67.9122,127.235,98.6951,99.1413,0.00331282,0.327317,20.6678,76.067,-0.0410539,0.0,0.0
250,62.25,67.7127,68.4172,127.484,98.6951,99.0134,0.00331907,0.324783,20.6691,75.9769,-0.0293074,0.0,0.0
255,63.5,67.8514,68.8143,122.739,98.6819,98.3177,0.0033039,0.322753,20.6718,75.7867,0.0336459,0.0,0.0
260,64.75,67.3918,68.7107,126.937,98.6947,98.9837,0.0032761,0.320451,20.6739,75.7367,-0.0266126,0.0,0.0
265,66,67.4196,68.6515,132.717,98.6923,99.8132,0.00323188,0.317471,20.6774,75.6066,-0.102773,0.0,0.0
270,67.25,67.5007,68.7,130.154,98.6811,99.5538,0.0032147,0.31421,20.6829,75.4765,-0.0801254,0.0,0.0
275,68.5,67.7426,69.0318,126.353,98.6859,99.0215,0.00325447,0.311176,20.6873,75.3063,-0.0308993,0.0,0.0
280,69.75,67.2514,68.7389,129.038,98.713,99.0031,0.00333505,0.308403,20.6902,75.2563,-0.0266985,0.0,0.0
285,71,67.7084,69.2619,127.654,98.7038,98.8153,0.00340994,0.305717,20.6929,75.1162,-0.0102689,0.0,0.0
290,72.25,67.7943,69.4716,130.668,98.705,99.615,0.00340322,0.302917,20.6959,74.966,-0.0835128,0.0,0.0
295,73.5,68.2445,69.5053,128.509,98.7234,99.8406,0.00335403,0.300292,20.699,74.8359,-0.102407,0.0,0.0
300,74.75,67.8332,69.8101,129.065,98.7194,100.559,0.0032973,0.298098,20.7015,74.7658,-0.168047,0.0,0.0
305,76,67.4949,69.5622,126.379,98.7242,99.0323,0.00324383,0.296167,20.703,74.6457,-0.0283585,0.0,0.0
310,77.25,67.7226,69.555,129.39,98.723,99.7389,0.00318894,0.294041,20.7044,74.4956,-0.0931629,0.0,0.0
315,78.5,67.2818,69.7434,132.578,98.7374,100.152,0.0031647,0.291792,20.7071,74.3955,-0.129436,0.0,0.0
320,79.75,67.5549,69.8818,127.585,98.739,99.6546,0.00314944,0.289133,20.7111,74.2854,-0.0840044,0.0,0.0
325,81,67.5345,69.6889,134.942,98.7466,99.7632,0.00311834,0.286815,20.7146,74.2053,-0.09321,0.0,0.0
330,82.25,67.0386,69.8694,134.59,98.731,99.0053,0.00304889,0.284064,20.7177,74.0452,-0.0252499,0.0,0.0
335,83.5,67.1066,69.5448,129.126,98.7498,98.895,0.0029618,0.281726,20.72,73.9651,-0.013374,0.0,0.0
340,84.75,67.4876,69.6907,131.309,98.753,99.5254,0.00288162,0.279676,20.7223,73.825,-0.0709067,0.0,0.0
345,86,67.0059,69.1815,133.402,98.7482,99.7136,0.00280774,0.277864,20.7246,73.7049,-0.0885428,0.0,0.0
350,87.25,66.9825,69.6983,127.129,98.745,99.7299,0.00275576,0.275994,20.727,73.6148,-0.090317,0.0,0.0
355,88.5,67.2084,69.7985,130.178,98.7549,100.104,0.00274207,0.274093,20.7296,73.5247,-0.12352,0.0,0.0
360,89.75,67.2068,69.7083,128.255,98.7609,100.438,0.00275263,0.272164,20.7332,73.4046,-0.153211,0.0,0.0
365,91,66.5325,70.4265,130.05,98.7561,100.154,0.00278697,0.269847,20.7361,73.2645,-0.127871,0.0,0.0
370,92.25,67.2951,69.9219,131.301,98.7785,100.271,0.00279405,0.267876,20.7382,73.1544,-0.136443,0.0,0.0
375,93.5,66.8631,69.4316,133.835,98.7673,99.9546,0.00275337,0.266452,20.7402,73.0744,-0.108737,0.0,0.0
380,94.75,66.3932,70.0723,127.812,98.7797,100.302,0.00267632,0.265218,20.7414,72.9743,-0.139192,0.0,0.0
385,96,66.4289,69.8128,129.589,98.7533,100.116,0.00259049,0.263822,20.7427,72.8341,-0.12469,0.0,0.0
390,97.25,66.877,70.1522,128.918,98.7665,100.831,0.00254211,0.262329,20.7451,72.7741,-0.188245,0.0,0.0
395,98.5,66.5106,69.8544,129.853,98.7701,100.869,0.00254959,0.260778,20.7471,72.684,-0.191327,0.0,0.0
400,99.75,66.2305,69.8036,131.471,98.7781,100.648,0.00257532,0.258829,20.7491,72.5939,-0.170622,0.0,0.0
405,101,66.5038,70.0705,133.555,98.7685,100.161,0.00256808,0.256851,20.7517,72.4638,-0.127425,0.0,0.0
410,102.25,66.0888,69.7804,131.383,98.7873,101.736,0.00250484,0.255198,20.7538,72.3737,-0.267696,0.0,0.0
415,103.5,66.2768,70.0166,129.844,98.8005,101.128,0.00242604,0.253847,20.7548,72.2937,-0.211862,0.0,0.0
420,104.75,66.1262,69.5225,128.161,98.7917,100.935,0.0023695,0.25262,20.7554,72.1836,-0.19531,0.0,0.0
425,106,66.0815,69.0513,128.028,98.8013,101.062,0.00236832,0.251526,20.7559,72.0535,-0.205869,0.0,0.0
430,107.25,66.2979,69.6482,129.753,98.8224,101.492,0.00237756,0.250216,20.7575,71.9834,-0.242562,0.0,0.0
435,108.5,65.8702,69.7836,131.328,98.8304,100.227,0.00238861,0.248768,20.7599,71.8933,-0.127697,0.0,0.0
440,109.75,65.6711,69.5717,131.828,98.8232,100.731,0.00236418,0.247527,20.7626,71.7432,-0.173995,0.0,0.0
445,111,65.565,69.4806,129.502,98.834,101.625,0.00233494,0.245778,20.7649,71.6531,-0.2534,0.0,0.0
450,112.25,65.1968,68.9953,128.473,98.852,100.824,0.00231223,0.244569,20.7662,71.6131,-0.179725,0.0,0.0
455,113.5,65.3739,69.5734,128.139,98.8615,101.363,0.00231725,0.243735,20.7672,71.4829,-0.227405,0.0,0.0
460,114.75,65.5722,69.4126,131.656,98.8599,101.635,0.00234294,0.242961,20.7687,71.3729,-0.251938,0.0,0.0
465,116,65.2764,69.2562,130.037,98.8723,101.13,0.0023338,0.241998,20.7707,71.2728,-0.205488,0.0,0.0
470,117.25,65.401,68.8373,134.335,98.8927,100.51,0.00227878,0.240652,20.7719,71.1226,-0.147644,0.0,0.0
475,118.5,65.4118,68.6472,131.032,98.8799,100.886,0.00212225,0.239417,20.7726,71.0726,-0.182801,0.0,0.0
480,119.75,65.5132,69.0998,131.196,98.8755,100.855,0.00198546,0.23856,20.773,70.9625,-0.180402,0.0,0.0
485,121,65.6117,68.8231,130.585,98.8967,101.119,0.00191474,0.238044,20.7733,70.8924,-0.202233,0.0,0.0
490,122.25,64.9725,69.1302,128.39,98.9055,101.669,0.00189624,0.238037,20.7734,70.8224,-0.250773,0.0,0.0
495,123.5,65.278,68.8607,130.879,98.8915,101.177,0.00190059,0.238141,20.7733,70.6923,-0.207937,0.0,0.0
500,124.75,65.1172,68.8598,129.445,98.9023,101.096,0.00190533,0.238288,20.7731,70.5621,-0.199652,0.0,0.0
505,126,64.8942,68.4114,128.006,98.913,101.141,0.00193335,0.238303,20.7736,70.5421,-0.202672,0.0,0.0
510,127.25,64.5788,68.9118,129.968,98.939,100.668,0.00200517,0.237869,20.775,70.442,-0.157683,0.0,0.0
515,128.5,64.9625,69.0007,130.523,98.915,101.246,0.00205063,0.236966,20.776,70.3019,-0.212005,0.0,0.0
520,129.75,64.7778,68.6128,131.325,98.9302,100.82,0.00204855,0.236071,20.7766,70.2318,-0.172198,0.0,0.0
525,131,65.0344,68.7343,134.065,98.935,101.632,0.00200635,0.235741,20.7772,70.1318,-0.244748,0.0,0.0
530,132.25,64.7719,68.793,129.363,98.9334,101.653,0.00201125,0.236006,20.7769,70.0917,-0.24675,0.0,0.0
535,133.5,64.9765,68.5438,130.539,98.929,100.595,0.00204979,0.236972,20.7764,69.9416,-0.151963,0.0,0.0
540,134.75,64.9727,68.5961,133.303,98.933,100.813,0.00206559,0.237711,20.7763,69.8715,-0.171292,0.0,0.0
545,136,64.9162,69.0919,128.501,98.9302,100.698,0.00203315,0.238034,20.7755,69.8115,-0.161177,0.0,0.0
550,137.25,64.9414,68.8336,132.256,98.921,101.12,0.00197491,0.237972,20.775,69.7014,-0.200073,0.0,0.0
555,138.5,64.8182,68.6532,130.376,98.9238,101.064,0.00191278,0.237911,20.7747,69.5512,-0.194749,0.0,0.0
560,139.75,64.5571,68.9419,129.372,98.9214,101.291,0.00188089,0.238306,20.7739,69.5312,-0.215383,0.0,0.0
565,141,64.4822,68.4627,129.767,98.9234,101.341,0.00188838,0.239213,20.7731,69.4011,-0.219729,0.0,0.0
570,142.25,64.6749,68.7331,129.247,98.9063,101.719,0.00196545,0.240402,20.7718,69.301,-0.255171,0.0,0.0
575,143.5,64.7948,68.965,130.522,98.9011,101.198,0.00208475,0.241513,20.77,69.221,-0.208919,0.0,0.0
580,144.75,65.104,68.606,132.591,98.9047,101.543,0.00220957,0.242695,20.7689,69.1409,-0.239553,0.0,0.0
585,146,64.7056,68.5084,131.546,98.8887,100.785,0.00224868,0.243959,20.7667,69.0708,-0.172889,0.0,0.0
590,147.25,65.1162,68.382,127.967,98.8827,101.129,0.00218773,0.245331,20.7647,68.9207,-0.204451,0.0,0.0
595,148.5,65.0318,68.4764,130.812,98.8727,101.324,0.00207861,0.246785,20.7622,68.8406,-0.222899,0.0,0.0
600,149.75,64.5838,68.1623,129.562,98.8679,101.625,0.00197747,0.248649,20.7595,68.7706,-0.250275,0.0,0.0
605,151,64.9316,68.6924,130.832,98.8524,102.022,0.00189886,0.250598,20.7567,68.6605,-0.287205,0.0,0.0
610,152.25,64.862,68.778,125.263,98.8312,101.006,0.0018364,0.252427,20.7549,68.5103,-0.198042,0.0,0.0
615,153.5,65.0018,68.4789,128.287,98.836,100.911,0.00178507,0.254254,20.7534,68.4403,-0.189117,0.0,0.0
620,154.75,65.1172,68.3873,132.14,98.83,100.761,0.00174521,0.256435,20.7503,68.3502,-0.176055,0.0,0.0
625,156,65.1638,68.8754,129.196,98.8168,101.921,0.00173497,0.259475,20.7461,68.2501,-0.281474,0.0,0.0
630,157.25,65.4082,69.2077,130.743,98.8009,100.122,0.00175081,0.262959,20.7411,68.14,-0.120845,0.0,0.0
635,158.5,65.5421,68.8527,126.852,98.8029,101.473,0.00177781,0.266627,20.7359,68.0699,-0.242668,0.0,0.0
640,159.75,65.3967,68.9423,129.197,98.8076,101.534,0.00181025,0.269914,20.7325,67.9799,-0.247677,0.0,0.0
645,161,65.4435,68.9698,130.079,98.7921,101.005,0.00186958,0.273091,20.7291,67.8498,-0.201605,0.0,0.0
650,162.25,65.6914,68.8983,133.135,98.7869,100.859,0.00193793,0.276266,20.7245,67.7196,-0.188928,0.0,0.0
655,163.5,65.8771,69.2312,131.764,98.7773,100.978,0.00201102,0.279046,20.7201,67.6796,-0.200531,0.0,0.0
660,164.75,65.8364,69.3132,126.342,98.7601,101.406,0.0020779,0.282534,20.7159,67.5395,-0.240625,0.0,0.0
665,166,65.9369,69.4164,129.228,98.7386,100.341,0.00213114,0.286027,20.7115,67.4194,-0.146495,0.0,0.0
670,167.25,66.7353,69.7336,125.949,98.7394,100.658,0.00216266,0.289916,20.7066,67.3193,-0.175127,0.0,0.0
675,168.5,66.2733,69.5513,123.576,98.7442,100.049,0.00215232,0.294249,20.6997,67.2192,-0.119436,0.0,0.0
680,169.75,66.3427,69.6295,128.472,98.7246,101.603,0.0021168,0.299023,20.6923,67.1591,-0.261542,0.0,0.0
685,171,67.4886,69.5648,124.619,98.7162,100.563,0.00210189,0.304144,20.6863,66.979,-0.168668,0.0,0.0
690,172.25,67.462,70.1654,127.481,98.711,99.991,0.00210342,0.309284,20.6815,66.8789,-0.117246,0.0,0.0
695,173.5,67.2298,69.8996,130.992,98.7066,100.077,0.0021274,0.313767,20.6763,66.8088,-0.125434,0.0,0.0
700,174.75,67.5111,70.0669,129.756,98.6771,99.3984,0.00217295,0.317853,20.6712,66.6787,-0.0662821,0.0,0.0
705,176,67.7474,70.5433,126.132,98.6647,99.1715,0.00223304,0.321148,20.6678,66.5686,-0.0466209,0.0,0.0
710,177.25,68.1024,70.8741,125.353,98.6755,99.8938,0.00232642,0.324352,20.6636,66.4785,-0.111666,0.0,0.0
715,178.5,68.0538,70.914,126.182,98.6655,98.7221,0.00244345,0.327628,20.6572,66.3684,-0.00521578,0.0,0.0
720,179.75,68.3661,71.1949,126.942,98.6491,98.7599,0.0025521,0.332263,20.6512,66.2784,-0.0102114,0.0,0.0
725,181,68.5945,71.1266,125.839,98.64,98.2547,0.00264588,0.336402,20.6458,66.1282,0.035616,0.0,0.0
730,182.25,68.404,71.3639,126.504,98.6388,97.9187,0.00272482,0.339648,20.6416,65.9681,0.0666724,0.0,0.0
735,183.5,68.8186,71.7026,126.988,98.6376,98.2213,0.0028236,0.342549,20.6374,65.878,0.0384824,0.0,0.0
740,184.75,69.2231,71.4446,127.32,98.6252,97.8107,0.00293646,0.345497,20.6328,65.7179,0.0754699,0.0,0.0
745,186,69.5587,71.7164,126.906,98.6256,97.9705,0.0030263,0.347925,20.6295,65.6378,0.0606451,0.0,0.0
750,187.25,69.2783,71.9139,125.204,98.6132,97.2843,0.00305698,0.350356,20.6272,65.5277,0.123474,0.0,0.0
755,188.5,69.7162,71.5538,125.494,98.6044,97.8769,0.00300675,0.352805,20.6246,65.4176,0.0673983,0.0,0.0
760,189.75,70.3924,72.5595,126.194,98.594,98.5384,0.00290551,0.354967,20.6221,65.2475,0.00514177,0.0,0.0
765,191,69.7132,72.5781,124.899,98.5901,97.3788,0.00286402,0.356103,20.62,65.1874,0.112495,0.0,0.0
770,192.25,70.3028,72.7087,127.865,98.5901,96.1148,0.00291209,0.356751,20.6183,65.0873,0.231392,0.0,0.0
775,193.5,70.419,72.5315,125.078,98.5805,96.9317,0.00301527,0.357752,20.6167,64.9472,0.153494,0.0,0.0
780,194.75,70.4886,72.8265,124.103,98.5673,96.8826,0.00315549,0.358747,20.6158,64.8271,0.156887,0.0,0.0
785,196,70.5267,73.2887,124.35,98.5781,96.5102,0.00324944,0.359942,20.6149,64.707,0.19293,0.0,0.0
790,197.25,70.495,73.3616,126.514,98.5697,96.0594,0.00329764,0.361523,20.6129,64.5669,0.234758,0.0,0.0
795,198.5,71.1594,73.4861,122.513,98.5521,97.1591,0.00331315,0.362838,20.6107,64.4668,0.129553,0.0,0.0
800,199.75,70.7095,73.4211,121.665,98.5613,97.5486,0.00332418,0.364338,20.6095,64.3266,0.0939906,0.0,0.0
805,201,71.1322,73.5783,126.154,98.5561,96.1328,0.00334276,0.365551,20.609,64.2266,0.226553,0.0,0.0
810,202.25,71.1833,73.6616,127.121,98.5417,95.7528,0.00337957,0.366297,20.6087,64.1265,0.261275,0.0,0.0
815,203.5,71.7799,73.9675,126.213,98.5342,97.1415,0.00342118,0.366891,20.6085,63.9763,0.129539,0.0,0.0
820,204.75,71.6228,74.2376,122.756,98.5394,96.5106,0.00343605,0.36793,20.6071,63.8662,0.189311,0.0,0.0
825,206,71.6073,74.2824,125.075,98.5378,95.8122,0.00343712,0.369292,20.605,63.7361,0.25526,0.0,0.0
830,207.25,72.1577,74.5687,128.399,98.5397,96.6768,0.00345961,0.370748,20.6026,63.576,0.173693,0.0,0.0
835,208.5,71.754,74.4775,125.651,98.525,96.8313,0.00349767,0.372385,20.6008,63.4859,0.157801,0.0,0.0
840,209.75,72.1351,74.68,125.281,98.5298,97.2536,0.00351812,0.374565,20.5968,63.3658,0.118635,0.0,0.0
845,211,72.5195,75.1729,120.544,98.539,97.7458,0.00351374,0.377112,20.5932,63.2557,0.0735438,0.0,0.0
850,212.25,72.7138,75.3463,124.853,98.5298,96.9425,0.00348843,0.379799,20.5899,63.1256,0.147797,0.0,0.0
855,213.5,72.7081,75.3318,125.842,98.5194,96.7597,0.00347335,0.382267,20.587,62.9454,0.164016,0.0,0.0
860,214.75,72.8348,75.3466,123.008,98.5314,97.0951,0.00347453,0.384912,20.5848,62.8654,0.133625,0.0,0.0
865,216,73.1797,75.4718,126.18,98.519,97.6355,0.00347202,0.387543,20.5835,62.7152,0.0819766,0.0,0.0
870,217.25,73.4744,75.9883,126.728,98.5182,96.399,0.00344855,0.390552,20.5802,62.5951,0.197892,0.0,0.0
875,218.5,73.4046,75.9126,126.313,98.5138,95.9829,0.00341357,0.393803,20.5765,62.475,0.236851,0.0,0.0
880,219.75,73.4736,76.1846,124.34,98.5246,96.6732,0.0034036,0.396512,20.5741,62.3549,0.172632,0.0,0.0
885,221,73.5682,76.007,124.449,98.5238,96.5543,0.003438,0.398235,20.5728,62.2148,0.183755,0.0,0.0
890,222.25,73.6636,76.514,122.702,98.5106,96.7763,0.00348782,0.399642,20.572,62.0546,0.161639,0.0,0.0
895,223.5,74.0912,76.9441,122.448,98.5162,96.9029,0.00356681,0.401224,20.5704,61.9245,0.150265,0.0,0.0
900,224.75,73.9442,77.2899,122.828,98.5062,96.3048,0.00360451,0.402723,20.5689,61.8244,0.205676,0.0,0.0
905,226,74.2792,77.3377,124.529,98.5042,95.9243,0.00360366,0.404022,20.568,61.6743,0.241517,0.0,0.0
910,227.25,74.4194,76.9911,127.198,98.4942,96.6196,0.00357945,0.403692,20.5678,61.4741,0.174874,0.0,0.0
915,228.5,74.6914,77.2804,127.99,98.4954,95.1705,0.0035344,0.402448,20.5688,61.4341,0.312502,0.0,0.0
920,229.75,74.5022,77.6265,124.768,98.4886,95.8374,0.00346963,0.400098,20.5717,61.304,0.248329,0.0,0.0
925,231,74.8445,77.5421,121.734,98.4735,96.2598,0.0034378,0.397044,20.5764,61.1639,0.206906,0.0,0.0
930,232.25,74.5161,77.8742,127.603,98.4651,96.0009,0.00346965,0.393096,20.5817,61.0337,0.230643,0.0,0.0
935,233.5,75.1351,77.809,122.325,98.4715,95.751,0.00350792,0.388465,20.5899,60.9437,0.254956,0.0,0.0
940,234.75,74.8852,78.1532,129.387,98.4683,96.0522,0.00352635,0.382312,20.5977,60.8536,0.226073,0.0,0.0
945,236,74.7288,78.3526,127.888,98.4511,96.2382,0.00349406,0.374865,20.6055,60.6935,0.206884,0.0,0.0
950,237.25,74.4996,78.0473,126.669,98.4599,96.3963,0.00344268,0.367342,20.6145,60.6134,0.192762,0.0,0.0
955,238.5,74.5682,77.6322,130.255,98.4455,97.287,0.0033764,0.357256,20.6256,60.5333,0.107733,0.0,0.0
960,239.75,74.4427,77.748,126.467,98.4264,96.0342,0.00330501,0.345713,20.6413,60.3932,0.223904,0.0,0.0
965,241,74.2953,78.0609,129.358,98.4124,97.2982,0.00323687,0.333127,20.6614,60.3131,0.103617,0.0,0.0
970,242.25,73.9504,77.352,132.402,98.4012,96.7732,0.00318104,0.317803,20.679,60.3031,0.151825,0.0,0.0
975,243.5,73.6042,77.5282,128.613,98.3844,98.1308,0.00313651,0.301976,20.6974,60.2731,0.023489,0.0,0.0
980,244.75,73.141,76.9247,134.454,98.3785,96.8925,0.00306278,0.285704,20.7126,60.163,0.138504,0.0,0.0
985,246,72.592,77.1089,130.996,98.3429,99.1147,0.00293965,0.268273,20.7336,60.0829,-0.0711424,0.0,0.0
990,247.25,72.291,76.7453,132.647,98.3445,98.6099,0.00279855,0.250179,20.7581,60.0829,-0.0245282,0.0,0.0
995,248.5,72.0816,76.2819,131.878,98.3373,99.7852,0.002739,0.23407,20.7799,60.0729,-0.133015,0.0,0.0
1000,249.75,71.3798,75.6169,131.849,98.309,99.5236,0.00277573,0.2162,20.7971,59.9728,-0.111748,0.0,0.0
1005,251,70.7202,75.9459,137.363,98.2914,100.056,0.00295935,0.19984,20.816,59.9528,-0.161953,0.0,0.0
1010,252.25,70.1757,74.9143,133.4,98.2918,99.2737,0.00321085,0.185721,20.8322,59.9928,-0.0904556,0.0,0.0
1015,253.5,69.2123,74.4803,135.712,98.277,100.266,0.00349699,0.173105,20.8472,59.9628,-0.182309,0.0,0.0
1020,254.75,68.6202,74.196,136.36,98.2531,100.39,0.00375905,0.162643,20.8603,59.8827,-0.1958,0.0,0.0
1025,256,67.7423,74.1234,133.778,98.2363,100.6,0.00398894,0.153516,20.8702,59.8927,-0.216397,0.0,0.0
1030,257.25,67.5511,73.201,136.325,98.2339,100.168,0.00429078,0.145166,20.879,59.9528,-0.177471,0.0,0.0
1035,258.5,66.7058,73.1408,137.332,98.2124,100.349,0.00454689,0.139023,20.8841,59.9428,-0.195858,0.0,0.0
1040,259.75,65.5471,72.6628,137.217,98.1932,99.3156,0.00492517,0.133808,20.8892,59.8227,-0.103429,0.0,0.0
1045,261,65.9088,72.229,134.17,98.1904,100.146,0.00528926,0.130135,20.8946,59.8027,-0.179498,0.0,0.0
1050,262.25,65.2309,71.6155,136.764,98.176,100.027,0.00561915,0.126094,20.8985,59.8527,-0.169981,0.0,0.0
1055,263.5,65.0186,70.6771,137.959,98.1641,99.5641,0.00589884,0.122818,20.9013,59.8027,-0.128878,0.0,0.0
1060,264.75,64.3483,70.8368,137.476,98.1513,99.4381,0.00617023,0.120273,20.9034,59.7626,-0.118531,0.0,0.0
1065,266,63.9175,70.1453,132.478,98.1613,100.564,0.00639321,0.118456,20.9046,59.7826,-0.220053,0.0,0.0
1070,267.25,63.5186,70.136,136.41,98.1609,99.701,0.00660315,0.116941,20.9054,59.8227,-0.141677,0.0,0.0
1075,268.5,63.3083,69.5502,135.195,98.1565,99.9973,0.00677579,0.115573,20.9065,59.7626,-0.169089,0.0,0.0
1080,269.75,62.7244,69.3836,134.686,98.1469,99.7438,0.00695302,0.114353,20.9066,59.7126,-0.146877,0.0,0.0
1085,271,62.1823,68.3981,135.206,98.1453,99.8465,0.0071333,0.11356,20.9064,59.7326,-0.156387,0.0,0.0
1090,272.25,61.6216,68.4854,133.11,98.1425,100.376,0.00732293,0.112961,20.9062,59.7626,-0.204825,0.0,0.0
1095,273.5,61.8127,68.4748,132.566,98.1133,100.44,0.0075106,0.112449,20.9061,59.6425,-0.213323,0.0,0.0
1100,274.75,61.3484,67.5651,134.391,98.105,100.372,0.00767349,0.11199,20.907,59.6225,-0.207939,0.0,0.0
1105,276,61.1021,67.2977,136.557,98.0946,99.8681,0.00780716,0.111311,20.9075,59.6525,-0.16306,0.0,0.0
1110,277.25,60.4543,66.7617,134.119,98.0798,99.5434,0.00792945,0.110571,20.9081,59.6826,-0.134797,0.0,0.0
1115,278.5,60.5295,66.6332,136.86,98.0602,99.9771,0.00805128,0.110039,20.9091,59.5524,-0.17617,0.0,0.0
1120,279.75,60.1461,66.5678,133.616,98.0547,100.407,0.00812431,0.109605,20.9097,59.5524,-0.215749,0.0,0.0
1125,281,59.9146,65.9558,134.175,98.0614,100.358,0.00813752,0.109234,20.9101,59.6325,-0.210629,0.0,0.0
1130,282.25,60.0182,65.5397,134.043,98.0591,99.7055,0.00811498,0.109018,20.9109,59.6125,-0.151532,0.0,0.0
1135,283.5,59.684,65.4541,131.916,98.0411,99.9392,0.00809243,0.108943,20.911,59.5224,-0.174505,0.0,0.0
1140,284.75,58.7987,64.9842,136.925,98.0499,99.633,0.00805942,0.108841,20.9108,59.5725,-0.145764,0.0,0.0
1145,286,59.1277,64.8127,130.845,98.0471,100.295,0.00803979,0.108765,20.9115,59.5825,-0.206326,0.0,0.0
1150,287.25,58.3782,64.9045,134.474,98.0243,99.3575,0.00806481,0.108658,20.9121,59.5024,-0.12293,0.0,0.0
1155,288.5,58.1721,64.2346,135.557,98.004,99.7033,0.00813204,0.108422,20.9125,59.4824,-0.156441,0.0,0.0
1160,289.75,57.9922,64.0437,135.615,97.998,99.7924,0.00820118,0.10822,20.9127,59.5424,-0.165131,0.0,0.0
1165,291,57.58,63.6421,135.349,97.9916,99.7533,0.00822511,0.10798,20.9128,59.5124,-0.162151,0.0,0.0
1170,292.25,57.6982,63.2843,138.434,97.9588,99.3575,0.00820009,0.107609,20.9129,59.4423,-0.129011,0.0,0.0
1175,293.5,57.6143,63.3787,135.098,97.9461,99.4227,0.00813149,0.107212,20.9121,59.4023,-0.136176,0.0,0.0
1180,294.75,57.267,63.3826,134.743,97.9361,100.184,0.00810111,0.106863,20.9125,59.4824,-0.206494,0.0,0.0
1185,296,56.7071,62.4504,135.77,97.9165,100.17,0.00809741,0.106414,20.9135,59.4624,-0.207086,0.0,0.0
1190,297.25,57.2928,62.642,136.854,97.8978,100.048,0.00807378,0.105968,20.9143,59.3823,-0.197737,0.0,0.0
1195,298.5,56.8022,62.6977,137.4,97.8926,99.5898,0.0080197,0.10575,20.9148,59.3823,-0.156427,0.0,0.0
1200,299.75,56.5148,62.2962,133.594,97.8718,99.6434,0.00795645,0.105601,20.9151,59.4123,-0.163252,0.0,0.0
1205,301,56.8484,61.8139,135.59,97.865,100.014,0.0079624,0.105399,20.9153,59.4123,-0.197626,0.0,0.0
1210,302.25,56.5143,61.7036,135.406,97.8427,99.2273,0.00802127,0.105102,20.9152,59.3222,-0.127883,0.0,0.0
1215,303.5,56.0479,61.4591,139.19,97.8267,99.1751,0.00813726,0.104942,20.915,59.3423,-0.124577,0.0,0.0
1220,304.75,56.1875,61.6085,138.637,97.8271,99.3665,0.00824622,0.104808,20.9149,59.3723,-0.142084,0.0,0.0
1225,306,56.2678,61.4049,133.055,97.8047,99.3331,0.00840539,0.10457,20.9156,59.3423,-0.141111,0.0,0.0
1230,307.25,55.7182,61.113,137.514,97.7916,99.6542,0.00855672,0.10435,20.9162,59.2622,-0.171704,0.0,0.0
1235,308.5,55.9283,60.608,134.139,97.7892,98.7833,0.00865335,0.104143,20.9166,59.3523,-0.0920494,0.0,0.0
1240,309.75,55.748,60.5443,135.36,97.7844,98.8202,0.00863505,0.103855,20.9168,59.3022,-0.0958967,0.0,0.0
1245,311,56.0332,60.5998,136.621,97.7716,100.002,0.0085421,0.103715,20.9169,59.2222,-0.205293,0.0,0.0
1250,312.25,55.3833,60.4262,136.238,97.7712,99.5529,0.00845851,0.103665,20.917,59.2222,-0.164342,0.0,0.0
1255,313.5,55.5332,60.2606,138.209,97.7704,99.6335,0.00840479,0.103609,20.917,59.2622,-0.171782,0.0,0.0
1260,314.75,55.4105,60.1325,139.098,97.7712,99.8631,0.00841043,0.103592,20.917,59.2622,-0.19266,0.0,0.0
1265,316,55.5308,60.3207,137.766,97.7548,99.0729,0.00845878,0.103487,20.9185,59.1921,-0.12188,0.0,0.0
1270,317.25,55.377,59.573,138.154,97.7492,99.6952,0.00851774,0.103248,20.9196,59.1721,-0.179384,0.0,0.0
1275,318.5,55.3873,59.7662,135.517,97.7528,100.341,0.0085817,0.102993,20.9203,59.2222,-0.237803,0.0,0.0
1280,319.75,55.2341,59.3341,137.567,97.7397,99.5754,0.00862996,0.102879,20.9207,59.1821,-0.169336,0.0,0.0
1285,321,54.713,58.9114,138.564,97.7349,99.1264,0.00864661,0.10288,20.9209,59.1421,-0.12866,0.0,0.0
1290,322.25,54.9251,59.2729,138.252,97.7417,99.0107,0.00860957,0.102758,20.9211,59.1621,-0.117397,0.0,0.0
1295,323.5,54.7883,59.0696,133.7,97.746,99.0467,0.00857279,0.102635,20.9212,59.1421,-0.120299,0.0,0.0
1300,324.75,54.698,58.9826,134.129,97.7381,99.2872,0.00854398,0.102652,20.9212,59.072,-0.143108,0.0,0.0
1305,326,54.8807,58.3898,139.741,97.7333,99.6407,0.00854459,0.102506,20.9212,59.062,-0.175896,0.0,0.0
1310,327.25,54.7628,58.8554,138.572,97.7429,99.4115,0.00861429,0.102296,20.9213,59.1121,-0.154047,0.0,0.0
1315,328.5,54.6579,58.2852,136.507,97.7456,99.8631,0.00872414,0.102109,20.9213,59.1121,-0.195038,0.0,0.0
1320,329.75,54.4629,58.6398,135.557,97.744,99.7348,0.00885609,0.102038,20.9213,59.032,-0.183484,0.0,0.0
1325,331,53.9953,58.3302,136.084,97.7333,99.1818,0.0089474,0.10208,20.9213,59.042,-0.133891,0.0,0.0
1330,332.25,54.1377,58.4527,138.742,97.7492,99.3021,0.00896738,0.101959,20.9213,59.062,-0.143429,0.0,0.0
1335,333.5,54.4147,57.8554,134.489,97.7492,99.52,0.00891761,0.101645,20.9214,59.082,-0.163381,0.0,0.0
1340,334.75,54.4855,57.1352,133.196,97.7421,100.037,0.00879039,0.101447,20.9217,58.9619,-0.211198,0.0,0.0
1345,336,54.2215,58.1211,136.129,97.7524,100.224,0.00864845,0.101199,20.9219,58.9519,-0.227216,0.0,0.0
1350,337.25,54.1864,57.72,138.433,97.7716,99.2971,0.00854025,0.100923,20.922,59.032,-0.140895,0.0,0.0
1355,338.5,54.0626,57.7007,133.727,97.7552,98.9004,0.00852412,0.100649,20.922,59.012,-0.105987,0.0,0.0
1360,339.75,53.9675,57.6908,138.254,97.746,98.976,0.00857359,0.100511,20.9228,58.9019,-0.1138,0.0,0.0
1365,341,53.9885,57.2025,135.034,97.764,99.353,0.00865496,0.100644,20.9234,58.9719,-0.146717,0.0,0.0
1370,342.25,53.6816,57.2733,133.485,97.7516,100.442,0.00872991,0.100819,20.9237,58.9819,-0.247058,0.0,0.0
1375,343.5,53.3858,56.8757,136.886,97.7293,99.3696,0.00880788,0.100831,20.924,58.9019,-0.151476,0.0,0.0
1380,344.75,53.242,56.859,138.566,97.7337,99.8492,0.00888742,0.100721,20.9241,58.8919,-0.194881,0.0,0.0
1385,346,53.4614,56.7544,138.32,97.7337,99.4399,0.00893413,0.100592,20.9242,58.9319,-0.157498,0.0,0.0
1390,347.25,54.1047,56.7703,136.263,97.7277,98.7982,0.00894383,0.100482,20.9242,58.9019,-0.0991414,0.0,0.0
1395,348.5,53.0996,56.6768,134.837,97.7125,99.2273,0.008931,0.100226,20.9242,58.8218,-0.139997,0.0,0.0
1400,349.75,53.378,56.4714,134.84,97.7121,99.7947,0.00892303,0.0999282,20.9242,58.8218,-0.191921,0.0,0.0
1405,351,53.714,55.8691,135.461,97.7293,99.2147,0.00892494,0.0996894,20.9243,58.9219,-0.137279,0.0,0.0
1410,352.25,53.2192,56.3997,132.836,97.7197,99.3475,0.00895909,0.0994853,20.9243,58.9019,-0.150347,0.0,0.0
1415,353.5,53.4424,56.5835,134.101,97.6957,98.9081,0.00900277,0.0993548,20.9243,58.8018,-0.112231,0.0,0.0
1420,354.75,53.2897,56.5684,137.76,97.7077,98.6833,0.00903628,0.0992457,20.9243,58.8018,-0.0904178,0.0,0.0
1425,356,53.5635,55.8009,135.759,97.6874,100.05,0.00902502,0.0992758,20.9239,58.8718,-0.217439,0.0,0.0
1430,357.25,53.6017,56.176,137.074,97.6698,98.6811,0.00898603,0.0992291,20.9237,58.8218,-0.0937438,0.0,0.0
1435,358.5,53.1156,55.6582,135.047,97.6562,99.3836,0.00892024,0.0990611,20.9242,58.7818,-0.15956,0.0,0.0
1440,359.75,52.8112,56.0494,135.462,97.6502,98.6888,0.00885607,0.0987766,20.9248,58.8218,-0.0962722,0.0,0.0
1445,361,52.7511,55.6107,136.554,97.6331,98.6852,0.00882767,0.098517,20.9252,58.8118,-0.0975403,0.0,0.0
1450,362.25,52.9282,55.9216,138.202,97.6103,99.1116,0.0088672,0.0981851,20.9255,58.7617,-0.138901,0.0,0.0
1455,363.5,53.3257,55.6203,135.338,97.5824,99.864,0.00891291,0.0979286,20.9257,58.7217,-0.210336,0.0,0.0
1460,364.75,53.0869,55.5372,136.85,97.578,99.5434,0.00894501,0.0976826,20.9259,58.7617,-0.181482,0.0,0.0
1465,366,52.7419,55.8969,134.978,97.5548,98.7685,0.00893804,0.0974794,20.9263,58.7718,-0.112516,0.0,0.0
1470,367.25,52.7406,55.6808,138.337,97.5185,99.4376,0.00892057,0.0972937,20.9265,58.6817,-0.177352,0.0,0.0
1475,368.5,52.7738,55.5007,137.828,97.4885,98.7338,0.0089187,0.0971441,20.9271,58.6617,-0.115505,0.0,0.0
1480,369.75,52.7055,55.2372,132.984,97.4769,99.5223,0.00892713,0.0971134,20.9273,58.7117,-0.188972,0.0,0.0
1485,371,52.9769,55.3887,137.872,97.4434,99.742,0.00892826,0.097084,20.9271,58.7317,-0.212175,0.0,0.0
1490,372.25,52.5343,55.2631,136.149,97.4115,99.0355,0.00893857,0.0971141,20.927,58.6316,-0.150467,0.0,0.0
1495,373.5,52.8468,55.1005,133.925,97.3951,99.4858,0.00895107,0.097017,20.9269,58.6316,-0.19328,0.0,0.0
1500,374.75,52.9367,55.3231,135.476,97.3831,99.4187,0.00896397,0.096843,20.9269,58.6817,-0.18826,0.0,0.0
1505,376,52.3437,54.7732,135.556,97.3464,99.1413,0.00899918,0.0966404,20.9269,58.6717,-0.166267,0.0,0.0
1510,377.25,52.39,54.6133,138.35,97.2949,99.3885,0.00904916,0.0964874,20.9278,58.6016,-0.193747,0.0,0.0
1515,378.5,52.937,54.8608,135.496,97.2833,99.0886,0.00911711,0.096397,20.9284,58.6116,-0.167329,0.0,0.0
1520,379.75,52.5648,54.888,135.596,97.2434,99.3084,0.00916821,0.0963146,20.9286,58.6316,-0.191223,0.0,0.0
1525,381,52.6682,55.0523,138.835,97.2138,98.7311,0.0092254,0.0961499,20.9288,58.6016,-0.140933,0.0,0.0
1530,382.25,53.0761,55.2847,135.514,97.1927,99.0711,0.00929188,0.09595,20.929,58.5215,-0.174198,0.0,0.0
1535,383.5,51.9808,54.5769,133.248,97.1875,98.2457,0.00934646,0.0956626,20.929,58.5516,-0.098547,0.0,0.0
1540,384.75,50.7986,53.2686,138.54,97.1623,98.4006,0.00935241,0.0952893,20.9288,58.5816,-0.11524,0.0,0.0
1545,386,51.1307,52.9179,134.648,97.152,99.1809,0.00930683,0.0949291,20.9281,58.5215,-0.188098,0.0,0.0
1550,387.25,50.9621,52.9795,136.776,97.1188,98.2132,0.00927994,0.0946138,20.9281,58.4715,-0.101976,0.0,0.0
1555,388.5,51.3354,53.1462,134.708,97.106,98.4177,0.00929103,0.0943275,20.9282,58.5315,-0.122097,0.0,0.0
1560,389.75,51.1413,53.0733,139.843,97.0905,98.8657,0.00937847,0.0941088,20.9282,58.5315,-0.164891,0.0,0.0
1565,391,50.8533,53.3247,136.565,97.0561,98.6766,0.00952516,0.0938264,20.9283,58.4315,-0.150685,0.0,0.0
1570,392.25,51.0699,52.8975,135.163,97.0498,98.9945,0.00960492,0.0938231,20.9283,58.4815,-0.180556,0.0,0.0
1575,393.5,50.5937,53.0821,133.576,97.0334,98.5636,0.00959833,0.0939609,20.9283,58.5215,-0.14239,0.0,0.0
1580,394.75,50.9339,52.6826,138.312,97.0338,99.0805,0.00955396,0.0941559,20.9283,58.5315,-0.189956,0.0,0.0
1585,396,51.1307,52.803,138.462,97.0078,98.5059,0.00952762,0.0943487,20.9283,58.4315,-0.139463,0.0,0.0
1590,397.25,50.9748,52.9698,137.568,97.0022,99.0562,0.00951309,0.0944952,20.9283,58.4915,-0.190681,0.0,0.0
1595,398.5,50.8172,53.0977,136.931,97.0138,99.0814,0.00946879,0.0944782,20.9283,58.5215,-0.191911,0.0,0.0
1600,399.75,51.3679,52.5605,135.846,97.0038,99.461,0.00938547,0.0942809,20.9289,58.4114,-0.227647,0.0,0.0
1605,401,50.7142,52.6948,134.498,96.9931,98.6284,0.00926605,0.0939608,20.9296,58.3914,-0.152156,0.0,0.0
1610,402.25,50.7565,52.8266,136.914,97.0154,98.1687,0.00916989,0.0936143,20.93,58.4615,-0.10754,0.0,0.0
1615,403.5,50.5847,52.5372,138.898,97.0062,98.8382,0.00906563,0.0933274,20.9303,58.4615,-0.170261,0.0,0.0
1620,404.75,50.2264,52.1989,138.84,96.9951,98.9234,0.00896462,0.0931267,20.9304,58.3714,-0.179143,0.0,0.0
1625,406,50.711,52.3944,136.617,96.9986,98.7018,0.00890711,0.09279,20.9305,58.4014,-0.158402,0.0,0.0
1630,407.25,50.9565,52.9471,137.75,97.013,99.5394,0.00888501,0.0925912,20.9305,58.4315,-0.233952,0.0,0.0
1635,408.5,50.4729,52.5167,135.116,97.0058,98.5829,0.0088641,0.0924205,20.9306,58.4214,-0.146761,0.0,0.0
1640,409.75,50.597,52.5913,137.482,97.0046,97.7044,0.00882516,0.0921548,20.931,58.3514,-0.0654112,0.0,0.0
1645,411,50.9198,52.6731,138.314,97.0122,98.283,0.00879505,0.091866,20.9318,58.3514,-0.118435,0.0,0.0
1650,412.25,50.9823,52.4322,134.359,97.0142,98.0466,0.00875333,0.091477,20.9323,58.3914,-0.096332,0.0,0.0
1655,413.5,50.7608,52.3485,133.226,97.0146,97.8224,0.00868925,0.0912237,20.9326,58.3414,-0.0754567,0.0,0.0
1660,414.75,50.816,52.9786,139.426,97.0114,98.4758,0.00865204,0.0912049,20.9327,58.2813,-0.136338,0.0,0.0
1665,416,50.8699,52.1646,132.891,97.0454,98.4307,0.00865506,0.0914363,20.9328,58.2913,-0.128993,0.0,0.0
1670,417.25,50.6958,52.4211,137.134,97.0458,99.4345,0.00867004,0.0916443,20.9329,58.3214,-0.221283,0.0,0.0
1675,418.5,50.3749,52.1321,137.717,97.0545,98.378,0.00864466,0.0916531,20.9329,58.3013,-0.12326,0.0,0.0
1680,419.75,50.2582,52.1425,139.441,97.0605,98.401,0.0085446,0.0915503,20.9329,58.2813,-0.124822,0.0,0.0
1685,421,50.2511,52.6702,139.684,97.0801,98.2159,0.00837553,0.0914083,20.9329,58.3314,-0.105856,0.0,0.0
1690,422.25,50.6489,52.6267,136.167,97.1001,98.401,0.00819289,0.0912666,20.933,58.3314,-0.121117,0.0,0.0
1695,423.5,49.9925,52.3435,135.393,97.0869,98.8166,0.00807654,0.0911094,20.933,58.2113,-0.160708,0.0,0.0
1700,424.75,50.4174,51.9011,137.753,97.0957,99.3165,0.00805285,0.0910378,20.933,58.1812,-0.205801,0.0,0.0
1705,426,50.4104,51.9792,138.301,97.1132,98.2862,0.00808858,0.0909956,20.933,58.2813,-0.109257,0.0,0.0
1710,427.25,50.4803,52.1745,139.232,97.1228,98.6397,0.00814705,0.0908771,20.9329,58.2613,-0.14103,0.0,0.0
1715,428.5,50.3149,51.6253,136.39,97.106,98.3141,0.00819585,0.0905975,20.9325,58.1912,-0.112515,0.0,0.0
1720,429.75,50.1582,52.5148,137.611,97.1076,98.7086,0.00822439,0.0903687,20.9328,58.1812,-0.148805,0.0,0.0
1725,431,50.0725,51.8645,129.923,97.1132,98.6622,0.00824908,0.0902406,20.9341,58.2113,-0.144005,0.0,0.0
1730,432.25,50.0505,52.2176,137.314,97.1144,99.0639,0.00824584,0.0901712,20.9348,58.2113,-0.180865,0.0,0.0
1735,433.5,50.4005,52.2368,134.296,97.0833,98.9121,0.00819707,0.0902236,20.9353,58.1412,-0.169833,0.0,0.0
1740,434.75,49.9074,51.8088,133.271,97.0945,98.6163,0.00810715,0.0902529,20.9356,58.1612,-0.141525,0.0,0.0
1745,436,50.2277,51.4455,132.355,97.1076,98.2105,0.00803622,0.0901434,20.9357,58.1812,-0.102773,0.0,0.0
1750,437.25,50.2211,51.977,139.352,97.0873,98.9225,0.00796324,0.0900576,20.9358,58.1312,-0.170412,0.0,0.0
1755,438.5,50.1066,51.5742,136.178,97.0857,98.3357,0.00792395,0.0901021,20.936,58.1112,-0.116423,0.0,0.0
1760,439.75,50.5941,51.6096,137.125,97.0941,98.99,0.00793202,0.0902125,20.9364,58.1612,-0.175988,0.0,0.0
1765,441,50.1748,51.7709,136.129,97.12,98.8324,0.00798709,0.0902174,20.9365,58.1912,-0.159055,0.0,0.0
1770,442.25,50.2515,51.7144,136.98,97.0933,97.817,0.00806896,0.0900638,20.9375,58.1012,-0.0675782,0.0,0.0
1775,443.5,50.0012,51.4361,136.381,97.0845,98.1619,0.00810458,0.089927,20.9382,58.0711,-0.100436,0.0,0.0
1780,444.75,50.0578,52.0397,138.206,97.0893,98.4289,0.00808332,0.0897319,20.9379,58.1112,-0.124708,0.0,0.0
1785,446,50.4936,51.5018,133.164,97.0961,98.2587,0.00797973,0.0897462,20.9375,58.1212,-0.108322,0.0,0.0
1790,447.25,50.7304,51.7892,139.014,97.0813,98.632,0.00789072,0.0897679,20.938,58.0511,-0.144214,0.0,0.0
1795,448.5,50.0018,52.0287,135.199,97.0961,98.8837,0.00786975,0.0897039,20.9385,58.0411,-0.166026,0.0,0.0
1800,449.75,50.3677,51.7198,132.185,97.1044,99.2003,0.00793827,0.0894925,20.9388,58.1112,-0.194326,0.0,0.0
1805,451,50.4651,51.9742,139.326,97.0929,99.0377,0.00805002,0.0893251,20.9387,58.1012,-0.180486,0.0,0.0
1810,452.25,50.2009,52.0182,134.599,97.1132,98.3749,0.00811545,0.0893413,20.9379,58.0011,-0.117467,0.0,0.0
1815,453.5,50.2738,51.7637,135.187,97.1192,98.845,0.00811787,0.0894643,20.9375,58.0311,-0.160291,0.0,0.0
1820,454.75,50.5645,51.7804,135.823,97.1292,98.2173,0.00805266,0.0894123,20.9367,58.0812,-0.101378,0.0,0.0
1825,456,49.9586,51.7211,137.831,97.126,98.9909,0.00795644,0.0893817,20.9361,58.0211,-0.173077,0.0,0.0
1830,457.25,50.2249,51.4188,138.147,97.106,98.9463,0.00785564,0.0893429,20.9367,57.9711,-0.170849,0.0,0.0
1835,458.5,50.3185,51.5496,136.739,97.1172,98.5708,0.00776217,0.0892311,20.9371,58.0211,-0.135194,0.0,0.0
1840,459.75,49.8871,51.6571,135.401,97.1212,99.0175,0.00770209,0.0889933,20.9372,58.0411,-0.175968,0.0,0.0
1845,461,50.7723,51.7713,138.24,97.106,98.4321,0.00769015,0.0886984,20.937,57.961,-0.123429,0.0,0.0
1850,462.25,50.2539,51.6092,134.393,97.1204,98.6117,0.00770482,0.0883998,20.9369,57.921,-0.138678,0.0,0.0
1855,463.5,50.2382,51.4246,138.467,97.116,98.8279,0.00775038,0.0881504,20.9369,57.9911,-0.159014,0.0,0.0
1860,464.75,50.1846,51.2768,138.283,97.118,98.7329,0.00781769,0.0880964,20.9368,57.9811,-0.150074,0.0,0.0
1865,466,49.9674,51.3754,137.606,97.1032,99.0422,0.00786959,0.0881206,20.9368,57.891,-0.179927,0.0,0.0
1870,467.25,49.6129,51.7048,132.621,97.1048,98.8175,0.0079178,0.0880977,20.9368,57.881,-0.159108,0.0,0.0
1875,468.5,50.1303,51.7684,135.773,97.112,98.4082,0.00787678,0.0880919,20.9368,57.911,-0.120661,0.0,0.0
1880,469.75,50.3378,51.6498,135.976,97.0973,98.6874,0.00778521,0.0881157,20.9376,57.881,-0.147827,0.0,0.0
1885,471,50.2353,51.8897,138.747,97.0961,99.4002,0.00769991,0.0880641,20.9376,57.8009,-0.213435,0.0,0.0
1890,472.25,50.3336,51.7038,135.395,97.0933,99.2566,0.00765898,0.0880757,20.9376,57.861,-0.200536,0.0,0.0
1895,473.5,49.9878,51.6635,136.778,97.0909,98.3155,0.00765839,0.0882039,20.9376,57.861,-0.114061,0.0,0.0
1900,474.75,50.6685,51.5421,136.543,97.0741,98.2497,0.0076598,0.0882012,20.9376,57.8109,-0.109546,0.0,0.0
1905,476,50.157,51.5469,137.797,97.0625,98.3069,0.00765215,0.0879818,20.9376,57.8209,-0.115927,0.0,0.0
1910,477.25,50.0353,51.5166,136.35,97.0649,98.3744,0.0076264,0.0878515,20.9376,57.881,-0.121953,0.0,0.0
1915,478.5,49.448,51.6075,136.897,97.0677,99.0868,0.00757885,0.0879066,20.9369,57.901,-0.187353,0.0,0.0
1920,479.75,49.7086,51.6823,138.401,97.0462,98.4132,0.00753696,0.0880568,20.9368,57.8109,-0.127294,0.0,0.0
1925,481,49.9033,51.6254,136.028,97.0422,98.7743,0.0075012,0.0882077,20.9372,57.7509,-0.161002,0.0,0.0
1930,482.25,50.1863,51.6763,138.097,97.0505,98.7,0.00744274,0.0881101,20.9373,57.8309,-0.153369,0.0,0.0
1935,483.5,49.998,51.3178,133.572,97.041,98.7347,0.00741483,0.0879952,20.9374,57.7909,-0.157462,0.0,0.0
1940,484.75,49.9777,51.4381,139.046,97.0314,99.1382,0.00739317,0.0879655,20.9366,57.7509,-0.195473,0.0,0.0
1945,486,50.0917,51.4683,135.474,97.0394,98.7545,0.00737,0.0879796,20.936,57.7609,-0.159439,0.0,0.0
1950,487.25,50.0926,51.8458,141.061,97.037,99.0499,0.0073304,0.0880495,20.9356,57.8109,-0.186844,0.0,0.0
1955,488.5,49.8006,51.5976,136.485,97.0374,98.5609,0.00727985,0.0880551,20.9364,57.7609,-0.141765,0.0,0.0
1960,489.75,49.8041,51.5534,137.366,97.0282,98.3731,0.00723536,0.0879178,20.9368,57.7408,-0.125273,0.0,0.0
1965,491,50.1467,51.5068,134.965,97.0346,99.2471,0.00721731,0.0877857,20.9371,57.7408,-0.205172,0.0,0.0
1970,492.25,50.1893,51.0319,140.91,97.0374,98.5028,,0.0877338,,57.7909,-0.1364,0.0,0.0
1975,493.5,50.0932,51.2963,133.075,97.0246,98.7923,,0.0877654,,57.8009,-0.164309,0.0,0.0
1980,494.75,49.9794,51.377,133.108,97.0326,98.9995,,0.08788,,57.7308,-0.182621,0.0,0.0
1985,496,49.8007,51.2779,138.95,97.0262,99.1467,,,,57.7809,-0.196746,0.0,0.0
1990,497.25,49.5176,51.1297,131.622,97.0282,98.1966,,,,57.7609,-0.108928,0.0,0.0
1995,498.5,50.0836,51.2283,137.431,97.013,98.8653,,,,57.7108,-0.172113,0.0,0.0
2000,499.75,50.1371,51.6407,136.954,97.0194,98.0624,,,,57.6808,-0.0973073,0.0,0.0
2005,501,50.0817,51.1786,137.408,97.0194,98.3893,,,,57.7108,-0.127595,0.0,0.0
2010,502.25,49.459,51.2806,136.246,97.035,98.3834,,,,57.7408,-0.125593,0.0,0.0
2012,502.75,50.2787,51.2094,138.782,97.023,98.8387,,,,57.6508,-0.16873,0.0,0.0