File: 01_Data/FDNY_LDF/Cone/FDNY_LDF_Cone_HF25Scan_220909_R1.csv
Names,Time,Stack TC,Smoke TC,Exh Press,Smoke Comp,Smoke Meas,CO Meter,CO2 Meter,O2 Meter,Sample Mass,Ext Coeff,Start Test,Flame Verif
Chan Gain,,500,500,1,1,1,1,1,1,1,1,1.0,1.0
Offset,,0,0,0.142519,0,0,0,0,0,0,0,0.0,0.0
Gain,,1,1,25.011,13.0826,14.7555,1,1,1,1.00088,1.03743,1.0,1.0
Units,sec,C,C,Pa,%,%,%,%,%,g,/m,,
Baseline,,44.6059,45.0516,137.95,100.723,108.577,0.00031747,0.0478855,20.9959,-443.69,-0.683248,,
5,1,42.6293,42.8279,142.335,100.298,108.111,0.000641904,0.0608346,20.9804,62.0046,-0.68266,0.0,0.0
10,2.25,42.016,42.6319,140.7,100.262,108.092,0.000591632,0.0608011,20.9802,61.8945,-0.684291,0.0,0.0
15,3.5,42.1531,42.684,137.115,100.208,107.958,0.000519964,0.0602574,20.9801,61.8845,-0.677955,0.0,0.0
20,4.75,42.6686,43.4645,139.758,100.173,107.831,0.000445185,0.0596635,20.9809,61.8745,-0.670362,0.0,0.0
25,6,42.5663,42.8665,137.288,100.128,107.832,0.000386711,0.059156,20.9818,61.8745,-0.674612,0.0,0.0
30,7.25,42.0987,42.7281,138.161,100.077,107.616,0.000277452,0.0585928,20.983,61.8645,-0.660925,0.0,0.0
35,8.5,42.9714,42.982,138.876,100.043,107.665,0.000164932,0.058077,20.9839,61.8545,-0.668198,0.0,0.0
40,9.75,42.5887,43.1906,134.107,100.009,107.637,7.84007e-05,0.0573183,20.9852,61.8244,-0.668962,0.0,0.0
45,11,42.8957,42.7744,137.508,99.9543,107.446,4.68166e-05,0.0566281,20.9864,61.8244,-0.657748,0.0,0.0
50,12.25,42.6103,42.8302,138.879,99.9431,107.169,4.55646e-05,0.0555659,20.9882,61.8144,-0.635279,0.0,0.0
55,13.5,42.8992,42.9795,143.141,99.9096,106.924,6.27747e-05,0.0544378,20.9898,61.7844,-0.617509,0.0,0.0
60,14.75,42.4841,42.9997,135.968,99.8677,106.77,0.000104493,0.05351,20.9914,61.7744,-0.608211,0.0,0.0
65,16,42.6842,42.9329,138.592,99.8309,106.637,0.00016828,0.0527773,20.9924,61.7644,-0.60023,0.0,0.0
70,17.25,43.0763,43.575,138.067,99.8237,106.451,0.0002177,0.0521545,20.9929,61.7344,-0.584923,0.0,0.0
75,18.5,42.9786,43.206,136.951,99.7902,105.914,0.000245516,0.0516099,20.9932,61.7143,-0.542016,0.0,0.0
80,19.75,42.8547,43.4201,138.548,99.7886,106.053,0.000274651,0.0510817,20.9933,61.7043,-0.554033,0.0,0.0
85,21,42.6916,43.1874,140.374,99.7722,106.087,0.000308944,0.0508882,20.9934,61.6743,-0.5585,0.0,0.0
90,22.25,42.6808,43.0811,141.755,99.7654,105.895,0.000320417,0.0507814,20.9935,61.6543,-0.542649,0.0,0.0
95,23.5,43.2774,43.2274,142.897,99.7782,105.564,0.000304042,0.0505489,20.9935,61.6343,-0.512958,0.0,0.0
100,24.75,43.0459,43.6203,137.015,99.7718,105.636,0.000305867,0.0504311,20.9935,61.6143,-0.519711,0.0,0.0
105,26,43.1827,43.2236,136.364,99.7766,105.514,0.000348778,0.0503539,20.9938,61.6043,-0.508755,0.0,0.0
110,27.25,43.0734,43.2311,137.97,99.7914,105.735,0.000427675,0.050336,20.9941,61.5742,-0.526456,0.0,0.0
115,28.5,43.2984,43.5667,137.714,99.805,105.17,0.000532676,0.0503775,20.9942,61.5542,-0.476449,0.0,0.0
120,29.75,43.2955,43.5562,138.18,99.8014,104.86,0.000614564,0.0503623,20.9942,61.5342,-0.449968,0.0,0.0
125,31,43.1231,43.4187,140.266,99.8433,105.312,0.000703984,0.0503436,20.994,61.5042,-0.485298,0.0,0.0
130,32.25,43.0986,43.3957,135.977,99.8517,104.892,0.000767397,0.0503606,20.994,61.4641,-0.448157,0.0,0.0
135,33.5,43.6723,44.0192,140.358,99.8764,105.205,0.000840594,0.050389,20.9939,61.4541,-0.472974,0.0,0.0
140,34.75,42.9652,43.2305,138.167,99.8852,104.458,0.000941285,0.0504696,20.9932,61.4341,-0.407362,0.0,0.0
145,36,43.3792,43.0336,138.78,99.9204,104.531,0.00110269,0.0505838,20.9917,61.4041,-0.410475,0.0,0.0
150,37.25,43.5344,43.4934,142.078,99.9603,104.016,0.00128664,0.0508672,20.9907,61.364,-0.36192,0.0,0.0
155,38.5,43.4447,43.7569,137.019,99.987,104.56,0.00144281,0.0576726,20.9813,61.2539,-0.406992,0.0,0.0
160,39.75,43.4219,43.584,129,100.021,105.633,0.00156363,0.0904181,20.931,61.1438,-0.496819,0.0,1.0
165,41,44.2918,44.1267,127.423,100.048,105.02,0.00163459,0.155084,20.8684,61.0137,-0.441361,0.0,1.0
170,42.25,46.1229,44.9472,123.18,100.084,105.23,0.00171088,0.219569,20.7902,60.8836,-0.456222,0.0,1.0
175,43.5,46.2404,44.3735,124.367,100.109,104.898,0.00179785,0.263867,20.728,60.7635,-0.425301,0.0,1.0
180,44.75,47.211,44.9271,123.338,100.149,104.614,0.00194703,0.308518,20.683,60.5934,-0.396913,0.0,0.0
185,46,48.3395,45.6742,121.652,100.173,103.965,0.00213018,0.337358,20.6539,60.4532,-0.338154,0.0,0.0
190,47.25,49.5213,45.8563,123.431,100.207,104.287,0.00232706,0.354517,20.6367,60.3331,-0.363247,0.0,0.0
195,48.5,49.9612,47.7328,122.038,100.239,103.881,0.00246658,0.363641,20.6265,60.223,-0.324794,0.0,0.0
200,49.75,51.7215,48.7075,121.922,100.262,104.531,0.00254751,0.367124,20.6224,60.0829,-0.379402,0.0,0.0
205,51,52.4213,48.674,125.973,100.303,104.552,0.00255087,0.366437,20.621,59.9728,-0.377552,0.0,0.0
210,52.25,52.5866,49.5946,127.132,100.323,104.823,0.00252057,0.363608,20.6233,59.8327,-0.399343,0.0,0.0
215,53.5,53.353,49.8891,127.631,100.359,104.373,0.00245607,0.358655,20.6313,59.7326,-0.356946,0.0,0.0
220,54.75,54.1913,50.891,131.546,100.384,105.141,0.00236861,0.354265,20.6402,59.6025,-0.421325,0.0,0.0
225,56,54.4046,51.3544,122.851,100.434,104.346,0.00227387,0.348404,20.6488,59.4824,-0.34771,0.0,0.0
230,57.25,55.2883,52.1161,126.055,100.459,105.067,0.00219574,0.342515,20.6563,59.3823,-0.408164,0.0,0.0
235,58.5,55.5739,52.6727,125.527,100.494,104.872,0.00213482,0.336359,20.6639,59.3022,-0.388042,0.0,0.0
240,59.75,55.8253,52.7536,129.269,100.556,105.647,0.00209615,0.329716,20.6722,59.1621,-0.449438,0.0,0.0
245,61,56.4503,53.4328,126.659,100.582,105.515,0.00205657,0.322998,20.6816,59.072,-0.435718,0.0,0.0
250,62.25,56.2874,53.6205,128.543,100.601,105.69,0.00199864,0.316528,20.6894,58.992,-0.449044,0.0,0.0
255,63.5,56.9434,53.9904,127.665,100.649,105.421,0.00195018,0.311475,20.695,58.8718,-0.421495,0.0,0.0
260,64.75,56.898,54.3421,127.575,100.687,105.368,0.00192217,0.307632,20.6991,58.7818,-0.413478,0.0,0.0
265,66,57.4356,54.6052,125.908,100.715,105.767,0.00191777,0.304418,20.7026,58.6717,-0.44542,0.0,0.0
270,67.25,57.3897,55.0522,123.148,100.733,105.326,0.00192003,0.301551,20.7066,58.5816,-0.405712,0.0,0.0
275,68.5,57.4275,55.4781,127.901,100.77,105.983,0.00191458,0.297129,20.7127,58.4615,-0.459019,0.0,0.0
280,69.75,57.5337,55.6458,125.177,100.794,106.26,0.00188828,0.292554,20.7177,58.3714,-0.480571,0.0,0.0
285,71,58.0001,55.8869,124.782,100.832,106.087,0.00184141,0.288679,20.7217,58.2813,-0.462323,0.0,0.0
290,72.25,58.3202,56.0341,128.039,100.85,106.258,0.00176776,0.284676,20.7263,58.1912,-0.475372,0.0,0.0
295,73.5,57.8763,56.5291,131.847,100.875,106.713,0.00171474,0.281305,20.7301,58.0912,-0.512004,0.0,0.0
300,74.75,58.4664,56.6683,132.62,100.891,106.638,0.00169644,0.278246,20.7327,58.0011,-0.50415,0.0,0.0
305,76,58.1996,56.9008,128.921,100.911,106.326,0.00169467,0.275224,20.7356,57.921,-0.475644,0.0,0.0
310,77.25,58.3595,57.1326,130.741,100.92,106.615,0.00172472,0.272572,20.7387,57.8309,-0.499559,0.0,0.0
315,78.5,58.4711,57.4268,127.534,100.947,106.951,0.00181043,0.270443,20.7414,57.7008,-0.525778,0.0,0.0
320,79.75,58.7187,57.1649,126.051,100.967,106.828,0.00192686,0.268001,20.7447,57.6107,-0.513551,0.0,0.0
325,81,58.7151,57.5858,126.691,100.962,106.385,0.0019704,0.265204,20.7479,57.5307,-0.476195,0.0,0.0
330,82.25,58.6235,57.5494,128.477,100.984,106.882,0.00188892,0.262442,20.7509,57.4206,-0.516603,0.0,0.0
335,83.5,58.9697,57.7271,132.85,101.006,106.798,0.0017516,0.260315,20.7541,57.3105,-0.507454,0.0,0.0
340,84.75,58.7998,57.5242,129.022,101.022,107.538,0.00162156,0.257944,20.7568,57.2504,-0.568766,0.0,0.0
345,86,58.9658,58.4701,134.121,101.018,106.897,0.00151252,0.255267,20.7596,57.1503,-0.514813,0.0,0.0
350,87.25,58.5067,58.4097,130.999,101.041,107.173,0.00144269,0.252902,20.7618,57.0803,-0.536158,0.0,0.0
355,88.5,58.363,58.4511,127.671,101.055,107.487,0.00138792,0.250937,20.7637,56.9602,-0.561548,0.0,0.0
360,89.75,58.6813,58.6589,125.553,101.052,107.286,0.00131091,0.24934,20.7652,56.9001,-0.544782,0.0,0.0
365,91,58.5726,58.6129,128.539,101.062,107.204,0.00124314,0.247311,20.7689,56.81,-0.53689,0.0,0.0
370,92.25,58.7603,58.6648,135.568,101.079,107.531,0.00120762,0.245166,20.7713,56.7199,-0.563053,0.0,0.0
375,93.5,58.6419,58.7464,132.21,101.089,107.429,0.0012168,0.243499,20.7739,56.5998,-0.553572,0.0,0.0
380,94.75,58.5073,58.8522,131.824,101.095,107.663,0.00126794,0.241847,20.7765,56.5398,-0.572775,0.0,0.0
385,96,58.5358,58.9598,128.419,101.105,107.544,0.00131562,0.239577,20.7792,56.4497,-0.561932,0.0,0.0
390,97.25,58.6368,59.1518,124.33,101.123,107.685,0.00134948,0.237154,20.7814,56.3496,-0.572198,0.0,0.0
395,98.5,58.5128,59.107,128.209,101.129,107.57,0.00136269,0.234941,20.7843,56.2696,-0.561912,0.0,0.0
400,99.75,58.5929,59.1333,127.636,101.13,107.787,0.00141865,0.232828,20.7878,56.1995,-0.580185,0.0,0.0
405,101,58.6652,59.0563,132.701,101.138,107.919,0.00151718,0.231288,20.7909,56.0994,-0.590526,0.0,0.0
410,102.25,58.1656,59.2302,133.991,101.154,108.072,0.00162253,0.228952,20.7931,56.0193,-0.601991,0.0,0.0
415,103.5,58.4922,59.2416,130.044,101.153,107.393,0.00171282,0.227919,20.7952,55.9693,-0.544735,0.0,0.0
420,104.75,58.7855,59.39,128.209,101.143,107.831,0.00174987,0.226964,20.7966,55.8892,-0.582688,0.0,0.0
425,106,58.3713,59.3745,128.374,101.154,107.827,0.00174872,0.225567,20.7979,55.7691,-0.581337,0.0,0.0
430,107.25,58.1188,59.6071,129.331,101.172,108.201,0.00171995,0.224136,20.8001,55.7191,-0.611323,0.0,0.0
435,108.5,58.0668,59.3493,131.154,101.177,107.935,0.00167468,0.222851,20.8014,55.599,-0.588371,0.0,0.0
440,109.75,58.0136,59.2201,128.168,101.159,108.184,0.00162516,0.22198,20.8022,55.5189,-0.610994,0.0,0.0
445,111,57.7629,59.4741,131.279,101.17,107.905,0.00158984,0.221167,20.8026,55.4588,-0.586473,0.0,0.0
450,112.25,58.5468,59.4663,128.951,101.164,108.34,0.00156086,0.220164,20.8038,55.3688,-0.623624,0.0,0.0
455,113.5,58.1156,59.3249,134.275,101.179,107.994,0.0014815,0.219072,20.8053,55.2687,-0.593238,0.0,0.0
460,114.75,58.2527,59.1216,131.451,101.184,108.141,0.0013983,0.217927,20.8066,55.1886,-0.605133,0.0,0.0
465,116,57.6228,59.5744,127.876,101.181,108.186,0.00132895,0.216627,20.8081,55.1185,-0.609208,0.0,0.0
470,117.25,58.1009,59.6401,132.621,101.186,108.056,0.00127342,0.215006,20.8094,55.0485,-0.597862,0.0,0.0
475,118.5,58.0568,59.3856,129.037,101.182,107.949,0.00125555,0.213305,20.8113,54.9584,-0.589154,0.0,0.0
480,119.75,58.0815,59.0715,127.902,101.188,108.12,0.00127464,0.211841,20.8127,54.8883,-0.603028,0.0,0.0
485,121,58.0408,59.48,129.967,101.186,108.41,0.00132812,0.211087,20.8132,54.7882,-0.627621,0.0,0.0
490,122.25,57.3196,59.4165,132.24,101.207,108.334,0.00141761,0.2107,20.8124,54.7082,-0.619292,0.0,0.0
495,123.5,58.1103,59.5778,132.728,101.184,108.481,0.00149741,0.210332,20.8124,54.6181,-0.633624,0.0,0.0
500,124.75,57.895,59.3658,134.866,101.183,108.134,0.0015518,0.20956,20.8128,54.5681,-0.604635,0.0,0.0
505,126,57.9348,59.6606,129.291,101.187,108.395,0.00155167,0.208895,20.8139,54.488,-0.62623,0.0,0.0
510,127.25,57.8104,59.3708,127.853,101.202,108.32,0.00151323,0.208111,20.8153,54.4179,-0.618549,0.0,0.0
515,128.5,57.47,59.8053,128.393,101.182,108.114,0.00145308,0.206978,20.8165,54.3379,-0.603113,0.0,0.0
520,129.75,57.8091,59.7381,133.713,101.194,108.495,0.001412,0.205267,20.8181,54.2478,-0.634045,0.0,0.0
525,131,57.4682,59.4604,133.804,101.203,108.201,0.00142073,0.203834,20.8192,54.1677,-0.608483,0.0,0.0
530,132.25,57.0402,59.4987,129.836,101.193,108.134,0.00146253,0.202931,20.8201,54.1077,-0.603736,0.0,0.0
535,133.5,57.4564,59.5993,131.364,101.19,108.379,0.00150581,0.202122,20.8206,54.0276,-0.624581,0.0,0.0
540,134.75,57.1477,59.5284,130.667,101.192,108.476,0.00154167,0.201554,20.8209,53.9475,-0.632564,0.0,0.0
545,136,57.2705,59.4049,135.19,101.191,108.446,0.00158003,0.201299,20.8213,53.8774,-0.63014,0.0,0.0
550,137.25,57.398,59.5828,132.812,101.207,108.47,0.00161777,0.201121,20.8223,53.8074,-0.630708,0.0,0.0
555,138.5,57.3036,59.299,130.428,101.207,108.358,0.00163699,0.200513,20.8236,53.7073,-0.621259,0.0,0.0
560,139.75,57.0558,59.3846,129.134,101.216,108.157,0.00163977,0.19947,20.8246,53.6573,-0.603551,0.0,0.0
565,141,56.9889,59.3714,130.145,101.222,108.276,0.00162773,0.198165,20.8258,53.5772,-0.613083,0.0,0.0
570,142.25,56.7371,59.2918,128.4,101.22,108.379,0.00162069,0.196976,20.8265,53.4871,-0.621961,0.0,0.0
575,143.5,56.9885,59.3546,136.222,101.229,108.4,0.00163536,0.196208,20.8269,53.397,-0.622839,0.0,0.0
580,144.75,56.991,59.1496,129.956,101.233,108.345,0.00165469,0.195534,20.8282,53.357,-0.617869,0.0,0.0
585,146,56.9805,59.3662,132.117,101.239,108.558,0.00164447,0.194672,20.8301,53.2969,-0.635165,0.0,0.0
590,147.25,56.6994,59.2094,130.194,101.22,108.276,0.00159941,0.194027,20.8313,53.2169,-0.613263,0.0,0.0
595,148.5,56.6486,59.0109,128.076,101.244,108.358,0.00153701,0.193157,20.8326,53.1668,-0.617921,0.0,0.0
600,149.75,57.1713,59.3147,131.803,101.253,108.342,0.00147747,0.192283,20.8345,53.0968,-0.615882,0.0,0.0
605,151,56.4608,59.3444,130.473,101.245,108.298,0.00144049,0.191389,20.8358,52.9967,-0.612818,0.0,0.0
610,152.25,56.4368,58.7996,132.262,101.254,108.5,0.00145358,0.190419,20.8375,52.9266,-0.629041,0.0,0.0
615,153.5,56.7456,59.2465,136.923,101.257,108.605,0.00150426,0.189338,20.8389,52.8365,-0.637547,0.0,0.0
620,154.75,56.6097,58.5213,136.965,101.265,108.632,0.00156506,0.188426,20.8403,52.7665,-0.639131,0.0,0.0
625,156,56.3697,58.8923,131.659,101.261,108.415,0.0016436,0.187853,20.8411,52.7665,-0.621251,0.0,0.0
630,157.25,56.1751,58.7281,131.484,101.271,108.277,0.00170225,0.187343,20.8409,52.6764,-0.608743,0.0,0.0
635,158.5,56.2742,58.2924,128.991,101.287,108.473,0.0017213,0.18682,20.8405,52.5963,-0.623758,0.0,0.0
640,159.75,56.5103,58.5519,132,101.295,108.401,0.00170754,0.186398,20.8405,52.5463,-0.616994,0.0,0.0
645,161,55.7757,58.8254,129.161,101.276,108.44,0.00168412,0.185981,20.8412,52.4662,-0.621931,0.0,0.0
650,162.25,56.1036,58.4955,135.134,101.296,108.373,0.0016604,0.18524,20.8427,52.3861,-0.614578,0.0,0.0
655,163.5,56.4993,58.5096,131.595,101.292,108.564,0.00167496,0.184599,20.8438,52.3061,-0.63092,0.0,0.0
660,164.75,55.8959,58.7587,133.096,101.299,108.447,0.0017261,0.184493,20.8445,52.266,-0.620528,0.0,0.0
665,166,55.9707,58.8796,133.594,101.295,108.498,0.00178494,0.184667,20.8449,52.186,-0.625154,0.0,0.0
670,167.25,56.0386,58.1902,132.486,101.302,108.719,0.00181151,0.184614,20.8449,52.1259,-0.643036,0.0,0.0
675,168.5,55.3308,58.5655,135.539,101.312,108.617,0.0018016,0.184621,20.8442,52.0458,-0.633541,0.0,0.0
680,169.75,55.6806,57.9614,131.945,101.307,108.701,0.00174372,0.184596,20.8438,51.9758,-0.641062,0.0,0.0
685,171,55.6986,58.4873,131.727,101.302,108.485,0.00167868,0.184435,20.8436,51.8957,-0.623413,0.0,0.0
690,172.25,55.9786,58.4052,132.684,101.313,108.594,0.00164538,0.183897,20.8435,51.8457,-0.63151,0.0,0.0
695,173.5,55.3909,57.6469,129.373,101.313,108.548,0.00164692,0.183452,20.8438,51.7556,-0.62766,0.0,0.0
700,174.75,55.814,58.2647,133.904,101.311,108.663,0.00166698,0.183047,20.8442,51.6855,-0.637571,0.0,0.0
705,176,55.2413,57.5095,134.182,101.315,108.662,0.00169012,0.182474,20.8444,51.5954,-0.637028,0.0,0.0
710,177.25,55.4084,57.9424,131.109,101.309,108.56,0.00170056,0.182205,20.8445,51.5254,-0.629074,0.0,0.0
715,178.5,55.8337,58.6339,133.856,101.319,108.666,0.00171047,0.18265,20.8446,51.4053,-0.637079,0.0,0.0
720,179.75,55.2029,57.9705,132.977,101.308,108.474,0.00172955,0.183103,20.8446,51.3452,-0.622006,0.0,0.0
725,181,55.4232,57.954,135.212,101.299,108.373,0.0017544,0.18333,20.8447,51.3352,-0.614293,0.0,0.0
730,182.25,55.6038,58.1387,132.099,101.317,108.545,0.00175452,0.183562,20.8447,51.2952,-0.627149,0.0,0.0
735,183.5,55.1944,58.1157,132.742,101.313,108.354,0.00172009,0.183651,20.8449,51.2051,-0.611449,0.0,0.0
740,184.75,55.133,57.8123,131.596,101.296,108.389,0.00166176,0.183244,20.8452,51.145,-0.615866,0.0,0.0
745,186,55.258,57.5427,131.047,101.314,108.4,0.00161763,0.18293,20.8453,51.0349,-0.615197,0.0,0.0
750,187.25,55.3474,57.3149,131.046,101.297,108.455,0.00161281,0.182728,20.8454,50.9649,-0.621352,0.0,0.0
755,188.5,55.2807,57.7774,128.979,101.283,108.422,0.00162012,0.182977,20.8447,50.9248,-0.619846,0.0,0.0
760,189.75,55.2787,57.5693,135.356,101.27,108.441,0.001626,0.183509,20.8442,50.8848,-0.622619,0.0,0.0
765,191,55.2031,57.2861,132.93,101.265,108.733,0.00162608,0.184089,20.8436,50.7447,-0.647467,0.0,0.0
770,192.25,55.0024,57.76,136.076,101.25,108.327,0.0016027,0.184455,20.8432,50.7647,-0.614809,0.0,0.0
775,193.5,55.3141,57.5494,128.35,101.227,108.104,0.00153084,0.184637,20.843,50.6746,-0.598183,0.0,0.0
780,194.75,55.0048,57.5964,134.343,101.221,108.572,0.00141487,0.184996,20.8428,50.6046,-0.63806,0.0,0.0
785,196,55.0179,57.2896,127.706,101.19,108.294,0.00130137,0.185379,20.8427,50.5345,-0.617394,0.0,0.0
790,197.25,55.1586,57.6497,129.617,101.16,108.363,0.00120539,0.185983,20.8427,50.5145,-0.625912,0.0,0.0
795,198.5,55.0893,57.2233,130.964,101.127,108.403,0.00114683,0.18655,20.8417,50.4044,-0.632297,0.0,0.0
800,199.75,55.2955,57.6847,132.816,101.107,108.001,0.00113895,0.187165,20.8411,50.2943,-0.600347,0.0,0.0
805,201,54.8974,57.0556,130.698,101.069,108.299,0.00118032,0.188032,20.8408,50.2142,-0.628697,0.0,0.0
810,202.25,55.4979,57.4623,134.607,101.047,108.167,0.00124384,0.188476,20.8398,50.1742,-0.619617,0.0,0.0
815,203.5,55.3821,57.3557,132.913,100.99,107.779,0.00130615,0.18883,20.839,50.0841,-0.592045,0.0,0.0
820,204.75,54.9264,57.5601,133.861,100.971,108.033,0.00134768,0.189582,20.838,50.0341,-0.615155,0.0,0.0
825,206,54.9302,57.4996,134.278,100.933,108.103,0.00132667,0.190481,20.837,49.954,-0.624524,0.0,0.0
830,207.25,54.9884,57.4125,131.495,100.896,107.93,0.00127401,0.191692,20.8353,49.9039,-0.613343,0.0,0.0
835,208.5,55.0248,57.2651,133.135,100.843,107.832,0.00121425,0.193029,20.8335,49.8339,-0.609817,0.0,0.0
840,209.75,55.0789,57.3563,131.518,100.8,107.641,0.00117035,0.194319,20.8325,49.7738,-0.597583,0.0,0.0
845,211,55.0685,57.5838,133.291,100.764,107.876,0.00113159,0.195304,20.8315,49.6637,-0.620677,0.0,0.0
850,212.25,55.3897,57.3916,132.335,100.72,107.84,0.00109156,0.196162,20.8303,49.6637,-0.621569,0.0,0.0
855,213.5,54.945,57.2886,130.18,100.69,107.619,0.0010423,0.197058,20.8295,49.6037,-0.605633,0.0,0.0
860,214.75,55.2436,57.3743,130.131,100.662,107.707,0.000999652,0.197857,20.8288,49.4936,-0.615583,0.0,0.0
865,216,55.3105,57.4052,130.915,100.634,107.786,0.000957817,0.19846,20.8277,49.3635,-0.624802,0.0,0.0
870,217.25,55.105,57.375,132.537,100.598,107.657,0.00089413,0.19924,20.8268,49.3334,-0.617097,0.0,0.0
875,218.5,55.2541,57.3144,128.519,100.575,107.351,0.000836171,0.200731,20.8249,49.3234,-0.59331,0.0,0.0
880,219.75,55.1445,57.4382,126.079,100.55,107.507,0.000860468,0.202463,20.8232,49.2534,-0.608896,0.0,0.0
885,221,55.3073,57.7965,129.825,100.53,107.566,0.000999364,0.204359,20.8201,49.2033,-0.615659,0.0,0.0
890,222.25,55.7765,57.4518,129.609,100.494,107.194,0.00122687,0.2069,20.8171,49.1433,-0.587316,0.0,0.0
895,223.5,55.599,57.4077,133.611,100.488,107.195,0.00144024,0.209218,20.8146,49.0832,-0.587971,0.0,0.0
900,224.75,55.6157,57.6515,131.373,100.474,107.411,0.00160988,0.210876,20.8124,49.0332,-0.607529,0.0,0.0
905,226,56.0598,57.8781,129.574,100.447,107.552,0.0016858,0.21223,20.8106,48.9731,-0.621997,0.0,0.0
910,227.25,55.9377,57.7189,134.126,100.419,107.511,0.00168808,0.213596,20.8091,48.863,-0.621025,0.0,0.0
915,228.5,56.1858,57.7469,132.583,100.407,107.377,0.00165381,0.214779,20.8082,48.803,-0.610708,0.0,0.0
920,229.75,56.0461,57.8675,131.837,100.379,107.51,0.00162282,0.21585,20.8068,48.7229,-0.624567,0.0,0.0
925,231,56.1513,57.835,125.492,100.409,107.052,0.00162033,0.217218,20.8059,48.6629,-0.583042,0.0,0.0
930,232.25,56.2436,57.8958,130.978,100.446,107.189,0.00167273,0.218896,20.8038,48.6028,-0.591271,0.0,0.0
935,233.5,56.2693,57.9469,129.414,100.5,107.421,0.00174744,0.220448,20.802,48.5227,-0.606093,0.0,0.0
940,234.75,56.3424,58.0497,130.764,100.517,107.327,0.00180099,0.22262,20.8002,48.4527,-0.596526,0.0,0.0
945,236,56.2255,58.2138,132.032,100.534,107.266,0.00181173,0.224968,20.7967,48.3926,-0.589814,0.0,0.0
950,237.25,56.5769,58.1405,132.364,100.572,107.563,0.00174531,0.226877,20.7945,48.3226,-0.611524,0.0,0.0
955,238.5,56.4897,58.3775,128.213,100.597,107.142,0.00165619,0.228487,20.7932,48.2525,-0.573595,0.0,0.0
960,239.75,56.9764,58.411,129.967,100.639,107.396,0.0015613,0.230893,20.7903,48.1724,-0.591348,0.0,0.0
965,241,56.9428,58.2086,133.733,100.644,107.348,0.00144493,0.233417,20.7874,48.0924,-0.586831,0.0,0.0
970,242.25,56.8819,58.8273,129.129,100.682,107.431,0.00128096,0.235239,20.7849,48.0023,-0.590463,0.0,0.0
975,243.5,55.9126,58.3721,128.861,100.698,107.354,0.00117451,0.23659,20.7828,47.9122,-0.582457,0.0,0.0
980,244.75,57.3831,58.8739,130.844,100.718,107.453,0.00114648,0.238661,20.7809,47.8221,-0.589045,0.0,0.0
985,246,56.4882,58.9777,131.383,100.74,107.249,0.00121329,0.240088,20.7787,47.732,-0.569696,0.0,0.0
990,247.25,57.5553,59.0011,131.764,100.751,107.634,0.00133841,0.242206,20.7756,47.722,-0.601407,0.0,0.0
995,248.5,58.4618,59.2843,126.133,100.745,107.312,0.00142856,0.245033,20.7716,47.642,-0.574685,0.0,0.0
1000,249.75,57.7757,59.1078,127.642,100.754,107.323,0.00147195,0.24723,20.7688,47.5519,-0.574809,0.0,0.0
1005,251,58.0828,59.2518,129.782,100.745,106.993,0.00149394,0.249001,20.7664,47.4718,-0.547571,0.0,0.0
1010,252.25,57.6923,59.851,128.397,100.757,107.217,0.00151759,0.251,20.7638,47.3817,-0.565504,0.0,0.0
1015,253.5,57.9757,59.5313,132.389,100.76,107.274,0.00155056,0.253196,20.7618,47.2816,-0.570033,0.0,0.0
1020,254.75,58.1879,59.3867,125.969,100.748,106.965,0.00157339,0.254898,20.7598,47.2416,-0.544909,0.0,0.0
1025,256,58.6503,59.877,127.31,100.745,107.05,0.0015628,0.256313,20.7583,47.1415,-0.552436,0.0,0.0
1030,257.25,58.5089,60.0744,130.039,100.731,107.018,0.00151494,0.257858,20.7566,47.0314,-0.550941,0.0,0.0
1035,258.5,58.5925,60.1533,129.577,100.715,107.183,0.00145217,0.259651,20.755,46.9714,-0.566425,0.0,0.0
1040,259.75,58.6622,59.9679,126.941,100.689,107.006,0.00139094,0.26105,20.7533,46.8813,-0.553806,0.0,0.0
1045,261,59.1339,60.1408,128.666,100.671,106.595,0.0013561,0.262029,20.7513,46.8112,-0.520363,0.0,0.0
1050,262.25,59.2323,60.4569,131.94,100.66,106.774,0.00134581,0.263434,20.749,46.7111,-0.536587,0.0,0.0
1055,263.5,59.4021,60.6458,131.273,100.623,106.942,0.00135049,0.265147,20.7476,46.601,-0.55425,0.0,0.0
1060,264.75,59.2832,60.3795,127.407,100.607,106.463,0.00135971,0.266771,20.7459,46.561,-0.514869,0.0,0.0
1065,266,59.6772,60.7671,129.582,100.58,106.853,0.00137125,0.268148,20.7439,46.4009,-0.550633,0.0,0.0
1070,267.25,59.8174,60.8342,126.817,100.536,106.557,0.00137931,0.269818,20.7427,46.3308,-0.529304,0.0,0.0
1075,268.5,59.5594,60.9059,126.595,100.486,106.424,0.00139795,0.270688,20.742,46.2707,-0.522543,0.0,0.0
1080,269.75,59.8671,61.2311,128.048,100.463,106.364,0.00144464,0.270998,20.7416,46.2007,-0.519479,0.0,0.0
1085,271,59.4502,61.2005,125.443,100.454,106.28,0.00152296,0.271538,20.7406,46.1006,-0.513029,0.0,0.0
1090,272.25,60.0728,61.3174,128.208,100.415,105.809,0.00160944,0.272947,20.7386,46.0005,-0.476155,0.0,0.0
1095,273.5,59.8097,61.7427,126.879,100.369,106.278,0.00165525,0.275116,20.7367,45.9204,-0.520621,0.0,0.0
1100,274.75,60.1935,61.7224,129.115,100.341,106.109,0.00164529,0.277375,20.7335,45.8304,-0.508608,0.0,0.0
1105,276,60.2632,61.5953,127.688,100.296,105.88,0.00159468,0.27982,20.7305,45.7503,-0.493025,0.0,0.0
1110,277.25,60.5932,61.4664,127.532,100.241,105.929,0.00155486,0.281622,20.7277,45.6902,-0.502277,0.0,0.0
1115,278.5,60.7872,61.7987,123.861,100.169,105.719,0.00154978,0.283585,20.7254,45.5901,-0.490722,0.0,0.0
1120,279.75,60.7548,61.7603,128.94,100.119,105.796,0.00158474,0.285401,20.7236,45.5001,-0.501922,0.0,0.0
1125,281,60.7296,62.0925,126.301,100.061,105.804,0.00161625,0.286148,20.7226,45.38,-0.507919,0.0,0.0
1130,282.25,60.7086,62.0031,126.923,100.057,105.519,0.00163183,0.286906,20.7208,45.3099,-0.48373,0.0,0.0
1135,283.5,61.1958,62.2739,128.187,100.076,105.651,0.00162884,0.288237,20.719,45.2398,-0.493359,0.0,0.0
1140,284.75,61.156,62.1925,128.358,100.099,105.535,0.00161578,0.290475,20.7167,45.0997,-0.481205,0.0,0.0
1145,286,61.4596,62.5628,122.291,100.142,105.847,0.00159169,0.292859,20.7144,44.9796,-0.504267,0.0,0.0
1150,287.25,61.7154,62.9612,130.935,100.172,105.247,0.00159954,0.295098,20.712,44.9296,-0.449718,0.0,0.0
1155,288.5,61.3459,62.9,131.895,100.207,105.392,0.00167739,0.297042,20.7095,44.7694,-0.459129,0.0,0.0
1160,289.75,61.9569,62.9971,124.094,100.255,105.482,0.00179071,0.299208,20.7069,44.6894,-0.462516,0.0,0.0
1165,291,62.0293,62.5413,127.087,100.288,104.745,0.0018678,0.301489,20.7031,44.6093,-0.395728,0.0,0.0
1170,292.25,62.4286,62.9196,128.996,100.322,105.604,0.00188908,0.303575,20.7,44.5392,-0.466951,0.0,0.0
1175,293.5,62.2823,62.998,127.942,100.372,105.193,0.00186445,0.3065,20.6974,44.4992,-0.426964,0.0,0.0
1180,294.75,62.1774,63.488,125.53,100.419,104.57,0.0018359,0.309365,20.6945,44.3491,-0.368657,0.0,0.0
1185,296,62.4485,63.6623,126.732,100.458,104.934,0.0018534,0.311898,20.6917,44.2089,-0.396683,0.0,0.0
1190,297.25,62.7369,63.8373,131.869,100.487,105.5,0.00195514,0.313643,20.6884,44.1389,-0.443,0.0,0.0
1195,298.5,62.3334,63.8639,127.755,100.528,104.738,0.00208802,0.315728,20.6855,43.9887,-0.373318,0.0,0.0
1200,299.75,62.9336,63.6846,127.869,100.575,104.51,0.00222102,0.317505,20.6838,43.9587,-0.349269,0.0,0.0
1205,301,62.887,64.029,124.559,100.58,104.578,0.00235321,0.318838,20.6821,43.8586,-0.354721,0.0,0.0
1210,302.25,63.2063,64.3792,128.019,100.62,104.536,0.00244868,0.320439,20.6802,43.7385,-0.347464,0.0,0.0
1215,303.5,63.2846,64.5897,131.134,100.662,104.919,0.00250992,0.322362,20.6779,43.6084,-0.37697,0.0,0.0
1220,304.75,63.5316,64.4546,125.661,100.687,104.273,0.00253527,0.323826,20.6765,43.5083,-0.318551,0.0,0.0
1225,306,63.4414,64.3614,127.285,100.71,103.684,0.00252593,0.324731,20.6759,43.4082,-0.264797,0.0,0.0
1230,307.25,63.4836,64.8953,127.926,100.739,104.019,0.00251814,0.325372,20.6756,43.2781,-0.291593,0.0,0.0
1235,308.5,63.9567,65.0516,128.892,100.741,104.691,0.00253202,0.325898,20.6754,43.168,-0.350002,0.0,0.0
1240,309.75,63.772,65.2533,125.64,100.763,103.969,0.00258345,0.326713,20.6745,43.0779,-0.285059,0.0,0.0
1245,311,64.2898,65.4275,122.674,100.778,103.253,0.00264482,0.327819,20.6731,43.0079,-0.220796,0.0,0.0
1250,312.25,63.8813,65.4172,127.851,100.792,104.015,0.00269457,0.328433,20.672,42.9078,-0.286443,0.0,0.0
1255,313.5,64.1676,65.5978,129.483,100.807,104.281,0.00271056,0.328126,20.6715,42.7877,-0.308288,0.0,0.0
1260,314.75,64.1732,65.7489,126.769,100.815,103.394,0.00268174,0.327378,20.6721,42.7076,-0.229822,0.0,0.0
1265,316,64.5217,65.7229,129.471,100.798,104.008,0.00262893,0.32657,20.6733,42.5675,-0.285348,0.0,0.0
1270,317.25,64.4443,66.0687,124.423,100.805,104.007,0.00253459,0.326074,20.6741,42.4874,-0.284584,0.0,0.0
1275,318.5,64.4623,66.0762,127.607,100.81,104.117,0.00243645,0.325261,20.6753,42.3773,-0.293684,0.0,0.0
1280,319.75,64.4765,66.0296,132.662,100.794,103.502,0.00235943,0.323772,20.677,42.2772,-0.241278,0.0,0.0
1285,321,64.6647,66.3525,128.279,100.78,103.099,0.00232075,0.322028,20.6786,42.1671,-0.207111,0.0,0.0
1290,322.25,64.643,65.8961,125.613,100.766,103.552,0.0023073,0.320323,20.6797,42.067,-0.248271,0.0,0.0
1295,323.5,64.4574,66.1187,126.762,100.76,103.981,0.00234696,0.318364,20.6803,41.9469,-0.286336,0.0,0.0
1300,324.75,64.5441,66.6489,129.243,100.729,103.424,0.00238234,0.31569,20.684,41.8569,-0.240228,0.0,0.0
1305,326,64.6714,66.1901,128.298,100.719,103.07,0.00236284,0.312871,20.6881,41.7267,-0.20997,0.0,0.0
1310,327.25,64.8039,66.2335,131.398,100.676,103.99,0.00230087,0.309441,20.691,41.6667,-0.294732,0.0,0.0
1315,328.5,64.4538,66.406,128.491,100.649,103.519,0.00223473,0.305584,20.6943,41.5966,-0.255914,0.0,0.0
1320,329.75,64.6606,66.1927,127.76,100.602,103.108,0.00223849,0.302098,20.698,41.4965,-0.223849,0.0,0.0
1325,331,64.6699,66.3875,128.873,100.556,102.181,0.00235655,0.299241,20.7015,41.4365,-0.145952,0.0,0.0
1330,332.25,64.2952,66.5325,132.091,100.514,102.772,0.00256039,0.294654,20.7038,41.3664,-0.202176,0.0,0.0
1335,333.5,64.1735,66.3502,128.3,100.466,101.911,0.00285286,0.292342,20.7052,41.2764,-0.129951,0.0,0.0
1340,334.75,64.2654,66.5324,132.007,100.413,101.904,0.0032464,0.291422,20.706,41.1863,-0.134163,0.0,0.0
1345,336,64.1379,66.3667,128.043,100.379,101.876,0.00391565,0.290047,20.7065,41.0862,-0.134629,0.0,0.0
1350,337.25,63.9772,66.3961,124.782,100.314,102.328,0.00472209,0.287707,20.7068,40.9761,-0.180903,0.0,0.0
1355,338.5,63.9369,66.0205,132.775,100.263,103.754,0.00554434,0.286299,20.7067,40.906,-0.311417,0.0,0.0
1360,339.75,63.9226,66.2067,127.998,100.213,104.34,0.00636337,0.285605,20.7059,40.8059,-0.3671875,0.0,0.0
1365,341,64.1023,66.1412,128.252,100.158,105.044,0.00707373,0.286075,20.7055,40.6458,-0.433411,0.0,0.0
1370,342.25,63.6651,66.0905,128.426,100.107,105.422,0.00784784,0.28823,20.7018,40.5857,-0.470727,0.0,0.0
1375,343.5,63.5868,65.9693,126.749,100.045,104.1,0.00858959,0.293973,20.6938,40.5357,-0.361582,0.0,0.0
1380,344.75,63.7142,65.9065,126.861,100.008,103.252,0.00933899,0.305436,20.6761,40.4056,-0.290493,0.0,0.0
1385,346,63.582,66.1128,127.608,99.9679,101.251,0.0100233,0.319568,20.6578,40.2454,-0.116101,0.0,0.0
1390,347.25,63.7342,66.2321,126.664,99.9128,103.095,0.0104772,0.330594,20.6482,40.1454,-0.285282,0.0,0.0
1395,348.5,63.894,66.4169,129.581,99.8429,103.042,0.0108261,0.334706,20.6407,40.0453,-0.286996,0.0,0.0
1400,349.75,64.1455,66.248,129.248,99.8014,104.047,0.0110056,0.332473,20.6401,39.9652,-0.379156,0.0,0.0
1405,351,63.7125,66.3632,128.64,99.7654,105.716,0.0111429,0.324028,20.6416,39.9552,-0.527195,0.0,0.0
1410,352.25,63.6575,66.0606,128.587,99.7215,106.167,0.0113356,0.312292,20.653,39.775,-0.56996,0.0,0.0
1415,353.5,62.9606,66.1101,131.247,99.6856,105.537,0.0117091,0.297426,20.6718,39.765,-0.519119,0.0,0.0
1420,354.75,62.9103,65.6548,133.03,99.6608,106.353,0.012181,0.283322,20.69,39.735,-0.591428,0.0,0.0
1425,356,62.5945,65.7671,134.097,99.6485,106.433,0.0127197,0.266693,20.7069,39.6449,-0.599376,0.0,0.0
1430,357.25,61.9685,65.2884,134.876,99.6121,106.833,0.0134022,0.251779,20.7259,39.6349,-0.636897,0.0,0.0
1435,358.5,61.6779,65.058,133.316,99.6006,106.725,0.0141283,0.237861,20.7446,39.5749,-0.628744,0.0,0.0
1440,359.75,61.55,64.7789,138.134,99.5882,106.916,0.0149592,0.225679,20.7635,39.5248,-0.646102,0.0,0.0
1445,361,60.7144,64.6677,131.634,99.5862,106.796,0.0156949,0.214168,20.7785,39.5148,-0.636083,0.0,0.0
1450,362.25,60.5933,64.4207,133.317,99.5806,106.717,0.0162803,0.205128,20.7893,39.4748,-0.629838,0.0,0.0
1455,363.5,59.943,63.7799,134.983,99.5882,106.77,0.0168032,0.198361,20.7973,39.4047,-0.633676,0.0,0.0
1460,364.75,59.3813,63.6082,133.259,99.6066,106.693,0.0171747,0.193726,20.8023,39.3547,-0.625431,0.0,0.0
1465,366,58.7977,63.4193,132.134,99.6237,106.642,0.0174033,0.190425,20.8073,39.3847,-0.619561,0.0,0.0
1470,367.25,58.5463,63.1898,136.553,99.6437,106.631,0.0174835,0.187734,20.8115,39.4147,-0.616777,0.0,0.0
1475,368.5,58.2375,62.5372,132.176,99.6872,106.696,0.0174028,0.185276,20.8157,39.3447,-0.618297,0.0,0.0
1480,369.75,57.9314,62.3064,136.196,99.7343,106.874,0.0172238,0.182766,20.8193,39.3346,-0.629194,0.0,0.0
1485,371,56.4407,62.1665,137.915,99.7643,107.244,0.0170512,0.180628,20.8219,39.3346,-0.657887,0.0,0.0
1490,372.25,57.3943,62.0098,132.195,99.807,107.181,0.0169691,0.179373,20.8234,39.2946,-0.648679,0.0,0.0
1495,373.5,56.9121,61.0467,134.172,99.8705,106.885,0.0169658,0.178878,20.8249,39.2245,-0.617739,0.0,0.0
1500,374.75,56.3624,61.2725,135.503,99.9196,107.027,0.0169783,0.178437,20.8258,39.2346,-0.625371,0.0,0.0
1505,376,56.4276,60.8383,135.423,99.9731,107.295,0.0169301,0.177813,20.8265,39.2045,-0.643254,0.0,0.0
1510,377.25,55.8625,60.5855,141.178,100.03,107.287,0.0168384,0.177237,20.827,39.1845,-0.63737,0.0,0.0
1515,378.5,55.7896,60.2295,134.88,100.088,107.443,0.0166999,0.176536,20.8273,39.1645,-0.645237,0.0,0.0
1520,379.75,55.5923,59.7439,138.005,100.162,107.478,0.0165206,0.175726,20.8281,39.1245,-0.641573,0.0,0.0
1525,381,55.0977,59.4881,134.017,100.226,107.43,0.0162918,0.174481,20.8313,39.1044,-0.631616,0.0,0.0
1530,382.25,54.5013,59.5451,133.904,100.302,107.544,0.0161011,0.17212,20.8355,39.0644,-0.634489,0.0,0.0
1535,383.5,54.6727,59.1412,133.716,100.389,107.688,0.0159713,0.169943,20.838,39.0144,-0.638668,0.0,0.0
1540,384.75,54.2835,58.9773,134.477,100.455,107.658,0.0159182,0.169126,20.8398,39.0144,-0.630186,0.0,0.0
1545,386,54.2256,58.4209,136.024,100.504,107.811,0.0159226,0.169536,20.8399,38.9943,-0.638708,0.0,0.0
1550,387.25,53.905,58.1091,137.273,100.57,107.749,0.0159532,0.169946,20.84,38.9643,-0.627535,0.0,0.0
1555,388.5,53.4609,58.1792,133.425,100.663,107.906,0.0159713,0.169331,20.8407,38.9543,-0.632347,0.0,0.0
1560,389.75,53.4969,57.9282,134.616,100.728,108.078,0.0159552,0.168469,20.842,38.9143,-0.640889,0.0,0.0
1565,391,53.2982,57.4538,133.159,100.772,108.151,0.0158996,0.167104,20.8438,38.9143,-0.6431,0.0,0.0
1570,392.25,52.9737,57.4385,136.811,100.862,108.25,0.0158291,0.165645,20.8458,38.8642,-0.64336,0.0,0.0
1575,393.5,52.961,57.2196,136.478,100.914,108.359,0.0158074,0.16436,20.8473,38.8742,-0.647725,0.0,0.0
1580,394.75,52.7003,57.0588,136.973,100.965,108.39,0.0158572,0.163273,20.8481,38.8242,-0.645763,0.0,0.0
1585,396,52.3337,56.8312,131.879,101.006,108.204,0.0159735,0.162921,20.8487,38.8142,-0.626392,0.0,0.0
1590,397.25,52.2014,56.7891,133.477,101.049,108.16,0.0160825,0.162858,20.849,38.7842,-0.618795,0.0,0.0
1595,398.5,51.4474,55.8975,135.442,101.091,108.151,0.0161708,0.162601,20.8491,38.7842,-0.614338,0.0,0.0
1600,399.75,50.8181,54.8061,135.908,101.122,108.233,0.0162164,0.162057,20.8502,38.7441,-0.618463,0.0,0.0
1605,401,50.3222,54.3326,135.087,101.147,108.328,0.0162632,0.16148,20.851,38.6941,-0.624185,0.0,0.0
1610,402.25,50.2949,54.3744,135.746,101.178,108.721,0.0163274,0.161457,20.8517,38.6741,-0.654346,0.0,0.0
1615,403.5,49.9409,54.5399,136.848,101.193,108.516,0.0164028,0.161693,20.8528,38.654,-0.63578,0.0,0.0
1620,404.75,50.0541,53.9086,136.438,101.187,108.405,0.0164932,0.16093,20.8535,38.624,-0.62706,0.0,0.0
1625,406,49.7942,53.8594,134.542,101.193,108.542,0.0166355,0.159694,20.8543,38.634,-0.638044,0.0,0.0
1630,407.25,49.8008,53.4509,139.081,101.195,108.311,0.0168111,0.158614,20.8553,38.604,-0.618402,0.0,0.0
1635,408.5,49.4939,53.6411,134.639,101.178,108.774,0.0169769,0.15792,20.8559,38.584,-0.658793,0.0,0.0
1640,409.75,49.6161,53.1802,135.735,101.157,108.478,0.017087,0.157223,20.8571,38.584,-0.63584,0.0,0.0
1645,411,49.5384,53.2735,137.453,101.14,108.499,0.0171266,0.156519,20.8578,38.5439,-0.639158,0.0,0.0
1650,412.25,49.6783,52.6031,137.722,101.133,108.568,0.0171503,0.155772,20.8589,38.5139,-0.645585,0.0,0.0
1655,413.5,49.2426,53.0808,135.626,101.079,108.403,0.0171745,0.154862,20.86,38.5039,-0.636607,0.0,0.0
1660,414.75,49.4183,52.7174,135.935,101.048,108.467,0.0172411,0.153675,20.8603,38.5039,-0.644706,0.0,0.0
1665,416,49.2682,52.4103,132.701,101.027,108.461,0.0173252,0.152911,20.8604,38.4439,-0.646085,0.0,0.0
1670,417.25,49.1941,52.671,133.967,100.966,108.337,0.0174069,0.152765,20.8605,38.4238,-0.641193,0.0,0.0
1675,418.5,48.8473,52.595,132.719,100.926,108.163,0.0174404,0.152919,20.8605,38.4238,-0.630177,0.0,0.0
1680,419.75,48.4598,52.158,133.791,100.877,108.314,0.0174201,0.153011,20.8605,38.4138,-0.647291,0.0,0.0
1685,421,48.4874,52.1524,134.723,100.842,108.342,0.0174031,0.152861,20.8605,38.3838,-0.652845,0.0,0.0
1690,422.25,48.3517,51.666,136.915,100.776,108.294,0.017404,0.152733,20.8607,38.3237,-0.654705,0.0,0.0
1695,423.5,48.5017,51.802,131.515,100.695,107.826,0.0174177,0.152543,20.8614,38.3538,-0.622664,0.0,0.0
1700,424.75,48.2398,51.7527,135.758,100.657,107.663,0.0174261,0.152304,20.8618,38.3438,-0.612396,0.0,0.0
1705,426,48.48,51.4233,134.317,100.607,108.021,0.0174359,0.152088,20.8622,38.2637,-0.647046,0.0,0.0
1710,427.25,48.2331,51.0224,136.651,100.548,108.083,0.0174312,0.151763,20.8633,38.2737,-0.657699,0.0,0.0
1715,428.5,47.7628,51.1766,137.295,100.479,107.72,0.0173363,0.151319,20.8642,38.2537,-0.633231,0.0,0.0
1720,429.75,48.6803,51.476,132.595,100.451,107.564,0.0171364,0.150626,20.8656,38.2337,-0.622664,0.0,0.0
1725,431,48.3202,50.836,139.627,100.392,107.63,0.0169141,0.149345,20.8675,38.2337,-0.633542,0.0,0.0
1730,432.25,47.9471,50.9911,134.167,100.343,107.457,0.016735,0.147922,20.8686,38.2237,-0.623366,0.0,0.0
1735,433.5,48.0494,50.671,135.212,100.304,107.322,0.0165978,0.14689,20.8693,38.2337,-0.615354,0.0,0.0
1740,434.75,47.6691,51.0894,137.343,100.27,107.476,0.016528,0.146208,20.8697,38.2137,-0.631557,0.0,0.0
1745,436,47.9985,50.5047,137.015,100.305,107.488,0.0165088,0.14572,20.8699,38.1936,-0.62936,0.0,0.0
1750,437.25,47.7146,50.3205,136.458,100.362,107.292,0.0165496,0.145704,20.87,38.1436,-0.607582,0.0,0.0
1755,438.5,47.7592,50.6084,134.359,100.433,107.696,0.0166113,0.146125,20.8701,38.1036,-0.63541,0.0,0.0
1760,439.75,47.6363,50.3492,132.944,100.488,107.611,0.0165967,0.146285,20.8702,38.0835,-0.623227,0.0,0.0
1765,441,47.1703,50.2707,139.311,100.542,107.847,0.0164748,0.145514,20.871,38.0435,-0.638314,0.0,0.0
1770,442.25,47.5889,50.0825,139.153,100.574,107.967,0.0163371,0.144018,20.8726,38.0235,-0.645491,0.0,0.0
1775,443.5,47.9462,50.2,138.854,100.622,107.625,0.0162442,0.142873,20.8735,37.9835,-0.612228,0.0,0.0
1780,444.75,47.131,50.0947,133.861,100.637,107.918,0.0162088,0.142678,20.8741,37.9634,-0.635719,0.0,0.0
1785,446,47.2839,49.8353,135.961,100.666,108.016,0.0162425,0.143191,20.8734,37.9334,-0.641358,0.0,0.0
1790,447.25,47.1674,49.9642,135.899,100.655,107.884,0.0163003,0.143687,20.8727,37.9734,-0.631208,0.0,0.0
1795,448.5,47.2044,49.4839,138.696,100.695,108.05,0.0163273,0.14384,20.8724,37.9534,-0.641531,0.0,0.0
1800,449.75,47.2633,49.7472,133.679,100.671,108.064,0.0163075,0.143437,20.873,37.9534,-0.644835,0.0,0.0
1805,451,47.2034,49.6121,135.987,100.656,108.069,0.0162564,0.143009,20.8739,37.9234,-0.646736,0.0,0.0
1810,452.25,47.0732,49.3978,137.875,100.624,107.952,0.0161929,0.142715,20.8747,37.9034,-0.639724,0.0,0.0
1815,453.5,46.983,49.2582,136.92,100.603,107.878,0.0160794,0.142374,20.8753,37.8734,-0.63537,0.0,0.0
1820,454.75,47.3234,49.1302,134.728,100.565,107.811,0.015926,0.141912,20.8756,37.8734,-0.63318,0.0,0.0
1825,456,46.7863,49.1929,133.942,100.497,107.667,0.0156987,0.141125,20.8774,37.8433,-0.627189,0.0,0.0
1830,457.25,47.1046,49.2577,135.145,100.442,107.648,0.0155087,0.139982,20.8789,37.8233,-0.630543,0.0,0.0
1835,458.5,46.9401,49.2034,138.079,100.373,107.663,0.015299,0.138987,20.8809,37.8233,-0.638097,0.0,0.0
1840,459.75,46.9121,48.9393,139.698,100.309,107.735,0.0151556,0.138311,20.8822,37.7533,-0.649978,0.0,0.0
1845,461,46.6374,48.7131,140.751,100.259,107.345,0.0150595,0.137281,20.8837,37.7432,-0.621506,0.0,0.0
1850,462.25,46.9466,49.0532,134.897,100.219,107.255,0.014999,0.136517,20.8847,37.7032,-0.617458,0.0,0.0
1855,463.5,46.9021,48.8689,135.45,100.131,107.497,0.0150038,0.135876,20.8849,37.6832,-0.645929,0.0,0.0
1860,464.75,46.597,48.4879,137.676,100.086,107.216,0.0150913,0.135777,20.8845,37.6832,-0.626248,0.0,0.0
1865,466,46.9017,48.4082,133.701,99.9918,107.274,0.0152081,0.136273,20.8843,37.6932,-0.639751,0.0,0.0
1870,467.25,46.5509,48.6375,135.497,99.9248,106.892,0.0153074,0.136726,20.8841,37.6732,-0.613405,0.0,0.0
1875,468.5,46.7578,48.5008,136.454,99.9391,106.821,0.0153481,0.136788,20.8837,37.6632,-0.605999,0.0,0.0
1880,469.75,46.6784,48.4847,140.747,99.9715,107.24,0.0152766,0.136681,20.883,37.6632,-0.6387,0.0,0.0
1885,471,46.8129,48.6537,135.997,99.9731,107.187,0.0151528,0.136554,20.8831,37.6432,-0.634044,0.0,0.0
1890,472.25,46.538,48.3958,134.253,100.022,107.366,0.0148934,0.136181,20.8832,37.6131,-0.644815,0.0,0.0
1895,473.5,46.7206,48.429,139.266,100.07,107.419,0.0146417,0.13549,20.8838,37.6031,-0.64496,0.0,0.0
1900,474.75,46.5272,47.8655,135.977,100.099,107.335,0.0144083,0.13491,20.8846,37.5831,-0.635175,0.0,0.0
1905,476,46.1839,48.3163,134.158,100.157,107.398,0.0142173,0.133864,20.885,37.5531,-0.635255,0.0,0.0
1910,477.25,46.3587,47.7951,138.704,100.196,107.629,0.0140896,0.132593,20.8852,37.5431,-0.651179,0.0,0.0
1915,478.5,46.1021,47.6775,138.261,100.244,107.648,0.014036,0.131817,20.8857,37.513,-0.648466,0.0,0.0
1920,479.75,46.519,47.6117,137.663,100.281,107.375,0.0140138,0.131843,20.886,37.483,-0.621995,0.0,0.0
1925,481,46.5121,48.0161,134.707,100.328,107.621,0.0139951,0.132074,20.8864,37.513,-0.638536,0.0,0.0
1930,482.25,46.3499,47.8511,138.77,100.372,107.664,0.0139726,0.131905,20.8874,37.473,-0.638243,0.0,0.0
1935,483.5,46.3638,47.7174,136.95,100.411,107.766,0.013979,0.131482,20.8879,37.453,-0.64326,0.0,0.0
1940,484.75,45.9022,47.4597,136.841,100.441,107.823,0.0140133,0.130811,20.8889,37.433,-0.645411,0.0,0.0
1945,486,46.1516,47.9694,138.004,100.494,107.636,0.01403,0.129938,20.8906,37.4029,-0.624851,0.0,0.0
1950,487.25,46.1597,47.637,135.608,100.524,107.496,0.013977,0.129412,20.8917,37.4029,-0.61022,0.0,0.0
1955,488.5,46.1812,47.7383,136.383,100.546,107.634,0.0138307,0.128796,20.8924,37.3929,-0.619924,0.0,0.0
1960,489.75,46.0516,47.7822,133.366,100.586,107.54,0.0136635,0.128122,20.8928,37.3629,-0.608355,0.0,0.0
1965,491,46.3276,47.654,137.407,100.603,107.876,0.013541,0.12754,20.893,37.3129,-0.635256,0.0,0.0
1970,492.25,45.7337,47.2959,136.767,100.629,107.889,0.0134138,0.127188,20.8939,37.3429,-0.633973,0.0,0.0
1975,493.5,46.3167,47.3629,137.638,100.621,107.954,0.0132504,0.127016,20.8952,37.3529,-0.640165,0.0,0.0
1980,494.75,45.8685,47.5254,136.781,100.647,107.428,0.0130866,0.12639,20.897,37.3229,-0.593337,0.0,0.0
1985,496,45.8721,46.7905,138.789,100.656,107.94,0.0128443,0.125606,20.8988,37.3029,-0.635847,0.0,0.0
1990,497.25,45.417,47.4769,134.096,100.664,107.968,0.0126154,0.124677,20.9,37.2728,-0.637478,0.0,0.0
1995,498.5,45.6536,47.0366,136.187,100.66,107.821,0.0123966,0.123245,20.9018,37.2728,-0.625421,0.0,0.0
2000,499.75,45.7658,47.6804,138.625,100.656,107.754,0.0122411,0.121628,20.9036,37.2428,-0.620116,0.0,0.0
2005,501,45.4027,46.9155,138.603,100.657,107.701,0.0121342,0.120436,20.9053,37.2328,-0.615519,0.0,0.0
2010,502.25,45.8683,47.1003,136.506,100.648,107.616,0.0120338,0.119637,20.9064,37.2328,-0.609195,0.0,0.0
2015,503.5,45.5625,46.9018,137.092,100.619,107.735,0.0119771,0.119187,20.907,37.2528,-0.62184,0.0,0.0
2020,504.75,45.2073,46.8606,137.457,100.615,108.024,0.011934,0.11854,20.908,37.2228,-0.646551,0.0,0.0
2025,506,45.606,47.3143,138.292,100.598,107.995,0.0119087,0.117794,20.9089,37.2028,-0.645713,0.0,0.0
2030,507.25,45.311,46.6641,136.964,100.568,107.658,0.0118838,0.117217,20.9094,37.1827,-0.619995,0.0,0.0
2035,508.5,45.7442,46.9294,135.72,100.542,107.472,,0.116477,,37.1527,-0.606645,0.0,0.0
2040,509.75,45.3284,46.9831,136.398,100.516,107.898,,0.115534,,37.1627,-0.644958,0.0,0.0
2045,511,46.0002,46.9577,132.35,100.487,107.554,,,,37.1527,-0.618535,0.0,0.0
2050,512.25,45.2511,47.031,135.822,100.452,107.708,,,,37.1527,-0.634701,0.0,0.0
2055,513.5,45.8289,47.3141,135.698,100.418,107.484,,,,37.1327,-0.618846,0.0,0.0
2060,514.75,45.2167,46.5067,131.96,100.379,107.494,,,,37.1327,-0.623193,0.0,0.0
2065,516,45.5544,46.752,136.316,100.345,107.449,,,,37.1127,-0.622533,0.0,0.0
2070,517.25,45.4709,46.5209,135.123,100.299,107.163,,,,37.1027,-0.602448,0.0,0.0
2074,518.25,45.0227,46.6537,136.287,100.264,107.413,,,,37.0827,-0.626835,0.0,0.0