File: 01_Data/FDNY_LDF/Cone/FDNY_LDF_Cone_HF75Scan_220913_R2.csv
Names,Time,Stack TC,Smoke TC,Exh Press,Smoke Comp,Smoke Meas,CO Meter,CO2 Meter,O2 Meter,Sample Mass,Ext Coeff,Start Test,Flame Verif
Chan Gain,,500,500,1,1,1,1,1,1,1,1,1.0,1.0
Offset,,0,0,0.139139,0,0,0,0,0,0,0,0.0,0.0
Gain,,1,1,25.011,13.0826,14.7555,1,1,1,1.00088,1.03743,1.0,1.0
Units,sec,C,C,Pa,%,%,%,%,%,g,/m,,
Baseline,,63.3029,65.0276,132.87,97.9397,100.958,0.000799661,0.0491674,20.9837,-449.337,-0.276157,,
3,0.5,61.7675,63.8135,131.108,98.6531,101.732,0.0023264,0.0583699,20.9694,75.5966,-0.2797,0.0,0.0
6,1.25,60.3648,62.7679,132.424,98.6559,100.965,0.00243525,0.0622675,20.9609,75.4965,-0.210502,0.0,0.0
9,2,60.2002,62.9408,131.291,98.6691,100.289,0.00265268,0.0792292,20.9348,75.3764,-0.148201,0.0,0.0
12,2.75,60.3975,62.4466,123.163,98.6831,100.634,0.00287439,0.0976139,20.8885,75.2663,-0.178159,0.0,1.0
15,3.5,60.5158,62.7014,117.752,98.6915,99.2836,0.00314408,0.145299,20.8228,75.2363,-0.054437,0.0,1.0
18,4.25,61.6795,62.5465,117.124,98.6899,97.9007,0.00349419,0.201799,20.751,74.946,0.0730607,0.0,1.0
21,5,62.5274,63.3047,110.713,98.6971,96.6165,0.00385478,0.252253,20.679,74.896,0.193891,0.0,1.0
24,5.75,63.7209,63.8783,119.698,98.711,95.6717,0.00416256,0.315115,20.6105,74.7959,0.284602,0.0,1.0
27,6.5,65.1956,64.3616,108.589,98.7202,94.55,0.00447322,0.372803,20.5534,74.6658,0.392776,0.0,1.0
30,7.25,65.3188,64.6916,110.911,98.7086,95.126,0.00476637,0.424276,20.4993,74.4456,0.336442,0.0,1.0
33,8,66.3882,64.8267,115.392,98.7242,95.4587,0.00503117,0.469259,20.4564,74.3255,0.306098,0.0,1.0
36,8.75,67.9391,65.6506,110.611,98.7478,94.5829,0.00526298,0.50857,20.4192,74.2954,0.392152,0.0,0.0
39,9.5,68.9699,66.341,107.787,98.7498,93.6512,0.00549828,0.540008,20.3844,74.1553,0.482421,0.0,0.0
42,10.25,70.2177,67.3203,112.316,98.7386,93.0406,0.00570865,0.568335,20.3555,73.9351,0.54092,0.0,0.0
45,11,71.334,68.2183,112.912,98.7518,94.5833,0.00589492,0.588985,20.3329,73.795,0.392476,0.0,0.0
48,11.75,72.1907,69.1387,114.092,98.7518,91.9729,0.00607235,0.605368,20.3165,73.7249,0.647166,0.0,0.0
51,12.5,73.5847,70.2,113.665,98.7613,93.744,0.00622503,0.617555,20.3044,73.5848,0.474478,0.0,0.0
54,13.25,74.4986,71.3562,115.219,98.7617,93.9916,0.00633633,0.625886,20.2969,73.4547,0.450504,0.0,0.0
57,14,75.3811,71.7224,114.363,98.7577,93.1698,0.0064551,0.629922,20.2933,73.2845,0.530053,0.0,0.0
60,14.75,76.557,73.1335,114.212,98.7609,93.8791,0.00655977,0.630808,20.2933,73.1444,0.461336,0.0,0.0
63,15.5,77.0857,73.6808,109.21,98.7885,92.9681,0.00663958,0.631454,20.2937,73.0944,0.552611,0.0,0.0
66,16.25,78.09,74.4348,111.726,98.7717,93.2739,0.00670686,0.63008,20.2949,72.8742,0.521186,0.0,0.0
69,17,78.5479,75.0717,116.286,98.7697,92.91,0.00676524,0.628473,20.297,72.7941,0.556571,0.0,0.0
72,17.75,79.4601,75.7835,112.339,98.7733,94.6419,0.00681716,0.626269,20.2999,72.644,0.388832,0.0,0.0
75,18.5,80.2358,76.2189,118.865,98.7817,93.2144,0.00688465,0.623139,20.3044,72.624,0.527908,0.0,0.0
78,19.25,80.8694,77.3995,115.974,98.7741,93.3468,0.00694823,0.620207,20.3102,72.4038,0.514293,0.0,0.0
81,20,81.4586,77.9777,116.922,98.7717,92.367,0.00701914,0.616134,20.3152,72.2837,0.610102,0.0,0.0
84,20.75,81.989,78.3337,114.867,98.7741,93.9772,0.00707604,0.611993,20.32,72.1535,0.453039,0.0,0.0
87,21.5,82.2804,78.7785,114.805,98.7893,93.1942,0.00710468,0.607838,20.3248,72.0935,0.530584,0.0,0.0
90,22.25,82.8188,79.8408,114.132,98.7825,93.7985,0.00709982,0.603723,20.3299,71.9434,0.471139,0.0,0.0
93,23,83.2524,80.2704,116.399,98.7689,93.4026,0.00706106,0.598852,20.3351,71.8132,0.508373,0.0,0.0
96,23.75,83.9999,80.7306,116.297,98.7677,94.1628,0.00702392,0.594503,20.3421,71.6831,0.434504,0.0,0.0
99,24.5,84.1028,81.12,110.489,98.7781,93.9223,0.00698166,0.588264,20.3499,71.6331,0.458729,0.0,0.0
102,25.25,85.0928,81.6365,117.553,98.7725,94.6131,0.00695084,0.582141,20.358,71.493,0.391529,0.0,0.0
105,26,85.1931,81.8425,117.416,98.7585,94.5018,0.00692633,0.577006,20.3652,71.3228,0.400946,0.0,0.0
108,26.75,85.3081,82.8183,116.547,98.749,94.5635,0.00690495,0.571359,20.371,71.2127,0.394125,0.0,0.0
111,27.5,85.9711,83.0867,122.415,98.7561,93.3563,0.00688937,0.566201,20.3772,71.1827,0.511715,0.0,0.0
114,28.25,86.0926,83.2597,113.221,98.7498,93.4184,0.00681694,0.561462,20.3826,71.0025,0.505071,0.0,0.0
117,29,86.6206,83.769,111.022,98.737,93.8021,0.00671877,0.557092,20.3876,70.8924,0.466596,0.0,0.0
120,29.75,86.3991,84.1405,119.839,98.7633,94.6266,0.0066047,0.553311,20.3924,70.7423,0.389384,0.0,0.0
123,30.5,86.9943,84.438,118.018,98.7362,94.591,0.00648193,0.54954,20.3969,70.7023,0.390304,0.0,0.0
126,31.25,87.3624,85.2465,114.173,98.7366,94.7283,0.00635501,0.545868,20.4017,70.6022,0.377137,0.0,0.0
129,32,87.1867,85.4994,118.778,98.7242,95.2223,0.00624528,0.541615,20.4059,70.4721,0.328664,0.0,0.0
132,32.75,87.2615,85.5067,119.465,98.7186,94.8058,0.00609139,0.536732,20.4113,70.402,0.368043,0.0,0.0
135,33.5,88.2539,85.8963,114.762,98.7282,94.07,0.00595862,0.533172,20.4165,70.2719,0.43983,0.0,0.0
138,34.25,88.212,85.8778,112.809,98.7226,94.5072,0.00585797,0.528768,20.4228,70.1918,0.397115,0.0,0.0
141,35,88.0633,86.6418,118.191,98.7102,93.7512,0.00578589,0.525433,20.4286,70.0217,0.469068,0.0,0.0
144,35.75,88.6872,86.921,117.347,98.6923,94.4361,0.00573865,0.520884,20.4348,69.9416,0.401171,0.0,0.0
147,36.5,88.7798,87.087,119.186,98.6979,95.2466,0.00571235,0.515943,20.4407,69.8515,0.323911,0.0,0.0
150,37.25,89.0446,86.7752,114.626,98.6983,94.3127,0.00569317,0.511421,20.4462,69.8015,0.413621,0.0,0.0
153,38,89.323,87.8797,120.71,98.6879,94.958,0.00567036,0.506551,20.4515,69.6313,0.350611,0.0,0.0
156,38.75,89.4653,87.9149,118.455,98.6699,95.3903,0.00563863,0.502225,20.4559,69.5613,0.307619,0.0,0.0
159,39.5,89.4688,88.005,117.644,98.6815,95.049,0.00557136,0.498739,20.4601,69.4512,0.341309,0.0,0.0
162,40.25,89.2708,88.6078,115.4,98.6687,95.479,0.00548495,0.49525,20.4644,69.4011,0.29905,0.0,0.0
165,41,89.164,88.5773,121.111,98.6603,95.4803,0.00540603,0.491767,20.4691,69.291,0.298148,0.0,0.0
168,41.75,89.6059,88.6202,119.377,98.6599,94.972,0.00530088,0.48823,20.4733,69.1609,0.346696,0.0,0.0
171,42.5,89.5174,89.3047,121.103,98.638,95.991,0.00519309,0.484627,20.4775,69.0708,0.247545,0.0,0.0
174,43.25,89.8882,88.9129,114.88,98.6479,96.403,0.005096,0.480515,20.4819,69.0008,0.209488,0.0,0.0
177,44,90.2752,89.5097,118.289,98.6348,95.4727,0.00501788,0.476407,20.4864,68.8206,0.296521,0.0,0.0
180,44.75,90.2915,89.8589,116.78,98.6196,96.7966,0.004965,0.472938,20.4903,68.7405,0.169797,0.0,0.0
183,45.5,90.198,90.198,116.757,98.6056,95.7334,0.00493339,0.469105,20.4956,68.6304,0.269014,0.0,0.0
186,46.25,90.2047,90.4745,122.035,98.6012,96.6277,0.00493785,0.465288,20.5004,68.6004,0.183991,0.0,0.0
189,47,90.4311,90.0615,116.998,98.5885,95.7726,0.00495194,0.461708,20.5045,68.4803,0.263706,0.0,0.0
192,47.75,90.6589,90.3465,115.251,98.5705,95.8347,0.00498074,0.457892,20.5079,68.3602,0.256144,0.0,0.0
195,48.5,90.6005,90.4978,116.266,98.5589,95.5389,0.00500818,0.454212,20.5111,68.2701,0.283212,0.0,0.0
198,49.25,90.3453,91.1783,118.027,98.5545,96.6147,0.00503092,0.450864,20.5146,68.2101,0.180909,0.0,0.0
201,50,90.3827,91.1306,121.014,98.5433,96.8965,0.00504199,0.44794,20.518,68.11,0.153364,0.0,0.0
204,50.75,90.1869,91.3997,119.067,98.5254,96.5593,0.00504619,0.44531,20.5222,67.9899,0.183436,0.0,0.0
207,51.5,90.1768,91.5773,120.467,98.5142,96.0576,0.0050399,0.442541,20.5264,67.8498,0.229804,0.0,0.0
210,52.25,90.5771,91.7884,119.155,98.5102,96.8389,0.0050266,0.439544,20.5302,67.7797,0.155718,0.0,0.0
213,53,90.2894,91.4494,121.643,98.4986,97.2987,0.00500764,0.436521,20.5329,67.7196,0.111545,0.0,0.0
216,53.75,90.6823,91.7807,117.997,98.4731,96.0495,0.00499382,0.433598,20.5362,67.5295,0.226771,0.0,0.0
219,54.5,90.9895,91.8781,119.727,98.4655,97.5279,0.00495073,0.430332,20.54,67.4194,0.0870712,0.0,0.0
222,55.25,90.5,92.2011,119.539,98.4423,97.3329,0.00491932,0.426998,20.5443,67.3293,0.103142,0.0,0.0
225,56,90.1443,92.0595,119.487,98.4419,97.4432,0.00486396,0.424162,20.549,67.2692,0.0927966,0.0,0.0
228,56.75,90.524,91.9582,117.179,98.4156,97.3392,0.00476812,0.420373,20.5538,67.1792,0.100081,0.0,0.0
231,57.5,90.5949,92.6597,122.728,98.3968,98.46,0.0046397,0.416878,20.5578,67.0891,-0.00584103,0.0,0.0
234,58.25,90.7221,92.668,117.547,98.3892,97.2843,0.00451917,0.413386,20.562,66.9389,0.102781,0.0,0.0
237,59,90.6562,92.4291,123.108,98.3872,97.1357,0.00441983,0.410438,20.5651,66.9289,0.116507,0.0,0.0
240,59.75,90.2885,92.5175,120.287,98.3637,97.3586,0.00431635,0.407618,20.5678,66.8288,0.0934698,0.0,0.0
243,60.5,90.4099,92.9454,118.605,98.3469,97.1104,0.00422427,0.405342,20.5706,66.7288,0.115139,0.0,0.0
246,61.25,90.3035,92.4987,119.406,98.3293,97.7926,0.00413995,0.403307,20.5739,66.6487,0.0498073,0.0,0.0
249,62,90.8236,92.6816,116.543,98.3214,97.8557,0.0040612,0.401105,20.5772,66.5786,0.0432041,0.0,0.0
252,62.75,90.6116,93.1999,121.145,98.313,97.9759,0.00398831,0.398771,20.5799,66.4285,0.0312537,0.0,0.0
255,63.5,90.0041,93.0074,124.122,98.3026,99.0071,0.00390871,0.396759,20.5827,66.2984,-0.0649878,0.0,0.0
258,64.25,90.6109,93.5335,124.586,98.2838,98.3708,0.00382698,0.394133,20.5863,66.2483,-0.00805308,0.0,0.0
261,65,90.4726,92.9949,118.16,98.2727,98.6487,0.00375717,0.391792,20.5898,66.1683,-0.034754,0.0,0.0
264,65.75,90.2338,93.4555,120.342,98.2579,97.776,0.00370193,0.389356,20.5927,66.0882,0.0447415,0.0,0.0
267,66.5,90.1346,93.1935,119.32,98.2599,97.984,0.00365255,0.386738,20.5951,65.9681,0.0255836,0.0,0.0
270,67.25,90.4039,93.2604,121.137,98.2691,98.392,0.00360123,0.384127,20.5987,65.848,-0.0113784,0.0,0.0
273,68,90.3224,92.7376,120.6,98.287,98.8774,0.00355728,0.381637,20.6018,65.7979,-0.0545009,0.0,0.0
276,68.75,90.1651,93.0789,125.579,98.2798,99.1521,0.00348156,0.379139,20.6042,65.6678,-0.0804127,0.0,0.0
279,69.5,89.7883,92.6963,119.662,98.2802,98.7306,0.00342636,0.377164,20.606,65.5677,-0.0416091,0.0,0.0
282,70.25,89.4142,93.2959,121.366,98.2846,98.8792,0.00335701,0.375464,20.6075,65.4376,-0.0548889,0.0,0.0
285,71,90.0904,93.2066,122.692,98.291,98.6919,0.00330827,0.373688,20.609,65.4176,-0.0370407,0.0,0.0
288,71.75,89.7458,93.3899,117.908,98.3006,99.3899,0.0032804,0.372286,20.6108,65.3275,-0.100286,0.0,0.0
291,72.5,89.5365,93.1968,120.504,98.2966,98.2092,0.00326334,0.37108,20.6125,65.2374,0.0080969,0.0,0.0
294,73.25,89.6669,92.899,121.74,98.3018,99.3989,0.00326545,0.369825,20.6144,65.1574,-0.101,0.0,0.0
297,74,89.5205,93.4491,121.337,98.3094,99.3822,0.00327337,0.368465,20.6166,65.1073,-0.0987718,0.0,0.0
300,74.75,89.6428,93.8119,120.79,98.3246,99.6673,0.00327784,0.366983,20.6188,65.0173,-0.123432,0.0,0.0
303,75.5,89.6166,93.0275,116.049,98.3254,98.623,0.00327421,0.365418,20.6204,64.8771,-0.027507,0.0,0.0
306,76.25,89.5143,93.3915,122.192,98.3278,98.9243,0.00327156,0.36404,20.6216,64.7971,-0.0550406,0.0,0.0
309,77,89.731,93.3971,118.478,98.3369,99.2507,0.00326205,0.362729,20.6225,64.757,-0.0841746,0.0,0.0
312,77.75,89.2487,93.1773,119.258,98.3521,99.0868,0.00325188,0.361423,20.6236,64.697,-0.067729,0.0,0.0
315,78.5,89.4024,93.6478,122.109,98.3477,99.1125,0.00325539,0.359878,20.6247,64.5769,-0.0704924,0.0,0.0
318,79.25,89.837,93.267,120.786,98.3565,99.7199,0.00325922,0.358499,20.627,64.4768,-0.125285,0.0,0.0
321,80,89.7037,93.4285,118.842,98.3677,99.072,0.00326256,0.357495,20.6286,64.3667,-0.0649233,0.0,0.0
324,80.75,88.7937,93.5392,120.456,98.3868,100.695,0.00324134,0.356091,20.6303,64.3066,-0.211054,0.0,0.0
327,81.5,88.888,93.3535,120.148,98.3804,99.2638,0.00319315,0.35489,20.6323,64.2366,-0.0813453,0.0,0.0
330,82.25,88.9977,93.6978,125.575,98.3785,101.029,0.0031389,0.353712,20.6338,64.1265,-0.241977,0.0,0.0
333,83,89.0312,93.8603,120.292,98.3864,100.005,0.00309121,0.352372,20.6348,64.0864,-0.14845,0.0,0.0
336,83.75,88.801,93.5481,120.26,98.3884,98.927,0.00305645,0.35121,20.6356,64.0064,-0.0496746,0.0,0.0
339,84.5,88.938,93.0207,123.914,98.4,100.181,0.00303982,0.350169,20.6366,63.9163,-0.163242,0.0,0.0
342,85.25,88.47,93.3242,119.626,98.402,99.6227,0.0030426,0.349213,20.6376,63.8162,-0.112195,0.0,0.0
345,86,88.8366,93.1496,123.981,98.3944,99.6083,0.0030519,0.348298,20.6383,63.7161,-0.111579,0.0,0.0
348,86.75,88.4981,93.6147,119.799,98.3992,99.9041,0.00304993,0.347538,20.6392,63.626,-0.138126,0.0,0.0
351,87.5,87.968,93.4177,122.977,98.4156,100.076,0.00303351,0.346912,20.64,63.566,-0.152266,0.0,0.0
354,88.25,88.256,93.1601,119.801,98.4112,100.242,0.00301518,0.346422,20.6404,63.4659,-0.16777,0.0,0.0
357,89,88.534,93.6344,120.282,98.4152,100.471,0.00299776,0.346051,20.6407,63.4158,-0.188144,0.0,0.0
360,89.75,88.7848,93.6594,118.227,98.4316,99.9987,0.00298277,0.345373,20.6409,63.3458,-0.143744,0.0,0.0
363,90.5,88.6014,93.3045,122.25,98.4419,100.474,0.00296112,0.344373,20.6411,63.2557,-0.185957,0.0,0.0
366,91.25,88.7732,93.0861,121.956,98.4431,100.187,0.002927,0.34343,20.6412,63.1556,-0.159787,0.0,0.0
369,92,88.2568,93.0436,123.607,98.4328,99.9145,0.00288558,0.342741,20.6413,63.0756,-0.135967,0.0,0.0
372,92.75,88.3116,93.5236,118.185,98.4519,100.424,0.00284097,0.342619,20.6409,63.0155,-0.180505,0.0,0.0
375,93.5,88.1695,93.2319,118.519,98.4643,100.17,0.00279251,0.343179,20.64,62.9454,-0.156277,0.0,0.0
378,94.25,87.8513,93.2395,119.304,98.4519,100.631,0.00275146,0.344142,20.6392,62.8053,-0.199257,0.0,0.0
381,95,88.1415,92.9488,126.605,98.4507,100.365,0.00273787,0.345319,20.6386,62.7152,-0.175269,0.0,0.0
384,95.75,88.2491,92.7573,119.59,98.4631,100.304,0.00274831,0.346586,20.6368,62.6452,-0.16857,0.0,0.0
387,96.5,87.9749,93.1196,120.582,98.4958,99.393,0.0027646,0.348111,20.6353,62.5851,-0.0825187,0.0,0.0
390,97.25,88.1704,93.1273,116.383,98.4894,99.9365,0.0027805,0.34951,20.6339,62.485,-0.132737,0.0,0.0
393,98,88.1417,93.3801,122.047,98.4847,100.425,0.00279896,0.350768,20.6328,62.415,-0.177561,0.0,0.0
396,98.75,88.0153,93.0573,119.108,98.4926,99.941,0.00280152,0.351882,20.632,62.3049,-0.132852,0.0,0.0
399,99.5,87.9924,92.7324,120.654,98.5106,100.13,0.00280339,0.352965,20.6314,62.2648,-0.148356,0.0,0.0
402,100.25,87.6536,93.124,121.515,98.5142,100.381,0.00279967,0.35387,20.631,62.1447,-0.170832,0.0,0.0
405,101,87.9013,92.8349,118.195,98.5062,100,0.00279813,0.355343,20.63,62.0647,-0.137008,0.0,0.0
408,101.75,88.3338,93.1411,122.756,98.5106,99.6042,0.00280273,0.357528,20.6285,62.0046,-0.10047,0.0,0.0
411,102.5,88.1189,92.9526,120.129,98.5198,100.413,0.00282606,0.359446,20.6266,61.9445,-0.173214,0.0,0.0
414,103.25,88.1457,93.2433,118.756,98.5114,99.262,0.00286472,0.360845,20.6239,61.8645,-0.0690745,0.0,0.0
417,104,88.2061,93.7246,120.944,98.4938,99.7127,0.00290213,0.363811,20.621,61.7444,-0.111929,0.0,0.0
420,104.75,88.2766,92.7349,117.511,98.5002,99.3291,0.00295107,0.366948,20.6173,61.6543,-0.0762558,0.0,0.0
423,105.5,88.0152,93.0029,119.567,98.4982,99.7947,0.003,0.370276,20.6124,61.6043,-0.118999,0.0,0.0
426,106.25,88.5349,93.4476,119.789,98.5098,100.06,0.00304256,0.373769,20.6074,61.4942,-0.142084,0.0,0.0
429,107,88.0503,93.6319,118.078,98.509,99.4367,0.00307177,0.377766,20.603,61.3741,-0.0852997,0.0,0.0
432,107.75,88.5939,93.058,121.174,98.5218,99.4074,0.00309105,0.381299,20.598,61.284,-0.0814405,0.0,0.0
435,108.5,88.6584,93.4113,118.773,98.5018,99.2061,0.00310166,0.386052,20.5921,61.2039,-0.0648386,0.0,0.0
438,109.25,88.7686,93.1241,121.551,98.5218,98.7626,0.00311121,0.390861,20.5855,61.1238,-0.022217,0.0,0.0
441,110,88.4813,93.8912,118.336,98.5186,99.756,0.0031322,0.394939,20.5794,61.0237,-0.113586,0.0,0.0
444,110.75,89.1409,93.6357,117.159,98.5202,98.0223,0.00315348,0.399963,20.5738,60.9136,0.0461059,0.0,0.0
447,111.5,88.7498,94.1245,121.341,98.5326,98.9193,0.00318713,0.405229,20.5677,60.8035,-0.0356487,0.0,0.0
450,112.25,89.2944,93.8404,120.361,98.5433,98.6703,0.00324266,0.41047,20.5615,60.7835,-0.0117157,0.0,0.0
453,113,89.292,94.0932,120.316,98.5402,98.4361,0.00331956,0.415518,20.5552,60.6534,0.00961095,0.0,0.0
456,113.75,89.3072,94.0629,117.485,98.5465,98.8567,0.00340478,0.41992,20.5491,60.5333,-0.0285979,0.0,0.0
459,114.5,89.4871,94.0786,117.962,98.5541,97.7917,0.00347457,0.424362,20.5434,60.4632,0.0706702,0.0,0.0
462,115.25,90.1314,94.6113,115.24,98.5685,97.6441,0.00352805,0.428584,20.5383,60.3832,0.0857516,0.0,0.0
465,116,89.7938,94.215,122.118,98.5721,98.4474,0.00356588,0.432565,20.5337,60.2631,0.0115202,0.0,0.0
468,116.75,89.7679,94.7024,116.693,98.5737,98.36,0.00359893,0.436004,20.5296,60.193,0.0197454,0.0,0.0
471,117.5,89.6225,94.5336,116.953,98.5617,97.8435,0.00362302,0.439076,20.5257,60.0729,0.0665529,0.0,0.0
474,118.25,90.0923,94.905,115.804,98.5749,97.1816,0.00365849,0.442292,20.5223,60.0529,0.129545,0.0,0.0
477,119,90.1937,95.0255,114.4,98.5841,97.4765,0.0037074,0.445123,20.5192,59.9228,0.102814,0.0,0.0
480,119.75,90.415,95.304,114.427,98.5881,98.0286,0.00376041,0.447394,20.5167,59.7927,0.051788,0.0,0.0
483,120.5,91.0327,95.1694,115.482,98.5825,98.9823,0.00381748,0.449359,20.5143,59.6826,-0.0368381,0.0,0.0
486,121.25,91.271,95.4297,114.315,98.594,97.1059,0.00387701,0.450792,20.5125,59.6525,0.138401,0.0,0.0
489,122,90.5439,95.1293,117.95,98.6096,98.8274,0.00392805,0.451969,20.5112,59.5524,-0.0200803,0.0,0.0
492,122.75,91.2456,95.5949,122.844,98.6048,98.2916,0.00396398,0.452954,20.5103,59.4123,0.0289549,0.0,0.0
495,123.5,91.4533,96.1047,118.808,98.6124,98.7293,0.00398558,0.453897,20.5083,59.3322,-0.0107783,0.0,0.0
498,124.25,91.4086,95.9178,113.094,98.6124,98.6041,0.00399441,0.454878,20.5057,59.2422,0.00076695,0.0,0.0
501,125,91.7537,95.9667,119.039,98.634,98.4523,0.00399344,0.455593,20.5038,59.102,0.0167724,0.0,0.0
504,125.75,91.4106,95.889,116.392,98.6268,97.8242,0.00398005,0.456967,20.5011,59.012,0.0743606,0.0,0.0
507,126.5,91.4565,96.3968,114.887,98.63,97.5274,0.00395878,0.45815,20.4989,58.9719,0.102303,0.0,0.0
510,127.25,91.9737,96.0972,119.074,98.6456,97.7679,0.00393365,0.459089,20.4969,58.8518,0.0813294,0.0,0.0
513,128,92.4281,96.5868,118.678,98.6711,97.2397,0.00390727,0.46037,20.4948,58.8418,0.132985,0.0,0.0
516,128.75,92.1576,96.853,118.131,98.6587,97.6679,0.0038918,0.461639,20.4928,58.7317,0.0918548,0.0,0.0
519,129.5,92.565,96.4876,119.678,98.6695,97.4207,0.00389223,0.463137,20.4906,58.6016,0.115913,0.0,0.0
522,130.25,92.2948,96.8627,117.956,98.6803,97.767,0.00390981,0.464645,20.4874,58.5015,0.0846178,0.0,0.0
525,131,92.3845,96.9509,118.617,98.7058,97.8021,0.00396282,0.466081,20.4844,58.4315,0.0837042,0.0,0.0
528,131.75,92.7101,96.6944,115.581,98.7166,96.4327,0.00400145,0.467703,20.4811,58.3914,0.213016,0.0,0.0
531,132.5,93.217,97.0107,116.867,98.7258,96.4174,0.00405323,0.469715,20.478,58.3013,0.215307,0.0,0.0
534,133.25,92.7123,97.3683,118.149,98.729,95.6371,0.00413135,0.47153,20.475,58.0912,0.289556,0.0,0.0
537,134,93.2818,97.272,117.567,98.7685,95.7303,0.00419927,0.473446,20.4716,58.0511,0.284334,0.0,0.0
540,134.75,92.7227,97.4285,118.568,98.7705,95.755,0.0042411,0.475201,20.4679,57.9911,0.282163,0.0,0.0
543,135.5,92.9875,97.4573,116.593,98.7577,95.7798,0.00426088,0.477093,20.4652,57.8509,0.278633,0.0,0.0
546,136.25,92.8554,97.1843,118.528,98.7749,95.5997,0.00426261,0.47895,20.4623,57.8209,0.297345,0.0,0.0
549,137,93.1446,97.3811,118.688,98.8025,95.4358,0.00424924,0.480945,20.4586,57.7809,0.315499,0.0,0.0
552,137.75,93.1059,97.6226,118.828,98.8029,95.7938,0.00423584,0.483147,20.455,57.6308,0.281463,0.0,0.0
555,138.5,93.2258,97.4316,114.234,98.8064,96.0225,0.00422608,0.486152,20.452,57.5507,0.260088,0.0,0.0
558,139.25,93.0732,98.1502,115.605,98.8208,96.6705,0.00421164,0.489159,20.4489,57.4606,0.200207,0.0,0.0
561,140,93.1714,97.7967,117.785,98.842,97.8458,0.00419223,0.492101,20.4456,57.3705,0.0921844,0.0,0.0
564,140.75,92.89,97.7675,118.056,98.8468,97.1604,0.00416957,0.494933,20.442,57.2905,0.156593,0.0,0.0
567,141.5,93.6258,98.2086,118.209,98.8416,97.7935,0.00414498,0.497651,20.4383,57.2004,0.0970072,0.0,0.0
570,142.25,93.9842,98.0875,117.11,98.8484,96.9524,0.00412961,0.499911,20.4351,57.0402,0.176247,0.0,0.0
573,143,93.8528,98.0734,114.926,98.8679,97.3329,0.00412355,0.502577,20.432,56.9001,0.142401,0.0,0.0
576,143.75,93.3698,98.5599,117.96,98.8743,97.3027,0.00412605,0.505214,20.4273,56.9101,0.145811,0.0,0.0
579,144.5,93.8136,98.172,114.573,98.8831,97.7742,0.00414066,0.508116,20.4238,56.82,0.102632,0.0,0.0
582,145.25,94.1083,98.2102,117.874,98.8895,98.274,0.00415131,0.5114,20.418,56.74,0.0568154,0.0,0.0
585,146,94.1209,98.3651,117.746,98.8943,97.8012,0.00416245,0.515547,20.4139,56.7099,0.101146,0.0,0.0
588,146.75,94.3303,98.6215,120.998,98.9103,98.0142,0.00417634,0.519024,20.4107,56.5098,0.0828184,0.0,0.0
591,147.5,94.2559,98.9519,113.236,98.9198,97.3865,0.00416818,0.521753,20.408,56.3396,0.142169,0.0,0.0
594,148.25,94.5649,98.8518,117.03,98.917,97.8606,0.00414815,0.524313,20.4051,56.3396,0.0977102,0.0,0.0
597,149,94.3212,98.9307,112.581,98.917,98.2772,0.00412349,0.527154,20.4018,56.2996,0.0590587,0.0,0.0
600,149.75,94.5025,99.4422,117.317,98.931,97.8057,0.0040986,0.529435,20.3994,56.2295,0.104106,0.0,0.0
603,150.5,94.9745,99.4229,116.839,98.9314,98.0786,0.00407021,0.531459,20.3976,56.1194,0.0787883,0.0,0.0
606,151.25,95.2713,99.3603,120.54,98.9378,98.9972,0.00404111,0.532798,20.3964,55.9693,-0.00546218,0.0,0.0
609,152,95.4409,99.8821,113.789,98.9378,98.2677,0.00401298,0.533755,20.3961,55.8892,0.0618444,0.0,0.0
612,152.75,95.0624,99.9847,118.351,98.9562,97.4689,0.00398911,0.534445,20.3958,55.7891,0.137814,0.0,0.0
615,153.5,95.2399,99.7133,115.886,98.9558,98.4501,0.00396595,0.534947,20.3963,55.7191,0.046624,0.0,0.0
618,154.25,95.9726,99.5793,116.74,98.9482,97.6445,0.00395162,0.53477,20.3974,55.5689,0.120697,0.0,0.0
621,155,95.6407,100.02,115.653,98.957,99.2228,0.00395315,0.534281,20.3987,55.4789,-0.0244145,0.0,0.0
624,155.75,95.5926,99.9884,117.94,98.9705,98.8635,0.00396529,0.533309,20.4016,55.3888,0.00985044,0.0,0.0
627,156.5,95.3535,100.286,116.59,98.9678,98.6068,0.00401616,0.532201,20.4041,55.2887,0.0332514,0.0,0.0
630,157.25,95.9178,100.309,117.327,98.9622,97.9791,0.00408272,0.53071,20.4066,55.1786,0.0908538,0.0,0.0
633,158,95.2772,100.159,117.203,98.959,96.8015,0.00416069,0.529513,20.4092,55.0785,0.200592,0.0,0.0
636,158.75,95.7424,100.524,121.419,98.9626,97.8773,0.00424639,0.527658,20.4118,55.0485,0.100348,0.0,0.0
639,159.5,95.9292,100.856,115.944,98.9817,98.424,0.0043332,0.526103,20.4136,54.9584,0.0514234,0.0,0.0
642,160.25,95.6717,100.156,118.388,98.9709,98.5487,0.00443809,0.524083,20.4169,54.8483,0.0389069,0.0,0.0
645,161,95.8429,100.344,115.069,98.9761,98.5573,0.00451961,0.521081,20.4211,54.7582,0.0385948,0.0,0.0
648,161.75,95.9693,100.508,114.512,98.9833,99.3633,0.00457221,0.517977,20.4248,54.6782,-0.0348678,0.0,0.0
651,162.5,96.0877,100.952,120.571,98.9905,98.193,0.00460333,0.514147,20.4299,54.5781,0.0736159,0.0,0.0
654,163.25,96.1918,100.856,117.175,98.9857,98.2713,0.00462024,0.509907,20.4371,54.478,0.0659164,0.0,0.0
657,164,95.9244,100.998,120.724,98.9697,97.5441,0.00461588,0.504339,20.4458,54.3979,0.132043,0.0,0.0
660,164.75,95.4701,100.913,116.517,98.9825,97.8197,0.00459949,0.497312,20.4553,54.3278,0.107543,0.0,0.0
663,165.5,96.0697,100.953,118.351,98.9961,98.0484,0.00457715,0.489905,20.4648,54.2678,0.0875354,0.0,0.0
666,166.25,95.9862,100.574,121.104,98.9953,98.2632,0.00455817,0.483531,20.4717,54.1477,0.0675479,0.0,0.0
669,167,94.9351,100.818,117.275,98.9793,97.1393,0.0045397,0.473595,20.4812,54.0776,0.170771,0.0,0.0
672,167.75,95.5587,100.59,120.555,98.9789,96.7889,0.00451598,0.463581,20.49,54.0076,0.203614,0.0,0.0
675,168.5,95.5269,100.674,118.993,98.9917,96.5007,0.00449431,0.455098,20.5,54.0076,0.231925,0.0,0.0
678,169.25,95.2816,100.478,120.231,98.9785,97.1789,0.00444901,0.443818,20.5108,53.9075,0.166986,0.0,0.0
681,170,95.0782,100.24,124.211,98.9717,97.6013,0.00439936,0.433419,20.5221,53.8274,0.126893,0.0,0.0
684,170.75,94.5449,100.299,120.548,98.9865,98.1268,0.00435625,0.422117,20.538,53.7774,0.0793842,0.0,0.0
687,171.5,94.38,100.413,123.211,98.9953,96.9884,0.00431713,0.410755,20.5557,53.7373,0.186382,0.0,0.0
690,172.25,93.7037,100.04,120.024,98.9905,97.8318,0.0042674,0.397135,20.5753,53.6873,0.107148,0.0,0.0
693,173,93.7657,99.8624,121.696,98.9865,97.4774,0.00422349,0.380748,20.5964,53.6272,0.139804,0.0,0.0
696,173.75,93.6268,99.8497,120.016,98.9817,97.2239,0.00415108,0.365644,20.6118,53.5372,0.163064,0.0,0.0
699,174.5,93.1199,99.347,126.786,98.9917,97.8111,0.00402919,0.349236,20.6331,53.5071,0.109184,0.0,0.0
702,175.25,93.0651,99.3479,127.068,99.0013,98.6095,0.00384013,0.329738,20.6554,53.5372,0.036085,0.0,0.0
705,176,92.058,98.7746,127.367,98.9921,99.8082,0.00364621,0.312353,20.6774,53.4671,-0.0747161,0.0,0.0
708,176.75,92.2526,98.5879,124.574,98.9913,100.393,0.00345814,0.294257,20.6987,53.4371,-0.127968,0.0,0.0
711,177.5,91.4335,98.5606,126.761,99.0041,102.262,0.00328207,0.277152,20.7282,53.357,-0.294632,0.0,0.0
714,178.25,90.37,98.198,129.127,99.0085,102.194,0.00309565,0.257993,20.7541,53.407,-0.288217,0.0,0.0
717,179,90.3972,97.8145,128.879,99.0057,102.08,0.00292037,0.238211,20.7766,53.407,-0.278282,0.0,0.0
720,179.75,89.7481,97.4294,126.884,99.0017,102.608,0.00277579,0.220724,20.7957,53.407,-0.325616,0.0,0.0
723,180.5,89.3717,96.8682,122.194,99.0089,102.357,0.00262724,0.204241,20.8106,53.407,-0.302644,0.0,0.0
726,181.25,88.978,96.6842,128.336,99.0149,103.027,0.00250055,0.190164,20.8231,53.407,-0.361511,0.0,0.0
729,182,88.1252,96.2671,130.501,99.0109,102.306,0.00238829,0.178147,20.8359,53.377,-0.297895,0.0,0.0
732,182.75,87.6569,95.6979,131.271,99.0057,102.64,0.00231033,0.167741,20.8468,53.387,-0.328084,0.0,0.0
735,183.5,87.2159,95.4755,129.894,99.0189,101.933,0.00227545,0.159455,20.8554,53.367,-0.263974,0.0,0.0
738,184.25,86.9436,95.2209,127.103,99.04,102.654,0.00225867,0.151877,20.8629,53.417,-0.326127,0.0,0.0
741,185,86.5712,94.8561,128.206,99.0292,102.463,0.00228808,0.145943,20.8697,53.357,-0.310176,0.0,0.0
744,185.75,86.0134,94.2723,128.806,99.0356,102.52,0.00232476,0.140916,20.876,53.327,-0.314706,0.0,0.0
747,186.5,85.4823,94.1536,136.173,99.032,102.426,0.002358,0.136434,20.8817,53.3069,-0.306679,0.0,0.0
750,187.25,85.0138,93.2675,129.059,99.0396,101.807,0.00238875,0.132682,20.8859,53.337,-0.250804,0.0,0.0
753,188,82.5287,91.6767,131.163,99.0384,102.063,0.00238592,0.129594,20.889,53.3069,-0.273748,0.0,0.0
756,188.75,82.4776,91.1256,131.954,99.0384,102.424,0.00238266,0.127092,20.8912,53.2069,-0.305852,0.0,0.0
759,189.5,82.0382,90.996,130.756,99.0336,102.579,0.00235855,0.125063,20.8933,53.1868,-0.320125,0.0,0.0
762,190.25,81.4393,90.6415,131.601,99.0524,102.301,0.00233843,0.123497,20.895,53.2369,-0.293679,0.0,0.0
765,191,81.1115,90.1205,129.053,99.0556,101.868,0.00232268,0.122313,20.8962,53.2369,-0.254769,0.0,0.0
768,191.75,80.5202,89.4833,126.658,99.0488,102.717,0.00230319,0.121479,20.8971,53.2169,-0.330906,0.0,0.0
771,192.5,80.3051,89.2349,128.106,99.0476,103.414,0.00227527,0.120899,20.8973,53.2169,-0.392605,0.0,0.0
774,193.25,80.0449,89.047,132.04,99.0648,103.227,0.00224587,0.120503,20.8974,53.2869,-0.374568,0.0,0.0
777,194,79.6652,88.4919,127.926,99.0628,103.295,0.00222444,0.120106,20.8975,53.2869,-0.380705,0.0,0.0
780,194.75,79.3834,88.4366,130.389,99.0528,102.267,0.0022177,0.119632,20.8975,53.2669,-0.290597,0.0,0.0
783,195.5,79.2667,88.1632,130.34,99.0708,103.036,0.00222418,0.119082,20.8978,53.2369,-0.357091,0.0,0.0
786,196.25,78.8658,87.7234,128.607,99.0759,101.988,0.00223215,0.118593,20.8984,53.2369,-0.263633,0.0,0.0
789,197,78.5363,87.3492,133.933,99.0743,102.019,0.0022434,0.117986,20.8989,53.1968,-0.266511,0.0,0.0
792,197.75,78.5464,87.2771,128.405,99.0572,101.603,0.00224779,0.117544,20.8994,53.1668,-0.230937,0.0,0.0
795,198.5,78.5788,87.0528,130.659,99.0628,102.323,0.00225003,0.116888,20.9002,53.1768,-0.294688,0.0,0.0
798,199.25,78.1616,86.7539,129.166,99.0712,103.001,0.00225281,0.116425,20.9008,53.1668,-0.354032,0.0,0.0
801,200,77.3013,86.1229,129.425,99.0799,101.656,0.00225845,0.116116,20.9012,53.1568,-0.233564,0.0,0.0
804,200.75,77.2529,86.3284,125.807,99.0672,102.817,0.00226257,0.11593,20.9016,53.1368,-0.338111,0.0,0.0
807,201.5,77.3216,86.0859,127.066,99.0831,102.282,0.00224747,0.115816,20.9018,53.1268,-0.289132,0.0,0.0
810,202.25,76.988,85.627,133.997,99.0823,102.238,0.00221737,0.115776,20.9019,53.1268,-0.285278,0.0,0.0
813,203,76.6704,85.1034,132.995,99.0855,102.938,0.00217927,0.115766,20.9014,53.1968,-0.3471,0.0,0.0
816,203.75,76.085,84.8305,130.147,99.0787,102.688,0.0021378,0.115905,20.9008,53.1368,-0.325602,0.0,0.0
819,204.5,76.0054,84.5971,133.269,99.0895,103.419,0.00209617,0.116014,20.9004,53.1268,-0.389151,0.0,0.0
822,205.25,75.8618,84.3569,130.43,99.0859,102.473,0.00206095,0.116106,20.9001,53.0667,-0.305846,0.0,0.0
825,206,75.4835,83.8139,131.265,99.1015,102.451,0.00203528,0.116172,20.8998,53.0968,-0.302497,0.0,0.0
828,206.75,75.0563,83.7651,130.895,99.0943,102.048,0.00203431,0.116166,20.9001,53.0667,-0.267248,0.0,0.0
831,207.5,75.2283,83.5918,130.055,99.1003,102.151,0.00204117,0.116069,20.9005,53.0767,-0.27589,0.0,0.0
834,208.25,75.0731,83.0774,131.499,99.1059,102.632,0.00209502,0.115852,20.9008,53.0467,-0.318119,0.0,0.0
837,209,74.5291,83.1823,134.313,99.1075,102.984,0.0021584,0.115555,20.901,53.0467,-0.349143,0.0,0.0
840,209.75,75.0329,83.3395,130.382,99.1087,102.065,0.00222625,0.115207,20.9011,52.9967,-0.267454,0.0,0.0
843,210.5,74.5801,82.5548,130.322,99.1159,102.617,0.00229514,0.11488,20.9012,53.0067,-0.315925,0.0,0.0
846,211.25,74.2674,82.2636,132.404,99.1063,101.926,0.00235987,0.11461,20.9013,53.0067,-0.255259,0.0,0.0
849,212,74.1882,82.4165,129.809,99.1211,102.777,0.00241722,0.114602,20.9014,53.0968,-0.329614,0.0,0.0
852,212.75,73.6224,81.5413,129.031,99.1107,102.565,0.00246337,0.114741,20.9014,53.0267,-0.311808,0.0,0.0
855,213.5,73.5775,82.0061,132.435,99.1175,102.81,0.00250245,0.114858,20.9014,52.9466,-0.332854,0.0,0.0
858,214.25,73.7132,81.4703,131.488,99.1079,103.199,0.00253094,0.11497,20.9015,52.9266,-0.368107,0.0,0.0
861,215,73.713,81.2396,126.561,99.1147,102.819,0.00255171,0.114968,20.9015,52.9867,-0.333908,0.0,0.0
864,215.75,72.9208,81.1092,128.086,99.1187,102.041,0.0025596,0.114951,20.9018,52.9666,-0.264449,0.0,0.0
867,216.5,72.9623,80.7173,127.406,99.1051,102.558,0.00257679,0.114912,20.9021,52.9166,-0.311643,0.0,0.0
870,217.25,72.8262,80.6126,129.267,99.1063,103.067,0.00260156,0.114946,20.9024,52.8866,-0.356572,0.0,0.0
873,218,72.7347,80.8372,130.465,99.1298,103.069,0.00263222,0.115075,20.9026,52.8966,-0.354648,0.0,0.0
876,218.75,72.6676,80.4559,130.592,99.137,102.741,0.00267271,0.115116,20.9031,52.9166,-0.324958,0.0,0.0
879,219.5,72.5326,80.0672,132.34,99.1175,103.267,0.0027035,0.115054,20.9037,52.8766,-0.373181,0.0,0.0
882,220.25,72.2643,80.051,132.435,99.1131,102.721,0.00271912,0.114779,20.9042,52.8465,-0.325362,0.0,0.0
885,221,71.9732,79.5713,132.378,99.1263,102.89,0.00271792,0.114491,20.9045,52.9066,-0.3391,0.0,0.0
888,221.75,72.4466,79.7714,128.353,99.1263,102.569,0.00271704,0.114243,20.9047,52.9566,-0.310738,0.0,0.0
891,222.5,72.2555,79.3385,130.581,99.1259,102.739,0.002691,0.114167,20.9049,52.8666,-0.325784,0.0,0.0
894,223.25,71.4718,79.3258,128.606,99.1135,102.611,0.00266821,0.11417,20.905,52.8766,-0.315626,0.0,0.0
897,224,71.9151,79.3475,127.947,99.1187,102.944,0.00264996,0.114197,20.9051,52.8666,-0.344574,0.0,0.0
900,224.75,71.8388,78.5278,132.736,99.1235,102.018,0.00264392,0.114238,20.9052,52.8766,-0.26192,0.0,0.0
903,225.5,71.8869,79.1312,133.087,99.1259,103.377,0.00265089,0.114283,20.9053,52.8365,-0.382168,0.0,0.0
906,226.25,71.9483,78.8617,133.399,99.1263,101.717,0.00267543,0.114342,20.9053,52.8165,-0.234792,0.0,0.0
909,227,71.4796,78.3196,128.857,99.1334,102.115,0.00271692,0.114414,20.9053,52.8365,-0.269637,0.0,0.0
912,227.75,71.1808,78.3129,126.719,99.1223,102.981,0.00275353,0.114456,20.9053,52.9066,-0.347508,0.0,0.0
915,228.5,71.3774,78.2661,129.53,99.1219,103.176,0.00278293,0.114448,20.9053,52.8766,-0.364838,0.0,0.0
918,229.25,70.7419,77.9416,128.368,99.1087,103.163,0.00279036,0.11431,20.9054,52.8365,-0.364817,0.0,0.0
921,230,71.1098,77.9128,132.369,99.1219,102.702,0.00278646,0.11413,20.9054,52.8465,-0.32292,0.0,0.0
924,230.75,70.7912,77.723,129.376,99.1151,102.979,0.0027779,0.11396,20.9054,52.8966,-0.348008,0.0,0.0
927,231.5,70.7822,77.5113,131.304,99.1283,102.424,0.00278617,0.113821,20.9054,52.8766,-0.297681,0.0,0.0
930,232.25,70.3495,77.0315,128.07,99.1015,103.191,0.00280748,0.113713,20.9054,52.8165,-0.368019,0.0,0.0
933,233,70.8283,77.2189,129.194,99.0955,102.967,0.00283421,0.113593,20.9054,52.8165,-0.348731,0.0,0.0
936,233.75,70.0519,77.204,131.746,99.1039,103.125,0.00286172,0.113483,20.9054,52.8666,-0.361959,0.0,0.0
939,234.5,70.0914,77.2433,133.296,99.1059,102.466,0.00288305,0.113347,20.9054,52.8465,-0.303454,0.0,0.0
942,235.25,70.1335,76.772,132.191,99.0899,102.78,0.00289915,0.113222,20.9054,52.8065,-0.332713,0.0,0.0
945,236,69.7669,76.3449,128.608,99.1091,102.727,0.0028909,0.113194,20.9054,52.7765,-0.326287,0.0,0.0
948,236.75,70.0694,76.6597,130.533,99.0951,102.972,0.00288288,0.11325,20.9054,52.7465,-0.349245,0.0,0.0
951,237.5,69.3037,76.0804,126.962,99.0983,102.857,0.0028736,0.113422,20.9054,52.7665,-0.338798,0.0,0.0
954,238.25,69.8379,76.1523,130.763,99.0847,103.195,0.00286683,0.113635,20.9054,52.7565,-0.369876,0.0,0.0
957,239,69.7947,76.0209,133.383,99.0911,102.158,0.00286189,0.113828,20.9054,52.7465,-0.277414,0.0,0.0
960,239.75,69.6918,76.3612,131.757,99.0883,102.132,0.00285957,0.113906,20.9054,52.7264,-0.275345,0.0,0.0
963,240.5,69.7695,75.9518,127.628,99.0887,102.771,0.00285842,0.113963,20.9054,52.7465,-0.332025,0.0,0.0
966,241.25,69.9776,75.8633,129.083,99.0648,102.473,0.00285758,0.1139,20.9054,52.7064,-0.307831,0.0,0.0
969,242,69.4678,75.4861,132.534,99.0604,102.894,0.0028606,0.113809,20.906,52.7164,-0.345508,0.0,0.0
972,242.75,69.2195,75.3401,131.317,99.0596,102.927,0.00286213,0.113663,20.9065,52.6864,-0.348568,0.0,0.0
975,243.5,69.2973,75.0983,129.332,99.064,102.405,0.0028621,0.113432,20.9068,52.7565,-0.301864,0.0,0.0
978,244.25,68.9079,74.9574,130.966,99.0652,102.871,0.00285571,0.11319,20.9071,52.7164,-0.343037,0.0,0.0
981,245,68.8881,75.0598,132.41,99.0372,101.888,0.00284098,0.112983,20.9072,52.6564,-0.258226,0.0,0.0
984,245.75,68.9496,75.018,130.279,99.0296,102.426,0.00281763,0.112748,20.9074,52.6564,-0.306899,0.0,0.0
987,246.5,69.0777,74.7823,127.648,99.0396,102.679,0.00278247,0.112585,20.9075,52.7565,-0.328439,0.0,0.0
990,247.25,68.5285,74.307,127.242,99.0312,101.374,0.00275684,0.112479,20.9075,52.6864,-0.21277,0.0,0.0
993,248,69.3402,74.4668,132.68,99.0145,101.872,0.00273816,0.112548,20.907,52.6163,-0.25895,0.0,0.0
996,248.75,69.1013,74.6408,128.576,99.0057,102.769,0.00273905,0.112714,20.9065,52.6163,-0.339496,0.0,0.0
999,249.5,68.121,74.191,128.286,99.0113,103.01,0.0027397,0.112928,20.9062,52.6364,-0.36033,0.0,0.0
1002,250.25,69.0504,74.2339,130.165,98.9957,102.561,0.00275833,0.113141,20.9064,52.5963,-0.322012,0.0,0.0
1005,251,68.9109,73.6528,130.155,98.9841,102.381,0.00277592,0.113278,20.9068,52.6464,-0.307041,0.0,0.0
1008,251.75,68.3576,73.954,130.23,98.9825,102.938,0.00279562,0.11336,20.907,52.6364,-0.356605,0.0,0.0
1011,252.5,68.7597,74.5345,128.812,98.9801,102.267,0.00280999,0.113331,20.9072,52.6163,-0.297275,0.0,0.0
1014,253.25,68.9196,73.7647,127.456,98.9809,102.343,0.002823,0.113273,20.9074,52.6263,-0.303931,0.0,0.0
1017,254,68.6506,73.7895,130.905,98.9618,102.978,0.00284095,0.113231,20.9075,52.6163,-0.362056,0.0,0.0
1020,254.75,68.1642,74.1323,127.726,98.951,103.022,0.00286663,0.113185,20.9075,52.6163,-0.366906,0.0,0.0
1023,255.5,68.5214,72.9786,122.886,98.9562,102.11,0.00290454,0.113146,20.9076,52.6364,-0.285483,0.0,0.0
1026,256.25,68.5873,73.5142,129.572,98.9646,102.034,0.00294035,0.113096,20.9076,52.6764,-0.277927,0.0,0.0
1029,257,68.4796,73.1918,129.229,98.9526,102.946,0.002981,0.113075,20.9078,52.6063,-0.360035,0.0,0.0
1032,257.75,68.3662,73.4602,132.516,98.9434,103.155,0.00300593,0.113035,20.908,52.5663,-0.379371,0.0,0.0
1035,258.5,68.7804,73.701,127.052,98.9406,102.352,0.00301608,0.112955,20.9082,52.5663,-0.30844,0.0,0.0
1038,259.25,67.9195,73.0782,130.176,98.9362,102.081,0.00300531,0.112765,20.9083,52.5863,-0.284749,0.0,0.0
1041,260,67.6853,73.0629,134.363,98.9362,102.712,0.00299236,0.112571,20.9084,52.5663,-0.340857,0.0,0.0
1044,260.75,68.5293,73.1249,129.596,98.9414,102.047,0.00298075,0.112356,20.9084,52.5863,-0.281221,0.0,0.0
1047,261.5,68.7801,73.1763,126.825,98.929,103.301,0.0029863,0.1123,20.9086,52.5463,-0.393554,0.0,0.0
1050,262.25,68.5349,72.7018,130.756,98.945,102.477,0.00300437,0.112361,20.9088,52.6263,-0.31916,0.0,0.0
1053,263,67.8068,72.4532,132.81,98.9306,102.774,0.0030313,0.112484,20.9083,52.5963,-0.346876,0.0,0.0
1056,263.75,68.5389,72.6011,130.584,98.933,102.699,0.00305603,0.112651,20.908,52.5863,-0.339995,0.0,0.0
1059,264.5,68.2652,72.3517,134.913,98.9226,102.193,0.00307489,0.112904,20.9077,52.5763,-0.295949,0.0,0.0
1062,265.25,67.9347,72.8931,127.554,98.923,103.013,0.00308635,0.113172,20.9075,52.5463,-0.368722,0.0,0.0
1065,266,67.7332,72.3355,126.311,98.9127,102.803,0.00308061,0.113367,20.9073,52.5263,-0.351041,0.0,0.0
1068,266.75,68.0966,72.4532,130.301,98.9063,102.691,0.00305902,0.11351,20.907,52.4162,-0.341777,0.0,0.0
1071,267.5,67.8761,72.1286,128.693,98.9095,102.731,0.0030238,0.113599,20.9068,52.4362,-0.344994,0.0,0.0
1074,268.25,67.9505,72.5979,130.584,98.919,102.332,0.00297138,0.113634,20.9069,52.4962,-0.308702,0.0,0.0
1077,269,68.3592,72.5752,129.625,98.917,101.965,0.00291709,0.113619,20.9073,52.5263,-0.27619,0.0,0.0
1080,269.75,67.9337,72.1876,135.535,98.9071,102.083,0.00286949,0.113389,20.9076,52.4462,-0.287592,0.0,0.0
1083,270.5,67.6322,71.8205,129.686,98.9015,102.803,0.00283747,0.113066,20.9079,52.4962,-0.352109,0.0,0.0
1086,271.25,67.4446,71.5257,131.714,98.9107,102.755,0.00281871,0.112726,20.9081,52.5163,-0.346958,0.0,0.0
1089,272,67.6278,72.1361,127.519,98.9206,102.953,0.002825,0.112561,20.9082,52.5163,-0.36357,0.0,0.0
1092,272.75,67.6514,71.9649,129.767,98.915,101.686,0.00284359,0.112464,20.9083,52.4362,-0.251422,0.0,0.0
1095,273.5,67.4673,71.805,130.344,98.9135,103.076,0.00286311,0.112433,20.9084,52.4462,-0.375091,0.0,0.0
1098,274.25,67.8025,71.9417,131.297,98.9142,102.349,0.00287734,0.112471,20.9084,52.4762,-0.310624,0.0,0.0
1101,275,67.4314,71.657,128.18,98.9354,102.576,0.00288263,0.112604,20.9084,52.4862,-0.328874,0.0,0.0
1104,275.75,67.6345,71.6517,130.534,98.9107,101.888,0.0028843,0.112722,20.9085,52.4262,-0.269903,0.0,0.0
1107,276.5,67.4851,71.5322,131.303,98.9099,101.716,0.00289461,0.112765,20.9085,52.4562,-0.254559,0.0,0.0
1110,277.25,67.5177,71.4025,133.21,98.9174,102.384,0.00290685,0.112761,20.9085,52.4762,-0.313453,0.0,0.0
1113,278,67.4796,71.3275,129.07,98.9266,102.861,0.00292386,0.112733,20.9087,52.4762,-0.354895,0.0,0.0
1116,278.75,67.5885,71.2784,131.912,98.9238,102.983,0.0029299,0.112629,20.9089,52.4462,-0.365982,0.0,0.0
1119,279.5,67.785,71.0438,127.79,98.9254,102.925,0.0029356,0.112553,20.909,52.3961,-0.360701,0.0,0.0
1122,280.25,67.4993,71.2764,130.644,98.9306,102.279,0.00294664,0.112291,20.9091,52.3361,-0.30291,0.0,0.0
1125,281,67.4152,71.5361,131.075,98.9318,103.443,0.00300013,0.112085,20.9092,52.3961,-0.405825,0.0,0.0
1128,281.75,67.3169,71.1402,128.151,98.955,102.875,0.00306845,0.111908,20.9095,52.3161,-0.353523,0.0,0.0
1131,282.5,67.3374,70.7623,130.916,98.9234,101.741,0.00313882,0.11175,20.9101,52.3361,-0.255566,0.0,0.0
1134,283.25,67.0368,70.9713,128.025,98.9218,102.858,0.00320391,0.11163,20.9105,52.3061,-0.355057,0.0,0.0
1137,284,67.1639,70.6807,126.79,98.951,102.506,0.00325135,0.111556,20.9102,52.3961,-0.321168,0.0,0.0
1140,284.75,67.2834,70.822,128.315,98.939,102.124,0.00330765,0.11144,20.9103,52.3361,-0.288306,0.0,0.0
1143,285.5,66.8,70.8768,130.563,98.933,103.104,0.00335457,0.111326,20.9109,52.3661,-0.375756,0.0,0.0
1146,286.25,67.117,70.4731,130.524,98.9214,102.501,0.00338304,0.11123,20.9113,52.276,-0.323486,0.0,0.0
1149,287,66.9398,70.6356,130.084,98.9322,102.132,0.00338719,0.111145,20.9116,52.3361,-0.289693,0.0,0.0
1152,287.75,66.9828,70.5973,132.664,98.9434,102.8,0.00338181,0.111056,20.9118,52.3061,-0.348013,0.0,0.0
1155,288.5,67.1464,70.3874,130.943,98.9326,102.675,0.00337558,0.110963,20.912,52.2961,-0.337876,0.0,0.0
1158,289.25,66.5316,70.4409,131.185,98.9338,102.261,0.00337359,0.110905,20.9121,52.286,-0.301053,0.0,0.0
1161,290,67.1464,70.4655,131.466,98.9398,102.193,0.00337323,0.110903,20.9122,52.3261,-0.294369,0.0,0.0
1164,290.75,67.0157,70.4767,129.102,98.9426,103.519,0.00338025,0.111088,20.9122,52.3161,-0.411486,0.0,0.0
1167,291.5,67.12,70.4982,131.269,98.927,102.515,0.00338739,0.111262,20.9123,52.246,-0.324251,0.0,0.0
1170,292.25,66.5828,70.1851,129.823,98.9302,102.935,0.00339603,0.111454,20.9123,52.276,-0.361096,0.0,0.0
1173,293,67.0837,70.3779,131.063,98.9318,102.734,0.00340106,0.111594,20.9123,52.3061,-0.343217,0.0,0.0
1176,293.75,66.7906,69.9938,126.416,98.9458,102.774,0.00340082,0.111696,20.9123,52.3461,-0.345441,0.0,0.0
1179,294.5,66.7621,70.2326,129.55,98.9402,102.893,0.0033949,0.111708,20.9124,52.256,-0.356475,0.0,0.0
1182,295.25,66.6326,69.8228,126.932,98.939,102.786,0.00337603,0.111694,20.9124,52.266,-0.347142,0.0,0.0
1185,296,66.9361,70.2174,130.89,98.9414,101.958,,0.111644,,52.216,-0.273306,0.0,0.0
1188,296.75,66.6714,70.4122,135.889,98.9566,102.305,,0.11167,,52.2961,-0.302847,0.0,0.0
1191,297.5,66.6674,70.1942,128.77,98.9266,102.294,,0.111646,,52.286,-0.304599,0.0,0.0
1194,298.25,66.8132,70.0401,130.374,98.9414,102.004,,0.111578,,52.246,-0.277405,0.0,0.0
1197,299,66.6556,70.0924,129.099,98.9446,101.505,,,,52.216,-0.23249,0.0,0.0
1200,299.75,66.6775,70.1009,129.358,98.9654,101.192,,,,52.286,-0.202438,0.0,0.0
1203,300.5,66.7444,69.4045,129.401,98.9434,102.708,,,,52.246,-0.339838,0.0,0.0
1206,301.25,66.2057,69.6316,132.046,98.9294,102.533,,,,52.236,-0.325589,0.0,0.0
1209,302,66.7373,69.8802,134.154,98.9318,102.51,,,,52.206,-0.32329,0.0,0.0
1212,302.75,66.9715,69.677,128.381,98.9542,102.766,,,,52.236,-0.343952,0.0,0.0
1215,303.5,66.592,69.7499,129.986,98.9382,102.191,,,,52.216,-0.294357,0.0,0.0
1218,304.25,66.4361,69.9575,132.307,98.9374,102.526,,,,52.1659,-0.324255,0.0,0.0
1221,305,66.4169,69.4969,130.636,98.931,102.495,,,,52.186,-0.322085,0.0,0.0
1224,305.75,66.1962,69.6695,127.685,98.9386,102.284,,,,52.226,-0.302576,0.0,0.0
1227,306.5,66.1524,69.6848,130.904,98.9378,102.759,,,,52.256,-0.344899,0.0,0.0
1228,306.75,66.437,69.4653,130.356,98.9314,102.807,,,,52.236,-0.349673,0.0,0.0