File: 01_Data/FDNY_LDF/Cone/FDNY_LDF_Cone_HF50Scan_220913_R3.csv
Names,Time,Stack TC,Smoke TC,Exh Press,Smoke Comp,Smoke Meas,CO Meter,CO2 Meter,O2 Meter,Sample Mass,Ext Coeff,Start Test,Flame Verif
Chan Gain,,500,500,1,1,1,1,1,1,1,1,1.0,1.0
Offset,,0,0,0.139139,0,0,0,0,0,0,0,0.0,0.0
Gain,,1,1,25.011,13.0826,14.7555,1,1,1,1.00088,1.03743,1.0,1.0
Units,sec,C,C,Pa,%,%,%,%,%,g,/m,,
Baseline,,51.7087,53.1017,137.478,98.3966,100.185,0.00073906,0.0500585,20.9823,-445.838,-0.163831,,
5,1,49.4022,51.6047,141.326,98.2834,99.6362,0.00135029,0.0648476,20.9667,79.8803,-0.124401,0.0,0.0
10,2.25,49.5216,51.3842,135.201,98.2591,99.8505,0.001435,0.064382,20.9667,79.8203,-0.146212,0.0,0.0
15,3.5,49.0868,51.1949,134.068,98.2403,98.7468,0.00152905,0.0635024,20.9669,79.7702,-0.0468008,0.0,0.0
20,4.75,49.8842,51.3441,135.724,98.2367,97.9444,0.00169314,0.0666889,20.959,79.7402,0.0271196,0.0,0.0
25,6,49.8226,51.3396,129.059,98.218,100.736,0.00194545,0.0903869,20.9025,79.5701,-0.230392,0.0,1.0
30,7.25,50.162,51.4609,123.386,98.1808,100.128,0.00227169,0.14275,20.8276,79.3999,-0.178708,0.0,1.0
35,8.5,51.5658,52.1239,122.544,98.1557,100.168,0.002516,0.19973,20.7775,79.3199,-0.184682,0.0,1.0
40,9.75,53.1771,52.6525,120.822,98.1441,99.4583,0.00288455,0.25636,20.7183,79.1797,-0.121051,0.0,1.0
45,11,53.5025,51.7641,120.838,98.1213,98.5501,0.0031944,0.295625,20.6688,78.9896,-0.0396749,0.0,1.0
50,12.25,54.6118,53.1463,121.162,98.0814,98.3488,0.003434,0.334395,20.6295,78.8194,-0.0247724,0.0,0.0
55,13.5,55.8981,54.1533,119.096,98.0718,98.605,0.00361258,0.363496,20.5978,78.6893,-0.0493397,0.0,0.0
60,14.75,56.9317,54.7973,122.372,98.0551,97.3509,0.00375092,0.385896,20.5743,78.5292,0.0655868,0.0,0.0
65,16,58.245,56.1354,126.279,98.0215,96.711,0.00386041,0.401976,20.5592,78.329,0.122487,0.0,0.0
70,17.25,59.5303,56.7862,126.973,97.9988,97.5756,0.00396073,0.412521,20.5502,78.1889,0.0393801,0.0,0.0
75,18.5,59.8455,57.9354,122.724,97.9884,97.0051,0.00405243,0.419271,20.5448,78.0788,0.0917828,0.0,0.0
80,19.75,61.5567,58.7995,121.29,97.976,96.8547,0.0040904,0.422743,20.5426,77.9086,0.104754,0.0,0.0
85,21,61.8601,59.0872,121.114,97.9489,95.6524,0.00409654,0.423802,20.5421,77.7385,0.215906,0.0,0.0
90,22.25,62.7573,59.8287,122.921,97.9349,96.7511,0.00407808,0.423486,20.5452,77.5683,0.11067,0.0,0.0
95,23.5,63.1429,61.0433,120.51,97.9181,96.1855,0.00408791,0.422349,20.5474,77.4983,0.162466,0.0,0.0
100,24.75,64.4081,61.5918,127.027,97.8938,95.556,0.00412319,0.420308,20.5494,77.3681,0.219959,0.0,0.0
105,26,65.0745,62.2567,127.385,97.8618,95.1106,0.00413839,0.418525,20.5505,77.1279,0.2595,0.0,0.0
110,27.25,65.3605,62.1944,124.199,97.8447,96.1711,0.00412571,0.417097,20.5533,76.9878,0.156999,0.0,0.0
115,28.5,65.7926,63.1633,122.196,97.8283,96.5764,0.00409612,0.415603,20.5558,76.9277,0.117207,0.0,0.0
120,29.75,66.3913,64.0671,122.279,97.8055,97.1636,0.00408643,0.413875,20.5588,76.7576,0.0599273,0.0,0.0
125,31,66.858,64.3403,123.673,97.772,96.285,0.00411258,0.411366,20.562,76.5374,0.139465,0.0,0.0
130,32.25,67.5594,65.0756,125.397,97.762,96.1,0.00414794,0.408208,20.5668,76.4774,0.156044,0.0,0.0
135,33.5,67.9773,65.5787,129.493,97.7552,96.362,0.00416962,0.404252,20.5727,76.3673,0.130628,0.0,0.0
140,34.75,68.14,66.1606,124.15,97.7241,95.8996,0.00413347,0.400513,20.5782,76.1771,0.171508,0.0,0.0
145,36,68.6935,66.3937,125.169,97.7061,96.091,0.00408157,0.397551,20.5815,75.9669,0.151692,0.0,0.0
150,37.25,68.445,66.8597,121.054,97.6838,97.047,0.00400053,0.39441,20.5854,75.9068,0.05952,0.0,0.0
155,38.5,68.619,66.9702,128.152,97.6702,95.5875,0.0039091,0.391505,20.5898,75.7667,0.196148,0.0,0.0
160,39.75,69.0483,67.7772,125.935,97.6343,97.3658,0.00385096,0.388404,20.5933,75.6166,0.02506,0.0,0.0
165,41,69.5847,68.5505,128.888,97.6051,96.7885,0.00384009,0.38523,20.5971,75.4464,0.0764596,0.0,0.0
170,42.25,70.0454,68.1454,121.282,97.5999,96.3503,0.0038494,0.382407,20.6009,75.3964,0.117264,0.0,0.0
175,43.5,70.1817,69.0651,129.091,97.5827,96.8601,0.00383483,0.379318,20.6035,75.2563,0.0676448,0.0,0.0
180,44.75,70.2627,69.6115,127.056,97.5524,97.1411,0.00378785,0.376185,20.607,75.0561,0.0384543,0.0,0.0
185,46,70.4592,69.9159,124.418,97.5512,96.204,0.00371121,0.37339,20.6099,74.976,0.126555,0.0,0.0
190,47.25,70.81,69.7056,125.143,97.5308,96.6764,0.003646,0.371252,20.6139,74.8859,0.080081,0.0,0.0
195,48.5,71.0836,70.2807,127.092,97.5065,97.2874,0.00359605,0.368357,20.6176,74.7558,0.0204707,0.0,0.0
200,49.75,70.799,70.0313,123.662,97.4905,98.1425,0.0035758,0.365228,20.6217,74.5457,-0.0606593,0.0,0.0
205,51,71.0268,70.8541,125.731,97.4698,96.902,0.00360316,0.362016,20.6252,74.4956,0.0531686,0.0,0.0
210,52.25,71.2368,71.0789,125.243,97.4781,96.8385,0.00368578,0.3588,20.629,74.3855,0.0599166,0.0,0.0
215,53.5,71.4907,71.2576,124.018,97.4302,96.8776,0.00375825,0.355267,20.6312,74.1753,0.0517621,0.0,0.0
220,54.75,71.7376,71.8645,122.692,97.4159,97.3234,0.00381641,0.352242,20.6345,74.0452,0.00863882,0.0,0.0
225,56,71.5128,71.8948,123.411,97.4187,97.019,0.00380305,0.350282,20.6379,73.9952,0.0374075,0.0,0.0
230,57.25,71.8447,71.712,126.831,97.4087,97.6922,0.00372197,0.347205,20.6412,73.8651,-0.0264521,0.0,0.0
235,58.5,71.9899,72.1182,125.669,97.3791,97.1663,0.00359219,0.343459,20.645,73.6749,0.0199121,0.0,0.0
240,59.75,71.4138,71.8548,125.449,97.3767,96.9988,0.00345538,0.339967,20.6491,73.5648,0.0353923,0.0,0.0
245,61,72.1368,72.728,124.647,97.3696,97.5337,0.00336362,0.336567,20.6521,73.4947,-0.0153314,0.0,0.0
250,62.25,71.9163,72.5607,128.074,97.3464,97.4891,0.00329331,0.333405,20.6556,73.3746,-0.0133354,0.0,0.0
255,63.5,71.9113,72.5278,126.013,97.3372,97.7841,0.00327049,0.330679,20.6602,73.1744,-0.0416848,0.0,0.0
260,64.75,71.8984,72.4898,124.985,97.3288,98.7676,0.00329858,0.327033,20.6647,73.0844,-0.133538,0.0,0.0
265,66,72.1223,72.8478,127.122,97.3284,97.6598,0.00329799,0.323537,20.6689,73.0243,-0.0309319,0.0,0.0
270,67.25,72.175,73.3191,129.783,97.3204,98.0277,0.00325401,0.320371,20.6721,72.9042,-0.0658963,0.0,0.0
275,68.5,71.6874,73.1178,121.787,97.3065,98.0088,0.00311544,0.317212,20.6755,72.7241,-0.0654478,0.0,0.0
280,69.75,71.3982,73.2018,124.019,97.3113,98.4609,0.00294402,0.314758,20.6794,72.674,-0.106881,0.0,0.0
285,71,71.5754,73.0059,128.029,97.3153,98.4911,0.00281173,0.312036,20.6829,72.5439,-0.109296,0.0,0.0
290,72.25,71.5501,73.6143,124.824,97.3093,98.6068,0.00275582,0.308794,20.6869,72.4138,-0.120542,0.0,0.0
295,73.5,71.8083,73.5864,127.719,97.3005,97.9737,0.00274017,0.306025,20.6903,72.2436,-0.0627455,0.0,0.0
300,74.75,71.6435,73.6295,127.666,97.3137,98.3537,0.00271418,0.303593,20.6928,72.1836,-0.096747,0.0,0.0
305,76,71.9871,74.3469,126.015,97.3005,98.3825,0.00265873,0.300799,20.6967,72.0434,-0.100645,0.0,0.0
310,77.25,72.0191,73.7337,125.484,97.2953,98.7297,0.00256642,0.298231,20.6995,71.9033,-0.133188,0.0,0.0
315,78.5,72.0673,73.8583,125.221,97.3093,99.2043,0.00246594,0.295661,20.7024,71.7732,-0.175523,0.0,0.0
320,79.75,71.8017,73.7904,126.47,97.316,99.8839,0.00238176,0.29322,20.7048,71.6931,-0.23701,0.0,0.0
325,81,71.5162,74.1684,122.753,97.3057,99.0611,0.00232084,0.291251,20.707,71.563,-0.162714,0.0,0.0
330,82.25,71.4551,73.9497,128.812,97.324,99.2413,0.00227279,0.289503,20.7094,71.4429,-0.177529,0.0,0.0
335,83.5,71.2,74.2254,126.339,97.3065,99.4835,0.00222607,0.287773,20.7118,71.2928,-0.20136,0.0,0.0
340,84.75,71.4723,74.4928,129.447,97.3065,99.9577,0.00218106,0.285761,20.7132,71.2528,-0.244631,0.0,0.0
345,86,71.572,74.336,132.649,97.2849,99.6303,0.00217076,0.28353,20.7163,71.1527,-0.216795,0.0,0.0
350,87.25,71.3665,74.1411,127.664,97.2741,98.8166,0.00222071,0.281222,20.7191,70.9725,-0.143174,0.0,0.0
355,88.5,71.3312,74.5611,128.039,97.2741,99.4295,0.00228295,0.278846,20.7226,70.9124,-0.19944,0.0,0.0
360,89.75,71.2221,74.1663,128.135,97.2773,99.158,0.00229979,0.276838,20.7257,70.8024,-0.174255,0.0,0.0
365,91,70.9462,73.8055,125.436,97.2697,99.4354,0.00226734,0.275339,20.7276,70.6722,-0.200387,0.0,0.0
370,92.25,71.0769,74.2365,127.48,97.2598,99.2386,0.00221226,0.27365,20.7292,70.5321,-0.183293,0.0,0.0
375,93.5,70.6301,74.066,125.031,97.2606,100.304,0.00216068,0.272301,20.7308,70.5021,-0.280357,0.0,0.0
380,94.75,71.1103,74.3449,127.624,97.2586,98.759,0.00214279,0.270756,20.7326,70.432,-0.139322,0.0,0.0
385,96,70.9082,74.3849,129.685,97.2438,100.112,0.00213319,0.269169,20.7352,70.2218,-0.264547,0.0,0.0
390,97.25,71.2834,74.0788,127.348,97.231,99.5849,0.00211385,0.267794,20.7371,70.1217,-0.217683,0.0,0.0
395,98.5,71.0552,74.5861,132.529,97.2426,99.5277,0.0021111,0.266596,20.739,70.0717,-0.211372,0.0,0.0
400,99.75,70.3422,74.3223,128.531,97.2358,99.425,0.00215171,0.264768,20.742,70.0016,-0.202614,0.0,0.0
405,101,70.4992,74.0503,123.996,97.221,99.0031,0.00223593,0.262736,20.744,69.8315,-0.165295,0.0,0.0
410,102.25,70.4893,74.061,127.236,97.2103,98.9977,0.00230033,0.260662,20.7463,69.7314,-0.165807,0.0,0.0
415,103.5,70.2729,74.1472,129.795,97.2091,100.014,0.00232457,0.259017,20.7482,69.6613,-0.258828,0.0,0.0
420,104.75,70.279,73.9646,128.483,97.2023,99.692,0.00231983,0.257764,20.7493,69.5613,-0.230162,0.0,0.0
425,106,70.4274,74.0317,129.283,97.1939,99.198,0.00231716,0.256439,20.7506,69.4011,-0.185742,0.0,0.0
430,107.25,69.9383,73.6069,128.902,97.1939,98.9427,0.00232722,0.254978,20.752,69.311,-0.162289,0.0,0.0
435,108.5,69.8002,73.833,128.29,97.2011,99.3223,0.00232888,0.253984,20.7534,69.281,-0.196464,0.0,0.0
440,109.75,69.5317,73.5137,128.574,97.1751,99.5137,0.00230623,0.252423,20.756,69.1709,-0.216412,0.0,0.0
445,111,70.0275,74.0305,126.749,97.1703,99.0945,0.00225015,0.250708,20.7581,68.9807,-0.178441,0.0,0.0
450,112.25,69.7555,73.6013,127.925,97.1755,99.5889,0.00216903,0.249466,20.7594,68.9707,-0.223248,0.0,0.0
455,113.5,69.6539,73.8125,129.079,97.1771,98.7369,0.00208598,0.248801,20.7601,68.8707,-0.144912,0.0,0.0
460,114.75,69.8068,73.5185,126.717,97.1599,99.8109,0.00202807,0.248082,20.7604,68.7205,-0.24497,0.0,0.0
465,116,69.6061,73.4877,127.896,97.1532,100.1,0.00197096,0.24748,20.7616,68.6104,-0.271967,0.0,0.0
470,117.25,69.494,73.5689,129.117,97.1643,99.9505,0.00192621,0.24704,20.7623,68.5804,-0.257277,0.0,0.0
475,118.5,69.6989,73.5243,126.555,97.1504,99.1913,0.00193086,0.246505,20.7633,68.4503,-0.189198,0.0,0.0
480,119.75,69.136,74.093,127.586,97.1436,99.7708,0.00196506,0.245832,20.7641,68.3302,-0.242849,0.0,0.0
485,121,69.3903,74.0637,134.141,97.1452,99.9658,0.00201552,0.245062,20.7647,68.2501,-0.260467,0.0,0.0
490,122.25,69.6059,73.1824,130.804,97.1444,100.243,0.00203665,0.244257,20.7651,68.18,-0.285758,0.0,0.0
495,123.5,68.5748,72.8435,134.718,97.1308,99.8784,0.00196584,0.243906,20.7661,68.0599,-0.253857,0.0,0.0
500,124.75,68.9384,73.3492,128.074,97.1248,100.2,0.00186851,0.243657,20.7668,67.9699,-0.283706,0.0,0.0
505,126,69.0741,72.8006,131.44,97.1276,99.1499,0.00179934,0.242985,20.7673,67.9198,-0.187529,0.0,0.0
510,127.25,68.8649,73.3348,131.329,97.1528,98.8437,0.00178965,0.242681,20.7675,67.8097,-0.157024,0.0,0.0
515,128.5,68.9183,72.9797,128.014,97.1288,99.7087,0.00183561,0.242804,20.7674,67.7096,-0.238563,0.0,0.0
520,129.75,68.8375,73.1219,128.29,97.1236,99.8447,0.00191441,0.24336,20.7662,67.5695,-0.251453,0.0,0.0
525,131,68.919,72.873,133.774,97.1288,98.9067,0.00197388,0.24398,20.765,67.5095,-0.165071,0.0,0.0
530,132.25,68.5068,72.9409,129.703,97.13,99.5376,0.00198146,0.244306,20.7643,67.4094,-0.22282,0.0,0.0
535,133.5,68.644,73.0321,125.733,97.1168,99.5151,0.00194273,0.244577,20.7632,67.2793,-0.221996,0.0,0.0
540,134.75,68.8716,72.4968,126.12,97.1216,99.9428,0.00187068,0.245181,20.7623,67.1792,-0.260583,0.0,0.0
545,136,68.7516,72.6308,130.893,97.1404,99.4565,0.0018088,0.24627,20.7613,67.1291,-0.214434,0.0,0.0
550,137.25,68.7449,73.0266,132.971,97.1252,99.8884,0.00179213,0.247381,20.7603,67.0591,-0.255283,0.0,0.0
555,138.5,68.7635,73.0261,129.36,97.1112,100.76,0.00181536,0.248272,20.7598,66.9289,-0.335631,0.0,0.0
560,139.75,68.5395,73.0399,131.073,97.1236,100.495,0.00186894,0.249451,20.758,66.8288,-0.310567,0.0,0.0
565,141,68.7383,72.5806,130.717,97.1236,100.26,0.00194156,0.251226,20.7558,66.7988,-0.289256,0.0,0.0
570,142.25,68.7683,72.9024,124.768,97.12,100.363,0.00199598,0.253542,20.7535,66.7087,-0.298867,0.0,0.0
575,143.5,69.1442,72.5595,126.084,97.1112,100.209,0.00204311,0.255594,20.751,66.5386,-0.285715,0.0,0.0
580,144.75,68.9893,72.7352,131.043,97.11,100.398,0.00208921,0.257387,20.7484,66.4785,-0.303027,0.0,0.0
585,146,68.8183,72.3124,123.139,97.1156,100.049,0.00213169,0.259289,20.7461,66.3885,-0.270775,0.0,0.0
590,147.25,68.8473,72.8796,129.703,97.1092,99.4826,0.00219914,0.261486,20.7441,66.2984,-0.219741,0.0,0.0
595,148.5,69.4987,73.0505,128.116,97.0993,100.083,0.0023158,0.264087,20.7405,66.1482,-0.275461,0.0,0.0
600,149.75,69.0386,72.9068,131.011,97.1104,99.5655,0.00246604,0.266668,20.7372,66.0982,-0.227205,0.0,0.0
605,151,69.0336,72.9092,129.317,97.118,98.8238,0.0025876,0.269475,20.7328,65.9981,-0.158454,0.0,0.0
610,152.25,69.7129,73.3394,128.203,97.112,99.4691,0.00263394,0.273027,20.7286,65.878,-0.218243,0.0,0.0
615,153.5,69.3545,72.6367,129.163,97.1124,99.6803,0.00262315,0.276584,20.7242,65.7279,-0.237507,0.0,0.0
620,154.75,69.4018,73.3576,127.026,97.118,99.7906,0.00257076,0.280022,20.7201,65.6878,-0.24705,0.0,0.0
625,156,69.3586,72.8326,127.134,97.1212,99.2399,0.00247395,0.283411,20.7161,65.5677,-0.196389,0.0,0.0
630,157.25,70.0762,73.0298,125.772,97.1104,99.221,0.00232657,0.287026,20.7106,65.4476,-0.195665,0.0,0.0
635,158.5,70.0251,73.082,126.492,97.1132,98.9121,0.00216352,0.291845,20.7037,65.2875,-0.167027,0.0,0.0
640,159.75,69.9246,73.7186,126.932,97.1148,99.0657,0.00203954,0.297241,20.698,65.2374,-0.180994,0.0,0.0
645,161,70.2813,73.5382,127.559,97.1312,99.1292,0.00198479,0.302263,20.6923,65.1974,-0.185291,0.0,0.0
650,162.25,70.3936,73.6841,131.945,97.1128,99.1805,0.00202622,0.306698,20.6881,65.0273,-0.191722,0.0,0.0
655,163.5,70.3533,73.8531,126.349,97.1292,98.6978,0.00212499,0.311248,20.6832,64.9272,-0.145789,0.0,0.0
660,164.75,70.762,73.822,126.707,97.1324,99.2462,0.00222035,0.31588,20.6768,64.8471,-0.19592,0.0,0.0
665,166,71.0098,74.1814,125.051,97.1168,99.031,0.00228658,0.321168,20.6689,64.707,-0.177621,0.0,0.0
670,167.25,71.0254,74.2736,126.474,97.1184,98.7986,0.00233626,0.327232,20.6614,64.5869,-0.156093,0.0,0.0
675,168.5,71.0157,74.1991,126.018,97.1268,98.7252,0.00239316,0.332574,20.6558,64.4968,-0.148545,0.0,0.0
680,169.75,71.2466,74.4885,121.925,97.1336,97.3797,0.00244717,0.33746,20.6512,64.3867,-0.0230304,0.0,0.0
685,171,71.4035,74.6171,127.755,97.114,97.5517,0.00249208,0.342726,20.6447,64.2366,-0.0409242,0.0,0.0
690,172.25,72.0282,75.2746,125.878,97.1248,97.3383,0.00253806,0.34805,20.6371,64.1065,-0.0199808,0.0,0.0
695,173.5,71.8994,74.4892,121.651,97.1308,96.2729,0.00259505,0.353324,20.6305,64.0064,0.0807369,0.0,0.0
700,174.75,72.9651,75.3606,122.984,97.1587,97.2073,0.00268258,0.358245,20.6254,63.8963,-0.00454282,0.0,0.0
705,176,72.7416,75.6939,126.68,97.1244,97.3068,0.00287318,0.362287,20.6199,63.7361,-0.0170702,0.0,0.0
710,177.25,72.9668,75.0958,122.737,97.14,96.639,0.00305457,0.366556,20.6134,63.606,0.0470567,0.0,0.0
715,178.5,73.3237,75.5744,123.525,97.1492,96.7664,0.00317641,0.369773,20.6091,63.5159,0.035924,0.0,0.0
720,179.75,73.2552,75.9536,126.845,97.1392,95.4389,0.00324291,0.372704,20.6051,63.4158,0.160697,0.0,0.0
725,181,73.6918,76.1203,122.873,97.1396,96.3661,0.00328386,0.375617,20.6002,63.2757,0.0727529,0.0,0.0
730,182.25,73.7443,76.4774,124.678,97.1567,96.2071,0.00333439,0.378897,20.5966,63.1256,0.0893833,0.0,0.0
735,183.5,74.2293,76.7588,123.223,97.1532,95.8856,0.00337726,0.382054,20.5935,63.0255,0.119511,0.0,0.0
740,184.75,73.9446,76.5171,123.825,97.1432,94.1042,0.00338725,0.384827,20.5894,62.8554,0.289234,0.0,0.0
745,186,74.5855,76.651,127.672,97.1432,95.275,0.00335989,0.387433,20.5846,62.6852,0.176713,0.0,0.0
750,187.25,74.4579,77.0489,127.116,97.1655,95.6987,0.0033366,0.39101,20.5795,62.6552,0.138423,0.0,0.0
755,188.5,74.8757,77.1837,121.723,97.1695,95.9698,0.00331254,0.395535,20.5718,62.5151,0.113055,0.0,0.0
760,189.75,75.0726,77.3024,122.099,97.156,94.8472,0.00332412,0.399817,20.5673,62.3349,0.218863,0.0,0.0
765,191,75.3552,77.7686,123.824,97.1552,94.4802,0.00341118,0.403311,20.5634,62.2148,0.254069,0.0,0.0
770,192.25,75.466,78.0749,122.409,97.1647,94.5793,0.003528,0.405552,20.5602,62.1247,0.245428,0.0,0.0
775,193.5,75.616,78.1542,123.279,97.1572,94.342,0.00363747,0.407587,20.5563,61.9546,0.267581,0.0,0.0
780,194.75,75.9913,78.0702,121.654,97.1663,93.957,0.00368687,0.410481,20.5521,61.7644,0.305655,0.0,0.0
785,196,76.0554,78.6224,123.14,97.1715,95.1219,0.00368107,0.413977,20.5485,61.6343,0.194004,0.0,0.0
790,197.25,76.1148,78.7993,120.532,97.1967,93.6134,0.00363636,0.417733,20.544,61.5242,0.341834,0.0,0.0
795,198.5,77.1617,79.2984,121.993,97.1767,94.1641,0.00360236,0.421807,20.5379,61.4041,0.286586,0.0,0.0
800,199.75,77.1299,79.737,121.476,97.1647,94.1682,0.00359464,0.426231,20.532,61.2239,0.285073,0.0,0.0
805,201,77.1593,79.4327,124.074,97.1755,94.0295,0.00359088,0.43059,20.5276,61.1338,0.299495,0.0,0.0
810,202.25,77.9462,79.778,124.024,97.1843,93.4806,0.00358363,0.434448,20.523,60.9937,0.353599,0.0,0.0
815,203.5,77.9724,79.6132,122.919,97.1807,94.319,0.00360408,0.437988,20.5193,60.8035,0.272002,0.0,0.0
820,204.75,78.6116,80.1462,122.493,97.1791,94.772,0.00364719,0.441494,20.5162,60.6434,0.22825,0.0,0.0
825,206,78.4795,80.3963,119.037,97.2027,94.7139,0.00369139,0.444361,20.5135,60.5533,0.236035,0.0,0.0
830,207.25,78.3035,80.382,124.527,97.2098,94.9557,0.00369214,0.446507,20.5115,60.4332,0.213503,0.0,0.0
835,208.5,78.6858,80.9418,121.749,97.1975,95.2151,0.0036713,0.447857,20.5102,60.223,0.187521,0.0,0.0
840,209.75,78.9079,81.6895,124.822,97.2083,95.1138,0.00366747,0.449198,20.5094,60.0529,0.198218,0.0,0.0
845,211,79.3521,81.7911,122.484,97.2158,94.99,0.00373771,0.450037,20.509,60.0028,0.210784,0.0,0.0
850,212.25,79.6936,81.7403,122.565,97.223,94.7504,0.00385149,0.450788,20.5087,59.8827,0.234437,0.0,0.0
855,213.5,79.6747,82.2339,119.861,97.2086,95.3808,0.00397646,0.451031,20.509,59.6726,0.172742,0.0,0.0
860,214.75,79.8688,81.8478,124.443,97.2146,94.7815,0.00407863,0.450278,20.5109,59.5524,0.230668,0.0,0.0
865,216,80.1493,82.1222,125.059,97.2242,93.6035,0.0041467,0.448309,20.514,59.4524,0.345377,0.0,0.0
870,217.25,79.9286,82.4494,125.613,97.2126,93.9642,0.00416037,0.444827,20.5173,59.2422,0.309293,0.0,0.0
875,218.5,80.2137,82.7416,123.302,97.217,93.4725,0.00411964,0.44011,20.5222,59.072,0.357453,0.0,0.0
880,219.75,80.1891,82.673,124.403,97.2274,93.449,0.00406352,0.434593,20.5285,58.9819,0.360705,0.0,0.0
885,221,80.2153,83.1514,121.586,97.2338,93.0658,0.00401611,0.428127,20.5384,58.9319,0.398697,0.0,0.0
890,222.25,79.9964,82.9151,122.167,97.227,94.2294,0.00398872,0.421283,20.549,58.7918,0.284988,0.0,0.0
895,223.5,79.9906,82.9489,125.372,97.2386,92.8321,0.00399051,0.412469,20.5582,58.6216,0.422027,0.0,0.0
900,224.75,79.58,83.4608,122.747,97.2522,93.2441,0.00404704,0.403708,20.5678,58.5716,0.382996,0.0,0.0
905,226,80.382,83.086,128.237,97.2634,93.9714,0.00411524,0.392531,20.5801,58.4615,0.313341,0.0,0.0
910,227.25,80.164,83.0958,126.906,97.2558,94.1384,0.00417363,0.379979,20.596,58.3414,0.296467,0.0,0.0
915,228.5,79.8323,83.0814,122.117,97.2582,94.3825,0.0041557,0.365146,20.6114,58.2313,0.273128,0.0,0.0
920,229.75,79.4473,82.8129,127.43,97.2705,93.8273,0.00400537,0.349023,20.631,58.1812,0.327979,0.0,0.0
925,231,78.9862,82.9426,127.248,97.2733,95.796,0.00375212,0.330766,20.6519,58.1212,0.13927,0.0,0.0
930,232.25,78.4861,82.6605,133.61,97.2598,96.8866,0.00339822,0.313633,20.6717,57.9811,0.0349784,0.0,0.0
935,233.5,77.8841,82.2678,130.466,97.2673,96.4913,0.00311198,0.29153,20.6974,57.961,0.0729003,0.0,0.0
940,234.75,77.6359,82.0361,129.667,97.2657,97.5243,0.00293871,0.268738,20.7276,57.9711,-0.0241556,0.0,0.0
945,236,77.2131,81.9871,136.654,97.2657,99.0801,0.00287697,0.246083,20.7588,57.901,-0.168186,0.0,0.0
950,237.25,76.2041,81.3368,129.021,97.2606,99.2215,0.00289265,0.224381,20.7845,57.8409,-0.18165,0.0,0.0
955,238.5,75.5775,80.7262,132.715,97.2781,98.7649,0.00292265,0.204322,20.804,57.871,-0.138031,0.0,0.0
960,239.75,75.0617,80.382,132.337,97.2629,99.7024,0.00296262,0.18931,20.8211,57.8509,-0.225428,0.0,0.0
965,241,73.5358,80.0074,135.075,97.2657,99.8393,0.00305816,0.174896,20.8379,57.7809,-0.237652,0.0,0.0
970,242.25,73.6327,79.3326,135.823,97.2562,99.9302,0.00325825,0.162064,20.8522,57.7208,-0.246836,0.0,0.0
975,243.5,73.0333,78.9008,136.07,97.2837,99.3381,0.00353169,0.151824,20.8632,57.7909,-0.190174,0.0,0.0
980,244.75,72.0728,78.4902,134.166,97.2761,99.2485,0.0038178,0.143725,20.8718,57.7909,-0.182671,0.0,0.0
985,246,71.474,78.1962,137.355,97.2685,99.6083,0.00412862,0.137359,20.8798,57.7008,-0.21631,0.0,0.0
990,247.25,71.09,77.5972,138.679,97.2737,99.3367,0.00443104,0.132257,20.8862,57.6808,-0.190984,0.0,0.0
995,248.5,70.309,76.9424,137.192,97.2849,99.6155,0.00476879,0.128209,20.8912,57.7308,-0.215437,0.0,0.0
1000,249.75,69.5392,76.4033,133.181,97.2729,100.15,0.00512365,0.12518,20.8948,57.7108,-0.265257,0.0,0.0
1005,251,68.659,75.9592,133.855,97.2705,100.18,0.00539418,0.122986,20.8979,57.6007,-0.268221,0.0,0.0
1010,252.25,68.333,75.3005,134.88,97.2777,98.573,0.00565699,0.121147,20.8997,57.6207,-0.120375,0.0,0.0
1015,253.5,68.0273,75.1094,132.79,97.2877,101.148,0.00583985,0.11956,20.8999,57.6508,-0.3541,0.0,0.0
1020,254.75,67.4106,74.5424,134.632,97.2861,99.9618,0.00598773,0.118308,20.899,57.5907,-0.246905,0.0,0.0
1025,256,67.2326,74.1987,137.842,97.2825,100.609,0.006155,0.11713,20.8985,57.5607,-0.305959,0.0,0.0
1030,257.25,66.7509,73.3492,132.661,97.2973,99.5443,0.00630212,0.116131,20.8992,57.6308,-0.207777,0.0,0.0
1035,258.5,66.2242,72.8363,139.792,97.2929,99.9676,0.00639104,0.115553,20.8995,57.6207,-0.246803,0.0,0.0
1040,259.75,65.3008,72.3872,135.551,97.2865,99.2197,0.00646044,0.115319,20.8997,57.5407,-0.179056,0.0,0.0
1045,261,65.36,72.1113,138.088,97.2781,99.8447,0.00651765,0.115223,20.8999,57.5207,-0.236987,0.0,0.0
1050,262.25,64.9852,71.8312,134.139,97.2969,99.1949,0.00655672,0.115102,20.9004,57.5407,-0.175814,0.0,0.0
1055,263.5,64.5329,71.3972,136.202,97.3069,99.9528,0.00657086,0.114647,20.9017,57.5307,-0.244143,0.0,0.0
1060,264.75,64.1023,71.1264,133.962,97.2897,99.6583,0.00656689,0.114078,20.903,57.4406,-0.218897,0.0,0.0
1065,266,63.5768,71.098,133.504,97.3025,98.9986,0.00655339,0.113402,20.9039,57.4406,-0.157261,0.0,0.0
1070,267.25,64.0698,70.6322,137.67,97.3148,99.1156,0.00655667,0.112701,20.9046,57.4906,-0.16686,0.0,0.0
1075,268.5,63.0023,70.3301,136.799,97.3188,98.9369,0.00658241,0.112024,20.905,57.4906,-0.150057,0.0,0.0
1080,269.75,63.103,70.2368,133.599,97.3077,99.4354,0.00666674,0.111488,20.9053,57.4306,-0.19684,0.0,0.0
1085,271,62.9654,69.738,135.456,97.318,98.8004,0.00679284,0.110994,20.9054,57.3805,-0.137574,0.0,0.0
1090,272.25,62.7086,69.6287,136.205,97.3388,98.981,0.00693779,0.110623,20.906,57.4506,-0.152249,0.0,0.0
1095,273.5,62.5526,68.9814,133.18,97.3404,99.697,0.00710529,0.110452,20.9068,57.4306,-0.21769,0.0,0.0
1100,274.75,61.9875,68.833,136.015,97.3304,99.0287,0.0072313,0.110263,20.9073,57.3505,-0.157421,0.0,0.0
1105,276,61.6314,68.1815,137.011,97.3352,99.4007,0.00731098,0.109822,20.9076,57.4206,-0.191089,0.0,0.0
1110,277.25,61.7479,68.3404,141.639,97.3524,99.8294,0.00735913,0.109365,20.9076,57.4206,-0.228647,0.0,0.0
1115,278.5,61.3529,67.7504,135.62,97.3384,98.6667,0.00739058,0.109036,20.9079,57.3305,-0.123343,0.0,0.0
1120,279.75,61.044,67.9549,135.167,97.3428,99.8105,0.00740133,0.108774,20.9088,57.3005,-0.227819,0.0,0.0
1125,281,60.8565,67.0923,131.698,97.3516,99.4853,0.00740051,0.108582,20.9094,57.3805,-0.197306,0.0,0.0
1130,282.25,60.7989,66.5392,134.222,97.3596,99.7326,0.00740841,0.108298,20.9097,57.3605,-0.219146,0.0,0.0
1135,283.5,60.4294,66.4762,135.186,97.3548,99.4025,0.00740283,0.107931,20.9058,57.2304,-0.189425,0.0,0.0
1140,284.75,60.1282,66.2711,137.739,97.356,99.529,0.00736807,0.107801,20.898,57.2104,-0.20089,0.0,0.0
1145,286,60.0223,65.791,135.465,97.3795,100.447,0.00733694,0.107856,20.8924,57.3005,-0.282214,0.0,0.0
1150,287.25,59.9969,66.1849,136.507,97.3831,100.07,0.00737085,0.107811,20.8891,57.2504,-0.247667,0.0,0.0
1155,288.5,60.1493,65.5534,133.946,97.3879,99.2854,0.00744763,0.107689,20.8872,57.1804,-0.175603,0.0,0.0
1160,289.75,59.6478,65.4628,135.963,97.4147,100.4,0.00756868,0.10746,20.8899,57.2004,-0.274688,0.0,0.0
1165,291,59.5728,65.3793,135.94,97.4087,100.507,0.0076924,0.107018,20.8921,57.2104,-0.284915,0.0,0.0
1170,292.25,59.3055,65.2569,135.1,97.4143,99.7497,0.00777277,0.106671,20.8937,57.2004,-0.215595,0.0,0.0
1175,293.5,58.9984,64.735,136.973,97.429,99.9478,0.00777484,0.106553,20.8958,57.1303,-0.232274,0.0,0.0
1180,294.75,59.4161,64.5847,136.308,97.431,99.8911,0.00771746,0.106413,20.8978,57.1503,-0.22692,0.0,0.0
1185,296,59.0133,64.3688,134.321,97.4514,99.4097,0.00765537,0.106378,20.899,57.1503,-0.181058,0.0,0.0
1190,297.25,59.0649,64.0939,133.583,97.4466,100.319,0.00765558,0.106346,20.8997,57.0803,-0.264355,0.0,0.0
1195,298.5,58.581,64.1726,136.123,97.4678,99.6056,0.00771728,0.106165,20.9008,57.0502,-0.197443,0.0,0.0
1200,299.75,58.7642,63.658,136.143,97.4789,99.2251,0.00785767,0.10598,20.9046,57.1303,-0.161569,0.0,0.0
1205,301,58.5912,63.7482,141.532,97.4925,99.6776,0.00800885,0.105823,20.9083,57.1203,-0.201713,0.0,0.0
1210,302.25,58.5575,63.8112,137.555,97.4933,100.086,0.00815366,0.105415,20.9105,57.0102,-0.238809,0.0,0.0
1215,303.5,58.4655,62.8574,138.088,97.4945,100.159,0.00822488,0.104903,20.912,57.0302,-0.245369,0.0,0.0
1220,304.75,58.1928,63.1304,136.676,97.5125,99.6704,0.00818043,0.104402,20.9136,57.1103,-0.199192,0.0,0.0
1225,306,58.1667,62.7573,136.271,97.5157,99.556,0.00807634,0.10406,20.9146,57.1203,-0.188444,0.0,0.0
1230,307.25,57.6707,62.4413,135.867,97.5065,100.088,0.00797128,0.103979,20.9152,56.9702,-0.237825,0.0,0.0
1235,308.5,58.003,62.5823,136.226,97.5281,99.6362,0.00789523,0.104118,20.9155,56.9902,-0.194613,0.0,0.0
1240,309.75,57.9229,62.0747,135.995,97.5504,100.379,0.00785503,0.104295,20.9157,57.0703,-0.260138,0.0,0.0
1245,311,57.6243,62.4381,133.519,97.5388,99.5655,0.00783933,0.104213,20.9158,57.0502,-0.187148,0.0,0.0
1250,312.25,57.9938,62.4989,137.179,97.534,99.9244,0.0078649,0.103976,20.9159,56.9702,-0.220339,0.0,0.0
1255,313.5,58.0289,61.8552,133.25,97.5328,99.439,0.007914,0.103773,20.915,57.0002,-0.176134,0.0,0.0
1260,314.75,57.3888,61.9689,138.08,97.546,99.3561,0.00806086,0.103616,20.9144,57.0202,-0.167319,0.0,0.0
1265,316,57.3043,61.4347,134.941,97.5456,99.6974,0.00817661,0.103798,20.9142,56.9902,-0.198567,0.0,0.0
1270,317.25,57.315,61.5479,135.328,97.5312,99.2503,0.00829613,0.104182,20.914,56.9001,-0.159001,0.0,0.0
1275,318.5,57.6273,61.6048,135.631,97.5328,99.1283,0.00831449,0.104298,20.9141,56.9802,-0.147655,0.0,0.0
1280,319.75,57.4874,61.6335,135.318,97.5412,99.5263,0.00824243,0.104195,20.9153,56.9502,-0.183343,0.0,0.0
1285,321,56.9992,60.8988,135.306,97.5249,99.8343,0.00816299,0.103746,20.9165,56.8901,-0.21299,0.0,0.0
1290,322.25,57.2652,61.1327,133.402,97.5213,100.342,0.00809484,0.103168,20.9174,56.8901,-0.259509,0.0,0.0
1295,323.5,56.8565,60.8948,133.565,97.5281,99.6299,0.00808343,0.102587,20.9185,56.9201,-0.194037,0.0,0.0
1300,324.75,57.3049,61.0386,134.645,97.5308,99.6195,0.00808526,0.102159,20.9191,56.9101,-0.192831,0.0,0.0
1305,326,56.9502,60.1585,136.244,97.5101,99.8866,0.00808398,0.101892,20.9195,56.83,-0.219129,0.0,0.0
1310,327.25,57.1446,60.4328,136.66,97.5161,99.6366,0.00809222,0.101738,20.9197,56.8501,-0.195773,0.0,0.0
1315,328.5,57.1329,60.5966,133.873,97.5181,99.2976,0.00810836,0.101868,20.9198,56.9101,-0.164563,0.0,0.0
1320,329.75,56.3522,60.1573,133.358,97.5189,99.6047,0.00809604,0.10211,20.9199,56.8901,-0.192591,0.0,0.0
1325,331,56.6006,60.4286,142.646,97.5133,99.765,0.00803862,0.102069,20.9199,56.79,-0.207747,0.0,0.0
1330,332.25,56.7831,59.6912,132.874,97.5217,99.679,0.00800322,0.101799,20.92,56.8501,-0.199116,0.0,0.0
1335,333.5,56.1629,59.897,133.19,97.5213,98.818,0.00801894,0.101537,20.92,56.83,-0.120207,0.0,0.0
1340,334.75,56.7402,60.0428,134.131,97.5105,99.9852,0.00806376,0.101367,20.92,56.79,-0.228072,0.0,0.0
1345,336,56.2764,60.1649,135.862,97.5089,99.6276,0.00813265,0.101342,20.92,56.81,-0.19562,0.0,0.0
1350,337.25,57.1495,59.7786,135.757,97.4945,99.8159,0.00819123,0.101403,20.92,56.8801,-0.214139,0.0,0.0
1355,338.5,57.018,59.6028,131.752,97.4973,99.5425,0.00825188,0.101398,20.9206,56.81,-0.188924,0.0,0.0
1360,339.75,56.4754,59.3158,137.234,97.473,99.7222,0.00831782,0.101258,20.9213,56.75,-0.207608,0.0,0.0
1365,341,56.6051,59.6864,137.575,97.4773,99.9604,0.00835889,0.100971,20.9218,56.7099,-0.22891,0.0,0.0
1370,342.25,56.3219,59.5468,135.706,97.4722,99.321,0.00835473,0.100635,20.9226,56.78,-0.170994,0.0,0.0
1375,343.5,56.0697,59.1554,134.31,97.4821,99.5596,0.00829002,0.100349,20.9235,56.76,-0.191904,0.0,0.0
1380,344.75,56.3215,59.5642,138.527,97.4462,99.3966,0.00822414,0.100024,20.924,56.6899,-0.180347,0.0,0.0
1385,346,56.3765,58.973,137.141,97.4526,99.6628,0.00822781,0.0997382,20.9239,56.6899,-0.204084,0.0,0.0
1390,347.25,56.0854,59.1233,139.872,97.4506,98.7468,0.00831858,0.0996632,20.9237,56.74,-0.12025,0.0,0.0
1395,348.5,55.3597,58.9328,135.051,97.4422,100.082,0.00846654,0.0997017,20.9236,56.7199,-0.243212,0.0,0.0
1400,349.75,56.1027,58.8548,139.41,97.4502,98.9995,0.00856813,0.099688,20.9235,56.6499,-0.143538,0.0,0.0
1405,351,55.6614,59.0892,136.847,97.4582,99.475,0.00859696,0.0995085,20.9234,56.6699,-0.1864,0.0,0.0
1410,352.25,55.7523,59.0637,135.873,97.4594,99.2287,0.00851634,0.0992774,20.9234,56.6899,-0.163726,0.0,0.0
1415,353.5,55.6829,58.6266,138.498,97.4546,99.7051,0.00840014,0.0989922,20.9234,56.6099,-0.207761,0.0,0.0
1420,354.75,55.9393,58.7111,135.695,97.4574,99.6105,0.00830887,0.0988856,20.9234,56.5898,-0.198865,0.0,0.0
1425,356,55.8466,58.3015,135.447,97.4718,99.6749,0.00826282,0.0989485,20.9234,56.6699,-0.203404,0.0,0.0
1430,357.25,55.8201,58.561,131.472,97.475,99.4007,0.00823164,0.0990092,20.9234,56.6399,-0.178034,0.0,0.0
1435,358.5,56.055,58.2308,135.506,97.4578,99.3989,0.00817303,0.0990037,20.9234,56.5598,-0.179472,0.0,0.0
1440,359.75,55.7506,58.8223,134.387,97.469,99.6997,0.00809765,0.0988966,20.9234,56.5598,-0.205926,0.0,0.0
1445,361,55.8743,57.9536,135.771,97.475,99.7866,0.00808351,0.0987703,20.9234,56.6099,-0.213296,0.0,0.0
1450,362.25,55.7526,58.0333,132.486,97.4606,100.084,0.00811346,0.0986589,20.9234,56.5998,-0.241742,0.0,0.0
1455,363.5,55.3482,58.0827,137.949,97.4602,99.9469,0.00820922,0.0986745,20.924,56.5298,-0.229283,0.0,0.0
1460,364.75,55.8993,58.4255,132.604,97.4634,99.9699,0.00835091,0.0987224,20.9247,56.5498,-0.231076,0.0,0.0
1465,366,55.6409,57.8398,141.523,97.4666,99.23,0.00847393,0.0985005,20.9251,56.5498,-0.163179,0.0,0.0
1470,367.25,55.5791,58.0865,138.431,97.4646,99.552,0.00855212,0.097932,20.9256,56.4897,-0.192844,0.0,0.0
1475,368.5,55.7033,58.2001,136.957,97.4566,100.243,0.00856913,0.0976108,20.9265,56.4597,-0.256516,0.0,0.0
1480,369.75,56.0496,57.7798,135.943,97.4765,99.9077,0.0085524,0.0973346,20.9268,56.5498,-0.224187,0.0,0.0
1485,371,55.5283,57.7274,133.841,97.4738,99.38,0.00856434,0.0970957,20.9263,56.5398,-0.176249,0.0,0.0
1490,372.25,55.5034,58.1675,133.667,97.471,99.6299,0.00857641,0.0968609,20.926,56.4397,-0.199366,0.0,0.0
1495,373.5,55.4065,58.0618,134.145,97.4706,99.4714,0.00857796,0.0966515,20.9266,56.4397,-0.184914,0.0,0.0
1500,374.75,55.6665,58.1201,138.147,97.4781,99.81,0.00857736,0.0965858,20.9269,56.5298,-0.215133,0.0,0.0
1505,376,55.5802,57.417,134.546,97.4606,99.2557,0.00857701,0.096556,20.9271,56.5098,-0.166091,0.0,0.0
1510,377.25,55.525,57.6153,140.692,97.4634,99.4984,0.0085544,0.0964508,20.9272,56.3997,-0.188057,0.0,0.0
1515,378.5,55.7127,57.7103,133.897,97.4546,99.9149,0.00849645,0.0965092,20.9273,56.4197,-0.226894,0.0,0.0
1520,379.75,55.4809,57.476,136.853,97.4658,99.5403,0.00841567,0.0966474,20.9273,56.4397,-0.191662,0.0,0.0
1525,381,55.2297,57.7618,134.643,97.4598,99.4457,0.00831117,0.0965867,20.9273,56.4097,-0.183572,0.0,0.0
1530,382.25,55.4221,57.4202,137.726,97.4498,99.4723,0.00822427,0.0963959,20.9274,56.3396,-0.186934,0.0,0.0
1535,383.5,55.4609,57.3859,136.135,97.4482,98.8468,0.0081588,0.0959397,20.9274,56.3396,-0.129682,0.0,0.0
1540,384.75,55.2052,57.6554,141.348,97.453,98.99,0.0080721,0.0955615,20.9283,56.3596,-0.142408,0.0,0.0
1545,386,55.2578,57.3531,138.051,97.4414,99.2323,0.00799702,0.0952757,20.9288,56.3797,-0.165734,0.0,0.0
1550,387.25,54.9977,57.1427,141.235,97.435,99.6839,0.00791523,0.0950369,20.9292,56.3496,-0.207656,0.0,0.0
1555,388.5,55.1411,57.6182,135.443,97.4302,99.6159,0.00787398,0.0948107,20.9294,56.4197,-0.201894,0.0,0.0
1560,389.75,55.4558,57.4299,135.715,97.4286,99.6371,0.0078828,0.0946432,20.9295,56.3897,-0.203977,0.0,0.0
1565,391,54.9544,57.4409,133.654,97.4246,100.05,0.00791872,0.0944204,20.9298,56.3396,-0.241946,0.0,0.0
1570,392.25,55.1387,57.0522,135.845,97.4159,99.439,0.00795231,0.0941491,20.9306,56.2996,-0.187056,0.0,0.0
1575,393.5,54.9994,57.1011,136.867,97.4234,99.3039,0.0080095,0.0939365,20.9305,56.3496,-0.173975,0.0,0.0
1580,394.75,54.5803,57.0706,133.393,97.4155,99.574,0.00809724,0.093772,20.9305,56.3396,-0.199447,0.0,0.0
1585,396,55.0738,57.1023,135.452,97.4167,100.965,0.00824464,0.0937034,20.9304,56.2896,-0.32554,0.0,0.0
1590,397.25,54.6888,56.991,135.22,97.4234,99.3903,0.00839747,0.0937372,20.9296,56.2696,-0.181895,0.0,0.0
1595,398.5,54.9153,56.8575,134.967,97.4318,99.5227,0.00854336,0.0938293,20.929,56.3096,-0.193226,0.0,0.0
1600,399.75,54.87,56.8063,136.262,97.4398,99.4471,0.00863962,0.0939249,20.9286,56.2996,-0.185559,0.0,0.0
1605,401,55.0345,56.902,138.978,97.4246,98.8887,0.00866449,0.0938877,20.9291,56.2495,-0.135737,0.0,0.0
1610,402.25,55.0862,56.4642,135.366,97.4446,99.71,0.00863522,0.0937257,20.9291,56.2595,-0.209145,0.0,0.0
1615,403.5,54.8955,56.4677,139.537,97.4438,98.8513,0.00857711,0.093583,20.9296,56.2595,-0.130507,0.0,0.0
1620,404.75,54.9088,56.5542,140.279,97.433,99.3534,0.00849712,0.0935193,20.9299,56.2696,-0.177619,0.0,0.0
1625,406,54.5602,56.7477,134.155,97.4362,99.1467,0.00841854,0.093466,20.9301,56.2195,-0.158369,0.0,0.0
1630,407.25,54.9197,56.4785,133.373,97.457,99.8649,0.00834227,0.093351,20.9302,56.2495,-0.222117,0.0,0.0
1635,408.5,54.4237,56.5727,136.007,97.4606,100.24,0.00831031,0.0933729,20.9303,56.2796,-0.255898,0.0,0.0
1640,409.75,54.1446,56.9192,138.206,97.4406,100.245,0.00834198,0.0935222,20.9303,56.1695,-0.258253,0.0,0.0
1645,411,54.5362,56.4507,133.619,97.439,99.6902,0.00840496,0.0936377,20.9304,56.1595,-0.207859,0.0,0.0
1650,412.25,54.3702,56.2074,134.851,97.4418,100.11,0.00846305,0.0935112,20.9304,56.1995,-0.245829,0.0,0.0
1655,413.5,54.2231,56.5172,140.872,97.4522,100.208,0.00846417,0.0932595,20.9304,56.2295,-0.253778,0.0,0.0
1660,414.75,54.1391,56.1395,134.778,97.437,99.8424,0.00844501,0.0932026,20.9303,56.1194,-0.221929,0.0,0.0
1665,416,54.6286,56.2952,138.217,97.4346,100.042,0.00842827,0.0931905,20.9302,56.1294,-0.240317,0.0,0.0
1670,417.25,54.1604,56.0875,138.337,97.4422,99.7281,0.00843594,0.0930431,20.9302,56.1995,-0.211013,0.0,0.0
1675,418.5,54.8414,56.2287,137.175,97.4354,99.3683,0.00843326,0.0927767,20.9301,56.1695,-0.178756,0.0,0.0
1680,419.75,54.6427,56.287,135.487,97.4266,100.174,0.00841093,0.0925447,20.9301,56.0894,-0.253056,0.0,0.0
1685,421,54.4807,56.2908,137.489,97.4338,99.4381,0.00834368,0.0922296,20.9309,56.0594,-0.185295,0.0,0.0
1690,422.25,54.3793,56.1524,136.152,97.4434,99.3349,0.00825031,0.0919874,20.9315,56.1595,-0.174958,0.0,0.0
1695,423.5,54.1768,55.7919,136.259,97.433,99.3408,0.00817401,0.091723,20.9318,56.1494,-0.176464,0.0,0.0
1700,424.75,53.9693,56.1983,135.205,97.423,99.8226,0.00807354,0.0914529,20.9321,56.0594,-0.221428,0.0,0.0
1705,426,54.2273,56.2871,138.058,97.4398,99.5254,0.00798864,0.0912845,20.9322,56.0794,-0.192727,0.0,0.0
1710,427.25,54.532,55.7943,135.451,97.441,99.2242,0.00795532,0.0910594,20.9323,56.1795,-0.165028,0.0,0.0
1715,428.5,54.2854,56.1377,136.782,97.4262,99.4592,0.00794585,0.0908157,20.9323,56.1094,-0.187941,0.0,0.0
1720,429.75,52.6232,54.7596,134.601,97.4362,99.2872,0.00792041,0.0908002,20.9324,56.0894,-0.171255,0.0,0.0
1725,431,52.7389,54.1345,135.048,97.4286,99.5502,0.00789616,0.0909197,20.9324,56.0894,-0.196035,0.0,0.0
1730,432.25,53.2482,54.8685,136.532,97.4286,99.8298,0.00790073,0.0910481,20.9324,56.0794,-0.221563,0.0,0.0
1735,433.5,52.6665,53.9831,138.785,97.4079,99.4097,0.00793867,0.0910043,20.9324,55.9893,-0.185122,0.0,0.0
1740,434.75,52.0562,54.3339,135.013,97.4115,100.475,0.00795928,0.0911342,20.9324,55.9393,-0.2818,0.0,0.0
1745,436,52.5673,54.4947,136.255,97.4302,99.8501,0.00797214,0.0911847,20.9324,56.0394,-0.22326,0.0,0.0
1750,437.25,52.8096,54.432,134.476,97.4262,99.5858,0.00798577,0.091132,20.9324,56.0494,-0.199511,0.0,0.0
1755,438.5,52.0249,54.8266,136.492,97.3943,99.8024,0.00805012,0.0911117,20.932,55.9493,-0.222266,0.0,0.0
1760,439.75,52.7475,54.3163,136.521,97.4063,99.6889,0.00814431,0.0911664,20.931,55.9993,-0.210794,0.0,0.0
1765,441,52.7507,54.0701,135.426,97.4083,99.9879,0.00821215,0.0912299,20.9302,56.0193,-0.237861,0.0,0.0
1770,442.25,52.6125,54.398,136.781,97.3955,99.343,0.00821509,0.0910922,20.9297,55.9693,-0.180176,0.0,0.0
1775,443.5,52.864,54.0206,136.509,97.3895,99.701,0.00814415,0.0909203,20.9299,55.9092,-0.21347,0.0,0.0
1780,444.75,52.6477,54.1256,135.284,97.3939,100.172,0.00797542,0.0906841,20.931,55.9593,-0.25591,0.0,0.0
1785,446,52.5814,54.1072,137.892,97.3879,99.9433,0.00775698,0.0904056,20.9321,55.9092,-0.235706,0.0,0.0
1790,447.25,52.7774,54.0401,138.582,97.3811,99.9771,0.00757138,0.0900958,20.9328,55.8792,-0.239414,0.0,0.0
1795,448.5,52.3962,54.0387,136.484,97.3759,99.257,0.00748952,0.0899019,20.9325,55.8992,-0.174122,0.0,0.0
1800,449.75,52.4215,54.1849,137.853,97.3815,99.0323,0.00752064,0.090004,20.9321,55.9393,-0.152975,0.0,0.0
1805,451,52.3476,54.0201,135.422,97.3903,99.9442,0.00758992,0.0901697,20.9318,55.9593,-0.235564,0.0,0.0
1810,452.25,52.5516,54.2507,136.334,97.3723,100.327,0.00766002,0.0901367,20.9316,55.8592,-0.272068,0.0,0.0
1815,453.5,52.7654,53.6009,137.234,97.3664,99.8839,0.00773802,0.0901857,20.9315,55.8592,-0.232307,0.0,0.0
1820,454.75,52.5882,53.984,136.789,97.3708,99.6375,0.00780663,0.090128,20.9315,55.8792,-0.209427,0.0,0.0
1825,456,52.7287,54.4528,135.496,97.3672,99.3971,0.00784308,0.0899861,20.9315,55.9293,-0.187773,0.0,0.0
1830,457.25,52.7738,53.554,133.477,97.3436,99.7753,0.00784487,0.0898499,20.9314,55.8192,-0.224541,0.0,0.0
1835,458.5,52.6123,54.1156,135.185,97.35,99.6051,0.00781782,0.0896124,20.9314,55.7991,-0.208406,0.0,0.0
1840,459.75,51.9535,54.0493,134.261,97.3699,99.6461,0.00777352,0.0894091,20.9314,55.8892,-0.210283,0.0,0.0
1845,461,52.37,54.244,136.078,97.3432,99.9262,0.00772338,0.0893824,20.9317,55.8892,-0.238327,0.0,0.0
1850,462.25,52.7123,54.2215,133.969,97.3364,99.4921,0.00766939,0.0894288,20.9321,55.7791,-0.199342,0.0,0.0
1855,463.5,52.6426,53.6784,131.826,97.3364,100.078,0.00762049,0.0894708,20.9324,55.8091,-0.252812,0.0,0.0
1860,464.75,52.5388,54.1512,134.238,97.3288,100.113,0.00760396,0.0895534,20.9331,55.8392,-0.256632,0.0,0.0
1865,466,52.5792,53.5449,140.676,97.3248,99.7794,0.00762218,0.0894664,20.9339,55.8091,-0.226665,0.0,0.0
1870,467.25,52.4846,53.8014,135.408,97.3296,99.7744,0.00759991,0.0893228,20.9344,55.7391,-0.225765,0.0,0.0
1875,468.5,52.8323,53.5168,135.016,97.3208,99.8402,0.00751213,0.0892692,20.9347,55.8192,-0.232581,0.0,0.0
1880,469.75,52.5437,54.1218,134.965,97.3264,99.4525,0.00738351,0.0892114,20.9348,55.8091,-0.196651,0.0,0.0
1885,471,52.7794,54.2318,133.202,97.3348,98.5438,0.00732722,0.0892245,20.9349,55.7191,-0.112334,0.0,0.0
1890,472.25,52.4236,54.1153,138.892,97.3184,99.5952,0.00737232,0.0893052,20.935,55.7291,-0.210449,0.0,0.0
1895,473.5,52.5651,54.2626,137.476,97.3145,99.6236,0.00747008,0.089201,20.935,55.7791,-0.213414,0.0,0.0
1900,474.75,52.7568,53.6401,135.483,97.33,99.6105,0.00758688,0.0890109,20.935,55.7491,-0.210765,0.0,0.0
1905,476,51.8498,53.9772,137.679,97.3085,99.121,0.00768807,0.0888671,20.935,55.7191,-0.167953,0.0,0.0
1910,477.25,52.4051,53.3006,135.206,97.3073,99.429,0.00772899,0.0888645,20.9351,55.7291,-0.196299,0.0,0.0
1915,478.5,52.3337,53.6582,137.859,97.3077,99.2908,0.00770551,0.0889464,20.9351,55.7591,-0.183601,0.0,0.0
1920,479.75,52.5971,53.851,136.949,97.3101,100.32,0.00764283,0.0887978,20.9351,55.7191,-0.277197,0.0,0.0
1925,481,52.0761,53.604,136.001,97.2969,100.029,0.00753017,0.0885469,20.9351,55.629,-0.252003,0.0,0.0
1930,482.25,52.6561,53.3288,131.462,97.3029,99.3939,0.00746136,0.0883677,20.9351,55.6991,-0.193495,0.0,0.0
1935,483.5,52.5601,53.9232,134.695,97.3141,100.17,0.00741091,0.0882155,20.9359,55.7391,-0.263251,0.0,0.0
1940,484.75,52.6289,53.3285,137.031,97.2989,99.9609,0.00738543,0.0880808,20.9369,55.649,-0.245628,0.0,0.0
1945,486,52.2745,54.1458,138.656,97.2901,99.9933,0.00735751,0.0879755,20.9375,55.649,-0.249401,0.0,0.0
1950,487.25,52.5984,53.6028,137.39,97.3125,99.8681,0.00733352,0.0879673,20.9379,55.7191,-0.23591,0.0,0.0
1955,488.5,52.0928,53.5013,135.769,97.32,99.5786,0.00728166,0.0880619,20.9381,55.7091,-0.208777,0.0,0.0
1960,489.75,51.9049,53.8066,135.154,97.3065,99.2278,0.00722206,0.0881207,20.9373,55.609,-0.177933,0.0,0.0
1965,491,52.1511,53.6431,135.503,97.3196,98.3438,0.00719085,0.0880157,20.9372,55.629,-0.0952697,0.0,0.0
1970,492.25,52.4522,53.4822,134.305,97.3312,99.4925,0.00720627,0.0877975,20.9377,55.679,-0.199868,0.0,0.0
1975,493.5,52.3246,53.7118,135.416,97.3344,98.9265,0.00719779,0.0876504,20.938,55.689,-0.14765,0.0,0.0
1980,494.75,52.4389,53.5705,138.337,97.3228,99.2845,0.00711817,0.0875764,20.9382,55.5789,-0.181604,0.0,0.0
1985,496,52.1437,53.6059,137.192,97.3364,99.5889,0.00701773,0.0875482,20.9383,55.589,-0.208193,0.0,0.0
1990,497.25,52.4521,53.7884,136.085,97.34,99.3106,0.00695272,0.0874582,20.9383,55.659,-0.182393,0.0,0.0
1995,498.5,51.958,53.2037,134.311,97.3368,99.1895,0.00696228,0.0874163,20.9384,55.619,-0.171585,0.0,0.0
2000,499.75,52.2522,53.7426,137.817,97.3352,99.7591,0.00703154,0.087552,20.9384,55.5589,-0.223847,0.0,0.0
2005,501,52.1687,53.4381,135.775,97.3444,99.7037,0.0071171,0.0875889,20.9384,55.609,-0.217933,0.0,0.0
2010,502.25,51.7458,53.0919,136.792,97.3751,98.7887,0.00715433,0.087474,20.9384,55.619,-0.131158,0.0,0.0
2015,503.5,52.1423,53.494,136.76,97.3356,99.5466,0.00709251,0.0872629,20.9384,55.5789,-0.204399,0.0,0.0
2020,504.75,51.8692,53.5216,134.724,97.3456,99.3714,0.0069557,0.0870426,20.9384,55.5289,-0.187439,0.0,0.0
2025,506,52.3106,53.5455,138.837,97.3664,99.5322,0.00678555,0.0867859,20.9384,55.5789,-0.200208,0.0,0.0
2030,507.25,52.32,53.4517,134.465,97.3703,100.332,0.00665657,0.0867539,20.9382,55.599,-0.272664,0.0,0.0
2035,508.5,52.0089,53.3921,138.814,97.3596,99.2809,0.00654747,0.0868921,20.9376,55.5389,-0.17784,0.0,0.0
2040,509.75,52.7319,53.3074,139.075,97.3775,99.538,0.00650248,0.0869792,20.9373,55.5189,-0.199699,0.0,0.0
2045,511,51.8391,53.5572,132.605,97.3807,99.3133,0.00652301,0.0869562,20.937,55.5689,-0.178833,0.0,0.0
2050,512.25,52.1863,53.381,139.384,97.3863,99.42,0.00662464,0.0868183,20.9376,55.5389,-0.188086,0.0,0.0
2055,513.5,52.0906,53.4931,136.82,97.3727,98.895,0.00677864,0.0866269,20.9382,55.4388,-0.141166,0.0,0.0
2060,514.75,52.2405,53.5472,136.118,97.3743,100.059,0.0068992,0.086505,20.9385,55.4889,-0.247546,0.0,0.0
2065,516,51.5906,53.6453,136.29,97.3731,99.0702,0.00694799,0.0865585,20.9388,55.5189,-0.157233,0.0,0.0
2070,517.25,52.2852,53.804,136.784,97.3715,100.372,0.00694258,0.0866411,20.9389,55.4789,-0.276227,0.0,0.0
2075,518.5,52.1565,53.4618,135.264,97.366,99.0922,0.00692492,0.0863721,20.939,55.3888,-0.159931,0.0,0.0
2080,519.75,51.9272,53.4809,135.068,97.3688,99.4146,0.00690443,0.0861413,20.939,55.4488,-0.189233,0.0,0.0
2085,521,51.8666,53.3964,132.967,97.3747,99.2854,0.00688208,0.0861605,20.939,55.4889,-0.176834,0.0,0.0
2090,522.25,51.8945,53.3854,133.823,97.3708,99.3998,0.00683363,0.086174,20.9391,55.4388,-0.187685,0.0,0.0
2095,523.5,52.1063,53.6118,135.999,97.3723,99.3457,0.00675372,0.0861242,20.9391,55.4688,-0.182587,0.0,0.0
2100,524.75,51.6966,53.2865,138.698,97.3871,99.0814,0.00665524,0.0860326,20.9391,55.4789,-0.156961,0.0,0.0
2105,526,51.4144,53.3186,140.819,97.3843,100.396,0.0065789,0.0859163,20.9391,55.4789,-0.277155,0.0,0.0
2110,527.25,51.8518,53.3712,136.932,97.3676,99.5997,0.00653103,0.0857744,20.9391,55.3888,-0.20627,0.0,0.0
2115,528.5,51.4778,53.4043,133.493,97.3648,100.033,0.0064924,0.0855608,20.9391,55.3788,-0.246066,0.0,0.0
2120,529.75,51.8532,53.658,137.199,97.3684,99.3129,0.00644216,0.085368,20.9391,55.3788,-0.179949,0.0,0.0
2125,531,51.4158,52.8117,132.862,97.3723,99.1521,0.00634687,0.085211,20.9389,55.3888,-0.164833,0.0,0.0
2130,532.25,51.7698,53.1413,138.079,97.3771,99.633,0.00624538,0.0850682,20.9395,55.3387,-0.208418,0.0,0.0
2135,533.5,51.9342,53.821,136.95,97.366,99.7623,0.00618171,0.0850772,20.94,55.3688,-0.22126,0.0,0.0
2140,534.75,52.2363,53.2516,134.973,97.3544,99.4209,0.00615817,0.0852379,20.9403,55.3588,-0.191153,0.0,0.0
2145,536,51.9899,53.1654,137.089,97.3392,99.5497,0.00615511,0.0852637,20.9405,55.2987,-0.204352,0.0,0.0
2150,537.25,51.8293,53.3293,138.039,97.3236,100.091,,0.0851616,,55.2987,-0.255152,0.0,0.0
2155,538.5,51.0396,53.3136,137.639,97.336,99.2615,,0.0851218,,55.3688,-0.178266,0.0,0.0
2160,539.75,51.8389,53.1939,138.979,97.3296,99.3602,,0.0851377,,55.3588,-0.1879,0.0,0.0
2165,541,51.9863,52.924,138.94,97.3089,99.7456,,,,55.3387,-0.225078,0.0,0.0
2170,542.25,51.8317,52.8967,138.653,97.3033,99.6574,,,,55.2787,-0.217544,0.0,0.0
2175,543.5,51.8379,53.6859,136.105,97.3005,99.4164,,,,55.3387,-0.19578,0.0,0.0
2180,544.75,51.8839,53.4824,134.491,97.3125,98.7279,,,,55.3287,-0.131416,0.0,0.0
2185,546,51.7404,52.8952,135.732,97.2817,99.5421,,,,55.2487,-0.209028,0.0,0.0
2190,547.25,52.0979,53.3061,131.654,97.2765,98.9234,,,,55.2587,-0.152773,0.0,0.0
2192,547.75,51.7606,53.7493,137.834,97.2765,99.0508,,,,55.3688,-0.164489,0.0,0.0