File: 01_Data/Cotton_Rug/MCC/Cotton_Rug_MCC_30K_min_211115_R2.txt
Sample ID:	C:\MCC\MCC Cal\Test\Cotton_Rug_MCC_30K_min_211115_R2.txt
Sample Weight (mg):	4.82
Heating Rate (C/s):	0.5
Combustor Temp (C):	900
N2 Flow Rate (cc/min):	80
O2 Flow Rate (cc/min):	20
Calibration File:	C:\MCC\MCC Cal\Coeff1 JN10440_30_210304.txt.txt
T Correction Coefficients:	0	1.024463	0
Time Shift (s):	14
*
Time (s)	Temperature (C)	N2 flow rate (cc/min)	O2 flow rate (cc/min)	Flow Rate (cc/min)	Oxygen (%)	HRR (W/g)	Heating rate (C/s)
0.000	107.291	80.004	19.996	103.068	20.168	0.323	0.005
2.000	107.278	80.004	19.997	103.075	20.172	0.015	0.005
4.000	107.267	80.004	19.993	103.075	20.173	-0.022	-0.014
6.000	107.268	80.005	19.995	103.068	20.171	0.064	-0.011
8.000	107.303	80.005	19.994	103.041	20.174	-0.106	0.005
10.000	107.268	80.004	19.997	103.033	20.173	-0.040	0.004
12.000	107.312	80.005	19.995	103.081	20.169	0.236	-0.003
14.000	107.280	80.002	19.993	103.074	20.172	0.038	-0.005
16.000	107.285	80.004	19.994	103.033	20.170	0.159	0.003
18.000	107.277	80.004	19.994	103.072	20.168	0.316	-0.002
20.000	107.327	80.005	19.994	103.093	20.164	0.576	0.039
22.000	107.334	80.004	19.994	103.119	20.165	0.486	0.002
24.000	107.404	80.003	19.995	103.136	20.161	0.786	0.034
26.000	107.407	80.004	19.994	103.153	20.159	0.903	0.026
28.000	107.488	80.004	19.994	103.151	20.156	1.105	0.041
30.000	107.614	80.005	19.994	103.172	20.159	0.924	0.080
32.000	107.733	80.007	19.994	103.193	20.154	1.205	0.058
34.001	107.801	80.004	19.993	103.212	20.153	1.293	0.074
36.001	108.025	80.007	19.996	103.188	20.148	1.652	0.141
38.000	108.133	80.006	19.992	103.213	20.148	1.630	0.086
40.000	108.302	80.005	19.995	103.233	20.146	1.760	0.095
42.000	108.570	80.004	19.994	103.237	20.144	1.886	0.124
44.000	108.811	80.002	19.993	103.217	20.142	2.011	0.123
46.000	109.059	80.003	19.996	103.222	20.143	1.966	0.142
48.000	109.325	80.001	19.995	103.247	20.141	2.074	0.132
50.000	109.593	80.002	19.994	103.256	20.142	2.029	0.130
52.001	109.957	80.003	19.994	103.255	20.138	2.295	0.158
54.000	110.309	80.004	19.996	103.256	20.137	2.340	0.171
56.001	110.670	80.004	19.994	103.278	20.138	2.320	0.202
58.000	111.073	80.004	19.996	103.283	20.133	2.633	0.200
60.000	111.526	80.003	19.994	103.277	20.134	2.538	0.233
62.000	111.928	80.003	19.996	103.267	20.132	2.700	0.208
64.001	112.412	80.003	19.994	103.274	20.131	2.734	0.241
66.001	112.874	80.005	19.994	103.267	20.131	2.763	0.209
68.000	113.388	80.003	19.996	103.267	20.131	2.735	0.238
70.001	113.946	80.001	19.994	103.288	20.134	2.577	0.313
72.000	114.454	80.003	19.995	103.289	20.133	2.659	0.255
74.000	114.952	80.003	19.996	103.284	20.130	2.846	0.284
76.000	115.514	80.002	19.994	103.282	20.128	2.985	0.274
78.000	116.107	80.003	19.995	103.307	20.127	3.024	0.287
80.000	116.684	80.003	19.994	103.299	20.131	2.778	0.309
82.001	117.326	80.003	19.994	103.285	20.131	2.784	0.350
84.001	117.976	80.004	19.995	103.271	20.131	2.756	0.369
86.000	118.571	80.005	19.994	103.283	20.130	2.854	0.331
88.000	119.187	80.004	19.994	103.294	20.128	2.998	0.318
90.000	119.843	80.005	19.994	103.292	20.131	2.741	0.290
92.000	120.548	80.004	19.994	103.291	20.131	2.790	0.338
94.000	121.252	80.005	19.992	103.294	20.130	2.851	0.363
96.000	121.955	80.004	19.996	103.297	20.129	2.875	0.377
98.000	122.663	80.006	19.994	103.295	20.127	3.010	0.365
100.000	123.351	80.004	19.994	103.307	20.129	2.904	0.328
102.000	124.130	80.004	19.994	103.315	20.126	3.111	0.384
104.000	124.833	80.004	19.994	103.285	20.126	3.068	0.355
106.000	125.582	80.003	19.993	103.283	20.128	2.955	0.371
108.000	126.331	80.006	19.992	103.303	20.126	3.084	0.379
110.001	127.073	80.005	19.993	103.332	20.128	2.949	0.385
112.000	127.822	80.005	19.992	103.328	20.128	2.967	0.373
114.001	128.600	80.004	19.993	103.311	20.129	2.914	0.372
116.001	129.432	80.007	19.993	103.308	20.127	3.057	0.405
118.001	130.218	80.006	19.992	103.314	20.128	2.988	0.399
120.001	131.057	80.005	19.993	103.301	20.130	2.840	0.440
122.000	131.875	80.006	19.994	103.316	20.130	2.834	0.406
124.000	132.700	80.004	19.994	103.300	20.125	3.135	0.409
126.000	133.541	80.003	19.995	103.314	20.130	2.863	0.425
128.000	134.355	80.002	19.994	103.326	20.127	3.018	0.436
130.000	135.210	80.003	19.995	103.331	20.128	2.982	0.421
132.000	136.060	80.004	19.996	103.326	20.126	3.102	0.412
134.000	136.919	80.003	19.995	103.309	20.126	3.068	0.431
136.000	137.835	80.005	19.995	103.292	20.127	3.034	0.448
138.000	138.703	80.004	19.995	103.295	20.123	3.312	0.425
140.000	139.583	80.005	19.994	103.294	20.126	3.112	0.437
142.000	140.503	80.005	19.994	103.325	20.126	3.101	0.476
144.000	141.411	80.004	19.995	103.327	20.126	3.101	0.453
146.000	142.305	80.004	19.994	103.305	20.125	3.198	0.439
148.001	143.236	80.004	19.994	103.295	20.127	3.023	0.496
150.000	144.137	80.004	19.994	103.317	20.128	3.001	0.434
152.000	145.078	80.004	19.995	103.298	20.127	3.034	0.462
154.000	146.000	80.004	19.994	103.294	20.127	3.038	0.464
156.000	146.930	80.002	19.996	103.314	20.128	2.973	0.452
158.000	147.892	80.001	19.996	103.319	20.129	2.929	0.477
160.000	148.851	80.002	19.996	103.335	20.127	3.022	0.477
162.000	149.816	80.003	19.995	103.334	20.131	2.765	0.477
164.000	150.838	80.003	19.994	103.336	20.129	2.910	0.487
166.000	151.763	80.003	19.995	103.333	20.129	2.885	0.494
168.000	152.745	80.005	19.996	103.326	20.129	2.888	0.493
170.000	153.690	80.003	19.994	103.314	20.127	3.026	0.457
172.000	154.626	80.004	19.994	103.298	20.130	2.847	0.456
174.000	155.622	80.005	19.993	103.288	20.124	3.225	0.490
176.000	156.604	80.005	19.993	103.294	20.126	3.084	0.480
178.000	157.559	80.005	19.993	103.299	20.123	3.280	0.518
180.000	158.549	80.005	19.994	103.315	20.129	2.897	0.500
182.000	159.535	80.004	19.994	103.329	20.130	2.855	0.483
184.000	160.506	80.005	19.993	103.302	20.131	2.778	0.502
186.000	161.516	80.004	19.995	103.293	20.128	2.984	0.482
188.000	162.526	80.006	19.994	103.293	20.130	2.837	0.505
190.000	163.491	80.006	19.995	103.291	20.133	2.654	0.502
192.000	164.518	80.005	19.995	103.290	20.130	2.848	0.495
194.000	165.533	80.005	19.994	103.290	20.130	2.805	0.527
196.000	166.534	80.007	19.994	103.294	20.133	2.624	0.490
198.000	167.539	80.007	19.994	103.302	20.134	2.591	0.477
200.000	168.479	80.006	19.994	103.292	20.132	2.683	0.481
202.000	169.511	80.004	19.993	103.290	20.131	2.772	0.514
204.000	170.479	80.006	19.993	103.275	20.130	2.827	0.498
206.000	171.444	80.005	19.994	103.280	20.134	2.597	0.461
208.000	172.437	80.003	19.995	103.287	20.135	2.473	0.496
210.000	173.463	80.005	19.994	103.288	20.134	2.569	0.522
212.000	174.451	80.005	19.993	103.270	20.134	2.588	0.489
214.000	175.435	80.005	19.994	103.273	20.133	2.614	0.487
216.000	176.418	80.006	19.994	103.287	20.134	2.555	0.519
218.000	177.362	80.004	19.995	103.292	20.135	2.507	0.478
220.000	178.364	80.005	19.994	103.280	20.131	2.745	0.512
222.000	179.380	80.004	19.995	103.269	20.133	2.648	0.521
224.000	180.333	80.005	19.994	103.294	20.132	2.670	0.497
226.000	181.319	80.003	19.994	103.293	20.131	2.762	0.511
228.000	182.292	80.004	19.995	103.275	20.134	2.584	0.480
230.000	183.262	80.004	19.996	103.281	20.132	2.678	0.479
232.000	184.195	80.004	19.994	103.293	20.135	2.515	0.450
234.000	185.189	80.002	19.997	103.294	20.134	2.579	0.478
236.000	186.228	80.005	19.996	103.292	20.131	2.749	0.553
238.000	187.236	80.003	19.993	103.293	20.136	2.458	0.478
240.000	188.230	80.002	19.995	103.291	20.132	2.670	0.508
242.000	189.241	80.005	19.994	103.296	20.134	2.595	0.514
244.000	190.251	80.002	19.993	103.296	20.133	2.601	0.499
246.000	191.244	80.005	19.995	103.288	20.132	2.681	0.483
248.000	192.203	80.003	19.995	103.276	20.130	2.810	0.494
250.000	193.254	80.005	19.995	103.274	20.131	2.754	0.500
252.000	194.271	80.006	19.995	103.276	20.135	2.505	0.508
254.000	195.258	80.005	19.996	103.280	20.133	2.617	0.500
256.000	196.240	80.007	19.995	103.284	20.135	2.527	0.524
258.000	197.264	80.006	19.996	103.259	20.134	2.591	0.529
260.000	198.252	80.006	19.993	103.255	20.131	2.747	0.499
262.000	199.223	80.007	19.994	103.267	20.132	2.719	0.500
264.000	200.273	80.005	19.994	103.265	20.133	2.642	0.542
266.000	201.280	80.002	19.994	103.269	20.132	2.713	0.497
268.000	202.340	80.003	19.993	103.264	20.133	2.611	0.537
270.000	203.300	80.006	19.996	103.257	20.134	2.582	0.496
272.000	204.271	80.006	19.995	103.269	20.136	2.452	0.490
274.000	205.264	80.006	19.994	103.259	20.134	2.567	0.481
276.000	206.281	80.008	19.994	103.257	20.131	2.749	0.481
278.000	207.327	80.009	19.993	103.254	20.130	2.851	0.510
280.000	208.297	80.008	19.992	103.261	20.131	2.783	0.485
282.000	209.276	80.006	19.994	103.266	20.132	2.680	0.499
284.000	210.319	80.005	19.994	103.262	20.129	2.931	0.506
286.000	211.318	80.005	19.994	103.285	20.129	2.920	0.530
288.000	212.308	80.006	19.994	103.285	20.131	2.750	0.496
290.000	213.264	80.005	19.994	103.262	20.134	2.593	0.470
292.000	214.262	80.004	19.994	103.257	20.134	2.591	0.486
294.001	215.254	80.004	19.994	103.256	20.132	2.669	0.499
296.000	216.238	80.003	19.994	103.256	20.132	2.673	0.533
298.000	217.234	80.005	19.995	103.259	20.133	2.641	0.489
300.000	218.195	80.003	19.994	103.255	20.132	2.704	0.486
302.000	219.201	80.004	19.993	103.255	20.129	2.871	0.517
304.000	220.193	80.005	19.994	103.254	20.130	2.858	0.507
306.000	221.188	80.005	19.994	103.249	20.132	2.722	0.493
308.001	222.175	80.004	19.994	103.284	20.131	2.781	0.516
310.000	223.141	80.005	19.994	103.275	20.132	2.720	0.492
312.001	224.144	80.004	19.993	103.245	20.133	2.651	0.479
314.000	225.124	80.005	19.995	103.266	20.132	2.671	0.520
316.000	226.081	80.006	19.997	103.259	20.133	2.629	0.490
318.000	227.062	80.003	19.996	103.260	20.132	2.706	0.484
320.000	228.068	80.005	19.995	103.259	20.131	2.744	0.487
322.000	229.098	80.003	19.995	103.244	20.129	2.918	0.517
324.000	230.046	80.002	19.994	103.256	20.128	2.977	0.473
326.000	231.044	80.003	19.995	103.242	20.125	3.141	0.471
328.000	232.023	80.004	19.993	103.243	20.128	2.960	0.479
330.000	232.944	80.004	19.995	103.251	20.127	3.015	0.482
332.000	233.986	80.005	19.995	103.250	20.124	3.215	0.496
334.000	234.941	80.004	19.995	103.251	20.123	3.306	0.488
336.000	235.872	80.005	19.995	103.252	20.124	3.240	0.480
338.000	236.808	80.005	19.994	103.256	20.125	3.184	0.445
340.000	237.840	80.006	19.997	103.249	20.120	3.492	0.509
342.000	238.845	80.004	19.994	103.258	20.123	3.287	0.496
344.001	239.820	80.004	19.996	103.254	20.122	3.379	0.491
346.000	240.770	80.003	19.995	103.252	20.122	3.385	0.527
348.000	241.722	80.006	19.995	103.268	20.117	3.692	0.481
350.000	242.730	80.005	19.993	103.280	20.117	3.677	0.529
352.000	243.730	80.004	19.994	103.280	20.118	3.613	0.483
354.000	244.707	80.004	19.994	103.268	20.119	3.568	0.507
356.000	245.731	80.006	19.993	103.257	20.117	3.708	0.503
358.000	246.772	80.007	19.993	103.261	20.113	3.937	0.509
360.000	247.800	80.006	19.994	103.253	20.114	3.923	0.525
362.000	248.817	80.005	19.993	103.249	20.113	3.938	0.509
364.000	249.868	80.007	19.993	103.254	20.112	4.056	0.527
366.000	250.891	80.005	19.995	103.250	20.111	4.133	0.510
368.000	251.950	80.005	19.994	103.250	20.108	4.283	0.562
370.000	252.891	80.005	19.993	103.253	20.104	4.583	0.453
372.000	253.918	80.003	19.994	103.258	20.106	4.457	0.507
374.000	254.906	80.005	19.995	103.262	20.104	4.582	0.499
376.000	255.919	80.003	19.995	103.251	20.103	4.670	0.503
378.000	256.960	80.004	19.995	103.250	20.099	4.902	0.498
380.000	257.975	80.004	19.995	103.254	20.098	4.993	0.492
382.000	258.972	80.004	19.994	103.258	20.096	5.090	0.518
384.000	259.953	80.005	19.995	103.260	20.094	5.253	0.478
386.000	260.964	80.006	19.994	103.275	20.095	5.169	0.504
388.000	261.982	80.004	19.994	103.279	20.094	5.207	0.465
390.000	262.960	80.006	19.995	103.265	20.095	5.148	0.496
392.000	263.976	80.003	19.993	103.259	20.091	5.434	0.486
394.000	265.001	80.004	19.992	103.266	20.093	5.308	0.498
396.000	266.020	80.004	19.993	103.254	20.095	5.173	0.521
398.000	266.967	80.005	19.995	103.255	20.090	5.517	0.490
400.000	268.015	80.004	19.995	103.252	20.088	5.655	0.510
402.000	268.997	80.003	19.995	103.250	20.090	5.531	0.491
404.000	270.019	80.005	19.995	103.255	20.083	5.981	0.507
406.000	271.054	80.002	19.994	103.263	20.081	6.105	0.517
408.000	272.052	80.005	19.995	103.266	20.077	6.350	0.495
410.001	273.114	80.002	19.995	103.259	20.074	6.607	0.541
412.000	274.057	80.004	19.994	103.261	20.071	6.781	0.463
414.000	275.067	80.005	19.994	103.258	20.069	6.915	0.498
416.000	276.075	80.005	19.995	103.255	20.067	7.017	0.456
418.000	277.058	80.006	19.994	103.251	20.061	7.428	0.498
420.000	277.989	80.006	19.994	103.253	20.057	7.692	0.443
422.000	278.978	80.005	19.995	103.255	20.055	7.862	0.491
424.000	279.956	80.006	19.995	103.267	20.052	8.062	0.465
426.000	280.923	80.003	19.994	103.263	20.052	8.048	0.473
428.000	281.926	80.004	19.992	103.257	20.048	8.292	0.495
430.000	282.881	80.002	19.995	103.261	20.042	8.736	0.469
432.000	283.925	80.002	19.994	103.259	20.037	9.061	0.534
434.000	284.818	80.005	19.996	103.264	20.036	9.145	0.483
436.000	285.826	80.005	19.995	103.266	20.032	9.377	0.506
438.000	286.817	80.008	19.994	103.279	20.030	9.513	0.513
440.000	287.791	80.007	19.994	103.292	20.027	9.742	0.496
442.000	288.773	80.003	19.995	103.289	20.023	10.011	0.465
444.000	289.730	80.007	19.994	103.285	20.016	10.436	0.474
446.000	290.735	80.003	19.993	103.279	20.014	10.568	0.478
448.000	291.732	80.005	19.993	103.288	20.011	10.819	0.501
450.000	292.751	80.002	19.993	103.289	20.003	11.307	0.492
452.000	293.721	80.003	19.995	103.287	19.997	11.752	0.485
454.000	294.728	80.004	19.994	103.290	19.995	11.880	0.485
456.000	295.717	80.004	19.994	103.291	19.989	12.259	0.491
458.000	296.690	80.004	19.994	103.296	19.987	12.413	0.500
460.000	297.691	80.006	19.994	103.293	19.975	13.222	0.502
462.000	298.659	80.005	19.994	103.292	19.970	13.559	0.493
464.000	299.641	80.004	19.994	103.291	19.966	13.803	0.469
466.000	300.626	80.003	19.994	103.292	19.959	14.257	0.508
468.000	301.582	80.004	19.994	103.293	19.953	14.653	0.476
470.000	302.613	80.005	19.994	103.302	19.947	15.100	0.486
472.000	303.581	80.006	19.995	103.306	19.938	15.686	0.500
474.000	304.515	80.004	19.994	103.299	19.930	16.207	0.457
476.000	305.510	80.004	19.993	103.303	19.926	16.507	0.506
478.000	306.480	80.004	19.993	103.300	19.920	16.855	0.468
480.000	307.515	80.005	19.994	103.317	19.910	17.572	0.534
482.000	308.495	80.003	19.994	103.322	19.902	18.068	0.508
484.000	309.528	80.004	19.994	103.337	19.892	18.770	0.508
486.000	310.501	80.004	19.993	103.341	19.884	19.318	0.485
488.000	311.510	80.002	19.994	103.338	19.872	20.083	0.511
490.000	312.587	80.004	19.993	103.337	19.863	20.695	0.557
492.000	313.583	80.003	19.994	103.333	19.849	21.606	0.518
494.000	314.607	80.005	19.994	103.352	19.838	22.344	0.487
496.000	315.651	80.003	19.995	103.367	19.826	23.153	0.509
498.000	316.668	80.005	19.995	103.367	19.813	24.062	0.515
500.000	317.771	80.007	19.994	103.375	19.797	25.135	0.532
502.000	318.737	80.004	19.994	103.373	19.785	25.916	0.461
504.000	319.836	80.006	19.997	103.375	19.763	27.378	0.538
506.000	320.878	80.004	19.995	103.391	19.749	28.374	0.531
508.000	321.899	80.005	19.996	103.400	19.732	29.519	0.508
510.000	322.940	80.005	19.996	103.404	19.715	30.644	0.503
512.000	323.972	80.005	19.996	103.410	19.700	31.660	0.508
514.000	325.042	80.005	19.995	103.408	19.676	33.220	0.514
516.000	326.093	80.005	19.993	103.423	19.656	34.575	0.542
518.000	327.108	80.004	19.994	103.448	19.633	36.149	0.507
520.000	328.143	80.005	19.994	103.448	19.606	37.942	0.498
522.000	329.213	80.005	19.995	103.448	19.580	39.685	0.540
524.000	330.266	80.006	19.995	103.470	19.554	41.464	0.574
526.000	331.292	80.005	19.994	103.483	19.524	43.441	0.529
528.000	332.324	80.005	19.995	103.484	19.490	45.778	0.506
530.000	333.337	80.005	19.996	103.485	19.458	47.912	0.510
532.000	334.377	80.004	19.996	103.505	19.426	50.058	0.496
534.000	335.413	80.003	19.995	103.531	19.387	52.695	0.534
536.000	336.394	80.005	19.995	103.545	19.345	55.494	0.489
538.000	337.435	80.003	19.995	103.556	19.301	58.477	0.520
540.000	338.451	80.003	19.995	103.583	19.257	61.443	0.500
542.000	339.466	80.002	19.994	103.597	19.209	64.655	0.529
544.000	340.458	80.003	19.994	103.614	19.162	67.802	0.534
546.000	341.487	80.003	19.994	103.622	19.109	71.418	0.513
548.000	342.444	80.002	19.994	103.641	19.048	75.498	0.450
550.000	343.405	80.003	19.995	103.648	18.991	79.374	0.492
552.000	344.409	80.003	19.994	103.674	18.933	83.229	0.473
554.000	345.407	80.004	19.995	103.696	18.877	86.992	0.519
556.000	346.358	80.003	19.994	103.732	18.820	90.796	0.460
558.000	347.336	80.003	19.994	103.733	18.760	94.830	0.464
560.000	348.335	80.002	19.994	103.751	18.705	98.484	0.473
562.000	349.320	80.002	19.995	103.751	18.655	101.814	0.531
564.000	350.289	80.003	19.994	103.747	18.607	105.060	0.494
566.000	351.221	80.002	19.994	103.745	18.570	107.482	0.464
568.000	352.147	80.004	19.994	103.744	18.543	109.314	0.504
570.000	353.202	80.003	19.994	103.738	18.528	110.285	0.482
572.000	354.185	80.001	19.993	103.700	18.504	111.858	0.517
574.000	355.189	80.005	19.994	103.682	18.521	110.667	0.463
576.000	356.111	80.004	19.993	103.654	18.531	109.964	0.456
578.000	357.103	80.004	19.994	103.642	18.549	108.746	0.478
580.000	358.178	80.004	19.994	103.613	18.584	106.372	0.488
582.000	359.078	80.007	19.993	103.590	18.633	103.105	0.496
584.000	360.289	80.006	19.992	103.557	18.682	99.786	0.491
586.000	360.763	80.003	19.994	103.526	18.749	95.311	0.416
588.000	362.080	80.004	19.994	103.510	18.818	90.615	0.618
590.000	363.020	80.005	19.994	103.487	18.889	85.881	0.391
592.000	363.977	80.004	19.994	103.478	18.969	80.483	0.488
594.000	364.932	80.004	19.994	103.457	19.049	75.131	0.451
596.000	366.005	80.004	19.994	103.427	19.127	69.898	0.469
598.000	366.918	80.007	19.994	103.405	19.204	64.769	0.480
600.000	367.924	80.007	19.994	103.364	19.280	59.689	0.473
602.000	368.936	80.007	19.995	103.359	19.351	54.939	0.484
604.000	369.915	80.008	19.994	103.338	19.413	50.796	0.481
606.000	370.975	80.005	19.994	103.334	19.474	46.718	0.556
608.000	371.952	80.006	19.994	103.328	19.530	42.979	0.498
610.000	372.978	80.006	19.995	103.330	19.576	39.871	0.487
612.000	374.033	80.001	19.993	103.319	19.614	37.362	0.522
614.000	375.069	80.004	19.996	103.296	19.651	34.892	0.528
616.000	376.080	80.003	19.995	103.325	19.681	32.853	0.527
618.000	377.124	80.004	19.994	103.327	19.709	30.995	0.531
620.000	378.155	80.004	19.995	103.304	19.727	29.789	0.506
622.000	379.223	80.002	19.994	103.302	19.745	28.591	0.520
624.000	380.268	80.002	19.995	103.306	19.758	27.701	0.526
626.000	381.242	80.000	19.995	103.294	19.768	27.023	0.516
628.000	382.294	80.002	19.995	103.293	19.775	26.581	0.507
630.000	383.309	80.002	19.995	103.296	19.782	26.081	0.484
632.000	384.315	80.003	19.995	103.293	19.786	25.868	0.503
634.000	385.362	80.005	19.994	103.293	19.788	25.674	0.505
636.000	386.362	80.002	19.994	103.312	19.790	25.560	0.494
638.000	387.378	80.004	19.994	103.295	19.786	25.869	0.496
640.000	388.413	80.003	19.993	103.300	19.788	25.720	0.524
642.000	389.416	80.006	19.993	103.303	19.785	25.892	0.487
644.000	390.431	80.001	19.994	103.315	19.785	25.909	0.514
646.000	391.407	80.002	19.994	103.303	19.785	25.880	0.507
648.000	392.437	80.003	19.995	103.324	19.781	26.181	0.499
650.000	393.451	80.003	19.994	103.318	19.778	26.385	0.486
652.000	394.467	80.003	19.994	103.322	19.773	26.720	0.506
654.000	395.473	80.005	19.994	103.329	19.767	27.143	0.496
656.000	396.456	80.006	19.995	103.304	19.763	27.371	0.496
658.000	397.443	80.006	19.995	103.303	19.752	28.093	0.499
660.000	398.461	80.006	19.994	103.304	19.748	28.363	0.494
662.000	399.448	80.003	19.994	103.325	19.742	28.820	0.451
664.000	400.450	80.005	19.994	103.329	19.735	29.253	0.500
666.000	401.476	80.005	19.994	103.330	19.727	29.803	0.503
668.000	402.435	80.006	19.994	103.332	19.715	30.579	0.531
670.000	403.430	80.006	19.994	103.333	19.712	30.804	0.504
672.000	404.427	80.005	19.994	103.338	19.703	31.386	0.501
674.000	405.434	80.004	19.994	103.352	19.693	32.067	0.510
676.000	406.372	80.005	19.993	103.354	19.686	32.550	0.448
678.000	407.386	80.004	19.994	103.355	19.674	33.341	0.497
680.000	408.386	80.006	19.994	103.349	19.667	33.835	0.513
682.000	409.421	80.007	19.994	103.357	19.659	34.385	0.523
684.000	410.446	80.005	19.994	103.349	19.650	34.933	0.516
686.000	411.421	80.006	19.994	103.366	19.637	35.794	0.482
688.000	412.432	80.007	19.995	103.365	19.629	36.360	0.481
690.000	413.507	80.005	19.995	103.369	19.623	36.781	0.549
692.000	414.439	80.005	19.994	103.395	19.615	37.302	0.464
694.000	415.440	80.004	19.995	103.393	19.610	37.618	0.509
696.000	416.451	80.004	19.994	103.374	19.604	38.053	0.517
698.000	417.482	80.004	19.995	103.370	19.600	38.295	0.502
700.000	418.479	80.004	19.996	103.370	19.594	38.732	0.485
702.000	419.511	80.003	19.995	103.369	19.590	38.986	0.503
704.000	420.504	80.004	19.993	103.367	19.593	38.786	0.504
706.000	421.529	80.002	19.995	103.386	19.594	38.710	0.492
708.000	422.535	80.004	19.994	103.399	19.596	38.564	0.512
710.000	423.554	80.002	19.995	103.383	19.601	38.246	0.516
712.000	424.580	80.003	19.995	103.385	19.603	38.094	0.514
714.000	425.593	80.003	19.996	103.372	19.608	37.768	0.535
716.000	426.574	80.003	19.996	103.362	19.617	37.168	0.483
718.000	427.613	80.003	19.998	103.353	19.620	36.941	0.534
720.000	428.587	80.003	19.996	103.366	19.635	35.921	0.479
722.000	429.611	80.005	19.996	103.369	19.648	35.051	0.504
724.002	430.642	80.004	19.995	103.348	19.661	34.214	0.518
726.000	431.694	80.003	19.996	103.335	19.674	33.315	0.535
728.000	432.715	80.003	19.995	103.321	19.688	32.409	0.525
730.000	433.717	80.003	19.994	103.329	19.709	30.958	0.504
732.000	434.788	80.003	19.995	103.330	19.728	29.709	0.535
734.000	435.878	80.003	19.995	103.333	19.748	28.382	0.548
736.000	436.947	80.004	19.995	103.334	19.768	27.046	0.552
738.000	437.991	80.005	19.995	103.336	19.784	25.974	0.537
740.000	439.026	80.004	19.994	103.329	19.802	24.757	0.508
742.000	440.070	80.005	19.995	103.310	19.822	23.412	0.487
744.000	441.129	80.005	19.995	103.301	19.837	22.436	0.528
746.000	442.161	80.004	19.994	103.285	19.851	21.510	0.515
748.000	443.217	80.004	19.994	103.266	19.868	20.376	0.529
750.000	444.266	80.004	19.995	103.258	19.883	19.343	0.540
752.000	445.328	80.002	19.995	103.276	19.895	18.541	0.523
754.001	446.400	80.003	19.993	103.293	19.909	17.635	0.530
756.000	447.482	80.003	19.994	103.286	19.923	16.653	0.568
758.000	448.499	80.004	19.993	103.282	19.940	15.542	0.532
760.000	449.573	80.005	19.994	103.270	19.949	14.937	0.517
762.000	450.613	80.005	19.994	103.261	19.960	14.163	0.528
764.000	451.691	80.006	19.993	103.255	19.970	13.537	0.528
766.000	452.711	80.006	19.993	103.257	19.980	12.878	0.537
768.000	453.773	80.007	19.994	103.257	19.992	12.080	0.549
770.000	454.802	80.006	19.994	103.249	20.000	11.515	0.541
772.000	455.887	80.006	19.993	103.241	20.007	11.046	0.544
774.000	456.917	80.004	19.995	103.229	20.017	10.389	0.505
776.000	458.007	80.005	19.994	103.238	20.025	9.863	0.538
778.000	459.036	80.003	19.995	103.242	20.034	9.258	0.535
780.000	460.079	80.004	19.995	103.218	20.037	9.073	0.515
782.000	461.161	80.003	19.995	103.215	20.043	8.631	0.520
784.000	462.176	80.004	19.995	103.208	20.050	8.167	0.528
786.000	463.185	80.003	19.995	103.224	20.056	7.793	0.509
788.000	464.277	80.004	19.995	103.242	20.061	7.434	0.528
790.000	465.264	80.003	19.995	103.231	20.070	6.870	0.495
792.000	466.340	80.003	19.995	103.249	20.073	6.629	0.518
794.000	467.364	80.003	19.995	103.228	20.076	6.441	0.496
796.000	468.389	80.004	19.995	103.201	20.081	6.110	0.513
798.000	469.423	80.004	19.994	103.242	20.086	5.741	0.520
800.000	470.464	80.004	19.995	103.228	20.088	5.667	0.536
802.000	471.478	80.004	19.994	103.194	20.094	5.224	0.513
804.000	472.473	80.003	19.995	103.225	20.097	5.015	0.506
806.000	473.539	80.002	19.995	103.205	20.100	4.843	0.511
808.000	474.559	80.003	19.996	103.214	20.103	4.660	0.509
810.000	475.619	80.003	19.995	103.208	20.103	4.616	0.526
812.000	476.606	80.002	19.996	103.208	20.106	4.410	0.505
814.000	477.626	80.004	19.996	103.175	20.107	4.349	0.524
816.000	478.664	80.003	19.996	103.201	20.110	4.172	0.544
818.000	479.687	80.003	19.995	103.212	20.111	4.106	0.499
820.000	480.698	80.005	19.995	103.202	20.112	4.003	0.494
822.001	481.734	80.004	19.995	103.211	20.116	3.793	0.488
824.000	482.737	80.005	19.994	103.216	20.115	3.860	0.484
826.000	483.741	80.005	19.994	103.216	20.119	3.583	0.475
828.000	484.801	80.004	19.994	103.226	20.120	3.474	0.520
830.000	485.800	80.004	19.995	103.219	20.121	3.428	0.516
832.000	486.856	80.003	19.996	103.210	20.124	3.261	0.511
834.000	487.850	80.004	19.994	103.194	20.124	3.210	0.529
836.000	488.888	80.004	19.996	103.186	20.124	3.250	0.522
838.000	489.910	80.005	19.995	103.173	20.125	3.164	0.517
840.000	490.870	80.003	19.994	103.184	20.124	3.247	0.502
842.000	491.921	80.005	19.994	103.173	20.123	3.289	0.478
844.000	492.934	80.006	19.996	103.174	20.125	3.134	0.499
846.000	493.974	80.005	19.995	103.164	20.124	3.242	0.525
848.000	494.985	80.007	19.994	103.171	20.122	3.334	0.517
850.000	496.037	80.006	19.993	103.174	20.123	3.281	0.511
852.000	497.019	80.006	19.994	103.179	20.126	3.115	0.495
854.000	498.049	80.005	19.995	103.201	20.128	2.940	0.510
856.000	499.031	80.006	19.994	103.205	20.128	2.943	0.527
858.000	500.039	80.003	19.993	103.208	20.130	2.797	0.490
860.000	501.030	80.004	19.994	103.209	20.132	2.706	0.514
862.000	502.051	80.004	19.994	103.189	20.127	3.003	0.513
864.000	503.083	80.005	19.994	103.177	20.133	2.654	0.538
866.000	504.070	80.005	19.994	103.178	20.128	2.935	0.509
868.000	505.112	80.004	19.996	103.177	20.127	3.024	0.518
870.000	506.099	80.003	19.994	103.186	20.131	2.753	0.513
872.000	507.154	80.004	19.995	103.206	20.132	2.706	0.537
874.000	508.165	80.003	19.995	103.211	20.129	2.889	0.522
876.000	509.181	80.003	19.995	103.206	20.132	2.721	0.525
878.000	510.264	80.006	19.994	103.196	20.130	2.821	0.546
880.000	511.221	80.004	19.994	103.187	20.133	2.660	0.477
882.000	512.273	80.003	19.995	103.194	20.135	2.505	0.511
884.001	513.261	80.003	19.994	103.199	20.130	2.861	0.527
886.000	514.344	80.003	19.995	103.189	20.130	2.825	0.577
888.000	515.361	80.005	19.995	103.181	20.134	2.571	0.514
890.000	516.398	80.004	19.996	103.198	20.133	2.604	0.511
892.000	517.395	80.003	19.995	103.181	20.132	2.673	0.509
894.000	518.431	80.004	19.996	103.183	20.132	2.689	0.519
896.000	519.395	80.004	19.995	103.193	20.133	2.638	0.501
898.000	520.464	80.003	19.995	103.183	20.131	2.779	0.508
900.000	521.509	80.004	19.996	103.203	20.133	2.646	0.514
902.000	522.536	80.005	19.996	103.183	20.131	2.779	0.510
904.000	523.550	80.006	19.996	103.172	20.133	2.612	0.516
906.000	524.556	80.005	19.995	103.172	20.131	2.748	0.487
908.000	525.555	80.005	19.994	103.171	20.134	2.563	0.490
910.000	526.584	80.006	19.996	103.176	20.131	2.740	0.500
912.000	527.653	80.005	19.995	103.181	20.129	2.920	0.517
914.000	528.666	80.006	19.996	103.175	20.132	2.688	0.515
916.000	529.702	80.005	19.996	103.173	20.130	2.806	0.536
918.000	530.718	80.004	19.994	103.182	20.129	2.883	0.526
920.000	531.750	80.004	19.994	103.173	20.127	3.013	0.487
922.000	532.785	80.005	19.995	103.178	20.126	3.117	0.522
924.000	533.788	80.005	19.995	103.178	20.124	3.251	0.550
926.000	534.793	80.006	19.994	103.176	20.127	3.063	0.505
928.000	535.861	80.006	19.993	103.173	20.126	3.068	0.556
930.001	536.876	80.006	19.995	103.175	20.126	3.121	0.531
932.000	537.852	80.007	19.994	103.176	20.126	3.126	0.469
934.000	538.890	80.005	19.994	103.180	20.127	3.027	0.505
936.000	539.944	80.005	19.994	103.199	20.131	2.744	0.496
938.000	540.957	80.004	19.994	103.192	20.130	2.854	0.514
940.000	541.973	80.003	19.994	103.180	20.125	3.132	0.524
942.000	543.023	80.003	19.994	103.204	20.128	2.962	0.520
944.000	544.053	80.003	19.994	103.215	20.130	2.809	0.526
946.000	545.063	80.002	19.995	103.191	20.129	2.889	0.490
948.000	546.104	80.004	19.995	103.175	20.127	3.008	0.470
950.000	547.131	80.004	19.995	103.180	20.128	2.970	0.507
952.000	548.194	80.004	19.994	103.192	20.129	2.918	0.520
954.000	549.164	80.005	19.995	103.200	20.130	2.834	0.493
956.000	550.220	80.005	19.994	103.195	20.129	2.920	0.512
958.000	551.232	80.003	19.994	103.184	20.125	3.188	0.513
960.000	552.292	80.003	19.994	103.206	20.125	3.161	0.517
962.000	553.295	80.004	19.995	103.190	20.127	3.005	0.510
964.000	554.389	80.004	19.994	103.196	20.127	3.049	0.527
966.000	555.439	80.004	19.995	103.178	20.124	3.222	0.555
968.000	556.476	80.003	19.995	103.174	20.123	3.298	0.517
970.000	557.502	80.005	19.995	103.184	20.124	3.223	0.504
972.000	558.466	80.004	19.996	103.176	20.122	3.368	0.487
974.000	559.534	80.003	19.996	103.175	20.120	3.530	0.513
976.000	560.603	80.004	19.996	103.186	20.118	3.664	0.494
978.000	561.649	80.004	19.995	103.182	20.121	3.399	0.512
980.000	562.681	80.005	19.994	103.182	20.117	3.689	0.511
982.000	563.699	80.004	19.995	103.184	20.118	3.633	0.502
984.000	564.735	80.005	19.994	103.176	20.117	3.666	0.528
986.001	565.746	80.006	19.995	103.185	20.119	3.576	0.534
988.000	566.762	80.005	19.995	103.198	20.122	3.395	0.489
990.000	567.831	80.004	19.995	103.187	20.119	3.598	0.514
992.000	568.820	80.005	19.995	103.178	20.122	3.394	0.523
994.000	569.842	80.005	19.995	103.182	20.121	3.419	0.520
996.000	570.867	80.003	19.995	103.176	20.121	3.460	0.530
998.000	571.853	80.004	19.995	103.171	20.118	3.652	0.465
1000.000	572.915	80.004	19.995	103.179	20.120	3.522	0.519
1002.000	573.917	80.004	19.995	103.186	20.119	3.544	0.532
1004.000	574.946	80.005	19.995	103.195	20.118	3.624	0.502
1006.000	575.968	80.005	19.995	103.183	20.117	3.667	0.533
1008.000	576.980	80.005	19.994	103.207	20.121	3.457	0.498
1010.000	578.015	80.007	19.995	103.198	20.122	3.342	0.524
1012.000	579.022	80.006	19.993	103.211	20.119	3.548	0.493
1014.000	580.004	80.006	19.994	103.192	20.119	3.549	0.511
1016.000	581.039	80.007	19.995	103.173	20.119	3.561	0.519
1018.000	582.071	80.006	19.994	103.174	20.121	3.402	0.493
1020.000	583.073	80.004	19.994	103.183	20.122	3.391	0.511
1022.000	584.111	80.004	19.995	103.203	20.121	3.445	0.518
1024.000	585.106	80.004	19.995	103.204	20.121	3.403	0.494
1026.001	586.160	80.005	19.995	103.182	20.122	3.342	0.511
1028.000	587.183	80.003	19.994	103.180	20.122	3.395	0.510
1030.000	588.209	80.005	19.994	103.182	20.122	3.333	0.506
1032.000	589.198	80.004	19.994	103.187	20.119	3.534	0.485
1034.000	590.262	80.003	19.995	103.185	20.117	3.715	0.520
1036.000	591.295	80.005	19.994	103.184	20.118	3.660	0.512
1038.000	592.292	80.004	19.994	103.172	20.116	3.746	0.473
1040.001	593.359	80.003	19.994	103.182	20.112	4.019	0.537
1042.000	594.370	80.004	19.993	103.174	20.115	3.818	0.525
1044.000	595.417	80.005	19.995	103.177	20.113	3.967	0.526
1046.000	596.438	80.005	19.994	103.175	20.112	4.043	0.509
1048.000	597.467	80.005	19.994	103.174	20.107	4.364	0.517
1050.000	598.484	80.004	19.994	103.193	20.117	3.732	0.505
1052.000	599.439	80.003	19.994	103.193	20.117	3.694	0.500
1054.000	600.483	80.003	19.995	103.197	20.119	3.555	0.498
1056.000	601.498	80.004	19.994	103.210	20.116	3.787	0.524
1058.000	602.516	80.004	19.995	103.178	20.114	3.929	0.503
1060.001	603.541	80.004	19.996	103.180	20.112	4.032	0.519
1062.001	604.518	80.003	19.994	103.195	20.116	3.759	0.487
1064.001	605.597	80.005	19.996	103.212	20.115	3.812	0.503
1066.001	606.598	80.005	19.996	103.213	20.115	3.809	0.499
1068.000	607.610	80.005	19.995	103.191	20.120	3.502	0.547
1070.001	608.608	80.005	19.995	103.183	20.119	3.584	0.520
1072.000	609.628	80.005	19.995	103.188	20.124	3.227	0.493
1074.000	610.615	80.005	19.995	103.190	20.120	3.499	0.501
1076.000	611.643	80.003	19.994	103.200	20.124	3.205	0.525
1078.001	612.672	80.003	19.994	103.197	20.121	3.437	0.492
1080.000	613.683	80.002	19.996	103.196	20.126	3.112	0.504
1082.001	614.755	80.004	19.995	103.190	20.126	3.086	0.526
1084.000	615.724	80.005	19.995	103.193	20.131	2.790	0.520
1086.000	616.761	80.004	19.995	103.181	20.130	2.817	0.531
1088.000	617.781	80.004	19.996	103.174	20.129	2.881	0.450
1090.001	618.861	80.006	19.995	103.174	20.133	2.643	0.529
1092.000	619.841	80.005	19.995	103.173	20.132	2.669	0.460
1094.000	620.857	80.006	19.995	103.173	20.134	2.554	0.511
1096.000	621.885	80.006	19.995	103.171	20.131	2.737	0.509
1098.000	622.905	80.006	19.995	103.171	20.134	2.545	0.504
1100.000	623.903	80.006	19.994	103.172	20.135	2.492	0.513
1102.000	624.929	80.003	19.994	103.172	20.134	2.565	0.517
1104.000	625.963	80.005	19.994	103.174	20.134	2.588	0.507
1106.000	626.984	80.006	19.994	103.175	20.133	2.609	0.522
1108.000	628.018	80.005	19.994	103.172	20.138	2.298	0.513
1110.001	628.993	80.006	19.995	103.167	20.134	2.559	0.481
1112.000	630.002	80.005	19.995	103.166	20.136	2.459	0.513
1114.000	631.058	80.005	19.994	103.168	20.134	2.536	0.508
1116.000	632.063	80.004	19.994	103.169	20.134	2.565	0.506
1118.000	633.042	80.005	19.994	103.174	20.138	2.325	0.499
1120.001	634.063	80.004	19.995	103.173	20.136	2.457	0.526
1122.000	635.172	80.004	19.994	103.172	20.139	2.213	0.543
1124.000	636.132	80.004	19.994	103.174	20.137	2.356	0.477
1126.000	637.179	80.005	19.994	103.177	20.136	2.428	0.524
1128.000	638.170	80.004	19.995	103.170	20.136	2.408	0.527
1130.001	639.181	80.004	19.994	103.163	20.134	2.596	0.478
1132.000	640.191	80.005	19.994	103.146	20.134	2.534	0.513
1134.000	641.211	80.003	19.995	103.146	20.136	2.446	0.476
1136.001	642.219	80.005	19.993	103.177	20.137	2.349	0.510
1138.000	643.252	80.003	19.994	103.183	20.136	2.398	0.526
1140.001	644.234	80.005	19.994	103.176	20.137	2.388	0.490
1142.000	645.250	80.004	19.994	103.172	20.137	2.391	0.499
1144.000	646.242	80.004	19.993	103.176	20.141	2.088	0.498
1146.001	647.258	80.005	19.994	103.178	20.140	2.176	0.519
1148.000	648.291	80.005	19.994	103.175	20.137	2.356	0.527
1150.000	649.323	80.005	19.994	103.171	20.139	2.261	0.505
1152.001	650.358	80.005	19.994	103.174	20.137	2.391	0.510
1154.000	651.410	80.004	19.995	103.185	20.138	2.285	0.509
1156.000	652.416	80.003	19.994	103.178	20.139	2.244	0.520
1158.001	653.442	80.005	19.995	103.174	20.135	2.510	0.505
1160.000	654.455	80.005	19.994	103.173	20.141	2.089	0.519
1162.000	655.493	80.004	19.994	103.174	20.136	2.396	0.547
1164.001	656.521	80.005	19.995	103.175	20.136	2.448	0.537
1166.001	657.448	80.005	19.994	103.156	20.137	2.343	0.492
1168.001	658.499	80.006	19.994	103.145	20.133	2.628	0.473
1170.001	659.493	80.006	19.995	103.167	20.138	2.285	0.521
1172.000	660.529	80.006	19.993	103.157	20.138	2.283	0.507
1174.000	661.508	80.008	19.996	103.168	20.139	2.243	0.507
1176.001	662.494	80.006	19.994	103.169	20.138	2.305	0.487
1178.000	663.529	80.007	19.996	103.145	20.138	2.289	0.485
1180.001	664.536	80.005	19.995	103.158	20.138	2.318	0.499
1182.001	665.515	80.004	19.995	103.165	20.135	2.473	0.500
1184.001	666.516	80.004	19.995	103.169	20.137	2.362	0.516
1186.000	667.490	80.002	19.994	103.157	20.140	2.148	0.493
1188.000	668.528	80.004	19.996	103.160	20.137	2.373	0.504
1190.000	669.536	80.004	19.995	103.178	20.139	2.217	0.549
1192.000	670.575	80.003	19.995	103.169	20.138	2.325	0.530
1194.001	671.638	80.004	19.995	103.170	20.137	2.338	0.520
1196.001	672.730	80.005	19.993	103.168	20.137	2.334	0.565
1198.001	673.782	80.006	19.994	103.162	20.138	2.314	0.542
1200.000	674.916	80.005	19.994	103.166	20.140	2.190	0.547
1202.001	675.999	80.005	19.994	103.164	20.140	2.187	0.538
1204.000	677.125	80.006	19.993	103.171	20.139	2.223	0.569
1206.001	678.179	80.004	19.994	103.171	20.138	2.287	0.520
1208.000	679.250	80.004	19.994	103.163	20.141	2.124	0.559
1210.000	680.397	80.004	19.995	103.163	20.138	2.301	0.544
1212.000	681.540	80.004	19.994	103.169	20.143	1.961	0.580
1214.000	682.647	80.003	19.995	103.169	20.143	1.983	0.550
1216.001	683.744	80.004	19.995	103.153	20.145	1.830	0.562
1218.001	684.866	80.004	19.994	103.169	20.140	2.190	0.562
1220.000	685.947	80.005	19.994	103.170	20.141	2.095	0.545
1222.000	687.068	80.004	19.995	103.153	20.140	2.163	0.549
1224.000	688.180	80.005	19.995	103.163	20.138	2.278	0.556
1226.001	689.306	80.005	19.995	103.157	20.139	2.247	0.570
1228.000	690.427	80.007	19.994	103.158	20.139	2.219	0.586
1230.000	691.480	80.007	19.995	103.154	20.141	2.097	0.541
1232.000	692.594	80.006	19.994	103.162	20.139	2.219	0.559
1234.000	693.706	80.006	19.993	103.171	20.138	2.299	0.553
1236.000	694.772	80.006	19.993	103.169	20.138	2.295	0.557
1238.000	695.885	80.006	19.993	103.169	20.136	2.411	0.548
1240.001	696.947	80.005	19.993	103.155	20.138	2.314	0.517
1242.000	698.066	80.005	19.995	103.159	20.137	2.332	0.577
1244.001	699.086	80.004	19.994	103.136	20.143	1.956	0.517
1246.001	700.135	80.004	19.995	103.144	20.141	2.080	0.495
1248.000	701.161	80.005	19.994	103.146	20.144	1.896	0.502
1250.000	702.165	80.005	19.993	103.156	20.146	1.793	0.516
1252.000	703.150	80.006	19.994	103.141	20.139	2.215	0.463
1254.000	704.159	80.007	19.995	103.144	20.142	2.044	0.515
1256.001	705.162	80.007	19.993	103.143	20.145	1.855	0.529
1258.001	706.175	80.007	19.994	103.152	20.141	2.089	0.476
1260.000	707.157	80.009	19.994	103.166	20.141	2.089	0.479
1262.000	708.176	80.007	19.993	103.145	20.140	2.179	0.485
1264.001	709.175	80.005	19.994	103.153	20.136	2.415	0.502
1266.001	710.188	80.004	19.995	103.154	20.139	2.230	0.503
1268.000	711.244	80.003	19.994	103.148	20.141	2.109	0.520
1270.000	712.269	80.004	19.995	103.171	20.144	1.883	0.513
1272.001	713.270	80.004	19.995	103.165	20.138	2.326	0.512
1274.000	714.317	80.002	19.994	103.157	20.142	2.005	0.515
1276.000	715.305	80.002	19.996	103.150	20.139	2.244	0.500
1278.000	716.396	80.003	19.994	103.152	20.143	1.939	0.512
1280.000	717.443	80.003	19.995	103.144	20.137	2.391	0.518
1282.000	718.431	80.003	19.996	103.152	20.136	2.398	0.517
1284.000	719.503	80.005	19.996	103.137	20.141	2.095	0.537
1286.000	720.488	80.004	19.994	103.138	20.138	2.270	0.485
1288.000	721.526	80.005	19.996	103.140	20.134	2.542	0.515
1290.000	722.574	80.006	19.994	103.151	20.137	2.376	0.535
1292.000	723.576	80.005	19.993	103.160	20.136	2.431	0.510
1294.001	724.615	80.004	19.994	103.156	20.137	2.348	0.505
1296.000	725.640	80.006	19.994	103.141	20.137	2.347	0.533
1298.000	726.683	80.004	19.995	103.139	20.134	2.548	0.530
1300.001	727.745	80.004	19.994	103.136	20.135	2.487	0.516
1302.001	728.770	80.005	19.995	103.135	20.135	2.506	0.518
1304.000	729.756	80.005	19.994	103.138	20.135	2.484	0.501
1306.000	730.769	80.004	19.994	103.150	20.132	2.716	0.504
1308.000	731.843	80.005	19.994	103.155	20.132	2.680	0.586
1310.000	732.853	80.005	19.995	103.149	20.133	2.618	0.489
1312.000	733.886	80.005	19.993	103.152	20.135	2.512	0.540
1314.000	734.835	80.005	19.994	103.148	20.136	2.408	0.484
1316.001	735.873	80.006	19.995	103.139	20.132	2.703	0.531
1318.001	736.826	80.005	19.993	103.146	20.131	2.751	0.474
1320.001	737.819	80.006	19.994	103.157	20.132	2.683	0.507
1322.000	738.789	80.004	19.993	103.166	20.132	2.714	0.461
1324.000	739.802	80.006	19.994	103.172	20.137	2.378	0.490
1326.001	740.770	80.006	19.995	103.167	20.137	2.381	0.484
1328.000	741.756	80.004	19.994	103.147	20.137	2.382	0.509
1330.000	742.731	80.005	19.992	103.144	20.131	2.754	0.480
1332.000	743.641	80.004	19.993	103.143	20.133	2.599	0.463