File: 01_Data/Cotton_Rug/MCC/Cotton_Rug_MCC_30K_min_211115_R3.txt
Sample ID:	C:\MCC\MCC Cal\Test\Cotton_Rug_MCC_30K_min_211115_R3.txt
Sample Weight (mg):	4.11
Heating Rate (C/s):	0.5
Combustor Temp (C):	900
N2 Flow Rate (cc/min):	80
O2 Flow Rate (cc/min):	20
Calibration File:	C:\MCC\MCC Cal\Coeff1 JN10440_30_210304.txt.txt
T Correction Coefficients:	0	1.024463	0
Time Shift (s):	14
*
Time (s)	Temperature (C)	N2 flow rate (cc/min)	O2 flow rate (cc/min)	Flow Rate (cc/min)	Oxygen (%)	HRR (W/g)	Heating rate (C/s)
-0.001	110.002	80.006	19.993	103.098	20.083	0.126	0.011
2.000	109.970	80.006	19.994	103.094	20.085	-0.026	-0.030
3.999	110.008	80.006	19.994	103.098	20.083	0.071	0.012
6.000	109.968	80.006	19.994	103.099	20.083	0.131	-0.012
7.999	109.967	80.017	19.997	103.102	20.083	0.066	-0.003
9.999	109.967	80.007	19.994	103.102	20.084	0.041	0.034
12.000	109.972	80.006	19.995	103.097	20.083	0.081	-0.027
13.999	109.949	80.004	19.995	103.096	20.080	0.356	-0.013
15.999	109.925	80.006	19.995	103.097	20.081	0.285	-0.023
17.999	109.915	80.006	19.995	103.101	20.083	0.079	-0.027
20.000	109.882	80.007	19.995	103.118	20.085	-0.058	0.026
21.999	109.881	80.006	19.996	103.108	20.087	-0.223	-0.006
23.999	109.867	80.008	19.995	103.109	20.084	0.002	-0.003
25.999	109.889	80.007	19.995	103.112	20.075	0.734	-0.006
28.000	109.842	80.010	19.994	103.174	20.069	1.164	0.001
29.999	109.871	80.005	19.994	103.267	20.058	2.051	-0.012
31.999	109.978	80.008	19.993	103.315	20.050	2.670	0.055
33.999	110.102	80.008	19.994	103.329	20.046	3.005	0.064
35.999	110.301	80.007	19.994	103.325	20.040	3.455	0.107
37.999	110.528	80.007	19.994	103.332	20.038	3.667	0.112
39.999	110.748	80.006	19.994	103.337	20.034	3.955	0.110
41.999	111.084	80.006	19.994	103.360	20.037	3.705	0.130
43.999	111.410	80.006	19.994	103.360	20.032	4.075	0.145
45.999	111.753	80.006	19.994	103.343	20.030	4.233	0.193
47.999	112.160	80.002	19.994	103.353	20.029	4.368	0.181
49.999	112.539	80.005	19.995	103.370	20.027	4.508	0.176
52.000	113.037	80.006	19.993	103.369	20.030	4.274	0.247
53.999	113.573	80.005	19.994	103.371	20.031	4.177	0.260
55.999	114.119	80.006	19.994	103.358	20.030	4.295	0.300
57.999	114.660	80.006	19.995	103.346	20.033	4.055	0.268
59.999	115.235	80.005	19.993	103.362	20.030	4.231	0.291
61.999	115.815	80.006	19.994	103.367	20.030	4.285	0.310
63.999	116.388	80.006	19.993	103.355	20.028	4.408	0.301
65.999	117.079	80.007	19.994	103.348	20.030	4.255	0.297
67.999	117.726	80.006	19.993	103.355	20.028	4.431	0.352
69.999	118.410	80.006	19.994	103.348	20.028	4.406	0.352
71.999	119.081	80.003	19.993	103.369	20.029	4.352	0.340
73.999	119.758	80.004	19.993	103.371	20.028	4.422	0.333
75.999	120.503	80.004	19.994	103.369	20.027	4.483	0.367
77.999	121.250	80.005	19.992	103.372	20.028	4.414	0.369
79.999	122.010	80.007	19.994	103.373	20.029	4.341	0.357
81.999	122.817	80.007	19.994	103.368	20.030	4.300	0.387
83.999	123.564	80.006	19.995	103.368	20.029	4.309	0.379
85.999	124.361	80.008	19.995	103.356	20.027	4.483	0.401
87.999	125.196	80.008	19.994	103.366	20.029	4.343	0.396
89.999	126.028	80.010	19.994	103.354	20.027	4.496	0.420
91.999	126.870	80.008	19.994	103.367	20.029	4.354	0.419
93.999	127.697	80.008	19.995	103.368	20.029	4.334	0.399
95.999	128.617	80.007	19.994	103.364	20.027	4.467	0.460
97.999	129.459	80.008	19.994	103.357	20.030	4.293	0.453
99.999	130.317	80.008	19.995	103.363	20.027	4.497	0.427
101.999	131.209	80.007	19.995	103.366	20.029	4.304	0.424
103.999	132.098	80.006	19.995	103.364	20.028	4.444	0.450
105.999	133.009	80.007	19.994	103.365	20.028	4.383	0.435
107.999	133.927	80.009	19.994	103.345	20.027	4.510	0.471
109.999	134.866	80.008	19.996	103.340	20.027	4.525	0.501
111.999	135.764	80.009	19.995	103.359	20.028	4.425	0.474
113.999	136.692	80.009	19.994	103.360	20.028	4.379	0.454
115.999	137.618	80.009	19.994	103.346	20.029	4.354	0.472
118.000	138.589	80.007	19.995	103.348	20.030	4.276	0.473
119.999	139.560	80.005	19.994	103.350	20.031	4.184	0.482
121.999	140.524	80.005	19.995	103.359	20.033	4.001	0.479
123.999	141.501	80.006	19.994	103.359	20.028	4.396	0.495
125.999	142.420	80.008	19.994	103.345	20.029	4.323	0.477
127.999	143.410	80.007	19.994	103.364	20.028	4.411	0.499
129.999	144.395	80.005	19.995	103.356	20.027	4.488	0.505
131.999	145.344	80.006	19.993	103.354	20.028	4.404	0.474
133.999	146.323	80.005	19.994	103.348	20.028	4.387	0.481
135.999	147.272	80.007	19.994	103.355	20.032	4.121	0.507
137.999	148.248	80.007	19.994	103.340	20.030	4.254	0.443
139.999	149.262	80.005	19.994	103.339	20.030	4.275	0.496
141.999	150.237	80.006	19.994	103.342	20.032	4.121	0.475
143.999	151.229	80.006	19.994	103.337	20.032	4.097	0.519
145.999	152.222	80.005	19.994	103.335	20.032	4.088	0.509
147.999	153.206	80.006	19.994	103.339	20.032	4.140	0.485
149.999	154.184	80.006	19.994	103.327	20.031	4.202	0.494
151.999	155.137	80.006	19.993	103.330	20.032	4.084	0.468
153.999	156.138	80.004	19.994	103.328	20.029	4.309	0.490
155.999	157.109	80.006	19.994	103.326	20.028	4.402	0.484
157.999	158.101	80.006	19.994	103.326	20.029	4.365	0.478
159.999	159.061	80.006	19.994	103.326	20.030	4.253	0.475
161.999	160.043	80.006	19.993	103.328	20.031	4.154	0.490
163.999	161.048	80.007	19.994	103.324	20.030	4.293	0.484
165.999	162.037	80.008	19.993	103.331	20.031	4.163	0.491
167.999	163.033	80.007	19.994	103.329	20.031	4.193	0.499
169.999	164.042	80.007	19.994	103.326	20.032	4.077	0.502
171.999	164.997	80.008	19.994	103.312	20.031	4.163	0.503
173.999	165.995	80.009	19.994	103.308	20.034	3.978	0.455
176.000	167.013	80.007	19.994	103.308	20.034	3.975	0.496
177.999	167.964	80.007	19.995	103.318	20.030	4.238	0.463
179.999	168.946	80.007	19.994	103.315	20.031	4.156	0.488
181.999	169.958	80.007	19.995	103.312	20.032	4.133	0.481
183.999	170.929	80.007	19.994	103.310	20.032	4.115	0.452
185.999	171.936	80.006	19.993	103.305	20.032	4.120	0.493
187.999	172.950	80.008	19.994	103.302	20.031	4.177	0.499
189.999	173.933	80.009	19.995	103.316	20.032	4.066	0.498
191.999	174.885	80.008	19.995	103.307	20.032	4.085	0.496
193.999	175.893	80.009	19.994	103.319	20.032	4.104	0.525
195.999	176.889	80.008	19.994	103.309	20.031	4.149	0.495
197.999	177.827	80.008	19.993	103.303	20.032	4.132	0.489
199.999	178.804	80.007	19.994	103.301	20.030	4.250	0.476
201.999	179.833	80.006	19.993	103.296	20.030	4.233	0.529
203.999	180.785	80.005	19.995	103.296	20.030	4.288	0.493
205.999	181.799	80.005	19.995	103.300	20.032	4.076	0.484
207.999	182.769	80.006	19.995	103.298	20.033	4.014	0.466
209.999	183.762	80.006	19.995	103.292	20.028	4.392	0.473
211.999	184.767	80.006	19.995	103.293	20.029	4.357	0.484
213.999	185.749	80.005	19.995	103.291	20.035	3.850	0.486
215.999	186.802	80.006	19.995	103.291	20.034	3.969	0.521
217.999	187.770	80.006	19.995	103.291	20.035	3.874	0.478
219.999	188.766	80.007	19.994	103.295	20.032	4.106	0.506
221.999	189.746	80.007	19.994	103.290	20.034	3.979	0.529
223.999	190.724	80.007	19.994	103.292	20.034	3.923	0.467
225.999	191.752	80.007	19.994	103.286	20.033	4.033	0.511
227.999	192.740	80.007	19.994	103.293	20.034	3.960	0.473
229.999	193.777	80.007	19.994	103.295	20.037	3.728	0.525
231.999	194.751	80.008	19.994	103.291	20.036	3.773	0.480
233.999	195.748	80.007	19.994	103.289	20.038	3.645	0.508
235.999	196.716	80.007	19.995	103.280	20.034	3.954	0.464
237.999	197.718	80.005	19.994	103.288	20.036	3.799	0.499
239.999	198.698	80.006	19.994	103.278	20.039	3.571	0.486
241.999	199.717	80.006	19.995	103.279	20.038	3.631	0.524
243.999	200.707	80.008	19.995	103.289	20.038	3.608	0.477
245.999	201.705	80.009	19.994	103.288	20.032	4.110	0.508
247.999	202.728	80.008	19.994	103.287	20.037	3.735	0.517
249.999	203.691	80.008	19.993	103.284	20.035	3.848	0.489
251.999	204.698	80.008	19.994	103.278	20.037	3.702	0.498
253.999	205.670	80.010	19.993	103.287	20.037	3.732	0.489
255.999	206.646	80.008	19.993	103.278	20.035	3.838	0.463
257.999	207.657	80.008	19.994	103.287	20.036	3.784	0.480
259.999	208.641	80.007	19.995	103.286	20.032	4.138	0.494
261.999	209.665	80.007	19.994	103.291	20.032	4.091	0.501
263.999	210.632	80.008	19.994	103.273	20.038	3.606	0.502
265.999	211.619	80.008	19.993	103.285	20.034	3.979	0.483
267.999	212.616	80.008	19.993	103.291	20.035	3.903	0.495
269.999	213.622	80.008	19.994	103.286	20.036	3.794	0.521
271.999	214.604	80.008	19.994	103.276	20.033	4.011	0.498
273.999	215.600	80.010	19.994	103.292	20.032	4.073	0.506
276.000	216.593	80.010	19.995	103.280	20.034	3.946	0.495
277.999	217.573	80.009	19.994	103.271	20.031	4.165	0.507
280.000	218.518	80.010	19.994	103.265	20.034	3.968	0.522
281.999	219.514	80.008	19.994	103.276	20.032	4.093	0.490
284.000	220.532	80.007	19.994	103.269	20.035	3.895	0.497
285.999	221.528	80.008	19.995	103.266	20.030	4.276	0.497
287.999	222.479	80.007	19.994	103.263	20.030	4.259	0.441
289.999	223.499	80.007	19.995	103.260	20.028	4.433	0.477
291.999	224.488	80.006	19.995	103.271	20.033	4.043	0.492
294.000	225.523	80.007	19.994	103.272	20.030	4.263	0.502
296.000	226.460	80.006	19.994	103.256	20.032	4.126	0.488
297.999	227.458	80.008	19.995	103.254	20.025	4.611	0.479
299.999	228.483	80.006	19.994	103.255	20.029	4.319	0.503
301.999	229.489	80.007	19.996	103.273	20.030	4.238	0.488
304.000	230.472	80.005	19.995	103.256	20.030	4.229	0.489
305.999	231.478	80.007	19.995	103.254	20.029	4.322	0.518
307.999	232.483	80.006	19.995	103.252	20.029	4.313	0.515
310.000	233.469	80.006	19.995	103.258	20.030	4.228	0.528
311.999	234.433	80.005	19.995	103.253	20.030	4.287	0.473
313.999	235.434	80.006	19.995	103.253	20.031	4.159	0.487
316.000	236.423	80.005	19.994	103.260	20.032	4.133	0.483
317.999	237.404	80.005	19.994	103.267	20.030	4.268	0.489
319.999	238.386	80.006	19.994	103.269	20.026	4.553	0.482
321.999	239.378	80.007	19.994	103.264	20.028	4.448	0.495
323.999	240.384	80.006	19.994	103.259	20.026	4.598	0.493
326.000	241.321	80.007	19.994	103.274	20.024	4.708	0.497
328.000	242.363	80.008	19.994	103.266	20.025	4.678	0.518
330.000	243.341	80.008	19.994	103.265	20.022	4.903	0.502
331.999	244.352	80.007	19.993	103.260	20.024	4.729	0.480
333.999	245.321	80.008	19.994	103.260	20.021	4.959	0.499
335.999	246.348	80.008	19.994	103.257	20.020	5.021	0.509
337.999	247.331	80.009	19.994	103.256	20.018	5.171	0.489
339.999	248.343	80.008	19.993	103.256	20.020	5.062	0.519
341.999	249.346	80.007	19.994	103.257	20.018	5.164	0.528
344.000	250.345	80.008	19.994	103.257	20.018	5.229	0.520
345.999	251.352	80.007	19.994	103.255	20.018	5.216	0.503
347.999	252.344	80.007	19.994	103.259	20.019	5.149	0.485
349.999	253.295	80.008	19.994	103.253	20.017	5.283	0.486
351.999	254.285	80.008	19.993	103.253	20.013	5.556	0.510
353.999	255.264	80.009	19.994	103.252	20.012	5.671	0.495
355.999	256.237	80.009	19.994	103.252	20.011	5.776	0.484
357.999	257.237	80.011	19.993	103.256	20.008	6.019	0.486
359.999	258.230	80.009	19.993	103.257	20.009	5.908	0.535
361.999	259.203	80.009	19.994	103.273	20.007	6.092	0.502
363.999	260.170	80.008	19.994	103.263	20.002	6.420	0.456
366.000	261.142	80.008	19.994	103.256	20.006	6.170	0.492
367.999	262.111	80.007	19.995	103.267	20.003	6.391	0.492
369.999	263.134	80.007	19.995	103.267	20.006	6.165	0.503
371.999	264.142	80.006	19.996	103.265	20.000	6.603	0.523
373.999	265.109	80.006	19.995	103.262	19.998	6.763	0.519
376.000	266.111	80.006	19.994	103.264	19.993	7.173	0.515
377.999	267.133	80.007	19.994	103.283	19.993	7.141	0.511
379.999	268.108	80.007	19.994	103.273	19.989	7.494	0.483
381.999	269.110	80.008	19.994	103.259	19.986	7.707	0.490
384.000	270.178	80.006	19.995	103.280	19.985	7.773	0.525
385.999	271.192	80.006	19.994	103.282	19.980	8.154	0.538
388.000	272.179	80.006	19.994	103.282	19.983	7.922	0.508
389.999	273.203	80.005	19.995	103.286	19.979	8.259	0.516
391.999	274.156	80.005	19.994	103.272	19.977	8.428	0.465
393.999	275.193	80.004	19.995	103.282	19.977	8.430	0.521
395.999	276.149	80.005	19.996	103.261	19.974	8.667	0.475
397.999	277.455	80.005	19.995	103.261	19.969	9.046	0.749
399.999	278.042	80.004	19.995	103.262	19.964	9.396	0.257
401.999	279.153	80.005	19.995	103.265	19.962	9.594	0.682
404.000	280.205	80.005	19.995	103.281	19.960	9.722	0.601
405.999	281.245	80.004	19.995	103.273	19.958	9.916	0.543
408.000	282.156	80.007	19.995	103.257	19.953	10.272	0.509
409.999	283.204	80.006	19.993	103.255	19.952	10.351	0.503
411.999	284.170	80.007	19.994	103.261	19.950	10.540	0.458
413.999	285.149	80.006	19.993	103.270	19.947	10.744	0.478
415.999	286.111	80.007	19.994	103.286	19.942	11.165	0.506
417.999	287.098	80.007	19.994	103.287	19.939	11.420	0.488
419.999	288.079	80.007	19.992	103.283	19.934	11.817	0.478
421.999	289.067	80.008	19.994	103.274	19.933	11.850	0.519
423.999	290.067	80.006	19.994	103.284	19.928	12.258	0.525
425.999	291.049	80.007	19.995	103.283	19.928	12.286	0.504
428.000	292.084	80.008	19.995	103.284	19.918	13.048	0.517
429.999	293.030	80.006	19.995	103.276	19.917	13.157	0.495
431.999	294.051	80.007	19.994	103.266	19.911	13.626	0.496
433.999	295.001	80.006	19.994	103.281	19.909	13.731	0.478
435.999	295.966	80.008	19.994	103.288	19.905	14.041	0.496
437.999	296.978	80.010	19.993	103.287	19.901	14.390	0.520
439.999	297.978	80.009	19.993	103.294	19.897	14.716	0.520
441.999	298.962	80.008	19.993	103.306	19.892	15.067	0.485
443.999	300.003	80.007	19.993	103.293	19.885	15.605	0.539
446.000	300.955	80.008	19.993	103.308	19.881	15.980	0.482
448.000	301.945	80.007	19.993	103.292	19.871	16.762	0.513
449.999	302.965	80.006	19.993	103.297	19.868	16.980	0.534
452.000	303.937	80.007	19.994	103.311	19.861	17.482	0.501
453.999	304.914	80.005	19.993	103.311	19.857	17.793	0.476
455.999	305.887	80.005	19.995	103.294	19.845	18.768	0.473
457.999	306.912	80.004	19.994	103.296	19.839	19.207	0.490
459.999	307.888	80.006	19.994	103.310	19.832	19.821	0.484
461.999	308.900	80.004	19.992	103.322	19.827	20.191	0.490
464.000	309.896	80.006	19.995	103.319	19.816	21.062	0.496
466.000	310.885	80.004	19.994	103.321	19.807	21.719	0.511
467.999	311.880	80.007	19.994	103.330	19.801	22.255	0.532
470.000	312.886	80.007	19.994	103.334	19.792	22.943	0.498
471.999	313.870	80.006	19.995	103.339	19.780	23.842	0.495
473.999	314.875	80.007	19.994	103.330	19.772	24.495	0.512
475.999	315.872	80.007	19.995	103.338	19.761	25.381	0.479
477.999	316.870	80.007	19.996	103.363	19.748	26.398	0.508
479.999	317.863	80.006	19.994	103.347	19.731	27.747	0.489
482.000	318.922	80.006	19.995	103.354	19.723	28.373	0.516
483.999	319.927	80.007	19.995	103.356	19.704	29.843	0.489
485.999	320.929	80.005	19.996	103.365	19.689	31.026	0.491
487.999	321.956	80.006	19.995	103.376	19.680	31.739	0.492
490.000	322.941	80.006	19.996	103.376	19.659	33.395	0.530
491.999	323.959	80.006	19.995	103.387	19.645	34.505	0.513
494.000	324.942	80.007	19.995	103.401	19.624	36.145	0.466
495.999	325.959	80.007	19.995	103.403	19.604	37.753	0.524
497.999	326.972	80.007	19.995	103.404	19.586	39.125	0.505
499.999	328.017	80.008	19.995	103.422	19.562	41.019	0.511
501.999	329.029	80.008	19.995	103.438	19.536	43.071	0.522
504.000	330.021	80.007	19.994	103.446	19.514	44.807	0.482
505.999	331.024	80.008	19.994	103.444	19.491	46.625	0.494
507.999	332.000	80.008	19.994	103.467	19.459	49.133	0.489
509.999	333.050	80.006	19.993	103.487	19.429	51.530	0.501
512.000	334.059	80.007	19.994	103.491	19.396	54.124	0.486
513.999	335.101	80.007	19.994	103.516	19.361	56.876	0.494
516.000	336.124	80.008	19.994	103.526	19.322	59.954	0.489
517.999	337.184	80.007	19.994	103.533	19.282	63.088	0.524
519.999	338.222	80.008	19.994	103.557	19.243	66.187	0.537
522.000	339.283	80.008	19.994	103.578	19.193	70.131	0.528
523.999	340.297	80.008	19.993	103.595	19.148	73.662	0.507
525.999	341.339	80.008	19.993	103.602	19.102	77.321	0.506
527.999	342.365	80.006	19.994	103.619	19.048	81.621	0.518
529.999	343.369	80.006	19.994	103.642	18.995	85.777	0.498
531.999	344.385	80.006	19.994	103.656	18.948	89.467	0.496
534.000	345.426	80.006	19.994	103.680	18.890	94.064	0.492
535.999	346.446	80.007	19.994	103.695	18.837	98.189	0.506
537.999	347.470	80.007	19.993	103.701	18.784	102.372	0.497
539.999	348.499	80.006	19.994	103.706	18.737	106.018	0.494
541.999	349.524	80.007	19.994	103.719	18.693	109.426	0.511
543.999	350.529	80.007	19.994	103.720	18.659	112.140	0.515
546.000	351.571	80.007	19.995	103.707	18.630	114.385	0.504
547.999	352.628	80.008	19.994	103.686	18.604	116.379	0.508
549.999	353.615	80.008	19.995	103.668	18.596	116.964	0.520
551.999	354.627	80.007	19.994	103.645	18.595	117.049	0.492
553.999	355.641	80.008	19.995	103.621	18.609	115.903	0.523
555.999	356.581	80.006	19.994	103.604	18.630	114.190	0.455
557.999	357.604	80.007	19.996	103.582	18.662	111.686	0.498
559.999	358.629	80.006	19.995	103.556	18.706	108.189	0.509
561.999	359.641	80.005	19.995	103.520	18.751	104.633	0.491
563.999	360.605	80.006	19.995	103.476	18.811	99.892	0.461
565.999	361.631	80.005	19.994	103.452	18.875	94.892	0.477
567.999	362.636	80.007	19.995	103.428	18.947	89.199	0.511
569.999	363.605	80.007	19.995	103.398	19.018	83.668	0.482
571.999	364.652	80.007	19.996	103.373	19.097	77.412	0.541
573.999	365.600	80.007	19.993	103.364	19.173	71.510	0.489
575.999	366.587	80.008	19.995	103.339	19.242	66.068	0.476
577.999	367.576	80.008	19.995	103.332	19.313	60.501	0.520
579.999	368.545	80.007	19.993	103.330	19.379	55.343	0.465
581.999	369.547	80.007	19.996	103.313	19.440	50.507	0.482
583.999	370.556	80.006	19.996	103.319	19.489	46.701	0.509
586.000	371.497	80.008	19.995	103.309	19.533	43.254	0.472
587.999	372.460	80.007	19.996	103.290	19.571	40.291	0.473
589.999	373.487	80.006	19.995	103.292	19.607	37.468	0.504
591.999	374.509	80.007	19.995	103.301	19.638	34.970	0.504
593.999	375.469	80.007	19.995	103.302	19.659	33.386	0.500
595.999	376.451	80.007	19.995	103.306	19.676	32.044	0.493
598.000	377.442	80.008	19.994	103.303	19.692	30.787	0.478
600.000	378.434	80.009	19.993	103.296	19.707	29.586	0.481
601.999	379.410	80.009	19.994	103.297	19.714	29.058	0.473
603.999	380.389	80.010	19.994	103.299	19.723	28.333	0.510
605.999	381.396	80.009	19.994	103.298	19.725	28.143	0.502
608.000	382.371	80.010	19.994	103.296	19.727	27.980	0.492
609.999	383.363	80.009	19.995	103.295	19.733	27.545	0.500
611.999	384.357	80.008	19.994	103.300	19.733	27.527	0.494
613.999	385.389	80.008	19.996	103.294	19.731	27.738	0.521
616.000	386.370	80.007	19.995	103.292	19.730	27.778	0.497
617.999	387.381	80.006	19.994	103.298	19.727	27.995	0.493
620.000	388.384	80.006	19.995	103.293	19.725	28.167	0.503
621.999	389.415	80.006	19.993	103.307	19.728	27.937	0.513
623.999	390.422	80.008	19.995	103.303	19.721	28.505	0.492
625.999	391.473	80.007	19.995	103.300	19.719	28.640	0.531
627.999	392.428	80.006	19.994	103.312	19.712	29.220	0.464
629.999	393.449	80.008	19.995	103.317	19.708	29.492	0.519
632.000	394.490	80.009	19.994	103.312	19.703	29.949	0.521
633.999	395.520	80.008	19.995	103.320	19.698	30.310	0.480
635.999	396.521	80.007	19.993	103.326	19.691	30.839	0.502
637.999	397.575	80.008	19.994	103.321	19.688	31.079	0.506
640.000	398.588	80.007	19.995	103.310	19.686	31.247	0.544
641.999	399.587	80.006	19.995	103.327	19.675	32.074	0.491
643.999	400.583	80.006	19.994	103.332	19.670	32.491	0.499
645.999	401.582	80.007	19.994	103.327	19.663	33.082	0.497
647.999	402.612	80.006	19.996	103.327	19.653	33.797	0.501
649.999	403.622	80.005	19.995	103.333	19.647	34.307	0.518
651.999	404.592	80.006	19.995	103.335	19.640	34.823	0.485
653.999	405.589	80.005	19.995	103.333	19.630	35.611	0.493
655.999	406.570	80.006	19.994	103.342	19.619	36.487	0.504
657.999	407.553	80.008	19.994	103.339	19.616	36.756	0.505
659.999	408.566	80.008	19.993	103.340	19.605	37.644	0.492
661.999	409.556	80.008	19.995	103.347	19.599	38.099	0.519
663.999	410.577	80.007	19.995	103.355	19.589	38.856	0.523
665.999	411.596	80.008	19.995	103.360	19.589	38.901	0.515
667.999	412.514	80.007	19.994	103.348	19.580	39.600	0.472
669.999	413.526	80.007	19.994	103.364	19.574	40.071	0.490
672.000	414.506	80.006	19.995	103.367	19.573	40.090	0.465
673.999	415.472	80.006	19.995	103.364	19.567	40.583	0.473
675.999	416.451	80.007	19.995	103.365	19.560	41.131	0.482
677.999	417.499	80.008	19.995	103.353	19.558	41.289	0.519
679.999	418.494	80.010	19.995	103.347	19.561	41.074	0.512
681.999	419.497	80.009	19.996	103.361	19.561	41.066	0.518
683.999	420.560	80.009	19.996	103.344	19.564	40.819	0.538
685.999	421.557	80.011	19.996	103.352	19.569	40.394	0.501
688.000	422.583	80.009	19.993	103.358	19.576	39.868	0.492
689.999	423.586	80.009	19.994	103.358	19.583	39.318	0.502
691.999	424.595	80.007	19.994	103.354	19.588	38.925	0.525
693.999	425.640	80.008	19.994	103.349	19.598	38.133	0.522
695.999	426.660	80.006	19.993	103.354	19.608	37.348	0.529
697.999	427.660	80.006	19.995	103.341	19.622	36.293	0.527
699.999	428.671	80.007	19.995	103.354	19.634	35.318	0.527
701.999	429.757	80.008	19.995	103.335	19.645	34.453	0.536
703.999	430.759	80.006	19.994	103.332	19.657	33.486	0.530
705.999	431.785	80.006	19.994	103.319	19.673	32.259	0.500
708.000	432.810	80.007	19.994	103.325	19.690	30.938	0.509
709.999	433.867	80.007	19.995	103.327	19.706	29.632	0.503
711.999	434.909	80.006	19.994	103.324	19.724	28.241	0.553
713.999	435.952	80.008	19.995	103.326	19.740	27.031	0.499
715.999	437.034	80.007	19.994	103.317	19.753	25.992	0.527
717.999	438.023	80.006	19.994	103.302	19.762	25.262	0.522
719.999	439.054	80.006	19.992	103.294	19.791	22.975	0.514
722.000	440.122	80.006	19.995	103.294	19.806	21.854	0.533
723.999	441.134	80.005	19.995	103.290	19.810	21.538	0.536
725.999	442.233	80.006	19.994	103.289	19.835	19.510	0.541
727.999	443.205	80.007	19.993	103.279	19.840	19.145	0.506
729.999	444.255	80.006	19.993	103.259	19.847	18.593	0.471
731.999	445.443	80.007	19.995	103.265	19.860	17.570	0.562
733.999	446.358	80.007	19.994	103.264	19.866	17.076	0.518
736.000	447.429	80.009	19.996	103.253	19.875	16.397	0.505
737.999	448.550	80.007	19.996	103.249	19.886	15.539	0.533
739.999	449.491	80.007	19.994	103.249	19.898	14.580	0.402
741.999	450.494	80.008	19.995	103.250	19.906	13.945	0.485
743.999	451.528	80.008	19.994	103.248	19.910	13.623	0.467
746.000	452.579	80.009	19.994	103.249	19.927	12.358	0.511
747.999	453.588	80.006	19.995	103.247	19.924	12.599	0.548
749.999	454.616	80.009	19.995	103.243	19.935	11.665	0.519
751.999	455.640	80.008	19.995	103.249	19.944	10.976	0.540
753.999	456.667	80.008	19.995	103.232	19.945	10.914	0.508
755.999	457.733	80.008	19.995	103.226	19.953	10.296	0.557
758.000	458.773	80.008	19.994	103.239	19.954	10.248	0.542
759.999	459.801	80.007	19.996	103.228	19.959	9.789	0.555
761.999	460.824	80.009	19.994	103.243	19.967	9.218	0.551
764.000	461.858	80.008	19.995	103.235	19.971	8.912	0.512
765.999	462.898	80.009	19.994	103.220	19.976	8.494	0.497
767.999	463.919	80.010	19.996	103.221	19.979	8.215	0.509
769.999	464.933	80.009	19.995	103.216	19.977	8.416	0.497
771.999	465.916	80.007	19.996	103.214	19.986	7.733	0.489
773.999	466.943	80.006	19.994	103.213	19.991	7.350	0.520
775.999	467.981	80.007	19.996	103.215	19.987	7.599	0.561
777.999	468.963	80.006	19.995	103.214	19.992	7.200	0.512
780.000	469.989	80.006	19.994	103.214	19.994	7.054	0.500
781.999	471.005	80.006	19.994	103.223	20.000	6.570	0.496
784.000	471.984	80.005	19.994	103.219	20.001	6.561	0.481
785.999	473.014	80.005	19.994	103.214	20.001	6.494	0.510
787.999	474.036	80.006	19.993	103.215	20.005	6.205	0.487
789.999	475.017	80.005	19.994	103.213	20.009	5.917	0.530
792.000	476.000	80.008	19.994	103.212	20.008	5.947	0.505
793.999	477.023	80.006	19.993	103.215	20.010	5.825	0.532
795.999	478.024	80.007	19.994	103.213	20.009	5.931	0.506
797.999	479.007	80.008	19.994	103.212	20.012	5.689	0.502
800.000	480.029	80.007	19.994	103.210	20.008	5.984	0.526
801.999	481.019	80.006	19.994	103.207	20.012	5.649	0.514
803.999	482.030	80.008	19.994	103.212	20.018	5.186	0.511
805.999	483.051	80.007	19.995	103.205	20.018	5.205	0.515
807.999	484.030	80.006	19.994	103.193	20.014	5.516	0.488
809.999	485.023	80.007	19.995	103.208	20.017	5.282	0.538
811.999	486.021	80.007	19.994	103.210	20.018	5.233	0.509
814.000	487.045	80.007	19.995	103.213	20.016	5.380	0.523
815.999	488.036	80.006	19.994	103.208	20.016	5.314	0.485
817.999	489.112	80.008	19.994	103.212	20.019	5.094	0.519
820.000	490.120	80.007	19.994	103.203	20.017	5.236	0.507
822.000	491.133	80.007	19.993	103.199	20.021	4.953	0.466
823.999	492.152	80.008	19.994	103.199	20.022	4.846	0.513
825.999	493.169	80.008	19.995	103.195	20.021	4.969	0.512
827.999	494.185	80.007	19.995	103.184	20.019	5.150	0.493
829.999	495.251	80.007	19.994	103.178	20.017	5.298	0.539
831.999	496.280	80.008	19.994	103.177	20.016	5.329	0.511
834.000	497.330	80.006	19.994	103.180	20.018	5.183	0.507
835.999	498.344	80.008	19.994	103.197	20.014	5.523	0.510
837.999	499.364	80.009	19.995	103.187	20.023	4.803	0.497
840.000	500.363	80.006	19.994	103.175	20.024	4.727	0.514
841.999	501.431	80.008	19.995	103.187	20.021	4.956	0.522
843.999	502.410	80.008	19.994	103.206	20.022	4.880	0.482
845.999	503.442	80.008	19.994	103.204	20.025	4.676	0.492
847.999	504.456	80.007	19.993	103.206	20.021	4.975	0.507
849.999	505.444	80.008	19.993	103.196	20.029	4.304	0.519
851.999	506.480	80.009	19.995	103.198	20.028	4.447	0.553
853.999	507.515	80.008	19.994	103.184	20.029	4.349	0.502
855.999	508.550	80.008	19.994	103.181	20.021	4.944	0.528
858.000	509.534	80.005	19.994	103.194	20.028	4.406	0.542
860.000	510.555	80.006	19.995	103.202	20.026	4.593	0.504
861.999	511.540	80.005	19.994	103.195	20.021	4.974	0.465
863.999	512.564	80.006	19.996	103.198	20.027	4.515	0.501
866.000	513.631	80.005	19.996	103.188	20.026	4.601	0.553
867.999	514.630	80.007	19.997	103.174	20.023	4.839	0.505
869.999	515.676	80.005	19.995	103.175	20.024	4.749	0.510
871.999	516.683	80.007	19.995	103.175	20.024	4.724	0.525
873.999	517.726	80.006	19.995	103.161	20.027	4.484	0.524
875.999	518.742	80.007	19.994	103.175	20.022	4.863	0.515
878.000	519.772	80.008	19.994	103.173	20.025	4.634	0.504
879.999	520.794	80.007	19.994	103.172	20.025	4.659	0.515
881.999	521.815	80.006	19.994	103.180	20.027	4.481	0.513
883.999	522.817	80.006	19.994	103.189	20.021	4.971	0.515
885.999	523.829	80.007	19.994	103.186	20.026	4.569	0.498
888.000	524.870	80.006	19.994	103.186	20.028	4.438	0.506
889.999	525.900	80.007	19.995	103.186	20.020	5.028	0.499
891.999	526.858	80.007	19.994	103.179	20.021	4.987	0.489
893.999	527.903	80.008	19.995	103.174	20.023	4.796	0.511
895.999	528.924	80.005	19.995	103.166	20.018	5.172	0.503
897.999	529.916	80.005	19.995	103.180	20.017	5.240	0.493
899.999	530.964	80.007	19.993	103.174	20.028	4.393	0.522
901.999	531.964	80.007	19.995	103.180	20.025	4.645	0.508
903.999	532.956	80.008	19.995	103.174	20.019	5.129	0.466
905.999	533.980	80.008	19.993	103.190	20.021	4.957	0.529
907.999	535.011	80.009	19.994	103.192	20.030	4.228	0.497
909.999	536.059	80.009	19.994	103.175	20.031	4.140	0.506
911.999	537.074	80.009	19.994	103.191	20.027	4.514	0.514
914.000	538.073	80.007	19.995	103.185	20.032	4.070	0.489
915.999	539.083	80.007	19.995	103.180	20.026	4.575	0.481
918.000	540.089	80.007	19.993	103.184	20.023	4.815	0.476
919.999	541.153	80.007	19.993	103.179	20.027	4.489	0.543
922.000	542.116	80.007	19.994	103.185	20.025	4.674	0.499
923.999	543.139	80.010	19.995	103.184	20.026	4.557	0.528
925.999	544.152	80.008	19.993	103.182	20.021	4.953	0.515
928.000	545.145	80.008	19.995	103.171	20.020	5.019	0.497
930.000	546.162	80.010	19.994	103.169	20.021	4.957	0.523
932.000	547.200	80.012	19.995	103.172	20.016	5.335	0.528
933.999	548.197	80.008	19.995	103.187	20.021	4.946	0.508
936.000	549.207	80.008	19.994	103.190	20.021	4.961	0.479
937.999	550.241	80.010	19.995	103.175	20.025	4.663	0.487
939.999	551.247	80.008	19.995	103.173	20.017	5.269	0.544
941.999	552.216	80.006	19.993	103.178	20.020	5.019	0.476
943.999	553.275	80.006	19.994	103.180	20.018	5.184	0.505
945.999	554.302	80.008	19.994	103.175	20.015	5.442	0.543
947.999	555.322	80.007	19.993	103.171	20.018	5.178	0.485
950.000	556.369	80.007	19.995	103.168	20.011	5.729	0.518
951.999	557.380	80.007	19.996	103.168	20.016	5.347	0.518
954.000	558.415	80.007	19.994	103.170	20.013	5.558	0.531
955.999	559.392	80.006	19.995	103.179	20.012	5.697	0.506
958.000	560.416	80.006	19.996	103.173	20.012	5.669	0.484
959.999	561.437	80.004	19.994	103.180	20.011	5.720	0.508
962.000	562.441	80.008	19.996	103.180	20.009	5.905	0.508
963.999	563.414	80.007	19.996	103.180	20.013	5.573	0.464
965.999	564.405	80.005	19.995	103.188	20.009	5.905	0.495
967.999	565.407	80.005	19.994	103.177	20.013	5.617	0.481
969.999	566.438	80.006	19.995	103.175	20.013	5.585	0.482
971.999	567.472	80.005	19.995	103.176	20.013	5.600	0.511
973.999	568.479	80.006	19.994	103.179	20.013	5.602	0.514
975.999	569.472	80.008	19.994	103.185	20.017	5.266	0.499
977.999	570.461	80.007	19.994	103.177	20.018	5.197	0.487
980.000	571.476	80.007	19.994	103.175	20.018	5.159	0.498
981.999	572.471	80.007	19.994	103.179	20.017	5.264	0.505
983.999	573.459	80.009	19.994	103.182	20.018	5.189	0.511
985.999	574.493	80.007	19.993	103.181	20.022	4.904	0.509
987.999	575.487	80.011	19.994	103.181	20.023	4.807	0.464
989.999	576.518	80.009	19.995	103.177	20.022	4.896	0.476
991.999	577.533	80.010	19.994	103.184	20.015	5.394	0.534
993.999	578.562	80.010	19.994	103.183	20.017	5.255	0.521
995.999	579.534	80.007	19.994	103.178	20.014	5.523	0.516
998.000	580.556	80.007	19.994	103.182	20.017	5.292	0.490
999.999	581.576	80.007	19.994	103.184	20.017	5.296	0.513
1001.999	582.595	80.009	19.994	103.186	20.015	5.416	0.508
1003.999	583.626	80.007	19.995	103.173	20.013	5.609	0.521
1005.999	584.610	80.010	19.994	103.179	20.017	5.247	0.493
1007.999	585.624	80.010	19.994	103.182	20.016	5.331	0.521
1009.999	586.645	80.010	19.994	103.180	20.015	5.456	0.516
1011.999	587.673	80.009	19.993	103.179	20.013	5.616	0.489
1013.999	588.662	80.011	19.994	103.177	20.016	5.374	0.502
1015.999	589.723	80.014	19.994	103.174	20.011	5.781	0.530
1017.999	590.733	80.012	19.995	103.190	20.015	5.426	0.523
1019.999	591.733	80.007	19.995	103.204	20.015	5.421	0.503
1022.000	592.765	80.009	19.995	103.198	20.014	5.528	0.481
1023.999	593.780	80.008	19.994	103.198	20.009	5.883	0.504
1026.000	594.830	80.007	19.995	103.201	20.014	5.478	0.531
1027.999	595.872	80.007	19.996	103.200	20.010	5.815	0.518
1029.999	596.870	80.008	19.995	103.194	20.009	5.862	0.516
1031.999	597.904	80.008	19.996	103.184	20.010	5.838	0.530
1033.999	598.912	80.007	19.996	103.177	20.007	6.040	0.529
1036.000	599.891	80.007	19.995	103.176	20.014	5.502	0.474
1037.999	600.889	80.009	19.995	103.180	20.011	5.716	0.499
1040.000	601.913	80.009	19.995	103.185	20.013	5.579	0.492
1041.999	602.940	80.008	19.995	103.181	20.012	5.693	0.507
1043.999	603.951	80.006	19.994	103.179	20.014	5.530	0.534
1045.999	604.971	80.008	19.994	103.176	20.015	5.461	0.511
1047.999	605.980	80.006	19.995	103.176	20.016	5.344	0.513
1050.000	607.019	80.006	19.994	103.180	20.020	5.055	0.502
1051.999	608.019	80.005	19.994	103.183	20.020	5.002	0.507
1053.999	609.019	80.006	19.994	103.182	20.021	4.987	0.516
1056.000	610.046	80.006	19.996	103.186	20.022	4.903	0.490
1057.999	611.057	80.008	19.995	103.189	20.027	4.451	0.502
1059.999	612.070	80.000	19.997	103.182	20.026	4.601	0.511
1062.000	613.046	80.006	19.996	103.173	20.023	4.815	0.512
1063.999	614.061	79.999	19.996	103.172	20.025	4.654	0.471
1065.999	615.077	80.009	19.995	103.171	20.031	4.155	0.486
1067.999	616.094	80.008	19.995	103.172	20.022	4.845	0.489
1069.999	617.110	80.008	19.995	103.170	20.026	4.549	0.513
1071.999	618.128	80.010	19.995	103.176	20.023	4.766	0.486
1073.999	619.134	80.009	19.993	103.172	20.023	4.815	0.484
1075.999	620.157	80.008	19.996	103.172	20.025	4.652	0.530
1078.000	621.174	80.007	19.993	103.173	20.023	4.775	0.511
1079.999	622.175	80.008	19.994	103.165	20.026	4.586	0.502
1081.999	623.238	80.007	19.995	103.176	20.025	4.672	0.527
1083.999	624.290	80.007	19.995	103.170	20.031	4.155	0.491
1085.999	625.263	80.009	19.995	103.171	20.030	4.264	0.519
1087.999	626.259	80.009	19.995	103.176	20.031	4.185	0.491
1089.999	627.317	80.008	19.994	103.175	20.034	3.916	0.564
1091.999	628.381	80.009	19.994	103.171	20.032	4.090	0.505
1093.999	629.442	80.009	19.994	103.172	20.032	4.059	0.565
1095.999	630.466	80.011	19.994	103.175	20.035	3.829	0.461
1097.999	631.547	80.011	19.994	103.175	20.032	4.129	0.518
1099.999	632.593	80.010	19.994	103.163	20.033	4.046	0.546
1101.999	633.622	80.009	19.994	103.155	20.027	4.474	0.519
1103.999	634.685	80.007	19.993	103.169	20.032	4.099	0.545
1105.999	635.703	80.009	19.994	103.175	20.028	4.378	0.524
1107.999	636.773	80.009	19.994	103.177	20.034	3.947	0.510
1109.999	637.822	80.007	19.993	103.176	20.038	3.628	0.570
1111.999	638.851	80.006	19.994	103.172	20.036	3.808	0.525
1113.999	639.871	80.008	19.995	103.170	20.034	3.945	0.502
1115.999	640.904	80.006	19.995	103.173	20.039	3.559	0.511
1118.000	641.968	80.007	19.995	103.163	20.032	4.080	0.528
1120.000	642.976	80.006	19.994	103.174	20.032	4.101	0.516
1121.999	643.940	80.011	19.994	103.175	20.030	4.232	0.479
1123.999	645.006	80.007	19.996	103.179	20.033	4.054	0.502
1125.999	646.051	80.008	19.995	103.175	20.032	4.108	0.494
1127.999	647.085	80.010	19.995	103.173	20.029	4.303	0.537
1129.999	648.068	80.007	19.996	103.171	20.030	4.269	0.517
1131.999	649.054	80.009	19.995	103.173	20.029	4.354	0.488
1133.999	650.018	80.008	19.994	103.169	20.026	4.549	0.502
1135.999	651.035	80.007	19.995	103.171	20.033	4.022	0.502
1138.000	652.043	80.007	19.996	103.169	20.028	4.376	0.472
1140.000	652.987	80.005	19.994	103.172	20.029	4.324	0.451
1141.999	654.031	80.006	19.996	103.171	20.035	3.880	0.478
1143.999	655.013	80.013	19.995	103.166	20.032	4.084	0.497
1146.000	656.014	80.008	19.995	103.175	20.030	4.284	0.489
1148.000	656.977	80.009	19.995	103.168	20.033	4.013	0.469
1149.999	657.967	80.009	19.996	103.168	20.031	4.161	0.486
1151.999	658.982	80.009	19.995	103.164	20.034	3.962	0.487
1154.000	659.987	80.007	19.995	103.165	20.033	3.987	0.502
1155.999	660.970	80.007	19.995	103.168	20.034	3.962	0.498
1157.999	661.982	80.007	19.995	103.165	20.033	4.054	0.535
1159.999	662.975	80.007	19.995	103.157	20.031	4.144	0.490
1162.000	663.899	80.008	19.994	103.172	20.031	4.199	0.462
1163.999	664.881	80.007	19.995	103.165	20.033	4.026	0.489
1165.999	665.867	80.008	19.995	103.173	20.031	4.197	0.492
1167.999	666.861	80.011	19.994	103.165	20.033	4.026	0.498
1169.999	667.818	80.010	19.994	103.173	20.030	4.243	0.495
1171.999	668.797	80.008	19.994	103.173	20.032	4.097	0.495
1174.000	669.802	80.009	19.994	103.159	20.027	4.506	0.514
1176.000	670.789	80.010	19.994	103.162	20.025	4.682	0.511
1177.999	671.736	80.011	19.992	103.165	20.028	4.397	0.496
1179.999	672.742	80.010	19.993	103.173	20.028	4.420	0.504
1181.999	673.739	80.011	19.994	103.180	20.030	4.244	0.528
1184.000	674.705	80.007	19.996	103.176	20.031	4.163	0.490
1186.000	675.719	80.008	19.994	103.157	20.027	4.487	0.491
1188.000	676.677	80.008	19.996	103.157	20.030	4.228	0.456
1189.999	677.689	80.005	19.994	103.165	20.033	4.020	0.484
1191.999	678.661	80.008	19.994	103.153	20.030	4.279	0.506
1193.999	679.719	80.006	19.995	103.168	20.028	4.382	0.482
1195.999	680.720	80.005	19.995	103.172	20.028	4.412	0.511
1197.999	681.714	80.007	19.995	103.171	20.031	4.146	0.486
1199.999	682.762	80.010	19.992	103.167	20.031	4.200	0.501
1201.999	683.782	80.013	19.994	103.169	20.034	3.949	0.489
1203.999	684.813	80.009	19.994	103.167	20.030	4.223	0.520
1205.999	685.838	80.008	19.994	103.168	20.029	4.369	0.475
1207.999	686.857	80.008	19.993	103.168	20.029	4.339	0.503
1209.999	687.895	80.010	19.995	103.170	20.034	3.918	0.532
1211.999	688.933	80.009	19.994	103.167	20.032	4.107	0.556
1213.999	689.941	80.007	19.994	103.167	20.032	4.122	0.518
1215.999	690.956	80.008	19.996	103.164	20.029	4.307	0.488
1218.000	691.954	80.004	19.996	103.161	20.031	4.140	0.482
1219.999	692.979	80.017	19.994	103.150	20.030	4.289	0.493
1221.999	694.004	80.005	19.995	103.152	20.034	3.945	0.538
1223.999	695.001	80.011	19.995	103.164	20.031	4.198	0.523
1225.999	696.003	80.012	19.993	103.164	20.029	4.305	0.501
1227.999	696.988	80.016	19.995	103.176	20.034	3.928	0.500
1229.999	698.042	80.011	19.994	103.166	20.034	3.925	0.516
1231.999	699.059	80.011	19.993	103.165	20.035	3.831	0.510
1233.999	700.039	80.008	19.995	103.174	20.035	3.874	0.498
1235.999	701.091	80.012	19.994	103.167	20.034	3.930	0.543
1237.999	702.074	80.010	19.994	103.173	20.035	3.876	0.485
1239.999	703.088	80.008	19.994	103.171	20.034	3.929	0.503
1241.999	704.144	80.007	19.995	103.171	20.026	4.596	0.490
1243.999	705.129	80.006	19.994	103.163	20.032	4.088	0.482
1246.000	706.173	80.003	19.994	103.163	20.030	4.289	0.511
1247.999	707.127	80.005	19.994	103.169	20.030	4.270	0.538
1249.999	708.166	80.005	19.995	103.159	20.030	4.264	0.496
1251.999	709.170	80.008	19.995	103.162	20.033	3.987	0.513
1254.000	710.171	80.010	19.994	103.169	20.030	4.231	0.499
1255.999	711.164	80.011	19.994	103.155	20.032	4.086	0.504
1258.000	712.131	80.014	19.995	103.156	20.034	3.910	0.509
1259.999	713.158	80.019	19.992	103.157	20.034	3.972	0.502
1262.000	714.144	80.025	19.992	103.163	20.035	3.859	0.472
1263.999	715.119	80.002	19.993	103.160	20.034	3.919	0.527
1265.999	716.113	79.999	19.996	103.155	20.035	3.863	0.458
1267.999	717.198	80.021	19.993	103.162	20.032	4.082	0.517
1269.999	718.179	80.019	19.993	103.162	20.033	3.981	0.497
1271.999	719.135	80.009	19.994	103.155	20.031	4.157	0.506
1273.999	720.146	80.005	19.993	103.166	20.032	4.131	0.478
1275.999	721.198	80.007	19.995	103.164	20.033	4.026	0.519
1277.999	722.177	80.010	19.993	103.165	20.030	4.270	0.492
1279.999	723.184	80.007	19.994	103.163	20.034	3.936	0.495
1282.000	724.154	80.007	19.996	103.162	20.032	4.073	0.485
1283.999	725.123	80.006	19.995	103.158	20.033	4.001	0.449
1285.999	726.100	80.008	19.994	103.160	20.032	4.075	0.494
1288.000	727.137	80.010	19.995	103.156	20.033	3.983	0.519
1290.000	728.146	80.007	19.994	103.168	20.035	3.874	0.485
1292.000	729.218	80.005	19.995	103.158	20.030	4.255	0.519
1293.999	730.252	80.008	19.995	103.172	20.034	3.953	0.552
1296.000	731.306	80.005	19.995	103.173	20.030	4.223	0.542
1297.999	732.398	80.009	19.994	103.156	20.034	3.912	0.536
1300.000	733.480	80.024	19.992	103.165	20.033	4.018	0.561
1301.999	734.526	79.999	19.995	103.171	20.032	4.114	0.552
1303.999	735.625	80.007	19.995	103.170	20.031	4.204	0.520
1305.999	736.725	80.008	19.994	103.157	20.035	3.890	0.525
1307.999	737.836	80.007	19.993	103.162	20.032	4.113	0.552
1310.000	738.921	80.013	19.993	103.167	20.031	4.198	0.534
1311.999	740.011	80.006	19.997	103.176	20.030	4.281	0.566
1313.999	741.123	80.005	19.994	103.164	20.031	4.197	0.562
1315.999	742.219	80.008	19.994	103.161	20.033	3.993	0.561
1317.499	743.060	80.007	19.994	103.146	20.028	4.373	0.570