File: 01_Data/Cotton_Rug/MCC/Cotton_Rug_MCC_30K_min_211115_R1.txt
Sample ID:	C:\MCC\MCC Cal\Test\Cotton_Rug_MCC_30K_min_211115_R1.txt
Sample Weight (mg):	4.17
Heating Rate (C/s):	0.5
Combustor Temp (C):	900
N2 Flow Rate (cc/min):	80
O2 Flow Rate (cc/min):	20
Calibration File:	C:\MCC\MCC Cal\Coeff1 JN10440_30_210304.txt.txt
T Correction Coefficients:	0	1.024463	0
Time Shift (s):	14
*
Time (s)	Temperature (C)	N2 flow rate (cc/min)	O2 flow rate (cc/min)	Flow Rate (cc/min)	Oxygen (%)	HRR (W/g)	Heating rate (C/s)
0.000	106.511	80.002	19.992	103.054	20.129	-0.017	0.001
2.001	106.501	80.003	19.995	103.063	20.131	-0.152	0.015
4.000	106.502	80.003	19.995	103.069	20.128	0.097	-0.029
6.000	106.499	80.002	19.995	103.064	20.130	-0.112	0.014
8.000	106.494	80.003	19.995	103.069	20.127	0.152	-0.014
10.000	106.507	80.004	19.995	103.062	20.130	-0.127	-0.008
12.000	106.504	80.004	19.993	103.111	20.123	0.448	-0.004
14.000	106.530	80.005	19.994	103.108	20.124	0.400	0.036
16.000	106.556	80.006	19.994	103.119	20.118	0.821	0.011
18.000	106.563	80.007	19.995	103.153	20.112	1.271	0.011
20.000	106.629	80.006	19.994	103.191	20.106	1.798	0.016
22.000	106.750	80.005	19.995	103.238	20.104	1.923	0.073
24.000	106.853	80.005	19.994	103.260	20.097	2.420	0.061
26.000	107.016	80.006	19.994	103.287	20.098	2.398	0.060
28.000	107.261	80.005	19.995	103.290	20.095	2.646	0.123
30.000	107.499	80.004	19.996	103.260	20.094	2.724	0.115
32.000	107.793	80.004	19.995	103.262	20.095	2.610	0.160
34.000	108.126	80.006	19.995	103.277	20.093	2.738	0.168
36.000	108.455	80.006	19.995	103.252	20.094	2.692	0.194
38.000	108.796	80.006	19.996	103.275	20.095	2.618	0.165
40.000	109.204	80.006	19.995	103.271	20.095	2.632	0.185
42.001	109.617	80.007	19.993	103.281	20.089	3.056	0.216
44.000	110.045	80.008	19.995	103.247	20.090	3.008	0.223
46.000	110.503	80.006	19.994	103.246	20.090	3.018	0.239
48.000	110.934	80.004	19.994	103.260	20.089	3.114	0.245
50.000	111.394	80.006	19.993	103.287	20.089	3.055	0.221
52.000	111.870	80.004	19.994	103.271	20.093	2.786	0.246
54.000	112.361	80.005	19.994	103.259	20.091	2.904	0.241
56.000	112.840	80.003	19.994	103.270	20.092	2.828	0.228
58.000	113.353	80.003	19.994	103.276	20.093	2.767	0.246
60.000	113.943	80.004	19.994	103.294	20.092	2.807	0.291
62.000	114.489	80.003	19.994	103.275	20.093	2.761	0.302
64.000	115.066	80.004	19.994	103.269	20.090	3.025	0.276
66.000	115.631	80.004	19.994	103.277	20.090	2.975	0.284
68.000	116.209	80.004	19.994	103.287	20.091	2.920	0.303
70.000	116.799	80.003	19.993	103.294	20.089	3.114	0.313
72.000	117.418	80.005	19.993	103.296	20.089	3.047	0.304
74.000	118.092	80.003	19.994	103.299	20.089	3.093	0.328
76.001	118.717	80.003	19.994	103.308	20.087	3.220	0.344
78.000	119.357	80.004	19.994	103.305	20.086	3.298	0.310
80.000	120.038	80.004	19.994	103.298	20.083	3.564	0.315
82.000	120.695	80.005	19.998	103.299	20.084	3.468	0.341
84.000	121.389	80.005	19.995	103.295	20.085	3.385	0.379
86.000	122.112	80.005	19.994	103.295	20.088	3.118	0.350
88.000	122.841	80.004	19.994	103.315	20.087	3.205	0.350
90.001	123.547	80.004	19.995	103.359	20.085	3.360	0.332
92.000	124.286	80.005	19.993	103.315	20.088	3.131	0.375
94.000	125.042	80.004	19.995	103.294	20.084	3.441	0.389
96.000	125.753	80.004	19.994	103.303	20.083	3.571	0.370
98.000	126.522	80.005	19.994	103.284	20.084	3.496	0.375
100.000	127.286	80.005	19.996	103.292	20.083	3.502	0.405
102.000	128.068	80.006	19.995	103.299	20.080	3.749	0.410
104.001	128.854	80.007	19.995	103.325	20.084	3.458	0.381
106.001	129.704	80.005	19.996	103.313	20.086	3.323	0.405
108.000	130.480	80.005	19.995	103.314	20.083	3.517	0.399
110.000	131.300	80.006	19.994	103.308	20.081	3.686	0.396
112.000	132.134	80.005	19.995	103.311	20.086	3.309	0.410
114.000	133.007	80.005	19.995	103.312	20.087	3.208	0.447
116.000	133.860	80.005	19.995	103.334	20.086	3.324	0.429
118.000	134.723	80.006	19.995	103.333	20.084	3.496	0.455
120.000	135.587	80.006	19.994	103.331	20.084	3.459	0.429
122.000	136.440	80.006	19.994	103.307	20.085	3.396	0.409
124.000	137.305	80.005	19.994	103.304	20.083	3.523	0.426
126.000	138.220	80.006	19.995	103.311	20.084	3.449	0.477
128.000	139.147	80.006	19.995	103.307	20.085	3.422	0.454
130.000	140.015	80.005	19.994	103.306	20.083	3.523	0.421
132.000	140.923	80.004	19.995	103.313	20.087	3.222	0.451
134.000	141.803	80.003	19.994	103.306	20.081	3.662	0.446
136.000	142.692	80.003	19.995	103.296	20.085	3.370	0.455
138.000	143.618	80.004	19.994	103.309	20.086	3.284	0.447
140.000	144.576	80.003	19.993	103.319	20.086	3.317	0.494
142.000	145.511	80.004	19.994	103.323	20.085	3.404	0.475
144.000	146.479	80.003	19.994	103.302	20.086	3.326	0.468
146.000	147.418	80.004	19.995	103.304	20.086	3.332	0.484
148.000	148.305	80.003	19.994	103.304	20.087	3.233	0.440
150.000	149.313	80.004	19.994	103.295	20.087	3.192	0.506
152.000	150.276	80.004	19.994	103.290	20.084	3.467	0.478
154.000	151.178	80.004	19.995	103.295	20.082	3.630	0.464
156.000	152.147	80.004	19.993	103.290	20.087	3.214	0.485
158.000	153.122	80.005	19.994	103.322	20.085	3.407	0.519
160.000	154.069	80.003	19.993	103.301	20.086	3.307	0.468
162.000	155.015	80.004	19.994	103.295	20.088	3.150	0.478
164.000	155.972	80.004	19.994	103.294	20.087	3.266	0.474
166.000	156.885	80.004	19.994	103.311	20.089	3.059	0.448
168.000	157.884	80.002	19.995	103.307	20.091	2.903	0.470
170.000	158.870	80.004	19.995	103.308	20.089	3.079	0.507
172.000	159.833	80.005	19.994	103.289	20.088	3.127	0.464
174.000	160.777	80.006	19.995	103.290	20.090	2.996	0.475
176.000	161.805	80.004	19.994	103.297	20.088	3.142	0.525
178.000	162.792	80.006	19.994	103.304	20.087	3.203	0.472
180.000	163.757	80.007	19.993	103.325	20.088	3.165	0.472
182.000	164.759	80.004	19.995	103.299	20.091	2.896	0.481
184.000	165.750	80.006	19.993	103.297	20.089	3.044	0.490
186.000	166.755	80.005	19.994	103.295	20.087	3.205	0.508
188.000	167.745	80.006	19.994	103.298	20.086	3.317	0.511
190.000	168.735	80.005	19.996	103.295	20.085	3.385	0.502
192.000	169.739	80.002	19.994	103.294	20.087	3.228	0.479
194.000	170.767	80.004	19.995	103.290	20.085	3.404	0.512
196.000	171.728	80.003	19.995	103.302	20.085	3.376	0.466
198.000	172.755	80.003	19.995	103.295	20.086	3.279	0.540
200.000	173.757	80.005	19.994	103.290	20.084	3.429	0.516
202.000	174.722	80.005	19.994	103.279	20.085	3.364	0.491
204.000	175.671	80.006	19.994	103.277	20.084	3.484	0.479
206.000	176.707	80.007	19.994	103.290	20.085	3.395	0.503
208.000	177.703	80.006	19.994	103.294	20.085	3.349	0.473
210.000	178.718	80.007	19.995	103.292	20.086	3.340	0.523
212.000	179.736	80.005	19.994	103.295	20.085	3.364	0.506
214.001	180.740	80.004	19.994	103.290	20.085	3.421	0.503
216.000	181.728	80.005	19.994	103.289	20.085	3.347	0.476
218.000	182.771	80.004	19.995	103.291	20.088	3.171	0.489
220.000	183.798	80.003	19.996	103.293	20.089	3.108	0.536
222.000	184.781	80.003	19.995	103.291	20.088	3.189	0.515
224.001	185.810	80.004	19.995	103.286	20.088	3.136	0.489
226.000	186.831	80.004	19.995	103.289	20.085	3.358	0.502
228.000	187.842	80.003	19.995	103.290	20.087	3.251	0.481
230.000	188.842	80.004	19.995	103.289	20.088	3.143	0.488
232.000	189.855	80.004	19.994	103.277	20.088	3.171	0.516
234.000	190.852	80.004	19.994	103.260	20.084	3.454	0.513
236.000	191.825	80.005	19.993	103.256	20.088	3.177	0.494
238.000	192.858	80.004	19.994	103.261	20.089	3.095	0.519
240.000	193.894	80.005	19.993	103.282	20.091	2.932	0.559
242.000	194.847	80.004	19.994	103.264	20.089	3.101	0.500
244.000	195.848	80.003	19.994	103.290	20.089	3.037	0.511
246.000	196.844	80.004	19.994	103.271	20.087	3.211	0.530
248.000	197.773	80.003	19.994	103.270	20.087	3.230	0.495
250.000	198.796	80.003	19.995	103.294	20.090	3.008	0.469
252.000	199.815	80.004	19.996	103.297	20.091	2.917	0.492
254.000	200.795	80.004	19.994	103.282	20.091	2.957	0.508
256.000	201.757	80.004	19.993	103.269	20.092	2.832	0.484
258.000	202.778	80.006	19.994	103.291	20.092	2.838	0.485
260.000	203.754	80.005	19.994	103.282	20.090	3.031	0.493
262.000	204.750	80.005	19.993	103.283	20.090	3.005	0.510
264.000	205.706	80.006	19.994	103.284	20.090	2.993	0.515
266.000	206.727	80.005	19.994	103.259	20.091	2.935	0.530
268.001	207.730	80.004	19.993	103.259	20.090	2.986	0.507
270.000	208.763	80.005	19.994	103.269	20.092	2.870	0.511
272.000	209.696	80.004	19.995	103.267	20.093	2.800	0.472
274.000	210.718	80.005	19.993	103.263	20.089	3.092	0.499
276.000	211.656	80.006	19.995	103.262	20.088	3.126	0.483
278.000	212.638	80.006	19.994	103.257	20.095	2.627	0.488
280.000	213.652	80.006	19.994	103.256	20.094	2.724	0.491
282.000	214.618	80.004	19.994	103.268	20.094	2.720	0.463
284.000	215.601	80.005	19.994	103.268	20.090	3.035	0.488
286.000	216.613	80.006	19.994	103.278	20.089	3.081	0.510
288.000	217.559	80.006	19.994	103.258	20.092	2.828	0.493
290.000	218.562	80.006	19.994	103.264	20.091	2.896	0.498
292.000	219.528	80.005	19.995	103.259	20.093	2.769	0.489
294.000	220.495	80.005	19.995	103.264	20.094	2.701	0.525
296.000	221.436	80.005	19.993	103.263	20.094	2.698	0.481
298.000	222.402	80.003	19.995	103.256	20.092	2.810	0.473
300.000	223.409	80.005	19.995	103.274	20.092	2.832	0.484
302.000	224.396	80.005	19.994	103.280	20.092	2.847	0.502
304.000	225.386	80.005	19.995	103.261	20.090	2.967	0.483
306.000	226.377	80.003	19.994	103.252	20.090	3.035	0.506
308.000	227.357	80.005	19.996	103.253	20.091	2.923	0.493
310.000	228.363	80.003	19.994	103.253	20.089	3.064	0.494
312.000	229.328	80.004	19.995	103.255	20.086	3.270	0.501
314.000	230.344	80.004	19.995	103.254	20.088	3.187	0.551
316.000	231.284	80.004	19.995	103.255	20.089	3.086	0.492
318.000	232.212	80.005	19.995	103.257	20.088	3.151	0.443
320.000	233.222	80.004	19.995	103.256	20.086	3.276	0.506
322.001	234.190	80.003	19.995	103.260	20.083	3.513	0.482
324.000	235.178	80.003	19.994	103.258	20.084	3.464	0.481
326.000	236.125	80.005	19.994	103.252	20.080	3.807	0.479
328.000	237.095	80.003	19.994	103.269	20.082	3.634	0.475
330.000	238.075	80.003	19.994	103.259	20.081	3.710	0.502
332.000	239.071	80.003	19.994	103.273	20.082	3.615	0.489
334.000	240.015	80.003	19.995	103.275	20.084	3.487	0.488
336.000	240.977	80.004	19.993	103.266	20.082	3.644	0.467
338.000	241.965	80.004	19.994	103.270	20.076	4.060	0.500
340.000	242.927	80.004	19.993	103.282	20.079	3.873	0.466
342.000	243.945	80.006	19.994	103.276	20.077	3.974	0.529
344.001	244.937	80.006	19.994	103.259	20.078	3.887	0.505
346.000	245.969	80.005	19.994	103.258	20.075	4.156	0.545
348.000	246.994	80.006	19.993	103.253	20.076	4.110	0.534
350.000	248.010	80.006	19.994	103.257	20.074	4.209	0.521
352.000	249.003	80.005	19.994	103.269	20.072	4.352	0.522
354.000	250.059	80.005	19.994	103.258	20.071	4.470	0.508
356.000	251.119	80.005	19.994	103.257	20.069	4.585	0.537
358.000	252.130	80.005	19.994	103.263	20.065	4.899	0.522
360.000	253.123	80.006	19.994	103.262	20.067	4.806	0.504
362.000	254.139	80.007	19.994	103.258	20.069	4.588	0.492
364.000	255.165	80.007	19.994	103.269	20.067	4.782	0.500
366.001	256.230	80.007	19.994	103.277	20.066	4.835	0.523
368.000	257.216	80.007	19.993	103.272	20.068	4.725	0.501
370.000	258.256	80.007	19.994	103.290	20.068	4.693	0.531
372.000	259.285	80.008	19.992	103.292	20.068	4.685	0.518
374.000	260.262	80.006	19.993	103.283	20.065	4.940	0.500
376.000	261.336	80.005	19.994	103.274	20.059	5.420	0.527
378.000	262.328	80.004	19.994	103.261	20.061	5.260	0.525
380.000	263.384	80.003	19.995	103.265	20.060	5.336	0.518
382.000	264.413	80.003	19.995	103.261	20.056	5.598	0.505
384.000	265.424	80.003	19.994	103.260	20.055	5.664	0.515
386.000	266.467	80.004	19.995	103.258	20.050	6.068	0.485
388.000	267.470	80.003	19.994	103.266	20.052	5.921	0.492
390.000	268.512	80.004	19.994	103.263	20.048	6.264	0.523
392.000	269.480	80.003	19.994	103.258	20.045	6.480	0.489
394.000	270.551	80.005	19.993	103.275	20.044	6.524	0.497
396.000	271.584	80.007	19.993	103.261	20.042	6.703	0.509
398.000	272.633	80.004	19.994	103.280	20.043	6.633	0.518
400.000	273.595	80.005	19.995	103.284	20.043	6.660	0.507
402.000	274.561	80.005	19.996	103.291	20.040	6.845	0.477
404.000	275.569	80.005	19.995	103.294	20.040	6.867	0.511
406.000	276.612	80.004	19.995	103.279	20.034	7.344	0.525
408.000	277.634	80.003	19.996	103.268	20.032	7.445	0.521
410.000	278.616	80.003	19.996	103.262	20.032	7.448	0.504
412.000	279.641	80.004	19.996	103.257	20.027	7.888	0.475
414.000	280.600	80.003	19.995	103.240	20.025	8.035	0.506
416.000	281.632	80.005	19.994	103.234	20.020	8.434	0.525
418.000	282.632	80.005	19.995	103.255	20.017	8.611	0.521
420.000	283.582	80.006	19.995	103.277	20.013	8.974	0.473
422.000	284.624	80.006	19.994	103.276	20.012	9.028	0.501
424.000	285.588	80.007	19.994	103.288	20.010	9.170	0.465
426.000	286.592	80.006	19.993	103.278	20.006	9.487	0.502
428.000	287.601	80.008	19.994	103.264	20.003	9.707	0.496
430.000	288.556	80.007	19.993	103.289	20.004	9.680	0.482
432.000	289.562	80.008	19.995	103.288	19.994	10.419	0.517
434.000	290.516	80.007	19.994	103.269	19.990	10.696	0.490
436.000	291.503	80.006	19.994	103.282	19.987	10.942	0.552
438.000	292.564	80.004	19.994	103.274	19.987	10.929	0.492
440.000	293.421	80.004	19.994	103.296	19.986	11.009	0.452
442.000	294.522	80.007	19.994	103.299	19.979	11.577	0.536
444.000	295.433	80.004	19.994	103.301	19.976	11.837	0.397
446.000	296.184	80.006	19.994	103.262	19.970	12.275	0.420
448.000	297.374	80.007	19.993	103.254	19.967	12.533	0.453
450.000	298.355	80.007	19.994	103.278	19.959	13.094	0.459
452.000	299.355	80.008	19.993	103.285	19.954	13.473	0.502
454.000	300.363	80.008	19.994	103.283	19.949	13.883	0.500
456.000	301.294	80.006	19.993	103.299	19.945	14.200	0.484
458.000	302.292	80.007	19.994	103.295	19.944	14.257	0.470
460.000	303.241	80.005	19.993	103.298	19.936	14.897	0.504
462.001	304.223	80.005	19.995	103.298	19.930	15.385	0.467
464.000	305.165	80.005	19.994	103.295	19.923	15.941	0.421
466.000	306.151	80.004	19.994	103.288	19.917	16.342	0.477
468.000	307.100	80.005	19.994	103.296	19.908	17.076	0.484
470.001	308.072	80.005	19.994	103.304	19.902	17.555	0.478
472.000	309.066	80.005	19.994	103.298	19.898	17.871	0.507
474.000	310.052	80.006	19.995	103.327	19.887	18.656	0.486
476.000	310.999	80.004	19.995	103.333	19.881	19.142	0.493
478.000	311.994	80.003	19.996	103.328	19.872	19.867	0.479
480.000	312.998	80.005	19.995	103.333	19.862	20.620	0.503
482.000	313.985	80.003	19.994	103.334	19.854	21.239	0.501
484.000	315.005	80.004	19.994	103.335	19.843	22.129	0.524
486.000	316.000	80.005	19.994	103.332	19.834	22.821	0.466
488.000	316.995	80.003	19.994	103.331	19.824	23.583	0.490
490.000	318.027	80.006	19.994	103.348	19.813	24.460	0.522
492.000	319.034	80.004	19.994	103.350	19.794	25.871	0.507
494.000	320.052	80.006	19.994	103.336	19.784	26.681	0.487
496.000	321.093	80.005	19.994	103.357	19.769	27.817	0.514
498.000	322.107	80.003	19.996	103.362	19.751	29.256	0.523
500.000	323.118	80.003	19.996	103.355	19.736	30.428	0.498
502.000	324.179	80.004	19.994	103.371	19.713	32.170	0.539
504.000	325.186	80.004	19.996	103.369	19.700	33.192	0.523
506.000	326.234	80.004	19.994	103.388	19.679	34.860	0.537
508.000	327.259	80.005	19.994	103.408	19.657	36.484	0.504
510.000	328.294	80.005	19.994	103.436	19.639	37.879	0.526
512.000	329.326	80.006	19.994	103.428	19.618	39.591	0.518
514.000	330.324	80.005	19.995	103.432	19.597	41.180	0.510
516.000	331.357	80.005	19.994	103.555	19.574	42.929	0.499
518.000	332.411	80.006	19.994	103.488	19.544	45.308	0.480
520.000	333.435	80.004	19.994	103.425	19.515	47.520	0.508
522.000	334.473	80.004	19.994	103.460	19.486	49.801	0.504
524.000	335.543	80.006	19.994	103.508	19.452	52.449	0.498
526.000	336.530	80.006	19.993	103.503	19.417	55.154	0.496
528.000	337.551	80.006	19.994	103.506	19.379	58.142	0.508
530.000	338.609	80.007	19.995	103.543	19.340	61.182	0.523
532.000	339.708	80.006	19.994	103.545	19.295	64.643	0.514
534.000	340.712	80.007	19.993	103.556	19.251	68.059	0.515
536.000	341.708	80.006	19.993	103.562	19.210	71.304	0.536
538.001	342.717	80.006	19.994	103.586	19.164	74.906	0.507
540.000	343.707	80.006	19.994	103.623	19.115	78.685	0.487
542.000	344.761	80.005	19.994	103.623	19.061	82.820	0.528
544.000	345.774	80.005	19.994	103.642	19.009	86.879	0.511
546.001	346.804	80.007	19.994	103.679	18.961	90.610	0.521
548.000	347.800	80.004	19.994	103.725	18.911	94.504	0.510
550.000	348.797	80.001	19.994	103.711	18.862	98.259	0.482
552.000	349.826	80.006	19.994	103.693	18.817	101.722	0.493
554.000	350.859	80.005	19.994	103.685	18.775	104.935	0.533
556.000	351.839	80.005	19.994	103.681	18.737	107.920	0.496
558.000	352.884	80.005	19.994	103.684	18.711	109.857	0.521
560.000	353.937	80.003	19.995	103.684	18.686	111.832	0.519
562.000	354.917	80.003	19.994	103.655	18.676	112.592	0.501
564.000	355.954	80.007	19.995	103.637	18.674	112.659	0.536
566.001	356.961	80.006	19.995	103.609	18.681	112.092	0.517
568.000	358.016	80.004	19.994	103.599	18.699	110.704	0.526
570.000	359.021	80.006	19.995	103.571	18.729	108.280	0.505
572.000	360.027	80.002	19.994	103.568	18.770	105.153	0.518
574.000	361.026	80.003	19.994	103.552	18.816	101.522	0.489
576.001	362.072	80.005	19.995	103.526	18.868	97.506	0.530
578.000	363.040	80.006	19.994	103.483	18.935	92.363	0.507
580.000	364.084	80.004	19.994	103.447	19.001	87.238	0.542
582.000	365.116	80.004	19.994	103.404	19.071	81.806	0.517
584.000	366.137	80.003	19.995	103.387	19.144	76.157	0.519
586.000	367.125	80.006	19.995	103.364	19.218	70.382	0.509
588.000	368.107	80.003	19.995	103.363	19.293	64.586	0.480
590.000	369.197	80.006	19.994	103.373	19.359	59.491	0.508
592.000	370.178	80.007	19.995	103.369	19.429	54.076	0.509
594.000	371.206	80.006	19.995	103.361	19.489	49.493	0.516
596.000	372.242	80.006	19.995	103.315	19.537	45.764	0.496
598.000	373.300	80.005	19.995	103.311	19.590	41.642	0.538
600.000	374.291	80.005	19.996	103.296	19.628	38.720	0.503
602.000	375.305	80.005	19.995	103.307	19.660	36.245	0.527
604.000	376.334	80.005	19.994	103.321	19.691	33.864	0.501
606.000	377.359	80.005	19.994	103.315	19.712	32.247	0.511
608.000	378.382	80.007	19.994	103.296	19.732	30.701	0.517
610.000	379.378	80.007	19.993	103.292	19.750	29.240	0.504
612.000	380.377	80.009	19.993	103.277	19.765	28.116	0.524
614.000	381.390	80.008	19.994	103.293	19.773	27.486	0.482
616.000	382.400	80.008	19.993	103.292	19.783	26.696	0.484
618.000	383.405	80.008	19.993	103.311	19.788	26.321	0.501
620.000	384.372	80.006	19.993	103.303	19.788	26.351	0.465
622.000	385.382	80.007	19.992	103.299	19.792	26.019	0.470
624.000	386.414	80.005	19.992	103.304	19.791	26.071	0.527
626.000	387.385	80.004	19.994	103.291	19.791	26.121	0.510
628.000	388.386	80.005	19.993	103.296	19.793	25.977	0.506
630.000	389.393	80.003	19.993	103.301	19.792	26.023	0.517
632.000	390.325	80.005	19.994	103.296	19.784	26.627	0.486
634.000	391.338	80.005	19.995	103.271	19.784	26.639	0.476
636.000	392.326	80.004	19.994	103.279	19.782	26.811	0.502
638.000	393.338	80.005	19.995	103.326	19.778	27.113	0.489
640.000	394.334	80.005	19.993	103.338	19.778	27.087	0.482
642.000	395.382	80.005	19.995	103.323	19.772	27.565	0.529
644.000	396.347	80.006	19.995	103.303	19.767	27.989	0.505
646.000	397.309	80.004	19.993	103.320	19.760	28.527	0.480
648.000	398.343	80.007	19.993	103.330	19.756	28.829	0.509
650.000	399.358	80.006	19.994	103.332	19.748	29.422	0.503
652.000	400.368	80.006	19.994	103.333	19.742	29.891	0.509
654.000	401.353	80.005	19.994	103.308	19.732	30.640	0.509
656.000	402.343	80.004	19.994	103.312	19.727	31.039	0.497
658.000	403.337	80.006	19.995	103.345	19.724	31.331	0.505
660.000	404.337	80.004	19.994	103.339	19.714	32.073	0.475
662.000	405.363	80.004	19.994	103.333	19.708	32.529	0.509
664.000	406.320	80.005	19.995	103.325	19.703	32.955	0.470
666.000	407.344	80.006	19.995	103.334	19.694	33.635	0.486
668.000	408.343	80.005	19.995	103.337	19.684	34.369	0.485
670.000	409.341	80.005	19.995	103.351	19.676	35.043	0.483
672.000	410.376	80.007	19.994	103.358	19.671	35.438	0.521
674.000	411.403	80.006	19.994	103.350	19.663	36.026	0.523
676.000	412.370	80.005	19.994	103.335	19.651	36.944	0.479
678.000	413.408	80.007	19.995	103.349	19.649	37.123	0.496
680.000	414.374	80.004	19.995	103.360	19.645	37.411	0.519
682.000	415.404	80.007	19.994	103.361	19.643	37.560	0.508
684.000	416.391	80.005	19.995	103.359	19.634	38.275	0.456
686.000	417.404	80.006	19.995	103.358	19.633	38.349	0.490
688.000	418.421	80.005	19.997	103.364	19.630	38.574	0.510
690.000	419.410	80.004	19.996	103.342	19.629	38.651	0.537
692.000	420.440	80.004	19.995	103.355	19.628	38.693	0.496
694.000	421.449	80.006	19.994	103.354	19.632	38.426	0.488
696.000	422.462	80.006	19.996	103.363	19.635	38.205	0.522
698.000	423.499	80.007	19.995	103.348	19.635	38.202	0.503
700.000	424.486	80.007	19.993	103.346	19.643	37.592	0.520
702.000	425.485	80.007	19.994	103.359	19.653	36.804	0.487
704.000	426.494	80.006	19.995	103.358	19.655	36.638	0.498
706.000	427.503	80.004	19.993	103.354	19.670	35.461	0.498
708.000	428.532	80.005	19.993	103.337	19.676	34.992	0.552
710.000	429.524	80.006	19.994	103.343	19.688	34.048	0.490
712.000	430.518	80.004	19.994	103.337	19.701	33.087	0.518
714.000	431.565	80.006	19.995	103.330	19.717	31.851	0.510
716.000	432.551	80.004	19.995	103.326	19.736	30.334	0.510
718.000	433.617	80.004	19.994	103.313	19.751	29.184	0.511
720.000	434.646	80.004	19.994	103.330	19.769	27.793	0.550
722.000	435.646	80.006	19.995	103.316	19.788	26.368	0.505
724.000	436.668	80.006	19.994	103.321	19.802	25.223	0.491
726.000	437.671	80.006	19.993	103.304	19.817	24.070	0.510
728.000	438.653	80.005	19.994	103.301	19.838	22.464	0.513
730.000	439.682	80.003	19.993	103.291	19.850	21.535	0.533
732.000	440.695	80.005	19.994	103.280	19.865	20.401	0.537
734.000	441.684	80.003	19.993	103.286	19.878	19.352	0.500
736.000	442.705	80.005	19.994	103.289	19.892	18.293	0.508
738.000	443.710	80.003	19.994	103.287	19.901	17.562	0.488
740.000	444.722	80.006	19.994	103.266	19.913	16.708	0.507
742.000	445.738	80.004	19.994	103.259	19.927	15.569	0.534
744.000	446.727	80.005	19.993	103.254	19.938	14.749	0.470
746.000	447.735	80.005	19.995	103.255	19.950	13.843	0.513
748.000	448.743	80.006	19.995	103.257	19.956	13.375	0.481
750.000	449.768	80.006	19.995	103.257	19.968	12.392	0.491
752.000	450.780	80.008	19.995	103.250	19.976	11.765	0.508
754.000	451.804	80.006	19.994	103.253	19.983	11.266	0.495
756.000	452.791	80.006	19.994	103.232	19.990	10.684	0.483
758.000	453.840	80.008	19.995	103.217	19.997	10.147	0.536
760.000	454.877	80.007	19.995	103.225	20.004	9.679	0.495
762.000	455.905	80.007	19.994	103.231	20.008	9.343	0.535
764.000	456.912	80.004	19.994	103.219	20.013	8.978	0.515
766.000	457.955	80.006	19.995	103.217	20.016	8.706	0.514
768.000	458.954	80.007	19.995	103.205	20.020	8.431	0.512
770.000	460.003	80.007	19.995	103.240	20.028	7.803	0.510
772.000	461.009	80.006	19.994	103.248	20.033	7.411	0.528
774.000	461.983	80.004	19.995	103.218	20.041	6.811	0.500
776.000	463.019	80.006	19.994	103.220	20.044	6.562	0.489
778.000	464.008	80.006	19.994	103.227	20.046	6.414	0.507
780.000	465.044	80.006	19.993	103.216	20.047	6.291	0.543
782.000	465.983	80.005	19.995	103.214	20.050	6.086	0.481
784.000	467.082	80.007	19.995	103.216	20.053	5.869	0.513
786.000	468.082	80.006	19.995	103.215	20.059	5.394	0.508
788.000	469.110	80.006	19.995	103.217	20.059	5.390	0.459
790.000	470.172	80.003	19.995	103.216	20.061	5.246	0.537
792.000	471.188	80.004	19.995	103.204	20.064	5.027	0.522
794.000	472.166	80.003	19.995	103.216	20.067	4.754	0.497
796.001	473.165	80.004	19.994	103.211	20.069	4.601	0.517
798.000	474.219	80.004	19.993	103.196	20.066	4.834	0.514
800.000	475.274	80.005	19.995	103.197	20.069	4.580	0.521
802.000	476.261	80.005	19.994	103.191	20.071	4.472	0.529
804.000	477.292	80.004	19.993	103.214	20.074	4.254	0.482
806.000	478.285	80.003	19.994	103.200	20.070	4.503	0.510
808.000	479.304	80.006	19.994	103.207	20.071	4.432	0.479
810.000	480.322	80.005	19.994	103.210	20.074	4.213	0.493
812.000	481.334	80.004	19.993	103.194	20.077	4.038	0.477
814.000	482.353	80.003	19.996	103.192	20.081	3.688	0.507
816.001	483.374	80.004	19.994	103.187	20.075	4.172	0.544
818.000	484.378	80.003	19.995	103.180	20.077	3.988	0.507
820.001	485.389	80.003	19.994	103.195	20.081	3.699	0.503
822.000	486.398	80.004	19.994	103.213	20.081	3.682	0.493
824.000	487.469	80.006	19.994	103.202	20.080	3.801	0.524
826.000	488.479	80.005	19.995	103.201	20.084	3.435	0.534
828.000	489.549	80.005	19.994	103.188	20.085	3.378	0.549
830.000	490.533	80.005	19.994	103.186	20.084	3.468	0.510
832.000	491.566	80.006	19.993	103.198	20.084	3.445	0.525
834.000	492.590	80.006	19.993	103.205	20.090	2.971	0.523
836.000	493.620	80.009	19.993	103.212	20.087	3.210	0.547
838.000	494.662	80.007	19.994	103.213	20.090	2.959	0.522
840.000	495.693	80.008	19.994	103.195	20.088	3.187	0.523
842.000	496.725	80.007	19.994	103.189	20.086	3.297	0.523
844.000	497.750	80.006	19.994	103.188	20.091	2.908	0.525
846.000	498.773	80.006	19.993	103.184	20.089	3.037	0.536
848.000	499.785	80.005	19.994	103.180	20.085	3.379	0.535
850.000	500.823	80.005	19.995	103.185	20.088	3.113	0.528
852.000	501.840	80.005	19.995	103.181	20.087	3.212	0.502
854.000	502.892	80.004	19.994	103.191	20.090	3.028	0.509
856.000	503.864	80.005	19.994	103.198	20.086	3.290	0.511
858.000	504.862	80.006	19.995	103.193	20.083	3.542	0.517
860.000	505.879	80.006	19.994	103.185	20.086	3.333	0.504
862.000	506.915	80.005	19.993	103.181	20.082	3.602	0.523
864.000	507.934	80.006	19.994	103.173	20.089	3.046	0.492
866.000	508.950	80.007	19.994	103.175	20.081	3.664	0.532
868.000	509.920	80.007	19.994	103.179	20.086	3.332	0.486
870.000	510.983	80.005	19.994	103.193	20.086	3.288	0.501
872.000	511.966	80.006	19.994	103.206	20.088	3.182	0.500
874.000	512.967	80.004	19.995	103.200	20.085	3.398	0.498
876.000	513.999	80.006	19.994	103.186	20.089	3.058	0.494
878.000	515.031	80.004	19.995	103.176	20.085	3.406	0.482
880.000	516.093	80.002	19.995	103.179	20.085	3.394	0.502
882.000	517.083	80.006	19.995	103.176	20.083	3.544	0.488
884.000	518.111	80.005	19.995	103.173	20.086	3.280	0.507
886.000	519.137	80.006	19.996	103.176	20.081	3.709	0.537
888.000	520.151	80.004	19.995	103.174	20.087	3.200	0.497
890.000	521.180	80.007	19.995	103.177	20.085	3.417	0.494
892.000	522.164	80.005	19.994	103.178	20.086	3.269	0.518
894.000	523.182	80.005	19.995	103.176	20.085	3.401	0.525
896.000	524.188	80.005	19.994	103.178	20.085	3.384	0.514
898.000	525.153	80.004	19.996	103.181	20.083	3.553	0.488
900.000	526.188	80.004	19.993	103.188	20.083	3.535	0.490
902.000	527.236	80.003	19.994	103.188	20.081	3.692	0.520
904.000	528.210	80.005	19.994	103.182	20.080	3.793	0.504
906.000	529.184	80.005	19.994	103.193	20.079	3.815	0.500
908.000	530.236	80.004	19.993	103.196	20.082	3.614	0.537
910.000	531.239	80.005	19.994	103.188	20.079	3.842	0.513
912.000	532.224	80.005	19.996	103.179	20.078	3.940	0.497
914.000	533.226	80.005	19.994	103.182	20.080	3.756	0.488
916.000	534.252	80.006	19.994	103.196	20.079	3.809	0.506
918.000	535.265	80.004	19.994	103.189	20.082	3.628	0.517
920.000	536.311	80.005	19.993	103.182	20.082	3.607	0.514
922.000	537.291	80.007	19.993	103.199	20.086	3.307	0.485
924.000	538.293	80.007	19.993	103.190	20.085	3.385	0.504
926.000	539.293	80.005	19.993	103.199	20.083	3.502	0.474
928.000	540.326	80.004	19.994	103.182	20.081	3.692	0.498
930.000	541.340	80.006	19.994	103.180	20.079	3.878	0.526
932.000	542.361	80.007	19.994	103.180	20.083	3.551	0.512
934.000	543.368	80.005	19.994	103.177	20.079	3.874	0.500
936.000	544.362	80.006	19.995	103.176	20.082	3.599	0.481
938.000	545.353	80.006	19.994	103.180	20.080	3.768	0.505
940.000	546.366	80.006	19.995	103.187	20.080	3.797	0.493
942.000	547.347	80.008	19.995	103.198	20.082	3.647	0.473
944.000	548.391	80.006	19.994	103.188	20.078	3.954	0.496
946.000	549.383	80.007	19.995	103.190	20.086	3.309	0.485
948.000	550.418	80.009	19.994	103.174	20.081	3.660	0.510
950.000	551.408	80.007	19.995	103.174	20.083	3.511	0.483
952.000	552.391	80.007	19.994	103.177	20.082	3.635	0.486
954.000	553.418	80.006	19.994	103.175	20.075	4.184	0.483
956.000	554.435	80.005	19.995	103.174	20.077	3.975	0.515
958.000	555.453	80.004	19.994	103.179	20.076	4.068	0.540
960.000	556.439	80.004	19.994	103.193	20.076	4.041	0.502
962.000	557.453	80.005	19.995	103.191	20.075	4.146	0.504
964.000	558.472	80.003	19.994	103.179	20.075	4.174	0.505
966.000	559.421	80.005	19.995	103.180	20.075	4.184	0.503
968.000	560.418	80.004	19.994	103.191	20.078	3.916	0.524
970.000	561.462	80.004	19.995	103.187	20.079	3.810	0.505
972.000	562.438	80.003	19.995	103.182	20.077	4.024	0.510
974.001	563.438	80.004	19.995	103.183	20.077	3.979	0.524
976.000	564.385	80.004	19.995	103.176	20.066	4.825	0.474
978.000	565.377	80.004	19.994	103.178	20.075	4.162	0.506
980.000	566.341	80.004	19.995	103.180	20.073	4.284	0.506
982.000	567.329	80.003	19.995	103.180	20.075	4.164	0.473
984.000	568.270	80.003	19.994	103.181	20.074	4.203	0.472
986.000	569.308	80.004	19.995	103.183	20.074	4.239	0.501
988.000	570.255	80.003	19.994	103.192	20.074	4.235	0.515
990.000	571.230	80.005	19.994	103.196	20.075	4.188	0.488
992.000	572.192	80.006	19.994	103.201	20.070	4.507	0.474
994.000	573.170	80.004	19.994	103.183	20.073	4.308	0.476
996.000	574.202	80.004	19.994	103.183	20.073	4.333	0.495
998.000	575.236	80.006	19.994	103.178	20.072	4.372	0.470
1000.000	576.248	80.006	19.994	103.199	20.079	3.870	0.492
1002.000	577.245	80.008	19.994	103.236	20.078	3.919	0.514
1004.000	578.220	80.006	19.993	103.201	20.073	4.290	0.467
1006.000	579.222	80.004	19.994	103.208	20.075	4.127	0.469
1008.000	580.234	80.006	19.995	103.185	20.070	4.512	0.490
1010.000	581.231	80.007	19.995	103.192	20.076	4.063	0.496
1012.000	582.269	80.005	19.993	103.205	20.070	4.513	0.529
1014.000	583.289	80.006	19.994	103.188	20.070	4.530	0.480
1016.000	584.300	80.005	19.994	103.190	20.073	4.282	0.507
1018.000	585.340	80.005	19.993	103.184	20.074	4.263	0.533
1020.000	586.351	80.006	19.992	103.203	20.072	4.398	0.486
1022.000	587.371	80.007	19.994	103.212	20.071	4.463	0.502
1024.000	588.393	80.008	19.995	103.212	20.066	4.822	0.506
1026.000	589.443	80.006	19.992	103.209	20.067	4.800	0.536
1028.001	590.487	80.008	19.994	103.188	20.067	4.796	0.532
1030.000	591.512	80.007	19.994	103.179	20.069	4.592	0.512
1032.000	592.502	80.006	19.993	103.181	20.070	4.513	0.512
1034.000	593.533	80.006	19.994	103.184	20.068	4.708	0.527
1036.000	594.568	80.004	19.994	103.180	20.061	5.212	0.517
1038.000	595.579	80.006	19.994	103.196	20.069	4.605	0.505
1040.000	596.624	80.004	19.993	103.207	20.060	5.303	0.535
1042.000	597.653	80.003	19.995	103.217	20.070	4.578	0.514
1044.000	598.683	80.004	19.995	103.214	20.058	5.481	0.531
1046.000	599.731	80.003	19.994	103.201	20.067	4.753	0.539
1048.000	600.732	80.003	19.994	103.184	20.063	5.067	0.498
1050.001	601.764	80.005	19.995	103.200	20.062	5.190	0.502
1052.001	602.732	80.004	19.996	103.189	20.060	5.311	0.508
1054.001	603.781	80.004	19.994	103.191	20.058	5.444	0.536
1056.000	604.776	80.005	19.994	103.200	20.060	5.292	0.495
1058.000	605.726	80.003	19.995	103.183	20.058	5.474	0.491
1060.000	606.754	80.006	19.995	103.177	20.062	5.142	0.492
1062.000	607.775	80.004	19.995	103.176	20.065	4.922	0.505
1064.000	608.778	80.005	19.995	103.188	20.065	4.917	0.506
1066.001	609.788	80.004	19.994	103.178	20.070	4.546	0.504
1068.000	610.765	80.003	19.995	103.194	20.070	4.519	0.505
1070.000	611.754	80.005	19.996	103.177	20.071	4.438	0.507
1072.000	612.780	80.002	19.995	103.200	20.077	4.005	0.528
1074.000	613.800	80.004	19.995	103.179	20.075	4.167	0.495
1076.000	614.771	80.005	19.996	103.179	20.077	4.030	0.501
1078.000	615.781	80.004	19.995	103.191	20.078	3.931	0.497
1080.000	616.730	80.005	19.994	103.197	20.077	3.981	0.464
1082.000	617.704	80.006	19.994	103.171	20.080	3.795	0.484
1084.000	618.640	80.007	19.992	103.181	20.080	3.785	0.471
1086.000	619.655	80.005	19.993	103.175	20.078	3.937	0.492
1088.000	620.649	80.006	19.993	103.185	20.079	3.856	0.496
1090.000	621.644	80.006	19.993	103.176	20.072	4.359	0.473
1092.000	622.638	80.007	19.993	103.172	20.085	3.383	0.522
1094.000	623.656	80.006	19.994	103.181	20.081	3.668	0.511
1096.000	624.657	80.004	19.994	103.179	20.081	3.681	0.482
1098.001	625.653	80.004	19.994	103.176	20.077	3.962	0.502
1100.000	626.678	80.006	19.995	103.174	20.081	3.690	0.525
1102.000	627.675	80.006	19.993	103.178	20.081	3.698	0.520
1104.000	628.610	80.006	19.992	103.174	20.079	3.808	0.478
1106.000	629.726	80.007	19.993	103.177	20.079	3.838	0.516
1108.000	630.761	80.006	19.993	103.180	20.077	4.028	0.522
1110.001	631.815	80.008	19.993	103.181	20.078	3.899	0.531
1112.001	632.835	80.008	19.994	103.179	20.077	3.973	0.544
1114.000	633.939	80.007	19.992	103.182	20.077	3.989	0.527
1116.000	635.029	80.007	19.993	103.181	20.077	4.011	0.550
1118.001	636.130	80.005	19.993	103.184	20.079	3.829	0.549
1120.000	637.208	80.005	19.993	103.182	20.081	3.723	0.552
1122.001	638.265	80.006	19.994	103.178	20.079	3.850	0.544
1124.000	639.329	80.005	19.994	103.171	20.082	3.630	0.553
1126.000	640.456	80.005	19.994	103.173	20.078	3.931	0.533
1128.000	641.572	80.005	19.994	103.170	20.078	3.888	0.545
1130.000	642.615	80.006	19.995	103.174	20.080	3.783	0.521
1132.001	643.712	80.004	19.994	103.176	20.082	3.641	0.536
1134.001	644.789	80.005	19.995	103.174	20.082	3.607	0.523
1136.000	645.876	80.005	19.995	103.176	20.083	3.574	0.548
1138.001	646.991	80.006	19.994	103.177	20.084	3.459	0.559
1140.001	648.070	80.005	19.994	103.175	20.084	3.446	0.541
1142.000	649.125	80.005	19.994	103.175	20.082	3.580	0.519
1144.000	650.205	80.006	19.994	103.175	20.083	3.529	0.539
1146.000	651.302	80.005	19.994	103.186	20.079	3.828	0.537
1148.000	652.400	80.005	19.994	103.175	20.082	3.622	0.528
1150.000	653.492	80.005	19.995	103.173	20.080	3.763	0.550
1152.000	654.580	80.005	19.995	103.174	20.084	3.482	0.566
1154.000	655.724	80.003	19.994	103.171	20.078	3.914	0.595
1156.000	656.762	80.005	19.995	103.168	20.080	3.770	0.541
1158.000	657.848	80.004	19.994	103.166	20.082	3.645	0.549
1160.000	658.866	80.005	19.995	103.177	20.080	3.738	0.525
1162.000	659.974	80.005	19.995	103.163	20.082	3.649	0.539
1164.000	660.992	80.005	19.995	103.173	20.085	3.413	0.523
1166.000	662.073	80.005	19.995	103.182	20.085	3.390	0.509
1168.000	663.069	80.005	19.995	103.180	20.081	3.718	0.478
1170.000	664.119	80.004	19.994	103.159	20.080	3.759	0.522
1172.000	665.110	80.006	19.995	103.162	20.078	3.942	0.473
1174.000	666.099	80.004	19.995	103.170	20.081	3.672	0.500
1176.000	667.144	80.004	19.994	103.174	20.084	3.489	0.536
1178.000	668.140	80.005	19.993	103.184	20.084	3.476	0.512
1180.000	669.182	80.005	19.994	103.190	20.077	3.960	0.503
1182.000	670.189	80.005	19.994	103.155	20.083	3.565	0.536
1184.000	671.199	80.006	19.993	103.165	20.084	3.450	0.517
1186.000	672.243	80.005	19.995	103.170	20.081	3.690	0.544
1188.000	673.266	80.007	19.994	103.162	20.084	3.454	0.507
1190.000	674.331	80.007	19.994	103.169	20.087	3.220	0.524
1192.000	675.354	80.005	19.993	103.174	20.089	3.089	0.563
1194.000	676.357	80.007	19.994	103.164	20.081	3.723	0.479
1196.000	677.359	80.007	19.994	103.138	20.088	3.140	0.466
1198.000	678.347	80.007	19.995	103.133	20.086	3.273	0.475
1200.000	679.366	80.007	19.994	103.148	20.085	3.378	0.536
1202.000	680.399	80.005	19.994	103.162	20.084	3.469	0.504
1204.001	681.433	80.007	19.994	103.157	20.082	3.611	0.507
1206.000	682.413	80.005	19.994	103.169	20.084	3.495	0.483
1208.000	683.390	80.006	19.994	103.171	20.078	3.901	0.476
1210.000	684.364	80.005	19.994	103.149	20.081	3.652	0.443
1212.000	685.390	80.006	19.993	103.151	20.078	3.899	0.484
1214.000	686.325	80.007	19.994	103.148	20.081	3.676	0.495
1216.000	687.331	80.006	19.994	103.155	20.081	3.663	0.476
1218.000	688.293	80.006	19.993	103.174	20.080	3.737	0.489
1220.000	689.325	80.006	19.993	103.182	20.086	3.338	0.512
1222.000	690.223	80.006	19.994	103.191	20.082	3.588	0.467
1224.000	691.249	80.004	19.994	103.151	20.085	3.344	0.501
1226.000	692.197	80.005	19.994	103.143	20.079	3.862	0.488
1228.000	693.208	80.004	19.995	103.143	20.081	3.669	0.486
1230.000	694.173	80.004	19.995	103.150	20.082	3.636	0.479
1232.000	695.128	80.004	19.995	103.168	20.077	4.025	0.463
1234.000	696.114	80.004	19.996	103.147	20.075	4.130	0.488
1236.000	697.093	80.005	19.995	103.139	20.074	4.194	0.491
1238.000	698.099	80.004	19.994	103.142	20.075	4.157	0.518
1240.000	699.056	80.004	19.994	103.145	20.079	3.877	0.480
1242.000	700.021	80.005	19.994	103.146	20.082	3.649	0.483
1244.000	701.052	80.004	19.994	103.151	20.078	3.904	0.516
1246.000	702.021	80.006	19.995	103.157	20.076	4.065	0.500
1248.000	702.990	80.005	19.994	103.149	20.075	4.126	0.509
1250.000	703.955	80.005	19.995	103.148	20.075	4.135	0.466
1252.000	704.960	80.005	19.994	103.148	20.072	4.391	0.508
1254.000	705.954	80.006	19.995	103.151	20.072	4.374	0.481
1256.000	706.931	80.006	19.995	103.159	20.079	3.822	0.473
1258.000	707.921	80.005	19.995	103.155	20.077	3.972	0.477
1260.000	708.908	80.005	19.995	103.153	20.077	3.962	0.499
1262.000	709.915	80.006	19.995	103.162	20.075	4.140	0.485
1264.000	710.898	80.005	19.996	103.171	20.077	3.979	0.513
1266.000	711.919	80.006	19.995	103.171	20.074	4.251	0.488
1268.000	712.924	80.006	19.994	103.164	20.079	3.848	0.528
1270.000	713.922	80.007	19.995	103.156	20.078	3.957	0.493
1272.000	714.944	80.006	19.993	103.166	20.075	4.132	0.508
1274.000	716.013	80.008	19.994	103.175	20.076	4.107	0.530
1276.000	717.047	80.008	19.994	103.171	20.072	4.414	0.516
1278.000	718.063	80.008	19.993	103.166	20.072	4.359	0.535
1280.000	719.114	80.008	19.994	103.156	20.075	4.162	0.519
1282.000	720.141	80.008	19.994	103.150	20.074	4.211	0.537
1284.000	721.173	80.006	19.994	103.147	20.071	4.486	0.554
1286.001	722.208	80.006	19.994	103.159	20.071	4.427	0.527
1288.000	723.241	80.006	19.994	103.168	20.074	4.214	0.538
1290.000	724.253	80.005	19.993	103.168	20.076	4.061	0.500
1292.000	725.303	80.005	19.994	103.164	20.082	3.640	0.516
1294.000	726.364	80.005	19.994	103.176	20.081	3.695	0.526
1296.000	727.391	80.004	19.995	103.173	20.077	4.007	0.507
1298.000	728.408	80.005	19.994	103.172	20.077	4.012	0.518
1300.000	729.489	80.006	19.993	103.171	20.076	4.094	0.537
1302.000	730.531	80.005	19.994	103.165	20.075	4.165	0.512
1304.000	731.597	80.006	19.993	103.151	20.080	3.748	0.540
1306.000	732.695	80.006	19.994	103.142	20.076	4.099	0.551
1308.000	733.704	80.005	19.993	103.146	20.071	4.435	0.490
1310.000	734.731	80.006	19.993	103.149	20.076	4.112	0.484
1312.000	735.738	80.005	19.993	103.153	20.077	3.991	0.504
1314.000	736.759	80.003	19.993	103.167	20.076	4.067	0.515
1316.000	737.818	80.005	19.994	103.172	20.079	3.829	0.508
1318.000	738.895	80.004	19.995	103.161	20.074	4.239	0.516
1320.000	739.945	80.005	19.994	103.173	20.075	4.145	0.521
1322.000	741.006	80.005	19.995	103.165	20.075	4.156	0.559
1324.000	742.060	80.005	19.995	103.161	20.076	4.040	0.536
1326.000	743.042	80.006	19.995	103.171	20.080	3.799	0.503
1326.500	743.358	80.006	19.994	103.172	20.079	3.872	0.557