File: 01_Data/TREX_Board/MCC/TREX_Board_30K_min_210609_R1.txt
Sample ID:	C:\MCC\MCC Cal\Test\TREX_Board\TREX_Board_30_1.txt
Sample Weight (mg):	4.91
Heating Rate (C/s):	0.5
Combustor Temp (C):	900
N2 Flow Rate (cc/min):	80
O2 Flow Rate (cc/min):	20
Calibration File:	C:\MCC\MCC Cal\Coeff1 JN10440_30_210304.txt.txt
T Correction Coefficients:	0	1.024463	0
Time Shift (s):	14
*
Time (s)	Temperature (C)	N2 flow rate (cc/min)	O2 flow rate (cc/min)	Flow Rate (cc/min)	Oxygen (%)	HRR (W/g)	Heating rate (C/s)
0.000	107.836	79.981	19.992	99.901	20.105	0.183	-0.006
2.000	107.862	79.981	19.992	99.906	20.108	0.010	0.007
4.000	107.864	79.982	19.993	99.912	20.107	0.021	-0.000
6.000	107.808	79.982	19.992	99.908	20.107	0.043	-0.032
8.000	107.868	79.982	19.993	99.912	20.108	-0.002	0.012
10.000	107.782	79.982	19.992	99.902	20.109	-0.103	-0.034
12.000	107.811	79.981	19.992	99.916	20.109	-0.067	-0.009
14.000	107.804	79.981	19.992	99.914	20.107	0.034	-0.009
16.000	107.801	79.980	19.991	99.918	20.106	0.117	-0.015
18.000	107.799	79.981	19.992	99.918	20.105	0.155	-0.010
20.000	107.844	79.981	19.992	99.921	20.102	0.395	0.006
22.000	107.826	79.982	19.992	99.944	20.103	0.307	-0.001
24.000	107.857	79.980	19.992	99.973	20.097	0.702	0.023
26.000	107.904	79.980	19.993	100.008	20.089	1.210	0.002
28.000	108.007	79.980	19.993	100.028	20.088	1.260	0.064
30.000	108.100	79.982	19.993	100.040	20.086	1.364	0.062
32.000	108.225	79.982	19.992	100.052	20.078	1.890	0.080
34.000	108.429	79.983	19.993	100.044	20.076	1.997	0.064
36.000	108.591	79.983	19.991	100.070	20.076	2.029	0.106
37.999	108.754	79.983	19.993	100.062	20.074	2.139	0.071
39.999	109.009	79.983	19.993	100.070	20.074	2.158	0.116
41.999	109.287	79.982	19.992	100.066	20.076	2.012	0.152
44.000	109.591	79.984	19.992	100.065	20.072	2.302	0.151
46.000	109.838	79.981	19.993	100.079	20.071	2.317	0.133
47.999	110.164	79.982	19.993	100.106	20.066	2.652	0.144
49.999	110.541	79.982	19.993	100.108	20.067	2.611	0.173
51.999	110.922	79.983	19.993	100.107	20.066	2.640	0.194
53.999	111.335	79.982	19.993	100.107	20.065	2.747	0.211
55.999	111.721	79.984	19.994	100.107	20.065	2.699	0.219
57.999	112.181	79.983	19.993	100.105	20.064	2.785	0.203
60.000	112.666	79.981	19.993	100.106	20.065	2.720	0.226
61.999	113.161	79.982	19.992	100.108	20.068	2.549	0.244
63.999	113.683	79.982	19.992	100.109	20.065	2.749	0.240
65.999	114.169	79.982	19.992	100.109	20.066	2.661	0.275
67.999	114.728	79.983	19.991	100.111	20.065	2.718	0.262
69.999	115.269	79.981	19.992	100.111	20.072	2.255	0.262
71.999	115.824	79.982	19.992	100.113	20.066	2.646	0.275
73.999	116.437	79.982	19.992	100.109	20.065	2.692	0.274
75.999	117.060	79.981	19.992	100.111	20.066	2.652	0.301
77.999	117.671	79.981	19.992	100.111	20.064	2.787	0.312
79.999	118.267	79.981	19.993	100.110	20.063	2.822	0.328
82.001	118.893	79.981	19.992	100.112	20.061	2.974	0.293
83.999	119.564	79.981	19.993	100.113	20.064	2.778	0.318
85.999	120.190	79.980	19.992	100.112	20.063	2.824	0.328
87.999	120.823	79.982	19.993	100.115	20.065	2.718	0.318
90.000	121.555	79.983	19.992	100.116	20.064	2.761	0.340
91.999	122.207	79.981	19.993	100.111	20.062	2.908	0.338
94.000	122.885	79.980	19.992	100.110	20.065	2.729	0.331
95.999	123.586	79.982	19.993	100.115	20.061	2.949	0.341
97.999	124.266	79.981	19.993	100.124	20.063	2.826	0.312
99.999	125.036	79.982	19.992	100.115	20.059	3.076	0.361
102.000	125.776	79.981	19.993	100.119	20.065	2.700	0.372
103.999	126.485	79.982	19.992	100.119	20.062	2.902	0.362
105.999	127.254	79.981	19.992	100.139	20.060	3.049	0.389
107.999	127.971	79.982	19.993	100.138	20.063	2.871	0.345
110.000	128.742	79.983	19.993	100.121	20.063	2.874	0.400
111.999	129.536	79.982	19.992	100.138	20.061	2.968	0.382
113.999	130.314	79.985	19.993	100.146	20.062	2.944	0.382
115.999	131.158	79.983	19.994	100.143	20.059	3.094	0.427
118.000	131.939	79.982	19.992	100.145	20.059	3.085	0.411
119.999	132.749	79.982	19.992	100.145	20.060	3.042	0.406
121.999	133.602	79.982	19.993	100.148	20.060	3.047	0.427
123.999	134.429	79.983	19.993	100.148	20.058	3.158	0.423
126.000	135.264	79.982	19.992	100.148	20.058	3.194	0.427
127.999	136.121	79.983	19.992	100.148	20.055	3.355	0.407
130.000	136.983	79.984	19.993	100.150	20.055	3.357	0.439
132.000	137.866	79.984	19.993	100.151	20.054	3.445	0.424
134.000	138.741	79.984	19.992	100.150	20.057	3.255	0.441
136.000	139.642	79.982	19.993	100.149	20.055	3.358	0.455
138.000	140.489	79.983	19.993	100.149	20.054	3.453	0.438
140.000	141.415	79.981	19.993	100.150	20.056	3.270	0.458
142.000	142.340	79.982	19.993	100.148	20.054	3.424	0.468
144.000	143.286	79.982	19.993	100.147	20.057	3.211	0.457
146.000	144.206	79.980	19.993	100.147	20.054	3.393	0.464
148.000	145.111	79.979	19.993	100.150	20.057	3.248	0.442
150.000	146.085	79.981	19.993	100.151	20.054	3.434	0.453
152.000	147.005	79.981	19.993	100.152	20.057	3.239	0.450
154.000	147.988	79.982	19.993	100.150	20.055	3.365	0.488
156.000	148.991	79.981	19.992	100.144	20.059	3.134	0.489
158.000	149.981	79.980	19.992	100.149	20.058	3.180	0.528
160.000	150.924	79.981	19.993	100.149	20.055	3.375	0.466
162.000	151.896	79.982	19.993	100.145	20.054	3.398	0.469
164.000	152.880	79.982	19.992	100.147	20.055	3.329	0.448
166.000	153.850	79.981	19.992	100.147	20.056	3.289	0.482
168.000	154.860	79.980	19.992	100.146	20.055	3.367	0.509
170.000	155.876	79.981	19.993	100.148	20.056	3.306	0.504
172.000	156.847	79.982	19.993	100.145	20.056	3.284	0.496
174.000	157.853	79.982	19.991	100.145	20.055	3.372	0.476
176.000	158.878	79.980	19.993	100.147	20.057	3.261	0.510
178.000	159.891	79.981	19.992	100.139	20.058	3.162	0.519
180.000	160.902	79.980	19.993	100.144	20.052	3.518	0.521
182.000	161.921	79.982	19.992	100.147	20.056	3.285	0.506
184.000	162.910	79.982	19.993	100.142	20.055	3.328	0.510
186.000	163.912	79.983	19.992	100.141	20.056	3.311	0.507
188.000	164.973	79.982	19.992	100.131	20.057	3.248	0.512
190.000	166.029	79.982	19.991	100.123	20.058	3.143	0.530
192.000	167.018	79.983	19.992	100.116	20.057	3.248	0.494
194.000	168.031	79.982	19.992	100.121	20.059	3.100	0.494
196.000	169.068	79.983	19.992	100.119	20.058	3.140	0.494
198.000	170.066	79.983	19.991	100.116	20.058	3.167	0.492
200.000	171.141	79.983	19.992	100.117	20.058	3.181	0.529
202.000	172.165	79.983	19.993	100.114	20.056	3.281	0.542
204.000	173.146	79.980	19.992	100.114	20.058	3.188	0.520
206.000	174.160	79.981	19.990	100.116	20.060	3.036	0.492
208.000	175.184	79.982	19.992	100.114	20.055	3.334	0.519
210.000	176.189	79.984	19.992	100.114	20.058	3.167	0.506
212.000	177.221	79.982	19.992	100.112	20.058	3.193	0.491
214.000	178.265	79.983	19.992	100.112	20.057	3.253	0.533
216.000	179.219	79.984	19.992	100.110	20.054	3.405	0.476
218.000	180.210	79.984	19.992	100.107	20.055	3.350	0.494
220.000	181.202	79.983	19.992	100.106	20.055	3.381	0.514
222.000	182.194	79.983	19.993	100.104	20.055	3.332	0.478
224.000	183.195	79.981	19.992	100.104	20.059	3.089	0.522
226.000	184.162	79.980	19.993	100.101	20.055	3.337	0.499
228.000	185.239	79.980	19.993	100.103	20.058	3.166	0.523
230.000	186.211	79.980	19.993	100.107	20.057	3.220	0.511
232.000	187.168	79.980	19.994	100.103	20.055	3.334	0.483
234.000	188.129	79.980	19.992	100.099	20.057	3.242	0.458
236.000	189.142	79.980	19.993	100.094	20.054	3.413	0.505
238.000	190.161	79.981	19.993	100.079	20.057	3.244	0.515
240.000	191.123	79.981	19.991	100.092	20.053	3.486	0.508
242.000	192.092	79.981	19.991	100.087	20.054	3.399	0.502
244.000	193.082	79.980	19.992	100.090	20.055	3.338	0.509
246.000	194.045	79.981	19.991	100.095	20.057	3.239	0.458
248.000	195.035	79.982	19.991	100.095	20.055	3.327	0.519
250.000	195.972	79.980	19.992	100.096	20.053	3.509	0.470
252.000	196.961	79.981	19.992	100.083	20.053	3.462	0.497
254.000	197.882	79.980	19.992	100.089	20.051	3.640	0.461
256.000	198.908	79.979	19.991	100.097	20.053	3.481	0.491
258.000	199.871	79.981	19.992	100.096	20.054	3.411	0.488
260.000	200.841	79.981	19.993	100.102	20.052	3.551	0.493
262.000	201.816	79.980	19.991	100.100	20.055	3.356	0.514
264.000	202.743	79.980	19.992	100.099	20.050	3.667	0.485
266.000	203.732	79.980	19.992	100.103	20.050	3.664	0.486
268.000	204.688	79.982	19.992	100.096	20.054	3.403	0.467
270.000	205.703	79.983	19.992	100.091	20.049	3.728	0.509
272.000	206.653	79.983	19.991	100.086	20.048	3.793	0.498
274.000	207.669	79.982	19.991	100.076	20.050	3.668	0.512
276.000	208.649	79.984	19.992	100.087	20.048	3.819	0.493
278.000	209.558	79.983	19.991	100.100	20.045	3.992	0.460
280.000	210.580	79.981	19.991	100.095	20.050	3.684	0.490
282.000	211.507	79.983	19.992	100.101	20.046	3.905	0.487
284.000	212.496	79.981	19.991	100.092	20.047	3.860	0.482
286.000	213.460	79.982	19.992	100.082	20.046	3.958	0.494
288.000	214.434	79.983	19.992	100.102	20.044	4.071	0.486
290.000	215.432	79.982	19.993	100.083	20.044	4.028	0.510
292.000	216.401	79.983	19.992	100.087	20.044	4.052	0.491
294.000	217.392	79.983	19.992	100.086	20.040	4.301	0.528
296.000	218.336	79.982	19.992	100.090	20.043	4.125	0.490
298.000	219.366	79.983	19.992	100.082	20.038	4.436	0.515
300.000	220.326	79.984	19.992	100.096	20.040	4.291	0.465
302.000	221.283	79.984	19.992	100.076	20.037	4.522	0.467
304.000	222.296	79.984	19.991	100.087	20.035	4.603	0.434
306.000	223.275	79.982	19.993	100.092	20.034	4.717	0.514
308.000	224.308	79.982	19.992	100.098	20.029	5.004	0.536
310.000	225.303	79.981	19.992	100.095	20.028	5.071	0.526
312.000	226.231	79.980	19.992	100.099	20.029	5.022	0.469
314.000	227.260	79.981	19.993	100.084	20.026	5.209	0.517
316.000	228.255	79.979	19.993	100.095	20.025	5.285	0.480
318.000	229.280	79.980	19.993	100.103	20.023	5.389	0.534
320.000	230.280	79.980	19.994	100.097	20.019	5.620	0.529
322.000	231.267	79.979	19.992	100.102	20.020	5.577	0.537
324.000	232.258	79.980	19.993	100.095	20.015	5.898	0.497
326.000	233.274	79.981	19.993	100.102	20.012	6.079	0.500
328.000	234.265	79.981	19.992	100.100	20.012	6.083	0.501
330.000	235.290	79.981	19.992	100.103	20.008	6.322	0.508
332.000	236.290	79.981	19.993	100.108	20.008	6.346	0.513
334.000	237.312	79.981	19.991	100.102	20.004	6.594	0.483
336.000	238.326	79.980	19.992	100.101	20.001	6.777	0.501
338.000	239.296	79.980	19.991	100.103	19.998	7.002	0.480
340.000	240.283	79.979	19.992	100.106	19.996	7.117	0.489
342.000	241.284	79.981	19.992	100.107	19.994	7.262	0.523
344.000	242.313	79.980	19.992	100.096	19.988	7.601	0.479
346.000	243.331	79.982	19.993	100.099	19.983	7.943	0.502
348.000	244.373	79.983	19.992	100.100	19.983	7.907	0.518
350.000	245.330	79.982	19.992	100.102	19.981	8.085	0.488
352.000	246.365	79.983	19.992	100.100	19.976	8.404	0.519
354.000	247.387	79.984	19.993	100.102	19.972	8.665	0.532
356.000	248.346	79.982	19.991	100.107	19.966	9.012	0.489
358.000	249.389	79.982	19.992	100.106	19.962	9.245	0.519
360.000	250.408	79.981	19.992	100.105	19.961	9.364	0.521
362.000	251.428	79.983	19.991	100.104	19.952	9.900	0.495
364.000	252.448	79.981	19.992	100.104	19.950	10.015	0.502
366.000	253.434	79.981	19.991	100.109	19.945	10.324	0.516
368.000	254.455	79.982	19.992	100.108	19.939	10.725	0.512
370.000	255.456	79.982	19.991	100.108	19.935	11.010	0.524
372.000	256.438	79.982	19.992	100.108	19.929	11.397	0.498
374.000	257.440	79.982	19.993	100.108	19.922	11.795	0.514
376.000	258.459	79.983	19.993	100.107	19.924	11.716	0.493
378.000	259.443	79.983	19.991	100.109	19.917	12.125	0.481
380.000	260.424	79.983	19.992	100.110	19.910	12.560	0.502
382.000	261.406	79.982	19.992	100.110	19.904	12.935	0.453
384.000	262.397	79.980	19.993	100.108	19.896	13.473	0.495
386.000	263.446	79.980	19.992	100.114	19.891	13.781	0.532
388.000	264.403	79.980	19.992	100.111	19.886	14.141	0.480
390.000	265.427	79.980	19.993	100.118	19.880	14.477	0.498
392.000	266.473	79.980	19.992	100.119	19.875	14.806	0.508
394.000	267.404	79.980	19.991	100.116	19.870	15.109	0.474
396.000	268.388	79.980	19.992	100.114	19.864	15.489	0.480
398.000	269.402	79.981	19.992	100.116	19.860	15.779	0.507
400.000	270.405	79.979	19.992	100.121	19.855	16.104	0.540
402.000	271.439	79.980	19.993	100.114	19.850	16.398	0.496
404.000	272.429	79.981	19.993	100.116	19.841	16.946	0.507
406.000	273.391	79.980	19.993	100.120	19.840	17.054	0.460
408.000	274.389	79.981	19.994	100.122	19.829	17.766	0.522
410.000	275.400	79.981	19.994	100.128	19.827	17.844	0.518
412.000	276.349	79.981	19.993	100.122	19.814	18.707	0.496
414.000	277.351	79.980	19.992	100.103	19.814	18.682	0.508
416.000	278.388	79.980	19.992	100.067	19.809	19.002	0.535
418.000	279.316	79.980	19.993	100.178	19.808	19.059	0.470
420.000	280.291	79.980	19.993	100.184	19.804	19.335	0.480
422.000	281.268	79.981	19.991	100.139	19.799	19.636	0.483
424.000	282.264	79.981	19.993	100.143	19.796	19.817	0.495
426.000	283.256	79.980	19.991	100.145	19.793	20.031	0.501
428.000	284.225	79.982	19.992	100.146	19.792	20.110	0.495
430.000	285.251	79.981	19.993	100.136	19.784	20.606	0.522
432.000	286.238	79.983	19.993	100.130	19.781	20.812	0.507
434.000	287.236	79.983	19.991	100.144	19.775	21.166	0.512
436.000	288.221	79.981	19.992	100.144	19.775	21.174	0.522
438.000	289.213	79.982	19.993	100.145	19.769	21.544	0.526
440.000	290.189	79.982	19.992	100.142	19.766	21.727	0.450
442.000	291.212	79.983	19.992	100.142	19.766	21.751	0.472
444.000	292.239	79.982	19.991	100.146	19.763	21.924	0.498
446.000	293.225	79.983	19.991	100.143	19.760	22.108	0.534
448.000	294.215	79.981	19.992	100.145	19.760	22.164	0.485
450.000	295.252	79.983	19.992	100.146	19.763	21.972	0.485
452.000	296.186	79.983	19.991	100.139	19.756	22.406	0.478
454.000	297.193	79.983	19.991	100.144	19.753	22.556	0.512
456.000	298.183	79.981	19.991	100.090	19.755	22.464	0.468
458.000	299.242	79.984	19.991	100.118	19.755	22.428	0.524
460.000	300.205	79.983	19.991	100.209	19.752	22.621	0.482
462.000	301.216	79.983	19.991	100.142	19.747	22.931	0.514
464.000	302.196	79.982	19.992	100.141	19.746	23.042	0.510
466.000	303.249	79.981	19.992	100.149	19.743	23.209	0.506
468.000	304.233	79.980	19.993	100.143	19.740	23.389	0.512
470.000	305.261	79.982	19.993	100.138	19.734	23.766	0.511
472.000	306.281	79.982	19.994	100.137	19.736	23.648	0.492
474.000	307.305	79.981	19.992	100.146	19.738	23.512	0.471
476.000	308.324	79.980	19.991	100.144	19.729	24.082	0.524
478.000	309.352	79.981	19.991	100.144	19.727	24.253	0.524
480.000	310.324	79.982	19.993	100.144	19.722	24.561	0.507
482.000	311.319	79.981	19.990	100.144	19.722	24.549	0.508
484.000	312.371	79.982	19.992	100.145	19.719	24.722	0.521
486.000	313.378	79.983	19.993	100.146	19.718	24.821	0.494
488.000	314.395	79.981	19.993	100.146	19.713	25.146	0.505
490.000	315.419	79.981	19.993	100.146	19.711	25.226	0.510
492.000	316.413	79.980	19.993	100.146	19.709	25.405	0.523
494.000	317.437	79.980	19.993	100.155	19.701	25.866	0.516
496.000	318.481	79.980	19.994	100.151	19.700	25.956	0.531
498.000	319.460	79.979	19.995	100.143	19.691	26.539	0.486
500.000	320.455	79.980	19.993	100.148	19.691	26.524	0.508
502.000	321.477	79.979	19.992	100.149	19.688	26.720	0.501
504.000	322.497	79.981	19.993	100.151	19.684	26.975	0.513
506.000	323.557	79.981	19.994	100.154	19.677	27.431	0.509
508.000	324.524	79.982	19.992	100.155	19.670	27.877	0.498
510.000	325.532	79.983	19.991	100.150	19.659	28.545	0.505
512.000	326.532	79.981	19.991	100.151	19.653	28.966	0.494
514.000	327.549	79.981	19.992	100.154	19.650	29.128	0.467
516.000	328.597	79.982	19.992	100.111	19.639	29.815	0.504
518.000	329.603	79.982	19.991	100.218	19.635	30.106	0.510
520.000	330.619	79.981	19.991	100.190	19.631	30.349	0.491
522.000	331.608	79.983	19.991	100.178	19.623	30.884	0.517
524.000	332.575	79.982	19.991	100.186	19.614	31.427	0.475
526.000	333.645	79.981	19.992	100.184	19.606	31.939	0.510
528.000	334.668	79.982	19.992	100.185	19.594	32.686	0.501
530.000	335.595	79.982	19.991	100.189	19.588	33.087	0.475
532.000	336.670	79.982	19.990	100.189	19.575	33.899	0.510
534.000	337.682	79.984	19.993	100.189	19.562	34.738	0.487
536.000	338.648	79.984	19.993	100.191	19.552	35.411	0.519
538.000	339.640	79.986	19.992	100.192	19.543	35.974	0.505
540.000	340.663	79.984	19.991	100.193	19.541	36.063	0.508
542.000	341.632	79.983	19.992	100.199	19.516	37.680	0.508
544.000	342.618	79.982	19.992	100.206	19.515	37.739	0.509
546.000	343.663	79.982	19.991	100.215	19.501	38.646	0.512
548.000	344.609	79.981	19.992	100.216	19.489	39.390	0.487
550.000	345.793	79.981	19.991	100.218	19.477	40.200	0.587
552.000	346.765	79.983	19.993	100.212	19.473	40.414	0.731
554.000	347.686	79.982	19.994	100.219	19.459	41.316	0.594
556.000	348.746	79.980	19.992	100.219	19.447	42.087	0.565
558.000	349.522	79.982	19.993	100.221	19.441	42.473	0.274
560.000	350.465	79.982	19.993	100.224	19.431	43.113	0.563
562.000	351.670	79.982	19.994	100.225	19.425	43.498	0.456
564.000	352.673	79.981	19.992	100.226	19.418	43.896	0.474
566.000	353.669	79.981	19.993	100.228	19.409	44.461	0.566
568.000	354.724	79.980	19.993	100.222	19.408	44.579	0.505
570.000	355.688	79.981	19.992	100.219	19.404	44.835	0.462
572.000	356.725	79.981	19.993	100.212	19.405	44.728	0.545
574.000	357.729	79.981	19.992	100.213	19.403	44.892	0.530
576.000	358.696	79.979	19.991	100.212	19.409	44.487	0.469
578.000	359.710	79.980	19.993	100.195	19.412	44.279	0.528
580.000	360.684	79.979	19.992	100.193	19.422	43.672	0.487
582.000	361.765	79.980	19.993	100.187	19.431	43.092	0.521
584.000	362.715	79.981	19.993	100.188	19.439	42.546	0.475
586.000	363.681	79.980	19.992	100.185	19.448	41.988	0.458
588.000	364.723	79.980	19.993	100.172	19.466	40.829	0.505
590.000	365.649	79.982	19.993	100.154	19.481	39.881	0.469
592.000	366.658	79.983	19.992	100.149	19.499	38.707	0.489
594.000	367.672	79.983	19.992	100.148	19.524	37.142	0.509
596.000	368.664	79.982	19.994	100.123	19.547	35.690	0.500
598.000	369.677	79.981	19.992	100.114	19.571	34.151	0.521
600.000	370.633	79.982	19.993	100.106	19.593	32.714	0.451
602.000	371.630	79.983	19.992	100.105	19.622	30.858	0.519
604.000	372.634	79.981	19.992	100.101	19.647	29.295	0.482
606.000	373.614	79.983	19.992	100.085	19.676	27.454	0.475
608.000	374.656	79.983	19.993	100.070	19.699	25.961	0.483
610.000	375.651	79.984	19.993	100.068	19.724	24.423	0.500
612.000	376.657	79.982	19.993	100.064	19.754	22.502	0.484
614.000	377.635	79.983	19.992	100.060	19.774	21.192	0.495
616.000	378.644	79.985	19.993	100.053	19.797	19.743	0.480
618.000	379.697	79.984	19.991	100.043	19.814	18.668	0.548
620.000	380.700	79.985	19.992	100.033	19.837	17.207	0.516
622.000	381.653	79.985	19.992	100.032	19.853	16.164	0.488
624.000	382.670	79.983	19.991	100.029	19.875	14.783	0.507
626.000	383.661	79.981	19.992	100.030	19.893	13.650	0.495
628.000	384.648	79.981	19.992	100.031	19.904	12.972	0.465
630.000	385.694	79.984	19.993	100.032	19.918	12.078	0.501
632.000	386.652	79.981	19.992	100.033	19.930	11.322	0.491
634.000	387.675	79.981	19.992	100.034	19.940	10.690	0.509
636.000	388.722	79.981	19.991	100.030	19.946	10.264	0.527
638.000	389.721	79.982	19.992	100.027	19.952	9.891	0.534
640.000	390.752	79.983	19.994	100.030	19.956	9.659	0.522
642.000	391.789	79.980	19.992	100.025	19.959	9.473	0.531
644.000	392.755	79.981	19.993	100.023	19.964	9.111	0.472
646.000	393.794	79.982	19.993	100.025	19.968	8.861	0.493
648.000	394.840	79.981	19.992	100.018	19.965	9.045	0.535
650.000	395.831	79.982	19.993	100.027	19.966	8.999	0.490
652.000	396.887	79.981	19.992	100.029	19.961	9.308	0.507
654.000	397.889	79.980	19.992	100.024	19.962	9.248	0.517
656.000	398.923	79.981	19.993	100.023	19.963	9.176	0.497
658.000	399.956	79.981	19.993	100.018	19.958	9.541	0.487
660.000	400.949	79.980	19.993	100.014	19.955	9.708	0.502
662.000	401.973	79.981	19.993	100.019	19.951	9.984	0.513
664.000	402.998	79.981	19.993	100.010	19.951	9.964	0.505
666.000	404.032	79.981	19.993	100.009	19.946	10.302	0.523
668.000	405.043	79.981	19.993	100.001	19.941	10.619	0.520
670.000	406.021	79.983	19.994	100.007	19.933	11.099	0.489
672.000	407.025	79.981	19.993	100.007	19.930	11.286	0.496
674.000	408.036	79.984	19.993	99.999	19.918	12.070	0.503
676.000	409.014	79.982	19.994	99.996	19.910	12.540	0.470
678.000	410.078	79.982	19.993	99.992	19.901	13.130	0.557
680.000	411.047	79.983	19.993	99.992	19.895	13.489	0.455
682.000	412.048	79.983	19.993	100.002	19.893	13.672	0.480
684.000	413.084	79.982	19.992	99.997	19.879	14.531	0.502
686.000	414.058	79.982	19.993	99.996	19.872	14.968	0.478
688.000	415.015	79.983	19.992	100.004	19.861	15.693	0.483
690.000	416.060	79.982	19.993	99.998	19.848	16.523	0.536
692.000	417.065	79.982	19.993	99.999	19.838	17.141	0.493
694.000	418.102	79.983	19.992	99.992	19.828	17.768	0.502
696.000	419.110	79.982	19.991	99.993	19.812	18.795	0.528
698.000	420.113	79.984	19.991	99.996	19.799	19.629	0.501
700.000	421.130	79.982	19.992	99.996	19.781	20.791	0.528
702.000	422.116	79.984	19.992	99.993	19.763	21.910	0.483
704.000	423.088	79.982	19.993	99.990	19.745	23.080	0.479
706.000	424.114	79.982	19.993	99.989	19.727	24.161	0.489
708.000	425.148	79.983	19.993	99.992	19.705	25.565	0.495
710.000	426.167	79.982	19.992	99.990	19.680	27.185	0.519
712.000	427.174	79.980	19.991	99.992	19.660	28.465	0.503
714.000	428.154	79.982	19.992	99.993	19.632	30.207	0.493
716.000	429.182	79.981	19.991	99.984	19.601	32.188	0.517
718.000	430.179	79.980	19.992	99.978	19.577	33.706	0.498
720.000	431.187	79.982	19.993	99.985	19.548	35.525	0.511
722.000	432.186	79.981	19.992	99.964	19.514	37.688	0.499
724.000	433.228	79.982	19.994	99.962	19.486	39.488	0.519
726.000	434.274	79.981	19.991	99.968	19.450	41.781	0.517
728.000	435.259	79.982	19.993	99.953	19.408	44.408	0.495
730.000	436.295	79.981	19.992	99.951	19.371	46.794	0.522
732.000	437.268	79.982	19.994	99.951	19.331	49.348	0.497
734.000	438.315	79.982	19.992	99.951	19.287	52.140	0.528
736.000	439.358	79.982	19.993	99.951	19.240	55.067	0.519
738.000	440.376	79.982	19.993	99.948	19.184	58.619	0.515
740.000	441.376	79.983	19.993	99.934	19.138	61.580	0.482
742.000	442.374	79.981	19.992	99.929	19.086	64.858	0.509
744.000	443.367	79.982	19.993	99.928	19.030	68.424	0.508
746.000	444.360	79.985	19.993	99.916	18.966	72.436	0.493
748.000	445.396	79.984	19.993	99.912	18.905	76.350	0.484
750.000	446.409	79.985	19.992	99.911	18.840	80.441	0.516
752.000	447.382	79.984	19.993	99.906	18.777	84.429	0.488
754.000	448.407	79.983	19.993	99.885	18.707	88.859	0.499
756.000	449.445	79.981	19.994	99.874	18.633	93.566	0.507
758.000	450.494	79.983	19.994	99.877	18.551	98.779	0.515
760.000	451.501	79.981	19.992	99.876	18.473	103.672	0.499
762.000	452.524	79.981	19.992	99.870	18.387	109.117	0.535
764.000	453.552	79.982	19.993	99.856	18.305	114.332	0.528
766.000	454.591	79.982	19.993	99.838	18.223	119.478	0.504
768.000	455.598	79.984	19.992	99.836	18.136	125.000	0.520
770.000	456.646	79.984	19.992	99.823	18.044	130.850	0.467
772.000	457.653	79.983	19.991	99.803	17.954	136.486	0.520
774.000	458.706	79.984	19.991	99.797	17.861	142.380	0.535
776.000	459.717	79.983	19.991	99.794	17.763	148.588	0.512
778.000	460.790	79.984	19.991	99.771	17.665	154.760	0.543
780.000	461.790	79.985	19.993	99.760	17.572	160.578	0.518
782.000	462.834	79.985	19.992	99.752	17.477	166.556	0.488
784.000	463.881	79.983	19.992	99.726	17.388	172.147	0.511
786.000	464.908	79.982	19.992	99.714	17.294	178.082	0.548
788.000	465.903	79.983	19.993	99.695	17.213	183.204	0.508
790.000	466.967	79.982	19.993	99.672	17.128	188.591	0.518
792.000	467.994	79.981	19.991	99.656	17.058	192.914	0.537
794.000	469.026	79.981	19.993	99.632	16.994	196.956	0.534
796.000	470.093	79.981	19.991	99.621	16.935	200.711	0.527
798.000	471.107	79.982	19.992	99.613	16.889	203.554	0.525
800.000	472.124	79.982	19.991	99.580	16.857	205.587	0.529
802.000	473.161	79.983	19.993	99.568	16.830	207.260	0.514
804.000	474.255	79.981	19.991	99.554	16.827	207.492	0.563
806.000	475.254	79.982	19.992	99.558	16.834	207.028	0.483
808.000	476.276	79.981	19.992	99.541	16.869	204.843	0.517
810.000	477.326	79.982	19.994	99.523	16.912	202.120	0.507
812.000	478.354	79.982	19.992	99.515	16.977	198.053	0.509
814.000	479.396	79.982	19.993	99.518	17.056	193.052	0.528
816.000	480.378	79.982	19.993	99.517	17.160	186.569	0.538
818.000	481.407	79.982	19.993	99.520	17.277	179.180	0.489
820.000	482.429	79.980	19.993	99.525	17.412	170.650	0.499
822.000	483.447	79.981	19.994	99.537	17.562	161.199	0.510
824.000	484.501	79.982	19.993	99.558	17.713	151.687	0.530
826.000	485.547	79.982	19.992	99.574	17.878	141.272	0.530
828.000	486.531	79.982	19.993	99.598	18.050	130.440	0.508
830.000	487.562	79.982	19.992	99.617	18.226	119.282	0.524
832.000	488.570	79.983	19.992	99.641	18.396	108.554	0.489
834.000	489.599	79.983	19.992	99.665	18.567	97.724	0.494
836.000	490.649	79.982	19.992	99.694	18.729	87.496	0.528
838.000	491.656	79.982	19.992	99.719	18.882	77.797	0.520
840.000	492.681	79.982	19.992	99.753	19.024	68.791	0.528
842.000	493.753	79.982	19.993	99.772	19.162	60.049	0.527
844.000	494.759	79.983	19.992	99.813	19.284	52.278	0.509
846.000	495.773	79.982	19.994	99.833	19.398	45.050	0.496
848.000	496.815	79.983	19.994	99.846	19.497	38.814	0.504
850.000	497.872	79.984	19.994	99.873	19.592	32.768	0.537
852.000	498.827	79.984	19.993	99.877	19.667	27.965	0.498
854.000	499.868	79.985	19.992	99.899	19.744	23.094	0.504
856.000	500.861	79.986	19.992	99.922	19.800	19.549	0.503
858.000	501.876	79.986	19.992	99.933	19.849	16.451	0.493
860.000	502.875	79.985	19.993	99.949	19.895	13.517	0.497
862.000	503.910	79.983	19.991	99.954	19.926	11.574	0.494
864.000	504.946	79.983	19.992	99.955	19.959	9.474	0.547
866.000	505.964	79.982	19.992	99.967	19.986	7.706	0.509
868.000	506.966	79.983	19.993	99.967	19.997	7.054	0.512
870.000	507.963	79.982	19.991	99.977	20.012	6.066	0.494
872.000	508.996	79.983	19.992	99.974	20.026	5.181	0.491
874.000	509.989	79.983	19.993	99.986	20.035	4.635	0.494
876.000	510.986	79.984	19.992	99.991	20.040	4.288	0.496
878.000	511.970	79.984	19.992	99.990	20.047	3.846	0.469
880.000	513.013	79.983	19.992	99.992	20.049	3.758	0.514
882.000	513.983	79.982	19.993	99.992	20.051	3.593	0.482
884.000	515.020	79.983	19.991	99.994	20.052	3.532	0.485
886.000	516.073	79.982	19.992	99.992	20.053	3.479	0.522
888.000	517.065	79.982	19.992	99.992	20.050	3.650	0.495
890.000	518.076	79.984	19.992	99.994	20.055	3.351	0.520
892.000	519.089	79.982	19.991	99.995	20.053	3.510	0.527
894.000	520.085	79.982	19.992	99.995	20.052	3.520	0.481
896.000	521.093	79.982	19.992	99.995	20.052	3.543	0.532
898.000	522.081	79.982	19.992	99.995	20.057	3.210	0.484
900.000	523.112	79.981	19.992	99.996	20.057	3.237	0.489
902.000	524.151	79.982	19.992	99.995	20.055	3.322	0.535
904.000	525.117	79.982	19.993	99.998	20.056	3.303	0.472
906.000	526.099	79.981	19.993	99.993	20.055	3.324	0.486
908.000	527.132	79.984	19.993	99.991	20.055	3.325	0.522
910.000	528.147	79.984	19.992	99.991	20.055	3.372	0.518
912.000	529.167	79.983	19.992	99.989	20.053	3.482	0.512
914.000	530.182	79.984	19.993	99.988	20.054	3.444	0.482
916.001	531.214	79.983	19.992	99.990	20.057	3.256	0.499
918.000	532.203	79.982	19.992	99.985	20.058	3.153	0.462
920.000	533.209	79.982	19.992	99.984	20.057	3.224	0.488
922.000	534.282	79.985	19.992	99.988	20.053	3.460	0.540
924.000	535.301	79.983	19.992	99.987	20.058	3.136	0.521
926.000	536.320	79.984	19.993	99.989	20.056	3.308	0.522
928.000	537.338	79.985	19.992	99.991	20.052	3.543	0.518
930.000	538.362	79.984	19.994	99.991	20.055	3.349	0.509
932.000	539.411	79.984	19.992	99.989	20.058	3.175	0.545
934.000	540.418	79.985	19.993	99.991	20.059	3.080	0.533
936.000	541.371	79.984	19.993	99.988	20.052	3.541	0.493
938.000	542.440	79.984	19.993	99.987	20.057	3.253	0.520
940.000	543.442	79.985	19.994	99.988	20.058	3.146	0.499
942.000	544.438	79.984	19.993	99.991	20.054	3.386	0.506
944.000	545.506	79.982	19.991	99.989	20.061	2.998	0.525
946.000	546.499	79.984	19.992	99.992	20.055	3.350	0.541
948.000	547.510	79.983	19.992	99.992	20.059	3.129	0.503
950.000	548.516	79.983	19.992	99.994	20.056	3.272	0.501
952.000	549.527	79.984	19.992	99.995	20.055	3.348	0.479
954.000	550.606	79.981	19.992	99.994	20.054	3.389	0.527
956.000	551.623	79.982	19.991	99.993	20.059	3.112	0.533
958.000	552.642	79.982	19.992	99.993	20.057	3.243	0.522
960.000	553.671	79.983	19.992	99.995	20.058	3.191	0.510
962.000	554.735	79.985	19.992	99.994	20.057	3.210	0.536
964.000	555.781	79.984	19.992	99.995	20.057	3.253	0.514
966.000	556.807	79.982	19.992	99.994	20.058	3.180	0.491
968.000	557.822	79.982	19.993	99.996	20.055	3.370	0.505
970.000	558.885	79.985	19.993	99.995	20.057	3.201	0.516
972.000	559.912	79.985	19.993	99.995	20.055	3.384	0.502
974.000	560.950	79.983	19.991	99.993	20.059	3.093	0.528
976.000	562.001	79.983	19.992	99.992	20.053	3.474	0.539
978.000	563.018	79.984	19.993	99.989	20.063	2.856	0.537
980.000	564.031	79.983	19.992	99.992	20.056	3.260	0.522
982.000	565.104	79.985	19.993	99.992	20.063	2.865	0.512
984.000	566.127	79.983	19.993	99.993	20.060	3.063	0.522
986.000	567.130	79.982	19.993	99.991	20.061	2.956	0.516
988.000	568.196	79.986	19.992	99.991	20.054	3.405	0.534
990.000	569.260	79.983	19.991	99.990	20.057	3.242	0.517
992.000	570.286	79.983	19.992	99.990	20.060	3.032	0.563
994.000	571.322	79.985	19.992	99.991	20.058	3.137	0.511
996.000	572.387	79.984	19.992	99.989	20.059	3.127	0.527
998.000	573.408	79.983	19.992	99.989	20.060	3.029	0.538
1000.000	574.478	79.983	19.993	99.987	20.055	3.346	0.528
1002.000	575.508	79.984	19.992	99.985	20.057	3.243	0.498
1004.000	576.544	79.983	19.993	99.987	20.063	2.854	0.519
1006.000	577.556	79.985	19.993	99.992	20.057	3.218	0.512
1008.000	578.546	79.983	19.993	99.992	20.063	2.839	0.472
1010.000	579.626	79.984	19.991	99.992	20.062	2.891	0.547
1012.000	580.621	79.984	19.992	99.986	20.058	3.170	0.506
1014.000	581.653	79.986	19.993	99.990	20.062	2.887	0.521
1016.000	582.686	79.985	19.993	99.986	20.062	2.880	0.498
1018.000	583.709	79.985	19.992	99.992	20.057	3.224	0.524
1020.000	584.747	79.984	19.992	99.988	20.060	3.020	0.484
1022.000	585.743	79.982	19.993	99.990	20.061	2.989	0.486
1024.000	586.792	79.982	19.993	99.991	20.061	2.943	0.500
1026.000	587.829	79.981	19.993	99.992	20.062	2.918	0.501
1027.999	588.856	79.980	19.993	99.993	20.059	3.120	0.528
1029.999	589.864	79.980	19.992	99.993	20.061	2.982	0.510
1031.999	590.885	79.984	19.992	100.000	20.061	2.986	0.505
1033.999	591.913	79.981	19.992	99.996	20.066	2.646	0.497
1035.999	592.954	79.981	19.992	99.995	20.069	2.456	0.507
1037.999	594.019	79.981	19.991	99.995	20.064	2.810	0.519
1040.000	595.083	79.983	19.991	99.991	20.064	2.777	0.539
1041.999	596.082	79.982	19.991	99.987	20.061	2.941	0.501
1043.999	597.140	79.982	19.992	99.990	20.061	2.941	0.525
1045.999	598.152	79.983	19.991	99.980	20.061	2.960	0.528
1048.000	599.165	79.982	19.992	99.990	20.063	2.834	0.478
1049.999	600.211	79.982	19.992	99.991	20.063	2.824	0.533
1051.999	601.187	79.982	19.993	99.991	20.067	2.580	0.515
1053.999	602.208	79.983	19.992	99.990	20.064	2.787	0.509
1055.999	603.168	79.982	19.992	99.989	20.064	2.813	0.480
1057.999	604.197	79.982	19.992	99.992	20.068	2.534	0.502
1059.999	605.207	79.981	19.992	99.993	20.066	2.668	0.505
1061.999	606.207	79.983	19.991	99.996	20.064	2.758	0.507
1063.999	607.194	79.984	19.993	99.974	20.069	2.451	0.489
1066.000	608.188	79.985	19.992	99.983	20.065	2.727	0.470
1067.999	609.219	79.985	19.992	99.988	20.065	2.717	0.497
1069.999	610.227	79.984	19.991	99.988	20.068	2.556	0.524
1072.000	611.237	79.984	19.991	99.993	20.064	2.775	0.529
1073.999	612.230	79.983	19.991	99.992	20.068	2.556	0.500
1076.000	613.279	79.983	19.992	99.995	20.068	2.499	0.508
1077.999	614.263	79.985	19.992	99.993	20.064	2.810	0.512
1079.999	615.325	79.982	19.993	99.990	20.068	2.541	0.511
1081.999	616.334	79.982	19.993	99.989	20.068	2.556	0.515
1084.000	617.302	79.984	19.994	99.993	20.065	2.721	0.506
1085.999	618.331	79.984	19.993	99.993	20.064	2.794	0.514
1087.999	619.309	79.984	19.993	99.991	20.062	2.927	0.507
1090.000	620.327	79.983	19.992	99.991	20.063	2.849	0.513
1092.000	621.371	79.983	19.992	99.994	20.064	2.785	0.537
1093.999	622.346	79.985	19.992	99.988	20.065	2.747	0.490
1095.999	623.303	79.986	19.992	99.985	20.067	2.570	0.492
1097.999	624.290	79.984	19.992	99.993	20.064	2.783	0.484
1099.999	625.307	79.984	19.991	99.992	20.069	2.475	0.524
1102.000	626.273	79.984	19.993	99.989	20.066	2.661	0.496
1103.999	627.282	79.981	19.993	99.987	20.068	2.535	0.491
1105.999	628.286	79.982	19.994	99.988	20.068	2.520	0.499
1108.000	629.304	79.982	19.993	99.975	20.068	2.528	0.497
1109.999	630.321	79.982	19.994	99.988	20.067	2.578	0.514
1111.999	631.334	79.982	19.994	99.990	20.068	2.532	0.524
1113.999	632.331	79.984	19.993	99.989	20.062	2.882	0.515
1115.999	633.320	79.983	19.993	99.989	20.070	2.408	0.520
1117.999	634.379	79.983	19.993	99.990	20.066	2.651	0.511
1119.999	635.410	79.984	19.993	99.989	20.067	2.565	0.530
1121.999	636.456	79.983	19.993	99.984	20.066	2.679	0.527
1123.999	637.472	79.983	19.992	99.988	20.065	2.699	0.511
1125.999	638.484	79.983	19.992	99.989	20.064	2.787	0.525
1127.999	639.488	79.984	19.993	99.988	20.061	2.991	0.515
1130.001	640.527	79.982	19.992	99.988	20.061	2.958	0.518
1131.999	641.520	79.983	19.992	99.991	20.063	2.854	0.503
1133.999	642.579	79.981	19.992	99.993	20.063	2.832	0.540
1135.999	643.551	79.983	19.993	99.993	20.067	2.611	0.478
1137.999	644.607	79.982	19.993	99.992	20.070	2.422	0.525
1140.000	645.613	79.982	19.991	99.992	20.070	2.418	0.536
1141.999	646.583	79.982	19.992	99.989	20.064	2.770	0.491
1143.999	647.653	79.983	19.992	99.985	20.062	2.939	0.547
1145.999	648.714	79.984	19.993	99.994	20.064	2.764	0.555
1147.999	649.784	79.983	19.992	99.994	20.061	2.949	0.554
1149.999	650.857	79.984	19.991	99.987	20.065	2.713	0.561
1151.999	651.866	79.984	19.991	99.989	20.065	2.744	0.502
1154.000	652.850	79.984	19.991	99.993	20.066	2.668	0.483
1155.999	653.953	79.983	19.991	99.978	20.066	2.646	0.508
1158.000	654.968	79.983	19.991	99.985	20.069	2.470	0.496
1159.999	656.027	79.984	19.993	99.985	20.070	2.373	0.516
1161.999	657.003	79.984	19.990	99.983	20.069	2.480	0.480
1163.999	658.095	79.985	19.993	99.988	20.068	2.542	0.521
1165.999	659.118	79.982	19.992	99.992	20.063	2.816	0.520
1167.999	660.102	79.984	19.992	99.987	20.067	2.587	0.521
1169.999	661.136	79.984	19.992	99.985	20.071	2.306	0.484
1171.999	662.173	79.986	19.992	99.987	20.066	2.628	0.504
1173.999	663.191	79.986	19.993	99.986	20.067	2.611	0.473
1175.999	664.211	79.985	19.992	99.971	20.066	2.626	0.492
1177.999	665.206	79.986	19.993	99.983	20.067	2.616	0.493
1179.999	666.233	79.985	19.992	99.985	20.065	2.733	0.513
1181.999	667.233	79.984	19.992	99.984	20.067	2.592	0.507
1183.999	668.263	79.982	19.993	99.979	20.065	2.709	0.517
1186.000	669.236	79.982	19.992	99.970	20.064	2.778	0.480
1188.000	670.265	79.982	19.992	99.970	20.065	2.728	0.523
1189.999	671.261	79.982	19.993	99.971	20.064	2.780	0.505
1192.000	672.246	79.983	19.994	99.981	20.066	2.658	0.515
1193.999	673.238	79.981	19.993	99.983	20.064	2.804	0.508
1195.999	674.280	79.982	19.994	99.984	20.066	2.646	0.549
1197.999	675.268	79.981	19.992	99.977	20.062	2.906	0.498
1200.001	676.288	79.982	19.993	99.978	20.064	2.811	0.511
1202.001	677.284	79.980	19.992	99.987	20.067	2.596	0.434
1203.999	678.278	79.981	19.993	99.982	20.066	2.627	0.479
1205.999	679.300	79.981	19.992	99.988	20.069	2.484	0.480
1207.999	680.330	79.981	19.993	99.978	20.068	2.499	0.487
1210.000	681.393	79.980	19.992	99.974	20.067	2.565	0.535
1212.000	682.381	79.982	19.992	99.989	20.068	2.518	0.485
1214.000	683.408	79.982	19.992	99.990	20.066	2.672	0.515
1216.000	684.425	79.979	19.992	99.994	20.065	2.711	0.513
1217.999	685.472	79.982	19.993	99.977	20.071	2.309	0.517
1219.999	686.528	79.982	19.992	99.982	20.069	2.492	0.532
1222.000	687.517	79.981	19.991	99.993	20.070	2.375	0.489
1223.999	688.541	79.983	19.992	99.995	20.069	2.452	0.521
1226.000	689.560	79.983	19.992	99.993	20.068	2.547	0.479
1227.999	690.520	79.982	19.993	99.984	20.065	2.704	0.510
1229.999	691.559	79.982	19.992	99.988	20.069	2.482	0.523
1231.999	692.634	79.984	19.992	99.978	20.069	2.440	0.542
1233.999	693.636	79.983	19.992	99.987	20.068	2.539	0.499
1235.999	694.685	79.984	19.992	99.975	20.063	2.825	0.507
1237.999	695.747	79.985	19.993	99.959	20.067	2.608	0.521
1239.999	696.742	79.985	19.993	99.983	20.066	2.661	0.514
1241.999	697.742	79.984	19.992	99.978	20.070	2.387	0.493
1243.999	698.743	79.984	19.991	99.987	20.073	2.233	0.483
1245.999	699.763	79.985	19.991	99.991	20.069	2.459	0.526
1247.999	700.761	79.985	19.992	99.975	20.070	2.399	0.512
1249.999	701.747	79.986	19.990	99.987	20.070	2.400	0.480
1251.999	702.771	79.985	19.992	99.982	20.071	2.335	0.501
1253.999	703.753	79.984	19.992	99.984	20.072	2.299	0.509
1255.999	704.739	79.984	19.993	99.985	20.069	2.463	0.490
1257.999	705.783	79.984	19.993	99.979	20.067	2.563	0.516
1260.000	706.779	79.983	19.993	99.974	20.068	2.495	0.504
1261.999	707.754	79.982	19.993	99.976	20.071	2.322	0.490
1263.999	708.770	79.985	19.993	99.990	20.067	2.569	0.494
1265.999	709.757	79.982	19.992	99.985	20.067	2.601	0.490
1268.000	710.750	79.981	19.993	99.975	20.068	2.542	0.489
1269.999	711.783	79.982	19.993	99.973	20.067	2.562	0.510
1271.999	712.810	79.982	19.992	99.984	20.065	2.721	0.533
1273.999	713.746	79.982	19.992	99.980	20.068	2.513	0.473
1275.999	714.777	79.981	19.993	99.969	20.067	2.563	0.522
1277.999	715.796	79.982	19.993	99.981	20.070	2.375	0.514
1279.999	716.838	79.983	19.992	99.965	20.069	2.461	0.513
1281.999	717.829	79.982	19.993	99.967	20.065	2.740	0.528
1283.999	718.841	79.982	19.993	99.984	20.070	2.426	0.535
1285.999	719.976	79.981	19.993	99.989	20.070	2.404	0.564
1287.999	720.959	79.981	19.994	99.984	20.066	2.632	0.502
1289.999	721.977	79.983	19.994	99.988	20.069	2.438	0.492
1291.999	723.023	79.982	19.994	99.968	20.070	2.395	0.525
1293.999	724.039	79.982	19.994	99.967	20.069	2.439	0.512
1295.999	725.060	79.983	19.992	99.966	20.070	2.414	0.511
1298.000	726.152	79.982	19.992	99.970	20.069	2.457	0.527
1299.999	727.159	79.983	19.992	99.968	20.070	2.383	0.540
1301.999	728.175	79.982	19.993	99.969	20.068	2.507	0.527
1303.999	729.215	79.984	19.993	99.987	20.069	2.447	0.513
1306.000	730.278	79.984	19.992	99.980	20.071	2.356	0.531
1307.999	731.248	79.984	19.993	99.976	20.070	2.417	0.517
1309.999	732.280	79.983	19.991	99.965	20.072	2.269	0.515
1311.999	733.306	79.984	19.992	99.972	20.071	2.362	0.530
1314.000	734.306	79.985	19.993	99.969	20.069	2.469	0.518
1315.999	735.291	79.983	19.993	99.978	20.069	2.480	0.480
1317.999	736.308	79.984	19.992	99.965	20.071	2.314	0.486
1319.999	737.340	79.983	19.992	99.968	20.071	2.359	0.532
1321.999	738.363	79.983	19.992	99.964	20.071	2.352	0.534
1324.000	739.360	79.985	19.992	99.964	20.073	2.226	0.496
1326.000	740.371	79.984	19.992	99.971	20.070	2.376	0.505
1328.000	741.393	79.985	19.993	99.967	20.073	2.214	0.520
1330.000	742.344	79.985	19.992	99.963	20.073	2.221	0.488
1332.000	743.362	79.987	19.992	99.965	20.071	2.326	0.495
1332.500	743.613	79.984	19.992	99.968	20.069	2.466	0.465