File: 01_Data/Scott_HT_SCBA/MCC/Scott_HT_SCBA_MCC_30K_min_220204_R2.txt
Sample ID:	C:\MCC\MCC Cal\Test\Scott_HT_SCBA_MCC_30K_min_220204_R2.txt
Sample Weight (mg):	4.57
Heating Rate (C/s):	0.5
Combustor Temp (C):	900
N2 Flow Rate (cc/min):	80
O2 Flow Rate (cc/min):	20
Calibration File:	C:\MCC\MCC Cal\Coeff1 JN10440_30_210304.txt.txt
T Correction Coefficients:	0	1.024463	0
Time Shift (s):	14
*
Time (s)	Temperature (C)	N2 flow rate (cc/min)	O2 flow rate (cc/min)	Flow Rate (cc/min)	Oxygen (%)	HRR (W/g)	Heating rate (C/s)
0.000	111.610	79.996	19.994	103.743	20.082	-0.209	0.026
2.000	111.605	80.010	20.000	103.759	20.082	-0.205	0.001
4.000	111.579	79.994	19.995	103.740	20.081	-0.154	0.001
6.000	111.581	80.000	19.993	103.731	20.087	-0.554	0.023
8.000	111.526	79.982	19.994	103.737	20.081	-0.176	-0.035
10.001	111.590	79.994	19.998	103.735	20.079	-0.010	-0.003
12.000	111.553	80.014	19.999	103.753	20.080	-0.084	0.022
14.000	111.535	79.991	20.001	103.768	20.073	0.396	-0.004
16.000	111.597	79.996	19.998	103.809	20.076	0.191	-0.038
18.000	111.669	80.008	19.994	103.802	20.071	0.537	0.032
20.000	111.733	80.023	19.992	103.819	20.068	0.744	0.055
22.000	111.809	80.001	19.993	103.839	20.066	0.910	0.054
24.000	111.893	79.992	19.991	103.872	20.055	1.718	0.043
26.000	111.993	80.008	19.996	103.906	20.057	1.558	0.032
28.000	112.149	80.005	19.993	103.908	20.051	1.964	0.075
30.000	112.342	80.002	19.993	103.912	20.049	2.105	0.088
32.000	112.588	80.011	19.994	103.922	20.056	1.596	0.127
34.000	112.795	80.008	19.992	103.923	20.054	1.767	0.113
36.000	113.065	79.996	19.998	103.925	20.054	1.797	0.152
38.001	113.348	79.974	19.996	103.928	20.049	2.121	0.123
40.000	113.713	79.997	19.995	103.933	20.048	2.174	0.195
42.001	114.066	80.001	19.995	103.935	20.045	2.400	0.196
44.000	114.396	80.001	19.997	103.956	20.047	2.295	0.173
46.001	114.804	79.996	19.999	103.942	20.047	2.234	0.233
48.000	115.294	80.003	19.990	103.955	20.045	2.406	0.195
50.001	115.749	79.996	19.997	103.963	20.046	2.309	0.205
52.000	116.189	80.004	19.991	103.950	20.044	2.463	0.269
54.000	116.633	80.007	19.994	103.963	20.044	2.498	0.200
56.000	117.123	80.001	19.995	103.953	20.044	2.497	0.186
58.001	117.666	80.011	19.996	103.956	20.043	2.586	0.245
60.001	118.230	80.017	19.998	103.967	20.042	2.651	0.269
62.000	118.771	80.005	19.993	103.964	20.041	2.688	0.262
64.000	119.343	80.024	19.995	103.964	20.038	2.903	0.277
66.000	119.920	80.001	19.996	103.976	20.036	3.055	0.291
68.000	120.567	80.004	19.989	103.970	20.038	2.939	0.308
70.000	121.137	80.010	19.989	103.973	20.040	2.733	0.305
72.000	121.798	80.012	19.994	103.971	20.037	2.987	0.293
74.001	122.506	80.003	19.995	103.970	20.037	2.952	0.364
76.001	123.178	80.008	19.993	103.977	20.042	2.622	0.344
78.000	123.876	80.009	19.993	103.986	20.039	2.856	0.336
80.000	124.469	79.995	19.993	103.992	20.037	2.950	0.355
82.000	125.259	80.000	19.991	103.985	20.037	2.950	0.408
84.001	125.977	79.998	19.999	103.985	20.034	3.199	0.388
86.000	126.731	80.009	19.993	103.987	20.038	2.896	0.404
88.000	127.455	80.003	19.994	103.992	20.032	3.314	0.373
90.000	128.191	79.989	19.998	103.977	20.030	3.445	0.354
92.000	128.964	80.007	19.996	103.989	20.032	3.310	0.364
94.000	129.744	79.992	19.996	103.993	20.034	3.165	0.366
96.000	130.544	80.011	19.994	104.009	20.032	3.322	0.386
98.001	131.386	79.982	19.994	103.995	20.035	3.136	0.430
100.001	132.139	79.994	19.997	103.995	20.033	3.236	0.355
102.000	132.964	80.000	19.996	103.996	20.031	3.390	0.396
104.000	133.825	79.996	19.997	104.001	20.034	3.208	0.412
106.000	134.686	80.004	19.997	103.999	20.036	3.056	0.437
108.000	135.507	79.994	19.996	103.998	20.031	3.380	0.388
110.000	136.419	80.020	19.994	103.995	20.032	3.351	0.451
112.000	137.286	80.010	19.993	103.998	20.029	3.556	0.424
114.001	138.188	79.999	19.997	103.995	20.036	3.041	0.443
116.001	139.119	80.001	19.996	103.998	20.038	2.931	0.475
118.000	140.010	80.009	19.995	104.000	20.037	3.015	0.444
120.000	140.938	80.013	19.994	103.994	20.034	3.177	0.500
122.000	141.904	79.993	19.995	103.999	20.039	2.862	0.475
124.000	142.757	80.015	19.994	103.998	20.042	2.624	0.452
126.000	143.763	80.014	19.990	104.004	20.040	2.790	0.485
128.000	144.723	80.003	19.996	104.002	20.041	2.671	0.488
130.000	145.742	79.990	19.998	103.989	20.038	2.921	0.488
132.000	146.651	80.002	19.994	103.996	20.040	2.771	0.460
134.000	147.593	80.003	19.995	103.991	20.038	2.931	0.464
136.000	148.570	80.010	19.993	103.994	20.041	2.677	0.494
138.000	149.663	80.025	19.994	104.002	20.037	2.985	0.502
140.000	150.570	79.997	19.995	103.995	20.041	2.698	0.514
142.000	151.550	79.998	19.995	103.994	20.041	2.682	0.489
144.000	152.500	79.979	20.005	103.996	20.037	2.948	0.478
146.000	153.503	80.004	19.994	103.995	20.040	2.745	0.487
148.000	154.466	80.011	19.994	103.975	20.040	2.756	0.465
150.001	155.428	79.997	19.996	103.982	20.037	2.946	0.490
152.000	156.405	79.994	19.996	103.981	20.036	3.069	0.443
154.000	157.406	80.017	19.993	103.973	20.037	2.989	0.517
156.000	158.356	79.988	19.996	103.979	20.040	2.751	0.481
158.000	159.355	79.994	19.995	103.971	20.041	2.712	0.506
160.000	160.339	79.998	19.997	103.962	20.040	2.755	0.525
162.000	161.281	79.993	19.996	103.971	20.043	2.528	0.487
164.000	162.270	79.995	19.995	103.978	20.043	2.561	0.475
166.000	163.218	79.992	19.997	103.986	20.043	2.555	0.447
168.000	164.198	80.002	19.996	103.984	20.041	2.700	0.493
170.000	165.214	80.005	19.994	103.978	20.041	2.721	0.486
172.000	166.198	80.005	19.994	103.986	20.041	2.704	0.504
174.000	167.151	80.006	19.995	103.981	20.039	2.803	0.493
176.000	168.104	80.006	19.996	103.977	20.042	2.620	0.472
178.000	169.060	80.000	19.996	103.982	20.042	2.659	0.465
180.000	170.031	80.003	19.996	103.977	20.043	2.579	0.489
182.000	171.015	80.011	19.996	103.971	20.045	2.412	0.477
184.000	172.010	80.004	19.994	103.977	20.040	2.789	0.483
186.000	172.964	80.004	19.993	103.976	20.041	2.674	0.487
188.000	173.892	80.003	19.997	103.982	20.043	2.575	0.464
190.000	174.924	80.003	19.996	103.981	20.038	2.940	0.471
192.000	175.869	80.003	19.994	103.966	20.041	2.717	0.484
194.000	176.826	80.003	19.996	103.970	20.036	3.043	0.482
196.000	177.835	80.001	19.999	103.959	20.042	2.641	0.468
198.000	178.771	79.996	19.997	103.961	20.043	2.537	0.474
200.000	179.722	79.995	19.998	103.966	20.042	2.653	0.483
202.000	180.717	80.015	19.996	103.954	20.038	2.924	0.489
204.000	181.687	79.993	19.997	103.953	20.042	2.639	0.508
206.000	182.668	80.006	19.995	103.953	20.041	2.721	0.493
208.000	183.626	80.005	19.996	103.954	20.040	2.758	0.492
210.001	184.584	80.029	19.992	103.957	20.041	2.699	0.499
212.000	185.561	79.997	19.999	103.960	20.038	2.920	0.509
214.000	186.604	80.004	19.995	103.953	20.041	2.678	0.501
216.000	187.551	80.001	19.995	103.956	20.041	2.713	0.495
218.000	188.547	80.002	19.995	103.958	20.042	2.635	0.519
220.000	189.502	80.002	19.995	103.956	20.040	2.770	0.483
222.000	190.495	80.000	19.994	103.956	20.040	2.752	0.484
224.000	191.457	79.994	19.995	103.960	20.043	2.582	0.484
226.000	192.447	80.000	19.995	103.959	20.043	2.539	0.502
228.000	193.414	80.003	19.994	103.965	20.042	2.647	0.482
230.000	194.397	80.003	19.995	103.958	20.040	2.787	0.483
232.000	195.385	80.004	19.995	103.960	20.039	2.813	0.487
234.000	196.343	80.004	19.994	103.960	20.038	2.879	0.485
236.000	197.349	80.003	19.994	103.964	20.038	2.881	0.516
238.000	198.323	80.003	19.995	103.961	20.042	2.633	0.493
240.000	199.341	80.003	19.995	103.960	20.042	2.590	0.518
242.000	200.315	80.002	19.996	103.960	20.043	2.563	0.486
244.000	201.255	80.004	19.995	103.956	20.046	2.375	0.471
246.000	202.275	80.003	19.994	103.957	20.041	2.676	0.479
248.000	203.251	80.001	19.994	103.959	20.041	2.721	0.487
250.000	204.274	80.001	19.995	103.960	20.038	2.889	0.497
252.000	205.249	80.004	19.994	103.959	20.039	2.805	0.500
254.000	206.267	80.001	19.996	103.957	20.036	3.051	0.514
256.000	207.275	80.003	19.995	103.948	20.040	2.748	0.514
258.000	208.260	80.002	19.996	103.957	20.039	2.861	0.499
260.000	209.249	80.000	19.995	103.956	20.040	2.785	0.491
262.000	210.213	80.005	19.995	103.949	20.041	2.723	0.513
264.000	211.206	80.011	19.993	103.954	20.036	3.023	0.505
266.000	212.199	80.003	19.996	103.948	20.037	2.998	0.475
268.000	213.184	80.005	19.994	103.943	20.034	3.179	0.506
270.000	214.209	80.001	19.995	103.947	20.041	2.726	0.517
272.000	215.181	80.000	19.995	103.942	20.040	2.773	0.441
274.000	216.234	80.006	19.995	103.952	20.041	2.704	0.529
276.000	217.185	80.007	19.996	103.950	20.042	2.644	0.471
278.000	218.183	80.005	19.995	103.936	20.042	2.597	0.484
280.000	219.171	80.006	19.995	103.936	20.039	2.815	0.492
282.000	220.157	80.006	19.993	103.923	20.041	2.716	0.499
284.000	221.201	80.008	19.995	103.924	20.041	2.665	0.510
286.000	222.196	80.006	19.995	103.938	20.041	2.681	0.499
288.000	223.175	80.008	19.995	103.931	20.043	2.580	0.501
290.000	224.164	80.007	19.996	103.923	20.044	2.501	0.484
292.000	225.167	80.003	19.995	103.922	20.047	2.273	0.511
294.000	226.150	80.002	19.995	103.929	20.047	2.292	0.483
296.000	227.165	80.000	19.997	103.934	20.042	2.589	0.510
298.000	228.122	80.000	19.995	103.937	20.043	2.519	0.510
300.000	229.163	80.003	19.996	103.929	20.047	2.255	0.474
302.000	230.164	79.996	19.996	103.926	20.046	2.366	0.489
304.001	231.195	80.003	19.995	103.920	20.051	2.009	0.494
306.000	232.169	80.002	19.996	103.928	20.049	2.126	0.484
308.000	233.149	80.004	19.994	103.919	20.048	2.208	0.464
310.000	234.125	80.001	19.995	103.921	20.048	2.232	0.507
312.000	235.124	80.001	19.995	103.921	20.047	2.271	0.518
314.000	236.073	80.002	19.994	103.922	20.046	2.329	0.483
316.000	237.100	80.002	19.994	103.921	20.048	2.181	0.506
318.000	238.104	80.001	19.997	103.922	20.046	2.349	0.518
320.000	239.029	80.003	19.996	103.927	20.046	2.355	0.473
322.000	240.022	80.001	19.995	103.926	20.047	2.302	0.505
324.001	240.989	80.003	19.995	103.928	20.043	2.540	0.475
326.000	241.977	80.002	19.996	103.924	20.043	2.575	0.505
328.000	242.957	79.999	19.996	103.922	20.044	2.511	0.487
330.000	243.948	80.001	19.996	103.920	20.045	2.425	0.510
332.000	244.891	80.003	19.995	103.919	20.044	2.485	0.487
334.000	245.874	80.002	19.996	103.918	20.044	2.493	0.495
336.000	246.873	80.004	19.995	103.917	20.042	2.642	0.485
338.000	247.812	80.004	19.995	103.918	20.041	2.727	0.488
340.000	248.750	80.006	19.993	103.923	20.042	2.620	0.460
342.000	249.802	80.004	19.995	103.917	20.046	2.353	0.498
344.000	250.790	80.005	19.995	103.919	20.044	2.474	0.478
346.000	251.805	80.004	19.995	103.916	20.040	2.772	0.533
348.000	252.726	80.003	19.995	103.911	20.043	2.540	0.480
350.000	253.728	80.006	19.994	103.915	20.041	2.692	0.532
352.000	254.642	80.003	19.995	103.916	20.044	2.491	0.468
354.000	255.624	80.004	19.996	103.918	20.045	2.433	0.484
356.000	256.627	80.005	19.996	103.919	20.043	2.558	0.483
358.000	257.596	80.005	19.995	103.919	20.045	2.441	0.490
360.000	258.602	80.003	19.995	103.912	20.038	2.896	0.497
362.000	259.596	80.006	19.996	103.919	20.043	2.548	0.487
364.000	260.594	80.003	19.995	103.917	20.042	2.604	0.517
366.000	261.546	80.004	19.995	103.920	20.042	2.620	0.492
368.000	262.541	80.005	19.995	103.919	20.044	2.472	0.466
370.000	263.567	80.005	19.994	103.919	20.042	2.603	0.504
372.000	264.565	80.005	19.994	103.920	20.042	2.607	0.494
374.000	265.561	80.003	19.995	103.914	20.044	2.454	0.482
376.000	266.560	80.002	19.996	103.911	20.044	2.495	0.481
378.000	267.564	80.001	19.997	103.924	20.042	2.628	0.493
380.000	268.554	80.001	19.998	103.923	20.048	2.196	0.504
382.001	269.575	80.000	19.997	103.921	20.044	2.499	0.492
384.000	270.656	80.003	19.995	103.923	20.045	2.401	0.556
386.000	271.669	80.003	19.996	103.922	20.045	2.403	0.483
388.000	272.634	80.004	19.996	103.918	20.043	2.528	0.493
390.000	273.683	80.003	19.996	103.914	20.046	2.345	0.497
392.000	274.684	80.003	19.995	103.910	20.047	2.267	0.512
394.000	275.666	80.001	19.997	103.917	20.046	2.370	0.493
396.000	276.715	80.004	19.997	103.909	20.045	2.411	0.507
398.000	277.672	80.004	19.996	103.916	20.047	2.249	0.487
400.000	278.724	80.003	19.994	103.914	20.047	2.292	0.522
402.000	279.728	80.002	19.995	103.908	20.044	2.452	0.466
404.000	280.762	80.000	19.995	103.913	20.047	2.304	0.507
406.000	281.760	80.002	19.993	103.908	20.051	1.997	0.486
408.000	282.759	80.003	19.995	103.907	20.044	2.454	0.506
410.000	283.789	80.002	19.996	103.896	20.047	2.259	0.516
412.000	284.733	80.002	19.994	103.903	20.049	2.161	0.466
414.000	285.774	80.002	19.996	103.916	20.050	2.046	0.487
416.000	286.771	80.004	19.995	103.914	20.049	2.120	0.474
418.000	287.800	80.004	19.994	103.913	20.046	2.356	0.521
420.000	288.836	80.007	19.995	103.913	20.051	1.970	0.512
422.000	289.820	80.005	19.994	103.917	20.049	2.128	0.514
424.000	290.809	80.003	19.994	103.906	20.043	2.550	0.519
426.000	291.831	80.004	19.995	103.911	20.050	2.089	0.529
428.000	292.831	80.004	19.996	103.907	20.047	2.292	0.501
430.000	293.820	80.001	19.995	103.914	20.047	2.284	0.519
432.000	294.803	80.003	19.994	103.906	20.048	2.218	0.516
434.000	295.782	80.004	19.996	103.911	20.048	2.165	0.465
436.000	296.845	80.003	19.995	103.905	20.047	2.288	0.502
438.000	297.788	80.003	19.996	103.901	20.049	2.128	0.481
440.000	298.824	80.005	19.994	103.919	20.047	2.269	0.515
442.000	299.814	80.004	19.995	103.921	20.049	2.126	0.488
444.000	300.786	80.005	19.995	103.909	20.048	2.216	0.492
446.000	301.757	80.005	19.996	103.902	20.048	2.206	0.452
448.000	302.762	80.004	19.994	103.899	20.051	1.972	0.493
450.000	303.758	80.005	19.995	103.912	20.051	2.005	0.485
452.000	304.730	80.005	19.995	103.908	20.050	2.046	0.465
454.000	305.715	80.005	19.995	103.913	20.051	1.954	0.486
456.000	306.709	80.003	19.998	103.892	20.049	2.120	0.486
458.000	307.704	80.002	19.996	103.892	20.050	2.087	0.518
460.000	308.715	80.002	19.995	103.895	20.050	2.040	0.496
462.000	309.691	80.005	19.995	103.901	20.045	2.444	0.486
464.000	310.699	80.003	19.996	103.895	20.050	2.052	0.511
466.000	311.712	80.002	19.994	103.880	20.051	2.007	0.516
468.000	312.737	80.004	19.994	103.878	20.051	1.995	0.501
470.000	313.718	80.003	19.995	103.905	20.049	2.126	0.508
472.000	314.710	80.003	19.995	103.912	20.050	2.067	0.485
474.000	315.697	80.004	19.996	103.901	20.051	2.011	0.494
476.000	316.666	80.004	19.995	103.890	20.049	2.132	0.486
478.000	317.682	80.004	19.994	103.905	20.049	2.094	0.526
480.000	318.680	80.002	19.996	103.896	20.048	2.210	0.513
482.000	319.690	80.000	19.996	103.902	20.045	2.425	0.515
484.000	320.649	80.005	19.994	103.907	20.045	2.444	0.480
486.000	321.666	80.003	19.995	103.899	20.045	2.391	0.487
488.000	322.715	80.000	19.994	103.896	20.047	2.286	0.539
490.000	323.700	80.002	19.995	103.893	20.047	2.263	0.510
492.000	324.651	80.002	19.995	103.914	20.049	2.151	0.494
494.000	325.681	80.002	19.995	103.896	20.046	2.340	0.508
496.000	326.699	80.002	19.994	103.887	20.046	2.356	0.520
498.000	327.671	80.002	19.996	103.905	20.044	2.516	0.487
500.000	328.701	80.003	19.997	103.916	20.046	2.349	0.512
502.000	329.712	80.003	19.994	103.898	20.045	2.407	0.498
504.000	330.739	80.004	19.994	103.888	20.045	2.413	0.483
506.000	331.735	80.005	19.995	103.893	20.045	2.407	0.476
508.000	332.750	80.004	19.995	103.904	20.043	2.522	0.501
510.000	333.782	80.003	19.994	103.915	20.043	2.575	0.519
512.000	334.782	80.004	19.994	103.920	20.038	2.876	0.517
514.000	335.816	80.004	19.994	103.908	20.042	2.610	0.502
516.000	336.861	80.002	19.994	103.891	20.037	2.995	0.530
518.000	337.868	80.003	19.995	103.884	20.040	2.762	0.511
520.000	338.905	80.002	19.994	103.890	20.040	2.755	0.518
522.000	339.917	80.004	19.995	103.904	20.042	2.635	0.521
524.000	340.896	80.004	19.994	103.904	20.043	2.528	0.523
526.000	341.902	80.005	19.995	103.898	20.042	2.594	0.511
528.000	342.935	80.005	19.993	103.905	20.040	2.745	0.525
530.000	343.953	80.005	19.994	103.906	20.042	2.590	0.490
532.000	344.961	80.007	19.993	103.899	20.044	2.467	0.508
534.000	345.998	80.006	19.994	103.891	20.043	2.575	0.467
536.000	347.052	80.005	19.996	103.899	20.039	2.865	0.508
538.000	348.072	80.003	19.995	103.897	20.043	2.541	0.497
540.001	349.114	80.003	19.996	103.894	20.043	2.563	0.519
542.000	350.137	80.004	19.996	103.888	20.040	2.777	0.532
544.000	351.185	80.004	19.995	103.902	20.044	2.499	0.519
546.000	352.227	80.003	19.995	103.889	20.040	2.768	0.534
548.000	353.231	80.002	19.996	103.887	20.038	2.934	0.513
550.000	354.249	80.002	19.996	103.889	20.041	2.663	0.485
552.000	355.283	80.003	19.995	103.888	20.042	2.645	0.500
554.000	356.325	80.004	19.997	103.891	20.042	2.612	0.523
556.000	357.335	80.003	19.996	103.901	20.040	2.792	0.507
558.000	358.402	80.002	19.997	103.892	20.040	2.731	0.530
560.000	359.372	80.002	19.995	103.908	20.044	2.485	0.488
562.000	360.404	80.002	19.995	103.912	20.045	2.436	0.503
564.000	361.472	80.002	19.994	103.900	20.044	2.475	0.501
566.000	362.515	80.002	19.995	103.901	20.045	2.438	0.533
568.000	363.514	80.004	19.996	103.906	20.042	2.600	0.530
570.000	364.554	80.000	19.996	103.888	20.041	2.690	0.542
572.000	365.563	80.004	19.997	103.893	20.042	2.594	0.497
574.000	366.575	80.001	19.996	103.885	20.038	2.895	0.516
576.000	367.580	80.002	19.995	103.884	20.039	2.843	0.492
578.000	368.580	80.002	19.996	103.883	20.042	2.621	0.490
580.000	369.600	80.003	19.995	103.884	20.037	2.963	0.519
582.000	370.589	80.005	19.996	103.876	20.040	2.760	0.489
584.000	371.564	80.004	19.996	103.878	20.041	2.658	0.500
586.000	372.530	80.005	19.995	103.908	20.042	2.640	0.504
588.000	373.557	80.005	19.994	103.907	20.045	2.383	0.507
590.000	374.576	80.006	19.994	103.881	20.040	2.738	0.492
592.000	375.576	80.004	19.995	103.877	20.040	2.756	0.512
594.000	376.550	80.005	19.994	103.873	20.035	3.105	0.506
596.000	377.543	80.006	19.995	103.878	20.038	2.902	0.510
598.000	378.538	80.004	19.995	103.868	20.038	2.881	0.504
600.000	379.509	80.004	19.995	103.867	20.038	2.888	0.473
602.000	380.494	80.004	19.995	103.862	20.039	2.842	0.497
604.000	381.448	80.005	19.995	103.871	20.042	2.629	0.474
606.000	382.414	80.005	19.995	103.873	20.036	3.074	0.508
608.000	383.368	80.007	19.995	103.869	20.040	2.730	0.492
610.000	384.352	80.006	19.995	103.877	20.039	2.869	0.504
612.000	385.332	80.008	19.994	103.877	20.037	2.986	0.508
614.000	386.317	80.006	19.994	103.877	20.039	2.837	0.462
616.000	387.276	80.006	19.995	103.878	20.039	2.803	0.460
618.000	388.261	80.005	19.994	103.876	20.037	2.947	0.477
620.000	389.243	80.003	19.995	103.876	20.038	2.902	0.475
622.000	390.237	80.003	19.995	103.872	20.039	2.827	0.503
624.001	391.222	80.004	19.994	103.867	20.035	3.097	0.496
626.000	392.196	80.003	19.994	103.865	20.035	3.095	0.505
628.000	393.216	80.002	19.994	103.874	20.033	3.277	0.497
630.000	394.232	80.002	19.995	103.865	20.033	3.257	0.496
632.000	395.192	80.003	19.994	103.855	20.030	3.445	0.482
634.000	396.222	80.002	19.995	103.852	20.031	3.404	0.519
636.000	397.177	80.003	19.994	103.871	20.034	3.162	0.501
638.000	398.195	80.003	19.995	103.871	20.036	3.078	0.480
640.000	399.156	80.003	19.994	103.878	20.034	3.194	0.530
642.000	400.164	80.003	19.995	103.876	20.033	3.294	0.519
644.000	401.176	80.004	19.994	103.876	20.035	3.120	0.523
646.001	402.197	80.003	19.995	103.870	20.034	3.220	0.519
648.000	403.182	80.003	19.996	103.872	20.035	3.134	0.502
650.000	404.219	80.005	19.995	103.871	20.029	3.530	0.499
652.000	405.202	80.004	19.995	103.857	20.030	3.479	0.505
654.000	406.195	80.003	19.995	103.853	20.030	3.501	0.487
656.000	407.221	80.004	19.995	103.870	20.032	3.357	0.511
658.000	408.275	80.003	19.995	103.872	20.029	3.534	0.504
660.000	409.270	80.003	19.994	103.865	20.029	3.558	0.510
662.000	410.283	80.003	19.994	103.851	20.029	3.577	0.505
664.000	411.311	80.004	19.995	103.865	20.025	3.837	0.491
666.000	412.312	80.003	19.995	103.869	20.026	3.764	0.505
668.000	413.366	80.004	19.996	103.874	20.028	3.585	0.527
670.000	414.361	80.003	19.996	103.874	20.026	3.790	0.493
672.000	415.377	80.003	19.997	103.872	20.027	3.679	0.520
674.000	416.381	80.005	19.996	103.872	20.025	3.850	0.505
676.000	417.377	80.003	19.996	103.866	20.024	3.908	0.483
678.000	418.411	80.004	19.997	103.873	20.021	4.090	0.503
680.001	419.425	80.005	19.997	103.872	20.022	4.023	0.497
682.000	420.476	80.004	19.995	103.868	20.022	4.008	0.542
684.000	421.465	80.004	19.994	103.867	20.019	4.246	0.502
686.000	422.498	80.004	19.996	103.851	20.018	4.344	0.524
688.000	423.487	80.004	19.994	103.861	20.015	4.542	0.483
690.000	424.486	80.006	19.995	103.852	20.010	4.905	0.503
692.000	425.492	80.006	19.994	103.863	20.009	4.942	0.477
694.000	426.515	80.004	19.994	103.865	20.009	4.965	0.495
696.000	427.558	80.006	19.994	103.865	20.003	5.365	0.538
698.000	428.579	80.005	19.996	103.879	20.004	5.295	0.503
700.000	429.592	80.005	19.994	103.878	19.998	5.753	0.495
702.000	430.608	80.004	19.995	103.879	19.994	6.005	0.507
704.000	431.610	80.004	19.993	103.883	19.993	6.113	0.498
706.000	432.646	80.003	19.994	103.885	19.984	6.727	0.493
708.000	433.705	80.004	19.994	103.875	19.976	7.305	0.516
710.000	434.735	80.002	19.994	103.862	19.970	7.712	0.511
712.000	435.798	80.004	19.994	103.872	19.959	8.479	0.511
714.000	436.842	80.002	19.995	103.875	19.950	9.179	0.519
716.000	437.859	80.003	19.994	103.879	19.935	10.199	0.508
718.000	438.865	80.006	19.994	103.878	19.923	11.062	0.523
720.000	439.920	80.004	19.994	103.865	19.909	12.057	0.492
722.000	440.898	80.005	19.994	103.866	19.898	12.830	0.512
724.000	441.938	80.004	19.995	103.862	19.885	13.750	0.500
726.000	442.912	80.004	19.994	103.872	19.871	14.731	0.496
728.000	443.949	80.004	19.995	103.879	19.862	15.408	0.527
730.000	444.959	80.004	19.994	103.880	19.852	16.117	0.521
732.000	445.977	80.003	19.994	103.860	19.841	16.898	0.512
734.000	446.975	80.001	19.995	103.876	19.830	17.637	0.518
736.000	448.004	80.004	19.996	103.886	19.820	18.373	0.502
738.000	449.045	80.002	19.998	103.884	19.809	19.154	0.517
740.000	450.097	80.002	19.997	103.887	19.803	19.567	0.548
742.000	451.127	80.003	19.994	103.878	19.803	19.547	0.518
744.000	452.183	80.004	19.995	103.879	19.797	19.969	0.514
746.000	453.201	80.004	19.995	103.899	19.783	20.976	0.501
748.000	454.254	80.005	19.995	103.912	19.770	21.915	0.523
750.000	455.350	80.005	19.994	103.906	19.751	23.268	0.548
752.000	456.392	80.004	19.995	103.880	19.747	23.507	0.532
754.000	457.437	80.005	19.995	103.857	19.745	23.646	0.508
756.000	458.469	80.005	19.995	103.879	19.732	24.627	0.517
758.001	459.521	80.004	19.994	103.898	19.717	25.675	0.515
760.000	460.556	80.004	19.995	103.923	19.709	26.245	0.488
762.000	461.618	80.005	19.996	103.891	19.714	25.905	0.529
764.000	462.634	80.003	19.995	103.849	19.717	25.699	0.514
766.000	463.653	80.004	19.996	103.865	19.703	26.703	0.490
768.000	464.674	80.004	19.996	103.936	19.679	28.351	0.518
770.000	465.686	80.004	19.996	103.947	19.654	30.158	0.511
772.001	466.716	80.005	19.995	103.919	19.620	32.578	0.510
774.000	467.745	80.006	19.995	103.906	19.582	35.267	0.516
776.000	468.770	80.006	19.995	103.898	19.546	37.801	0.521
778.000	469.783	80.007	19.995	103.893	19.522	39.503	0.515
780.001	470.788	80.005	19.994	103.879	19.495	41.469	0.505
782.000	471.835	80.005	19.996	103.884	19.476	42.804	0.514
784.000	472.895	80.004	19.996	103.908	19.455	44.263	0.542
786.000	473.995	80.005	19.995	103.911	19.424	46.402	0.564
788.000	475.048	80.004	19.994	103.943	19.389	48.919	0.530
790.000	476.063	80.004	19.995	103.945	19.349	51.840	0.508
792.000	477.105	80.003	19.994	103.928	19.325	53.567	0.507
794.001	478.141	80.003	19.995	103.902	19.329	53.242	0.499
796.000	479.139	80.003	19.995	103.852	19.346	51.943	0.502
798.000	480.162	80.004	19.997	103.867	19.353	51.463	0.504
800.000	481.158	80.004	19.995	103.936	19.314	54.275	0.495
802.000	482.213	80.004	19.994	104.045	19.225	60.686	0.522
804.000	483.248	80.005	19.995	104.105	19.171	64.526	0.492
806.000	484.331	80.004	19.994	103.951	19.165	64.898	0.535
808.000	485.293	80.004	19.994	103.808	19.144	66.341	0.524
810.000	486.365	80.004	19.994	103.843	19.070	71.565	0.525
812.000	487.386	80.004	19.994	104.039	18.954	79.752	0.516
814.000	488.456	80.004	19.994	104.150	18.829	88.681	0.540
816.000	489.430	80.002	19.996	104.049	18.691	98.664	0.480
818.000	490.485	80.003	19.995	103.973	18.603	104.943	0.523
820.000	491.531	80.002	19.995	103.881	18.574	106.890	0.497
822.000	492.475	80.002	19.995	103.828	18.560	107.848	0.468
824.000	493.434	80.002	19.994	103.892	18.516	111.135	0.474
826.001	494.497	80.004	19.995	104.025	18.446	116.094	0.482
828.000	495.507	80.004	19.996	104.154	18.396	119.448	0.527
830.001	496.500	80.003	19.995	104.087	18.362	121.874	0.507
832.000	497.499	80.004	19.995	103.935	18.251	130.058	0.521
834.000	498.453	80.003	19.995	104.068	18.140	137.912	0.491
836.000	499.486	80.003	19.994	104.137	18.069	142.737	0.485
838.000	500.461	80.005	19.996	104.049	18.015	146.424	0.489
840.000	501.449	80.004	19.994	103.936	17.876	156.463	0.506
842.000	502.496	80.004	19.995	104.094	17.730	167.045	0.520
844.000	503.501	80.004	19.994	104.230	17.626	174.458	0.479
846.000	504.558	80.005	19.995	104.096	17.557	179.400	0.525
848.000	505.523	80.003	19.995	103.949	17.498	183.537	0.503
850.000	506.618	80.004	19.995	103.961	17.438	187.733	0.531
852.000	507.678	80.004	19.996	104.104	17.359	193.409	0.548
854.000	508.668	80.005	19.995	104.172	17.263	200.272	0.521
856.000	509.666	80.004	19.996	104.189	17.175	206.591	0.528
858.000	510.745	80.005	19.997	104.159	17.084	213.094	0.506
860.000	511.781	80.005	19.997	104.129	17.009	218.432	0.516
862.000	512.733	80.005	19.996	104.119	16.918	224.942	0.563
864.000	513.866	80.003	19.996	104.166	16.822	231.753	0.578
866.000	514.970	80.003	19.996	104.202	16.729	238.452	0.561
868.000	515.828	80.004	19.996	104.231	16.626	245.822	0.421
870.000	517.354	80.004	19.995	104.225	16.524	253.057	0.434
872.000	518.127	80.004	19.995	104.238	16.424	260.227	0.567
874.000	518.775	80.003	19.994	104.226	16.322	267.506	0.077
876.000	520.095	80.003	19.994	104.246	16.229	274.095	0.442
878.000	521.114	80.002	19.995	104.264	16.142	280.282	0.584
880.000	522.136	80.003	19.995	104.272	16.058	286.206	0.505
882.000	523.146	80.002	19.994	104.268	15.985	291.447	0.460
884.000	524.097	80.003	19.995	104.285	15.928	295.511	0.553
886.000	525.174	80.004	19.996	104.279	15.894	297.989	0.538
888.000	526.107	80.003	19.995	104.268	15.891	298.097	0.454
890.000	527.186	80.005	19.994	104.266	15.923	295.802	0.549
892.000	528.211	80.004	19.994	104.279	15.979	291.756	0.491
894.000	529.251	80.004	19.994	104.277	16.073	285.006	0.537
896.000	530.233	80.003	19.994	104.289	16.207	275.449	0.509
898.000	531.230	80.003	19.995	104.278	16.369	263.909	0.487
900.000	532.244	80.003	19.995	104.257	16.565	249.880	0.505
902.000	533.264	80.004	19.994	104.243	16.792	233.699	0.472
904.000	534.323	80.003	19.994	104.224	17.044	215.776	0.531
906.000	535.342	80.004	19.995	104.205	17.309	196.922	0.509
908.000	536.319	80.005	19.995	104.189	17.583	177.379	0.492
910.000	537.369	80.006	19.994	104.171	17.853	158.159	0.515
912.000	538.397	80.005	19.995	104.151	18.113	139.632	0.532
914.000	539.421	80.005	19.995	104.139	18.354	122.484	0.525
916.000	540.484	80.005	19.996	104.114	18.581	106.376	0.506
918.000	541.437	80.004	19.997	104.112	18.783	91.978	0.509
920.000	542.467	80.004	19.995	104.086	18.959	79.486	0.509
922.000	543.509	80.004	19.995	104.054	19.108	68.873	0.485
924.000	544.505	80.004	19.996	104.026	19.236	59.755	0.494
926.000	545.477	80.004	19.996	103.995	19.341	52.324	0.499
928.000	546.466	80.003	19.997	103.972	19.431	45.976	0.483
930.000	547.511	80.005	19.995	103.938	19.509	40.445	0.480
932.000	548.528	80.005	19.995	103.916	19.574	35.820	0.472
934.000	549.556	80.006	19.995	103.897	19.625	32.207	0.490
936.000	550.548	80.006	19.996	103.887	19.667	29.195	0.508
938.000	551.523	80.005	19.995	103.877	19.710	26.147	0.515
940.000	552.423	80.006	19.996	103.877	19.740	24.055	0.483
942.000	553.421	80.004	19.995	103.876	19.765	22.286	0.509
944.000	554.388	80.005	19.995	103.870	19.786	20.758	0.507
946.000	555.401	80.004	19.996	103.857	19.809	19.170	0.480
948.000	556.343	80.002	19.995	103.863	19.824	18.061	0.458
950.000	557.353	80.003	19.995	103.863	19.838	17.107	0.490
952.000	558.317	80.003	19.997	103.867	19.850	16.218	0.495
954.000	559.273	80.002	19.995	103.866	19.866	15.134	0.467
956.000	560.275	80.004	19.995	103.846	19.871	14.730	0.468
958.000	561.202	80.002	19.996	103.859	19.875	14.470	0.476
960.000	562.238	80.003	19.995	103.851	19.882	13.935	0.523
962.000	563.234	80.003	19.995	103.861	19.886	13.676	0.471
964.000	564.238	80.003	19.995	103.861	19.895	13.012	0.515
966.000	565.205	80.003	19.993	103.852	19.895	13.025	0.447
968.000	566.275	80.004	19.996	103.851	19.902	12.533	0.524
970.000	567.236	80.005	19.995	103.841	19.908	12.144	0.485
972.000	568.246	80.005	19.995	103.851	19.914	11.706	0.506
974.000	569.254	80.003	19.994	103.849	19.913	11.792	0.487
976.001	570.302	80.005	19.994	103.854	19.918	11.382	0.539
978.000	571.294	80.003	19.995	103.863	19.921	11.218	0.510
980.000	572.344	80.003	19.995	103.870	19.922	11.136	0.534
982.000	573.427	80.002	19.996	103.871	19.925	10.933	0.580
984.000	574.464	80.003	19.995	103.850	19.927	10.763	0.512
986.000	575.542	80.004	19.996	103.844	19.925	10.942	0.511
988.000	576.557	80.003	19.995	103.846	19.931	10.503	0.490
990.000	577.614	80.004	19.995	103.863	19.929	10.629	0.544
992.000	578.657	80.004	19.994	103.847	19.929	10.637	0.548
994.000	579.700	80.005	19.994	103.852	19.931	10.526	0.538
996.000	580.749	80.005	19.994	103.861	19.935	10.223	0.524
998.000	581.788	80.005	19.996	103.845	19.939	9.929	0.498
1000.000	582.842	80.004	19.994	103.859	19.938	9.973	0.503
1002.000	583.920	80.005	19.994	103.850	19.938	9.988	0.552
1004.000	584.982	80.005	19.994	103.857	19.942	9.727	0.513
1006.000	586.048	80.004	19.996	103.863	19.939	9.910	0.534
1008.000	587.104	80.004	19.995	103.855	19.944	9.571	0.525
1010.000	588.212	80.004	19.995	103.873	19.947	9.355	0.529
1012.000	589.279	80.003	19.996	103.875	19.946	9.463	0.537
1014.001	590.394	80.003	19.995	103.873	19.945	9.485	0.562
1016.000	591.445	80.006	19.994	103.863	19.949	9.252	0.542
1018.000	592.501	80.005	19.995	103.844	19.950	9.175	0.514
1020.000	593.573	80.005	19.996	103.858	19.951	9.084	0.526
1022.000	594.674	80.006	19.994	103.853	19.952	9.030	0.534
1024.000	595.766	80.006	19.993	103.850	19.955	8.821	0.562
1026.000	596.841	80.005	19.994	103.862	19.960	8.444	0.541
1028.000	597.902	80.005	19.994	103.860	19.960	8.440	0.527
1030.000	598.993	80.003	19.995	103.854	19.960	8.424	0.541
1032.000	600.018	80.003	19.995	103.840	19.961	8.387	0.531
1034.000	601.113	80.004	19.994	103.850	19.962	8.314	0.538
1036.000	602.137	80.002	19.995	103.842	19.962	8.269	0.535
1038.000	603.224	80.003	19.997	103.840	19.963	8.244	0.568
1040.000	604.257	80.002	19.995	103.845	19.965	8.106	0.543
1042.000	605.320	80.002	19.996	103.839	19.965	8.065	0.534
1044.000	606.358	80.003	19.995	103.839	19.967	7.925	0.527
1046.001	607.398	80.002	19.995	103.852	19.967	7.966	0.525
1048.000	608.419	80.003	19.995	103.845	19.972	7.617	0.524
1050.000	609.473	80.003	19.996	103.847	19.970	7.714	0.545
1052.000	610.485	80.003	19.996	103.860	19.978	7.189	0.497
1054.000	611.513	80.003	19.996	103.849	19.975	7.346	0.507
1056.001	612.569	80.004	19.995	103.843	19.976	7.283	0.514
1058.001	613.632	80.005	19.995	103.839	19.978	7.133	0.538
1060.000	614.634	80.003	19.995	103.838	19.977	7.244	0.527
1062.000	615.650	80.003	19.995	103.840	19.976	7.295	0.529
1064.000	616.688	80.003	19.994	103.846	19.978	7.164	0.530
1066.000	617.697	80.003	19.994	103.841	19.979	7.078	0.515
1068.001	618.739	80.003	19.993	103.842	19.981	6.932	0.546
1070.000	619.775	80.003	19.994	103.844	19.981	6.914	0.502
1072.001	620.800	80.004	19.994	103.846	19.985	6.629	0.514
1074.000	621.848	80.003	19.995	103.845	19.982	6.909	0.522
1076.000	622.883	80.004	19.995	103.860	19.984	6.749	0.517
1078.002	623.877	80.005	19.994	103.851	19.981	6.916	0.515
1080.001	624.910	80.005	19.994	103.840	19.984	6.715	0.512
1082.000	625.920	80.005	19.995	103.840	19.981	6.936	0.492
1084.000	626.923	80.005	19.993	103.841	19.984	6.753	0.495
1086.000	628.043	80.004	19.994	103.848	19.985	6.637	0.524
1088.000	629.013	80.005	19.995	103.842	19.988	6.444	0.483
1090.000	630.039	80.004	19.993	103.841	19.987	6.489	0.523
1092.002	631.052	80.003	19.995	103.844	19.989	6.383	0.515
1094.000	632.070	80.005	19.994	103.844	19.990	6.276	0.507
1096.001	633.054	80.004	19.994	103.841	19.994	6.027	0.499
1098.001	634.112	80.006	19.995	103.841	19.994	5.993	0.519
1100.000	635.177	80.006	19.995	103.846	19.992	6.153	0.520
1102.001	636.262	80.006	19.995	103.840	19.995	5.921	0.569
1104.000	637.244	80.004	19.996	103.838	19.992	6.167	0.493
1106.000	638.258	80.007	19.995	103.841	19.991	6.202	0.484
1108.000	639.324	80.006	19.994	103.840	19.994	6.052	0.538
1110.001	640.344	80.005	19.995	103.840	19.995	5.927	0.549
1112.000	641.340	80.004	19.996	103.839	19.994	5.993	0.515
1114.000	642.382	80.005	19.995	103.837	20.002	5.472	0.511
1116.001	643.341	80.004	19.994	103.838	19.997	5.822	0.452
1118.000	644.429	80.003	19.996	103.837	20.002	5.455	0.576
1120.000	645.381	80.004	19.995	103.835	19.994	5.990	0.489
1122.000	646.382	80.004	19.994	103.837	19.997	5.808	0.487
1124.000	647.396	80.004	19.996	103.838	19.999	5.648	0.508
1126.001	648.420	80.004	19.996	103.838	19.998	5.728	0.479
1128.000	649.453	80.005	19.995	103.842	20.009	4.975	0.527
1130.000	650.441	80.003	19.995	103.844	20.003	5.394	0.503
1132.001	651.542	80.004	19.995	103.840	20.001	5.537	0.565
1134.001	652.496	80.004	19.995	103.840	20.002	5.430	0.471
1136.000	653.576	80.003	19.996	103.840	20.001	5.513	0.529
1138.000	654.635	80.003	19.994	103.841	20.002	5.472	0.548
1140.000	655.669	80.004	19.995	103.840	20.001	5.510	0.518
1142.000	656.541	80.003	19.996	103.840	20.003	5.384	0.510
1144.001	657.608	80.002	19.996	103.841	20.005	5.241	0.505
1146.000	658.590	80.002	19.996	103.840	20.007	5.070	0.473
1148.000	659.622	80.003	19.996	103.840	20.005	5.236	0.520
1150.000	660.645	80.002	19.995	103.841	20.009	4.973	0.509
1152.000	661.646	80.002	19.995	103.847	20.006	5.147	0.493
1154.001	662.651	80.003	19.994	103.874	20.004	5.348	0.459
1156.000	663.692	80.003	19.993	103.844	20.009	4.974	0.503
1158.000	664.720	80.004	19.994	103.832	20.007	5.101	0.470
1160.001	665.726	80.005	19.996	103.838	20.007	5.123	0.535
1162.000	666.724	80.006	19.994	103.837	20.007	5.121	0.502
1164.001	667.740	80.005	19.994	103.844	20.011	4.848	0.505
1166.000	668.717	80.005	19.996	103.831	20.015	4.548	0.463
1168.001	669.709	80.005	19.994	103.824	20.010	4.871	0.516
1170.000	670.677	80.003	19.995	103.829	20.009	4.953	0.477
1172.000	671.661	80.005	19.996	103.832	20.013	4.665	0.499
1174.000	672.682	80.004	19.997	103.837	20.010	4.871	0.494
1176.000	673.625	80.004	19.994	103.838	20.011	4.838	0.496
1178.000	674.667	80.005	19.996	103.830	20.010	4.881	0.525
1180.000	675.759	80.005	19.994	103.820	20.007	5.078	0.551
1182.000	676.584	80.007	19.995	103.835	20.010	4.856	0.539
1184.000	677.608	80.007	19.995	103.834	20.010	4.910	0.488
1186.000	678.595	80.006	19.993	103.832	20.012	4.770	0.489
1188.000	679.553	80.007	19.994	103.836	20.011	4.795	0.453
1190.001	680.542	80.006	19.996	103.838	20.008	5.049	0.476
1192.000	681.533	80.005	19.994	103.831	20.012	4.748	0.475
1194.001	682.526	80.004	19.993	103.834	20.009	4.961	0.524
1196.000	683.485	80.005	19.995	103.836	20.011	4.784	0.484
1198.000	684.501	80.004	19.994	103.840	20.009	4.944	0.518
1200.001	685.449	80.004	19.993	103.838	20.014	4.637	0.488
1202.001	686.445	80.004	19.995	103.831	20.013	4.652	0.504
1204.000	687.365	80.005	19.995	103.833	20.012	4.738	0.467
1206.000	688.365	80.004	19.995	103.840	20.010	4.891	0.477
1208.000	689.374	80.004	19.995	103.838	20.012	4.759	0.494
1210.000	690.332	80.004	19.996	103.838	20.013	4.706	0.461
1212.000	691.318	80.004	19.996	103.825	20.013	4.704	0.486
1214.000	692.374	80.005	19.996	103.827	20.014	4.639	0.540
1216.000	693.348	80.004	19.994	103.829	20.013	4.647	0.512
1218.000	694.403	80.004	19.996	103.843	20.013	4.672	0.543
1220.000	695.462	80.004	19.995	103.848	20.012	4.748	0.533
1222.000	696.556	80.004	19.995	103.843	20.014	4.598	0.555
1224.000	697.673	80.003	19.997	103.840	20.011	4.818	0.561
1226.001	698.802	80.003	19.996	103.845	20.011	4.838	0.586
1228.000	699.910	80.003	19.997	103.843	20.007	5.094	0.556
1230.000	700.979	80.005	19.996	103.834	20.010	4.856	0.556
1232.000	702.037	80.005	19.996	103.835	20.007	5.070	0.517
1234.001	703.176	80.004	19.996	103.833	20.008	5.061	0.575
1236.000	704.293	80.004	19.996	103.824	20.007	5.135	0.543
1238.000	705.392	80.004	19.996	103.827	20.005	5.215	0.566
1240.000	706.481	80.004	19.995	103.833	20.005	5.270	0.542
1242.000	707.609	80.005	19.994	103.833	20.003	5.379	0.545
1244.000	708.746	80.006	19.995	103.835	20.003	5.361	0.578
1246.000	709.895	80.005	19.995	103.838	20.004	5.344	0.576
1248.001	710.979	80.005	19.994	103.839	20.007	5.098	0.561
1250.000	712.189	80.006	19.995	103.838	20.007	5.117	0.589
1252.001	713.315	80.006	19.994	103.844	20.006	5.205	0.563
1254.000	714.404	80.004	19.995	103.838	20.008	5.010	0.554
1256.000	715.645	80.005	19.995	103.840	20.009	4.938	0.593
1258.000	716.829	80.004	19.996	103.848	20.007	5.078	0.616
1260.000	717.951	80.006	19.994	103.845	20.008	5.022	0.560
1262.001	719.147	80.006	19.995	103.836	20.007	5.135	0.567
1264.000	720.291	80.008	19.994	103.839	20.008	5.051	0.584
1266.000	721.411	80.006	19.994	103.842	20.008	5.027	0.576
1268.000	722.563	80.007	19.995	103.840	20.008	5.063	0.598
1270.000	723.719	80.006	19.995	103.838	20.004	5.313	0.583
1272.000	724.874	80.005	19.995	103.837	20.008	5.059	0.561
1274.000	726.006	80.005	19.995	103.834	20.007	5.108	0.589
1276.000	727.148	80.004	19.995	103.836	20.010	4.899	0.592
1278.001	728.304	80.004	19.995	103.830	20.010	4.917	0.555
1280.001	729.458	80.003	19.995	103.843	20.010	4.872	0.560
1282.000	730.571	80.004	19.994	103.848	20.014	4.624	0.564
1284.000	731.749	80.005	19.996	103.850	20.014	4.637	0.593
1286.000	732.885	80.005	19.995	103.851	20.014	4.592	0.589
1288.001	734.026	80.003	19.994	103.849	20.013	4.698	0.573
1290.000	735.125	80.005	19.995	103.848	20.010	4.887	0.558
1292.000	736.268	80.004	19.996	103.850	20.013	4.704	0.556
1294.000	737.362	80.004	19.995	103.846	20.012	4.764	0.549
1296.000	738.487	80.005	19.995	103.832	20.006	5.168	0.556
1298.001	739.606	80.005	19.995	103.838	20.011	4.840	0.541
1300.000	740.701	80.003	19.996	103.839	20.009	4.960	0.536
1302.000	741.746	80.004	19.995	103.838	20.008	5.014	0.546
1304.000	742.845	80.003	19.996	103.836	20.008	5.004	0.541
1305.000	743.406	80.004	19.996	103.833	20.007	5.073	0.568