File: 01_Data/Overstuffed_Chair_Polyester_Fabric/FTIR/IS/Overstuffed_Chair_Polyester_Fabric_IS_S_221019_R6.dpt
7497.03,0.83980
7491.24,0.83879
7485.46,0.83672
7479.67,0.82891
7473.88,0.82886
7468.1,0.82924
7462.31,0.83703
7456.53,0.83244
7450.74,0.82099
7444.95,0.82181
7439.17,0.82735
7433.38,0.83343
7427.59,0.83360
7421.81,0.82523
7416.02,0.82468
7410.24,0.83328
7404.45,0.82637
7398.66,0.82975
7392.88,0.82211
7387.09,0.81864
7381.31,0.82562
7375.52,0.82243
7369.73,0.82018
7363.95,0.80932
7358.16,0.81862
7352.37,0.81486
7346.59,0.81751
7340.8,0.81652
7335.02,0.81629
7329.23,0.81781
7323.44,0.82420
7317.66,0.81923
7311.87,0.81338
7306.08,0.81115
7300.3,0.81843
7294.51,0.81486
7288.73,0.81325
7282.94,0.82092
7277.15,0.82449
7271.37,0.82018
7265.58,0.81635
7259.79,0.82085
7254.01,0.81308
7248.22,0.81505
7242.44,0.80981
7236.65,0.81744
7230.86,0.81543
7225.08,0.81771
7219.29,0.81071
7213.5,0.81528
7207.72,0.81680
7201.93,0.81452
7196.15,0.81711
7190.36,0.82015
7184.57,0.81197
7178.79,0.82158
7173,0.81354
7167.21,0.82119
7161.43,0.81699
7155.64,0.81109
7149.86,0.80639
7144.07,0.80836
7138.28,0.81485
7132.5,0.80959
7126.71,0.80970
7120.92,0.80253
7115.14,0.80807
7109.35,0.81211
7103.57,0.80932
7097.78,0.80348
7091.99,0.80566
7086.21,0.80947
7080.42,0.81574
7074.63,0.80640
7068.85,0.80673
7063.06,0.80672
7057.28,0.80318
7051.49,0.80702
7045.7,0.80702
7039.92,0.80507
7034.13,0.81236
7028.34,0.80527
7022.56,0.80194
7016.77,0.80783
7010.99,0.80698
7005.2,0.80467
6999.41,0.80655
6993.63,0.81033
6987.84,0.80386
6982.06,0.81027
6976.27,0.80136
6970.48,0.80642
6964.7,0.80509
6958.91,0.80109
6953.12,0.80460
6947.34,0.80540
6941.55,0.79684
6935.77,0.80241
6929.98,0.80977
6924.19,0.80260
6918.41,0.80327
6912.62,0.80817
6906.83,0.80859
6901.05,0.81143
6895.26,0.81187
6889.48,0.80326
6883.69,0.80548
6877.9,0.80419
6872.12,0.81035
6866.33,0.80751
6860.54,0.80360
6854.76,0.80855
6848.97,0.80752
6843.19,0.80978
6837.4,0.80834
6831.61,0.80524
6825.83,0.80717
6820.04,0.81122
6814.25,0.81024
6808.47,0.80863
6802.68,0.81010
6796.9,0.81345
6791.11,0.81515
6785.32,0.81268
6779.54,0.81052
6773.75,0.81276
6767.96,0.81128
6762.18,0.80707
6756.39,0.81007
6750.61,0.81303
6744.82,0.81871
6739.03,0.81704
6733.25,0.81156
6727.46,0.81473
6721.67,0.81052
6715.89,0.81386
6710.1,0.81058
6704.32,0.81130
6698.53,0.81266
6692.74,0.81201
6686.96,0.81120
6681.17,0.81267
6675.38,0.81413
6669.6,0.81213
6663.81,0.81391
6658.03,0.81060
6652.24,0.81267
6646.45,0.81464
6640.67,0.81080
6634.88,0.80891
6629.09,0.81427
6623.31,0.81232
6617.52,0.81475
6611.74,0.81545
6605.95,0.81714
6600.16,0.81747
6594.38,0.81591
6588.59,0.81925
6582.8,0.81498
6577.02,0.81160
6571.23,0.81709
6565.45,0.81377
6559.66,0.81584
6553.87,0.81839
6548.09,0.81501
6542.3,0.82168
6536.52,0.81889
6530.73,0.82145
6524.94,0.82020
6519.16,0.82114
6513.37,0.81978
6507.58,0.81592
6501.8,0.81892
6496.01,0.81980
6490.23,0.81930
6484.44,0.81765
6478.65,0.81964
6472.87,0.81681
6467.08,0.82157
6461.29,0.81998
6455.51,0.81748
6449.72,0.81933
6443.94,0.81592
6438.15,0.82128
6432.36,0.81872
6426.58,0.81481
6420.79,0.81799
6415,0.81973
6409.22,0.81777
6403.43,0.81805
6397.65,0.81887
6391.86,0.82225
6386.07,0.81805
6380.29,0.81726
6374.5,0.81928
6368.71,0.81939
6362.93,0.81799
6357.14,0.81511
6351.36,0.81385
6345.57,0.81802
6339.78,0.82489
6334,0.81472
6328.21,0.82102
6322.42,0.81963
6316.64,0.82002
6310.85,0.82170
6305.07,0.81667
6299.28,0.81899
6293.49,0.81760
6287.71,0.81675
6281.92,0.81921
6276.13,0.81846
6270.35,0.81976
6264.56,0.81935
6258.78,0.81551
6252.99,0.82002
6247.2,0.81995
6241.42,0.81633
6235.63,0.81742
6229.84,0.81564
6224.06,0.81586
6218.27,0.81541
6212.49,0.81122
6206.7,0.80800
6200.91,0.80899
6195.13,0.80851
6189.34,0.80693
6183.55,0.80423
6177.77,0.80761
6171.98,0.80944
6166.2,0.80809
6160.41,0.80275
6154.62,0.79839
6148.84,0.79524
6143.05,0.79325
6137.26,0.79563
6131.48,0.79499
6125.69,0.79229
6119.91,0.79353
6114.12,0.78619
6108.33,0.78268
6102.55,0.77257
6096.76,0.76715
6090.98,0.75681
6085.19,0.74621
6079.4,0.74468
6073.62,0.73842
6067.83,0.73085
6062.04,0.72208
6056.26,0.71034
6050.47,0.70424
6044.69,0.69784
6038.9,0.69149
6033.11,0.68706
6027.33,0.67887
6021.54,0.67753
6015.75,0.67464
6009.97,0.68056
6004.18,0.69096
5998.4,0.69982
5992.61,0.70507
5986.82,0.70962
5981.04,0.71305
5975.25,0.71363
5969.46,0.71482
5963.68,0.72246
5957.89,0.72706
5952.11,0.72834
5946.32,0.72977
5940.53,0.73114
5934.75,0.73566
5928.96,0.74046
5923.17,0.74738
5917.39,0.75181
5911.6,0.75532
5905.82,0.75933
5900.03,0.75953
5894.24,0.75792
5888.46,0.75666
5882.67,0.75125
5876.88,0.74922
5871.1,0.74982
5865.31,0.74491
5859.53,0.74440
5853.74,0.75014
5847.95,0.75379
5842.17,0.75157
5836.38,0.75048
5830.59,0.75016
5824.81,0.75177
5819.02,0.75122
5813.24,0.75133
5807.45,0.75036
5801.66,0.75008
5795.88,0.75004
5790.09,0.75309
5784.3,0.75159
5778.52,0.75302
5772.73,0.75255
5766.95,0.75337
5761.16,0.75780
5755.37,0.75920
5749.59,0.76305
5743.8,0.76629
5738.01,0.76804
5732.23,0.77276
5726.44,0.77290
5720.66,0.77424
5714.87,0.77317
5709.08,0.77395
5703.3,0.77238
5697.51,0.77572
5691.72,0.77647
5685.94,0.77751
5680.15,0.77828
5674.37,0.77856
5668.58,0.78169
5662.79,0.77927
5657.01,0.77765
5651.22,0.77890
5645.44,0.78084
5639.65,0.78303
5633.86,0.78547
5628.08,0.78905
5622.29,0.78881
5616.5,0.79033
5610.72,0.78815
5604.93,0.78706
5599.15,0.78854
5593.36,0.78821
5587.57,0.78642
5581.79,0.78643
5576,0.78430
5570.21,0.78259
5564.43,0.78333
5558.64,0.78136
5552.86,0.78352
5547.07,0.78186
5541.28,0.78430
5535.5,0.78256
5529.71,0.78280
5523.92,0.78498
5518.14,0.78485
5512.35,0.78616
5506.57,0.78621
5500.78,0.78729
5494.99,0.78483
5489.21,0.78390
5483.42,0.78264
5477.63,0.78235
5471.85,0.78338
5466.06,0.78294
5460.28,0.78494
5454.49,0.78658
5448.7,0.78734
5442.92,0.78805
5437.13,0.79102
5431.34,0.79466
5425.56,0.79475
5419.77,0.79641
5413.99,0.79758
5408.2,0.79539
5402.41,0.79685
5396.63,0.79655
5390.84,0.79513
5385.05,0.79615
5379.27,0.79668
5373.48,0.79733
5367.7,0.79673
5361.91,0.79387
5356.12,0.79302
5350.34,0.79407
5344.55,0.79464
5338.76,0.79668
5332.98,0.79535
5327.19,0.79748
5321.41,0.79641
5315.62,0.79817
5309.83,0.79752
5304.05,0.79655
5298.26,0.79492
5292.47,0.79393
5286.69,0.79439
5280.9,0.79140
5275.12,0.78939
5269.33,0.78802
5263.54,0.78610
5257.76,0.78379
5251.97,0.78570
5246.18,0.78287
5240.4,0.78247
5234.61,0.78299
5228.83,0.78157
5223.04,0.78133
5217.25,0.78100
5211.47,0.78211
5205.68,0.78188
5199.9,0.78167
5194.11,0.78180
5188.32,0.78347
5182.54,0.78114
5176.75,0.78168
5170.96,0.78247
5165.18,0.77878
5159.39,0.77712
5153.61,0.77647
5147.82,0.77408
5142.03,0.77315
5136.25,0.76936
5130.46,0.76707
5124.67,0.76311
5118.89,0.76163
5113.1,0.76317
5107.32,0.76879
5101.53,0.77288
5095.74,0.77592
5089.96,0.77990
5084.17,0.78154
5078.38,0.78230
5072.6,0.78385
5066.81,0.78457
5061.03,0.78597
5055.24,0.78678
5049.45,0.78773
5043.67,0.78671
5037.88,0.78751
5032.09,0.78587
5026.31,0.78672
5020.52,0.78611
5014.74,0.78585
5008.95,0.78550
5003.16,0.78661
4997.38,0.78684
4991.59,0.78729
4985.8,0.78559
4980.02,0.78639
4974.23,0.78660
4968.45,0.78682
4962.66,0.78583
4956.87,0.78357
4951.09,0.78177
4945.3,0.78117
4939.51,0.77990
4933.73,0.77871
4927.94,0.77684
4922.16,0.77598
4916.37,0.77574
4910.58,0.77425
4904.8,0.77225
4899.01,0.77123
4893.22,0.77056
4887.44,0.76840
4881.65,0.76824
4875.87,0.76709
4870.08,0.76845
4864.29,0.76865
4858.51,0.76717
4852.72,0.76688
4846.93,0.76317
4841.15,0.76080
4835.36,0.75855
4829.58,0.75347
4823.79,0.74966
4818,0.74746
4812.22,0.74386
4806.43,0.74018
4800.65,0.73956
4794.86,0.73862
4789.07,0.73925
4783.29,0.73995
4777.5,0.74223
4771.71,0.74479
4765.93,0.74517
4760.14,0.74244
4754.36,0.73844
4748.57,0.73171
4742.78,0.72575
4737,0.71860
4731.21,0.71003
4725.42,0.69757
4719.64,0.68944
4713.85,0.68654
4708.07,0.68410
4702.28,0.67355
4696.49,0.65913
4690.71,0.65170
4684.92,0.65623
4679.13,0.66929
4673.35,0.68235
4667.56,0.69301
4661.78,0.69589
4655.99,0.69727
4650.2,0.69271
4644.42,0.68176
4638.63,0.67098
4632.84,0.66885
4627.06,0.68089
4621.27,0.69797
4615.49,0.71195
4609.7,0.71726
4603.91,0.71681
4598.13,0.71025
4592.34,0.70050
4586.55,0.69673
4580.77,0.69216
4574.98,0.69764
4569.2,0.71042
4563.41,0.72239
4557.62,0.72615
4551.84,0.72750
4546.05,0.72658
4540.26,0.72567
4534.48,0.72540
4528.69,0.72350
4522.91,0.72128
4517.12,0.71656
4511.33,0.71024
4505.55,0.70196
4499.76,0.69027
4493.97,0.67535
4488.19,0.66251
4482.4,0.65677
4476.62,0.65005
4470.83,0.63722
4465.04,0.61760
4459.26,0.59957
4453.47,0.59762
4447.68,0.59925
4441.9,0.59466
4436.11,0.58923
4430.33,0.58812
4424.54,0.59536
4418.75,0.60591
4412.97,0.61054
4407.18,0.61122
4401.39,0.61399
4395.61,0.61837
4389.82,0.62387
4384.04,0.62760
4378.25,0.62889
4372.46,0.62881
4366.68,0.62770
4360.89,0.62493
4355.11,0.62499
4349.32,0.62403
4343.53,0.61965
4337.75,0.61637
4331.96,0.61592
4326.17,0.61676
4320.39,0.61684
4314.6,0.61448
4308.82,0.60854
4303.03,0.60162
4297.24,0.59573
4291.46,0.59381
4285.67,0.59435
4279.88,0.59806
4274.1,0.59989
4268.31,0.60304
4262.53,0.60525
4256.74,0.60708
4250.95,0.60447
4245.17,0.60388
4239.38,0.60470
4233.59,0.60619
4227.81,0.60513
4222.02,0.60756
4216.24,0.61286
4210.45,0.61686
4204.66,0.61799
4198.88,0.61939
4193.09,0.62001
4187.3,0.61550
4181.52,0.60699
4175.73,0.60459
4169.95,0.61074
4164.16,0.61884
4158.37,0.62499
4152.59,0.62712
4146.8,0.62691
4141.01,0.62121
4135.23,0.61385
4129.44,0.61024
4123.66,0.60951
4117.87,0.60657
4112.08,0.60058
4106.3,0.58950
4100.51,0.57534
4094.72,0.54865
4088.94,0.54140
4083.15,0.55614
4077.37,0.57648
4071.58,0.59418
4065.79,0.60335
4060.01,0.60921
4054.22,0.61373
4048.43,0.61768
4042.65,0.62318
4036.86,0.62790
4031.08,0.63033
4025.29,0.63177
4019.5,0.63173
4013.72,0.63149
4007.93,0.63165
4002.14,0.63320
3996.36,0.63467
3990.57,0.63702
3984.79,0.63964
3979,0.64023
3973.21,0.64001
3967.43,0.64093
3961.64,0.64425
3955.85,0.64706
3950.07,0.65016
3944.28,0.65286
3938.5,0.65386
3932.71,0.65430
3926.92,0.65416
3921.14,0.65469
3915.35,0.65576
3909.57,0.65875
3903.78,0.66166
3897.99,0.66724
3892.21,0.67194
3886.42,0.67555
3880.63,0.67654
3874.85,0.67881
3869.06,0.68131
3863.28,0.68313
3857.49,0.68368
3851.7,0.68567
3845.92,0.68524
3840.13,0.68536
3834.34,0.68477
3828.56,0.68466
3822.77,0.68399
3816.99,0.67888
3811.2,0.67203
3805.41,0.67088
3799.63,0.67329
3793.84,0.67791
3788.05,0.68049
3782.27,0.67996
3776.48,0.67752
3770.7,0.67388
3764.91,0.66843
3759.12,0.66320
3753.34,0.66903
3747.55,0.68060
3741.76,0.68456
3735.98,0.67995
3730.19,0.67570
3724.41,0.68300
3718.62,0.68812
3712.83,0.68738
3707.05,0.68047
3701.26,0.66718
3695.47,0.65139
3689.69,0.62738
3683.9,0.62046
3678.12,0.63902
3672.33,0.65463
3666.54,0.65460
3660.76,0.64801
3654.97,0.63917
3649.18,0.63012
3643.4,0.61983
3637.61,0.61158
3631.83,0.60383
3626.04,0.59530
3620.25,0.58793
3614.47,0.58011
3608.68,0.57248
3602.89,0.56429
3597.11,0.55322
3591.32,0.54053
3585.54,0.52727
3579.75,0.51209
3573.96,0.49751
3568.18,0.48511
3562.39,0.47337
3556.6,0.46378
3550.82,0.45761
3545.03,0.45398
3539.25,0.45286
3533.46,0.45284
3527.67,0.45383
3521.89,0.45483
3516.1,0.45660
3510.31,0.45708
3504.53,0.45754
3498.74,0.45713
3492.96,0.45463
3487.17,0.45146
3481.38,0.44698
3475.6,0.44093
3469.81,0.43271
3464.03,0.42147
3458.24,0.40869
3452.45,0.39413
3446.67,0.37895
3440.88,0.36157
3435.09,0.34207
3429.31,0.33523
3423.52,0.35786
3417.74,0.38242
3411.95,0.40104
3406.16,0.41500
3400.38,0.42426
3394.59,0.42923
3388.8,0.43254
3383.02,0.43245
3377.23,0.43266
3371.45,0.43169
3365.66,0.42929
3359.87,0.42533
3354.09,0.42011
3348.3,0.41323
3342.51,0.40703
3336.73,0.40339
3330.94,0.40543
3325.16,0.41222
3319.37,0.41548
3313.58,0.41592
3307.8,0.41505
3302.01,0.41301
3296.22,0.41485
3290.44,0.41809
3284.65,0.42198
3278.87,0.42389
3273.08,0.42683
3267.29,0.42914
3261.51,0.43114
3255.72,0.43242
3249.93,0.43355
3244.15,0.43361
3238.36,0.43391
3232.58,0.43535
3226.79,0.43722
3221,0.44124
3215.22,0.44492
3209.43,0.44684
3203.64,0.44738
3197.86,0.44645
3192.07,0.44644
3186.29,0.44736
3180.5,0.44926
3174.71,0.44923
3168.93,0.44941
3163.14,0.44953
3157.35,0.44846
3151.57,0.44702
3145.78,0.44328
3140,0.44002
3134.21,0.43324
3128.42,0.42705
3122.64,0.42799
3116.85,0.42554
3111.06,0.41511
3105.28,0.40224
3099.49,0.40275
3093.71,0.41002
3087.92,0.40250
3082.13,0.39002
3076.35,0.38730
3070.56,0.38372
3064.77,0.38299
3058.99,0.37606
3053.2,0.37004
3047.42,0.39949
3041.63,0.42261
3035.84,0.42452
3030.06,0.41400
3024.27,0.39463
3018.49,0.36139
3012.7,0.33877
3006.91,0.33608
3001.13,0.33127
2995.34,0.32351
2989.55,0.30899
2983.77,0.28567
2977.98,0.25424
2972.2,0.22572
2966.41,0.22699
2960.62,0.24112
2954.84,0.25827
2949.05,0.28275
2943.26,0.30766
2937.48,0.32365
2931.69,0.32549
2925.91,0.31736
2920.12,0.30358
2914.33,0.28364
2908.55,0.26447
2902.76,0.28775
2896.97,0.31587
2891.19,0.32479
2885.4,0.33263
2879.62,0.34304
2873.83,0.34991
2868.04,0.35456
2862.26,0.35841
2856.47,0.35999
2850.68,0.37120
2844.9,0.40345
2839.11,0.43141
2833.33,0.44950
2827.54,0.46305
2821.75,0.47042
2815.97,0.46929
2810.18,0.46782
2804.39,0.46937
2798.61,0.47807
2792.82,0.48828
2787.04,0.49634
2781.25,0.50356
2775.46,0.50917
2769.68,0.51315
2763.89,0.51503
2758.1,0.51567
2752.32,0.51488
2746.53,0.51476
2740.75,0.51784
2734.96,0.52588
2729.17,0.53371
2723.39,0.54028
2717.6,0.54377
2711.81,0.54890
2706.03,0.55415
2700.24,0.55804
2694.46,0.56137
2688.67,0.56284
2682.88,0.56326
2677.1,0.56431
2671.31,0.56669
2665.52,0.56698
2659.74,0.56632
2653.95,0.56306
2648.17,0.55878
2642.38,0.55011
2636.59,0.53800
2630.81,0.53260
2625.02,0.53428
2619.24,0.53720
2613.45,0.53631
2607.66,0.53536
2601.88,0.53247
2596.09,0.52732
2590.3,0.52080
2584.52,0.51658
2578.73,0.51676
2572.95,0.51836
2567.16,0.51722
2561.37,0.51569
2555.59,0.51480
2549.8,0.51340
2544.01,0.51230
2538.23,0.51095
2532.44,0.51209
2526.66,0.51568
2520.87,0.52095
2515.08,0.52600
2509.3,0.52816
2503.51,0.52890
2497.72,0.53062
2491.94,0.53617
2486.15,0.54353
2480.37,0.55052
2474.58,0.55681
2468.79,0.56010
2463.01,0.56183
2457.22,0.56182
2451.43,0.55975
2445.65,0.55624
2439.86,0.54874
2434.08,0.53963
2428.29,0.53043
2422.5,0.52012
2416.72,0.51069
2410.93,0.50245
2405.14,0.49468
2399.36,0.48825
2393.57,0.48456
2387.79,0.48361
2382,0.48580
2376.21,0.48965
2370.43,0.49540
2364.64,0.50516
2358.85,0.51822
2353.07,0.52917
2347.28,0.53682
2341.5,0.54152
2335.71,0.54168
2329.92,0.54560
2324.14,0.54925
2318.35,0.55362
2312.56,0.55354
2306.78,0.54640
2300.99,0.53251
2295.21,0.51615
2289.42,0.50335
2283.63,0.49869
2277.85,0.50029
2272.06,0.49866
2266.27,0.49424
2260.49,0.49187
2254.7,0.49345
2248.92,0.49873
2243.13,0.50676
2237.34,0.51342
2231.56,0.51764
2225.77,0.52064
2219.98,0.52270
2214.2,0.52471
2208.41,0.52779
2202.63,0.53497
2196.84,0.53895
2191.05,0.53843
2185.27,0.53426
2179.48,0.52658
2173.7,0.51732
2167.91,0.50544
2162.12,0.49086
2156.34,0.47551
2150.55,0.46291
2144.76,0.45272
2138.98,0.44542
2133.19,0.43764
2127.41,0.42680
2121.62,0.41578
2115.83,0.40855
2110.05,0.40630
2104.26,0.40815
2098.47,0.41015
2092.69,0.41397
2086.9,0.42185
2081.12,0.43360
2075.33,0.44651
2069.54,0.45962
2063.76,0.47462
2057.97,0.49034
2052.18,0.50248
2046.4,0.50917
2040.61,0.51160
2034.83,0.51021
2029.04,0.50301
2023.25,0.49144
2017.47,0.47906
2011.68,0.46748
2005.89,0.45553
2000.11,0.44174
1994.32,0.42856
1988.54,0.41490
1982.75,0.40244
1976.96,0.38797
1971.18,0.36729
1965.39,0.33725
1959.6,0.32185
1953.82,0.33453
1948.03,0.35214
1942.25,0.37105
1936.46,0.39003
1930.67,0.40705
1924.89,0.41983
1919.1,0.43067
1913.31,0.43948
1907.53,0.44647
1901.74,0.45126
1895.96,0.45396
1890.17,0.45483
1884.38,0.45388
1878.6,0.45051
1872.81,0.44214
1867.02,0.42970
1861.24,0.41491
1855.45,0.39467
1849.67,0.36904
1843.88,0.34482
1838.09,0.32473
1832.31,0.30870
1826.52,0.29852
1820.73,0.29566
1814.95,0.29369
1809.16,0.28941
1803.38,0.28591
1797.59,0.28180
1791.8,0.27459
1786.02,0.26387
1780.23,0.24961
1774.44,0.23207
1768.66,0.20956
1762.87,0.18164
1757.09,0.14496
1751.3,0.09890
1745.51,0.05344
1739.73,0.03374
1733.94,0.03340
1728.16,0.03748
1722.37,0.04269
1716.58,0.05217
1710.8,0.08158
1705.01,0.11894
1699.22,0.15045
1693.44,0.16984
1687.65,0.17591
1681.87,0.17907
1676.08,0.19913
1670.29,0.21486
1664.51,0.23591
1658.72,0.25265
1652.93,0.26192
1647.15,0.26918
1641.36,0.27647
1635.58,0.28286
1629.79,0.28637
1624,0.28600
1618.22,0.27225
1612.43,0.26089
1606.64,0.27814
1600.86,0.29224
1595.07,0.29528
1589.29,0.27945
1583.5,0.23947
1577.71,0.21165
1571.93,0.25337
1566.14,0.28369
1560.35,0.29124
1554.57,0.29004
1548.78,0.28570
1543,0.28120
1537.21,0.28249
1531.42,0.27266
1525.64,0.25944
1519.85,0.25617
1514.06,0.23299
1508.28,0.15159
1502.49,0.16378
1496.71,0.25550
1490.92,0.27162
1485.13,0.24382
1479.35,0.20314
1473.56,0.15826
1467.77,0.16071
1461.99,0.16149
1456.2,0.15030
1450.42,0.15131
1444.63,0.15551
1438.84,0.15964
1433.06,0.16930
1427.27,0.16764
1421.48,0.13493
1415.7,0.07546
1409.91,0.05888
1404.13,0.08930
1398.34,0.11521
1392.55,0.11779
1386.77,0.10714
1380.98,0.10648
1375.19,0.10227
1369.41,0.09626
1363.62,0.10132
1357.84,0.09356
1352.05,0.07152
1346.26,0.05676
1340.48,0.05829
1334.69,0.08670
1328.9,0.10916
1323.12,0.09182
1317.33,0.06824
1311.55,0.05052
1305.76,0.04043
1299.97,0.03605
1294.19,0.03713
1288.4,0.04172
1282.62,0.04884
1276.83,0.05614
1271.04,0.06050
1265.26,0.06301
1259.47,0.06500
1253.68,0.06598
1247.9,0.06237
1242.11,0.05815
1236.33,0.07154
1230.54,0.11119
1224.75,0.14653
1218.97,0.18151
1213.18,0.20553
1207.39,0.22356
1201.61,0.24687
1195.82,0.26232
1190.04,0.25917
1184.25,0.23405
1178.46,0.19960
1172.68,0.17919
1166.89,0.16672
1161.1,0.13697
1155.32,0.10404
1149.53,0.07319
1143.75,0.05220
1137.96,0.04749
1132.17,0.05448
1126.39,0.05886
1120.6,0.05849
1114.81,0.05983
1109.03,0.06087
1103.24,0.06318
1097.46,0.07270
1091.67,0.09389
1085.88,0.12633
1080.1,0.17495
1074.31,0.22758
1068.52,0.25757
1062.74,0.26940
1056.95,0.26197
1051.17,0.23871
1045.38,0.21691
1039.59,0.20802
1033.81,0.19255
1028.02,0.12644
1022.23,0.08584
1016.45,0.14062
1010.66,0.25942
1004.88,0.31119
999.09,0.31990
993.303,0.30700
987.517,0.27976
981.731,0.24926
975.945,0.19440
970.158,0.19012
964.372,0.24971
958.586,0.30313
952.8,0.33698
947.014,0.35266
941.227,0.35935
935.441,0.36065
929.655,0.35959
923.869,0.35593
918.082,0.34435
912.296,0.31918
906.51,0.28430
900.724,0.26018
894.937,0.25757
889.151,0.25453
883.365,0.22907
877.579,0.18847
871.793,0.17639
866.006,0.22767
860.22,0.22010
854.434,0.18954
848.648,0.17506
842.861,0.20729
837.075,0.24201
831.289,0.26510
825.503,0.27803
819.716,0.28047
813.93,0.27494
808.144,0.26730
802.358,0.25779
796.571,0.23078
790.785,0.22870
784.999,0.26476
779.213,0.27990
773.427,0.28724
767.64,0.29152
761.854,0.28965
756.068,0.27432
750.282,0.24559
744.495,0.18801
738.709,0.10092
732.923,0.05853
727.137,0.07643
721.35,0.16623
715.564,0.23839
709.778,0.24777
703.992,0.25621
698.206,0.28548
692.419,0.30287
686.633,0.29720
680.847,0.28068
675.061,0.28528
669.274,0.29214
663.488,0.29641
657.702,0.29336
651.916,0.29906
646.129,0.30124
640.343,0.29824
634.557,0.26897
628.771,0.27131
622.984,0.29347
617.198,0.29077
611.412,0.28863
605.626,0.28967
599.84,0.28265