File: 01_Data/Overstuffed_Chair_Polyester_Fabric/FTIR/IS/Overstuffed_Chair_Polyester_Fabric_IS_T_221019_R3.dpt
7497.03,0.02496
7491.24,0.02954
7485.46,0.02571
7479.67,0.02416
7473.88,0.02685
7468.1,0.02652
7462.31,0.03062
7456.53,0.02816
7450.74,0.02832
7444.95,0.02098
7439.17,0.01869
7433.38,0.02867
7427.59,0.02270
7421.81,0.02252
7416.02,0.02381
7410.24,0.02262
7404.45,0.02200
7398.66,0.03080
7392.88,0.02214
7387.09,0.03052
7381.31,0.02878
7375.52,0.02583
7369.73,0.02375
7363.95,0.02890
7358.16,0.02186
7352.37,0.01588
7346.59,0.01594
7340.8,0.02786
7335.02,0.03370
7329.23,0.02464
7323.44,0.01289
7317.66,0.02814
7311.87,0.03538
7306.08,0.01517
7300.3,0.02449
7294.51,0.02596
7288.73,0.02742
7282.94,0.01916
7277.15,0.02200
7271.37,0.02856
7265.58,0.02108
7259.79,0.02645
7254.01,0.02197
7248.22,0.02513
7242.44,0.01819
7236.65,0.02027
7230.86,0.02772
7225.08,0.02713
7219.29,0.03134
7213.5,0.02545
7207.72,0.02144
7201.93,0.01676
7196.15,0.02466
7190.36,0.02232
7184.57,0.02666
7178.79,0.02445
7173,0.02750
7167.21,0.02248
7161.43,0.02485
7155.64,0.02910
7149.86,0.02359
7144.07,0.01799
7138.28,0.02205
7132.5,0.02385
7126.71,0.02484
7120.92,0.02076
7115.14,0.02156
7109.35,0.02342
7103.57,0.02757
7097.78,0.02473
7091.99,0.02137
7086.21,0.02089
7080.42,0.01984
7074.63,0.02858
7068.85,0.02372
7063.06,0.01890
7057.28,0.02054
7051.49,0.02492
7045.7,0.02071
7039.92,0.02339
7034.13,0.02584
7028.34,0.02394
7022.56,0.02628
7016.77,0.01716
7010.99,0.02138
7005.2,0.02410
6999.41,0.02277
6993.63,0.02484
6987.84,0.02323
6982.06,0.01966
6976.27,0.02651
6970.48,0.02268
6964.7,0.02139
6958.91,0.01819
6953.12,0.02098
6947.34,0.02665
6941.55,0.02181
6935.77,0.02384
6929.98,0.03076
6924.19,0.02581
6918.41,0.02537
6912.62,0.02629
6906.83,0.02291
6901.05,0.02902
6895.26,0.02819
6889.48,0.01969
6883.69,0.02184
6877.9,0.02478
6872.12,0.02335
6866.33,0.02278
6860.54,0.02149
6854.76,0.02717
6848.97,0.02698
6843.19,0.02228
6837.4,0.01866
6831.61,0.02371
6825.83,0.02290
6820.04,0.02715
6814.25,0.02398
6808.47,0.02690
6802.68,0.02596
6796.9,0.02347
6791.11,0.02298
6785.32,0.01823
6779.54,0.02322
6773.75,0.01958
6767.96,0.02497
6762.18,0.02601
6756.39,0.02691
6750.61,0.02281
6744.82,0.02233
6739.03,0.02528
6733.25,0.02691
6727.46,0.02365
6721.67,0.02457
6715.89,0.02546
6710.1,0.02165
6704.32,0.02044
6698.53,0.02114
6692.74,0.02164
6686.96,0.02058
6681.17,0.02315
6675.38,0.01754
6669.6,0.01799
6663.81,0.02888
6658.03,0.01977
6652.24,0.02032
6646.45,0.02295
6640.67,0.02506
6634.88,0.02551
6629.09,0.01906
6623.31,0.02465
6617.52,0.02237
6611.74,0.02221
6605.95,0.02326
6600.16,0.02703
6594.38,0.02343
6588.59,0.02442
6582.8,0.02338
6577.02,0.02179
6571.23,0.02360
6565.45,0.02183
6559.66,0.01852
6553.87,0.02137
6548.09,0.01880
6542.3,0.02077
6536.52,0.02368
6530.73,0.02304
6524.94,0.02346
6519.16,0.02003
6513.37,0.02145
6507.58,0.02239
6501.8,0.02154
6496.01,0.02525
6490.23,0.02351
6484.44,0.02171
6478.65,0.02264
6472.87,0.02531
6467.08,0.02496
6461.29,0.02240
6455.51,0.02305
6449.72,0.02534
6443.94,0.02135
6438.15,0.02441
6432.36,0.02584
6426.58,0.02511
6420.79,0.02108
6415,0.02018
6409.22,0.02696
6403.43,0.02622
6397.65,0.02017
6391.86,0.02422
6386.07,0.01977
6380.29,0.01892
6374.5,0.02295
6368.71,0.02179
6362.93,0.02214
6357.14,0.02105
6351.36,0.02148
6345.57,0.01995
6339.78,0.02177
6334,0.01702
6328.21,0.02332
6322.42,0.02377
6316.64,0.02395
6310.85,0.02074
6305.07,0.02605
6299.28,0.02168
6293.49,0.02050
6287.71,0.02337
6281.92,0.02091
6276.13,0.02252
6270.35,0.01919
6264.56,0.02202
6258.78,0.01951
6252.99,0.02276
6247.2,0.02600
6241.42,0.02327
6235.63,0.02231
6229.84,0.02145
6224.06,0.02030
6218.27,0.02164
6212.49,0.02358
6206.7,0.02269
6200.91,0.02159
6195.13,0.02100
6189.34,0.02167
6183.55,0.02354
6177.77,0.01870
6171.98,0.01902
6166.2,0.02383
6160.41,0.02062
6154.62,0.02039
6148.84,0.02374
6143.05,0.02437
6137.26,0.02442
6131.48,0.01852
6125.69,0.01889
6119.91,0.02366
6114.12,0.02118
6108.33,0.02227
6102.55,0.02245
6096.76,0.02308
6090.98,0.02189
6085.19,0.02056
6079.4,0.02168
6073.62,0.02226
6067.83,0.02371
6062.04,0.02274
6056.26,0.01904
6050.47,0.02061
6044.69,0.02120
6038.9,0.02175
6033.11,0.02375
6027.33,0.02337
6021.54,0.02060
6015.75,0.02187
6009.97,0.02153
6004.18,0.02249
5998.4,0.02228
5992.61,0.02221
5986.82,0.02091
5981.04,0.02232
5975.25,0.02425
5969.46,0.02170
5963.68,0.01981
5957.89,0.01925
5952.11,0.02375
5946.32,0.01852
5940.53,0.02104
5934.75,0.02025
5928.96,0.01996
5923.17,0.01934
5917.39,0.02001
5911.6,0.02029
5905.82,0.01874
5900.03,0.02127
5894.24,0.02323
5888.46,0.02141
5882.67,0.02049
5876.88,0.02206
5871.1,0.02199
5865.31,0.02123
5859.53,0.02167
5853.74,0.02041
5847.95,0.02214
5842.17,0.02388
5836.38,0.02139
5830.59,0.02330
5824.81,0.02327
5819.02,0.02232
5813.24,0.01994
5807.45,0.01962
5801.66,0.02123
5795.88,0.02218
5790.09,0.02033
5784.3,0.02177
5778.52,0.02331
5772.73,0.02013
5766.95,0.02168
5761.16,0.02262
5755.37,0.02384
5749.59,0.02285
5743.8,0.02313
5738.01,0.02055
5732.23,0.02140
5726.44,0.02158
5720.66,0.02036
5714.87,0.02353
5709.08,0.02142
5703.3,0.02258
5697.51,0.02071
5691.72,0.02076
5685.94,0.02253
5680.15,0.01971
5674.37,0.02153
5668.58,0.02161
5662.79,0.02326
5657.01,0.02360
5651.22,0.02265
5645.44,0.02381
5639.65,0.02146
5633.86,0.02545
5628.08,0.02165
5622.29,0.02041
5616.5,0.02276
5610.72,0.02137
5604.93,0.02101
5599.15,0.02038
5593.36,0.02041
5587.57,0.02304
5581.79,0.02172
5576,0.02142
5570.21,0.02396
5564.43,0.02452
5558.64,0.02247
5552.86,0.02246
5547.07,0.02269
5541.28,0.02046
5535.5,0.02288
5529.71,0.02470
5523.92,0.02193
5518.14,0.02310
5512.35,0.02124
5506.57,0.02126
5500.78,0.02160
5494.99,0.02198
5489.21,0.02299
5483.42,0.02056
5477.63,0.02034
5471.85,0.02269
5466.06,0.02174
5460.28,0.02190
5454.49,0.02150
5448.7,0.02275
5442.92,0.02166
5437.13,0.02145
5431.34,0.02305
5425.56,0.02277
5419.77,0.02246
5413.99,0.02020
5408.2,0.02119
5402.41,0.02251
5396.63,0.02330
5390.84,0.02089
5385.05,0.02185
5379.27,0.02118
5373.48,0.02315
5367.7,0.02112
5361.91,0.02136
5356.12,0.02270
5350.34,0.02216
5344.55,0.02036
5338.76,0.02063
5332.98,0.02200
5327.19,0.02204
5321.41,0.02117
5315.62,0.02315
5309.83,0.02166
5304.05,0.02147
5298.26,0.02254
5292.47,0.02121
5286.69,0.02130
5280.9,0.02169
5275.12,0.02254
5269.33,0.02203
5263.54,0.02275
5257.76,0.02199
5251.97,0.02150
5246.18,0.02160
5240.4,0.02148
5234.61,0.02141
5228.83,0.02198
5223.04,0.02234
5217.25,0.02231
5211.47,0.02233
5205.68,0.02083
5199.9,0.02306
5194.11,0.02201
5188.32,0.02194
5182.54,0.02321
5176.75,0.02313
5170.96,0.02214
5165.18,0.02126
5159.39,0.02224
5153.61,0.02214
5147.82,0.02173
5142.03,0.02164
5136.25,0.02158
5130.46,0.02193
5124.67,0.02073
5118.89,0.02201
5113.1,0.02245
5107.32,0.02291
5101.53,0.02175
5095.74,0.02243
5089.96,0.02181
5084.17,0.02091
5078.38,0.02238
5072.6,0.02187
5066.81,0.02450
5061.03,0.02262
5055.24,0.02260
5049.45,0.02198
5043.67,0.02252
5037.88,0.02160
5032.09,0.02265
5026.31,0.02293
5020.52,0.02220
5014.74,0.02330
5008.95,0.02279
5003.16,0.02154
4997.38,0.02327
4991.59,0.02084
4985.8,0.02210
4980.02,0.02085
4974.23,0.02217
4968.45,0.02186
4962.66,0.02126
4956.87,0.02234
4951.09,0.02154
4945.3,0.02169
4939.51,0.02192
4933.73,0.02144
4927.94,0.02248
4922.16,0.02260
4916.37,0.02308
4910.58,0.02247
4904.8,0.02180
4899.01,0.02262
4893.22,0.02294
4887.44,0.02248
4881.65,0.02179
4875.87,0.02064
4870.08,0.02261
4864.29,0.02292
4858.51,0.02121
4852.72,0.02196
4846.93,0.02271
4841.15,0.02216
4835.36,0.02167
4829.58,0.02162
4823.79,0.02219
4818,0.02311
4812.22,0.02238
4806.43,0.02215
4800.65,0.02353
4794.86,0.02188
4789.07,0.02333
4783.29,0.02158
4777.5,0.02275
4771.71,0.02270
4765.93,0.02236
4760.14,0.02214
4754.36,0.02332
4748.57,0.02321
4742.78,0.02147
4737,0.02214
4731.21,0.02213
4725.42,0.02250
4719.64,0.02344
4713.85,0.02331
4708.07,0.02208
4702.28,0.02256
4696.49,0.02251
4690.71,0.02174
4684.92,0.02252
4679.13,0.02236
4673.35,0.02293
4667.56,0.02179
4661.78,0.02176
4655.99,0.02165
4650.2,0.02265
4644.42,0.02151
4638.63,0.02260
4632.84,0.02131
4627.06,0.02276
4621.27,0.02135
4615.49,0.02265
4609.7,0.02330
4603.91,0.02208
4598.13,0.02218
4592.34,0.02288
4586.55,0.02192
4580.77,0.02237
4574.98,0.02362
4569.2,0.02194
4563.41,0.02273
4557.62,0.02173
4551.84,0.02267
4546.05,0.02243
4540.26,0.02245
4534.48,0.02286
4528.69,0.02225
4522.91,0.02166
4517.12,0.02184
4511.33,0.02269
4505.55,0.02281
4499.76,0.02232
4493.97,0.02275
4488.19,0.02220
4482.4,0.02281
4476.62,0.02193
4470.83,0.02240
4465.04,0.02247
4459.26,0.02312
4453.47,0.02219
4447.68,0.02212
4441.9,0.02275
4436.11,0.02246
4430.33,0.02207
4424.54,0.02180
4418.75,0.02244
4412.97,0.02248
4407.18,0.02112
4401.39,0.02201
4395.61,0.02203
4389.82,0.02284
4384.04,0.02211
4378.25,0.02277
4372.46,0.02193
4366.68,0.02157
4360.89,0.02244
4355.11,0.02268
4349.32,0.02214
4343.53,0.02219
4337.75,0.02234
4331.96,0.02275
4326.17,0.02225
4320.39,0.02255
4314.6,0.02271
4308.82,0.02223
4303.03,0.02266
4297.24,0.02331
4291.46,0.02213
4285.67,0.02254
4279.88,0.02318
4274.1,0.02268
4268.31,0.02295
4262.53,0.02216
4256.74,0.02268
4250.95,0.02303
4245.17,0.02219
4239.38,0.02222
4233.59,0.02274
4227.81,0.02260
4222.02,0.02303
4216.24,0.02189
4210.45,0.02228
4204.66,0.02288
4198.88,0.02296
4193.09,0.02319
4187.3,0.02283
4181.52,0.02285
4175.73,0.02322
4169.95,0.02325
4164.16,0.02283
4158.37,0.02357
4152.59,0.02243
4146.8,0.02273
4141.01,0.02282
4135.23,0.02266
4129.44,0.02338
4123.66,0.02288
4117.87,0.02373
4112.08,0.02339
4106.3,0.02271
4100.51,0.02297
4094.72,0.02263
4088.94,0.02178
4083.15,0.02236
4077.37,0.02252
4071.58,0.02259
4065.79,0.02267
4060.01,0.02287
4054.22,0.02305
4048.43,0.02268
4042.65,0.02261
4036.86,0.02310
4031.08,0.02335
4025.29,0.02259
4019.5,0.02282
4013.72,0.02301
4007.93,0.02285
4002.14,0.02284
3996.36,0.02338
3990.57,0.02218
3984.79,0.02254
3979,0.02267
3973.21,0.02268
3967.43,0.02289
3961.64,0.02338
3955.85,0.02309
3950.07,0.02269
3944.28,0.02294
3938.5,0.02307
3932.71,0.02250
3926.92,0.02299
3921.14,0.02241
3915.35,0.02281
3909.57,0.02283
3903.78,0.02304
3897.99,0.02252
3892.21,0.02281
3886.42,0.02325
3880.63,0.02264
3874.85,0.02244
3869.06,0.02294
3863.28,0.02340
3857.49,0.02283
3851.7,0.02283
3845.92,0.02313
3840.13,0.02291
3834.34,0.02280
3828.56,0.02318
3822.77,0.02274
3816.99,0.02296
3811.2,0.02268
3805.41,0.02290
3799.63,0.02326
3793.84,0.02315
3788.05,0.02318
3782.27,0.02245
3776.48,0.02292
3770.7,0.02235
3764.91,0.02265
3759.12,0.02297
3753.34,0.02270
3747.55,0.02298
3741.76,0.02328
3735.98,0.02254
3730.19,0.02235
3724.41,0.02266
3718.62,0.02272
3712.83,0.02285
3707.05,0.02239
3701.26,0.02281
3695.47,0.02241
3689.69,0.02233
3683.9,0.02226
3678.12,0.02263
3672.33,0.02215
3666.54,0.02248
3660.76,0.02279
3654.97,0.02199
3649.18,0.02247
3643.4,0.02176
3637.61,0.02223
3631.83,0.02249
3626.04,0.02223
3620.25,0.02181
3614.47,0.02271
3608.68,0.02171
3602.89,0.02240
3597.11,0.02175
3591.32,0.02129
3585.54,0.02182
3579.75,0.02208
3573.96,0.02151
3568.18,0.02219
3562.39,0.02181
3556.6,0.02180
3550.82,0.02122
3545.03,0.02132
3539.25,0.02129
3533.46,0.02154
3527.67,0.02119
3521.89,0.02132
3516.1,0.02151
3510.31,0.02140
3504.53,0.02122
3498.74,0.02083
3492.96,0.02033
3487.17,0.02096
3481.38,0.02076
3475.6,0.02084
3469.81,0.02064
3464.03,0.02123
3458.24,0.02076
3452.45,0.02119
3446.67,0.02082
3440.88,0.02097
3435.09,0.02060
3429.31,0.02102
3423.52,0.02065
3417.74,0.02092
3411.95,0.02105
3406.16,0.02116
3400.38,0.02129
3394.59,0.02147
3388.8,0.02126
3383.02,0.02043
3377.23,0.02080
3371.45,0.02024
3365.66,0.02005
3359.87,0.02052
3354.09,0.02074
3348.3,0.02020
3342.51,0.02118
3336.73,0.02077
3330.94,0.02052
3325.16,0.02077
3319.37,0.02045
3313.58,0.01977
3307.8,0.02046
3302.01,0.02055
3296.22,0.02001
3290.44,0.02099
3284.65,0.02065
3278.87,0.01942
3273.08,0.02056
3267.29,0.02045
3261.51,0.02048
3255.72,0.02065
3249.93,0.02083
3244.15,0.02075
3238.36,0.02133
3232.58,0.02115
3226.79,0.02101
3221,0.02085
3215.22,0.02124
3209.43,0.02152
3203.64,0.02139
3197.86,0.02130
3192.07,0.02091
3186.29,0.02101
3180.5,0.02095
3174.71,0.02064
3168.93,0.02181
3163.14,0.02156
3157.35,0.02148
3151.57,0.02161
3145.78,0.02096
3140,0.02153
3134.21,0.02122
3128.42,0.02044
3122.64,0.02143
3116.85,0.02085
3111.06,0.02140
3105.28,0.02110
3099.49,0.02126
3093.71,0.02126
3087.92,0.02129
3082.13,0.02114
3076.35,0.02075
3070.56,0.02074
3064.77,0.02087
3058.99,0.02092
3053.2,0.02063
3047.42,0.02099
3041.63,0.02099
3035.84,0.02093
3030.06,0.02120
3024.27,0.02051
3018.49,0.02036
3012.7,0.02060
3006.91,0.02102
3001.13,0.02073
2995.34,0.02114
2989.55,0.02097
2983.77,0.02024
2977.98,0.02008
2972.2,0.01994
2966.41,0.02031
2960.62,0.02017
2954.84,0.02041
2949.05,0.02042
2943.26,0.02034
2937.48,0.02003
2931.69,0.01953
2925.91,0.02039
2920.12,0.02048
2914.33,0.02063
2908.55,0.02032
2902.76,0.02072
2896.97,0.02112
2891.19,0.02037
2885.4,0.02060
2879.62,0.02074
2873.83,0.02074
2868.04,0.02100
2862.26,0.02080
2856.47,0.02117
2850.68,0.02142
2844.9,0.02150
2839.11,0.02182
2833.33,0.02146
2827.54,0.02121
2821.75,0.02196
2815.97,0.02179
2810.18,0.02192
2804.39,0.02192
2798.61,0.02152
2792.82,0.02151
2787.04,0.02159
2781.25,0.02166
2775.46,0.02169
2769.68,0.02178
2763.89,0.02161
2758.1,0.02157
2752.32,0.02154
2746.53,0.02163
2740.75,0.02183
2734.96,0.02144
2729.17,0.02123
2723.39,0.02165
2717.6,0.02115
2711.81,0.02159
2706.03,0.02176
2700.24,0.02178
2694.46,0.02189
2688.67,0.02166
2682.88,0.02157
2677.1,0.02144
2671.31,0.02157
2665.52,0.02172
2659.74,0.02175
2653.95,0.02164
2648.17,0.02184
2642.38,0.02177
2636.59,0.02175
2630.81,0.02215
2625.02,0.02171
2619.24,0.02243
2613.45,0.02169
2607.66,0.02158
2601.88,0.02161
2596.09,0.02198
2590.3,0.02168
2584.52,0.02137
2578.73,0.02159
2572.95,0.02213
2567.16,0.02179
2561.37,0.02224
2555.59,0.02170
2549.8,0.02183
2544.01,0.02193
2538.23,0.02151
2532.44,0.02150
2526.66,0.02218
2520.87,0.02189
2515.08,0.02156
2509.3,0.02164
2503.51,0.02168
2497.72,0.02180
2491.94,0.02173
2486.15,0.02199
2480.37,0.02193
2474.58,0.02146
2468.79,0.02190
2463.01,0.02179
2457.22,0.02195
2451.43,0.02198
2445.65,0.02227
2439.86,0.02170
2434.08,0.02167
2428.29,0.02155
2422.5,0.02146
2416.72,0.02160
2410.93,0.02183
2405.14,0.02200
2399.36,0.02172
2393.57,0.02163
2387.79,0.02201
2382,0.02165
2376.21,0.02154
2370.43,0.02195
2364.64,0.02221
2358.85,0.02173
2353.07,0.02174
2347.28,0.02185
2341.5,0.02173
2335.71,0.02197
2329.92,0.02182
2324.14,0.02186
2318.35,0.02158
2312.56,0.02130
2306.78,0.02188
2300.99,0.02159
2295.21,0.02144
2289.42,0.02197
2283.63,0.02170
2277.85,0.02176
2272.06,0.02198
2266.27,0.02131
2260.49,0.02151
2254.7,0.02151
2248.92,0.02178
2243.13,0.02149
2237.34,0.02159
2231.56,0.02156
2225.77,0.02167
2219.98,0.02140
2214.2,0.02164
2208.41,0.02166
2202.63,0.02164
2196.84,0.02157
2191.05,0.02160
2185.27,0.02185
2179.48,0.02135
2173.7,0.02179
2167.91,0.02150
2162.12,0.02172
2156.34,0.02169
2150.55,0.02137
2144.76,0.02157
2138.98,0.02139
2133.19,0.02152
2127.41,0.02168
2121.62,0.02133
2115.83,0.02126
2110.05,0.02166
2104.26,0.02147
2098.47,0.02141
2092.69,0.02125
2086.9,0.02165
2081.12,0.02131
2075.33,0.02160
2069.54,0.02129
2063.76,0.02105
2057.97,0.02120
2052.18,0.02184
2046.4,0.02122
2040.61,0.02154
2034.83,0.02151
2029.04,0.02116
2023.25,0.02140
2017.47,0.02096
2011.68,0.02117
2005.89,0.02148
2000.11,0.02188
1994.32,0.02157
1988.54,0.02143
1982.75,0.02153
1976.96,0.02141
1971.18,0.02149
1965.39,0.02144
1959.6,0.02110
1953.82,0.02136
1948.03,0.02167
1942.25,0.02143
1936.46,0.02123
1930.67,0.02140
1924.89,0.02123
1919.1,0.02154
1913.31,0.02085
1907.53,0.02123
1901.74,0.02126
1895.96,0.02112
1890.17,0.02099
1884.38,0.02108
1878.6,0.02135
1872.81,0.02120
1867.02,0.02084
1861.24,0.02106
1855.45,0.02085
1849.67,0.02071
1843.88,0.02093
1838.09,0.02093
1832.31,0.02111
1826.52,0.02078
1820.73,0.02083
1814.95,0.02042
1809.16,0.02053
1803.38,0.02040
1797.59,0.02028
1791.8,0.01986
1786.02,0.01990
1780.23,0.01988
1774.44,0.01945
1768.66,0.01918
1762.87,0.01865
1757.09,0.01840
1751.3,0.01806
1745.51,0.01823
1739.73,0.01884
1733.94,0.01979
1728.16,0.02047
1722.37,0.02128
1716.58,0.02164
1710.8,0.02077
1705.01,0.02077
1699.22,0.01996
1693.44,0.01981
1687.65,0.01957
1681.87,0.01941
1676.08,0.01937
1670.29,0.01859
1664.51,0.01899
1658.72,0.01893
1652.93,0.01891
1647.15,0.01881
1641.36,0.01899
1635.58,0.01888
1629.79,0.01876
1624,0.01898
1618.22,0.01921
1612.43,0.01914
1606.64,0.01907
1600.86,0.01872
1595.07,0.01882
1589.29,0.01859
1583.5,0.01858
1577.71,0.01865
1571.93,0.01835
1566.14,0.01806
1560.35,0.01837
1554.57,0.01823
1548.78,0.01844
1543,0.01894
1537.21,0.01875
1531.42,0.01890
1525.64,0.01882
1519.85,0.01856
1514.06,0.01918
1508.28,0.01922
1502.49,0.01925
1496.71,0.01920
1490.92,0.01884
1485.13,0.01872
1479.35,0.01909
1473.56,0.01868
1467.77,0.01865
1461.99,0.01873
1456.2,0.01869
1450.42,0.01889
1444.63,0.01916
1438.84,0.01932
1433.06,0.01892
1427.27,0.01891
1421.48,0.01883
1415.7,0.01848
1409.91,0.01824
1404.13,0.01848
1398.34,0.01851
1392.55,0.01843
1386.77,0.01839
1380.98,0.01830
1375.19,0.01820
1369.41,0.01818
1363.62,0.01838
1357.84,0.01842
1352.05,0.01812
1346.26,0.01803
1340.48,0.01783
1334.69,0.01790
1328.9,0.01744
1323.12,0.01781
1317.33,0.01749
1311.55,0.01745
1305.76,0.01729
1299.97,0.01800
1294.19,0.01793
1288.4,0.01825
1282.62,0.01860
1276.83,0.01905
1271.04,0.01978
1265.26,0.01968
1259.47,0.01979
1253.68,0.02084
1247.9,0.02025
1242.11,0.02001
1236.33,0.01989
1230.54,0.01984
1224.75,0.01957
1218.97,0.01962
1213.18,0.01904
1207.39,0.01872
1201.61,0.01859
1195.82,0.01915
1190.04,0.01830
1184.25,0.01808
1178.46,0.01790
1172.68,0.01850
1166.89,0.01779
1161.1,0.01807
1155.32,0.01779
1149.53,0.01741
1143.75,0.01808
1137.96,0.01803
1132.17,0.01812
1126.39,0.01851
1120.6,0.01885
1114.81,0.01916
1109.03,0.01893
1103.24,0.01854
1097.46,0.01803
1091.67,0.01814
1085.88,0.01818
1080.1,0.01871
1074.31,0.01913
1068.52,0.02067
1062.74,0.02034
1056.95,0.01959
1051.17,0.01948
1045.38,0.01946
1039.59,0.01984
1033.81,0.01929
1028.02,0.01905
1022.23,0.01940
1016.45,0.01991
1010.66,0.01999
1004.88,0.02052
999.09,0.02108
993.303,0.02062
987.517,0.02156
981.731,0.02111
975.945,0.02057
970.158,0.02075
964.372,0.02056
958.586,0.02075
952.8,0.02027
947.014,0.01997
941.227,0.01974
935.441,0.01930
929.655,0.01975
923.869,0.02019
918.082,0.01995
912.296,0.01989
906.51,0.01917
900.724,0.01934
894.937,0.01907
889.151,0.01889
883.365,0.01976
877.579,0.01969
871.793,0.01918
866.006,0.01866
860.22,0.01860
854.434,0.01929
848.648,0.01913
842.861,0.01942
837.075,0.01858
831.289,0.01875
825.503,0.01868
819.716,0.01924
813.93,0.01935
808.144,0.01877
802.358,0.01873
796.571,0.01818
790.785,0.01946
784.999,0.01866
779.213,0.01874
773.427,0.01882
767.64,0.01851
761.854,0.01907
756.068,0.01788
750.282,0.01732
744.495,0.01757
738.709,0.01877
732.923,0.01832
727.137,0.01881
721.35,0.01810
715.564,0.01877
709.778,0.01773
703.992,0.01760
698.206,0.01775
692.419,0.01879
686.633,0.01846
680.847,0.01828
675.061,0.01748
669.274,0.01748
663.488,0.01637
657.702,0.01815
651.916,0.01767
646.129,0.01675
640.343,0.01746
634.557,0.01634
628.771,0.01570
622.984,0.01645
617.198,0.01776
611.412,0.01964
605.626,0.01504
599.84,0.01489