File: 01_Data/Overstuffed_Chair_Polyester_Fabric/FTIR/IS/Overstuffed_Chair_Polyester_Fabric_IS_REFLECT_MEAS_210623_R5.dpt
5996.41,0.65687
5992.55,0.67248
5988.69,0.67010
5984.84,0.65755
5980.98,0.66293
5977.12,0.66594
5973.27,0.67311
5969.41,0.66686
5965.55,0.66262
5961.69,0.66823
5957.84,0.67427
5953.98,0.68050
5950.12,0.68283
5946.26,0.67615
5942.41,0.67839
5938.55,0.68416
5934.69,0.68672
5930.83,0.69970
5926.98,0.69774
5923.12,0.69657
5919.26,0.70073
5915.4,0.70557
5911.55,0.70722
5907.69,0.71278
5903.83,0.71706
5899.97,0.70791
5896.12,0.71369
5892.26,0.71615
5888.4,0.71756
5884.54,0.70755
5880.69,0.70953
5876.83,0.71095
5872.97,0.69997
5869.11,0.70449
5865.26,0.70485
5861.4,0.71128
5857.54,0.70591
5853.68,0.70399
5849.83,0.71610
5845.97,0.70732
5842.11,0.70549
5838.25,0.70884
5834.4,0.70392
5830.54,0.70789
5826.68,0.71243
5822.82,0.71272
5818.97,0.70461
5815.11,0.71027
5811.25,0.71557
5807.39,0.71781
5803.54,0.71783
5799.68,0.71369
5795.82,0.70599
5791.96,0.70884
5788.11,0.71617
5784.25,0.72162
5780.39,0.71414
5776.53,0.72098
5772.68,0.71553
5768.82,0.72016
5764.96,0.71869
5761.11,0.71812
5757.25,0.71311
5753.39,0.72796
5749.53,0.73282
5745.68,0.72660
5741.82,0.73577
5737.96,0.74126
5734.1,0.73390
5730.25,0.74056
5726.39,0.74211
5722.53,0.74414
5718.67,0.73585
5714.82,0.73637
5710.96,0.73659
5707.1,0.73785
5703.24,0.73665
5699.39,0.73426
5695.53,0.73435
5691.67,0.74003
5687.81,0.73686
5683.96,0.74248
5680.1,0.74013
5676.24,0.74061
5672.38,0.73838
5668.53,0.74112
5664.67,0.74125
5660.81,0.73775
5656.95,0.73402
5653.1,0.73646
5649.24,0.74069
5645.38,0.74409
5641.52,0.74587
5637.67,0.75896
5633.81,0.76314
5629.95,0.75812
5626.09,0.75925
5622.24,0.76014
5618.38,0.76408
5614.52,0.75993
5610.66,0.75066
5606.81,0.75169
5602.95,0.75456
5599.09,0.75503
5595.23,0.75601
5591.38,0.75258
5587.52,0.74891
5583.66,0.74678
5579.8,0.75490
5575.95,0.75097
5572.09,0.75438
5568.23,0.75481
5564.38,0.74633
5560.52,0.75449
5556.66,0.75875
5552.8,0.74855
5548.95,0.73691
5545.09,0.73769
5541.23,0.74822
5537.37,0.75450
5533.52,0.74411
5529.66,0.73813
5525.8,0.74035
5521.94,0.74675
5518.09,0.75205
5514.23,0.74874
5510.37,0.74566
5506.51,0.74520
5502.66,0.74206
5498.8,0.74302
5494.94,0.73914
5491.08,0.73230
5487.23,0.74263
5483.37,0.74562
5479.51,0.74232
5475.65,0.73636
5471.8,0.74152
5467.94,0.74288
5464.08,0.74354
5460.22,0.74905
5456.37,0.75004
5452.51,0.75505
5448.65,0.75937
5444.79,0.76550
5440.94,0.77283
5437.08,0.76440
5433.22,0.76104
5429.36,0.76135
5425.51,0.76823
5421.65,0.77432
5417.79,0.76226
5413.93,0.75055
5410.08,0.75109
5406.22,0.75575
5402.36,0.75508
5398.5,0.75868
5394.65,0.75582
5390.79,0.76529
5386.93,0.76204
5383.07,0.75750
5379.22,0.75768
5375.36,0.75374
5371.5,0.75789
5367.65,0.75684
5363.79,0.75416
5359.93,0.76230
5356.07,0.75153
5352.22,0.74091
5348.36,0.74494
5344.5,0.74186
5340.64,0.74433
5336.79,0.74610
5332.93,0.74625
5329.07,0.75417
5325.21,0.76238
5321.36,0.76063
5317.5,0.75305
5313.64,0.75709
5309.78,0.75603
5305.93,0.75216
5302.07,0.75448
5298.21,0.75295
5294.35,0.75589
5290.5,0.74864
5286.64,0.74228
5282.78,0.73484
5278.92,0.73194
5275.07,0.73496
5271.21,0.72642
5267.35,0.71793
5263.49,0.70485
5259.64,0.71218
5255.78,0.71528
5251.92,0.70926
5248.06,0.70132
5244.21,0.70584
5240.35,0.71271
5236.49,0.71312
5232.63,0.71115
5228.78,0.71123
5224.92,0.71095
5221.06,0.72705
5217.2,0.73021
5213.35,0.72878
5209.49,0.72735
5205.63,0.72033
5201.77,0.72947
5197.92,0.73778
5194.06,0.73940
5190.2,0.74206
5186.34,0.73670
5182.49,0.73389
5178.63,0.73851
5174.77,0.73671
5170.91,0.73739
5167.06,0.73698
5163.2,0.73133
5159.34,0.73249
5155.49,0.72687
5151.63,0.72766
5147.77,0.73513
5143.91,0.73281
5140.06,0.73400
5136.2,0.73503
5132.34,0.73299
5128.48,0.73463
5124.63,0.72892
5120.77,0.72013
5116.91,0.72030
5113.05,0.72109
5109.2,0.72929
5105.34,0.73264
5101.48,0.73236
5097.62,0.73738
5093.77,0.74068
5089.91,0.74619
5086.05,0.75562
5082.19,0.75167
5078.34,0.75184
5074.48,0.75893
5070.62,0.75541
5066.76,0.75423
5062.91,0.75797
5059.05,0.75084
5055.19,0.75063
5051.33,0.75688
5047.48,0.75461
5043.62,0.75472
5039.76,0.75406
5035.9,0.75902
5032.05,0.75803
5028.19,0.75639
5024.33,0.75875
5020.47,0.75095
5016.62,0.75169
5012.76,0.75237
5008.9,0.75220
5005.04,0.75478
5001.19,0.75313
4997.33,0.75319
4993.47,0.75170
4989.61,0.75415
4985.76,0.75572
4981.9,0.75436
4978.04,0.75465
4974.18,0.75297
4970.33,0.75286
4966.47,0.75412
4962.61,0.75623
4958.76,0.75457
4954.9,0.75234
4951.04,0.74934
4947.18,0.75177
4943.33,0.74991
4939.47,0.74594
4935.61,0.74304
4931.75,0.74273
4927.9,0.74640
4924.04,0.74690
4920.18,0.74052
4916.32,0.73823
4912.47,0.74290
4908.61,0.74643
4904.75,0.74718
4900.89,0.74222
4897.04,0.73635
4893.18,0.73801
4889.32,0.73675
4885.46,0.73920
4881.61,0.73730
4877.75,0.73674
4873.89,0.73837
4870.03,0.73699
4866.18,0.74327
4862.32,0.73711
4858.46,0.73852
4854.6,0.73431
4850.75,0.73788
4846.89,0.73540
4843.03,0.73551
4839.17,0.73265
4835.32,0.72299
4831.46,0.71762
4827.6,0.71581
4823.74,0.71475
4819.89,0.71255
4816.03,0.71320
4812.17,0.70791
4808.31,0.70703
4804.46,0.70693
4800.6,0.70556
4796.74,0.70507
4792.88,0.70333
4789.03,0.70604
4785.17,0.70669
4781.31,0.70526
4777.45,0.70400
4773.6,0.70766
4769.74,0.71045
4765.88,0.71133
4762.02,0.70792
4758.17,0.70300
4754.31,0.69761
4750.45,0.69572
4746.6,0.69303
4742.74,0.68628
4738.88,0.68331
4735.02,0.67528
4731.17,0.66923
4727.31,0.66285
4723.45,0.64894
4719.59,0.64456
4715.74,0.64330
4711.88,0.64257
4708.02,0.63813
4704.16,0.63147
4700.31,0.62283
4696.45,0.61324
4692.59,0.60527
4688.73,0.60562
4684.88,0.60907
4681.02,0.61909
4677.16,0.62914
4673.3,0.63828
4669.45,0.64674
4665.59,0.65110
4661.73,0.65320
4657.87,0.65152
4654.02,0.64770
4650.16,0.64704
4646.3,0.63872
4642.44,0.62987
4638.59,0.62320
4634.73,0.62047
4630.87,0.62631
4627.01,0.63587
4623.16,0.65148
4619.3,0.66129
4615.44,0.67011
4611.58,0.67602
4607.73,0.67562
4603.87,0.67124
4600.01,0.67113
4596.15,0.66039
4592.3,0.65554
4588.44,0.65017
4584.58,0.64608
4580.72,0.64318
4576.87,0.64403
4573.01,0.65363
4569.15,0.66739
4565.29,0.67460
4561.44,0.68074
4557.58,0.68276
4553.72,0.68540
4549.87,0.68406
4546.01,0.68300
4542.15,0.68387
4538.29,0.68399
4534.44,0.68230
4530.58,0.68370
4526.72,0.67780
4522.86,0.67500
4519.01,0.67300
4515.15,0.67056
4511.29,0.66903
4507.43,0.66239
4503.58,0.65355
4499.72,0.64446
4495.86,0.63520
4492,0.62354
4488.15,0.61710
4484.29,0.61043
4480.43,0.60636
4476.57,0.60227
4472.72,0.59387
4468.86,0.58226
4465,0.56791
4461.14,0.55125
4457.29,0.54310
4453.43,0.54523
4449.57,0.54733
4445.71,0.54780
4441.86,0.54361
4438,0.53839
4434.14,0.53662
4430.28,0.53586
4426.43,0.54001
4422.57,0.54857
4418.71,0.55820
4414.85,0.56041
4411,0.56488
4407.14,0.56377
4403.28,0.56532
4399.42,0.56833
4395.57,0.57335
4391.71,0.57765
4387.85,0.58064
4383.99,0.58249
4380.14,0.58425
4376.28,0.58320
4372.42,0.58395
4368.56,0.58406
4364.71,0.58282
4360.85,0.58029
4356.99,0.57905
4353.14,0.57966
4349.28,0.57890
4345.42,0.57560
4341.56,0.57265
4337.71,0.57151
4333.85,0.57149
4329.99,0.56919
4326.13,0.56860
4322.28,0.56959
4318.42,0.56937
4314.56,0.56547
4310.7,0.56236
4306.85,0.55737
4302.99,0.55291
4299.13,0.54874
4295.27,0.54552
4291.42,0.54540
4287.56,0.54675
4283.7,0.54953
4279.84,0.54980
4275.99,0.55235
4272.13,0.55448
4268.27,0.55647
4264.41,0.55806
4260.56,0.56026
4256.7,0.55909
4252.84,0.55804
4248.98,0.55844
4245.13,0.55624
4241.27,0.55592
4237.41,0.55799
4233.55,0.55969
4229.7,0.55944
4225.84,0.55924
4221.98,0.56015
4218.12,0.56360
4214.27,0.56816
4210.41,0.57180
4206.55,0.57083
4202.69,0.57253
4198.84,0.57387
4194.98,0.57305
4191.12,0.57269
4187.26,0.56790
4183.41,0.56206
4179.55,0.55602
4175.69,0.55543
4171.83,0.55946
4167.98,0.56505
4164.12,0.57265
4160.26,0.57654
4156.4,0.57787
4152.55,0.57959
4148.69,0.58013
4144.83,0.57733
4140.98,0.57169
4137.12,0.56500
4133.26,0.56141
4129.4,0.56085
4125.55,0.55894
4121.69,0.55849
4117.83,0.55724
4113.97,0.55278
4110.12,0.54658
4106.26,0.53902
4102.4,0.53123
4098.54,0.51574
4094.69,0.49634
4090.83,0.48630
4086.97,0.49114
4083.11,0.50349
4079.26,0.51806
4075.4,0.53369
4071.54,0.54535
4067.68,0.55320
4063.83,0.55714
4059.97,0.56166
4056.11,0.56685
4052.25,0.56923
4048.4,0.57145
4044.54,0.57061
4040.68,0.57757
4036.82,0.58134
4032.97,0.58342
4029.11,0.58565
4025.25,0.58436
4021.39,0.58572
4017.54,0.58514
4013.68,0.58633
4009.82,0.58390
4005.96,0.58559
4002.11,0.58677
3998.25,0.58827
3994.39,0.59082
3990.53,0.59223
3986.68,0.59279
3982.82,0.59352
3978.96,0.59397
3975.1,0.59325
3971.25,0.59308
3967.39,0.59316
3963.53,0.59269
3959.67,0.59597
3955.82,0.59890
3951.96,0.59993
3948.1,0.59893
3944.25,0.60111
3940.39,0.60458
3936.53,0.60425
3932.67,0.60252
3928.82,0.60327
3924.96,0.60485
3921.1,0.60241
3917.24,0.60085
3913.39,0.60600
3909.53,0.60799
3905.67,0.60683
3901.81,0.60453
3897.96,0.61241
3894.1,0.61622
3890.24,0.61856
3886.38,0.61862
3882.53,0.62055
3878.67,0.62101
3874.81,0.62208
3870.95,0.62150
3867.1,0.62162
3863.24,0.62290
3859.38,0.61997
3855.52,0.61644
3851.67,0.62230
3847.81,0.62174
3843.95,0.62250
3840.09,0.62746
3836.24,0.62807
3832.38,0.62543
3828.52,0.62432
3824.66,0.62375
3820.81,0.62256
3816.95,0.61789
3813.09,0.61037
3809.23,0.60747
3805.38,0.60629
3801.52,0.60930
3797.66,0.61536
3793.8,0.62079
3789.95,0.62241
3786.09,0.62281
3782.23,0.62280
3778.37,0.62128
3774.52,0.61598
3770.66,0.61382
3766.8,0.60714
3762.94,0.60149
3759.09,0.59691
3755.23,0.59333
3751.37,0.60191
3747.51,0.60042
3743.66,0.59533
3739.8,0.59980
3735.94,0.59554
3732.09,0.59088
3728.23,0.59162
3724.37,0.60115
3720.51,0.60870
3716.66,0.60924
3712.8,0.61182
3708.94,0.60544
3705.08,0.59241
3701.23,0.58209
3697.37,0.57093
3693.51,0.56074
3689.65,0.54574
3685.8,0.52425
3681.94,0.52008
3678.08,0.52065
3674.22,0.51552
3670.37,0.50993
3666.51,0.49994
3662.65,0.49095
3658.79,0.48325
3654.94,0.47429
3651.08,0.47428
3647.22,0.46607
3643.36,0.45423
3639.51,0.44917
3635.65,0.44340
3631.79,0.44082
3627.93,0.44111
3624.08,0.43830
3620.22,0.44300
3616.36,0.44864
3612.5,0.44863
3608.65,0.44976
3604.79,0.45293
3600.93,0.45491
3597.07,0.45461
3593.22,0.45295
3589.36,0.44961
3585.5,0.44616
3581.64,0.44088
3577.79,0.43492
3573.93,0.42896
3570.07,0.42413
3566.21,0.42112
3562.36,0.41483
3558.5,0.40739
3554.64,0.40443
3550.78,0.40395
3546.93,0.40279
3543.07,0.40441
3539.21,0.40539
3535.36,0.40903
3531.5,0.41243
3527.64,0.41683
3523.78,0.41990
3519.93,0.42353
3516.07,0.42744
3512.21,0.43105
3508.35,0.43367
3504.5,0.43487
3500.64,0.43534
3496.78,0.43780
3492.92,0.43806
3489.07,0.43801
3485.21,0.43849
3481.35,0.43670
3477.49,0.43508
3473.64,0.43084
3469.78,0.42754
3465.92,0.42252
3462.06,0.41547
3458.21,0.40699
3454.35,0.39922
3450.49,0.39055
3446.63,0.38142
3442.78,0.36860
3438.92,0.35571
3435.06,0.34193
3431.2,0.33333
3427.35,0.34152
3423.49,0.35966
3419.63,0.37869
3415.77,0.39436
3411.92,0.40737
3408.06,0.42056
3404.2,0.42989
3400.34,0.43593
3396.49,0.43839
3392.63,0.44342
3388.77,0.44786
3384.91,0.45101
3381.06,0.45083
3377.2,0.45059
3373.34,0.45211
3369.48,0.45271
3365.63,0.45130
3361.77,0.44752
3357.91,0.44453
3354.05,0.44170
3350.2,0.43809
3346.34,0.43286
3342.48,0.42906
3338.63,0.42527
3334.77,0.42435
3330.91,0.42768
3327.05,0.43247
3323.2,0.43661
3319.34,0.43936
3315.48,0.43902
3311.62,0.43782
3307.77,0.43673
3303.91,0.43615
3300.05,0.43620
3296.19,0.43560
3292.34,0.43951
3288.48,0.44266
3284.62,0.44395
3280.76,0.44597
3276.91,0.44622
3273.05,0.44839
3269.19,0.45049
3265.33,0.45070
3261.48,0.45258
3257.62,0.45303
3253.76,0.45174
3249.9,0.45133
3246.05,0.45048
3242.19,0.44848
3238.33,0.44819
3234.47,0.44801
3230.62,0.44839
3226.76,0.45033
3222.9,0.45283
3219.04,0.45327
3215.19,0.45541
3211.33,0.45786
3207.47,0.46034
3203.61,0.45900
3199.76,0.45627
3195.9,0.45732
3192.04,0.45792
3188.18,0.45727
3184.33,0.45628
3180.47,0.45630
3176.61,0.45733
3172.75,0.45803
3168.9,0.45595
3165.04,0.45455
3161.18,0.45311
3157.32,0.45160
3153.47,0.44938
3149.61,0.44703
3145.75,0.44448
3141.89,0.44041
3138.04,0.43463
3134.18,0.42885
3130.32,0.42232
3126.47,0.41939
3122.61,0.42068
3118.75,0.41979
3114.89,0.41386
3111.04,0.40594
3107.18,0.39502
3103.32,0.38747
3099.46,0.39019
3095.61,0.39699
3091.75,0.39734
3087.89,0.38960
3084.03,0.37907
3080.18,0.37282
3076.32,0.37268
3072.46,0.37082
3068.6,0.36711
3064.75,0.36683
3060.89,0.36351
3057.03,0.35282
3053.17,0.35256
3049.32,0.37273
3045.46,0.39749
3041.6,0.41078
3037.74,0.41188
3033.89,0.40810
3030.03,0.39962
3026.17,0.38696
3022.31,0.36753
3018.46,0.34278
3014.6,0.32404
3010.74,0.31824
3006.88,0.31713
3003.03,0.31395
2999.17,0.30956
2995.31,0.30305
2991.45,0.29552
2987.6,0.28299
2983.74,0.26520
2979.88,0.24519
2976.02,0.22403
2972.17,0.20799
2968.31,0.20783
2964.45,0.21944
2960.59,0.23210
2956.74,0.24566
2952.88,0.26151
2949.02,0.28109
2945.16,0.30267
2941.31,0.32322
2937.45,0.33880
2933.59,0.34607
2929.74,0.34763
2925.88,0.34524
2922.02,0.33652
2918.16,0.32125
2914.31,0.29810
2910.45,0.27391
2906.59,0.26938
2902.73,0.29105
2898.88,0.31450
2895.02,0.32633
2891.16,0.32979
2887.3,0.33208
2883.45,0.33942
2879.59,0.34720
2875.73,0.35358
2871.87,0.35806
2868.02,0.36106
2864.16,0.36588
2860.3,0.37132
2856.44,0.37836
2852.59,0.38798
2848.73,0.40190
2844.87,0.41828
2841.01,0.43230
2837.16,0.44301
2833.3,0.45149
2829.44,0.45809
2825.58,0.46371
2821.73,0.46655
2817.87,0.46395
2814.01,0.46035
2810.15,0.45882
2806.3,0.45790
2802.44,0.45912
2798.58,0.46561
2794.72,0.47296
2790.87,0.47938
2787.01,0.48481
2783.15,0.48900
2779.29,0.49365
2775.44,0.49709
2771.58,0.49880
2767.72,0.50026
2763.86,0.50157
2760.01,0.50234
2756.15,0.50204
2752.29,0.50064
2748.43,0.49920
2744.58,0.49885
2740.72,0.50286
2736.86,0.50877
2733.01,0.51506
2729.15,0.52009
2725.29,0.52457
2721.43,0.52867
2717.58,0.53094
2713.72,0.53326
2709.86,0.53668
2706,0.54009
2702.15,0.54206
2698.29,0.54425
2694.43,0.54575
2690.57,0.54712
2686.72,0.54704
2682.86,0.54696
2679,0.54757
2675.14,0.54790
2671.29,0.54845
2667.43,0.54974
2663.57,0.54933
2659.71,0.54700
2655.86,0.54412
2652,0.54146
2648.14,0.53664
2644.28,0.53107
2640.43,0.52226
2636.57,0.51374
2632.71,0.50791
2628.85,0.50672
2625,0.50901
2621.14,0.51098
2617.28,0.51094
2613.42,0.50996
2609.57,0.50925
2605.71,0.50745
2601.85,0.50501
2597.99,0.50079
2594.14,0.49624
2590.28,0.49161
2586.42,0.48892
2582.56,0.48662
2578.71,0.48691
2574.85,0.48833
2570.99,0.48791
2567.13,0.48550
2563.28,0.48425
2559.42,0.48321
2555.56,0.48235
2551.7,0.48166
2547.85,0.48096
2543.99,0.47974
2540.13,0.47911
2536.27,0.47800
2532.42,0.47874
2528.56,0.48073
2524.7,0.48422
2520.85,0.48799
2516.99,0.49191
2513.13,0.49427
2509.27,0.49611
2505.42,0.49625
2501.56,0.49616
2497.7,0.49750
2493.84,0.50042
2489.99,0.50467
2486.13,0.50967
2482.27,0.51497
2478.41,0.51879
2474.56,0.52294
2470.7,0.52504
2466.84,0.52641
2462.98,0.52741
2459.13,0.52724
2455.27,0.52650
2451.41,0.52463
2447.55,0.52181
2443.7,0.51750
2439.84,0.51166
2435.98,0.50426
2432.12,0.49713
2428.27,0.49070
2424.41,0.48275
2420.55,0.47502
2416.69,0.46855
2412.84,0.46164
2408.98,0.45605
2405.12,0.45079
2401.26,0.44588
2397.41,0.44129
2393.55,0.43770
2389.69,0.43488
2385.83,0.42984
2381.98,0.42247
2378.12,0.41592
2374.26,0.41087
2370.4,0.40520
2366.55,0.40001
2362.69,0.39700
2358.83,0.40327
2354.97,0.42313
2351.12,0.42412
2347.26,0.42664
2343.4,0.43624
2339.54,0.43336
2335.69,0.43672
2331.83,0.44230
2327.97,0.44625
2324.12,0.45295
2320.26,0.46412
2316.4,0.46962
2312.54,0.47289
2308.69,0.47404
2304.83,0.47258
2300.97,0.46755
2297.11,0.46005
2293.26,0.45363
2289.4,0.44878
2285.54,0.44694
2281.68,0.44775
2277.83,0.44923
2273.97,0.44886
2270.11,0.44689
2266.25,0.44388
2262.4,0.44126
2258.54,0.44150
2254.68,0.44334
2250.82,0.44727
2246.97,0.45295
2243.11,0.45847
2239.25,0.46345
2235.39,0.46727
2231.54,0.47009
2227.68,0.47252
2223.82,0.47396
2219.96,0.47512
2216.11,0.47684
2212.25,0.47778
2208.39,0.48065
2204.53,0.48535
2200.68,0.49013
2196.82,0.49232
2192.96,0.49202
2189.1,0.49086
2185.25,0.48703
2181.39,0.48251
2177.53,0.47729
2173.67,0.46978
2169.82,0.46194
2165.96,0.45391
2162.1,0.44381
2158.24,0.43322
2154.39,0.42267
2150.53,0.41450
2146.67,0.40731
2142.81,0.40132
2138.96,0.39648
2135.1,0.39152
2131.24,0.38550
2127.38,0.37818
2123.53,0.37080
2119.67,0.36422
2115.81,0.35974
2111.96,0.35787
2108.1,0.35820
2104.24,0.35977
2100.38,0.36123
2096.53,0.36298
2092.67,0.36563
2088.81,0.37028
2084.95,0.37764
2081.1,0.38587
2077.24,0.39457
2073.38,0.40337
2069.52,0.41254
2065.67,0.42249
2061.81,0.43315
2057.95,0.44290
2054.09,0.45145
2050.24,0.45835
2046.38,0.46299
2042.52,0.46497
2038.66,0.46431
2034.81,0.46214
2030.95,0.45826
2027.09,0.45165
2023.23,0.44355
2019.38,0.43597
2015.52,0.42728
2011.66,0.41838
2007.8,0.40989
2003.95,0.40117
2000.09,0.39264
1996.23,0.38336
1992.37,0.37563
1988.52,0.36588
1984.66,0.35706
1980.8,0.34882
1976.94,0.33864
1973.09,0.32565
1969.23,0.31103
1965.37,0.29092
1961.51,0.27642
1957.66,0.27837
1953.8,0.28846
1949.94,0.29883
1946.08,0.31199
1942.23,0.32583
1938.37,0.33584
1934.51,0.34658
1930.65,0.35641
1926.8,0.36567
1922.94,0.37615
1919.08,0.38351
1915.23,0.38759
1911.37,0.39328
1907.51,0.39864
1903.65,0.40062
1899.8,0.40298
1895.94,0.40567
1892.08,0.40786
1888.22,0.40840
1884.37,0.40469
1880.51,0.40212
1876.65,0.39796
1872.79,0.39452
1868.94,0.39415
1865.08,0.37833
1861.22,0.36531
1857.36,0.35251
1853.51,0.33672
1849.65,0.32153
1845.79,0.30983
1841.93,0.29173
1838.08,0.27844
1834.22,0.26782
1830.36,0.26433
1826.5,0.25841
1822.65,0.25354
1818.79,0.25101
1814.93,0.24985
1811.07,0.24855
1807.22,0.24506
1803.36,0.24433
1799.5,0.24392
1795.64,0.24001
1791.79,0.23748
1787.93,0.22626
1784.07,0.21821
1780.21,0.21129
1776.36,0.20306
1772.5,0.19722
1768.64,0.17700
1764.78,0.16002
1760.93,0.14333
1757.07,0.12015
1753.21,0.09860
1749.35,0.07088
1745.5,0.04290
1741.64,0.02836
1737.78,0.02312
1733.92,0.02611
1730.07,0.02644
1726.21,0.02698
1722.35,0.02966
1718.5,0.03663
1714.64,0.04860
1710.78,0.05963
1706.92,0.07866
1703.07,0.10162
1699.21,0.12601
1695.35,0.14178
1691.49,0.14621
1687.64,0.15157
1683.78,0.15803
1679.92,0.16188
1676.06,0.17480
1672.21,0.18959
1668.35,0.20323
1664.49,0.21317
1660.63,0.22545
1656.78,0.23278
1652.92,0.25189
1649.06,0.25254
1645.2,0.25239
1641.35,0.24541
1637.49,0.25663
1633.63,0.25621
1629.77,0.25181
1625.92,0.25693
1622.06,0.25448
1618.2,0.24870
1614.34,0.23680
1610.49,0.23976
1606.63,0.25368
1602.77,0.26342
1598.91,0.27139
1595.06,0.27374
1591.2,0.26414
1587.34,0.24649
1583.48,0.21494
1579.63,0.19070
1575.77,0.20494
1571.91,0.22662
1568.05,0.24835
1564.2,0.25456
1560.34,0.27001
1556.48,0.26908
1552.62,0.25562
1548.77,0.25118
1544.91,0.25764
1541.05,0.27975
1537.19,0.25832
1533.34,0.24806
1529.48,0.23830
1525.62,0.23560
1521.76,0.24110
1517.91,0.23592
1514.05,0.21060
1510.19,0.18094
1506.34,0.14041
1502.48,0.14582
1498.62,0.20532
1494.76,0.24802
1490.91,0.25191
1487.05,0.23115
1483.19,0.20399
1479.33,0.18045
1475.48,0.16132
1471.62,0.14398
1467.76,0.14541
1463.9,0.15004
1460.05,0.14812
1456.19,0.14360
1452.33,0.13482
1448.47,0.13768
1444.62,0.13927
1440.76,0.14107
1436.9,0.14878
1433.04,0.15472
1429.19,0.15484
1425.33,0.14438
1421.47,0.12227
1417.61,0.07814
1413.76,0.05038
1409.9,0.04806
1406.04,0.06356
1402.18,0.08479
1398.33,0.09903
1394.47,0.10285
1390.61,0.09735
1386.75,0.09261
1382.9,0.09046
1379.04,0.09029
1375.18,0.08811
1371.32,0.08201
1367.47,0.08232
1363.61,0.08538
1359.75,0.08210
1355.89,0.07215
1352.04,0.05832
1348.18,0.04801
1344.32,0.04423
1340.46,0.04785
1336.61,0.06219
1332.75,0.08316
1328.89,0.09235
1325.03,0.08310
1321.18,0.06898
1317.32,0.05526
1313.46,0.04430
1309.61,0.03619
1305.75,0.03102
1301.89,0.02807
1298.03,0.02714
1294.18,0.02835
1290.32,0.03016
1286.46,0.03403
1282.6,0.03822
1278.75,0.04159
1274.89,0.04546
1271.03,0.04875
1267.17,0.04958
1263.32,0.05133
1259.46,0.05163
1255.6,0.05197
1251.74,0.05141
1247.89,0.04903
1244.03,0.04690
1240.17,0.04854
1236.31,0.05924
1232.46,0.08408
1228.6,0.11077
1224.74,0.13102
1220.88,0.15171
1217.03,0.17422
1213.17,0.18781
1209.31,0.19836
1205.45,0.21240
1201.6,0.22897
1197.74,0.24130
1193.88,0.24601
1190.02,0.24149
1186.17,0.22630
1182.31,0.20497
1178.45,0.18358
1174.59,0.16897
1170.74,0.16180
1166.88,0.15172
1163.02,0.13261
1159.16,0.11041
1155.31,0.08882
1151.45,0.06966
1147.59,0.05271
1143.73,0.04046
1139.88,0.03628
1136.02,0.03723
1132.16,0.04252
1128.3,0.04465
1124.45,0.04388
1120.59,0.04523
1116.73,0.04673
1112.88,0.04718
1109.02,0.04775
1105.16,0.04942
1101.3,0.05343
1097.45,0.06135
1093.59,0.07480
1089.73,0.09138
1085.87,0.11315
1082.02,0.14344
1078.16,0.18040
1074.3,0.21715
1070.44,0.24071
1066.59,0.25700
1062.73,0.26470
1058.87,0.26304
1055.01,0.25006
1051.16,0.23034
1047.3,0.21307
1043.44,0.20231
1039.58,0.19663
1035.73,0.18961
1031.87,0.16795
1028.01,0.11703
1024.15,0.07815
1020.3,0.08465
1016.44,0.12606
1012.58,0.20880
1008.72,0.27428
1004.87,0.30477
1001.01,0.31670
997.151,0.31474
993.294,0.29793
989.437,0.27512
985.579,0.26203
981.722,0.23481
977.864,0.19542
974.007,0.16504
970.149,0.17272
966.292,0.20967
962.434,0.25197
958.577,0.28658
954.719,0.31235
950.862,0.32787
947.005,0.33698
943.147,0.34248
939.29,0.34345
935.432,0.34282
931.575,0.34304
927.717,0.34123
923.86,0.33854
920.002,0.32888
916.145,0.31695
912.287,0.29956
908.43,0.27335
904.573,0.25282
900.715,0.23951
896.858,0.23566
893,0.23543
889.143,0.23031
885.285,0.21419
881.428,0.19092
877.57,0.16349
873.713,0.14558
869.856,0.17030
865.998,0.19713
862.141,0.19785
858.283,0.18069
854.426,0.16178
850.568,0.14770
846.711,0.15256
842.853,0.17826
838.996,0.20150
835.138,0.22141
831.281,0.23515
827.424,0.24572
823.566,0.25217
819.709,0.25403
815.851,0.25215
811.994,0.24545
808.136,0.24117
804.279,0.23650
800.421,0.22712
796.564,0.20330
792.706,0.19287
788.849,0.21573
784.992,0.23754
781.134,0.24981
777.277,0.25294
773.419,0.25538
769.562,0.25817
765.704,0.26217
761.847,0.25960
757.989,0.25123
754.132,0.23716
750.274,0.21552
746.417,0.18299
742.56,0.13524
738.702,0.08240
734.845,0.05400
730.987,0.04918
727.13,0.06229
723.272,0.10749
719.415,0.17204
715.557,0.20669
711.7,0.21558
707.843,0.22068
703.985,0.23000
700.128,0.24931
696.27,0.26803
692.413,0.27529
688.555,0.27230
684.698,0.26159
680.84,0.25202
676.983,0.25484
673.125,0.25728
669.268,0.27709
665.411,0.27997
661.553,0.27395
657.696,0.27204
653.838,0.27410
649.981,0.27536
646.123,0.27466
642.266,0.27807
638.408,0.27259
634.551,0.24719
630.693,0.24141
626.836,0.26473
622.979,0.27052
619.121,0.26876
615.264,0.26563
611.406,0.26433
607.549,0.26386
603.691,0.26279
599.834,0.25840
595.976,0.25383
592.119,0.25288
588.261,0.25613
584.404,0.25040
580.547,0.24869
576.689,0.24208
572.832,0.23026
568.974,0.22895
565.117,0.22221
561.259,0.21895
557.402,0.21301
553.544,0.19676
549.687,0.18895
545.83,0.18275
541.972,0.17637
538.115,0.16815
534.257,0.15250
530.4,0.13613
526.542,0.12717
522.685,0.12854
518.827,0.12524
514.97,0.11790
511.112,0.10040
507.255,0.08122
503.398,0.09128
499.54,0.09489
495.683,0.10885
491.825,0.12872
487.968,0.13618
484.11,0.13681
480.253,0.12249
476.395,0.12072
472.538,0.13083
468.68,0.12813
464.823,0.12200
460.966,0.10960
457.108,0.10219
453.251,0.10566
449.393,0.09073
445.536,0.07972
441.678,0.06078
437.821,0.05259
433.963,0.05459
430.106,0.06653
426.248,0.07516
422.391,0.09191
418.534,0.10397
414.676,0.08248
410.819,0.07083
406.961,0.07762
403.104,0.05557
399.246,0.06323