File: 01_Data/Overstuffed_Chair_Polyester_Fabric/FTIR/IS/Overstuffed_Chair_Polyester_Fabric_IS_TRANS_MEAS_210623_R4.dpt
5998.34,0.09056
5994.48,0.10261
5990.62,0.08949
5986.77,0.09951
5982.91,0.11058
5979.05,0.10198
5975.19,0.10243
5971.34,0.11651
5967.48,0.09689
5963.62,0.12629
5959.76,0.10956
5955.91,0.11046
5952.05,0.10258
5948.19,0.10781
5944.33,0.11329
5940.48,0.11835
5936.62,0.12721
5932.76,0.12662
5928.9,0.12538
5925.05,0.14212
5921.19,0.13464
5917.33,0.12975
5913.47,0.14240
5909.62,0.13178
5905.76,0.13567
5901.9,0.14202
5898.04,0.12961
5894.19,0.14639
5890.33,0.13311
5886.47,0.13929
5882.61,0.12466
5878.76,0.14397
5874.9,0.12798
5871.04,0.12778
5867.19,0.13697
5863.33,0.12861
5859.47,0.13060
5855.61,0.12671
5851.76,0.13594
5847.9,0.13531
5844.04,0.14757
5840.18,0.13936
5836.33,0.13771
5832.47,0.13440
5828.61,0.13243
5824.75,0.13928
5820.9,0.13542
5817.04,0.12365
5813.18,0.13570
5809.32,0.14472
5805.47,0.13751
5801.61,0.13435
5797.75,0.13738
5793.89,0.13203
5790.04,0.14080
5786.18,0.12762
5782.32,0.13005
5778.46,0.14737
5774.61,0.14437
5770.75,0.14252
5766.89,0.14520
5763.03,0.15193
5759.18,0.15229
5755.32,0.13921
5751.46,0.14885
5747.6,0.14779
5743.75,0.14115
5739.89,0.15673
5736.03,0.15060
5732.17,0.16187
5728.32,0.16054
5724.46,0.15532
5720.6,0.16816
5716.74,0.15076
5712.89,0.15316
5709.03,0.15615
5705.17,0.16004
5701.31,0.15275
5697.46,0.16362
5693.6,0.15641
5689.74,0.16253
5685.88,0.15795
5682.03,0.16779
5678.17,0.16474
5674.31,0.15747
5670.46,0.16033
5666.6,0.15817
5662.74,0.16040
5658.88,0.15193
5655.03,0.15091
5651.17,0.17452
5647.31,0.15779
5643.45,0.16757
5639.6,0.16460
5635.74,0.16861
5631.88,0.16661
5628.02,0.16164
5624.17,0.17895
5620.31,0.17136
5616.45,0.16939
5612.59,0.17103
5608.74,0.17701
5604.88,0.17042
5601.02,0.17109
5597.16,0.17447
5593.31,0.16644
5589.45,0.16905
5585.59,0.17243
5581.73,0.16530
5577.88,0.16198
5574.02,0.16663
5570.16,0.16794
5566.3,0.17454
5562.45,0.16720
5558.59,0.16500
5554.73,0.16811
5550.87,0.17144
5547.02,0.16040
5543.16,0.16332
5539.3,0.16983
5535.44,0.16415
5531.59,0.16385
5527.73,0.16013
5523.87,0.16915
5520.01,0.16840
5516.16,0.17146
5512.3,0.15916
5508.44,0.16232
5504.58,0.16149
5500.73,0.16797
5496.87,0.16020
5493.01,0.15994
5489.15,0.16304
5485.3,0.16363
5481.44,0.16756
5477.58,0.18083
5473.72,0.16153
5469.87,0.16240
5466.01,0.16369
5462.15,0.16895
5458.3,0.16903
5454.44,0.16792
5450.58,0.16637
5446.72,0.16618
5442.87,0.18047
5439.01,0.17403
5435.15,0.17678
5431.29,0.17926
5427.44,0.17839
5423.58,0.18072
5419.72,0.17901
5415.86,0.17438
5412.01,0.17700
5408.15,0.17690
5404.29,0.17280
5400.43,0.17114
5396.58,0.17747
5392.72,0.18251
5388.86,0.18006
5385,0.17909
5381.15,0.18138
5377.29,0.17968
5373.43,0.17438
5369.57,0.17552
5365.72,0.17330
5361.86,0.18149
5358,0.17146
5354.14,0.17631
5350.29,0.17318
5346.43,0.16908
5342.57,0.17435
5338.71,0.17176
5334.86,0.18134
5331,0.17199
5327.14,0.17900
5323.28,0.17602
5319.43,0.17734
5315.57,0.17859
5311.71,0.17460
5307.85,0.17990
5304,0.17427
5300.14,0.17187
5296.28,0.17170
5292.42,0.17618
5288.57,0.16791
5284.71,0.17759
5280.85,0.17136
5276.99,0.16503
5273.14,0.17205
5269.28,0.15778
5265.42,0.17433
5261.57,0.15815
5257.71,0.16513
5253.85,0.16424
5249.99,0.16078
5246.14,0.15968
5242.28,0.16037
5238.42,0.15755
5234.56,0.16259
5230.71,0.15667
5226.85,0.16262
5222.99,0.16195
5219.13,0.16982
5215.28,0.16627
5211.42,0.16962
5207.56,0.16421
5203.7,0.16614
5199.85,0.16591
5195.99,0.16741
5192.13,0.16964
5188.27,0.16969
5184.42,0.17412
5180.56,0.17111
5176.7,0.16412
5172.84,0.17499
5168.99,0.17376
5165.13,0.16756
5161.27,0.16894
5157.41,0.16391
5153.56,0.16390
5149.7,0.16336
5145.84,0.16181
5141.98,0.16429
5138.13,0.15737
5134.27,0.15525
5130.41,0.16527
5126.55,0.15016
5122.7,0.15774
5118.84,0.15410
5114.98,0.15564
5111.12,0.15536
5107.27,0.15653
5103.41,0.16233
5099.55,0.16437
5095.69,0.16449
5091.84,0.16943
5087.98,0.17039
5084.12,0.16808
5080.26,0.16550
5076.41,0.17322
5072.55,0.16858
5068.69,0.17395
5064.83,0.17165
5060.98,0.17143
5057.12,0.17103
5053.26,0.17325
5049.41,0.17035
5045.55,0.16810
5041.69,0.17053
5037.83,0.17176
5033.98,0.17276
5030.12,0.16924
5026.26,0.17256
5022.4,0.17453
5018.55,0.16975
5014.69,0.17089
5010.83,0.17188
5006.97,0.17089
5003.12,0.17676
4999.26,0.17073
4995.4,0.16958
4991.54,0.17050
4987.69,0.17489
4983.83,0.17096
4979.97,0.17388
4976.11,0.17091
4972.26,0.17008
4968.4,0.17397
4964.54,0.17178
4960.68,0.17244
4956.83,0.17073
4952.97,0.16712
4949.11,0.16862
4945.25,0.16957
4941.4,0.17095
4937.54,0.16777
4933.68,0.16328
4929.82,0.16353
4925.97,0.16616
4922.11,0.16681
4918.25,0.16253
4914.39,0.16531
4910.54,0.16622
4906.68,0.16906
4902.82,0.16322
4898.96,0.16656
4895.11,0.16228
4891.25,0.16760
4887.39,0.15598
4883.53,0.16573
4879.68,0.16250
4875.82,0.16301
4871.96,0.15839
4868.1,0.16035
4864.25,0.16071
4860.39,0.16438
4856.53,0.16824
4852.68,0.16398
4848.82,0.16380
4844.96,0.16789
4841.1,0.15751
4837.25,0.15627
4833.39,0.15766
4829.53,0.15415
4825.67,0.15257
4821.82,0.14397
4817.96,0.14865
4814.1,0.14702
4810.24,0.14336
4806.39,0.14437
4802.53,0.13881
4798.67,0.14490
4794.81,0.14483
4790.96,0.14020
4787.1,0.14610
4783.24,0.14245
4779.38,0.14250
4775.53,0.14963
4771.67,0.15218
4767.81,0.14447
4763.95,0.14926
4760.1,0.14638
4756.24,0.14133
4752.38,0.13671
4748.52,0.13628
4744.67,0.13373
4740.81,0.13099
4736.95,0.12739
4733.09,0.12111
4729.24,0.11628
4725.38,0.10852
4721.52,0.10556
4717.66,0.10226
4713.81,0.10354
4709.95,0.10053
4706.09,0.09828
4702.23,0.09197
4698.38,0.09355
4694.52,0.08063
4690.66,0.07821
4686.8,0.08204
4682.95,0.08831
4679.09,0.08931
4675.23,0.09587
4671.37,0.10107
4667.52,0.10707
4663.66,0.11034
4659.8,0.10678
4655.95,0.10566
4652.09,0.10418
4648.23,0.10740
4644.37,0.09767
4640.52,0.09237
4636.66,0.08926
4632.8,0.09065
4628.94,0.09267
4625.09,0.10399
4621.23,0.11032
4617.37,0.12179
4613.51,0.12194
4609.66,0.12435
4605.8,0.12465
4601.94,0.12354
4598.08,0.11564
4594.23,0.11511
4590.37,0.11360
4586.51,0.11186
4582.65,0.10533
4578.8,0.10356
4574.94,0.10686
4571.08,0.11829
4567.22,0.12302
4563.37,0.13049
4559.51,0.13364
4555.65,0.12989
4551.79,0.13226
4547.94,0.13180
4544.08,0.12992
4540.22,0.13073
4536.36,0.13227
4532.51,0.12972
4528.65,0.13314
4524.79,0.13086
4520.93,0.12627
4517.08,0.12830
4513.22,0.12081
4509.36,0.11923
4505.5,0.11424
4501.65,0.10740
4497.79,0.10562
4493.93,0.09856
4490.07,0.09134
4486.22,0.08570
4482.36,0.08545
4478.5,0.08251
4474.64,0.07941
4470.79,0.07586
4466.93,0.07003
4463.07,0.06477
4459.21,0.06088
4455.36,0.05999
4451.5,0.06036
4447.64,0.06194
4443.79,0.06113
4439.93,0.05800
4436.07,0.05235
4432.21,0.05898
4428.36,0.05776
4424.5,0.06005
4420.64,0.06160
4416.78,0.06362
4412.93,0.06564
4409.07,0.06267
4405.21,0.06490
4401.35,0.06730
4397.5,0.06740
4393.64,0.06756
4389.78,0.07052
4385.92,0.06768
4382.07,0.07266
4378.21,0.07227
4374.35,0.07437
4370.49,0.07413
4366.64,0.07167
4362.78,0.07564
4358.92,0.06889
4355.06,0.07055
4351.21,0.07547
4347.35,0.06788
4343.49,0.06995
4339.63,0.06900
4335.78,0.06881
4331.92,0.07070
4328.06,0.06858
4324.2,0.06997
4320.35,0.06541
4316.49,0.06695
4312.63,0.06753
4308.77,0.06845
4304.92,0.06668
4301.06,0.06035
4297.2,0.06337
4293.34,0.05894
4289.49,0.06183
4285.63,0.06302
4281.77,0.06358
4277.91,0.06179
4274.06,0.06322
4270.2,0.06237
4266.34,0.06395
4262.48,0.06551
4258.63,0.06447
4254.77,0.06653
4250.91,0.06514
4247.06,0.06283
4243.2,0.06549
4239.34,0.06622
4235.48,0.06601
4231.63,0.06667
4227.77,0.06444
4223.91,0.06653
4220.05,0.06597
4216.2,0.06973
4212.34,0.06942
4208.48,0.07158
4204.62,0.07302
4200.77,0.07349
4196.91,0.07140
4193.05,0.06878
4189.19,0.06953
4185.34,0.06763
4181.48,0.06794
4177.62,0.06687
4173.76,0.06674
4169.91,0.06707
4166.05,0.07271
4162.19,0.07377
4158.33,0.07503
4154.48,0.07473
4150.62,0.07452
4146.76,0.07495
4142.9,0.07393
4139.05,0.06978
4135.19,0.06679
4131.33,0.06865
4127.47,0.06751
4123.62,0.06676
4119.76,0.06742
4115.9,0.06591
4112.04,0.06493
4108.19,0.06361
4104.33,0.05827
4100.47,0.05602
4096.61,0.05202
4092.76,0.04738
4088.9,0.04928
4085.04,0.05336
4081.18,0.05457
4077.33,0.05624
4073.47,0.05945
4069.61,0.06398
4065.75,0.06714
4061.9,0.06787
4058.04,0.07101
4054.18,0.06970
4050.33,0.07183
4046.47,0.07107
4042.61,0.07459
4038.75,0.07309
4034.9,0.07537
4031.04,0.07817
4027.18,0.07983
4023.32,0.08098
4019.47,0.07752
4015.61,0.07594
4011.75,0.07812
4007.89,0.07920
4004.04,0.07901
4000.18,0.07958
3996.32,0.08137
3992.46,0.08070
3988.61,0.08262
3984.75,0.08309
3980.89,0.08380
3977.03,0.08326
3973.18,0.08469
3969.32,0.08426
3965.46,0.08351
3961.6,0.08316
3957.75,0.08656
3953.89,0.08913
3950.03,0.09096
3946.17,0.08935
3942.32,0.09155
3938.46,0.09023
3934.6,0.08952
3930.74,0.09131
3926.89,0.09266
3923.03,0.09069
3919.17,0.09108
3915.31,0.09234
3911.46,0.09508
3907.6,0.09487
3903.74,0.09934
3899.88,0.10083
3896.03,0.09949
3892.17,0.10401
3888.31,0.10455
3884.45,0.10753
3880.6,0.10521
3876.74,0.10781
3872.88,0.11013
3869.02,0.10652
3865.17,0.10743
3861.31,0.10847
3857.45,0.11215
3853.59,0.11460
3849.74,0.11034
3845.88,0.11273
3842.02,0.11042
3838.17,0.11745
3834.31,0.11150
3830.45,0.11021
3826.59,0.11144
3822.74,0.11454
3818.88,0.11066
3815.02,0.10672
3811.16,0.10163
3807.31,0.10259
3803.45,0.10328
3799.59,0.10452
3795.73,0.10682
3791.88,0.10665
3788.02,0.10624
3784.16,0.10721
3780.3,0.10595
3776.45,0.10595
3772.59,0.10356
3768.73,0.10235
3764.87,0.10010
3761.02,0.09776
3757.16,0.09687
3753.3,0.10181
3749.44,0.11289
3745.59,0.11020
3741.73,0.11380
3737.87,0.11258
3734.01,0.10799
3730.16,0.10407
3726.3,0.10835
3722.44,0.11200
3718.58,0.11147
3714.73,0.11233
3710.87,0.11567
3707.01,0.10507
3703.15,0.09878
3699.3,0.09391
3695.44,0.08909
3691.58,0.08533
3687.72,0.07234
3683.87,0.06997
3680.01,0.07228
3676.15,0.07583
3672.29,0.07870
3668.44,0.07502
3664.58,0.06950
3660.72,0.06816
3656.86,0.06352
3653.01,0.06590
3649.15,0.06327
3645.29,0.06145
3641.44,0.06084
3637.58,0.05743
3633.72,0.06032
3629.86,0.06225
3626.01,0.05913
3622.15,0.05880
3618.29,0.06202
3614.43,0.05995
3610.58,0.06027
3606.72,0.06188
3602.86,0.06179
3599,0.06229
3595.15,0.06149
3591.29,0.06169
3587.43,0.06030
3583.57,0.05700
3579.72,0.05254
3575.86,0.05435
3572,0.05313
3568.14,0.05678
3564.29,0.05396
3560.43,0.05163
3556.57,0.04741
3552.71,0.04952
3548.86,0.04999
3545,0.05045
3541.14,0.05051
3537.28,0.05060
3533.43,0.05050
3529.57,0.05177
3525.71,0.05213
3521.85,0.05430
3518,0.05383
3514.14,0.05549
3510.28,0.05654
3506.42,0.05379
3502.57,0.05557
3498.71,0.05558
3494.85,0.05530
3490.99,0.05642
3487.14,0.05767
3483.28,0.05437
3479.42,0.05512
3475.56,0.05696
3471.71,0.05358
3467.85,0.05182
3463.99,0.05185
3460.13,0.05006
3456.28,0.04799
3452.42,0.04699
3448.56,0.04725
3444.7,0.04541
3440.85,0.04226
3436.99,0.04325
3433.13,0.04364
3429.28,0.04363
3425.42,0.04221
3421.56,0.04580
3417.7,0.04766
3413.85,0.04731
3409.99,0.04771
3406.13,0.05114
3402.27,0.05234
3398.42,0.05392
3394.56,0.05493
3390.7,0.05436
3386.84,0.05336
3382.99,0.05607
3379.13,0.05604
3375.27,0.05392
3371.41,0.05415
3367.56,0.05588
3363.7,0.05509
3359.84,0.05141
3355.98,0.05283
3352.13,0.05007
3348.27,0.04992
3344.41,0.04927
3340.55,0.04868
3336.7,0.04947
3332.84,0.04904
3328.98,0.05077
3325.12,0.05108
3321.27,0.05009
3317.41,0.05133
3313.55,0.05072
3309.69,0.05049
3305.84,0.05175
3301.98,0.04964
3298.12,0.04977
3294.26,0.05160
3290.41,0.05211
3286.55,0.05246
3282.69,0.05344
3278.83,0.05299
3274.98,0.05546
3271.12,0.05395
3267.26,0.05386
3263.4,0.05245
3259.55,0.05425
3255.69,0.05363
3251.83,0.05491
3247.97,0.05343
3244.12,0.05394
3240.26,0.05396
3236.4,0.05393
3232.55,0.05275
3228.69,0.05404
3224.83,0.05169
3220.97,0.05392
3217.12,0.05448
3213.26,0.05511
3209.4,0.05564
3205.54,0.05599
3201.69,0.05409
3197.83,0.05481
3193.97,0.05486
3190.11,0.05402
3186.26,0.05466
3182.4,0.05663
3178.54,0.05323
3174.68,0.05545
3170.83,0.05426
3166.97,0.05380
3163.11,0.05477
3159.25,0.05372
3155.4,0.05249
3151.54,0.05316
3147.68,0.05109
3143.82,0.05169
3139.97,0.05036
3136.11,0.04878
3132.25,0.04961
3128.39,0.04913
3124.54,0.04903
3120.68,0.04949
3116.82,0.04769
3112.96,0.04635
3109.11,0.04611
3105.25,0.04609
3101.39,0.04582
3097.53,0.04622
3093.68,0.04521
3089.82,0.04680
3085.96,0.04508
3082.1,0.04359
3078.25,0.04426
3074.39,0.04418
3070.53,0.04512
3066.67,0.04533
3062.82,0.04366
3058.96,0.04451
3055.1,0.04477
3051.24,0.04479
3047.39,0.04421
3043.53,0.04761
3039.67,0.04695
3035.82,0.04853
3031.96,0.04668
3028.1,0.04634
3024.24,0.04640
3020.39,0.04552
3016.53,0.04515
3012.67,0.04317
3008.81,0.04315
3004.96,0.04411
3001.1,0.04439
2997.24,0.04289
2993.38,0.04356
2989.53,0.04160
2985.67,0.04154
2981.81,0.04151
2977.95,0.04117
2974.1,0.04262
2970.24,0.04258
2966.38,0.04028
2962.52,0.04341
2958.67,0.04326
2954.81,0.04196
2950.95,0.04261
2947.09,0.04244
2943.24,0.04304
2939.38,0.04543
2935.52,0.04308
2931.66,0.04477
2927.81,0.04557
2923.95,0.04362
2920.09,0.04420
2916.23,0.04430
2912.38,0.04453
2908.52,0.04378
2904.66,0.04373
2900.8,0.04277
2896.95,0.04329
2893.09,0.04434
2889.23,0.04357
2885.37,0.04538
2881.52,0.04418
2877.66,0.04451
2873.8,0.04586
2869.94,0.04430
2866.09,0.04559
2862.23,0.04570
2858.37,0.04476
2854.51,0.04694
2850.66,0.04704
2846.8,0.04842
2842.94,0.04933
2839.08,0.05089
2835.23,0.05106
2831.37,0.05188
2827.51,0.05368
2823.66,0.05469
2819.8,0.05377
2815.94,0.05208
2812.08,0.05255
2808.23,0.05229
2804.37,0.05370
2800.51,0.05316
2796.65,0.05504
2792.8,0.05606
2788.94,0.05744
2785.08,0.05916
2781.22,0.05950
2777.37,0.05995
2773.51,0.06060
2769.65,0.06131
2765.79,0.06122
2761.94,0.06176
2758.08,0.06193
2754.22,0.06189
2750.36,0.06174
2746.51,0.06043
2742.65,0.06161
2738.79,0.06168
2734.93,0.06510
2731.08,0.06635
2727.22,0.06668
2723.36,0.06877
2719.5,0.06995
2715.65,0.06974
2711.79,0.07257
2707.93,0.07391
2704.07,0.07328
2700.22,0.07485
2696.36,0.07589
2692.5,0.07774
2688.64,0.07808
2684.79,0.07759
2680.93,0.07827
2677.07,0.07764
2673.21,0.07828
2669.36,0.07836
2665.5,0.07930
2661.64,0.07900
2657.78,0.07868
2653.93,0.07650
2650.07,0.07563
2646.21,0.07511
2642.35,0.07306
2638.5,0.06978
2634.64,0.06700
2630.78,0.06549
2626.93,0.06530
2623.07,0.06686
2619.21,0.06835
2615.35,0.06696
2611.5,0.06609
2607.64,0.06563
2603.78,0.06634
2599.92,0.06499
2596.07,0.06232
2592.21,0.06139
2588.35,0.06122
2584.49,0.06146
2580.64,0.06162
2576.78,0.05997
2572.92,0.06147
2569.06,0.06182
2565.21,0.06037
2561.35,0.06092
2557.49,0.06037
2553.63,0.06020
2549.78,0.05902
2545.92,0.06023
2542.06,0.06026
2538.2,0.05976
2534.35,0.05889
2530.49,0.06020
2526.63,0.05993
2522.77,0.06254
2518.92,0.06282
2515.06,0.06328
2511.2,0.06393
2507.34,0.06428
2503.49,0.06515
2499.63,0.06455
2495.77,0.06653
2491.91,0.06670
2488.06,0.06886
2484.2,0.07075
2480.34,0.07212
2476.48,0.07491
2472.63,0.07458
2468.77,0.07707
2464.91,0.07631
2461.05,0.07638
2457.2,0.07623
2453.34,0.07562
2449.48,0.07540
2445.62,0.07566
2441.77,0.07322
2437.91,0.07146
2434.05,0.06726
2430.2,0.06645
2426.34,0.06458
2422.48,0.06250
2418.62,0.06164
2414.77,0.06102
2410.91,0.05902
2407.05,0.05888
2403.19,0.05766
2399.34,0.05752
2395.48,0.05634
2391.62,0.05604
2387.76,0.05517
2383.91,0.05398
2380.05,0.05224
2376.19,0.05309
2372.33,0.05046
2368.48,0.05052
2364.62,0.04812
2360.76,0.04890
2356.9,0.05533
2353.05,0.05530
2349.19,0.05506
2345.33,0.05567
2341.47,0.05660
2337.62,0.05613
2333.76,0.05801
2329.9,0.06056
2326.04,0.06041
2322.19,0.06242
2318.33,0.06524
2314.47,0.06810
2310.61,0.06822
2306.76,0.06842
2302.9,0.06781
2299.04,0.06516
2295.18,0.06294
2291.33,0.06138
2287.47,0.06112
2283.61,0.06106
2279.75,0.06020
2275.9,0.06158
2272.04,0.06103
2268.18,0.06153
2264.32,0.06146
2260.47,0.06096
2256.61,0.06217
2252.75,0.06160
2248.89,0.06314
2245.04,0.06409
2241.18,0.06596
2237.32,0.06860
2233.46,0.06878
2229.61,0.06950
2225.75,0.07010
2221.89,0.07032
2218.04,0.07118
2214.18,0.07171
2210.32,0.07288
2206.46,0.07409
2202.61,0.07591
2198.75,0.07731
2194.89,0.07759
2191.03,0.07743
2187.18,0.07768
2183.32,0.07633
2179.46,0.07665
2175.6,0.07391
2171.75,0.07101
2167.89,0.06897
2164.03,0.06875
2160.17,0.06562
2156.32,0.06345
2152.46,0.06167
2148.6,0.06016
2144.74,0.05898
2140.89,0.05946
2137.03,0.05752
2133.17,0.05751
2129.31,0.05747
2125.46,0.05658
2121.6,0.05519
2117.74,0.05405
2113.88,0.05522
2110.03,0.05381
2106.17,0.05386
2102.31,0.05506
2098.45,0.05498
2094.6,0.05543
2090.74,0.05620
2086.88,0.05656
2083.02,0.05784
2079.17,0.05943
2075.31,0.06117
2071.45,0.06255
2067.59,0.06489
2063.74,0.06678
2059.88,0.07002
2056.02,0.07267
2052.16,0.07463
2048.31,0.07578
2044.45,0.07880
2040.59,0.07951
2036.73,0.07785
2032.88,0.07844
2029.02,0.07592
2025.16,0.07336
2021.31,0.07231
2017.45,0.07077
2013.59,0.06889
2009.73,0.06645
2005.88,0.06440
2002.02,0.06198
1998.16,0.06194
1994.3,0.05917
1990.45,0.05864
1986.59,0.05670
1982.73,0.05506
1978.87,0.05517
1975.02,0.05357
1971.16,0.05212
1967.3,0.05227
1963.44,0.05038
1959.59,0.04947
1955.73,0.04965
1951.87,0.04948
1948.01,0.05140
1944.16,0.05435
1940.3,0.05271
1936.44,0.05448
1932.58,0.05549
1928.73,0.05817
1924.87,0.06038
1921.01,0.06056
1917.15,0.06313
1913.3,0.06364
1909.44,0.06531
1905.58,0.06558
1901.72,0.06588
1897.87,0.06662
1894.01,0.06733
1890.15,0.06732
1886.29,0.06822
1882.44,0.06656
1878.58,0.06696
1874.72,0.06653
1870.86,0.06638
1867.01,0.06418
1863.15,0.06043
1859.29,0.05945
1855.43,0.05752
1851.58,0.05526
1847.72,0.05423
1843.86,0.05391
1840,0.05084
1836.15,0.05048
1832.29,0.05011
1828.43,0.05049
1824.57,0.04869
1820.72,0.04851
1816.86,0.04862
1813,0.04958
1809.15,0.04993
1805.29,0.04982
1801.43,0.05017
1797.57,0.04905
1793.72,0.04966
1789.86,0.04908
1786,0.04825
1782.14,0.04910
1778.29,0.04824
1774.43,0.04917
1770.57,0.04892
1766.71,0.04598
1762.86,0.04629
1759,0.04527
1755.14,0.04600
1751.28,0.04687
1747.43,0.04649
1743.57,0.04577
1739.71,0.04401
1735.85,0.04437
1732,0.04577
1728.14,0.04183
1724.28,0.04217
1720.42,0.04236
1716.57,0.04636
1712.71,0.04213
1708.85,0.04458
1704.99,0.04624
1701.14,0.04649
1697.28,0.04932
1693.42,0.04529
1689.56,0.04624
1685.71,0.04955
1681.85,0.04770
1677.99,0.04544
1674.13,0.04738
1670.28,0.04853
1666.42,0.04531
1662.56,0.04647
1658.7,0.04561
1654.85,0.04749
1650.99,0.04735
1647.13,0.05109
1643.27,0.04661
1639.42,0.04718
1635.56,0.05018
1631.7,0.04733
1627.84,0.04801
1623.99,0.04919
1620.13,0.04752
1616.27,0.04817
1612.42,0.04731
1608.56,0.04768
1604.7,0.04823
1600.84,0.04773
1596.99,0.04948
1593.13,0.04747
1589.27,0.04696
1585.41,0.04520
1581.56,0.04503
1577.7,0.04762
1573.84,0.04640
1569.98,0.04790
1566.13,0.04859
1562.27,0.05018
1558.41,0.05889
1554.55,0.04991
1550.7,0.04842
1546.84,0.04895
1542.98,0.05114
1539.12,0.05298
1535.27,0.04876
1531.41,0.04820
1527.55,0.04738
1523.69,0.05192
1519.84,0.05239
1515.98,0.05071
1512.12,0.04777
1508.26,0.05132
1504.41,0.04657
1500.55,0.04661
1496.69,0.04821
1492.83,0.04865
1488.98,0.04924
1485.12,0.04650
1481.26,0.04743
1477.4,0.04794
1473.55,0.04863
1469.69,0.04542
1465.83,0.04499
1461.97,0.04624
1458.12,0.05076
1454.26,0.04657
1450.4,0.04502
1446.54,0.04651
1442.69,0.04548
1438.83,0.04689
1434.97,0.04655
1431.11,0.04650
1427.26,0.04743
1423.4,0.04613
1419.54,0.04766
1415.69,0.04435
1411.83,0.04362
1407.97,0.04275
1404.11,0.04576
1400.26,0.04541
1396.4,0.04649
1392.54,0.04506
1388.68,0.04515
1384.83,0.04565
1380.97,0.04524
1377.11,0.04589
1373.25,0.04736
1369.4,0.04490
1365.54,0.04631
1361.68,0.04865
1357.82,0.04615
1353.97,0.04616
1350.11,0.04460
1346.25,0.04353
1342.39,0.04413
1338.54,0.04603
1334.68,0.04380
1330.82,0.04452
1326.96,0.04511
1323.11,0.04535
1319.25,0.04580
1315.39,0.04477
1311.53,0.04577
1307.68,0.04560
1303.82,0.04472
1299.96,0.04459
1296.1,0.04412
1292.25,0.04397
1288.39,0.04489
1284.53,0.04431
1280.67,0.04295
1276.82,0.04409
1272.96,0.04434
1269.1,0.04355
1265.24,0.04279
1261.39,0.04386
1257.53,0.04419
1253.67,0.04318
1249.81,0.04355
1245.96,0.04377
1242.1,0.04314
1238.24,0.04189
1234.38,0.04292
1230.53,0.04377
1226.67,0.04343
1222.81,0.04181
1218.95,0.04521
1215.1,0.04525
1211.24,0.04531
1207.38,0.04626
1203.53,0.04622
1199.67,0.04581
1195.81,0.04614
1191.95,0.04546
1188.1,0.04747
1184.24,0.04666
1180.38,0.04452
1176.52,0.04577
1172.67,0.04284
1168.81,0.04496
1164.95,0.04532
1161.09,0.04597
1157.24,0.04574
1153.38,0.04510
1149.52,0.04459
1145.66,0.04527
1141.81,0.04335
1137.95,0.04438
1134.09,0.04283
1130.23,0.04250
1126.38,0.04260
1122.52,0.04445
1118.66,0.04297
1114.8,0.04142
1110.95,0.04319
1107.09,0.04238
1103.23,0.04240
1099.37,0.04316
1095.52,0.04247
1091.66,0.04395
1087.8,0.04419
1083.94,0.04153
1080.09,0.04444
1076.23,0.04691
1072.37,0.04599
1068.51,0.04455
1064.66,0.04571
1060.8,0.04479
1056.94,0.04588
1053.08,0.04737
1049.23,0.04670
1045.37,0.04547
1041.51,0.04612
1037.65,0.04706
1033.8,0.04603
1029.94,0.04588
1026.08,0.04629
1022.22,0.04347
1018.37,0.04600
1014.51,0.04521
1010.65,0.04333
1006.8,0.04827
1002.94,0.04832
999.08,0.04769
995.223,0.04910
991.365,0.04800
987.508,0.05044
983.65,0.04471
979.793,0.04542
975.935,0.04835
972.078,0.04653
968.221,0.04234
964.363,0.04700
960.506,0.04707
956.648,0.04635
952.791,0.04954
948.933,0.04784
945.076,0.04746
941.218,0.05192
937.361,0.05014
933.503,0.04937
929.646,0.05096
925.789,0.05168
921.931,0.05056
918.074,0.04958
914.216,0.04811
910.359,0.04693
906.501,0.04764
902.644,0.04590
898.786,0.04813
894.929,0.04808
891.072,0.04685
887.214,0.04610
883.357,0.05011
879.499,0.04560
875.642,0.04588
871.784,0.04573
867.927,0.04768
864.069,0.04979
860.212,0.04599
856.354,0.04716
852.497,0.04806
848.64,0.04723
844.782,0.04726
840.925,0.04871
837.067,0.04829
833.21,0.04624
829.352,0.04961
825.495,0.04916
821.637,0.04897
817.78,0.05031
813.922,0.04722
810.065,0.05105
806.208,0.04775
802.35,0.05043
798.493,0.04779
794.635,0.04806
790.778,0.04852
786.92,0.04852
783.063,0.04972
779.205,0.05005
775.348,0.04937
771.49,0.04925
767.633,0.05157
763.776,0.05302
759.918,0.05276
756.061,0.05237
752.203,0.05436
748.346,0.04812
744.488,0.05023
740.631,0.04173
736.773,0.04250
732.916,0.04444
729.058,0.03925
725.201,0.04182
721.344,0.04514
717.486,0.04840
713.629,0.05037
709.771,0.04747
705.914,0.04682
702.056,0.04788
698.199,0.05254
694.341,0.05126
690.484,0.05138
686.627,0.04683
682.769,0.04572
678.912,0.04692
675.054,0.04799
671.197,0.04712
667.339,0.05396
663.482,0.05172
659.624,0.05471
655.767,0.05448
651.909,0.05838
648.052,0.05567
644.195,0.05858
640.337,0.06075
636.48,0.05555
632.622,0.05398
628.765,0.06000
624.907,0.05925
621.05,0.06227
617.192,0.06362
613.335,0.06627
609.477,0.06567
605.62,0.07109
601.763,0.06506
597.905,0.06447
594.048,0.06655
590.19,0.06990
586.333,0.07104
582.475,0.07055
578.618,0.07268
574.76,0.06340
570.903,0.06595
567.045,0.06408
563.188,0.05950
559.331,0.06341
555.473,0.06168
551.616,0.05972
547.758,0.05704
543.901,0.06399
540.043,0.05750
536.186,0.05736
532.328,0.06917
528.471,0.05818
524.614,0.05119
520.756,0.04120
516.899,0.05057
513.041,0.04445
509.184,0.05185
505.326,0.04834
501.469,0.05024
497.611,0.04674
493.754,0.04551
489.896,0.05408
486.039,0.05536
482.182,0.05592
478.324,0.06243
474.467,0.05159
470.609,0.06042
466.752,0.04807
462.894,0.04748
459.037,0.05008
455.179,0.03849
451.322,0.05342
447.464,0.05527
443.607,0.05396
439.75,0.04181
435.892,0.04228
432.035,0.05250
428.177,0.04984
424.32,0.05852
420.462,0.00353
416.605,0.05682
412.747,0.07545
408.89,0.06314
405.033,0.04746
401.175,0.05006
399.246,0.06186