File: 01_Data/Overstuffed_Chair_Polyester_Fabric/FTIR/IS/Overstuffed_Chair_Polyester_Fabric_IS_REFLECT_MEAS_210623_R1.dpt
5996.41,0.65986
5992.55,0.67590
5988.69,0.68276
5984.84,0.67899
5980.98,0.66719
5977.12,0.66811
5973.27,0.68681
5969.41,0.68393
5965.55,0.68013
5961.69,0.68477
5957.84,0.69110
5953.98,0.69648
5950.12,0.69762
5946.26,0.68406
5942.41,0.68557
5938.55,0.68797
5934.69,0.69317
5930.83,0.71215
5926.98,0.71454
5923.12,0.70311
5919.26,0.70664
5915.4,0.70620
5911.55,0.71402
5907.69,0.71692
5903.83,0.71957
5899.97,0.72050
5896.12,0.72255
5892.26,0.72122
5888.4,0.72446
5884.54,0.71652
5880.69,0.72374
5876.83,0.72613
5872.97,0.71017
5869.11,0.70859
5865.26,0.71330
5861.4,0.71675
5857.54,0.71428
5853.68,0.71503
5849.83,0.72086
5845.97,0.71655
5842.11,0.72088
5838.25,0.71531
5834.4,0.70624
5830.54,0.71305
5826.68,0.71482
5822.82,0.72457
5818.97,0.72006
5815.11,0.70990
5811.25,0.71082
5807.39,0.71907
5803.54,0.72667
5799.68,0.72777
5795.82,0.71886
5791.96,0.72043
5788.11,0.71660
5784.25,0.72011
5780.39,0.71905
5776.53,0.72006
5772.68,0.72812
5768.82,0.72369
5764.96,0.71886
5761.11,0.72879
5757.25,0.71748
5753.39,0.71784
5749.53,0.73252
5745.68,0.73815
5741.82,0.74705
5737.96,0.74230
5734.1,0.72964
5730.25,0.74517
5726.39,0.74730
5722.53,0.74860
5718.67,0.75143
5714.82,0.74250
5710.96,0.73841
5707.1,0.74504
5703.24,0.74931
5699.39,0.73609
5695.53,0.73209
5691.67,0.73595
5687.81,0.73534
5683.96,0.73545
5680.1,0.73773
5676.24,0.73816
5672.38,0.73552
5668.53,0.73795
5664.67,0.73801
5660.81,0.73728
5656.95,0.74295
5653.1,0.74204
5649.24,0.73861
5645.38,0.73873
5641.52,0.74093
5637.67,0.74759
5633.81,0.75557
5629.95,0.74460
5626.09,0.75665
5622.24,0.76299
5618.38,0.75910
5614.52,0.75208
5610.66,0.74393
5606.81,0.74526
5602.95,0.75248
5599.09,0.75146
5595.23,0.74774
5591.38,0.74577
5587.52,0.75113
5583.66,0.74788
5579.8,0.75662
5575.95,0.74590
5572.09,0.74670
5568.23,0.75572
5564.38,0.74431
5560.52,0.74665
5556.66,0.75217
5552.8,0.74856
5548.95,0.73721
5545.09,0.74251
5541.23,0.74963
5537.37,0.75480
5533.52,0.74303
5529.66,0.73299
5525.8,0.73522
5521.94,0.74273
5518.09,0.74900
5514.23,0.74553
5510.37,0.74143
5506.51,0.74219
5502.66,0.74661
5498.8,0.74801
5494.94,0.74226
5491.08,0.72908
5487.23,0.73542
5483.37,0.74360
5479.51,0.74421
5475.65,0.73292
5471.8,0.73713
5467.94,0.73425
5464.08,0.73488
5460.22,0.74395
5456.37,0.75323
5452.51,0.75790
5448.65,0.75372
5444.79,0.76082
5440.94,0.76425
5437.08,0.75870
5433.22,0.76189
5429.36,0.75670
5425.51,0.76069
5421.65,0.76918
5417.79,0.75604
5413.93,0.73821
5410.08,0.74545
5406.22,0.74780
5402.36,0.73826
5398.5,0.75080
5394.65,0.75290
5390.79,0.75826
5386.93,0.75539
5383.07,0.74943
5379.22,0.75006
5375.36,0.75417
5371.5,0.75567
5367.65,0.75225
5363.79,0.75667
5359.93,0.76230
5356.07,0.74788
5352.22,0.73537
5348.36,0.74771
5344.5,0.74090
5340.64,0.73811
5336.79,0.74221
5332.93,0.74164
5329.07,0.75031
5325.21,0.75993
5321.36,0.74954
5317.5,0.74016
5313.64,0.75106
5309.78,0.75359
5305.93,0.75014
5302.07,0.75268
5298.21,0.75293
5294.35,0.76107
5290.5,0.75465
5286.64,0.74641
5282.78,0.73922
5278.92,0.73617
5275.07,0.73778
5271.21,0.73165
5267.35,0.72411
5263.49,0.71423
5259.64,0.72161
5255.78,0.72567
5251.92,0.72192
5248.06,0.71171
5244.21,0.71494
5240.35,0.72093
5236.49,0.71842
5232.63,0.71608
5228.78,0.71827
5224.92,0.72085
5221.06,0.73376
5217.2,0.74046
5213.35,0.73681
5209.49,0.73532
5205.63,0.72910
5201.77,0.73638
5197.92,0.74117
5194.06,0.74093
5190.2,0.74479
5186.34,0.74042
5182.49,0.73950
5178.63,0.74077
5174.77,0.73631
5170.91,0.73255
5167.06,0.73473
5163.2,0.73340
5159.34,0.73569
5155.49,0.73129
5151.63,0.73188
5147.77,0.73681
5143.91,0.73368
5140.06,0.73399
5136.2,0.73789
5132.34,0.73594
5128.48,0.73935
5124.63,0.73407
5120.77,0.72154
5116.91,0.71664
5113.05,0.72196
5109.2,0.73030
5105.34,0.73091
5101.48,0.73475
5097.62,0.73797
5093.77,0.74378
5089.91,0.74548
5086.05,0.75327
5082.19,0.75237
5078.34,0.74653
5074.48,0.75263
5070.62,0.75073
5066.76,0.75049
5062.91,0.75059
5059.05,0.74583
5055.19,0.75060
5051.33,0.75391
5047.48,0.75200
5043.62,0.75116
5039.76,0.74804
5035.9,0.75189
5032.05,0.75262
5028.19,0.75302
5024.33,0.75721
5020.47,0.74842
5016.62,0.74854
5012.76,0.74613
5008.9,0.74980
5005.04,0.75091
5001.19,0.74870
4997.33,0.74609
4993.47,0.74382
4989.61,0.74804
4985.76,0.75212
4981.9,0.74652
4978.04,0.74719
4974.18,0.74538
4970.33,0.75032
4966.47,0.75126
4962.61,0.75074
4958.76,0.75250
4954.9,0.74963
4951.04,0.74712
4947.18,0.74948
4943.33,0.74760
4939.47,0.74619
4935.61,0.74389
4931.75,0.74304
4927.9,0.74782
4924.04,0.74886
4920.18,0.74411
4916.32,0.74259
4912.47,0.74354
4908.61,0.74596
4904.75,0.74701
4900.89,0.74421
4897.04,0.73894
4893.18,0.74140
4889.32,0.74055
4885.46,0.74016
4881.61,0.73911
4877.75,0.73670
4873.89,0.73811
4870.03,0.73319
4866.18,0.73919
4862.32,0.73739
4858.46,0.73760
4854.6,0.73486
4850.75,0.73716
4846.89,0.73533
4843.03,0.73659
4839.17,0.73386
4835.32,0.72415
4831.46,0.72170
4827.6,0.72061
4823.74,0.72189
4819.89,0.71985
4816.03,0.72031
4812.17,0.71661
4808.31,0.71687
4804.46,0.71792
4800.6,0.71435
4796.74,0.71266
4792.88,0.71045
4789.03,0.71243
4785.17,0.71312
4781.31,0.71476
4777.45,0.71224
4773.6,0.71017
4769.74,0.71320
4765.88,0.71761
4762.02,0.71378
4758.17,0.70786
4754.31,0.70568
4750.45,0.70223
4746.6,0.69853
4742.74,0.69624
4738.88,0.69385
4735.02,0.68822
4731.17,0.68048
4727.31,0.67486
4723.45,0.66209
4719.59,0.65670
4715.74,0.65430
4711.88,0.65335
4708.02,0.64867
4704.16,0.64226
4700.31,0.63466
4696.45,0.62664
4692.59,0.61841
4688.73,0.61597
4684.88,0.61901
4681.02,0.62942
4677.16,0.64234
4673.3,0.65266
4669.45,0.65984
4665.59,0.66313
4661.73,0.66503
4657.87,0.66408
4654.02,0.66242
4650.16,0.65908
4646.3,0.64899
4642.44,0.64279
4638.59,0.63508
4634.73,0.63232
4630.87,0.63763
4627.01,0.64863
4623.16,0.66354
4619.3,0.67370
4615.44,0.68140
4611.58,0.68595
4607.73,0.68858
4603.87,0.68391
4600.01,0.67884
4596.15,0.66847
4592.3,0.66522
4588.44,0.66405
4584.58,0.65664
4580.72,0.65231
4576.87,0.65373
4573.01,0.66356
4569.15,0.67774
4565.29,0.68549
4561.44,0.68992
4557.58,0.69224
4553.72,0.69476
4549.87,0.69135
4546.01,0.69160
4542.15,0.69177
4538.29,0.69086
4534.44,0.68876
4530.58,0.69155
4526.72,0.68579
4522.86,0.68408
4519.01,0.68351
4515.15,0.68100
4511.29,0.67654
4507.43,0.67085
4503.58,0.66456
4499.72,0.65701
4495.86,0.64657
4492,0.63715
4488.15,0.62826
4484.29,0.62156
4480.43,0.61616
4476.57,0.60952
4472.72,0.60360
4468.86,0.59325
4465,0.57928
4461.14,0.56545
4457.29,0.55617
4453.43,0.55727
4449.57,0.56031
4445.71,0.55907
4441.86,0.55695
4438,0.55264
4434.14,0.55005
4430.28,0.54981
4426.43,0.55194
4422.57,0.56155
4418.71,0.56755
4414.85,0.57159
4411,0.57399
4407.14,0.57369
4403.28,0.57662
4399.42,0.58143
4395.57,0.58707
4391.71,0.58937
4387.85,0.59114
4383.99,0.59296
4380.14,0.59412
4376.28,0.59453
4372.42,0.59584
4368.56,0.59763
4364.71,0.59688
4360.85,0.59432
4356.99,0.59381
4353.14,0.59437
4349.28,0.59119
4345.42,0.58655
4341.56,0.58513
4337.71,0.58424
4333.85,0.58365
4329.99,0.58169
4326.13,0.58088
4322.28,0.57973
4318.42,0.58069
4314.56,0.57823
4310.7,0.57443
4306.85,0.56889
4302.99,0.56312
4299.13,0.55896
4295.27,0.55641
4291.42,0.55551
4287.56,0.55689
4283.7,0.55996
4279.84,0.56324
4275.99,0.56425
4272.13,0.56755
4268.27,0.56957
4264.41,0.57218
4260.56,0.57358
4256.7,0.57266
4252.84,0.57119
4248.98,0.57029
4245.13,0.56824
4241.27,0.56808
4237.41,0.56934
4233.55,0.57158
4229.7,0.57075
4225.84,0.57076
4221.98,0.57201
4218.12,0.57503
4214.27,0.57958
4210.41,0.58398
4206.55,0.58298
4202.69,0.58492
4198.84,0.58660
4194.98,0.58632
4191.12,0.58482
4187.26,0.58039
4183.41,0.57351
4179.55,0.56764
4175.69,0.56649
4171.83,0.57143
4167.98,0.57853
4164.12,0.58406
4160.26,0.58704
4156.4,0.58935
4152.55,0.59122
4148.69,0.59266
4144.83,0.59118
4140.98,0.58401
4137.12,0.57810
4133.26,0.57472
4129.4,0.57515
4125.55,0.57358
4121.69,0.57199
4117.83,0.57044
4113.97,0.56756
4110.12,0.56043
4106.26,0.55164
4102.4,0.54247
4098.54,0.52642
4094.69,0.50764
4090.83,0.49845
4086.97,0.50296
4083.11,0.51576
4079.26,0.53023
4075.4,0.54547
4071.54,0.55812
4067.68,0.56713
4063.83,0.57051
4059.97,0.57488
4056.11,0.57908
4052.25,0.58107
4048.4,0.58285
4044.54,0.58318
4040.68,0.58894
4036.82,0.59312
4032.97,0.59688
4029.11,0.59906
4025.25,0.59842
4021.39,0.60048
4017.54,0.59914
4013.68,0.60011
4009.82,0.59757
4005.96,0.59839
4002.11,0.59941
3998.25,0.60090
3994.39,0.60302
3990.53,0.60386
3986.68,0.60561
3982.82,0.60712
3978.96,0.60592
3975.1,0.60615
3971.25,0.60676
3967.39,0.60716
3963.53,0.60784
3959.67,0.61000
3955.82,0.61173
3951.96,0.61344
3948.1,0.61489
3944.25,0.61627
3940.39,0.61854
3936.53,0.61846
3932.67,0.61764
3928.82,0.61772
3924.96,0.61821
3921.1,0.61676
3917.24,0.61724
3913.39,0.62205
3909.53,0.62282
3905.67,0.62311
3901.81,0.62333
3897.96,0.63084
3894.1,0.63513
3890.24,0.63841
3886.38,0.63752
3882.53,0.63867
3878.67,0.63831
3874.81,0.64059
3870.95,0.64150
3867.1,0.64115
3863.24,0.64212
3859.38,0.64001
3855.52,0.63749
3851.67,0.64216
3847.81,0.64035
3843.95,0.64041
3840.09,0.64534
3836.24,0.64665
3832.38,0.64350
3828.52,0.64266
3824.66,0.64297
3820.81,0.64298
3816.95,0.63695
3813.09,0.62945
3809.23,0.62524
3805.38,0.62596
3801.52,0.63132
3797.66,0.63371
3793.8,0.63738
3789.95,0.63731
3786.09,0.63792
3782.23,0.63817
3778.37,0.63641
3774.52,0.63133
3770.66,0.63070
3766.8,0.62641
3762.94,0.62138
3759.09,0.61780
3755.23,0.61406
3751.37,0.62240
3747.51,0.62342
3743.66,0.62153
3739.8,0.62379
3735.94,0.61781
3732.09,0.61079
3728.23,0.60999
3724.37,0.61999
3720.51,0.62704
3716.66,0.62887
3712.8,0.63161
3708.94,0.62398
3705.08,0.61001
3701.23,0.60131
3697.37,0.58965
3693.51,0.58129
3689.65,0.56636
3685.8,0.54461
3681.94,0.54212
3678.08,0.54661
3674.22,0.54272
3670.37,0.53593
3666.51,0.52447
3662.65,0.51675
3658.79,0.50844
3654.94,0.49875
3651.08,0.49827
3647.22,0.49123
3643.36,0.47698
3639.51,0.47045
3635.65,0.46482
3631.79,0.46268
3627.93,0.46190
3624.08,0.46082
3620.22,0.46609
3616.36,0.47038
3612.5,0.46941
3608.65,0.46882
3604.79,0.47034
3600.93,0.47436
3597.07,0.47650
3593.22,0.47274
3589.36,0.47145
3585.5,0.46833
3581.64,0.46103
3577.79,0.45477
3573.93,0.44751
3570.07,0.44168
3566.21,0.43779
3562.36,0.43083
3558.5,0.42343
3554.64,0.42026
3550.78,0.42000
3546.93,0.41984
3543.07,0.42350
3539.21,0.42488
3535.36,0.42781
3531.5,0.43092
3527.64,0.43534
3523.78,0.43979
3519.93,0.44366
3516.07,0.44710
3512.21,0.45066
3508.35,0.45208
3504.5,0.45411
3500.64,0.45563
3496.78,0.45767
3492.92,0.45865
3489.07,0.45779
3485.21,0.45804
3481.35,0.45651
3477.49,0.45341
3473.64,0.44925
3469.78,0.44661
3465.92,0.44203
3462.06,0.43381
3458.21,0.42477
3454.35,0.41540
3450.49,0.40732
3446.63,0.39843
3442.78,0.38511
3438.92,0.37041
3435.06,0.35551
3431.2,0.34829
3427.35,0.35759
3423.49,0.37487
3419.63,0.39456
3415.77,0.41169
3411.92,0.42561
3408.06,0.43760
3404.2,0.44640
3400.34,0.45456
3396.49,0.45693
3392.63,0.46117
3388.77,0.46646
3384.91,0.46913
3381.06,0.46912
3377.2,0.46895
3373.34,0.46855
3369.48,0.46970
3365.63,0.46740
3361.77,0.46420
3357.91,0.46200
3354.05,0.45872
3350.2,0.45458
3346.34,0.44897
3342.48,0.44542
3338.63,0.44081
3334.77,0.43994
3330.91,0.44294
3327.05,0.44778
3323.2,0.45260
3319.34,0.45489
3315.48,0.45591
3311.62,0.45513
3307.77,0.45481
3303.91,0.45353
3300.05,0.45263
3296.19,0.45291
3292.34,0.45660
3288.48,0.45879
3284.62,0.46103
3280.76,0.46360
3276.91,0.46450
3273.05,0.46508
3269.19,0.46635
3265.33,0.46622
3261.48,0.46697
3257.62,0.46854
3253.76,0.46730
3249.9,0.46691
3246.05,0.46605
3242.19,0.46467
3238.33,0.46359
3234.47,0.46258
3230.62,0.46353
3226.76,0.46558
3222.9,0.46879
3219.04,0.46930
3215.19,0.47127
3211.33,0.47434
3207.47,0.47552
3203.61,0.47415
3199.76,0.47133
3195.9,0.47136
3192.04,0.47181
3188.18,0.47135
3184.33,0.47028
3180.47,0.47080
3176.61,0.47105
3172.75,0.47095
3168.9,0.47015
3165.04,0.46860
3161.18,0.46766
3157.32,0.46555
3153.47,0.46382
3149.61,0.46089
3145.75,0.45713
3141.89,0.45206
3138.04,0.44692
3134.18,0.44141
3130.32,0.43531
3126.47,0.43381
3122.61,0.43439
3118.75,0.43264
3114.89,0.42706
3111.04,0.41824
3107.18,0.40804
3103.32,0.40073
3099.46,0.40366
3095.61,0.40985
3091.75,0.41040
3087.89,0.40117
3084.03,0.39096
3080.18,0.38438
3076.32,0.38395
3072.46,0.38203
3068.6,0.37908
3064.75,0.37902
3060.89,0.37526
3057.03,0.36318
3053.17,0.36272
3049.32,0.38361
3045.46,0.40766
3041.6,0.42105
3037.74,0.42313
3033.89,0.41966
3030.03,0.41163
3026.17,0.39831
3022.31,0.37746
3018.46,0.35306
3014.6,0.33387
3010.74,0.32800
3006.88,0.32724
3003.03,0.32388
2999.17,0.32023
2995.31,0.31341
2991.45,0.30418
2987.6,0.29124
2983.74,0.27284
2979.88,0.25199
2976.02,0.22972
2972.17,0.21388
2968.31,0.21446
2964.45,0.22552
2960.59,0.23842
2956.74,0.25203
2952.88,0.26878
2949.02,0.28885
2945.16,0.31142
2941.31,0.33252
2937.45,0.34848
2933.59,0.35689
2929.74,0.35867
2925.88,0.35545
2922.02,0.34665
2918.16,0.33206
2914.31,0.30760
2910.45,0.28228
2906.59,0.27650
2902.73,0.29816
2898.88,0.32250
2895.02,0.33399
2891.16,0.33780
2887.3,0.34116
2883.45,0.34874
2879.59,0.35715
2875.73,0.36295
2871.87,0.36711
2868.02,0.37145
2864.16,0.37591
2860.3,0.38124
2856.44,0.38852
2852.59,0.39880
2848.73,0.41329
2844.87,0.42964
2841.01,0.44310
2837.16,0.45347
2833.3,0.46307
2829.44,0.47083
2825.58,0.47606
2821.73,0.47723
2817.87,0.47451
2814.01,0.47115
2810.15,0.46931
2806.3,0.46852
2802.44,0.47045
2798.58,0.47750
2794.72,0.48489
2790.87,0.49110
2787.01,0.49600
2783.15,0.50057
2779.29,0.50480
2775.44,0.50832
2771.58,0.51046
2767.72,0.51259
2763.86,0.51389
2760.01,0.51402
2756.15,0.51349
2752.29,0.51241
2748.43,0.51115
2744.58,0.51074
2740.72,0.51476
2736.86,0.52051
2733.01,0.52619
2729.15,0.53222
2725.29,0.53696
2721.43,0.53982
2717.58,0.54193
2713.72,0.54433
2709.86,0.54737
2706,0.55125
2702.15,0.55408
2698.29,0.55617
2694.43,0.55773
2690.57,0.55791
2686.72,0.55867
2682.86,0.55855
2679,0.55964
2675.14,0.56019
2671.29,0.56082
2667.43,0.56114
2663.57,0.56040
2659.71,0.55900
2655.86,0.55640
2652,0.55304
2648.14,0.54893
2644.28,0.54270
2640.43,0.53437
2636.57,0.52582
2632.71,0.51966
2628.85,0.51882
2625,0.52056
2621.14,0.52224
2617.28,0.52285
2613.42,0.52171
2609.57,0.52057
2605.71,0.51934
2601.85,0.51683
2597.99,0.51270
2594.14,0.50802
2590.28,0.50324
2586.42,0.50027
2582.56,0.49884
2578.71,0.49871
2574.85,0.49939
2570.99,0.49902
2567.13,0.49767
2563.28,0.49624
2559.42,0.49498
2555.56,0.49405
2551.7,0.49299
2547.85,0.49232
2543.99,0.49148
2540.13,0.49024
2536.27,0.48985
2532.42,0.49092
2528.56,0.49302
2524.7,0.49633
2520.85,0.50014
2516.99,0.50363
2513.13,0.50622
2509.27,0.50771
2505.42,0.50773
2501.56,0.50819
2497.7,0.50979
2493.84,0.51246
2489.99,0.51636
2486.13,0.52139
2482.27,0.52622
2478.41,0.53064
2474.56,0.53475
2470.7,0.53797
2466.84,0.53814
2462.98,0.53854
2459.13,0.53892
2455.27,0.53794
2451.41,0.53668
2447.55,0.53394
2443.7,0.53014
2439.84,0.52405
2435.98,0.51645
2432.12,0.50883
2428.27,0.50238
2424.41,0.49511
2420.55,0.48653
2416.69,0.48043
2412.84,0.47429
2408.98,0.46776
2405.12,0.46220
2401.26,0.45714
2397.41,0.45245
2393.55,0.44839
2389.69,0.44496
2385.83,0.43984
2381.98,0.43261
2378.12,0.42724
2374.26,0.42470
2370.4,0.42099
2366.55,0.41666
2362.69,0.41046
2358.83,0.41787
2354.97,0.42980
2351.12,0.43180
2347.26,0.43623
2343.4,0.44232
2339.54,0.44207
2335.69,0.44638
2331.83,0.45330
2327.97,0.45825
2324.12,0.46361
2320.26,0.47497
2316.4,0.48228
2312.54,0.48361
2308.69,0.48409
2304.83,0.48264
2300.97,0.47817
2297.11,0.47105
2293.26,0.46448
2289.4,0.46072
2285.54,0.45865
2281.68,0.45889
2277.83,0.46020
2273.97,0.45981
2270.11,0.45789
2266.25,0.45533
2262.4,0.45314
2258.54,0.45300
2254.68,0.45511
2250.82,0.45875
2246.97,0.46409
2243.11,0.47016
2239.25,0.47496
2235.39,0.47868
2231.54,0.48128
2227.68,0.48348
2223.82,0.48545
2219.96,0.48615
2216.11,0.48691
2212.25,0.48867
2208.39,0.49175
2204.53,0.49618
2200.68,0.50068
2196.82,0.50282
2192.96,0.50235
2189.1,0.50144
2185.25,0.49834
2181.39,0.49328
2177.53,0.48803
2173.67,0.48081
2169.82,0.47252
2165.96,0.46413
2162.1,0.45422
2158.24,0.44403
2154.39,0.43344
2150.53,0.42506
2146.67,0.41788
2142.81,0.41135
2138.96,0.40660
2135.1,0.40107
2131.24,0.39462
2127.38,0.38782
2123.53,0.38001
2119.67,0.37292
2115.81,0.36873
2111.96,0.36698
2108.1,0.36665
2104.24,0.36826
2100.38,0.37003
2096.53,0.37247
2092.67,0.37574
2088.81,0.38051
2084.95,0.38692
2081.1,0.39487
2077.24,0.40431
2073.38,0.41313
2069.52,0.42211
2065.67,0.43303
2061.81,0.44337
2057.95,0.45308
2054.09,0.46150
2050.24,0.46829
2046.38,0.47234
2042.52,0.47484
2038.66,0.47362
2034.81,0.47162
2030.95,0.46810
2027.09,0.46135
2023.23,0.45350
2019.38,0.44612
2015.52,0.43794
2011.66,0.42935
2007.8,0.42015
2003.95,0.41084
2000.09,0.40222
1996.23,0.39225
1992.37,0.38490
1988.52,0.37593
1984.66,0.36599
1980.8,0.35721
1976.94,0.34607
1973.09,0.33309
1969.23,0.31932
1965.37,0.29984
1961.51,0.28529
1957.66,0.28604
1953.8,0.29552
1949.94,0.30650
1946.08,0.32049
1942.23,0.33486
1938.37,0.34394
1934.51,0.35540
1930.65,0.36520
1926.8,0.37457
1922.94,0.38586
1919.08,0.39267
1915.23,0.39657
1911.37,0.40214
1907.51,0.40752
1903.65,0.40901
1899.8,0.41195
1895.94,0.41524
1892.08,0.41698
1888.22,0.41767
1884.37,0.41363
1880.51,0.41059
1876.65,0.40587
1872.79,0.40315
1868.94,0.40525
1865.08,0.38797
1861.22,0.37300
1857.36,0.36032
1853.51,0.34435
1849.65,0.32918
1845.79,0.31965
1841.93,0.30092
1838.08,0.28520
1834.22,0.27458
1830.36,0.27273
1826.5,0.26636
1822.65,0.26022
1818.79,0.25701
1814.93,0.25592
1811.07,0.25548
1807.22,0.25158
1803.36,0.25155
1799.5,0.25110
1795.64,0.24827
1791.79,0.24651
1787.93,0.23267
1784.07,0.22476
1780.21,0.21687
1776.36,0.20953
1772.5,0.20536
1768.64,0.18259
1764.78,0.16455
1760.93,0.14799
1757.07,0.12473
1753.21,0.10196
1749.35,0.07268
1745.5,0.04380
1741.64,0.02927
1737.78,0.02488
1733.92,0.02697
1730.07,0.02636
1726.21,0.02711
1722.35,0.02967
1718.5,0.03687
1714.64,0.04948
1710.78,0.06134
1706.92,0.08133
1703.07,0.10537
1699.21,0.13389
1695.35,0.14880
1691.49,0.15168
1687.64,0.15819
1683.78,0.16890
1679.92,0.16971
1676.06,0.18342
1672.21,0.19957
1668.35,0.21305
1664.49,0.22221
1660.63,0.23596
1656.78,0.24579
1652.92,0.27015
1649.06,0.26705
1645.2,0.26602
1641.35,0.25746
1637.49,0.27109
1633.63,0.26795
1629.77,0.26142
1625.92,0.26727
1622.06,0.26434
1618.2,0.25773
1614.34,0.24499
1610.49,0.24761
1606.63,0.26182
1602.77,0.27007
1598.91,0.27678
1595.06,0.27862
1591.2,0.26962
1587.34,0.25205
1583.48,0.22026
1579.63,0.19623
1575.77,0.21200
1571.91,0.23375
1568.05,0.25671
1564.2,0.26197
1560.34,0.28323
1556.48,0.28306
1552.62,0.26392
1548.77,0.26011
1544.91,0.27003
1541.05,0.29458
1537.19,0.26728
1533.34,0.25670
1529.48,0.24532
1525.62,0.24250
1521.76,0.24856
1517.91,0.24387
1514.05,0.21716
1510.19,0.18594
1506.34,0.14480
1502.48,0.15122
1498.62,0.21226
1494.76,0.25165
1490.91,0.25655
1487.05,0.23736
1483.19,0.20898
1479.33,0.18505
1475.48,0.16646
1471.62,0.14746
1467.76,0.14807
1463.9,0.15273
1460.05,0.15151
1456.19,0.14820
1452.33,0.13728
1448.47,0.14124
1444.62,0.14247
1440.76,0.14337
1436.9,0.15219
1433.04,0.15712
1429.19,0.15704
1425.33,0.14687
1421.47,0.12448
1417.61,0.08197
1413.76,0.05178
1409.9,0.04909
1406.04,0.06531
1402.18,0.08672
1398.33,0.10128
1394.47,0.10484
1390.61,0.09910
1386.75,0.09366
1382.9,0.09107
1379.04,0.09199
1375.18,0.09053
1371.32,0.08511
1367.47,0.08443
1363.61,0.08760
1359.75,0.08284
1355.89,0.07165
1352.04,0.05778
1348.18,0.04788
1344.32,0.04483
1340.46,0.04930
1336.61,0.06347
1332.75,0.08393
1328.89,0.09377
1325.03,0.08570
1321.18,0.07080
1317.32,0.05691
1313.46,0.04550
1309.61,0.03688
1305.75,0.03111
1301.89,0.02755
1298.03,0.02698
1294.18,0.02856
1290.32,0.03078
1286.46,0.03414
1282.6,0.03882
1278.75,0.04247
1274.89,0.04508
1271.03,0.04698
1267.17,0.04879
1263.32,0.04992
1259.46,0.05140
1255.6,0.05222
1251.74,0.05148
1247.89,0.05000
1244.03,0.04721
1240.17,0.04895
1236.31,0.06134
1232.46,0.08511
1228.6,0.11176
1224.74,0.13200
1220.88,0.15324
1217.03,0.17540
1213.17,0.18885
1209.31,0.20070
1205.45,0.21492
1201.6,0.22901
1197.74,0.24025
1193.88,0.24436
1190.02,0.23793
1186.17,0.22310
1182.31,0.20266
1178.45,0.18134
1174.59,0.16597
1170.74,0.15827
1166.88,0.14834
1163.02,0.12993
1159.16,0.10822
1155.31,0.08756
1151.45,0.06888
1147.59,0.05343
1143.73,0.04148
1139.88,0.03597
1136.02,0.03805
1132.16,0.04159
1128.3,0.04431
1124.45,0.04407
1120.59,0.04526
1116.73,0.04708
1112.88,0.04758
1109.02,0.04963
1105.16,0.05122
1101.3,0.05421
1097.45,0.06233
1093.59,0.07393
1089.73,0.09158
1085.87,0.11386
1082.02,0.14483
1078.16,0.18289
1074.3,0.21870
1070.44,0.24416
1066.59,0.26031
1062.73,0.26710
1058.87,0.26426
1055.01,0.25315
1051.16,0.23521
1047.3,0.21738
1043.44,0.20659
1039.58,0.20018
1035.73,0.19192
1031.87,0.16971
1028.01,0.11910
1024.15,0.08166
1020.3,0.08907
1016.44,0.13063
1012.58,0.21145
1008.72,0.27728
1004.87,0.30764
1001.01,0.31775
997.151,0.31775
993.294,0.30326
989.437,0.27938
985.579,0.26590
981.722,0.23752
977.864,0.19619
974.007,0.16853
970.149,0.17575
966.292,0.21290
962.434,0.25461
958.577,0.28862
954.719,0.31557
950.862,0.33418
947.005,0.34502
943.147,0.34971
939.29,0.35062
935.432,0.34965
931.575,0.34906
927.717,0.34711
923.86,0.34326
920.002,0.33497
916.145,0.32213
912.287,0.30332
908.43,0.27809
904.573,0.25560
900.715,0.24012
896.858,0.23688
893,0.23739
889.143,0.23243
885.285,0.21712
881.428,0.19581
877.57,0.16820
873.713,0.14801
869.856,0.17237
865.998,0.19954
862.141,0.19892
858.283,0.18380
854.426,0.16438
850.568,0.15267
846.711,0.15971
842.853,0.18155
838.996,0.20637
835.138,0.22404
831.281,0.23809
827.424,0.24889
823.566,0.25641
819.709,0.25623
815.851,0.25419
811.994,0.24986
808.136,0.24499
804.279,0.24006
800.421,0.23093
796.564,0.20812
792.706,0.19796
788.849,0.21920
784.992,0.23950
781.134,0.25044
777.277,0.25621
773.419,0.25822
769.562,0.26156
765.704,0.26447
761.847,0.26253
757.989,0.25251
754.132,0.23667
750.274,0.21398
746.417,0.18265
742.56,0.13588
738.702,0.08394
734.845,0.05587
730.987,0.05269
727.13,0.06504
723.272,0.10879
719.415,0.17426
715.557,0.21020
711.7,0.21926
707.843,0.22349
703.985,0.23159
700.128,0.24954
696.27,0.26907
692.413,0.27596
688.555,0.27209
684.698,0.26214
680.84,0.25119
676.983,0.24935
673.125,0.25276
669.268,0.27479
665.411,0.27395
661.553,0.26969
657.696,0.26810
653.838,0.27187
649.981,0.27907
646.123,0.27811
642.266,0.27582
638.408,0.27010
634.551,0.24684
630.693,0.23826
626.836,0.26112
622.979,0.26835
619.121,0.26615
615.264,0.25845
611.406,0.25783
607.549,0.25710
603.691,0.25477
599.834,0.25219
595.976,0.24939
592.119,0.25266
588.261,0.25363
584.404,0.25187
580.547,0.24531
576.689,0.23934
572.832,0.22910
568.974,0.22630
565.117,0.21879
561.259,0.21162
557.402,0.20598
553.544,0.19648
549.687,0.19185
545.83,0.18310
541.972,0.17235
538.115,0.16216
534.257,0.14941
530.4,0.13892
526.542,0.13102
522.685,0.12658
518.827,0.12718
514.97,0.11884
511.112,0.09957
507.255,0.08564
503.398,0.08920
499.54,0.09769
495.683,0.10550
491.825,0.11480
487.968,0.11900
484.11,0.12483
480.253,0.12593
476.395,0.12194
472.538,0.12734
468.68,0.12405
464.823,0.11135
460.966,0.10885
457.108,0.11028
453.251,0.09964
449.393,0.08283
445.536,0.07146
441.678,0.05738
437.821,0.04696
433.963,0.05403
430.106,0.06271
426.248,0.06777
422.391,0.07402
418.534,0.09147
414.676,0.09120
410.819,0.07112
406.961,0.05690
403.104,0.05830
399.246,0.05752