File: 01_Data/Overstuffed_Chair_Polyester_Fabric/FTIR/IS/Overstuffed_Chair_Polyester_Fabric_IS_S_221019_R5.dpt
7497.03,0.83207
7491.24,0.83531
7485.46,0.83989
7479.67,0.83618
7473.88,0.83891
7468.1,0.83415
7462.31,0.83371
7456.53,0.83298
7450.74,0.83797
7444.95,0.83304
7439.17,0.83619
7433.38,0.82406
7427.59,0.82715
7421.81,0.83390
7416.02,0.82851
7410.24,0.81728
7404.45,0.82649
7398.66,0.82069
7392.88,0.82641
7387.09,0.81827
7381.31,0.82361
7375.52,0.82721
7369.73,0.81787
7363.95,0.81874
7358.16,0.81707
7352.37,0.81409
7346.59,0.82035
7340.8,0.82021
7335.02,0.81188
7329.23,0.82010
7323.44,0.82794
7317.66,0.81910
7311.87,0.82644
7306.08,0.81675
7300.3,0.82119
7294.51,0.81421
7288.73,0.81565
7282.94,0.81623
7277.15,0.81860
7271.37,0.82019
7265.58,0.81039
7259.79,0.81234
7254.01,0.81954
7248.22,0.81774
7242.44,0.81746
7236.65,0.82305
7230.86,0.81646
7225.08,0.81662
7219.29,0.80616
7213.5,0.81781
7207.72,0.81299
7201.93,0.81463
7196.15,0.81156
7190.36,0.80988
7184.57,0.81612
7178.79,0.81929
7173,0.81376
7167.21,0.82070
7161.43,0.80886
7155.64,0.81017
7149.86,0.81267
7144.07,0.81368
7138.28,0.81360
7132.5,0.80755
7126.71,0.80925
7120.92,0.81694
7115.14,0.81952
7109.35,0.80588
7103.57,0.81257
7097.78,0.81051
7091.99,0.80395
7086.21,0.80306
7080.42,0.80646
7074.63,0.80578
7068.85,0.81592
7063.06,0.80650
7057.28,0.80288
7051.49,0.81054
7045.7,0.80537
7039.92,0.80634
7034.13,0.80029
7028.34,0.81406
7022.56,0.79981
7016.77,0.81022
7010.99,0.80362
7005.2,0.80258
6999.41,0.80073
6993.63,0.80519
6987.84,0.79997
6982.06,0.80334
6976.27,0.80281
6970.48,0.80899
6964.7,0.81345
6958.91,0.80948
6953.12,0.81009
6947.34,0.80242
6941.55,0.80446
6935.77,0.81161
6929.98,0.80574
6924.19,0.80294
6918.41,0.80368
6912.62,0.80825
6906.83,0.80697
6901.05,0.81180
6895.26,0.80886
6889.48,0.80575
6883.69,0.80490
6877.9,0.80646
6872.12,0.80721
6866.33,0.80870
6860.54,0.81675
6854.76,0.80856
6848.97,0.80659
6843.19,0.81386
6837.4,0.80868
6831.61,0.81281
6825.83,0.81119
6820.04,0.81116
6814.25,0.81118
6808.47,0.80428
6802.68,0.80948
6796.9,0.80867
6791.11,0.81345
6785.32,0.80900
6779.54,0.80782
6773.75,0.80995
6767.96,0.81028
6762.18,0.80900
6756.39,0.81223
6750.61,0.81397
6744.82,0.80905
6739.03,0.81652
6733.25,0.81445
6727.46,0.81004
6721.67,0.81200
6715.89,0.81166
6710.1,0.81461
6704.32,0.81114
6698.53,0.81549
6692.74,0.81535
6686.96,0.81157
6681.17,0.81615
6675.38,0.81771
6669.6,0.81331
6663.81,0.81267
6658.03,0.81610
6652.24,0.81496
6646.45,0.81712
6640.67,0.80464
6634.88,0.81498
6629.09,0.81516
6623.31,0.81831
6617.52,0.82046
6611.74,0.81442
6605.95,0.81814
6600.16,0.81972
6594.38,0.81138
6588.59,0.81403
6582.8,0.81633
6577.02,0.81966
6571.23,0.81382
6565.45,0.81729
6559.66,0.81714
6553.87,0.81498
6548.09,0.81617
6542.3,0.81504
6536.52,0.81732
6530.73,0.81940
6524.94,0.81991
6519.16,0.82058
6513.37,0.81710
6507.58,0.81460
6501.8,0.81772
6496.01,0.82043
6490.23,0.81911
6484.44,0.81744
6478.65,0.81992
6472.87,0.81571
6467.08,0.81708
6461.29,0.81521
6455.51,0.81630
6449.72,0.81883
6443.94,0.81745
6438.15,0.81998
6432.36,0.81787
6426.58,0.82127
6420.79,0.82225
6415,0.81734
6409.22,0.81930
6403.43,0.81970
6397.65,0.82033
6391.86,0.82104
6386.07,0.81948
6380.29,0.81813
6374.5,0.81847
6368.71,0.82039
6362.93,0.81956
6357.14,0.81963
6351.36,0.82270
6345.57,0.81922
6339.78,0.82022
6334,0.81755
6328.21,0.81555
6322.42,0.81728
6316.64,0.81454
6310.85,0.81781
6305.07,0.81686
6299.28,0.81707
6293.49,0.81970
6287.71,0.81761
6281.92,0.81576
6276.13,0.81494
6270.35,0.81776
6264.56,0.81811
6258.78,0.81262
6252.99,0.81644
6247.2,0.81757
6241.42,0.81538
6235.63,0.81659
6229.84,0.81658
6224.06,0.81618
6218.27,0.81301
6212.49,0.81332
6206.7,0.80986
6200.91,0.80673
6195.13,0.80119
6189.34,0.80090
6183.55,0.80611
6177.77,0.80447
6171.98,0.80825
6166.2,0.80689
6160.41,0.80282
6154.62,0.80281
6148.84,0.79731
6143.05,0.79918
6137.26,0.79521
6131.48,0.79658
6125.69,0.79391
6119.91,0.79237
6114.12,0.78997
6108.33,0.78238
6102.55,0.77551
6096.76,0.76497
6090.98,0.75991
6085.19,0.75050
6079.4,0.74493
6073.62,0.73998
6067.83,0.72907
6062.04,0.71868
6056.26,0.71000
6050.47,0.70384
6044.69,0.70066
6038.9,0.69246
6033.11,0.68416
6027.33,0.67648
6021.54,0.67696
6015.75,0.67853
6009.97,0.67994
6004.18,0.69038
5998.4,0.69941
5992.61,0.70622
5986.82,0.70958
5981.04,0.71187
5975.25,0.71386
5969.46,0.71770
5963.68,0.72188
5957.89,0.72553
5952.11,0.72559
5946.32,0.72890
5940.53,0.73017
5934.75,0.73647
5928.96,0.74100
5923.17,0.74555
5917.39,0.75105
5911.6,0.75876
5905.82,0.75989
5900.03,0.75976
5894.24,0.75754
5888.46,0.75721
5882.67,0.75376
5876.88,0.75271
5871.1,0.74882
5865.31,0.74891
5859.53,0.74835
5853.74,0.74789
5847.95,0.74946
5842.17,0.75181
5836.38,0.75157
5830.59,0.74927
5824.81,0.74894
5819.02,0.74979
5813.24,0.74868
5807.45,0.74800
5801.66,0.74787
5795.88,0.75036
5790.09,0.74942
5784.3,0.75091
5778.52,0.75323
5772.73,0.75440
5766.95,0.75513
5761.16,0.75704
5755.37,0.76109
5749.59,0.76388
5743.8,0.76457
5738.01,0.76783
5732.23,0.77027
5726.44,0.77299
5720.66,0.77545
5714.87,0.77836
5709.08,0.77754
5703.3,0.77551
5697.51,0.77492
5691.72,0.77808
5685.94,0.77711
5680.15,0.77918
5674.37,0.77839
5668.58,0.78055
5662.79,0.77920
5657.01,0.78035
5651.22,0.77913
5645.44,0.78253
5639.65,0.78180
5633.86,0.78416
5628.08,0.78751
5622.29,0.78899
5616.5,0.78866
5610.72,0.78965
5604.93,0.78916
5599.15,0.78790
5593.36,0.78896
5587.57,0.78623
5581.79,0.78604
5576,0.78407
5570.21,0.78123
5564.43,0.78319
5558.64,0.78207
5552.86,0.78098
5547.07,0.78294
5541.28,0.78317
5535.5,0.78276
5529.71,0.78412
5523.92,0.78407
5518.14,0.78551
5512.35,0.78611
5506.57,0.78593
5500.78,0.78497
5494.99,0.78392
5489.21,0.78400
5483.42,0.78191
5477.63,0.78114
5471.85,0.78184
5466.06,0.78406
5460.28,0.78432
5454.49,0.78483
5448.7,0.78868
5442.92,0.79080
5437.13,0.79378
5431.34,0.79400
5425.56,0.79583
5419.77,0.79532
5413.99,0.79566
5408.2,0.79721
5402.41,0.79623
5396.63,0.79398
5390.84,0.79468
5385.05,0.79747
5379.27,0.79743
5373.48,0.79726
5367.7,0.79664
5361.91,0.79604
5356.12,0.79397
5350.34,0.79292
5344.55,0.79490
5338.76,0.79755
5332.98,0.79632
5327.19,0.79902
5321.41,0.79822
5315.62,0.79645
5309.83,0.79781
5304.05,0.79544
5298.26,0.79521
5292.47,0.79419
5286.69,0.79290
5280.9,0.79198
5275.12,0.79003
5269.33,0.78709
5263.54,0.78453
5257.76,0.78445
5251.97,0.78210
5246.18,0.78149
5240.4,0.78264
5234.61,0.78166
5228.83,0.78280
5223.04,0.77897
5217.25,0.78273
5211.47,0.78177
5205.68,0.78178
5199.9,0.78261
5194.11,0.78181
5188.32,0.78044
5182.54,0.78228
5176.75,0.78024
5170.96,0.78039
5165.18,0.77915
5159.39,0.77862
5153.61,0.77534
5147.82,0.77413
5142.03,0.77086
5136.25,0.76843
5130.46,0.76712
5124.67,0.76494
5118.89,0.76026
5113.1,0.76280
5107.32,0.76708
5101.53,0.77092
5095.74,0.77573
5089.96,0.77818
5084.17,0.78133
5078.38,0.78189
5072.6,0.78422
5066.81,0.78414
5061.03,0.78427
5055.24,0.78602
5049.45,0.78565
5043.67,0.78593
5037.88,0.78708
5032.09,0.78600
5026.31,0.78577
5020.52,0.78649
5014.74,0.78708
5008.95,0.78591
5003.16,0.78675
4997.38,0.78631
4991.59,0.78677
4985.8,0.78680
4980.02,0.78685
4974.23,0.78713
4968.45,0.78605
4962.66,0.78389
4956.87,0.78404
4951.09,0.78280
4945.3,0.77938
4939.51,0.77907
4933.73,0.77814
4927.94,0.77735
4922.16,0.77600
4916.37,0.77431
4910.58,0.77342
4904.8,0.77222
4899.01,0.77175
4893.22,0.77057
4887.44,0.77016
4881.65,0.77006
4875.87,0.76828
4870.08,0.76701
4864.29,0.76774
4858.51,0.76589
4852.72,0.76611
4846.93,0.76372
4841.15,0.76112
4835.36,0.75827
4829.58,0.75329
4823.79,0.74937
4818,0.74629
4812.22,0.74430
4806.43,0.74088
4800.65,0.73857
4794.86,0.73782
4789.07,0.73835
4783.29,0.74104
4777.5,0.74280
4771.71,0.74478
4765.93,0.74507
4760.14,0.74297
4754.36,0.73840
4748.57,0.73221
4742.78,0.72492
4737,0.71857
4731.21,0.71082
4725.42,0.69880
4719.64,0.68997
4713.85,0.68758
4708.07,0.68428
4702.28,0.67331
4696.49,0.65988
4690.71,0.65067
4684.92,0.65491
4679.13,0.66939
4673.35,0.68299
4667.56,0.69245
4661.78,0.69605
4655.99,0.69709
4650.2,0.69227
4644.42,0.68036
4638.63,0.66968
4632.84,0.66892
4627.06,0.68112
4621.27,0.69761
4615.49,0.71104
4609.7,0.71692
4603.91,0.71646
4598.13,0.70860
4592.34,0.70210
4586.55,0.69688
4580.77,0.69018
4574.98,0.69645
4569.2,0.71038
4563.41,0.72021
4557.62,0.72581
4551.84,0.72599
4546.05,0.72531
4540.26,0.72623
4534.48,0.72484
4528.69,0.72385
4522.91,0.72133
4517.12,0.71662
4511.33,0.71021
4505.55,0.70208
4499.76,0.68890
4493.97,0.67348
4488.19,0.66276
4482.4,0.65737
4476.62,0.65004
4470.83,0.63715
4465.04,0.61844
4459.26,0.59974
4453.47,0.59755
4447.68,0.59887
4441.9,0.59548
4436.11,0.58875
4430.33,0.58763
4424.54,0.59531
4418.75,0.60452
4412.97,0.61148
4407.18,0.61104
4401.39,0.61362
4395.61,0.61916
4389.82,0.62446
4384.04,0.62734
4378.25,0.62935
4372.46,0.62974
4366.68,0.62813
4360.89,0.62541
4355.11,0.62479
4349.32,0.62423
4343.53,0.62037
4337.75,0.61660
4331.96,0.61540
4326.17,0.61634
4320.39,0.61680
4314.6,0.61409
4308.82,0.60857
4303.03,0.60103
4297.24,0.59534
4291.46,0.59276
4285.67,0.59338
4279.88,0.59738
4274.1,0.60007
4268.31,0.60290
4262.53,0.60580
4256.74,0.60567
4250.95,0.60458
4245.17,0.60350
4239.38,0.60410
4233.59,0.60509
4227.81,0.60488
4222.02,0.60720
4216.24,0.61257
4210.45,0.61712
4204.66,0.61791
4198.88,0.61906
4193.09,0.61882
4187.3,0.61509
4181.52,0.60763
4175.73,0.60442
4169.95,0.61144
4164.16,0.61970
4158.37,0.62542
4152.59,0.62761
4146.8,0.62706
4141.01,0.62131
4135.23,0.61468
4129.44,0.60946
4123.66,0.60876
4117.87,0.60579
4112.08,0.60048
4106.3,0.59032
4100.51,0.57547
4094.72,0.54828
4088.94,0.54110
4083.15,0.55561
4077.37,0.57602
4071.58,0.59354
4065.79,0.60327
4060.01,0.60958
4054.22,0.61389
4048.43,0.61745
4042.65,0.62239
4036.86,0.62760
4031.08,0.63097
4025.29,0.63188
4019.5,0.63140
4013.72,0.63089
4007.93,0.63118
4002.14,0.63253
3996.36,0.63401
3990.57,0.63705
3984.79,0.63945
3979,0.63940
3973.21,0.63981
3967.43,0.64030
3961.64,0.64420
3955.85,0.64757
3950.07,0.65033
3944.28,0.65257
3938.5,0.65369
3932.71,0.65311
3926.92,0.65437
3921.14,0.65463
3915.35,0.65684
3909.57,0.65839
3903.78,0.66139
3897.99,0.66641
3892.21,0.67215
3886.42,0.67481
3880.63,0.67658
3874.85,0.67888
3869.06,0.68062
3863.28,0.68253
3857.49,0.68382
3851.7,0.68518
3845.92,0.68475
3840.13,0.68548
3834.34,0.68397
3828.56,0.68446
3822.77,0.68354
3816.99,0.67861
3811.2,0.67246
3805.41,0.66955
3799.63,0.67308
3793.84,0.67733
3788.05,0.67950
3782.27,0.67942
3776.48,0.67746
3770.7,0.67333
3764.91,0.66889
3759.12,0.66364
3753.34,0.66849
3747.55,0.68043
3741.76,0.68433
3735.98,0.67888
3730.19,0.67495
3724.41,0.68237
3718.62,0.68820
3712.83,0.68661
3707.05,0.67958
3701.26,0.66611
3695.47,0.65105
3689.69,0.62646
3683.9,0.61925
3678.12,0.63817
3672.33,0.65161
3666.54,0.65159
3660.76,0.64510
3654.97,0.63528
3649.18,0.62604
3643.4,0.61595
3637.61,0.60700
3631.83,0.59974
3626.04,0.59183
3620.25,0.58405
3614.47,0.57719
3608.68,0.56988
3602.89,0.56138
3597.11,0.55109
3591.32,0.53794
3585.54,0.52437
3579.75,0.51041
3573.96,0.49605
3568.18,0.48276
3562.39,0.47238
3556.6,0.46346
3550.82,0.45673
3545.03,0.45287
3539.25,0.45104
3533.46,0.45139
3527.67,0.45261
3521.89,0.45445
3516.1,0.45551
3510.31,0.45664
3504.53,0.45587
3498.74,0.45570
3492.96,0.45389
3487.17,0.45083
3481.38,0.44639
3475.6,0.44035
3469.81,0.43171
3464.03,0.42064
3458.24,0.40789
3452.45,0.39342
3446.67,0.37823
3440.88,0.36145
3435.09,0.34191
3429.31,0.33531
3423.52,0.35678
3417.74,0.38145
3411.95,0.40018
3406.16,0.41428
3400.38,0.42326
3394.59,0.42857
3388.8,0.43143
3383.02,0.43257
3377.23,0.43222
3371.45,0.43078
3365.66,0.42892
3359.87,0.42461
3354.09,0.41963
3348.3,0.41240
3342.51,0.40678
3336.73,0.40329
3330.94,0.40533
3325.16,0.41162
3319.37,0.41560
3313.58,0.41579
3307.8,0.41425
3302.01,0.41234
3296.22,0.41411
3290.44,0.41764
3284.65,0.42109
3278.87,0.42394
3273.08,0.42610
3267.29,0.42791
3261.51,0.42984
3255.72,0.43166
3249.93,0.43378
3244.15,0.43258
3238.36,0.43323
3232.58,0.43474
3226.79,0.43690
3221,0.44064
3215.22,0.44370
3209.43,0.44540
3203.64,0.44609
3197.86,0.44633
3192.07,0.44617
3186.29,0.44688
3180.5,0.44830
3174.71,0.44906
3168.93,0.44840
3163.14,0.44843
3157.35,0.44814
3151.57,0.44686
3145.78,0.44348
3140,0.43951
3134.21,0.43215
3128.42,0.42636
3122.64,0.42770
3116.85,0.42585
3111.06,0.41472
3105.28,0.40172
3099.49,0.40206
3093.71,0.40977
3087.92,0.40140
3082.13,0.38890
3076.35,0.38643
3070.56,0.38317
3064.77,0.38267
3058.99,0.37503
3053.2,0.36978
3047.42,0.40023
3041.63,0.42195
3035.84,0.42424
3030.06,0.41429
3024.27,0.39390
3018.49,0.36113
3012.7,0.33883
3006.91,0.33613
3001.13,0.33076
2995.34,0.32304
2989.55,0.30846
2983.77,0.28502
2977.98,0.25393
2972.2,0.22511
2966.41,0.22687
2960.62,0.24098
2954.84,0.25802
2949.05,0.28200
2943.26,0.30712
2937.48,0.32325
2931.69,0.32553
2925.91,0.31694
2920.12,0.30409
2914.33,0.28388
2908.55,0.26451
2902.76,0.28774
2896.97,0.31530
2891.19,0.32467
2885.4,0.33239
2879.62,0.34286
2873.83,0.34955
2868.04,0.35495
2862.26,0.35799
2856.47,0.35959
2850.68,0.37056
2844.9,0.40319
2839.11,0.43126
2833.33,0.44877
2827.54,0.46231
2821.75,0.46974
2815.97,0.46952
2810.18,0.46767
2804.39,0.46856
2798.61,0.47706
2792.82,0.48777
2787.04,0.49668
2781.25,0.50340
2775.46,0.50851
2769.68,0.51210
2763.89,0.51446
2758.1,0.51542
2752.32,0.51507
2746.53,0.51412
2740.75,0.51756
2734.96,0.52577
2729.17,0.53345
2723.39,0.53932
2717.6,0.54338
2711.81,0.54819
2706.03,0.55300
2700.24,0.55758
2694.46,0.56049
2688.67,0.56244
2682.88,0.56279
2677.1,0.56417
2671.31,0.56612
2665.52,0.56716
2659.74,0.56561
2653.95,0.56262
2648.17,0.55798
2642.38,0.54924
2636.59,0.53774
2630.81,0.53211
2625.02,0.53397
2619.24,0.53645
2613.45,0.53602
2607.66,0.53503
2601.88,0.53224
2596.09,0.52675
2590.3,0.52020
2584.52,0.51656
2578.73,0.51670
2572.95,0.51799
2567.16,0.51707
2561.37,0.51531
2555.59,0.51462
2549.8,0.51325
2544.01,0.51192
2538.23,0.51091
2532.44,0.51156
2526.66,0.51493
2520.87,0.52073
2515.08,0.52556
2509.3,0.52777
2503.51,0.52836
2497.72,0.53039
2491.94,0.53563
2486.15,0.54299
2480.37,0.55022
2474.58,0.55640
2468.79,0.55973
2463.01,0.56147
2457.22,0.56120
2451.43,0.55967
2445.65,0.55624
2439.86,0.54865
2434.08,0.53958
2428.29,0.53036
2422.5,0.51985
2416.72,0.51021
2410.93,0.50228
2405.14,0.49436
2399.36,0.48831
2393.57,0.48433
2387.79,0.48318
2382,0.48567
2376.21,0.48923
2370.43,0.49498
2364.64,0.50483
2358.85,0.51822
2353.07,0.52897
2347.28,0.53722
2341.5,0.54126
2335.71,0.54125
2329.92,0.54497
2324.14,0.54883
2318.35,0.55304
2312.56,0.55265
2306.78,0.54587
2300.99,0.53245
2295.21,0.51590
2289.42,0.50305
2283.63,0.49866
2277.85,0.50009
2272.06,0.49807
2266.27,0.49416
2260.49,0.49156
2254.7,0.49289
2248.92,0.49838
2243.13,0.50609
2237.34,0.51289
2231.56,0.51785
2225.77,0.52027
2219.98,0.52230
2214.2,0.52416
2208.41,0.52722
2202.63,0.53461
2196.84,0.53846
2191.05,0.53799
2185.27,0.53386
2179.48,0.52652
2173.7,0.51678
2167.91,0.50502
2162.12,0.49041
2156.34,0.47528
2150.55,0.46246
2144.76,0.45261
2138.98,0.44498
2133.19,0.43722
2127.41,0.42660
2121.62,0.41525
2115.83,0.40818
2110.05,0.40629
2104.26,0.40754
2098.47,0.40994
2092.69,0.41382
2086.9,0.42165
2081.12,0.43305
2075.33,0.44563
2069.54,0.45969
2063.76,0.47453
2057.97,0.49003
2052.18,0.50209
2046.4,0.50882
2040.61,0.51157
2034.83,0.51009
2029.04,0.50257
2023.25,0.49116
2017.47,0.47844
2011.68,0.46700
2005.89,0.45501
2000.11,0.44161
1994.32,0.42814
1988.54,0.41461
1982.75,0.40233
1976.96,0.38773
1971.18,0.36705
1965.39,0.33723
1959.6,0.32166
1953.82,0.33451
1948.03,0.35174
1942.25,0.37102
1936.46,0.39047
1930.67,0.40677
1924.89,0.41934
1919.1,0.43025
1913.31,0.43915
1907.53,0.44629
1901.74,0.45053
1895.96,0.45380
1890.17,0.45430
1884.38,0.45359
1878.6,0.45029
1872.81,0.44219
1867.02,0.42954
1861.24,0.41496
1855.45,0.39476
1849.67,0.36883
1843.88,0.34457
1838.09,0.32401
1832.31,0.30848
1826.52,0.29857
1820.73,0.29553
1814.95,0.29366
1809.16,0.28921
1803.38,0.28631
1797.59,0.28183
1791.8,0.27427
1786.02,0.26337
1780.23,0.24943
1774.44,0.23221
1768.66,0.20935
1762.87,0.18167
1757.09,0.14485
1751.3,0.09921
1745.51,0.05322
1739.73,0.03383
1733.94,0.03344
1728.16,0.03747
1722.37,0.04229
1716.58,0.05167
1710.8,0.08124
1705.01,0.11870
1699.22,0.14992
1693.44,0.16972
1687.65,0.17572
1681.87,0.17875
1676.08,0.19866
1670.29,0.21460
1664.51,0.23574
1658.72,0.25185
1652.93,0.26154
1647.15,0.26828
1641.36,0.27622
1635.58,0.28235
1629.79,0.28600
1624,0.28543
1618.22,0.27203
1612.43,0.26091
1606.64,0.27798
1600.86,0.29173
1595.07,0.29530
1589.29,0.27950
1583.5,0.23896
1577.71,0.21108
1571.93,0.25330
1566.14,0.28320
1560.35,0.29103
1554.57,0.28972
1548.78,0.28551
1543,0.28106
1537.21,0.28228
1531.42,0.27268
1525.64,0.25918
1519.85,0.25631
1514.06,0.23319
1508.28,0.15176
1502.49,0.16388
1496.71,0.25549
1490.92,0.27137
1485.13,0.24360
1479.35,0.20291
1473.56,0.15858
1467.77,0.16056
1461.99,0.16093
1456.2,0.15009
1450.42,0.15104
1444.63,0.15606
1438.84,0.15981
1433.06,0.16928
1427.27,0.16764
1421.48,0.13477
1415.7,0.07549
1409.91,0.05859
1404.13,0.08926
1398.34,0.11526
1392.55,0.11763
1386.77,0.10706
1380.98,0.10667
1375.19,0.10201
1369.41,0.09621
1363.62,0.10074
1357.84,0.09329
1352.05,0.07159
1346.26,0.05697
1340.48,0.05789
1334.69,0.08675
1328.9,0.10965
1323.12,0.09171
1317.33,0.06766
1311.55,0.05070
1305.76,0.04036
1299.97,0.03606
1294.19,0.03695
1288.4,0.04185
1282.62,0.04893
1276.83,0.05572
1271.04,0.06036
1265.26,0.06320
1259.47,0.06442
1253.68,0.06564
1247.9,0.06215
1242.11,0.05849
1236.33,0.07104
1230.54,0.11145
1224.75,0.14633
1218.97,0.18150
1213.18,0.20568
1207.39,0.22357
1201.61,0.24673
1195.82,0.26240
1190.04,0.25891
1184.25,0.23381
1178.46,0.19929
1172.68,0.17882
1166.89,0.16653
1161.1,0.13687
1155.32,0.10365
1149.53,0.07340
1143.75,0.05227
1137.96,0.04736
1132.17,0.05419
1126.39,0.05810
1120.6,0.05851
1114.81,0.05960
1109.03,0.06032
1103.24,0.06319
1097.46,0.07218
1091.67,0.09308
1085.88,0.12513
1080.1,0.17462
1074.31,0.22729
1068.52,0.25789
1062.74,0.26970
1056.95,0.26175
1051.17,0.23772
1045.38,0.21622
1039.59,0.20821
1033.81,0.19216
1028.02,0.12683
1022.23,0.08559
1016.45,0.14028
1010.66,0.25871
1004.88,0.31120
999.09,0.32044
993.303,0.30631
987.517,0.27867
981.731,0.24812
975.945,0.19458
970.158,0.18993
964.372,0.24857
958.586,0.30249
952.8,0.33608
947.014,0.35269
941.227,0.35979
935.441,0.36117
929.655,0.35981
923.869,0.35581
918.082,0.34341
912.296,0.31936
906.51,0.28426
900.724,0.26034
894.937,0.25746
889.151,0.25451
883.365,0.22984
877.579,0.18857
871.793,0.17567
866.006,0.22678
860.22,0.21955
854.434,0.19021
848.648,0.17533
842.861,0.20668
837.075,0.24232
831.289,0.26573
825.503,0.27851
819.716,0.28093
813.93,0.27469
808.144,0.26754
802.358,0.25840
796.571,0.23132
790.785,0.22879
784.999,0.26461
779.213,0.27970
773.427,0.28615
767.64,0.29015
761.854,0.28923
756.068,0.27400
750.282,0.24500
744.495,0.18786
738.709,0.10027
732.923,0.05930
727.137,0.07545
721.35,0.16539
715.564,0.23758
709.778,0.24783
703.992,0.25624
698.206,0.28477
692.419,0.30325
686.633,0.29760
680.847,0.27970
675.061,0.28525
669.274,0.29226
663.488,0.29478
657.702,0.28949
651.916,0.29602
646.129,0.29927
640.343,0.29795
634.557,0.27057
628.771,0.27244
622.984,0.29263
617.198,0.29024
611.412,0.28850
605.626,0.28682
599.84,0.28333