File: 01_Data/Overstuffed_Chair_Polyester_Fabric/FTIR/IS/Overstuffed_Chair_Polyester_Fabric_IS_S_221019_R8.dpt
7497.03,0.83556
7491.24,0.83582
7485.46,0.83990
7479.67,0.83242
7473.88,0.83341
7468.1,0.83933
7462.31,0.83619
7456.53,0.83580
7450.74,0.82759
7444.95,0.84474
7439.17,0.83512
7433.38,0.83840
7427.59,0.82440
7421.81,0.82754
7416.02,0.82353
7410.24,0.83202
7404.45,0.83038
7398.66,0.81904
7392.88,0.82210
7387.09,0.82305
7381.31,0.82800
7375.52,0.82919
7369.73,0.83471
7363.95,0.82010
7358.16,0.81699
7352.37,0.82558
7346.59,0.81534
7340.8,0.82115
7335.02,0.81476
7329.23,0.81920
7323.44,0.81081
7317.66,0.81782
7311.87,0.82012
7306.08,0.81433
7300.3,0.82117
7294.51,0.81707
7288.73,0.82369
7282.94,0.81608
7277.15,0.82194
7271.37,0.81956
7265.58,0.82345
7259.79,0.82719
7254.01,0.81983
7248.22,0.81680
7242.44,0.81408
7236.65,0.81731
7230.86,0.81595
7225.08,0.80811
7219.29,0.82422
7213.5,0.82224
7207.72,0.81671
7201.93,0.81865
7196.15,0.81421
7190.36,0.80648
7184.57,0.82023
7178.79,0.81107
7173,0.81973
7167.21,0.81161
7161.43,0.81466
7155.64,0.80977
7149.86,0.81664
7144.07,0.81030
7138.28,0.80839
7132.5,0.81607
7126.71,0.81271
7120.92,0.80765
7115.14,0.81093
7109.35,0.80748
7103.57,0.80767
7097.78,0.80528
7091.99,0.80787
7086.21,0.80887
7080.42,0.81209
7074.63,0.81152
7068.85,0.80796
7063.06,0.80837
7057.28,0.81041
7051.49,0.80524
7045.7,0.80430
7039.92,0.80745
7034.13,0.81169
7028.34,0.80419
7022.56,0.80133
7016.77,0.80253
7010.99,0.80217
7005.2,0.81199
6999.41,0.80776
6993.63,0.80795
6987.84,0.81070
6982.06,0.80983
6976.27,0.80341
6970.48,0.79943
6964.7,0.80342
6958.91,0.80373
6953.12,0.80792
6947.34,0.81396
6941.55,0.80711
6935.77,0.81284
6929.98,0.81110
6924.19,0.80366
6918.41,0.80778
6912.62,0.80325
6906.83,0.80511
6901.05,0.80745
6895.26,0.81063
6889.48,0.80471
6883.69,0.81324
6877.9,0.81066
6872.12,0.80926
6866.33,0.80697
6860.54,0.81436
6854.76,0.81258
6848.97,0.80447
6843.19,0.81031
6837.4,0.80425
6831.61,0.81274
6825.83,0.80931
6820.04,0.81205
6814.25,0.81060
6808.47,0.80962
6802.68,0.81072
6796.9,0.81199
6791.11,0.81062
6785.32,0.81262
6779.54,0.81335
6773.75,0.81498
6767.96,0.81686
6762.18,0.80792
6756.39,0.81064
6750.61,0.81010
6744.82,0.81301
6739.03,0.81572
6733.25,0.81167
6727.46,0.81190
6721.67,0.81369
6715.89,0.81229
6710.1,0.81572
6704.32,0.81651
6698.53,0.81715
6692.74,0.81804
6686.96,0.81598
6681.17,0.81717
6675.38,0.81345
6669.6,0.81016
6663.81,0.82109
6658.03,0.81697
6652.24,0.81757
6646.45,0.81604
6640.67,0.81680
6634.88,0.81472
6629.09,0.81967
6623.31,0.81556
6617.52,0.81813
6611.74,0.81743
6605.95,0.81402
6600.16,0.81374
6594.38,0.81595
6588.59,0.81790
6582.8,0.81909
6577.02,0.81861
6571.23,0.81620
6565.45,0.81723
6559.66,0.81872
6553.87,0.81603
6548.09,0.81543
6542.3,0.81664
6536.52,0.81748
6530.73,0.82016
6524.94,0.81789
6519.16,0.81875
6513.37,0.81750
6507.58,0.82167
6501.8,0.81944
6496.01,0.82133
6490.23,0.82168
6484.44,0.81626
6478.65,0.81980
6472.87,0.81347
6467.08,0.81663
6461.29,0.82198
6455.51,0.82231
6449.72,0.81745
6443.94,0.81955
6438.15,0.81723
6432.36,0.81729
6426.58,0.81667
6420.79,0.82235
6415,0.81556
6409.22,0.81736
6403.43,0.81668
6397.65,0.81591
6391.86,0.81456
6386.07,0.82052
6380.29,0.82016
6374.5,0.81643
6368.71,0.81457
6362.93,0.81863
6357.14,0.81725
6351.36,0.82112
6345.57,0.82017
6339.78,0.81764
6334,0.81956
6328.21,0.82239
6322.42,0.81636
6316.64,0.81694
6310.85,0.81931
6305.07,0.82036
6299.28,0.81751
6293.49,0.81517
6287.71,0.81693
6281.92,0.82153
6276.13,0.81729
6270.35,0.81655
6264.56,0.81826
6258.78,0.81949
6252.99,0.81667
6247.2,0.81430
6241.42,0.81699
6235.63,0.81437
6229.84,0.81901
6224.06,0.81517
6218.27,0.81542
6212.49,0.81078
6206.7,0.80925
6200.91,0.80774
6195.13,0.80662
6189.34,0.80616
6183.55,0.80685
6177.77,0.80812
6171.98,0.80506
6166.2,0.80650
6160.41,0.80689
6154.62,0.79952
6148.84,0.79796
6143.05,0.79583
6137.26,0.79945
6131.48,0.79817
6125.69,0.79757
6119.91,0.79357
6114.12,0.78832
6108.33,0.78286
6102.55,0.77314
6096.76,0.76535
6090.98,0.75647
6085.19,0.75261
6079.4,0.74396
6073.62,0.73796
6067.83,0.73076
6062.04,0.72141
6056.26,0.71188
6050.47,0.70484
6044.69,0.69769
6038.9,0.69232
6033.11,0.68446
6027.33,0.67804
6021.54,0.67671
6015.75,0.67502
6009.97,0.68123
6004.18,0.68859
5998.4,0.70023
5992.61,0.70789
5986.82,0.71066
5981.04,0.71174
5975.25,0.71271
5969.46,0.72033
5963.68,0.72474
5957.89,0.72698
5952.11,0.72518
5946.32,0.73268
5940.53,0.73362
5934.75,0.73689
5928.96,0.73816
5923.17,0.74460
5917.39,0.75396
5911.6,0.75818
5905.82,0.75915
5900.03,0.76473
5894.24,0.75914
5888.46,0.75689
5882.67,0.75290
5876.88,0.75236
5871.1,0.74853
5865.31,0.74930
5859.53,0.74527
5853.74,0.74604
5847.95,0.75102
5842.17,0.75376
5836.38,0.75368
5830.59,0.75185
5824.81,0.75097
5819.02,0.75263
5813.24,0.75003
5807.45,0.74828
5801.66,0.75154
5795.88,0.75317
5790.09,0.75234
5784.3,0.75119
5778.52,0.75667
5772.73,0.75850
5766.95,0.75872
5761.16,0.75735
5755.37,0.76136
5749.59,0.76214
5743.8,0.76631
5738.01,0.77026
5732.23,0.77156
5726.44,0.77191
5720.66,0.77593
5714.87,0.77702
5709.08,0.77279
5703.3,0.77116
5697.51,0.77595
5691.72,0.77941
5685.94,0.77804
5680.15,0.78093
5674.37,0.77990
5668.58,0.77835
5662.79,0.77852
5657.01,0.78216
5651.22,0.78097
5645.44,0.77895
5639.65,0.78360
5633.86,0.78334
5628.08,0.78649
5622.29,0.78784
5616.5,0.79006
5610.72,0.78790
5604.93,0.78842
5599.15,0.78836
5593.36,0.78936
5587.57,0.78695
5581.79,0.78771
5576,0.78286
5570.21,0.78322
5564.43,0.78528
5558.64,0.78437
5552.86,0.78248
5547.07,0.78148
5541.28,0.78339
5535.5,0.78273
5529.71,0.78352
5523.92,0.78425
5518.14,0.78458
5512.35,0.78552
5506.57,0.78906
5500.78,0.78738
5494.99,0.78735
5489.21,0.78367
5483.42,0.78325
5477.63,0.78514
5471.85,0.78296
5466.06,0.78482
5460.28,0.78476
5454.49,0.78720
5448.7,0.78819
5442.92,0.79278
5437.13,0.79233
5431.34,0.79499
5425.56,0.79596
5419.77,0.79655
5413.99,0.79656
5408.2,0.79655
5402.41,0.79626
5396.63,0.79721
5390.84,0.79583
5385.05,0.79683
5379.27,0.79706
5373.48,0.79677
5367.7,0.79747
5361.91,0.79589
5356.12,0.79603
5350.34,0.79567
5344.55,0.79756
5338.76,0.79547
5332.98,0.79744
5327.19,0.79848
5321.41,0.79810
5315.62,0.79700
5309.83,0.79741
5304.05,0.79602
5298.26,0.79572
5292.47,0.79380
5286.69,0.79357
5280.9,0.79109
5275.12,0.79144
5269.33,0.78753
5263.54,0.78789
5257.76,0.78611
5251.97,0.78471
5246.18,0.78520
5240.4,0.78330
5234.61,0.78490
5228.83,0.78430
5223.04,0.78501
5217.25,0.78417
5211.47,0.78545
5205.68,0.78307
5199.9,0.78475
5194.11,0.78472
5188.32,0.78470
5182.54,0.78375
5176.75,0.78064
5170.96,0.78061
5165.18,0.78029
5159.39,0.77828
5153.61,0.77785
5147.82,0.77453
5142.03,0.77285
5136.25,0.77120
5130.46,0.76956
5124.67,0.76277
5118.89,0.76138
5113.1,0.76452
5107.32,0.76884
5101.53,0.77251
5095.74,0.77694
5089.96,0.78017
5084.17,0.78258
5078.38,0.78477
5072.6,0.78426
5066.81,0.78603
5061.03,0.78883
5055.24,0.78763
5049.45,0.78713
5043.67,0.78781
5037.88,0.78654
5032.09,0.78758
5026.31,0.78750
5020.52,0.78696
5014.74,0.78694
5008.95,0.78711
5003.16,0.78601
4997.38,0.78818
4991.59,0.78735
4985.8,0.78686
4980.02,0.78851
4974.23,0.78691
4968.45,0.78670
4962.66,0.78588
4956.87,0.78361
4951.09,0.78289
4945.3,0.78128
4939.51,0.77882
4933.73,0.77868
4927.94,0.77785
4922.16,0.77705
4916.37,0.77491
4910.58,0.77322
4904.8,0.77215
4899.01,0.77146
4893.22,0.77070
4887.44,0.76969
4881.65,0.77004
4875.87,0.76853
4870.08,0.76839
4864.29,0.76660
4858.51,0.76756
4852.72,0.76544
4846.93,0.76351
4841.15,0.76164
4835.36,0.75793
4829.58,0.75446
4823.79,0.74985
4818,0.74761
4812.22,0.74341
4806.43,0.74174
4800.65,0.73913
4794.86,0.73883
4789.07,0.73908
4783.29,0.74115
4777.5,0.74340
4771.71,0.74428
4765.93,0.74516
4760.14,0.74226
4754.36,0.73823
4748.57,0.73055
4742.78,0.72555
4737,0.71836
4731.21,0.70982
4725.42,0.69860
4719.64,0.68937
4713.85,0.68766
4708.07,0.68397
4702.28,0.67374
4696.49,0.65958
4690.71,0.65199
4684.92,0.65510
4679.13,0.66803
4673.35,0.68339
4667.56,0.69233
4661.78,0.69681
4655.99,0.69648
4650.2,0.69287
4644.42,0.68104
4638.63,0.67070
4632.84,0.66931
4627.06,0.68065
4621.27,0.69876
4615.49,0.71115
4609.7,0.71679
4603.91,0.71642
4598.13,0.71028
4592.34,0.70139
4586.55,0.69769
4580.77,0.69139
4574.98,0.69657
4569.2,0.71002
4563.41,0.72158
4557.62,0.72611
4551.84,0.72724
4546.05,0.72709
4540.26,0.72579
4534.48,0.72591
4528.69,0.72392
4522.91,0.72085
4517.12,0.71710
4511.33,0.71067
4505.55,0.70215
4499.76,0.68927
4493.97,0.67388
4488.19,0.66352
4482.4,0.65685
4476.62,0.64985
4470.83,0.63813
4465.04,0.61803
4459.26,0.59947
4453.47,0.59754
4447.68,0.59909
4441.9,0.59386
4436.11,0.58935
4430.33,0.58733
4424.54,0.59486
4418.75,0.60522
4412.97,0.61022
4407.18,0.61184
4401.39,0.61360
4395.61,0.61939
4389.82,0.62366
4384.04,0.62711
4378.25,0.62961
4372.46,0.63004
4366.68,0.62793
4360.89,0.62565
4355.11,0.62518
4349.32,0.62306
4343.53,0.62037
4337.75,0.61650
4331.96,0.61577
4326.17,0.61666
4320.39,0.61682
4314.6,0.61342
4308.82,0.60888
4303.03,0.60174
4297.24,0.59521
4291.46,0.59340
4285.67,0.59403
4279.88,0.59730
4274.1,0.60009
4268.31,0.60254
4262.53,0.60583
4256.74,0.60642
4250.95,0.60411
4245.17,0.60431
4239.38,0.60477
4233.59,0.60553
4227.81,0.60527
4222.02,0.60725
4216.24,0.61288
4210.45,0.61713
4204.66,0.61794
4198.88,0.61916
4193.09,0.61943
4187.3,0.61548
4181.52,0.60833
4175.73,0.60453
4169.95,0.61135
4164.16,0.61954
4158.37,0.62491
4152.59,0.62772
4146.8,0.62716
4141.01,0.62144
4135.23,0.61361
4129.44,0.60982
4123.66,0.60930
4117.87,0.60730
4112.08,0.60092
4106.3,0.58995
4100.51,0.57506
4094.72,0.54922
4088.94,0.54117
4083.15,0.55612
4077.37,0.57690
4071.58,0.59491
4065.79,0.60382
4060.01,0.60902
4054.22,0.61375
4048.43,0.61803
4042.65,0.62202
4036.86,0.62748
4031.08,0.63045
4025.29,0.63208
4019.5,0.63236
4013.72,0.63063
4007.93,0.63179
4002.14,0.63259
3996.36,0.63454
3990.57,0.63730
3984.79,0.63942
3979,0.64019
3973.21,0.63989
3967.43,0.64123
3961.64,0.64386
3955.85,0.64769
3950.07,0.65104
3944.28,0.65223
3938.5,0.65382
3932.71,0.65398
3926.92,0.65449
3921.14,0.65507
3915.35,0.65730
3909.57,0.65885
3903.78,0.66229
3897.99,0.66646
3892.21,0.67224
3886.42,0.67504
3880.63,0.67652
3874.85,0.67897
3869.06,0.68160
3863.28,0.68271
3857.49,0.68426
3851.7,0.68595
3845.92,0.68572
3840.13,0.68521
3834.34,0.68516
3828.56,0.68486
3822.77,0.68378
3816.99,0.67899
3811.2,0.67216
3805.41,0.67022
3799.63,0.67314
3793.84,0.67721
3788.05,0.67987
3782.27,0.68023
3776.48,0.67738
3770.7,0.67362
3764.91,0.66890
3759.12,0.66404
3753.34,0.66870
3747.55,0.68116
3741.76,0.68537
3735.98,0.67946
3730.19,0.67567
3724.41,0.68397
3718.62,0.68901
3712.83,0.68841
3707.05,0.68045
3701.26,0.66768
3695.47,0.65218
3689.69,0.62861
3683.9,0.62165
3678.12,0.64246
3672.33,0.65879
3666.54,0.66032
3660.76,0.65437
3654.97,0.64679
3649.18,0.63760
3643.4,0.62791
3637.61,0.61953
3631.83,0.61234
3626.04,0.60332
3620.25,0.59393
3614.47,0.58636
3608.68,0.57783
3602.89,0.56906
3597.11,0.55805
3591.32,0.54517
3585.54,0.53043
3579.75,0.51572
3573.96,0.50079
3568.18,0.48750
3562.39,0.47622
3556.6,0.46702
3550.82,0.46012
3545.03,0.45660
3539.25,0.45530
3533.46,0.45495
3527.67,0.45599
3521.89,0.45713
3516.1,0.45882
3510.31,0.45908
3504.53,0.45983
3498.74,0.45859
3492.96,0.45626
3487.17,0.45312
3481.38,0.44926
3475.6,0.44232
3469.81,0.43347
3464.03,0.42179
3458.24,0.40945
3452.45,0.39480
3446.67,0.37981
3440.88,0.36231
3435.09,0.34274
3429.31,0.33666
3423.52,0.35779
3417.74,0.38201
3411.95,0.40074
3406.16,0.41519
3400.38,0.42446
3394.59,0.43003
3388.8,0.43291
3383.02,0.43343
3377.23,0.43387
3371.45,0.43215
3365.66,0.43034
3359.87,0.42660
3354.09,0.42098
3348.3,0.41371
3342.51,0.40729
3336.73,0.40424
3330.94,0.40642
3325.16,0.41253
3319.37,0.41684
3313.58,0.41704
3307.8,0.41515
3302.01,0.41501
3296.22,0.41596
3290.44,0.41880
3284.65,0.42216
3278.87,0.42474
3273.08,0.42757
3267.29,0.43003
3261.51,0.43203
3255.72,0.43250
3249.93,0.43463
3244.15,0.43407
3238.36,0.43464
3232.58,0.43663
3226.79,0.43899
3221,0.44263
3215.22,0.44538
3209.43,0.44768
3203.64,0.44799
3197.86,0.44784
3192.07,0.44766
3186.29,0.44866
3180.5,0.44973
3174.71,0.45036
3168.93,0.45046
3163.14,0.45003
3157.35,0.44954
3151.57,0.44786
3145.78,0.44508
3140,0.44018
3134.21,0.43278
3128.42,0.42741
3122.64,0.42857
3116.85,0.42707
3111.06,0.41588
3105.28,0.40258
3099.49,0.40279
3093.71,0.41015
3087.92,0.40312
3082.13,0.39038
3076.35,0.38835
3070.56,0.38406
3064.77,0.38334
3058.99,0.37614
3053.2,0.37093
3047.42,0.40030
3041.63,0.42399
3035.84,0.42465
3030.06,0.41503
3024.27,0.39523
3018.49,0.36191
3012.7,0.33945
3006.91,0.33638
3001.13,0.33139
2995.34,0.32373
2989.55,0.30888
2983.77,0.28522
2977.98,0.25400
2972.2,0.22548
2966.41,0.22681
2960.62,0.24109
2954.84,0.25792
2949.05,0.28260
2943.26,0.30785
2937.48,0.32394
2931.69,0.32551
2925.91,0.31757
2920.12,0.30408
2914.33,0.28434
2908.55,0.26458
2902.76,0.28833
2896.97,0.31578
2891.19,0.32488
2885.4,0.33228
2879.62,0.34313
2873.83,0.35018
2868.04,0.35512
2862.26,0.35820
2856.47,0.36048
2850.68,0.37132
2844.9,0.40369
2839.11,0.43144
2833.33,0.44975
2827.54,0.46301
2821.75,0.47047
2815.97,0.46990
2810.18,0.46816
2804.39,0.46955
2798.61,0.47820
2792.82,0.48854
2787.04,0.49755
2781.25,0.50385
2775.46,0.50922
2769.68,0.51337
2763.89,0.51543
2758.1,0.51596
2752.32,0.51579
2746.53,0.51543
2740.75,0.51793
2734.96,0.52645
2729.17,0.53440
2723.39,0.54022
2717.6,0.54386
2711.81,0.54848
2706.03,0.55426
2700.24,0.55854
2694.46,0.56155
2688.67,0.56324
2682.88,0.56359
2677.1,0.56483
2671.31,0.56700
2665.52,0.56772
2659.74,0.56618
2653.95,0.56360
2648.17,0.55931
2642.38,0.55043
2636.59,0.53816
2630.81,0.53265
2625.02,0.53489
2619.24,0.53757
2613.45,0.53641
2607.66,0.53506
2601.88,0.53306
2596.09,0.52761
2590.3,0.52076
2584.52,0.51712
2578.73,0.51723
2572.95,0.51852
2567.16,0.51711
2561.37,0.51600
2555.59,0.51480
2549.8,0.51425
2544.01,0.51228
2538.23,0.51154
2532.44,0.51203
2526.66,0.51570
2520.87,0.52120
2515.08,0.52609
2509.3,0.52837
2503.51,0.52884
2497.72,0.53093
2491.94,0.53646
2486.15,0.54351
2480.37,0.55089
2474.58,0.55687
2468.79,0.56063
2463.01,0.56178
2457.22,0.56189
2451.43,0.56000
2445.65,0.55610
2439.86,0.54922
2434.08,0.54017
2428.29,0.53065
2422.5,0.52020
2416.72,0.51073
2410.93,0.50213
2405.14,0.49461
2399.36,0.48854
2393.57,0.48456
2387.79,0.48379
2382,0.48568
2376.21,0.48928
2370.43,0.49524
2364.64,0.50547
2358.85,0.51882
2353.07,0.52954
2347.28,0.53703
2341.5,0.54164
2335.71,0.54133
2329.92,0.54516
2324.14,0.54945
2318.35,0.55392
2312.56,0.55360
2306.78,0.54597
2300.99,0.53258
2295.21,0.51648
2289.42,0.50316
2283.63,0.49909
2277.85,0.50036
2272.06,0.49807
2266.27,0.49392
2260.49,0.49165
2254.7,0.49330
2248.92,0.49873
2243.13,0.50625
2237.34,0.51337
2231.56,0.51849
2225.77,0.52139
2219.98,0.52311
2214.2,0.52461
2208.41,0.52805
2202.63,0.53539
2196.84,0.53903
2191.05,0.53838
2185.27,0.53456
2179.48,0.52716
2173.7,0.51739
2167.91,0.50533
2162.12,0.49079
2156.34,0.47595
2150.55,0.46283
2144.76,0.45288
2138.98,0.44559
2133.19,0.43824
2127.41,0.42692
2121.62,0.41594
2115.83,0.40857
2110.05,0.40620
2104.26,0.40784
2098.47,0.41055
2092.69,0.41428
2086.9,0.42218
2081.12,0.43326
2075.33,0.44611
2069.54,0.45950
2063.76,0.47467
2057.97,0.49045
2052.18,0.50248
2046.4,0.50988
2040.61,0.51208
2034.83,0.51031
2029.04,0.50314
2023.25,0.49129
2017.47,0.47921
2011.68,0.46732
2005.89,0.45533
2000.11,0.44189
1994.32,0.42822
1988.54,0.41473
1982.75,0.40267
1976.96,0.38718
1971.18,0.36738
1965.39,0.33746
1959.6,0.32187
1953.82,0.33461
1948.03,0.35173
1942.25,0.37119
1936.46,0.39050
1930.67,0.40710
1924.89,0.41990
1919.1,0.43028
1913.31,0.43981
1907.53,0.44642
1901.74,0.45116
1895.96,0.45420
1890.17,0.45500
1884.38,0.45387
1878.6,0.45064
1872.81,0.44213
1867.02,0.43005
1861.24,0.41545
1855.45,0.39494
1849.67,0.36891
1843.88,0.34434
1838.09,0.32437
1832.31,0.30840
1826.52,0.29840
1820.73,0.29586
1814.95,0.29373
1809.16,0.28948
1803.38,0.28596
1797.59,0.28196
1791.8,0.27443
1786.02,0.26347
1780.23,0.25004
1774.44,0.23214
1768.66,0.20896
1762.87,0.18158
1757.09,0.14493
1751.3,0.09872
1745.51,0.05349
1739.73,0.03368
1733.94,0.03320
1728.16,0.03733
1722.37,0.04234
1716.58,0.05202
1710.8,0.08166
1705.01,0.11874
1699.22,0.15024
1693.44,0.16962
1687.65,0.17572
1681.87,0.17865
1676.08,0.19907
1670.29,0.21529
1664.51,0.23601
1658.72,0.25225
1652.93,0.26277
1647.15,0.26958
1641.36,0.27742
1635.58,0.28369
1629.79,0.28681
1624,0.28656
1618.22,0.27287
1612.43,0.26169
1606.64,0.27801
1600.86,0.29234
1595.07,0.29558
1589.29,0.28010
1583.5,0.23951
1577.71,0.21129
1571.93,0.25359
1566.14,0.28385
1560.35,0.29144
1554.57,0.29044
1548.78,0.28540
1543,0.28126
1537.21,0.28279
1531.42,0.27270
1525.64,0.25937
1519.85,0.25638
1514.06,0.23338
1508.28,0.15145
1502.49,0.16339
1496.71,0.25535
1490.92,0.27121
1485.13,0.24367
1479.35,0.20332
1473.56,0.15849
1467.77,0.16054
1461.99,0.16106
1456.2,0.15055
1450.42,0.15117
1444.63,0.15616
1438.84,0.15984
1433.06,0.16906
1427.27,0.16756
1421.48,0.13484
1415.7,0.07554
1409.91,0.05876
1404.13,0.08919
1398.34,0.11572
1392.55,0.11756
1386.77,0.10705
1380.98,0.10627
1375.19,0.10179
1369.41,0.09596
1363.62,0.10103
1357.84,0.09323
1352.05,0.07170
1346.26,0.05693
1340.48,0.05817
1334.69,0.08673
1328.9,0.10932
1323.12,0.09166
1317.33,0.06795
1311.55,0.05052
1305.76,0.04083
1299.97,0.03629
1294.19,0.03711
1288.4,0.04199
1282.62,0.04894
1276.83,0.05626
1271.04,0.06051
1265.26,0.06282
1259.47,0.06412
1253.68,0.06529
1247.9,0.06221
1242.11,0.05840
1236.33,0.07135
1230.54,0.11139
1224.75,0.14645
1218.97,0.18118
1213.18,0.20565
1207.39,0.22369
1201.61,0.24692
1195.82,0.26257
1190.04,0.25897
1184.25,0.23412
1178.46,0.19954
1172.68,0.17917
1166.89,0.16611
1161.1,0.13701
1155.32,0.10325
1149.53,0.07273
1143.75,0.05176
1137.96,0.04723
1132.17,0.05367
1126.39,0.05776
1120.6,0.05832
1114.81,0.06032
1109.03,0.06072
1103.24,0.06286
1097.46,0.07245
1091.67,0.09368
1085.88,0.12498
1080.1,0.17495
1074.31,0.22755
1068.52,0.25749
1062.74,0.26924
1056.95,0.26198
1051.17,0.23777
1045.38,0.21667
1039.59,0.20821
1033.81,0.19197
1028.02,0.12672
1022.23,0.08538
1016.45,0.14050
1010.66,0.25924
1004.88,0.31074
999.09,0.31991
993.303,0.30586
987.517,0.27971
981.731,0.24938
975.945,0.19382
970.158,0.18992
964.372,0.24893
958.586,0.30260
952.8,0.33661
947.014,0.35292
941.227,0.35929
935.441,0.36058
929.655,0.36007
923.869,0.35543
918.082,0.34438
912.296,0.31902
906.51,0.28422
900.724,0.26090
894.937,0.25833
889.151,0.25449
883.365,0.22980
877.579,0.18925
871.793,0.17619
866.006,0.22766
860.22,0.22020
854.434,0.19012
848.648,0.17577
842.861,0.20727
837.075,0.24221
831.289,0.26557
825.503,0.27861
819.716,0.28015
813.93,0.27546
808.144,0.26783
802.358,0.25804
796.571,0.23082
790.785,0.22867
784.999,0.26456
779.213,0.27980
773.427,0.28705
767.64,0.29249
761.854,0.28904
756.068,0.27527
750.282,0.24529
744.495,0.18729
738.709,0.09979
732.923,0.05950
727.137,0.07586
721.35,0.16619
715.564,0.23825
709.778,0.24741
703.992,0.25663
698.206,0.28576
692.419,0.30376
686.633,0.29831
680.847,0.28036
675.061,0.28569
669.274,0.29234
663.488,0.29601
657.702,0.29267
651.916,0.29717
646.129,0.30019
640.343,0.29683
634.557,0.26916
628.771,0.27192
622.984,0.29239
617.198,0.29059
611.412,0.28897
605.626,0.28538
599.84,0.28488