File: 01_Data/Overstuffed_Chair_Polyester_Fabric/FTIR/IS/Overstuffed_Chair_Polyester_Fabric_IS_S_221019_R3.dpt
7497.03,0.82805
7491.24,0.84057
7485.46,0.83698
7479.67,0.83088
7473.88,0.84217
7468.1,0.83533
7462.31,0.83155
7456.53,0.82841
7450.74,0.84474
7444.95,0.83213
7439.17,0.83239
7433.38,0.82045
7427.59,0.81678
7421.81,0.82136
7416.02,0.82280
7410.24,0.82475
7404.45,0.82488
7398.66,0.82352
7392.88,0.82516
7387.09,0.82742
7381.31,0.82067
7375.52,0.82880
7369.73,0.81675
7363.95,0.82297
7358.16,0.82836
7352.37,0.82474
7346.59,0.81961
7340.8,0.82095
7335.02,0.81392
7329.23,0.80803
7323.44,0.80982
7317.66,0.81119
7311.87,0.82160
7306.08,0.81476
7300.3,0.82785
7294.51,0.82777
7288.73,0.82284
7282.94,0.81377
7277.15,0.81764
7271.37,0.81765
7265.58,0.81300
7259.79,0.81417
7254.01,0.81832
7248.22,0.81096
7242.44,0.81508
7236.65,0.81408
7230.86,0.81491
7225.08,0.82578
7219.29,0.82272
7213.5,0.81601
7207.72,0.81370
7201.93,0.81078
7196.15,0.81750
7190.36,0.81579
7184.57,0.81268
7178.79,0.82706
7173,0.81639
7167.21,0.81367
7161.43,0.81898
7155.64,0.81668
7149.86,0.81420
7144.07,0.80597
7138.28,0.81839
7132.5,0.80676
7126.71,0.81092
7120.92,0.81312
7115.14,0.81402
7109.35,0.80895
7103.57,0.80642
7097.78,0.80096
7091.99,0.80874
7086.21,0.81460
7080.42,0.80716
7074.63,0.80817
7068.85,0.80413
7063.06,0.80518
7057.28,0.80501
7051.49,0.80176
7045.7,0.80532
7039.92,0.79916
7034.13,0.80479
7028.34,0.80051
7022.56,0.80660
7016.77,0.81020
7010.99,0.79916
7005.2,0.80240
6999.41,0.80140
6993.63,0.80871
6987.84,0.80752
6982.06,0.80378
6976.27,0.80766
6970.48,0.81081
6964.7,0.80591
6958.91,0.80505
6953.12,0.80510
6947.34,0.80787
6941.55,0.80658
6935.77,0.81225
6929.98,0.80807
6924.19,0.81041
6918.41,0.80388
6912.62,0.80140
6906.83,0.80254
6901.05,0.80207
6895.26,0.80394
6889.48,0.80581
6883.69,0.80381
6877.9,0.80794
6872.12,0.81303
6866.33,0.80735
6860.54,0.80951
6854.76,0.81083
6848.97,0.80945
6843.19,0.81599
6837.4,0.80547
6831.61,0.80737
6825.83,0.80810
6820.04,0.81105
6814.25,0.81231
6808.47,0.81038
6802.68,0.81163
6796.9,0.80773
6791.11,0.80940
6785.32,0.81301
6779.54,0.81133
6773.75,0.81643
6767.96,0.81257
6762.18,0.81632
6756.39,0.81288
6750.61,0.81624
6744.82,0.81492
6739.03,0.80993
6733.25,0.81142
6727.46,0.81262
6721.67,0.81628
6715.89,0.81161
6710.1,0.80970
6704.32,0.80864
6698.53,0.81181
6692.74,0.81469
6686.96,0.81518
6681.17,0.81424
6675.38,0.80845
6669.6,0.81494
6663.81,0.81192
6658.03,0.81144
6652.24,0.81109
6646.45,0.81091
6640.67,0.81930
6634.88,0.81478
6629.09,0.81105
6623.31,0.80554
6617.52,0.81337
6611.74,0.81413
6605.95,0.81624
6600.16,0.81240
6594.38,0.81288
6588.59,0.81517
6582.8,0.81258
6577.02,0.81551
6571.23,0.81642
6565.45,0.81443
6559.66,0.82027
6553.87,0.81638
6548.09,0.81680
6542.3,0.81942
6536.52,0.82236
6530.73,0.82031
6524.94,0.81914
6519.16,0.81904
6513.37,0.81723
6507.58,0.81534
6501.8,0.81690
6496.01,0.81918
6490.23,0.81624
6484.44,0.81905
6478.65,0.81616
6472.87,0.81677
6467.08,0.81681
6461.29,0.81868
6455.51,0.82242
6449.72,0.81918
6443.94,0.81692
6438.15,0.81624
6432.36,0.81769
6426.58,0.81931
6420.79,0.81683
6415,0.81863
6409.22,0.81818
6403.43,0.82507
6397.65,0.82017
6391.86,0.81975
6386.07,0.81823
6380.29,0.81659
6374.5,0.81712
6368.71,0.82241
6362.93,0.82159
6357.14,0.82127
6351.36,0.81565
6345.57,0.81581
6339.78,0.81716
6334,0.81857
6328.21,0.81496
6322.42,0.81685
6316.64,0.81675
6310.85,0.81584
6305.07,0.81915
6299.28,0.81894
6293.49,0.81793
6287.71,0.81912
6281.92,0.81502
6276.13,0.81628
6270.35,0.81754
6264.56,0.81536
6258.78,0.81502
6252.99,0.81888
6247.2,0.81899
6241.42,0.81369
6235.63,0.81483
6229.84,0.81429
6224.06,0.81604
6218.27,0.81303
6212.49,0.81423
6206.7,0.80975
6200.91,0.80684
6195.13,0.80775
6189.34,0.80512
6183.55,0.80778
6177.77,0.80639
6171.98,0.80804
6166.2,0.80628
6160.41,0.80165
6154.62,0.80059
6148.84,0.79951
6143.05,0.79806
6137.26,0.79481
6131.48,0.79705
6125.69,0.79440
6119.91,0.78903
6114.12,0.78482
6108.33,0.77995
6102.55,0.77268
6096.76,0.76577
6090.98,0.75742
6085.19,0.74913
6079.4,0.74247
6073.62,0.73760
6067.83,0.72949
6062.04,0.71885
6056.26,0.71037
6050.47,0.70574
6044.69,0.69967
6038.9,0.68983
6033.11,0.68288
6027.33,0.67973
6021.54,0.67470
6015.75,0.67756
6009.97,0.68045
6004.18,0.68701
5998.4,0.69934
5992.61,0.70543
5986.82,0.71242
5981.04,0.71104
5975.25,0.71148
5969.46,0.71886
5963.68,0.72525
5957.89,0.72745
5952.11,0.72837
5946.32,0.73134
5940.53,0.73068
5934.75,0.73532
5928.96,0.74142
5923.17,0.74655
5917.39,0.75521
5911.6,0.75637
5905.82,0.75938
5900.03,0.76211
5894.24,0.76004
5888.46,0.75457
5882.67,0.75391
5876.88,0.74950
5871.1,0.74791
5865.31,0.74631
5859.53,0.74713
5853.74,0.74837
5847.95,0.74944
5842.17,0.75184
5836.38,0.75045
5830.59,0.75052
5824.81,0.75010
5819.02,0.74928
5813.24,0.74937
5807.45,0.74942
5801.66,0.74898
5795.88,0.75038
5790.09,0.75075
5784.3,0.75210
5778.52,0.75309
5772.73,0.75550
5766.95,0.75445
5761.16,0.75843
5755.37,0.76109
5749.59,0.76050
5743.8,0.76615
5738.01,0.76676
5732.23,0.76889
5726.44,0.77369
5720.66,0.77442
5714.87,0.77447
5709.08,0.77605
5703.3,0.77354
5697.51,0.77349
5691.72,0.77568
5685.94,0.77791
5680.15,0.77672
5674.37,0.78026
5668.58,0.77938
5662.79,0.77866
5657.01,0.77902
5651.22,0.78025
5645.44,0.78070
5639.65,0.78198
5633.86,0.78395
5628.08,0.78654
5622.29,0.78650
5616.5,0.78951
5610.72,0.78799
5604.93,0.78811
5599.15,0.78820
5593.36,0.78686
5587.57,0.78579
5581.79,0.78425
5576,0.78351
5570.21,0.78273
5564.43,0.78292
5558.64,0.78249
5552.86,0.78382
5547.07,0.78363
5541.28,0.78262
5535.5,0.78336
5529.71,0.78236
5523.92,0.78295
5518.14,0.78323
5512.35,0.78831
5506.57,0.78498
5500.78,0.78453
5494.99,0.78555
5489.21,0.78242
5483.42,0.78061
5477.63,0.78226
5471.85,0.78199
5466.06,0.78316
5460.28,0.78789
5454.49,0.78553
5448.7,0.78703
5442.92,0.79001
5437.13,0.79096
5431.34,0.79261
5425.56,0.79499
5419.77,0.79593
5413.99,0.79663
5408.2,0.79454
5402.41,0.79527
5396.63,0.79567
5390.84,0.79756
5385.05,0.79657
5379.27,0.79684
5373.48,0.79569
5367.7,0.79503
5361.91,0.79638
5356.12,0.79387
5350.34,0.79412
5344.55,0.79374
5338.76,0.79425
5332.98,0.79656
5327.19,0.79628
5321.41,0.79666
5315.62,0.79501
5309.83,0.79522
5304.05,0.79341
5298.26,0.79543
5292.47,0.79266
5286.69,0.79022
5280.9,0.79042
5275.12,0.78684
5269.33,0.78421
5263.54,0.78264
5257.76,0.78312
5251.97,0.78154
5246.18,0.77964
5240.4,0.78013
5234.61,0.77925
5228.83,0.77899
5223.04,0.77869
5217.25,0.77934
5211.47,0.77982
5205.68,0.78062
5199.9,0.78093
5194.11,0.78062
5188.32,0.78074
5182.54,0.77999
5176.75,0.77926
5170.96,0.77901
5165.18,0.77878
5159.39,0.77617
5153.61,0.77346
5147.82,0.77203
5142.03,0.77167
5136.25,0.76796
5130.46,0.76638
5124.67,0.76282
5118.89,0.76072
5113.1,0.76294
5107.32,0.76552
5101.53,0.77115
5095.74,0.77525
5089.96,0.77926
5084.17,0.78067
5078.38,0.78301
5072.6,0.78163
5066.81,0.78393
5061.03,0.78586
5055.24,0.78602
5049.45,0.78510
5043.67,0.78469
5037.88,0.78615
5032.09,0.78510
5026.31,0.78482
5020.52,0.78488
5014.74,0.78463
5008.95,0.78486
5003.16,0.78551
4997.38,0.78528
4991.59,0.78645
4985.8,0.78679
4980.02,0.78505
4974.23,0.78542
4968.45,0.78614
4962.66,0.78485
4956.87,0.78254
4951.09,0.78086
4945.3,0.77935
4939.51,0.77770
4933.73,0.77656
4927.94,0.77599
4922.16,0.77586
4916.37,0.77506
4910.58,0.77456
4904.8,0.77256
4899.01,0.77058
4893.22,0.76956
4887.44,0.76859
4881.65,0.76787
4875.87,0.76912
4870.08,0.76758
4864.29,0.76747
4858.51,0.76748
4852.72,0.76520
4846.93,0.76364
4841.15,0.76063
4835.36,0.75624
4829.58,0.75310
4823.79,0.74994
4818,0.74736
4812.22,0.74489
4806.43,0.74151
4800.65,0.73833
4794.86,0.73696
4789.07,0.73807
4783.29,0.74048
4777.5,0.74297
4771.71,0.74437
4765.93,0.74490
4760.14,0.74296
4754.36,0.73852
4748.57,0.73193
4742.78,0.72677
4737,0.71801
4731.21,0.70989
4725.42,0.69828
4719.64,0.68965
4713.85,0.68733
4708.07,0.68441
4702.28,0.67447
4696.49,0.65963
4690.71,0.65139
4684.92,0.65491
4679.13,0.66792
4673.35,0.68339
4667.56,0.69257
4661.78,0.69588
4655.99,0.69607
4650.2,0.69181
4644.42,0.68061
4638.63,0.66975
4632.84,0.66865
4627.06,0.67995
4621.27,0.69774
4615.49,0.71069
4609.7,0.71767
4603.91,0.71649
4598.13,0.70877
4592.34,0.70054
4586.55,0.69698
4580.77,0.69019
4574.98,0.69572
4569.2,0.70939
4563.41,0.72032
4557.62,0.72561
4551.84,0.72605
4546.05,0.72596
4540.26,0.72519
4534.48,0.72499
4528.69,0.72326
4522.91,0.71947
4517.12,0.71608
4511.33,0.71091
4505.55,0.70135
4499.76,0.68970
4493.97,0.67391
4488.19,0.66268
4482.4,0.65656
4476.62,0.64948
4470.83,0.63700
4465.04,0.61718
4459.26,0.59891
4453.47,0.59639
4447.68,0.59845
4441.9,0.59492
4436.11,0.58852
4430.33,0.58807
4424.54,0.59499
4418.75,0.60486
4412.97,0.61095
4407.18,0.61086
4401.39,0.61320
4395.61,0.61840
4389.82,0.62352
4384.04,0.62741
4378.25,0.62967
4372.46,0.62939
4366.68,0.62727
4360.89,0.62459
4355.11,0.62538
4349.32,0.62213
4343.53,0.61892
4337.75,0.61617
4331.96,0.61612
4326.17,0.61685
4320.39,0.61697
4314.6,0.61446
4308.82,0.60779
4303.03,0.60054
4297.24,0.59455
4291.46,0.59205
4285.67,0.59425
4279.88,0.59723
4274.1,0.59966
4268.31,0.60226
4262.53,0.60605
4256.74,0.60649
4250.95,0.60446
4245.17,0.60281
4239.38,0.60410
4233.59,0.60466
4227.81,0.60488
4222.02,0.60724
4216.24,0.61153
4210.45,0.61652
4204.66,0.61834
4198.88,0.61916
4193.09,0.61844
4187.3,0.61511
4181.52,0.60685
4175.73,0.60472
4169.95,0.61119
4164.16,0.61826
4158.37,0.62395
4152.59,0.62742
4146.8,0.62661
4141.01,0.62122
4135.23,0.61308
4129.44,0.61008
4123.66,0.60866
4117.87,0.60673
4112.08,0.59994
4106.3,0.58988
4100.51,0.57442
4094.72,0.54861
4088.94,0.54074
4083.15,0.55505
4077.37,0.57613
4071.58,0.59385
4065.79,0.60303
4060.01,0.60897
4054.22,0.61326
4048.43,0.61761
4042.65,0.62168
4036.86,0.62709
4031.08,0.63014
4025.29,0.63192
4019.5,0.63135
4013.72,0.62975
4007.93,0.63102
4002.14,0.63276
3996.36,0.63379
3990.57,0.63712
3984.79,0.63886
3979,0.63919
3973.21,0.63976
3967.43,0.64005
3961.64,0.64296
3955.85,0.64684
3950.07,0.65015
3944.28,0.65219
3938.5,0.65365
3932.71,0.65408
3926.92,0.65436
3921.14,0.65431
3915.35,0.65495
3909.57,0.65762
3903.78,0.66106
3897.99,0.66562
3892.21,0.67133
3886.42,0.67402
3880.63,0.67651
3874.85,0.67826
3869.06,0.68070
3863.28,0.68171
3857.49,0.68337
3851.7,0.68474
3845.92,0.68455
3840.13,0.68404
3834.34,0.68376
3828.56,0.68381
3822.77,0.68342
3816.99,0.67868
3811.2,0.67176
3805.41,0.66939
3799.63,0.67192
3793.84,0.67701
3788.05,0.67966
3782.27,0.67887
3776.48,0.67713
3770.7,0.67281
3764.91,0.66737
3759.12,0.66211
3753.34,0.66837
3747.55,0.68009
3741.76,0.68274
3735.98,0.67758
3730.19,0.67405
3724.41,0.68189
3718.62,0.68673
3712.83,0.68554
3707.05,0.67798
3701.26,0.66418
3695.47,0.64885
3689.69,0.62403
3683.9,0.61651
3678.12,0.63423
3672.33,0.64578
3666.54,0.64477
3660.76,0.63616
3654.97,0.62618
3649.18,0.61607
3643.4,0.60611
3637.61,0.59690
3631.83,0.59067
3626.04,0.58206
3620.25,0.57572
3614.47,0.56930
3608.68,0.56237
3602.89,0.55552
3597.11,0.54566
3591.32,0.53311
3585.54,0.52064
3579.75,0.50590
3573.96,0.49123
3568.18,0.47956
3562.39,0.46791
3556.6,0.45888
3550.82,0.45232
3545.03,0.44958
3539.25,0.44818
3533.46,0.44872
3527.67,0.44930
3521.89,0.45137
3516.1,0.45242
3510.31,0.45373
3504.53,0.45429
3498.74,0.45313
3492.96,0.45073
3487.17,0.44853
3481.38,0.44440
3475.6,0.43862
3469.81,0.43053
3464.03,0.41876
3458.24,0.40659
3452.45,0.39238
3446.67,0.37725
3440.88,0.36069
3435.09,0.34173
3429.31,0.33435
3423.52,0.35592
3417.74,0.38000
3411.95,0.39905
3406.16,0.41299
3400.38,0.42232
3394.59,0.42652
3388.8,0.42973
3383.02,0.43095
3377.23,0.43103
3371.45,0.42953
3365.66,0.42732
3359.87,0.42358
3354.09,0.41850
3348.3,0.41174
3342.51,0.40611
3336.73,0.40231
3330.94,0.40444
3325.16,0.41119
3319.37,0.41427
3313.58,0.41539
3307.8,0.41326
3302.01,0.41160
3296.22,0.41331
3290.44,0.41657
3284.65,0.42013
3278.87,0.42297
3273.08,0.42551
3267.29,0.42745
3261.51,0.42927
3255.72,0.43093
3249.93,0.43139
3244.15,0.43145
3238.36,0.43156
3232.58,0.43278
3226.79,0.43563
3221,0.43883
3215.22,0.44266
3209.43,0.44419
3203.64,0.44513
3197.86,0.44459
3192.07,0.44435
3186.29,0.44577
3180.5,0.44677
3174.71,0.44721
3168.93,0.44805
3163.14,0.44747
3157.35,0.44583
3151.57,0.44506
3145.78,0.44168
3140,0.43775
3134.21,0.43071
3128.42,0.42480
3122.64,0.42621
3116.85,0.42428
3111.06,0.41318
3105.28,0.40092
3099.49,0.40102
3093.71,0.40853
3087.92,0.40104
3082.13,0.38826
3076.35,0.38576
3070.56,0.38248
3064.77,0.38165
3058.99,0.37402
3053.2,0.36889
3047.42,0.39831
3041.63,0.42210
3035.84,0.42262
3030.06,0.41332
3024.27,0.39344
3018.49,0.36043
3012.7,0.33799
3006.91,0.33541
3001.13,0.33034
2995.34,0.32299
2989.55,0.30828
2983.77,0.28471
2977.98,0.25368
2972.2,0.22558
2966.41,0.22649
2960.62,0.24119
2954.84,0.25801
2949.05,0.28190
2943.26,0.30700
2937.48,0.32285
2931.69,0.32467
2925.91,0.31684
2920.12,0.30283
2914.33,0.28337
2908.55,0.26451
2902.76,0.28731
2896.97,0.31589
2891.19,0.32453
2885.4,0.33226
2879.62,0.34295
2873.83,0.34967
2868.04,0.35452
2862.26,0.35769
2856.47,0.35945
2850.68,0.37027
2844.9,0.40322
2839.11,0.43042
2833.33,0.44857
2827.54,0.46100
2821.75,0.46901
2815.97,0.46854
2810.18,0.46733
2804.39,0.46801
2798.61,0.47633
2792.82,0.48705
2787.04,0.49586
2781.25,0.50298
2775.46,0.50835
2769.68,0.51188
2763.89,0.51411
2758.1,0.51491
2752.32,0.51417
2746.53,0.51381
2740.75,0.51752
2734.96,0.52496
2729.17,0.53263
2723.39,0.53920
2717.6,0.54289
2711.81,0.54752
2706.03,0.55285
2700.24,0.55690
2694.46,0.55974
2688.67,0.56193
2682.88,0.56232
2677.1,0.56342
2671.31,0.56516
2665.52,0.56601
2659.74,0.56468
2653.95,0.56145
2648.17,0.55710
2642.38,0.54877
2636.59,0.53667
2630.81,0.53172
2625.02,0.53333
2619.24,0.53583
2613.45,0.53541
2607.66,0.53412
2601.88,0.53132
2596.09,0.52598
2590.3,0.52018
2584.52,0.51593
2578.73,0.51599
2572.95,0.51757
2567.16,0.51666
2561.37,0.51507
2555.59,0.51410
2549.8,0.51263
2544.01,0.51153
2538.23,0.51081
2532.44,0.51144
2526.66,0.51480
2520.87,0.52028
2515.08,0.52511
2509.3,0.52745
2503.51,0.52831
2497.72,0.53019
2491.94,0.53536
2486.15,0.54226
2480.37,0.54989
2474.58,0.55587
2468.79,0.55937
2463.01,0.56112
2457.22,0.56063
2451.43,0.55881
2445.65,0.55576
2439.86,0.54840
2434.08,0.53934
2428.29,0.53022
2422.5,0.51959
2416.72,0.50995
2410.93,0.50142
2405.14,0.49383
2399.36,0.48782
2393.57,0.48436
2387.79,0.48322
2382,0.48491
2376.21,0.48926
2370.43,0.49478
2364.64,0.50497
2358.85,0.51764
2353.07,0.52892
2347.28,0.53659
2341.5,0.54074
2335.71,0.54124
2329.92,0.54449
2324.14,0.54833
2318.35,0.55276
2312.56,0.55309
2306.78,0.54571
2300.99,0.53214
2295.21,0.51550
2289.42,0.50272
2283.63,0.49843
2277.85,0.49957
2272.06,0.49792
2266.27,0.49314
2260.49,0.49104
2254.7,0.49253
2248.92,0.49811
2243.13,0.50602
2237.34,0.51242
2231.56,0.51757
2225.77,0.52031
2219.98,0.52196
2214.2,0.52365
2208.41,0.52704
2202.63,0.53462
2196.84,0.53815
2191.05,0.53768
2185.27,0.53338
2179.48,0.52603
2173.7,0.51610
2167.91,0.50438
2162.12,0.48973
2156.34,0.47512
2150.55,0.46173
2144.76,0.45210
2138.98,0.44450
2133.19,0.43711
2127.41,0.42615
2121.62,0.41522
2115.83,0.40807
2110.05,0.40579
2104.26,0.40719
2098.47,0.40981
2092.69,0.41355
2086.9,0.42137
2081.12,0.43276
2075.33,0.44536
2069.54,0.45933
2063.76,0.47361
2057.97,0.48942
2052.18,0.50170
2046.4,0.50851
2040.61,0.51093
2034.83,0.50924
2029.04,0.50222
2023.25,0.49060
2017.47,0.47811
2011.68,0.46685
2005.89,0.45487
2000.11,0.44091
1994.32,0.42753
1988.54,0.41459
1982.75,0.40165
1976.96,0.38706
1971.18,0.36697
1965.39,0.33738
1959.6,0.32143
1953.82,0.33413
1948.03,0.35159
1942.25,0.37113
1936.46,0.39022
1930.67,0.40664
1924.89,0.41945
1919.1,0.43017
1913.31,0.43906
1907.53,0.44557
1901.74,0.45045
1895.96,0.45322
1890.17,0.45420
1884.38,0.45332
1878.6,0.44963
1872.81,0.44137
1867.02,0.42915
1861.24,0.41472
1855.45,0.39443
1849.67,0.36848
1843.88,0.34379
1838.09,0.32417
1832.31,0.30824
1826.52,0.29814
1820.73,0.29546
1814.95,0.29343
1809.16,0.28900
1803.38,0.28611
1797.59,0.28146
1791.8,0.27406
1786.02,0.26361
1780.23,0.24974
1774.44,0.23221
1768.66,0.20934
1762.87,0.18159
1757.09,0.14482
1751.3,0.09870
1745.51,0.05365
1739.73,0.03363
1733.94,0.03321
1728.16,0.03732
1722.37,0.04225
1716.58,0.05198
1710.8,0.08154
1705.01,0.11860
1699.22,0.15002
1693.44,0.16950
1687.65,0.17533
1681.87,0.17857
1676.08,0.19868
1670.29,0.21498
1664.51,0.23535
1658.72,0.25153
1652.93,0.26101
1647.15,0.26709
1641.36,0.27530
1635.58,0.28146
1629.79,0.28474
1624,0.28453
1618.22,0.27105
1612.43,0.26026
1606.64,0.27697
1600.86,0.29097
1595.07,0.29417
1589.29,0.27867
1583.5,0.23869
1577.71,0.21081
1571.93,0.25291
1566.14,0.28289
1560.35,0.29007
1554.57,0.28975
1548.78,0.28519
1543,0.28060
1537.21,0.28221
1531.42,0.27254
1525.64,0.25942
1519.85,0.25628
1514.06,0.23297
1508.28,0.15133
1502.49,0.16328
1496.71,0.25532
1490.92,0.27177
1485.13,0.24327
1479.35,0.20310
1473.56,0.15842
1467.77,0.16054
1461.99,0.16101
1456.2,0.15026
1450.42,0.15099
1444.63,0.15570
1438.84,0.15926
1433.06,0.16885
1427.27,0.16721
1421.48,0.13457
1415.7,0.07541
1409.91,0.05899
1404.13,0.08894
1398.34,0.11509
1392.55,0.11724
1386.77,0.10719
1380.98,0.10623
1375.19,0.10188
1369.41,0.09646
1363.62,0.10097
1357.84,0.09320
1352.05,0.07177
1346.26,0.05718
1340.48,0.05822
1334.69,0.08657
1328.9,0.10934
1323.12,0.09156
1317.33,0.06803
1311.55,0.05042
1305.76,0.04047
1299.97,0.03615
1294.19,0.03707
1288.4,0.04182
1282.62,0.04911
1276.83,0.05573
1271.04,0.06084
1265.26,0.06266
1259.47,0.06463
1253.68,0.06542
1247.9,0.06229
1242.11,0.05825
1236.33,0.07128
1230.54,0.11150
1224.75,0.14656
1218.97,0.18149
1213.18,0.20553
1207.39,0.22358
1201.61,0.24674
1195.82,0.26252
1190.04,0.25917
1184.25,0.23402
1178.46,0.19940
1172.68,0.17896
1166.89,0.16659
1161.1,0.13679
1155.32,0.10362
1149.53,0.07307
1143.75,0.05220
1137.96,0.04664
1132.17,0.05339
1126.39,0.05810
1120.6,0.05806
1114.81,0.06013
1109.03,0.06067
1103.24,0.06365
1097.46,0.07282
1091.67,0.09366
1085.88,0.12522
1080.1,0.17502
1074.31,0.22705
1068.52,0.25739
1062.74,0.26911
1056.95,0.26156
1051.17,0.23813
1045.38,0.21710
1039.59,0.20920
1033.81,0.19210
1028.02,0.12658
1022.23,0.08563
1016.45,0.14032
1010.66,0.25949
1004.88,0.31083
999.09,0.32067
993.303,0.30658
987.517,0.27998
981.731,0.24936
975.945,0.19408
970.158,0.18990
964.372,0.24886
958.586,0.30256
952.8,0.33564
947.014,0.35293
941.227,0.35975
935.441,0.35986
929.655,0.35903
923.869,0.35553
918.082,0.34370
912.296,0.31908
906.51,0.28403
900.724,0.26047
894.937,0.25735
889.151,0.25405
883.365,0.22848
877.579,0.18876
871.793,0.17577
866.006,0.22690
860.22,0.21938
854.434,0.18906
848.648,0.17462
842.861,0.20590
837.075,0.24181
831.289,0.26567
825.503,0.27831
819.716,0.27958
813.93,0.27446
808.144,0.26699
802.358,0.25717
796.571,0.22980
790.785,0.22849
784.999,0.26397
779.213,0.27909
773.427,0.28579
767.64,0.29081
761.854,0.28804
756.068,0.27332
750.282,0.24430
744.495,0.18729
738.709,0.09981
732.923,0.05917
727.137,0.07623
721.35,0.16585
715.564,0.23679
709.778,0.24643
703.992,0.25574
698.206,0.28444
692.419,0.30247
686.633,0.29614
680.847,0.27880
675.061,0.28556
669.274,0.29190
663.488,0.29614
657.702,0.29178
651.916,0.29693
646.129,0.29973
640.343,0.29609
634.557,0.26935
628.771,0.27335
622.984,0.29215
617.198,0.28827
611.412,0.28858
605.626,0.28622
599.84,0.28290