File: 01_Data/Overstuffed_Chair_Polyester_Fabric/FTIR/IS/Overstuffed_Chair_Polyester_Fabric_IS_REFLECT_MEAS_210623_R4.dpt
5996.41,0.67306
5992.55,0.68492
5988.69,0.67867
5984.84,0.67358
5980.98,0.66107
5977.12,0.66647
5973.27,0.67883
5969.41,0.67334
5965.55,0.67390
5961.69,0.67940
5957.84,0.68191
5953.98,0.67986
5950.12,0.68474
5946.26,0.68738
5942.41,0.68286
5938.55,0.68856
5934.69,0.69512
5930.83,0.70554
5926.98,0.71233
5923.12,0.70713
5919.26,0.69925
5915.4,0.70496
5911.55,0.71374
5907.69,0.71623
5903.83,0.71956
5899.97,0.71767
5896.12,0.72116
5892.26,0.72918
5888.4,0.71427
5884.54,0.71600
5880.69,0.71801
5876.83,0.70818
5872.97,0.70059
5869.11,0.70606
5865.26,0.70129
5861.4,0.70356
5857.54,0.71062
5853.68,0.71011
5849.83,0.71283
5845.97,0.71728
5842.11,0.71814
5838.25,0.71564
5834.4,0.71636
5830.54,0.71446
5826.68,0.71423
5822.82,0.71435
5818.97,0.70972
5815.11,0.71408
5811.25,0.71899
5807.39,0.71636
5803.54,0.72272
5799.68,0.71880
5795.82,0.71081
5791.96,0.71133
5788.11,0.70836
5784.25,0.71879
5780.39,0.71539
5776.53,0.72217
5772.68,0.72062
5768.82,0.71288
5764.96,0.72131
5761.11,0.72987
5757.25,0.72976
5753.39,0.73021
5749.53,0.73533
5745.68,0.73640
5741.82,0.74643
5737.96,0.74607
5734.1,0.73822
5730.25,0.74446
5726.39,0.74858
5722.53,0.74606
5718.67,0.74097
5714.82,0.73386
5710.96,0.74029
5707.1,0.74422
5703.24,0.74321
5699.39,0.74097
5695.53,0.73936
5691.67,0.74227
5687.81,0.73997
5683.96,0.74178
5680.1,0.74641
5676.24,0.74714
5672.38,0.74351
5668.53,0.74878
5664.67,0.74555
5660.81,0.73984
5656.95,0.74117
5653.1,0.74484
5649.24,0.74667
5645.38,0.74820
5641.52,0.74901
5637.67,0.75448
5633.81,0.76047
5629.95,0.75278
5626.09,0.75622
5622.24,0.76541
5618.38,0.76484
5614.52,0.75923
5610.66,0.75412
5606.81,0.75493
5602.95,0.75155
5599.09,0.75589
5595.23,0.75922
5591.38,0.75459
5587.52,0.75535
5583.66,0.75430
5579.8,0.76138
5575.95,0.75506
5572.09,0.75227
5568.23,0.75805
5564.38,0.74960
5560.52,0.75173
5556.66,0.75418
5552.8,0.75253
5548.95,0.74771
5545.09,0.74548
5541.23,0.74981
5537.37,0.76120
5533.52,0.75460
5529.66,0.74337
5525.8,0.74519
5521.94,0.74825
5518.09,0.75387
5514.23,0.75278
5510.37,0.75083
5506.51,0.75024
5502.66,0.75004
5498.8,0.75357
5494.94,0.75260
5491.08,0.73813
5487.23,0.73626
5483.37,0.74532
5479.51,0.74477
5475.65,0.73793
5471.8,0.75105
5467.94,0.74694
5464.08,0.73979
5460.22,0.74745
5456.37,0.75896
5452.51,0.75835
5448.65,0.75864
5444.79,0.76777
5440.94,0.77092
5437.08,0.76260
5433.22,0.76761
5429.36,0.76185
5425.51,0.76804
5421.65,0.77846
5417.79,0.76652
5413.93,0.75411
5410.08,0.75636
5406.22,0.75948
5402.36,0.75309
5398.5,0.76092
5394.65,0.76685
5390.79,0.77103
5386.93,0.76276
5383.07,0.75466
5379.22,0.75572
5375.36,0.75886
5371.5,0.76315
5367.65,0.76232
5363.79,0.76241
5359.93,0.76984
5356.07,0.75225
5352.22,0.74122
5348.36,0.75239
5344.5,0.75045
5340.64,0.74799
5336.79,0.74937
5332.93,0.75370
5329.07,0.76062
5325.21,0.76520
5321.36,0.75831
5317.5,0.74921
5313.64,0.75352
5309.78,0.75370
5305.93,0.75608
5302.07,0.75929
5298.21,0.75403
5294.35,0.76026
5290.5,0.75470
5286.64,0.74574
5282.78,0.73989
5278.92,0.73738
5275.07,0.73610
5271.21,0.72505
5267.35,0.71784
5263.49,0.70447
5259.64,0.71217
5255.78,0.71475
5251.92,0.71156
5248.06,0.69836
5244.21,0.70500
5240.35,0.70990
5236.49,0.71204
5232.63,0.70807
5228.78,0.71177
5224.92,0.71633
5221.06,0.72593
5217.2,0.73259
5213.35,0.73048
5209.49,0.72531
5205.63,0.72104
5201.77,0.73201
5197.92,0.73811
5194.06,0.73954
5190.2,0.74218
5186.34,0.73986
5182.49,0.73715
5178.63,0.73698
5174.77,0.73345
5170.91,0.73419
5167.06,0.74018
5163.2,0.73684
5159.34,0.73468
5155.49,0.72656
5151.63,0.72951
5147.77,0.73948
5143.91,0.73339
5140.06,0.73174
5136.2,0.73366
5132.34,0.72848
5128.48,0.73486
5124.63,0.73325
5120.77,0.72046
5116.91,0.71964
5113.05,0.72503
5109.2,0.73008
5105.34,0.73386
5101.48,0.73484
5097.62,0.73640
5093.77,0.74199
5089.91,0.74777
5086.05,0.75906
5082.19,0.75674
5078.34,0.75347
5074.48,0.76029
5070.62,0.75815
5066.76,0.75858
5062.91,0.76066
5059.05,0.75560
5055.19,0.75390
5051.33,0.76053
5047.48,0.75575
5043.62,0.75620
5039.76,0.75927
5035.9,0.76081
5032.05,0.75937
5028.19,0.75734
5024.33,0.76099
5020.47,0.75222
5016.62,0.75542
5012.76,0.75370
5008.9,0.75484
5005.04,0.75640
5001.19,0.75571
4997.33,0.75178
4993.47,0.75361
4989.61,0.75791
4985.76,0.75942
4981.9,0.75742
4978.04,0.75776
4974.18,0.75149
4970.33,0.75466
4966.47,0.75859
4962.61,0.75798
4958.76,0.75776
4954.9,0.75765
4951.04,0.75535
4947.18,0.75568
4943.33,0.75234
4939.47,0.75075
4935.61,0.74947
4931.75,0.74603
4927.9,0.75051
4924.04,0.75107
4920.18,0.74718
4916.32,0.74607
4912.47,0.74629
4908.61,0.74601
4904.75,0.74780
4900.89,0.74645
4897.04,0.74185
4893.18,0.74271
4889.32,0.74049
4885.46,0.73969
4881.61,0.73944
4877.75,0.74174
4873.89,0.74232
4870.03,0.73887
4866.18,0.74589
4862.32,0.74275
4858.46,0.74153
4854.6,0.73665
4850.75,0.73840
4846.89,0.73823
4843.03,0.74121
4839.17,0.73608
4835.32,0.72747
4831.46,0.72131
4827.6,0.72114
4823.74,0.72310
4819.89,0.71827
4816.03,0.71631
4812.17,0.71350
4808.31,0.71498
4804.46,0.71583
4800.6,0.71285
4796.74,0.71168
4792.88,0.70821
4789.03,0.71272
4785.17,0.71131
4781.31,0.71046
4777.45,0.70919
4773.6,0.71041
4769.74,0.71240
4765.88,0.71647
4762.02,0.71315
4758.17,0.70633
4754.31,0.70347
4750.45,0.70001
4746.6,0.69546
4742.74,0.69213
4738.88,0.68898
4735.02,0.68396
4731.17,0.67658
4727.31,0.67078
4723.45,0.65754
4719.59,0.65149
4715.74,0.64699
4711.88,0.64835
4708.02,0.64343
4704.16,0.63742
4700.31,0.62920
4696.45,0.62153
4692.59,0.61451
4688.73,0.61122
4684.88,0.61663
4681.02,0.62711
4677.16,0.63711
4673.3,0.64531
4669.45,0.65200
4665.59,0.65676
4661.73,0.65694
4657.87,0.65945
4654.02,0.65613
4650.16,0.65305
4646.3,0.64442
4642.44,0.63892
4638.59,0.63050
4634.73,0.62749
4630.87,0.63193
4627.01,0.64131
4623.16,0.65658
4619.3,0.66599
4615.44,0.67558
4611.58,0.68167
4607.73,0.68018
4603.87,0.67733
4600.01,0.67332
4596.15,0.66462
4592.3,0.66057
4588.44,0.65850
4584.58,0.65075
4580.72,0.64573
4576.87,0.64729
4573.01,0.65779
4569.15,0.67086
4565.29,0.68013
4561.44,0.68392
4557.58,0.68783
4553.72,0.68889
4549.87,0.69023
4546.01,0.69075
4542.15,0.69044
4538.29,0.68749
4534.44,0.68552
4530.58,0.68900
4526.72,0.68320
4522.86,0.68091
4519.01,0.67777
4515.15,0.67524
4511.29,0.67272
4507.43,0.66643
4503.58,0.65995
4499.72,0.65138
4495.86,0.64072
4492,0.62932
4488.15,0.62248
4484.29,0.61766
4480.43,0.61427
4476.57,0.60789
4472.72,0.60022
4468.86,0.58895
4465,0.57363
4461.14,0.56102
4457.29,0.55304
4453.43,0.55422
4449.57,0.55573
4445.71,0.55475
4441.86,0.55036
4438,0.54731
4434.14,0.54366
4430.28,0.54305
4426.43,0.54726
4422.57,0.55757
4418.71,0.56358
4414.85,0.56812
4411,0.57143
4407.14,0.56919
4403.28,0.57081
4399.42,0.57622
4395.57,0.58067
4391.71,0.58264
4387.85,0.58538
4383.99,0.58846
4380.14,0.59355
4376.28,0.59305
4372.42,0.59196
4368.56,0.59144
4364.71,0.58827
4360.85,0.58625
4356.99,0.58742
4353.14,0.58767
4349.28,0.58720
4345.42,0.58480
4341.56,0.58179
4337.71,0.57848
4333.85,0.57749
4329.99,0.57758
4326.13,0.57703
4322.28,0.57638
4318.42,0.57606
4314.56,0.57223
4310.7,0.56942
4306.85,0.56348
4302.99,0.55805
4299.13,0.55558
4295.27,0.55216
4291.42,0.55078
4287.56,0.55096
4283.7,0.55498
4279.84,0.55689
4275.99,0.55810
4272.13,0.56163
4268.27,0.56338
4264.41,0.56645
4260.56,0.56750
4256.7,0.56633
4252.84,0.56693
4248.98,0.56432
4245.13,0.56310
4241.27,0.56420
4237.41,0.56536
4233.55,0.56801
4229.7,0.56642
4225.84,0.56455
4221.98,0.56633
4218.12,0.56974
4214.27,0.57525
4210.41,0.57827
4206.55,0.57763
4202.69,0.57966
4198.84,0.57946
4194.98,0.57759
4191.12,0.57808
4187.26,0.57541
4183.41,0.56951
4179.55,0.56367
4175.69,0.56363
4171.83,0.56804
4167.98,0.57290
4164.12,0.57757
4160.26,0.58185
4156.4,0.58470
4152.55,0.58568
4148.69,0.58733
4144.83,0.58391
4140.98,0.57761
4137.12,0.57307
4133.26,0.56869
4129.4,0.56860
4125.55,0.56739
4121.69,0.56733
4117.83,0.56589
4113.97,0.56206
4110.12,0.55468
4106.26,0.54507
4102.4,0.53781
4098.54,0.52383
4094.69,0.50234
4090.83,0.49249
4086.97,0.49793
4083.11,0.51085
4079.26,0.52532
4075.4,0.54062
4071.54,0.55260
4067.68,0.56059
4063.83,0.56525
4059.97,0.56839
4056.11,0.57348
4052.25,0.57513
4048.4,0.57729
4044.54,0.57775
4040.68,0.58359
4036.82,0.58568
4032.97,0.58858
4029.11,0.59142
4025.25,0.59132
4021.39,0.59144
4017.54,0.59119
4013.68,0.59357
4009.82,0.59005
4005.96,0.59064
4002.11,0.59365
3998.25,0.59454
3994.39,0.59607
3990.53,0.59837
3986.68,0.60055
3982.82,0.60174
3978.96,0.60060
3975.1,0.59965
3971.25,0.59906
3967.39,0.60035
3963.53,0.60060
3959.67,0.60219
3955.82,0.60514
3951.96,0.60779
3948.1,0.60702
3944.25,0.60761
3940.39,0.60975
3936.53,0.61017
3932.67,0.60868
3928.82,0.60981
3924.96,0.61191
3921.1,0.60965
3917.24,0.60862
3913.39,0.61332
3909.53,0.61328
3905.67,0.61403
3901.81,0.61431
3897.96,0.62064
3894.1,0.62413
3890.24,0.62680
3886.38,0.62650
3882.53,0.63021
3878.67,0.63009
3874.81,0.62834
3870.95,0.62679
3867.1,0.62925
3863.24,0.63162
3859.38,0.62581
3855.52,0.62082
3851.67,0.62840
3847.81,0.62773
3843.95,0.62935
3840.09,0.63493
3836.24,0.63474
3832.38,0.63085
3828.52,0.63027
3824.66,0.63029
3820.81,0.62708
3816.95,0.62342
3813.09,0.61739
3809.23,0.61288
3805.38,0.61186
3801.52,0.61588
3797.66,0.62177
3793.8,0.62713
3789.95,0.62827
3786.09,0.62897
3782.23,0.62775
3778.37,0.62615
3774.52,0.62055
3770.66,0.61847
3766.8,0.61282
3762.94,0.60716
3759.09,0.60410
3755.23,0.60057
3751.37,0.60498
3747.51,0.60613
3743.66,0.60381
3739.8,0.60765
3735.94,0.60571
3732.09,0.60042
3728.23,0.59993
3724.37,0.60642
3720.51,0.61469
3716.66,0.61471
3712.8,0.61723
3708.94,0.61135
3705.08,0.59754
3701.23,0.58738
3697.37,0.57708
3693.51,0.56771
3689.65,0.55068
3685.8,0.52910
3681.94,0.52463
3678.08,0.52424
3674.22,0.51811
3670.37,0.51282
3666.51,0.50132
3662.65,0.49126
3658.79,0.48321
3654.94,0.47328
3651.08,0.47183
3647.22,0.46367
3643.36,0.45139
3639.51,0.44704
3635.65,0.44048
3631.79,0.43592
3627.93,0.43730
3624.08,0.43471
3620.22,0.43780
3616.36,0.44120
3612.5,0.44065
3608.65,0.44187
3604.79,0.44489
3600.93,0.44841
3597.07,0.44932
3593.22,0.44811
3589.36,0.44788
3585.5,0.44406
3581.64,0.43877
3577.79,0.43342
3573.93,0.42652
3570.07,0.42177
3566.21,0.41877
3562.36,0.41033
3558.5,0.40318
3554.64,0.40078
3550.78,0.40029
3546.93,0.40012
3543.07,0.40296
3539.21,0.40426
3535.36,0.40715
3531.5,0.41129
3527.64,0.41484
3523.78,0.41956
3519.93,0.42304
3516.07,0.42676
3512.21,0.43100
3508.35,0.43304
3504.5,0.43362
3500.64,0.43492
3496.78,0.43637
3492.92,0.43699
3489.07,0.43742
3485.21,0.43776
3481.35,0.43674
3477.49,0.43516
3473.64,0.43170
3469.78,0.42728
3465.92,0.42326
3462.06,0.41536
3458.21,0.40670
3454.35,0.39964
3450.49,0.39278
3446.63,0.38329
3442.78,0.37042
3438.92,0.35793
3435.06,0.34412
3431.2,0.33654
3427.35,0.34533
3423.49,0.36094
3419.63,0.38083
3415.77,0.39686
3411.92,0.41002
3408.06,0.42221
3404.2,0.42993
3400.34,0.43702
3396.49,0.43997
3392.63,0.44460
3388.77,0.44930
3384.91,0.45252
3381.06,0.45331
3377.2,0.45377
3373.34,0.45414
3369.48,0.45462
3365.63,0.45349
3361.77,0.45095
3357.91,0.44848
3354.05,0.44522
3350.2,0.44242
3346.34,0.43755
3342.48,0.43337
3338.63,0.43005
3334.77,0.43003
3330.91,0.43348
3327.05,0.43739
3323.2,0.44101
3319.34,0.44403
3315.48,0.44443
3311.62,0.44343
3307.77,0.44283
3303.91,0.44274
3300.05,0.44291
3296.19,0.44349
3292.34,0.44554
3288.48,0.44889
3284.62,0.45075
3280.76,0.45256
3276.91,0.45279
3273.05,0.45506
3269.19,0.45647
3265.33,0.45632
3261.48,0.45696
3257.62,0.45787
3253.76,0.45656
3249.9,0.45685
3246.05,0.45516
3242.19,0.45394
3238.33,0.45426
3234.47,0.45293
3230.62,0.45406
3226.76,0.45583
3222.9,0.45840
3219.04,0.45856
3215.19,0.46035
3211.33,0.46278
3207.47,0.46522
3203.61,0.46414
3199.76,0.46109
3195.9,0.46229
3192.04,0.46339
3188.18,0.46245
3184.33,0.46098
3180.47,0.46251
3176.61,0.46282
3172.75,0.46326
3168.9,0.46276
3165.04,0.46063
3161.18,0.45946
3157.32,0.45729
3153.47,0.45611
3149.61,0.45304
3145.75,0.44917
3141.89,0.44590
3138.04,0.44071
3134.18,0.43417
3130.32,0.42836
3126.47,0.42671
3122.61,0.42706
3118.75,0.42548
3114.89,0.42025
3111.04,0.41214
3107.18,0.40109
3103.32,0.39404
3099.46,0.39635
3095.61,0.40298
3091.75,0.40366
3087.89,0.39565
3084.03,0.38623
3080.18,0.37909
3076.32,0.37794
3072.46,0.37638
3068.6,0.37280
3064.75,0.37344
3060.89,0.37033
3057.03,0.35833
3053.17,0.35799
3049.32,0.37878
3045.46,0.40338
3041.6,0.41701
3037.74,0.41951
3033.89,0.41567
3030.03,0.40563
3026.17,0.39357
3022.31,0.37391
3018.46,0.34868
3014.6,0.32912
3010.74,0.32342
3006.88,0.32243
3003.03,0.31939
2999.17,0.31510
2995.31,0.30869
2991.45,0.30029
2987.6,0.28729
2983.74,0.26983
2979.88,0.24972
2976.02,0.22705
2972.17,0.21060
2968.31,0.21072
2964.45,0.22285
2960.59,0.23523
2956.74,0.24895
2952.88,0.26613
2949.02,0.28637
2945.16,0.30914
2941.31,0.32977
2937.45,0.34537
2933.59,0.35357
2929.74,0.35552
2925.88,0.35062
2922.02,0.34180
2918.16,0.32673
2914.31,0.30306
2910.45,0.27900
2906.59,0.27441
2902.73,0.29558
2898.88,0.31914
2895.02,0.33041
2891.16,0.33452
2887.3,0.33800
2883.45,0.34471
2879.59,0.35374
2875.73,0.35958
2871.87,0.36359
2868.02,0.36717
2864.16,0.37159
2860.3,0.37683
2856.44,0.38424
2852.59,0.39403
2848.73,0.40857
2844.87,0.42489
2841.01,0.43909
2837.16,0.44968
2833.3,0.45816
2829.44,0.46522
2825.58,0.47101
2821.73,0.47281
2817.87,0.47023
2814.01,0.46631
2810.15,0.46490
2806.3,0.46339
2802.44,0.46508
2798.58,0.47277
2794.72,0.48026
2790.87,0.48584
2787.01,0.49095
2783.15,0.49583
2779.29,0.49969
2775.44,0.50312
2771.58,0.50509
2767.72,0.50665
2763.86,0.50805
2760.01,0.50855
2756.15,0.50792
2752.29,0.50748
2748.43,0.50656
2744.58,0.50639
2740.72,0.50984
2736.86,0.51529
2733.01,0.52097
2729.15,0.52632
2725.29,0.53090
2721.43,0.53429
2717.58,0.53628
2713.72,0.53932
2709.86,0.54222
2706,0.54545
2702.15,0.54852
2698.29,0.55080
2694.43,0.55240
2690.57,0.55325
2686.72,0.55321
2682.86,0.55243
2679,0.55300
2675.14,0.55381
2671.29,0.55527
2667.43,0.55585
2663.57,0.55495
2659.71,0.55314
2655.86,0.55111
2652,0.54741
2648.14,0.54314
2644.28,0.53709
2640.43,0.52904
2636.57,0.52042
2632.71,0.51441
2628.85,0.51333
2625,0.51478
2621.14,0.51744
2617.28,0.51728
2613.42,0.51643
2609.57,0.51556
2605.71,0.51405
2601.85,0.51172
2597.99,0.50714
2594.14,0.50209
2590.28,0.49824
2586.42,0.49552
2582.56,0.49367
2578.71,0.49355
2574.85,0.49462
2570.99,0.49431
2567.13,0.49189
2563.28,0.49063
2559.42,0.49058
2555.56,0.48957
2551.7,0.48840
2547.85,0.48747
2543.99,0.48623
2540.13,0.48557
2536.27,0.48520
2532.42,0.48600
2528.56,0.48778
2524.7,0.49097
2520.85,0.49558
2516.99,0.49860
2513.13,0.50093
2509.27,0.50224
2505.42,0.50261
2501.56,0.50317
2497.7,0.50450
2493.84,0.50760
2489.99,0.51198
2486.13,0.51662
2482.27,0.52136
2478.41,0.52598
2474.56,0.52962
2470.7,0.53263
2466.84,0.53320
2462.98,0.53338
2459.13,0.53419
2455.27,0.53295
2451.41,0.53131
2447.55,0.52933
2443.7,0.52456
2439.84,0.51844
2435.98,0.51111
2432.12,0.50420
2428.27,0.49717
2424.41,0.48956
2420.55,0.48165
2416.69,0.47517
2412.84,0.46912
2408.98,0.46293
2405.12,0.45711
2401.26,0.45283
2397.41,0.44813
2393.55,0.44427
2389.69,0.44107
2385.83,0.43622
2381.98,0.43010
2378.12,0.42498
2374.26,0.41919
2370.4,0.41251
2366.55,0.40588
2362.69,0.40268
2358.83,0.40882
2354.97,0.42924
2351.12,0.42988
2347.26,0.43500
2343.4,0.44354
2339.54,0.43973
2335.69,0.44197
2331.83,0.44777
2327.97,0.45390
2324.12,0.46042
2320.26,0.47175
2316.4,0.47771
2312.54,0.48026
2308.69,0.48047
2304.83,0.47919
2300.97,0.47493
2297.11,0.46782
2293.26,0.46085
2289.4,0.45632
2285.54,0.45418
2281.68,0.45500
2277.83,0.45653
2273.97,0.45545
2270.11,0.45314
2266.25,0.45081
2262.4,0.44898
2258.54,0.44897
2254.68,0.45057
2250.82,0.45450
2246.97,0.46044
2243.11,0.46611
2239.25,0.47106
2235.39,0.47463
2231.54,0.47704
2227.68,0.47887
2223.82,0.48048
2219.96,0.48160
2216.11,0.48313
2212.25,0.48460
2208.39,0.48738
2204.53,0.49222
2200.68,0.49657
2196.82,0.49873
2192.96,0.49837
2189.1,0.49695
2185.25,0.49396
2181.39,0.48932
2177.53,0.48358
2173.67,0.47624
2169.82,0.46796
2165.96,0.45969
2162.1,0.45042
2158.24,0.44010
2154.39,0.42982
2150.53,0.42069
2146.67,0.41394
2142.81,0.40785
2138.96,0.40304
2135.1,0.39829
2131.24,0.39192
2127.38,0.38396
2123.53,0.37651
2119.67,0.37001
2115.81,0.36551
2111.96,0.36414
2108.1,0.36435
2104.24,0.36593
2100.38,0.36757
2096.53,0.36963
2092.67,0.37255
2088.81,0.37713
2084.95,0.38425
2081.1,0.39222
2077.24,0.40104
2073.38,0.40976
2069.52,0.41862
2065.67,0.42886
2061.81,0.43920
2057.95,0.44904
2054.09,0.45807
2050.24,0.46437
2046.38,0.46856
2042.52,0.47108
2038.66,0.47023
2034.81,0.46829
2030.95,0.46452
2027.09,0.45757
2023.23,0.44919
2019.38,0.44153
2015.52,0.43327
2011.66,0.42479
2007.8,0.41617
2003.95,0.40759
2000.09,0.39844
1996.23,0.38948
1992.37,0.38223
1988.52,0.37243
1984.66,0.36272
1980.8,0.35476
1976.94,0.34383
1973.09,0.33132
1969.23,0.31705
1965.37,0.29709
1961.51,0.28228
1957.66,0.28326
1953.8,0.29382
1949.94,0.30514
1946.08,0.31830
1942.23,0.33195
1938.37,0.34121
1934.51,0.35254
1930.65,0.36250
1926.8,0.37170
1922.94,0.38233
1919.08,0.38901
1915.23,0.39326
1911.37,0.39870
1907.51,0.40374
1903.65,0.40563
1899.8,0.40847
1895.94,0.41160
1892.08,0.41331
1888.22,0.41400
1884.37,0.41053
1880.51,0.40774
1876.65,0.40354
1872.79,0.40023
1868.94,0.40082
1865.08,0.38443
1861.22,0.37053
1857.36,0.35787
1853.51,0.34206
1849.65,0.32686
1845.79,0.31537
1841.93,0.29706
1838.08,0.28290
1834.22,0.27194
1830.36,0.26893
1826.5,0.26272
1822.65,0.25727
1818.79,0.25487
1814.93,0.25410
1811.07,0.25386
1807.22,0.24961
1803.36,0.24851
1799.5,0.24751
1795.64,0.24425
1791.79,0.24202
1787.93,0.23009
1784.07,0.22259
1780.21,0.21451
1776.36,0.20597
1772.5,0.20028
1768.64,0.17900
1764.78,0.16246
1760.93,0.14575
1757.07,0.12202
1753.21,0.09931
1749.35,0.07142
1745.5,0.04246
1741.64,0.02806
1737.78,0.02320
1733.92,0.02508
1730.07,0.02488
1726.21,0.02576
1722.35,0.02842
1718.5,0.03529
1714.64,0.04608
1710.78,0.05766
1706.92,0.07710
1703.07,0.10086
1699.21,0.12731
1695.35,0.14431
1691.49,0.14836
1687.64,0.15447
1683.78,0.16314
1679.92,0.16645
1676.06,0.17909
1672.21,0.19452
1668.35,0.20925
1664.49,0.21885
1660.63,0.23138
1656.78,0.23971
1652.92,0.25949
1649.06,0.26039
1645.2,0.25905
1641.35,0.25047
1637.49,0.26176
1633.63,0.25948
1629.77,0.25447
1625.92,0.25905
1622.06,0.25597
1618.2,0.24989
1614.34,0.23836
1610.49,0.24148
1606.63,0.25641
1602.77,0.26615
1598.91,0.27378
1595.06,0.27566
1591.2,0.26644
1587.34,0.24882
1583.48,0.21697
1579.63,0.19264
1575.77,0.20815
1571.91,0.22922
1568.05,0.25147
1564.2,0.25745
1560.34,0.27570
1556.48,0.27624
1552.62,0.26031
1548.77,0.25548
1544.91,0.26310
1541.05,0.28494
1537.19,0.26216
1533.34,0.25216
1529.48,0.24184
1525.62,0.24050
1521.76,0.24616
1517.91,0.23979
1514.05,0.21345
1510.19,0.17994
1506.34,0.13780
1502.48,0.14640
1498.62,0.20688
1494.76,0.24846
1490.91,0.25412
1487.05,0.23384
1483.19,0.20555
1479.33,0.18172
1475.48,0.16151
1471.62,0.14330
1467.76,0.14480
1463.9,0.14967
1460.05,0.14870
1456.19,0.14516
1452.33,0.13440
1448.47,0.13773
1444.62,0.13994
1440.76,0.14107
1436.9,0.14849
1433.04,0.15500
1429.19,0.15596
1425.33,0.14553
1421.47,0.12242
1417.61,0.07937
1413.76,0.04953
1409.9,0.04701
1406.04,0.06308
1402.18,0.08434
1398.33,0.09962
1394.47,0.10346
1390.61,0.09762
1386.75,0.09115
1382.9,0.08860
1379.04,0.08986
1375.18,0.08869
1371.32,0.08250
1367.47,0.08241
1363.61,0.08596
1359.75,0.08152
1355.89,0.07000
1352.04,0.05625
1348.18,0.04609
1344.32,0.04298
1340.46,0.04721
1336.61,0.06165
1332.75,0.08254
1328.89,0.09217
1325.03,0.08375
1321.18,0.06959
1317.32,0.05574
1313.46,0.04431
1309.61,0.03587
1305.75,0.03056
1301.89,0.02737
1298.03,0.02655
1294.18,0.02713
1290.32,0.02941
1286.46,0.03285
1282.6,0.03672
1278.75,0.04091
1274.89,0.04332
1271.03,0.04599
1267.17,0.04675
1263.32,0.04737
1259.46,0.04795
1255.6,0.04824
1251.74,0.04849
1247.89,0.04748
1244.03,0.04453
1240.17,0.04613
1236.31,0.05804
1232.46,0.08189
1228.6,0.10820
1224.74,0.12801
1220.88,0.14953
1217.03,0.17218
1213.17,0.18477
1209.31,0.19643
1205.45,0.21181
1201.6,0.22684
1197.74,0.23749
1193.88,0.24171
1190.02,0.23493
1186.17,0.21936
1182.31,0.19869
1178.45,0.17783
1174.59,0.16309
1170.74,0.15542
1166.88,0.14467
1163.02,0.12686
1159.16,0.10615
1155.31,0.08569
1151.45,0.06565
1147.59,0.05034
1143.73,0.03890
1139.88,0.03499
1136.02,0.03637
1132.16,0.04020
1128.3,0.04215
1124.45,0.04277
1120.59,0.04220
1116.73,0.04312
1112.88,0.04458
1109.02,0.04736
1105.16,0.04923
1101.3,0.05066
1097.45,0.05896
1093.59,0.07063
1089.73,0.08658
1085.87,0.10816
1082.02,0.13862
1078.16,0.17839
1074.3,0.21627
1070.44,0.24121
1066.59,0.25752
1062.73,0.26546
1058.87,0.26399
1055.01,0.25134
1051.16,0.23215
1047.3,0.21296
1043.44,0.20103
1039.58,0.19686
1035.73,0.18938
1031.87,0.16617
1028.01,0.11461
1024.15,0.07545
1020.3,0.08334
1016.44,0.12503
1012.58,0.20824
1008.72,0.27444
1004.87,0.30619
1001.01,0.31605
997.151,0.31530
993.294,0.30062
989.437,0.27712
985.579,0.26466
981.722,0.23532
977.864,0.19345
974.007,0.16600
970.149,0.17215
966.292,0.20995
962.434,0.25254
958.577,0.28725
954.719,0.31354
950.862,0.32959
947.005,0.34028
943.147,0.34574
939.29,0.34666
935.432,0.34599
931.575,0.34594
927.717,0.34346
923.86,0.33898
920.002,0.33049
916.145,0.31876
912.287,0.29961
908.43,0.27477
904.573,0.25171
900.715,0.23903
896.858,0.23570
893,0.23389
889.143,0.22822
885.285,0.21365
881.428,0.19219
877.57,0.16404
873.713,0.14289
869.856,0.16839
865.998,0.19764
862.141,0.19789
858.283,0.18051
854.426,0.16202
850.568,0.14744
846.711,0.15339
842.853,0.17801
838.996,0.20169
835.138,0.22061
831.281,0.23752
827.424,0.24739
823.566,0.25188
819.709,0.25332
815.851,0.25111
811.994,0.24784
808.136,0.24273
804.279,0.23486
800.421,0.22814
796.564,0.20584
792.706,0.19482
788.849,0.21526
784.992,0.23583
781.134,0.24756
777.277,0.25317
773.419,0.25275
769.562,0.25768
765.704,0.26072
761.847,0.25711
757.989,0.24811
754.132,0.23350
750.274,0.21281
746.417,0.18172
742.56,0.13210
738.702,0.07945
734.845,0.05080
730.987,0.04783
727.13,0.06150
723.272,0.10526
719.415,0.17027
715.557,0.20786
711.7,0.21673
707.843,0.21903
703.985,0.22646
700.128,0.24465
696.27,0.26529
692.413,0.27193
688.555,0.26709
684.698,0.25783
680.84,0.24616
676.983,0.24432
673.125,0.24645
669.268,0.26870
665.411,0.26876
661.553,0.26460
657.696,0.26007
653.838,0.26197
649.981,0.27066
646.123,0.27052
642.266,0.27209
638.408,0.26723
634.551,0.24298
630.693,0.23378
626.836,0.25357
622.979,0.25980
619.121,0.25609
615.264,0.25097
611.406,0.25073
607.549,0.25116
603.691,0.24804
599.834,0.24719
595.976,0.24541
592.119,0.24917
588.261,0.24907
584.404,0.24463
580.547,0.24063
576.689,0.23332
572.832,0.22733
568.974,0.22048
565.117,0.21365
561.259,0.20629
557.402,0.19624
553.544,0.19148
549.687,0.18469
545.83,0.17681
541.972,0.17016
538.115,0.16375
534.257,0.15247
530.4,0.14118
526.542,0.12860
522.685,0.12120
518.827,0.12162
514.97,0.11498
511.112,0.09875
507.255,0.08476
503.398,0.09004
499.54,0.09842
495.683,0.10555
491.825,0.11330
487.968,0.11708
484.11,0.12283
480.253,0.11578
476.395,0.11512
472.538,0.12258
468.68,0.12322
464.823,0.11717
460.966,0.11115
457.108,0.11995
453.251,0.10402
449.393,0.08488
445.536,0.06800
441.678,0.05654
437.821,0.05059
433.963,0.04596
430.106,0.06031
426.248,0.07179
422.391,0.08302
418.534,0.08962
414.676,0.08071
410.819,0.07563
406.961,0.06583
403.104,0.05411
399.246,0.04237