File: 01_Data/Overstuffed_Chair_Polyester_Fabric/FTIR/IS/Overstuffed_Chair_Polyester_Fabric_IS_T_221019_R2.dpt
7497.03,0.03114
7491.24,0.02811
7485.46,0.02408
7479.67,0.01960
7473.88,0.02945
7468.1,0.01782
7462.31,0.02606
7456.53,0.02749
7450.74,0.02857
7444.95,0.02412
7439.17,0.02088
7433.38,0.02342
7427.59,0.03061
7421.81,0.01683
7416.02,0.02575
7410.24,0.03234
7404.45,0.02309
7398.66,0.02623
7392.88,0.02963
7387.09,0.02105
7381.31,0.02387
7375.52,0.02232
7369.73,0.03021
7363.95,0.03233
7358.16,0.02559
7352.37,0.02512
7346.59,0.02476
7340.8,0.02054
7335.02,0.02304
7329.23,0.02482
7323.44,0.03051
7317.66,0.02284
7311.87,0.02725
7306.08,0.02508
7300.3,0.03459
7294.51,0.02574
7288.73,0.02848
7282.94,0.02796
7277.15,0.02767
7271.37,0.01825
7265.58,0.02464
7259.79,0.02647
7254.01,0.02868
7248.22,0.01886
7242.44,0.01609
7236.65,0.03112
7230.86,0.02896
7225.08,0.02247
7219.29,0.02449
7213.5,0.02138
7207.72,0.01787
7201.93,0.02317
7196.15,0.02067
7190.36,0.01401
7184.57,0.01764
7178.79,0.02811
7173,0.02459
7167.21,0.03199
7161.43,0.02762
7155.64,0.02609
7149.86,0.02243
7144.07,0.02634
7138.28,0.02414
7132.5,0.02255
7126.71,0.02105
7120.92,0.01760
7115.14,0.02557
7109.35,0.02559
7103.57,0.02624
7097.78,0.02061
7091.99,0.02199
7086.21,0.02885
7080.42,0.02916
7074.63,0.02293
7068.85,0.02523
7063.06,0.02579
7057.28,0.02453
7051.49,0.01607
7045.7,0.01849
7039.92,0.02694
7034.13,0.02832
7028.34,0.02229
7022.56,0.02434
7016.77,0.02260
7010.99,0.01927
7005.2,0.02151
6999.41,0.02541
6993.63,0.02551
6987.84,0.02489
6982.06,0.02050
6976.27,0.01977
6970.48,0.01828
6964.7,0.01801
6958.91,0.02550
6953.12,0.02708
6947.34,0.02278
6941.55,0.02029
6935.77,0.02061
6929.98,0.02118
6924.19,0.01693
6918.41,0.02240
6912.62,0.02629
6906.83,0.02735
6901.05,0.02809
6895.26,0.02633
6889.48,0.02430
6883.69,0.02408
6877.9,0.02601
6872.12,0.02522
6866.33,0.02302
6860.54,0.02735
6854.76,0.02619
6848.97,0.02254
6843.19,0.02637
6837.4,0.02412
6831.61,0.02623
6825.83,0.02032
6820.04,0.02579
6814.25,0.02222
6808.47,0.01952
6802.68,0.02102
6796.9,0.02434
6791.11,0.02105
6785.32,0.02188
6779.54,0.02594
6773.75,0.02746
6767.96,0.02656
6762.18,0.02318
6756.39,0.01855
6750.61,0.02281
6744.82,0.02672
6739.03,0.02445
6733.25,0.02404
6727.46,0.02481
6721.67,0.02589
6715.89,0.02274
6710.1,0.01872
6704.32,0.02212
6698.53,0.02424
6692.74,0.02780
6686.96,0.02088
6681.17,0.01768
6675.38,0.01977
6669.6,0.02316
6663.81,0.02591
6658.03,0.02531
6652.24,0.01979
6646.45,0.02216
6640.67,0.01754
6634.88,0.02109
6629.09,0.02412
6623.31,0.02614
6617.52,0.02391
6611.74,0.02427
6605.95,0.02357
6600.16,0.02486
6594.38,0.02433
6588.59,0.02136
6582.8,0.02386
6577.02,0.02182
6571.23,0.02042
6565.45,0.02311
6559.66,0.02299
6553.87,0.02278
6548.09,0.01706
6542.3,0.01774
6536.52,0.02846
6530.73,0.02261
6524.94,0.02462
6519.16,0.01975
6513.37,0.02413
6507.58,0.02409
6501.8,0.02274
6496.01,0.01893
6490.23,0.02258
6484.44,0.02349
6478.65,0.02061
6472.87,0.02463
6467.08,0.02239
6461.29,0.02466
6455.51,0.02665
6449.72,0.02272
6443.94,0.02358
6438.15,0.01870
6432.36,0.02225
6426.58,0.01926
6420.79,0.02138
6415,0.02061
6409.22,0.02513
6403.43,0.02318
6397.65,0.02097
6391.86,0.02049
6386.07,0.01878
6380.29,0.02141
6374.5,0.02274
6368.71,0.01839
6362.93,0.02290
6357.14,0.02010
6351.36,0.01647
6345.57,0.01998
6339.78,0.02362
6334,0.02129
6328.21,0.02093
6322.42,0.02294
6316.64,0.02393
6310.85,0.02294
6305.07,0.02307
6299.28,0.01907
6293.49,0.02314
6287.71,0.02053
6281.92,0.02417
6276.13,0.02061
6270.35,0.01832
6264.56,0.01997
6258.78,0.02436
6252.99,0.02265
6247.2,0.02436
6241.42,0.02257
6235.63,0.02314
6229.84,0.02080
6224.06,0.02497
6218.27,0.02281
6212.49,0.02112
6206.7,0.01938
6200.91,0.02219
6195.13,0.02246
6189.34,0.02364
6183.55,0.02182
6177.77,0.02211
6171.98,0.02147
6166.2,0.02141
6160.41,0.02336
6154.62,0.02151
6148.84,0.02069
6143.05,0.02440
6137.26,0.02214
6131.48,0.01891
6125.69,0.02191
6119.91,0.01965
6114.12,0.02289
6108.33,0.02140
6102.55,0.02152
6096.76,0.02192
6090.98,0.02365
6085.19,0.02210
6079.4,0.02276
6073.62,0.02267
6067.83,0.02091
6062.04,0.02075
6056.26,0.02159
6050.47,0.02199
6044.69,0.02236
6038.9,0.02365
6033.11,0.01979
6027.33,0.02247
6021.54,0.02106
6015.75,0.02138
6009.97,0.02266
6004.18,0.02426
5998.4,0.02323
5992.61,0.02193
5986.82,0.02087
5981.04,0.02082
5975.25,0.02155
5969.46,0.02214
5963.68,0.02225
5957.89,0.02051
5952.11,0.02166
5946.32,0.02057
5940.53,0.02102
5934.75,0.02168
5928.96,0.02319
5923.17,0.02103
5917.39,0.02074
5911.6,0.02123
5905.82,0.02141
5900.03,0.02451
5894.24,0.02072
5888.46,0.01939
5882.67,0.02009
5876.88,0.02224
5871.1,0.02214
5865.31,0.02052
5859.53,0.02254
5853.74,0.02254
5847.95,0.02027
5842.17,0.02050
5836.38,0.02188
5830.59,0.02024
5824.81,0.02024
5819.02,0.02082
5813.24,0.02134
5807.45,0.02276
5801.66,0.02242
5795.88,0.02159
5790.09,0.02294
5784.3,0.02247
5778.52,0.02325
5772.73,0.02188
5766.95,0.02341
5761.16,0.02312
5755.37,0.02186
5749.59,0.02203
5743.8,0.02139
5738.01,0.02173
5732.23,0.02187
5726.44,0.02168
5720.66,0.02229
5714.87,0.02299
5709.08,0.02188
5703.3,0.02288
5697.51,0.02263
5691.72,0.02463
5685.94,0.02173
5680.15,0.01978
5674.37,0.02002
5668.58,0.02145
5662.79,0.02114
5657.01,0.02073
5651.22,0.02297
5645.44,0.02262
5639.65,0.02115
5633.86,0.02163
5628.08,0.02267
5622.29,0.02166
5616.5,0.02314
5610.72,0.02162
5604.93,0.02227
5599.15,0.02273
5593.36,0.02289
5587.57,0.01935
5581.79,0.02132
5576,0.02258
5570.21,0.02057
5564.43,0.02212
5558.64,0.02209
5552.86,0.02387
5547.07,0.01968
5541.28,0.02265
5535.5,0.02183
5529.71,0.01954
5523.92,0.02227
5518.14,0.02017
5512.35,0.02199
5506.57,0.02049
5500.78,0.02299
5494.99,0.02167
5489.21,0.02298
5483.42,0.02085
5477.63,0.02100
5471.85,0.02139
5466.06,0.02215
5460.28,0.02301
5454.49,0.02049
5448.7,0.02387
5442.92,0.02142
5437.13,0.02334
5431.34,0.02371
5425.56,0.02045
5419.77,0.02068
5413.99,0.02163
5408.2,0.02174
5402.41,0.02340
5396.63,0.02208
5390.84,0.02257
5385.05,0.02052
5379.27,0.02147
5373.48,0.02190
5367.7,0.02205
5361.91,0.02227
5356.12,0.02172
5350.34,0.02168
5344.55,0.02145
5338.76,0.02145
5332.98,0.02046
5327.19,0.02092
5321.41,0.02119
5315.62,0.02058
5309.83,0.02138
5304.05,0.02184
5298.26,0.02283
5292.47,0.02240
5286.69,0.02095
5280.9,0.02235
5275.12,0.02308
5269.33,0.02296
5263.54,0.02248
5257.76,0.02275
5251.97,0.02419
5246.18,0.02308
5240.4,0.02271
5234.61,0.02226
5228.83,0.02153
5223.04,0.02258
5217.25,0.02191
5211.47,0.02170
5205.68,0.02191
5199.9,0.01905
5194.11,0.02264
5188.32,0.02154
5182.54,0.02276
5176.75,0.02225
5170.96,0.02249
5165.18,0.02200
5159.39,0.02162
5153.61,0.02245
5147.82,0.02278
5142.03,0.02124
5136.25,0.02243
5130.46,0.02188
5124.67,0.02275
5118.89,0.02198
5113.1,0.02111
5107.32,0.02151
5101.53,0.02078
5095.74,0.02206
5089.96,0.02134
5084.17,0.02331
5078.38,0.02140
5072.6,0.02040
5066.81,0.02109
5061.03,0.02114
5055.24,0.02127
5049.45,0.02316
5043.67,0.02372
5037.88,0.02197
5032.09,0.02225
5026.31,0.02313
5020.52,0.02298
5014.74,0.02289
5008.95,0.02248
5003.16,0.02129
4997.38,0.02272
4991.59,0.02211
4985.8,0.02179
4980.02,0.02139
4974.23,0.02183
4968.45,0.02166
4962.66,0.02073
4956.87,0.02295
4951.09,0.02215
4945.3,0.02101
4939.51,0.02126
4933.73,0.02189
4927.94,0.02164
4922.16,0.02186
4916.37,0.02265
4910.58,0.02274
4904.8,0.02232
4899.01,0.02185
4893.22,0.02290
4887.44,0.02132
4881.65,0.02212
4875.87,0.02179
4870.08,0.02253
4864.29,0.02151
4858.51,0.02160
4852.72,0.02064
4846.93,0.02189
4841.15,0.02229
4835.36,0.02157
4829.58,0.02233
4823.79,0.02288
4818,0.02178
4812.22,0.02191
4806.43,0.02125
4800.65,0.02271
4794.86,0.02223
4789.07,0.02218
4783.29,0.02177
4777.5,0.02198
4771.71,0.02188
4765.93,0.02228
4760.14,0.02229
4754.36,0.02125
4748.57,0.02219
4742.78,0.02230
4737,0.02231
4731.21,0.02217
4725.42,0.02237
4719.64,0.02281
4713.85,0.02187
4708.07,0.02176
4702.28,0.02318
4696.49,0.02293
4690.71,0.02320
4684.92,0.02181
4679.13,0.02306
4673.35,0.02275
4667.56,0.02252
4661.78,0.02168
4655.99,0.02218
4650.2,0.02206
4644.42,0.02114
4638.63,0.02137
4632.84,0.02143
4627.06,0.02227
4621.27,0.02193
4615.49,0.02207
4609.7,0.02245
4603.91,0.02205
4598.13,0.02287
4592.34,0.02209
4586.55,0.02338
4580.77,0.02276
4574.98,0.02274
4569.2,0.02210
4563.41,0.02245
4557.62,0.02194
4551.84,0.02198
4546.05,0.02209
4540.26,0.02178
4534.48,0.02263
4528.69,0.02176
4522.91,0.02254
4517.12,0.02270
4511.33,0.02188
4505.55,0.02211
4499.76,0.02214
4493.97,0.02241
4488.19,0.02281
4482.4,0.02340
4476.62,0.02164
4470.83,0.02241
4465.04,0.02310
4459.26,0.02219
4453.47,0.02237
4447.68,0.02190
4441.9,0.02207
4436.11,0.02184
4430.33,0.02214
4424.54,0.02306
4418.75,0.02231
4412.97,0.02196
4407.18,0.02254
4401.39,0.02259
4395.61,0.02247
4389.82,0.02205
4384.04,0.02286
4378.25,0.02233
4372.46,0.02278
4366.68,0.02256
4360.89,0.02199
4355.11,0.02277
4349.32,0.02247
4343.53,0.02230
4337.75,0.02245
4331.96,0.02211
4326.17,0.02217
4320.39,0.02232
4314.6,0.02228
4308.82,0.02232
4303.03,0.02184
4297.24,0.02182
4291.46,0.02231
4285.67,0.02213
4279.88,0.02283
4274.1,0.02157
4268.31,0.02210
4262.53,0.02229
4256.74,0.02256
4250.95,0.02225
4245.17,0.02254
4239.38,0.02215
4233.59,0.02240
4227.81,0.02251
4222.02,0.02243
4216.24,0.02232
4210.45,0.02266
4204.66,0.02250
4198.88,0.02239
4193.09,0.02233
4187.3,0.02248
4181.52,0.02304
4175.73,0.02286
4169.95,0.02229
4164.16,0.02240
4158.37,0.02302
4152.59,0.02226
4146.8,0.02273
4141.01,0.02252
4135.23,0.02280
4129.44,0.02238
4123.66,0.02254
4117.87,0.02287
4112.08,0.02247
4106.3,0.02273
4100.51,0.02255
4094.72,0.02277
4088.94,0.02277
4083.15,0.02278
4077.37,0.02279
4071.58,0.02324
4065.79,0.02248
4060.01,0.02248
4054.22,0.02251
4048.43,0.02232
4042.65,0.02257
4036.86,0.02280
4031.08,0.02253
4025.29,0.02316
4019.5,0.02298
4013.72,0.02279
4007.93,0.02263
4002.14,0.02247
3996.36,0.02270
3990.57,0.02256
3984.79,0.02323
3979,0.02332
3973.21,0.02270
3967.43,0.02264
3961.64,0.02311
3955.85,0.02201
3950.07,0.02264
3944.28,0.02256
3938.5,0.02328
3932.71,0.02266
3926.92,0.02201
3921.14,0.02301
3915.35,0.02236
3909.57,0.02254
3903.78,0.02267
3897.99,0.02299
3892.21,0.02288
3886.42,0.02254
3880.63,0.02215
3874.85,0.02276
3869.06,0.02304
3863.28,0.02304
3857.49,0.02288
3851.7,0.02224
3845.92,0.02177
3840.13,0.02300
3834.34,0.02284
3828.56,0.02304
3822.77,0.02241
3816.99,0.02234
3811.2,0.02293
3805.41,0.02276
3799.63,0.02297
3793.84,0.02297
3788.05,0.02243
3782.27,0.02235
3776.48,0.02272
3770.7,0.02210
3764.91,0.02269
3759.12,0.02272
3753.34,0.02284
3747.55,0.02267
3741.76,0.02285
3735.98,0.02290
3730.19,0.02273
3724.41,0.02287
3718.62,0.02254
3712.83,0.02245
3707.05,0.02196
3701.26,0.02217
3695.47,0.02246
3689.69,0.02250
3683.9,0.02232
3678.12,0.02299
3672.33,0.02241
3666.54,0.02245
3660.76,0.02217
3654.97,0.02238
3649.18,0.02192
3643.4,0.02227
3637.61,0.02223
3631.83,0.02195
3626.04,0.02250
3620.25,0.02212
3614.47,0.02209
3608.68,0.02118
3602.89,0.02226
3597.11,0.02185
3591.32,0.02169
3585.54,0.02177
3579.75,0.02161
3573.96,0.02189
3568.18,0.02156
3562.39,0.02064
3556.6,0.02080
3550.82,0.02097
3545.03,0.02146
3539.25,0.02124
3533.46,0.02105
3527.67,0.02086
3521.89,0.02149
3516.1,0.02097
3510.31,0.02124
3504.53,0.02062
3498.74,0.02104
3492.96,0.02135
3487.17,0.02068
3481.38,0.02086
3475.6,0.02107
3469.81,0.02161
3464.03,0.02096
3458.24,0.02103
3452.45,0.02049
3446.67,0.02045
3440.88,0.02106
3435.09,0.02061
3429.31,0.02064
3423.52,0.02113
3417.74,0.02086
3411.95,0.02053
3406.16,0.02019
3400.38,0.01999
3394.59,0.02013
3388.8,0.02016
3383.02,0.02003
3377.23,0.02051
3371.45,0.02082
3365.66,0.02050
3359.87,0.01972
3354.09,0.02111
3348.3,0.02104
3342.51,0.02024
3336.73,0.02035
3330.94,0.02085
3325.16,0.02038
3319.37,0.02108
3313.58,0.02070
3307.8,0.02081
3302.01,0.02037
3296.22,0.02095
3290.44,0.02116
3284.65,0.02145
3278.87,0.02133
3273.08,0.02064
3267.29,0.02106
3261.51,0.02108
3255.72,0.02002
3249.93,0.02028
3244.15,0.02046
3238.36,0.02080
3232.58,0.02073
3226.79,0.02092
3221,0.02047
3215.22,0.02049
3209.43,0.02098
3203.64,0.02142
3197.86,0.02133
3192.07,0.02129
3186.29,0.02155
3180.5,0.02143
3174.71,0.02124
3168.93,0.02103
3163.14,0.02140
3157.35,0.02065
3151.57,0.02128
3145.78,0.02101
3140,0.02113
3134.21,0.02076
3128.42,0.02116
3122.64,0.02128
3116.85,0.02077
3111.06,0.02098
3105.28,0.02108
3099.49,0.02112
3093.71,0.02119
3087.92,0.02112
3082.13,0.02101
3076.35,0.02068
3070.56,0.02095
3064.77,0.02124
3058.99,0.02106
3053.2,0.02083
3047.42,0.02096
3041.63,0.02114
3035.84,0.02070
3030.06,0.02074
3024.27,0.02026
3018.49,0.02083
3012.7,0.02049
3006.91,0.02058
3001.13,0.02025
2995.34,0.02012
2989.55,0.02041
2983.77,0.01998
2977.98,0.02020
2972.2,0.01974
2966.41,0.01961
2960.62,0.01975
2954.84,0.01953
2949.05,0.01994
2943.26,0.01960
2937.48,0.01953
2931.69,0.02010
2925.91,0.01996
2920.12,0.02090
2914.33,0.02035
2908.55,0.02071
2902.76,0.02064
2896.97,0.02029
2891.19,0.02083
2885.4,0.02072
2879.62,0.02026
2873.83,0.02062
2868.04,0.02056
2862.26,0.02101
2856.47,0.02072
2850.68,0.02117
2844.9,0.02141
2839.11,0.02142
2833.33,0.02129
2827.54,0.02109
2821.75,0.02153
2815.97,0.02126
2810.18,0.02146
2804.39,0.02174
2798.61,0.02179
2792.82,0.02180
2787.04,0.02118
2781.25,0.02120
2775.46,0.02155
2769.68,0.02165
2763.89,0.02152
2758.1,0.02115
2752.32,0.02167
2746.53,0.02181
2740.75,0.02168
2734.96,0.02165
2729.17,0.02153
2723.39,0.02159
2717.6,0.02185
2711.81,0.02158
2706.03,0.02158
2700.24,0.02170
2694.46,0.02189
2688.67,0.02149
2682.88,0.02172
2677.1,0.02154
2671.31,0.02161
2665.52,0.02168
2659.74,0.02161
2653.95,0.02145
2648.17,0.02149
2642.38,0.02158
2636.59,0.02136
2630.81,0.02163
2625.02,0.02170
2619.24,0.02170
2613.45,0.02150
2607.66,0.02144
2601.88,0.02130
2596.09,0.02174
2590.3,0.02158
2584.52,0.02163
2578.73,0.02163
2572.95,0.02151
2567.16,0.02156
2561.37,0.02168
2555.59,0.02143
2549.8,0.02157
2544.01,0.02161
2538.23,0.02194
2532.44,0.02198
2526.66,0.02153
2520.87,0.02177
2515.08,0.02189
2509.3,0.02148
2503.51,0.02132
2497.72,0.02180
2491.94,0.02179
2486.15,0.02174
2480.37,0.02139
2474.58,0.02161
2468.79,0.02148
2463.01,0.02171
2457.22,0.02128
2451.43,0.02152
2445.65,0.02159
2439.86,0.02170
2434.08,0.02171
2428.29,0.02175
2422.5,0.02158
2416.72,0.02113
2410.93,0.02145
2405.14,0.02135
2399.36,0.02172
2393.57,0.02173
2387.79,0.02136
2382,0.02154
2376.21,0.02214
2370.43,0.02161
2364.64,0.02148
2358.85,0.02205
2353.07,0.02125
2347.28,0.02137
2341.5,0.02132
2335.71,0.02118
2329.92,0.02138
2324.14,0.02140
2318.35,0.02137
2312.56,0.02169
2306.78,0.02179
2300.99,0.02141
2295.21,0.02192
2289.42,0.02127
2283.63,0.02138
2277.85,0.02118
2272.06,0.02153
2266.27,0.02148
2260.49,0.02185
2254.7,0.02158
2248.92,0.02160
2243.13,0.02147
2237.34,0.02084
2231.56,0.02094
2225.77,0.02129
2219.98,0.02152
2214.2,0.02143
2208.41,0.02168
2202.63,0.02180
2196.84,0.02130
2191.05,0.02137
2185.27,0.02162
2179.48,0.02144
2173.7,0.02132
2167.91,0.02145
2162.12,0.02142
2156.34,0.02144
2150.55,0.02141
2144.76,0.02154
2138.98,0.02143
2133.19,0.02166
2127.41,0.02152
2121.62,0.02122
2115.83,0.02145
2110.05,0.02154
2104.26,0.02111
2098.47,0.02154
2092.69,0.02150
2086.9,0.02160
2081.12,0.02149
2075.33,0.02125
2069.54,0.02111
2063.76,0.02129
2057.97,0.02101
2052.18,0.02143
2046.4,0.02124
2040.61,0.02114
2034.83,0.02169
2029.04,0.02138
2023.25,0.02132
2017.47,0.02137
2011.68,0.02121
2005.89,0.02121
2000.11,0.02119
1994.32,0.02097
1988.54,0.02116
1982.75,0.02149
1976.96,0.02151
1971.18,0.02131
1965.39,0.02116
1959.6,0.02132
1953.82,0.02131
1948.03,0.02117
1942.25,0.02120
1936.46,0.02118
1930.67,0.02140
1924.89,0.02091
1919.1,0.02139
1913.31,0.02128
1907.53,0.02114
1901.74,0.02143
1895.96,0.02118
1890.17,0.02113
1884.38,0.02078
1878.6,0.02095
1872.81,0.02069
1867.02,0.02093
1861.24,0.02092
1855.45,0.02080
1849.67,0.02069
1843.88,0.02072
1838.09,0.02072
1832.31,0.02047
1826.52,0.02022
1820.73,0.02028
1814.95,0.02050
1809.16,0.02052
1803.38,0.01989
1797.59,0.01976
1791.8,0.02006
1786.02,0.01994
1780.23,0.01968
1774.44,0.01945
1768.66,0.01905
1762.87,0.01858
1757.09,0.01800
1751.3,0.01767
1745.51,0.01804
1739.73,0.01876
1733.94,0.01987
1728.16,0.02080
1722.37,0.02100
1716.58,0.02083
1710.8,0.02055
1705.01,0.02019
1699.22,0.02027
1693.44,0.01945
1687.65,0.01959
1681.87,0.01919
1676.08,0.01885
1670.29,0.01910
1664.51,0.01891
1658.72,0.01876
1652.93,0.01894
1647.15,0.01913
1641.36,0.01873
1635.58,0.01869
1629.79,0.01868
1624,0.01891
1618.22,0.01929
1612.43,0.01883
1606.64,0.01881
1600.86,0.01864
1595.07,0.01892
1589.29,0.01852
1583.5,0.01863
1577.71,0.01870
1571.93,0.01850
1566.14,0.01779
1560.35,0.01837
1554.57,0.01791
1548.78,0.01789
1543,0.01852
1537.21,0.01842
1531.42,0.01869
1525.64,0.01873
1519.85,0.01864
1514.06,0.01880
1508.28,0.01874
1502.49,0.01868
1496.71,0.01859
1490.92,0.01895
1485.13,0.01893
1479.35,0.01883
1473.56,0.01845
1467.77,0.01865
1461.99,0.01829
1456.2,0.01873
1450.42,0.01855
1444.63,0.01891
1438.84,0.01879
1433.06,0.01882
1427.27,0.01913
1421.48,0.01877
1415.7,0.01846
1409.91,0.01845
1404.13,0.01805
1398.34,0.01851
1392.55,0.01818
1386.77,0.01790
1380.98,0.01805
1375.19,0.01820
1369.41,0.01851
1363.62,0.01832
1357.84,0.01784
1352.05,0.01817
1346.26,0.01816
1340.48,0.01831
1334.69,0.01808
1328.9,0.01773
1323.12,0.01709
1317.33,0.01716
1311.55,0.01725
1305.76,0.01723
1299.97,0.01749
1294.19,0.01798
1288.4,0.01826
1282.62,0.01872
1276.83,0.01940
1271.04,0.01940
1265.26,0.02017
1259.47,0.02030
1253.68,0.02003
1247.9,0.02012
1242.11,0.01998
1236.33,0.02039
1230.54,0.01992
1224.75,0.01980
1218.97,0.01923
1213.18,0.01941
1207.39,0.01885
1201.61,0.01917
1195.82,0.01910
1190.04,0.01890
1184.25,0.01798
1178.46,0.01803
1172.68,0.01873
1166.89,0.01798
1161.1,0.01781
1155.32,0.01800
1149.53,0.01810
1143.75,0.01775
1137.96,0.01786
1132.17,0.01817
1126.39,0.01812
1120.6,0.01822
1114.81,0.01861
1109.03,0.01870
1103.24,0.01828
1097.46,0.01815
1091.67,0.01839
1085.88,0.01796
1080.1,0.01872
1074.31,0.01890
1068.52,0.01943
1062.74,0.01996
1056.95,0.01922
1051.17,0.01977
1045.38,0.01977
1039.59,0.02058
1033.81,0.01981
1028.02,0.01980
1022.23,0.01916
1016.45,0.01915
1010.66,0.02017
1004.88,0.02065
999.09,0.02128
993.303,0.02130
987.517,0.02092
981.731,0.02113
975.945,0.02057
970.158,0.02067
964.372,0.02056
958.586,0.02056
952.8,0.01989
947.014,0.02014
941.227,0.01959
935.441,0.01935
929.655,0.01949
923.869,0.01998
918.082,0.02008
912.296,0.01969
906.51,0.01924
900.724,0.01909
894.937,0.01934
889.151,0.01955
883.365,0.01887
877.579,0.01916
871.793,0.01871
866.006,0.01876
860.22,0.01873
854.434,0.01900
848.648,0.01897
842.861,0.01915
837.075,0.01937
831.289,0.01934
825.503,0.01932
819.716,0.01944
813.93,0.01818
808.144,0.01834
802.358,0.01863
796.571,0.01860
790.785,0.01857
784.999,0.01859
779.213,0.01902
773.427,0.01828
767.64,0.01809
761.854,0.01800
756.068,0.01867
750.282,0.01820
744.495,0.01843
738.709,0.01861
732.923,0.01801
727.137,0.01757
721.35,0.01862
715.564,0.01835
709.778,0.01895
703.992,0.01866
698.206,0.01897
692.419,0.01859
686.633,0.01776
680.847,0.01697
675.061,0.01746
669.274,0.01835
663.488,0.01861
657.702,0.01773
651.916,0.01649
646.129,0.01585
640.343,0.01682
634.557,0.01679
628.771,0.01588
622.984,0.01660
617.198,0.01727
611.412,0.01447
605.626,0.01596
599.84,0.01826