File: 01_Data/Overstuffed_Chair_Polyester_Batting/STA/N2/10K_min/Overstuffed_Chair_Polyester_Batting_STA_N2_10KData_220131_R2.csv
##Temp./Â°C,Time/min,DSC(subtr.2)/(mW/mg),Mass(subtr.2)/%,Sensit./(uV/mW)
49.362,10.01,-0.007082496,100.69,1.07447
49.962,10.71746,0.01444916,100.715,1.07442
50.562,10.9084,0.03199437,100.745,1.07438
51.162,11.05307,0.05147805,100.748,1.07434
51.762,11.17206,0.06583477,100.728,1.0743
52.362,11.27707,0.07598107,100.736,1.07425
52.962,11.37345,0.0883512,100.736,1.0742
53.562,11.4638,0.09742819,100.752,1.07416
54.162,11.54987,0.10391,100.738,1.07411
54.762,11.63133,0.11379,100.751,1.07406
55.362,11.71001,0.12118,100.752,1.07401
55.962,11.78675,0.12772,100.7493,1.07396
56.562,11.86182,0.13095,100.743,1.07391
57.162,11.935,0.13484,100.787,1.07386
57.762,12.00687,0.14008,100.79,1.07381
58.362,12.07782,0.14406,100.7519,1.07376
58.962,12.1479,0.14743,100.781,1.0737
59.562,12.21728,0.15244,100.782,1.07365
60.162,12.28576,0.15306,100.751,1.07359
60.762,12.35387,0.15574,100.771,1.07353
61.362,12.4214,0.15801,100.776,1.07348
61.962,12.48855,0.16255,100.794,1.07342
62.562,12.5552,0.1627,100.7811,1.07336
63.162,12.62149,0.16315,100.7771,1.0733
63.762,12.68783,0.16537,100.786,1.07324
64.362,12.75383,0.16693,100.763,1.07318
64.962,12.81977,0.17092,100.754,1.07312
65.562,12.8855,0.17034,100.781,1.07305
66.162,12.95079,0.17459,100.789,1.07299
66.762,13.016,0.17945,100.753,1.07292
67.362,13.08088,0.18193,100.754,1.07286
67.962,13.14555,0.18591,100.755,1.07279
68.562,13.21011,0.18735,100.788,1.07272
69.162,13.2743,0.18785,100.788,1.07265
69.762,13.33865,0.18832,100.79,1.07259
70.362,13.4024,0.18911,100.788,1.07252
70.962,13.46611,0.18819,100.788,1.07244
71.562,13.52996,0.18741,100.788,1.07237
72.162,13.5936,0.18723,100.788,1.0723
72.762,13.65691,0.18539,100.792,1.07223
73.362,13.7203,0.18713,100.822,1.07215
73.962,13.7837,0.18722,100.824,1.07208
74.562,13.8468,0.18943,100.792,1.072
75.162,13.9097,0.18985,100.797,1.07192
75.762,13.9724,0.18956,100.788,1.07185
76.362,14.0348,0.19124,100.776,1.07177
76.962,14.097,0.19129,100.786,1.07169
77.562,14.1591,0.19324,100.822,1.07161
78.162,14.22105,0.19444,100.808,1.07153
78.762,14.2831,0.19566,100.822,1.07145
79.362,14.3448,0.19471,100.788,1.07136
79.962,14.4064,0.19603,100.797,1.07128
80.562,14.4682,0.19889,100.788,1.0712
81.162,14.5297,0.20113,100.814,1.07111
81.762,14.5912,0.20105,100.789,1.07103
82.362,14.65269,0.20185,100.788,1.07094
82.962,14.71396,0.20093,100.788,1.07085
83.562,14.7751,0.20332,100.789,1.07076
84.162,14.83625,0.20502,100.822,1.07067
84.762,14.89729,0.20411,100.822,1.07058
85.362,14.95796,0.20463,100.8346,1.07049
85.962,15.01854,0.20533,100.814,1.0704
86.562,15.0793,0.20694,100.7982,1.07031
87.162,15.13977,0.20548,100.822,1.07022
87.762,15.20013,0.20606,100.822,1.07012
88.362,15.2605,0.20969,100.822,1.07003
88.962,15.3208,0.21092,100.823,1.06993
89.562,15.3809,0.21036,100.788,1.06983
90.162,15.44108,0.21063,100.788,1.06974
90.762,15.5011,0.21267,100.79,1.06964
91.362,15.5611,0.21238,100.822,1.06954
91.962,15.621,0.21308,100.847,1.06944
92.562,15.68031,0.21451,100.814,1.06934
93.162,15.74015,0.21237,100.822,1.06924
93.762,15.79929,0.21409,100.805,1.06913
94.362,15.8586,0.21739,100.822,1.06903
94.962,15.9184,0.21586,100.814,1.06893
95.562,15.97758,0.21716,100.814,1.06882
96.162,16.038,0.22051,100.847,1.06872
96.762,16.09732,0.21956,100.822,1.06861
97.362,16.15685,0.21906,100.857,1.0685
97.962,16.21656,0.22055,100.822,1.06839
98.562,16.27606,0.22018,100.822,1.06828
99.162,16.3354,0.22182,100.822,1.06817
99.762,16.3946,0.22067,100.788,1.06806
100.362,16.4538,0.21939,100.822,1.06795
100.962,16.51304,0.22311,100.827,1.06784
101.562,16.57231,0.22202,100.855,1.06773
102.162,16.6315,0.22331,100.822,1.06761
102.762,16.69042,0.22581,100.822,1.0675
103.362,16.74934,0.22724,100.855,1.06738
103.962,16.80826,0.22706,100.822,1.06727
104.562,16.86734,0.22799,100.856,1.06715
105.162,16.9262,0.22908,100.856,1.06703
105.762,16.98524,0.2323,100.856,1.06691
106.362,17.04423,0.23039,100.885,1.06679
106.962,17.1033,0.2321,100.855,1.06667
107.562,17.162,0.23286,100.855,1.06655
108.162,17.22062,0.23413,100.864,1.06643
108.762,17.2793,0.23365,100.865,1.06631
109.362,17.33821,0.23597,100.847,1.06618
109.962,17.397,0.23574,100.856,1.06606
110.562,17.45579,0.23578,100.88,1.06593
111.162,17.51442,0.23877,100.864,1.06581
111.762,17.57303,0.23902,100.856,1.06568
112.362,17.63164,0.24018,100.856,1.06555
112.962,17.69054,0.24328,100.8566,1.06542
113.562,17.74934,0.24184,100.889,1.06529
114.162,17.8081,0.24205,100.889,1.06516
114.762,17.86695,0.24484,100.891,1.06503
115.362,17.92548,0.24504,100.891,1.0649
115.962,17.98415,0.24638,100.889,1.06477
116.562,18.04289,0.24792,100.885,1.06463
117.162,18.1018,0.24981,100.864,1.0645
117.762,18.16047,0.24957,100.89,1.06436
118.362,18.21912,0.25159,100.89,1.06423
118.962,18.27778,0.25322,100.89,1.06409
119.562,18.3365,0.25407,100.889,1.06395
120.162,18.39496,0.25521,100.864,1.06381
120.762,18.45349,0.25741,100.864,1.06368
121.362,18.51192,0.2614,100.864,1.06354
121.962,18.5704,0.26177,100.889,1.06339
122.562,18.62906,0.2627,100.89,1.06325
123.162,18.6876,0.26477,100.875,1.06311
123.762,18.74607,0.27022,100.889,1.06297
124.362,18.80483,0.27205,100.89,1.06282
124.962,18.86317,0.27551,100.923,1.06268
125.562,18.92149,0.27947,100.8897,1.06253
126.162,18.98,0.28303,100.889,1.06239
126.762,19.03829,0.28806,100.889,1.06224
127.362,19.09679,0.28905,100.889,1.06209
127.962,19.15527,0.29369,100.857,1.06194
128.562,19.21351,0.29865,100.8886,1.06179
129.162,19.2715,0.30101,100.889,1.06164
129.762,19.3296,0.30421,100.889,1.06149
130.362,19.38779,0.30704,100.888,1.06134
130.962,19.4464,0.3097,100.923,1.06119
131.562,19.5047,0.31099,100.917,1.06103
132.162,19.56298,0.3124,100.889,1.06088
132.762,19.6211,0.31256,100.889,1.06072
133.362,19.67901,0.31326,100.923,1.06057
133.962,19.73721,0.30918,100.923,1.06041
134.562,19.79525,0.30901,100.898,1.06025
135.162,19.85342,0.30213,100.898,1.06009
135.762,19.91142,0.29681,100.9224,1.05993
136.362,19.96937,0.29139,100.923,1.05977
136.962,20.02741,0.28663,100.923,1.05961
137.562,20.08513,0.27898,100.8909,1.05945
138.162,20.14291,0.27457,100.889,1.05929
138.762,20.2009,0.27019,100.889,1.05913
139.362,20.25863,0.26816,100.923,1.05896
139.962,20.3167,0.26384,100.923,1.0588
140.562,20.3742,0.26124,100.892,1.05863
141.162,20.43194,0.25922,100.89,1.05847
141.762,20.48967,0.25697,100.89,1.0583
142.362,20.54733,0.25826,100.922,1.05813
142.962,20.60507,0.25569,100.923,1.05796
143.562,20.66272,0.25585,100.923,1.05779
144.162,20.7206,0.25803,100.923,1.05762
144.762,20.7784,0.2576,100.888,1.05745
145.362,20.83597,0.2567,100.889,1.05728
145.962,20.89349,0.25804,100.9232,1.05711
146.562,20.95119,0.25768,100.923,1.05693
147.162,21.0089,0.25731,100.923,1.05676
147.762,21.06651,0.25895,100.94,1.05658
148.362,21.12397,0.26018,100.9399,1.05641
148.962,21.18129,0.26105,100.941,1.05623
149.562,21.23899,0.26229,100.931,1.05605
150.162,21.29649,0.26164,100.923,1.05588
150.762,21.35412,0.26209,100.9239,1.0557
151.362,21.41191,0.26212,100.953,1.05552
151.962,21.4695,0.26475,100.923,1.05534
152.562,21.52715,0.26383,100.923,1.05515
153.162,21.58464,0.26144,100.923,1.05497
153.762,21.6421,0.26423,100.948,1.05479
154.362,21.69953,0.26608,100.948,1.05461
154.962,21.7572,0.26598,100.9538,1.05442
155.562,21.8148,0.266,100.948,1.05424
156.162,21.87215,0.26793,100.948,1.05405
156.762,21.92976,0.26867,100.948,1.05386
157.362,21.98736,0.27015,100.9146,1.05368
157.962,22.0448,0.26877,100.894,1.05349
158.562,22.10259,0.2693,100.915,1.0533
159.162,22.15987,0.27051,100.915,1.05311
159.762,22.21735,0.26963,100.915,1.05292
160.362,22.27495,0.27062,100.915,1.05273
160.962,22.33236,0.27341,100.915,1.05253
161.562,22.3898,0.27314,100.948,1.05234
162.162,22.44732,0.27404,100.948,1.05215
162.762,22.5048,0.27624,100.915,1.05195
163.362,22.5625,0.27356,100.915,1.05176
163.962,22.61993,0.27296,100.915,1.05156
164.562,22.67725,0.27563,100.9403,1.05137
165.162,22.73462,0.27744,100.94,1.05117
165.762,22.79224,0.27815,100.907,1.05097
166.362,22.84984,0.27762,100.931,1.05077
166.962,22.9074,0.2769,100.931,1.05057
167.562,22.96503,0.27576,100.931,1.05037
168.162,23.02219,0.27776,100.936,1.05017
168.762,23.0795,0.27822,100.9312,1.04997
169.362,23.13693,0.27688,100.9312,1.04976
169.962,23.1945,0.28064,100.9312,1.04956
170.562,23.25225,0.27914,100.9312,1.04936
171.162,23.3099,0.27934,100.9312,1.04915
171.762,23.36729,0.27936,100.931,1.04894
172.362,23.42456,0.27978,100.898,1.04874
172.962,23.48184,0.28005,100.901,1.04853
173.562,23.5393,0.28256,100.931,1.04832
174.162,23.5968,0.2832,100.932,1.04811
174.762,23.6543,0.28215,100.965,1.0479
175.362,23.71199,0.28193,100.936,1.04769
175.962,23.7696,0.28187,100.931,1.04748
176.562,23.82721,0.28282,100.931,1.04727
177.162,23.8848,0.28399,100.931,1.04706
177.762,23.94228,0.28509,100.964,1.04684
178.362,23.99973,0.28411,100.9312,1.04663
178.962,24.05697,0.28649,100.9312,1.04641
179.562,24.11435,0.2847,100.9312,1.0462
180.162,24.17174,0.28448,100.9312,1.04598
180.762,24.22915,0.28644,100.9312,1.04576
181.362,24.28637,0.28489,100.9312,1.04554
181.962,24.34361,0.28743,100.931,1.04533
182.562,24.401,0.28698,100.915,1.04511
183.162,24.4585,0.28637,100.915,1.04489
183.762,24.5162,0.28654,100.915,1.04466
184.362,24.57384,0.2879,100.932,1.04444
184.962,24.6314,0.28951,100.931,1.04422
185.562,24.68901,0.28994,100.931,1.044
186.162,24.74643,0.29238,100.931,1.04377
186.762,24.80396,0.29189,100.898,1.04355
187.362,24.86102,0.29236,100.917,1.04332
187.962,24.91834,0.29443,100.931,1.0431
188.562,24.97563,0.29465,100.931,1.04287
189.162,25.03275,0.29263,100.931,1.04264
189.762,25.08996,0.29407,100.931,1.04241
190.362,25.1472,0.29533,100.931,1.04218
190.962,25.20443,0.29677,100.921,1.04195
191.562,25.26181,0.29763,100.923,1.04172
192.162,25.3193,0.29782,100.923,1.04149
192.762,25.3764,0.29801,100.923,1.04126
193.362,25.43349,0.3004,100.906,1.04102
193.962,25.4907,0.30304,100.931,1.04079
194.562,25.5479,0.30171,100.898,1.04056
195.162,25.60516,0.30407,100.8977,1.04032
195.762,25.66227,0.30364,100.895,1.04008
196.362,25.7194,0.30319,100.915,1.03985
196.962,25.77662,0.30292,100.915,1.03961
197.562,25.8338,0.30665,100.915,1.03937
198.162,25.89125,0.30671,100.931,1.03913
198.762,25.9485,0.30789,100.931,1.03889
199.362,26.00587,0.30598,100.934,1.03865
199.962,26.06287,0.30613,100.965,1.03841
200.562,26.11993,0.30674,100.965,1.03817
201.162,26.17691,0.30574,100.931,1.03793
201.762,26.23395,0.30841,100.9,1.03768
202.362,26.2914,0.31191,100.899,1.03744
202.962,26.34865,0.30948,100.931,1.03719
203.562,26.40598,0.30953,100.913,1.03695
204.162,26.46313,0.31173,100.915,1.0367
204.762,26.52007,0.31176,100.915,1.03646
205.362,26.5771,0.31382,100.913,1.03621
205.962,26.63413,0.31216,100.915,1.03596
206.562,26.6913,0.31254,100.932,1.03571
207.162,26.74865,0.31322,100.931,1.03546
207.762,26.8059,0.31308,100.931,1.03521
208.362,26.8631,0.31379,100.931,1.03496
208.962,26.9202,0.31605,100.965,1.03471
209.562,26.97731,0.31567,100.965,1.03445
210.162,27.03446,0.3134,100.9391,1.0342
210.762,27.09175,0.31713,100.898,1.03394
211.362,27.1489,0.31757,100.898,1.03369
211.962,27.2061,0.31719,100.931,1.03343
212.562,27.26335,0.31628,100.931,1.03318
213.162,27.3206,0.31839,100.914,1.03292
213.762,27.3777,0.31915,100.906,1.03266
214.362,27.4349,0.32051,100.931,1.0324
214.962,27.4921,0.32317,100.931,1.03214
215.562,27.54937,0.32419,100.931,1.03188
216.162,27.6067,0.32562,100.898,1.03162
216.762,27.6639,0.325,100.8977,1.03136
217.362,27.7211,0.32776,100.8977,1.0311
217.962,27.77836,0.33002,100.8977,1.03084
218.562,27.83564,0.3298,100.8977,1.03057
219.162,27.8929,0.33082,100.898,1.03031
219.762,27.95018,0.33456,100.915,1.03004
220.362,28.0074,0.33443,100.923,1.02978
220.962,28.0648,0.33452,100.923,1.02951
221.562,28.1222,0.33373,100.923,1.02924
222.162,28.17955,0.33622,100.923,1.02898
222.762,28.23684,0.33771,100.923,1.02871
223.362,28.29409,0.33972,100.942,1.02844
223.962,28.3514,0.34072,100.9227,1.02817
224.562,28.40875,0.3429,100.923,1.0279
225.162,28.4659,0.34453,100.923,1.02763
225.762,28.5232,0.34764,100.923,1.02735
226.362,28.5805,0.3464,100.889,1.02708
226.962,28.63788,0.34963,100.902,1.02681
227.562,28.69521,0.35087,100.923,1.02653
228.162,28.75248,0.35522,100.923,1.02626
228.762,28.80978,0.35599,100.923,1.02598
229.362,28.86709,0.3582,100.889,1.02571
229.962,28.9246,0.36191,100.889,1.02543
230.562,28.9821,0.36342,100.889,1.02515
231.162,29.0396,0.368,100.906,1.02487
231.762,29.09708,0.36735,100.923,1.02459
232.362,29.15458,0.37072,100.891,1.02431
232.962,29.2121,0.37447,100.889,1.02403
233.562,29.26965,0.37674,100.889,1.02375
234.162,29.32698,0.37999,100.864,1.02347
234.762,29.3842,0.38578,100.864,1.02319
235.362,29.44156,0.38841,100.881,1.02291
235.962,29.4987,0.39203,100.888,1.02262
236.562,29.5561,0.39665,100.8977,1.02234
237.162,29.6134,0.40249,100.897,1.02205
237.762,29.6707,0.40909,100.906,1.02177
238.362,29.72819,0.41315,100.906,1.02148
238.962,29.78555,0.41999,100.906,1.02119
239.562,29.84259,0.42815,100.907,1.0209
240.162,29.89977,0.4368,100.889,1.02061
240.762,29.95702,0.44779,100.906,1.02032
241.362,30.01424,0.45555,100.907,1.02003
241.962,30.0718,0.46406,100.923,1.01974
242.562,30.12899,0.47818,100.923,1.01945
243.162,30.18635,0.49126,100.923,1.01916
243.762,30.24369,0.50387,100.923,1.01887
244.362,30.30113,0.51777,100.923,1.01857
244.962,30.3587,0.53787,100.916,1.01828
245.562,30.4162,0.55547,100.906,1.01798
246.162,30.47376,0.57663,100.906,1.01769
246.762,30.5314,0.59952,100.939,1.01739
247.362,30.5889,0.62852,100.94,1.01709
247.962,30.6465,0.65626,100.897,1.0168
248.562,30.70415,0.69209,100.889,1.0165
249.162,30.7617,0.73389,100.889,1.0162
249.762,30.8194,0.78057,100.923,1.0159
250.362,30.8771,0.82917,100.905,1.0156
250.962,30.93487,0.88477,100.889,1.0153
251.562,30.9928,0.93466,100.889,1.015
252.162,31.0507,0.98437,100.89,1.01469
252.762,31.1085,1.02448,100.949,1.01439
253.362,31.16644,1.05981,100.915,1.01409
253.962,31.2243,1.08348,100.914,1.01378
254.562,31.282,1.09108,100.881,1.01348
255.162,31.33993,1.07527,100.881,1.01317
255.762,31.39759,1.03039,100.915,1.01287
256.362,31.45516,0.94974,100.902,1.01256
256.962,31.5127,0.84052,100.881,1.01225
257.562,31.56992,0.73037,100.864,1.01194
258.162,31.62711,0.63943,100.864,1.01163
258.762,31.68412,0.56895,100.847,1.01132
259.362,31.741,0.51249,100.872,1.01101
259.962,31.798,0.46986,100.872,1.0107
260.562,31.85492,0.43941,100.872,1.01039
261.162,31.91188,0.4169,100.872,1.01008
261.762,31.96896,0.40082,100.898,1.00976
262.362,32.02582,0.3894,100.898,1.00945
262.962,32.08292,0.37866,100.864,1.00914
263.562,32.14008,0.37155,100.864,1.00882
264.162,32.19717,0.36696,100.864,1.00851
264.762,32.25427,0.36433,100.864,1.00819
265.362,32.3116,0.3596,100.864,1.00787
265.962,32.36873,0.36154,100.881,1.00755
266.562,32.42597,0.35843,100.881,1.00724
267.162,32.4831,0.35781,100.881,1.00692
267.762,32.5402,0.35782,100.847,1.0066
268.362,32.59744,0.35683,100.881,1.00628
268.962,32.6547,0.35545,100.881,1.00596
269.562,32.71192,0.35563,100.855,1.00564
270.162,32.76907,0.35635,100.8555,1.00531
270.762,32.82627,0.35589,100.8555,1.00499
271.362,32.88343,0.35414,100.8555,1.00467
271.962,32.94076,0.35635,100.8555,1.00434
272.562,32.99799,0.35665,100.8553,1.00402
273.162,33.05519,0.35748,100.847,1.00369
273.762,33.11242,0.35813,100.847,1.00337
274.362,33.1696,0.35679,100.8471,1.00304
274.962,33.2269,0.3547,100.864,1.00271
275.562,33.28414,0.35842,100.864,1.00238
276.162,33.34149,0.35859,100.864,1.00206
276.762,33.39887,0.35682,100.864,1.00173
277.362,33.45612,0.3564,100.864,1.0014
277.962,33.5133,0.35787,100.864,1.00107
278.562,33.5706,0.35799,100.864,1.00073
279.162,33.6277,0.35755,100.864,1.0004
279.762,33.68512,0.35913,100.864,1.00007
280.362,33.74242,0.35822,100.864,0.99974
280.962,33.79983,0.35772,100.864,0.9994
281.562,33.85727,0.35916,100.847,0.99907
282.162,33.9146,0.362,100.847,0.99873
282.762,33.9719,0.35947,100.847,0.9984
283.362,34.0291,0.36073,100.864,0.99806
283.962,34.08641,0.35661,100.864,0.99772
284.562,34.14377,0.35856,100.839,0.99739
285.162,34.20098,0.36099,100.839,0.99705
285.762,34.25845,0.36262,100.832,0.99671
286.362,34.3158,0.35993,100.864,0.99637
286.962,34.3731,0.36074,100.866,0.99603
287.562,34.4304,0.36232,100.83,0.99569
288.162,34.48782,0.36243,100.86,0.99535
288.762,34.54513,0.36192,100.864,0.99501
289.362,34.6025,0.36153,100.83,0.99466
289.962,34.65985,0.36165,100.83,0.99432
290.562,34.71714,0.35983,100.847,0.99398
291.162,34.77449,0.36158,100.847,0.99363
291.762,34.83205,0.36132,100.847,0.99329
292.362,34.88962,0.36478,100.847,0.99294
292.962,34.94686,0.36425,100.813,0.9926
293.562,35.00405,0.36484,100.847,0.99225
294.162,35.06112,0.36724,100.814,0.9919
294.762,35.11831,0.36709,100.814,0.99155
295.362,35.17558,0.36674,100.788,0.99121
295.962,35.23294,0.36795,100.805,0.99086
296.562,35.2901,0.36581,100.805,0.99051
297.162,35.3474,0.36739,100.8055,0.99016
297.762,35.40473,0.36801,100.8305,0.9898
298.362,35.46203,0.36828,100.847,0.98945
298.962,35.51945,0.37227,100.847,0.9891
299.562,35.5766,0.3717,100.847,0.98875
300.162,35.6338,0.37064,100.848,0.98839
300.762,35.6912,0.37249,100.814,0.98804
301.362,35.74845,0.36993,100.814,0.98768
301.962,35.80591,0.37169,100.814,0.98733
302.562,35.86335,0.37054,100.814,0.98697
303.162,35.92069,0.37009,100.78,0.98662
303.762,35.97825,0.37156,100.7798,0.98626
304.362,36.0357,0.3705,100.7798,0.9859
304.962,36.0931,0.37212,100.78,0.98554
305.562,36.15057,0.37047,100.79,0.98518
306.162,36.20795,0.37077,100.814,0.98482
306.762,36.26549,0.37089,100.78,0.98446
307.362,36.32304,0.37229,100.7798,0.9841
307.962,36.38071,0.37031,100.78,0.98374
308.562,36.43833,0.36908,100.746,0.98338
309.162,36.49583,0.37157,100.746,0.98302
309.762,36.5535,0.37022,100.771,0.98265
310.362,36.61119,0.37153,100.772,0.98229
310.962,36.6688,0.37232,100.738,0.98193
311.562,36.72658,0.37316,100.741,0.98156
312.162,36.78406,0.37189,100.771,0.9812
312.762,36.8416,0.37329,100.771,0.98083
313.362,36.8992,0.37086,100.771,0.98046
313.962,36.95671,0.37353,100.771,0.9801
314.562,37.01425,0.37433,100.737,0.97973
315.162,37.07192,0.37127,100.738,0.97936
315.762,37.12966,0.37355,100.738,0.97899
316.362,37.18735,0.3736,100.704,0.97862
316.962,37.24485,0.3757,100.704,0.97825
317.562,37.3025,0.37485,100.704,0.97788
318.162,37.36005,0.37628,100.704,0.97751
318.762,37.41766,0.37696,100.738,0.97714
319.362,37.47555,0.37609,100.705,0.97676
319.962,37.53328,0.37919,100.706,0.97639
320.562,37.59094,0.37523,100.671,0.97602
321.162,37.64863,0.37621,100.671,0.97564
321.762,37.70628,0.37748,100.671,0.97527
322.362,37.76398,0.37662,100.706,0.97489
322.962,37.8217,0.38087,100.692,0.97452
323.562,37.8795,0.37831,100.671,0.97414
324.162,37.93728,0.37727,100.696,0.97376
324.762,37.995,0.37899,100.696,0.97338
325.362,38.05283,0.37955,100.682,0.97301
325.962,38.11061,0.37752,100.67,0.97263
326.562,38.16836,0.38106,100.645,0.97225
327.162,38.22605,0.37858,100.64,0.97187
327.762,38.2836,0.37943,100.637,0.97149
328.362,38.34147,0.38141,100.637,0.97111
328.962,38.39931,0.37827,100.6288,0.97072
329.562,38.4572,0.38139,100.628,0.97034
330.162,38.51509,0.38036,100.628,0.96996
330.762,38.57292,0.38153,100.613,0.96958
331.362,38.6309,0.37846,100.595,0.96919
331.962,38.68885,0.38224,100.595,0.96881
332.562,38.7468,0.37983,100.595,0.96842
333.162,38.80467,0.38154,100.595,0.96804
333.762,38.86255,0.38052,100.595,0.96765
334.362,38.92057,0.38051,100.595,0.96726
334.962,38.9786,0.38051,100.573,0.96688
335.562,39.03662,0.38136,100.561,0.96649
336.162,39.09466,0.38108,100.561,0.9661
336.762,39.15252,0.38235,100.561,0.96571
337.362,39.21028,0.38302,100.561,0.96532
337.962,39.26813,0.38265,100.561,0.96493
338.562,39.3258,0.38346,100.564,0.96454
339.162,39.3835,0.38322,100.536,0.96415
339.762,39.44129,0.38413,100.528,0.96376
340.362,39.49924,0.38383,100.528,0.96337
340.962,39.5571,0.38457,100.527,0.96297
341.562,39.61504,0.38662,100.476,0.96258
342.162,39.67308,0.38636,100.469,0.96219
342.762,39.73081,0.38615,100.469,0.96179
343.362,39.78859,0.38612,100.476,0.9614
343.962,39.8465,0.38974,100.483,0.961
344.562,39.9043,0.39109,100.485,0.9606
345.162,39.96239,0.38906,100.485,0.96021
345.762,40.02013,0.39155,100.485,0.95981
346.362,40.078,0.39185,100.4518,0.95941
346.962,40.13552,0.39201,100.452,0.95901
347.562,40.1933,0.38953,100.452,0.95862
348.162,40.25125,0.39216,100.452,0.95822
348.762,40.3092,0.39147,100.452,0.95782
349.362,40.3675,0.39404,100.432,0.95742
349.962,40.42566,0.3956,100.41,0.95702
350.562,40.48361,0.39719,100.41,0.95661
351.162,40.54133,0.39738,100.41,0.95621
351.762,40.59918,0.39762,100.409,0.95581
352.362,40.6571,0.39743,100.376,0.95541
352.962,40.71537,0.39996,100.376,0.955
353.562,40.77345,0.39974,100.376,0.9546
354.162,40.83166,0.40013,100.376,0.95419
354.762,40.88973,0.40074,100.376,0.95379
355.362,40.94786,0.40331,100.356,0.95338
355.962,41.00592,0.40158,100.317,0.95298
356.562,41.06391,0.40271,100.317,0.95257
357.162,41.1221,0.40378,100.283,0.95216
357.762,41.18027,0.40248,100.3,0.95176
358.362,41.2384,0.4044,100.3,0.95135
358.962,41.29652,0.40588,100.297,0.95094
359.562,41.35465,0.40838,100.266,0.95053
360.162,41.41255,0.41008,100.266,0.95012
360.762,41.47055,0.41273,100.233,0.94971
361.362,41.52868,0.4135,100.233,0.9493
361.962,41.58692,0.41155,100.234,0.94889
362.562,41.6452,0.41401,100.199,0.94847
363.162,41.70335,0.41548,100.199,0.94806
363.762,41.76142,0.41593,100.165,0.94765
364.362,41.81937,0.41798,100.165,0.94724
364.962,41.87744,0.41946,100.165,0.94682
365.562,41.93543,0.41947,100.132,0.94641
366.162,41.9936,0.42073,100.098,0.94599
366.762,42.05193,0.41756,100.098,0.94558
367.362,42.11005,0.41805,100.081,0.94516
367.962,42.16806,0.42049,100.077,0.94474
368.562,42.22596,0.41868,100.048,0.94433
369.162,42.2841,0.42177,100.022,0.94391
369.762,42.34238,0.42271,100.0139,0.94349
370.362,42.40061,0.42137,99.95397,0.94307
370.962,42.45884,0.42417,99.91506,0.94265
371.562,42.51699,0.42722,99.8782,0.94223
372.162,42.57535,0.4256,99.86895,0.94181
372.762,42.63365,0.42428,99.87223,0.94139
373.362,42.69187,0.42686,99.83753,0.94097
373.962,42.7502,0.43048,99.80325,0.94055
374.562,42.80872,0.43162,99.76994,0.94013
375.162,42.86703,0.43354,99.71939,0.93971
375.762,42.9252,0.43452,99.70702,0.93928
376.362,42.98366,0.43678,99.65098,0.93886
376.962,43.04195,0.43779,99.6185,0.93844
377.562,43.10058,0.43781,99.58495,0.93801
378.162,43.15913,0.44144,99.55175,0.93759
378.762,43.21757,0.44271,99.48428,0.93716
379.362,43.27601,0.44304,99.44962,0.93674
379.962,43.33432,0.44686,99.38807,0.93631
380.562,43.39246,0.44861,99.35031,0.93588
381.162,43.45035,0.44892,99.32898,0.93546
381.762,43.5084,0.44925,99.23045,0.93503
382.362,43.5666,0.4548,99.16224,0.9346
382.962,43.6253,0.45612,99.12001,0.93417
383.562,43.68388,0.4569,99.04705,0.93374
384.162,43.74232,0.45866,98.9594,0.93331
384.762,43.80062,0.46076,98.92181,0.93288
385.362,43.85877,0.46372,98.84186,0.93245
385.962,43.9169,0.46689,98.77334,0.93202
386.562,43.97489,0.46888,98.6737,0.93159
387.162,44.03294,0.47363,98.57141,0.93116
387.762,44.09114,0.47741,98.45861,0.93072
388.362,44.14971,0.47572,98.37562,0.93029
388.962,44.20834,0.48099,98.29672,0.92986
389.562,44.26702,0.48366,98.19697,0.92942
390.162,44.32561,0.48455,98.04435,0.92899
390.762,44.3841,0.48685,97.94295,0.92855
391.362,44.4426,0.48596,97.85695,0.92812
391.962,44.50114,0.48778,97.71935,0.92768
392.562,44.5595,0.49172,97.5797,0.92724
393.162,44.61802,0.49635,97.4588,0.92681
393.762,44.6766,0.50116,97.3152,0.92637
394.362,44.73522,0.5053,97.1653,0.92593
394.962,44.79408,0.50884,97.0099,0.92549
395.562,44.85277,0.51483,96.86366,0.92506
396.162,44.91149,0.52011,96.69378,0.92462
396.762,44.97025,0.52277,96.54603,0.92418
397.362,45.0288,0.52255,96.3505,0.92374
397.962,45.08749,0.52393,96.14484,0.9233
398.562,45.1462,0.52731,95.97238,0.92285
399.162,45.20493,0.5321,95.75963,0.92241
399.762,45.2635,0.52986,95.56129,0.92197
400.362,45.32197,0.53481,95.35259,0.92153
400.962,45.38042,0.53639,95.1284,0.92109
401.562,45.43902,0.54521,94.91042,0.92064
402.162,45.4976,0.55072,94.63636,0.9202
402.762,45.55636,0.55515,94.41368,0.91975
403.362,45.61487,0.55948,94.19838,0.91931
403.962,45.67345,0.56372,93.94471,0.91886
404.562,45.732,0.56741,93.63841,0.91842
405.162,45.79051,0.57125,93.40804,0.91797
405.762,45.84919,0.57692,93.11901,0.91753
406.362,45.9078,0.57905,92.83768,0.91708
406.962,45.9666,0.58718,92.4915,0.91663
407.562,46.0251,0.59065,92.16734,0.91618
408.162,46.0837,0.59488,91.85302,0.91574
408.762,46.14243,0.60311,91.50873,0.91529
409.362,46.20135,0.61037,91.1266,0.91484
409.962,46.26011,0.62118,90.72214,0.91439
410.562,46.31902,0.62496,90.3494,0.91394
411.162,46.37791,0.62949,89.92472,0.91349
411.762,46.43657,0.63031,89.49906,0.91304
412.362,46.49561,0.63876,89.09976,0.91259
412.962,46.55445,0.64805,88.64145,0.91213
413.562,46.61343,0.66198,88.17625,0.91168
414.162,46.67248,0.66915,87.68155,0.91123
414.762,46.7314,0.6747,87.19874,0.91078
415.362,46.79031,0.68418,86.6781,0.91032
415.962,46.8491,0.69248,86.1679,0.90987
416.562,46.9078,0.69255,85.57625,0.90942
417.162,46.9668,0.70061,85.03905,0.90896
417.762,47.02556,0.71358,84.40464,0.90851
418.362,47.08436,0.72956,83.79754,0.90805
418.962,47.1432,0.74218,83.18953,0.90759
419.562,47.2021,0.75822,82.54155,0.90714
420.162,47.26089,0.76946,81.82894,0.90668
420.762,47.3198,0.77667,81.1086,0.90622
421.362,47.37873,0.78584,80.3925,0.90577
421.962,47.43765,0.78907,79.63602,0.90531
422.562,47.49647,0.79657,78.91023,0.90485
423.162,47.55527,0.7888,78.08671,0.90439
423.762,47.6139,0.80515,77.2989,0.90393
424.362,47.67276,0.81833,76.39962,0.90347
424.962,47.7316,0.82443,75.58645,0.90301
425.562,47.79079,0.82229,74.69296,0.90255
426.162,47.8496,0.82168,73.83277,0.90209
426.762,47.90802,0.84309,72.9023,0.90163
427.362,47.9672,0.85978,71.93473,0.90116
427.962,48.0261,0.86825,70.91891,0.9007
428.562,48.08546,0.87167,69.9324,0.90024
429.162,48.14452,0.87023,68.86752,0.89978
429.762,48.2033,0.8617,67.86281,0.89931
430.362,48.26226,0.85676,66.84366,0.89885
430.962,48.32112,0.85721,65.82072,0.89839
431.562,48.38001,0.85967,64.75442,0.89792
432.162,48.43894,0.8677,63.65127,0.89746
432.762,48.49783,0.86701,62.59,0.89699
433.362,48.55675,0.86985,61.44571,0.89652
433.962,48.6156,0.8723,60.35853,0.89606
434.562,48.67453,0.86957,59.21018,0.89559
435.162,48.7333,0.87255,58.1115,0.89512
435.762,48.79197,0.86863,56.9095,0.89466
436.362,48.85062,0.86699,55.81363,0.89419
436.962,48.90911,0.86126,54.64575,0.89372
437.562,48.9677,0.85669,53.595,0.89325
438.162,49.0263,0.85029,52.3906,0.89278
438.762,49.08483,0.84285,51.28349,0.89231
439.362,49.14354,0.8335,50.1502,0.89184
439.962,49.20215,0.82401,49.045,0.89137
440.562,49.26083,0.81514,47.95369,0.8909
441.162,49.31955,0.80304,46.87477,0.89043
441.762,49.37814,0.7912,45.83515,0.88996
442.362,49.43673,0.77986,44.7557,0.88949
442.962,49.49518,0.76636,43.7341,0.88901
443.562,49.5537,0.74579,42.70228,0.88854
444.162,49.61224,0.72468,41.77505,0.88807
444.762,49.67091,0.70607,40.77502,0.8876
445.362,49.72963,0.6847,39.86102,0.88712
445.962,49.78841,0.65925,38.98338,0.88665
446.562,49.84713,0.63588,38.18772,0.88617
447.162,49.90579,0.60749,37.3485,0.8857
447.762,49.96445,0.58241,36.61497,0.88522
448.362,50.02306,0.55634,35.88389,0.88475
448.962,50.08173,0.52958,35.20908,0.88427
449.562,50.14054,0.50497,34.56557,0.8838
450.162,50.1993,0.48152,33.93,0.88332
450.762,50.25815,0.45332,33.37408,0.88284
451.362,50.31681,0.42943,32.8599,0.88236
451.962,50.37536,0.40888,32.37089,0.88189
452.562,50.43398,0.38806,31.8742,0.88141
453.162,50.4927,0.36674,31.45229,0.88093
453.762,50.5514,0.34905,31.0313,0.88045
454.362,50.61,0.32863,30.65928,0.87997
454.962,50.66868,0.3108,30.2837,0.87949
455.562,50.72743,0.29736,29.9704,0.87901
456.162,50.7866,0.28187,29.62466,0.87853
456.762,50.84551,0.26859,29.33748,0.87805
457.362,50.90457,0.25469,29.04284,0.87757
457.962,50.96346,0.24554,28.73429,0.87709
458.562,51.0224,0.23526,28.4969,0.8766
459.162,51.0812,0.22309,28.2621,0.87612
459.762,51.13985,0.21219,28.0312,0.87564
460.362,51.19877,0.19808,27.8042,0.87516
460.962,51.2577,0.18856,27.58496,0.87467
461.562,51.31687,0.17805,27.3734,0.87419
462.162,51.37599,0.16524,27.2082,0.87371
462.762,51.43502,0.15398,27.0174,0.87322
463.362,51.49408,0.14116,26.8302,0.87274
463.962,51.55323,0.12754,26.67315,0.87225
464.562,51.6123,0.12003,26.53758,0.87177
465.162,51.67142,0.1071,26.39677,0.87128
465.762,51.73053,0.09989063,26.24783,0.87079
466.362,51.78949,0.08845186,26.1074,0.87031
466.962,51.84835,0.080434,25.97912,0.86982
467.562,51.90732,0.06850549,25.85744,0.86933
468.162,51.96625,0.06255584,25.7203,0.86885
468.762,52.0253,0.05373645,25.60726,0.86836
469.362,52.08462,0.04147386,25.50245,0.86787
469.962,52.14387,0.03492194,25.41217,0.86738
470.562,52.20302,0.02566435,25.2835,0.86689
471.162,52.2621,0.01664181,25.17706,0.8664
471.762,52.3212,0.009966741,25.09007,0.86591
472.362,52.38033,0.0007035351,24.99162,0.86542
472.962,52.4396,-0.00665235,24.8947,0.86493
473.562,52.49875,-0.01437651,24.82151,0.86444
474.162,52.558,-0.02235566,24.74312,0.86395
474.762,52.61715,-0.02876846,24.66157,0.86346
475.362,52.6763,-0.03617835,24.62073,0.86297
475.962,52.73555,-0.04433178,24.5377,0.86248
476.562,52.7947,-0.04884422,24.45774,0.86198
477.162,52.8539,-0.059079,24.39365,0.86149
477.762,52.9129,-0.06266684,24.33941,0.861
478.362,52.97221,-0.07032402,24.26425,0.8605
478.962,53.0316,-0.07586445,24.2299,0.86001
479.562,53.09101,-0.08055635,24.1536,0.85952
480.162,53.15047,-0.08708322,24.11982,0.85902
480.762,53.20975,-0.09319858,24.04456,0.85853
481.362,53.26894,-0.09582519,23.99895,0.85803
481.962,53.328,-0.10288,23.93817,0.85754
482.562,53.38698,-0.10693,23.8914,0.85704
483.162,53.4461,-0.10427,23.8405,0.85655
483.762,53.50519,-0.10759,23.7864,0.85605
484.362,53.5643,-0.10453,23.75489,0.85555
484.962,53.62345,-0.09859776,23.74175,0.85506
485.562,53.68255,-0.09905648,23.70758,0.85456
486.162,53.7417,-0.09397097,23.67115,0.85406
486.762,53.8008,-0.08928196,23.604,0.85356
487.362,53.85996,-0.09012465,23.56758,0.85307
487.962,53.91916,-0.09011702,23.52724,0.85257
488.562,53.97837,-0.0922951,23.50026,0.85207
489.162,54.03765,-0.08941495,23.46711,0.85157
489.762,54.09692,-0.09333852,23.44182,0.85107
490.362,54.1561,-0.09439017,23.43262,0.85057
490.962,54.2153,-0.09485109,23.40549,0.85007
491.562,54.2745,-0.11644,23.3762,0.84957
492.162,54.33406,-0.10794,23.34056,0.84907
492.762,54.3935,-0.10257,23.30646,0.84857
493.362,54.45296,-0.10442,23.27284,0.84807
493.962,54.5122,-0.10049,23.23915,0.84757
494.562,54.5714,-0.10143,23.20585,0.84706
495.162,54.63066,-0.10609,23.17226,0.84656
495.762,54.69001,-0.10539,23.1384,0.84606
496.362,54.7496,-0.10913,23.10491,0.84556
496.962,54.80896,-0.10963,23.0902,0.84505
497.562,54.86825,-0.11231,23.09691,0.84455
498.162,54.9274,-0.11456,23.06242,0.84405
498.762,54.9866,-0.11331,23.06372,0.84354
499.362,55.04585,-0.11761,23.03725,0.84304
499.962,55.1051,-0.11615,23.00134,0.84254
500.562,55.1643,-0.1155,22.967,0.84203
501.162,55.2235,-0.11634,22.93355,0.84153
501.762,55.28258,-0.11588,22.90804,0.84102
502.362,55.34189,-0.11871,22.9002,0.84051
502.962,55.4012,-0.11913,22.86625,0.84001
503.562,55.46062,-0.1213,22.83204,0.8395
504.162,55.52009,-0.1249,22.83247,0.839
504.762,55.57966,-0.12418,22.79872,0.83849
505.362,55.63907,-0.12613,22.76519,0.83798
505.962,55.69854,-0.12546,22.765,0.83747
506.562,55.7579,-0.12725,22.73143,0.83697
507.162,55.81737,-0.12824,22.70083,0.83646
507.762,55.8767,-0.13378,22.69795,0.83595
508.362,55.936,-0.13411,22.70044,0.83544
508.962,55.9953,-0.1322,22.66437,0.83493
509.562,56.0547,-0.13399,22.6305,0.83442
510.162,56.11413,-0.13313,22.5976,0.83391
510.762,56.17366,-0.13766,22.56624,0.83341
511.362,56.2331,-0.13755,22.59703,0.8329
511.962,56.29251,-0.14011,22.59676,0.83239
512.562,56.3521,-0.1407,22.56335,0.83187
513.162,56.4117,-0.14371,22.51874,0.83136
513.762,56.4712,-0.14118,22.52123,0.83085
514.362,56.53076,-0.14095,22.52125,0.83034
514.962,56.59016,-0.13965,22.4875,0.82983
515.562,56.6497,-0.13884,22.454,0.82932
516.162,56.70936,-0.14109,22.45397,0.82881
516.762,56.76899,-0.14201,22.45397,0.82829
517.362,56.8286,-0.14198,22.44838,0.82778
517.962,56.8881,-0.14499,22.44053,0.82727
518.562,56.9476,-0.14283,22.41176,0.82676
519.162,57.0068,-0.14697,22.41316,0.82624
519.762,57.0662,-0.14764,22.34479,0.82573
520.362,57.1256,-0.14735,22.3445,0.82521
520.962,57.18512,-0.14764,22.36617,0.8247
521.562,57.2445,-0.1503,22.34449,0.82419
522.162,57.3039,-0.14868,22.34446,0.82367
522.762,57.36297,-0.15077,22.31086,0.82316
523.362,57.42213,-0.15003,22.31099,0.82264
523.962,57.4815,-0.14972,22.30953,0.82213
524.562,57.54095,-0.15072,22.26044,0.82161
525.162,57.60046,-0.14768,22.22627,0.82109
525.762,57.6599,-0.15099,22.2266,0.82058
526.362,57.71943,-0.15272,22.22675,0.82006
526.962,57.7791,-0.15237,22.21007,0.81955
527.562,57.8388,-0.15509,22.21,0.81903
528.162,57.8986,-0.15657,22.21009,0.81851
528.762,57.95836,-0.1568,22.17623,0.81799
529.362,58.0183,-0.16022,22.17621,0.81748
529.962,58.07801,-0.1565,22.17822,0.81696
530.562,58.1379,-0.16011,22.14247,0.81644
531.162,58.19766,-0.15942,22.1597,0.81592
531.762,58.2575,-0.16465,22.12633,0.8154
532.362,58.31736,-0.16035,22.12583,0.81488
532.962,58.37705,-0.16645,22.12519,0.81436
533.562,58.43696,-0.16392,22.09206,0.81385
534.162,58.49657,-0.16551,22.09207,0.81333
534.762,58.5564,-0.16646,22.07605,0.81281
535.362,58.6164,-0.16366,22.05857,0.81229
535.962,58.6762,-0.16646,22.05857,0.81177
536.562,58.73588,-0.16122,22.05857,0.81124
537.162,58.7957,-0.15882,22.05858,0.81072
537.762,58.85549,-0.15529,22.02617,0.8102
538.362,58.9154,-0.15383,22.0248,0.80968
538.962,58.97515,-0.15425,22.02529,0.80916
539.562,59.03484,-0.15606,22.04644,0.80864
540.162,59.0946,-0.15449,22.02455,0.80812
540.762,59.1544,-0.1559,22.01374,0.80759
541.362,59.2139,-0.15547,21.9995,0.80707
541.962,59.2737,-0.15559,21.9688,0.80655
542.562,59.3333,-0.15705,21.96762,0.80603
543.162,59.39309,-0.15355,21.96507,0.8055
543.762,59.4528,-0.15578,21.9657,0.80498
544.362,59.51255,-0.15517,21.9657,0.80446
544.962,59.57207,-0.15441,21.9318,0.80393
545.562,59.6312,-0.15667,21.93197,0.80341
546.162,59.69067,-0.1589,21.93197,0.80288
546.762,59.75029,-0.15755,21.93197,0.80236
547.362,59.8099,-0.15891,21.93197,0.80184
547.962,59.8697,-0.15748,21.89894,0.80131
548.562,59.92938,-0.15741,21.89846,0.80079
549.162,59.98916,-0.16206,21.89846,0.80026
549.762,60.04895,-0.15839,21.89856,0.79973
550.362,60.1087,-0.15682,21.8647,0.79921
550.962,60.1684,-0.15979,21.85923,0.79868
551.562,60.22814,-0.15766,21.8312,0.79816
552.162,60.28787,-0.15903,21.83116,0.79763
552.762,60.3476,-0.15948,21.80623,0.7971
553.362,60.40724,-0.1633,21.80565,0.79658
553.962,60.4669,-0.16003,21.7978,0.79605
554.562,60.5266,-0.16394,21.83126,0.79552
555.162,60.58641,-0.164,21.79566,0.795
555.762,60.64615,-0.16617,21.78228,0.79447
556.362,60.7059,-0.1683,21.76363,0.79394
556.962,60.76575,-0.16897,21.7332,0.79341
557.562,60.82565,-0.17038,21.75509,0.79288
558.162,60.8855,-0.17378,21.73015,0.79236
558.762,60.9453,-0.1751,21.7302,0.79183
559.362,61.00516,-0.17492,21.7302,0.7913
559.962,61.06514,-0.17576,21.73104,0.79077
560.562,61.1251,-0.17994,21.72,0.79024
561.162,61.185,-0.179,21.68797,0.78971
561.762,61.24484,-0.17896,21.6882,0.78918
562.362,61.30477,-0.18283,21.6958,0.78865
562.962,61.3647,-0.185,21.6613,0.78812
563.562,61.42475,-0.18312,21.6798,0.78759
564.162,61.4847,-0.18825,21.6795,0.78706
564.762,61.54473,-0.18514,21.64594,0.78653
565.362,61.6047,-0.18813,21.64603,0.786
565.962,61.66485,-0.18829,21.64599,0.78547
566.562,61.7247,-0.19041,21.6124,0.78494
567.162,61.7848,-0.1896,21.61253,0.78441
567.762,61.84495,-0.19484,21.60587,0.78388
568.362,61.90492,-0.19323,21.57876,0.78334
568.962,61.96479,-0.19533,21.57874,0.78281
569.562,62.02475,-0.19534,21.55387,0.78228
570.162,62.08471,-0.19251,21.52401,0.78175
570.762,62.1446,-0.19058,21.51151,0.78122
571.362,62.2044,-0.19288,21.51193,0.78068
571.962,62.26409,-0.19344,21.495,0.78015
572.562,62.32396,-0.19242,21.49437,0.77962
573.162,62.38358,-0.19399,21.49437,0.77908
573.762,62.44328,-0.19388,21.49438,0.77855
574.362,62.50286,-0.19461,21.46433,0.77802
574.962,62.5626,-0.19729,21.4606,0.77748
575.562,62.62239,-0.19659,21.4606,0.77695
576.162,62.6824,-0.19618,21.49513,0.77642
576.762,62.742,-0.19613,21.43431,0.77588
577.362,62.80191,-0.1986,21.40679,0.77535
577.962,62.86167,-0.19954,21.40179,0.77481
578.562,62.9216,-0.20478,21.3988,0.77428
579.162,62.9815,-0.20431,21.36828,0.77374
579.762,63.0413,-0.20407,21.36833,0.77321
580.362,63.10125,-0.20771,21.33456,0.77267
580.962,63.16105,-0.20699,21.3345,0.77214
581.562,63.221,-0.20587,21.33451,0.7716
582.162,63.28085,-0.20807,21.3092,0.77107
582.762,63.3405,-0.209,21.32655,0.77053
583.362,63.40014,-0.2083,21.32611,0.76999
583.962,63.45992,-0.21075,21.30937,0.76946
584.562,63.51973,-0.21192,21.28416,0.76892
585.162,63.57983,-0.21151,21.21687,0.76839
585.762,63.63981,-0.21298,21.25037,0.76785
586.362,63.69964,-0.21314,21.26686,0.76731
586.962,63.75965,-0.21574,21.24271,0.76678
587.562,63.8195,-0.21742,21.2335,0.76624
588.162,63.87939,-0.21899,21.23328,0.7657
588.762,63.93937,-0.22052,21.2,0.76516
589.362,63.99925,-0.22291,21.19999,0.76463
589.962,64.05927,-0.22161,21.19166,0.76409
590.562,64.11928,-0.22108,21.15781,0.76355
591.162,64.1793,-0.22028,21.1249,0.76301
591.762,64.2394,-0.22315,21.12441,0.76247
592.362,64.29941,-0.22426,21.1581,0.76194
592.962,64.35953,-0.22601,21.14149,0.7614
593.562,64.41979,-0.22648,21.1243,0.76086
594.162,64.48018,-0.22637,21.1243,0.76032
594.762,64.5403,-0.23239,21.12415,0.75978
595.362,64.60042,-0.23028,21.0815,0.75924
595.962,64.66054,-0.23037,21.06527,0.7587
596.562,64.72076,-0.23179,21.06524,0.75816
597.162,64.7811,-0.23479,21.03174,0.75762
597.762,64.8413,-0.23633,21.03171,0.75709
598.362,64.90154,-0.23584,20.9963,0.75655
598.962,64.96169,-0.23537,21.03184,0.75601
599.562,65.02205,-0.23715,21.02959,0.75547
600.162,65.0822,-0.23472,20.99794,0.75493
600.762,65.1422,-0.23664,21.02528,0.75439
601.362,65.20229,-0.23858,21.00659,0.75384
601.962,65.2624,-0.23764,20.9752,0.7533
602.562,65.32248,-0.24141,20.9533,0.75276
603.162,65.3826,-0.23679,20.9222,0.75222
603.762,65.44229,-0.24016,20.95545,0.75168
604.362,65.50247,-0.23992,20.95544,0.75114
604.962,65.5626,-0.23943,20.8893,0.7506
605.562,65.6232,-0.24369,20.88745,0.75006
606.162,65.68344,-0.24253,20.8969,0.74952
606.762,65.74372,-0.24776,20.8969,0.74898
607.362,65.80386,-0.24413,20.8969,0.74843
607.962,65.86401,-0.24561,20.89698,0.74789
608.562,65.92401,-0.24651,20.8879,0.74735
609.162,65.9841,-0.25253,20.85468,0.74681
609.762,66.0442,-0.25103,20.82105,0.74627
610.362,66.10431,-0.25262,20.82123,0.74572
610.962,66.16463,-0.25139,20.81981,0.74518
611.562,66.22487,-0.25523,20.78746,0.74464
612.162,66.28511,-0.25629,20.7875,0.7441
612.762,66.34536,-0.25736,20.7875,0.74355
613.362,66.4055,-0.25657,20.75924,0.74301
613.962,66.46559,-0.26044,20.7875,0.74247
614.562,66.52595,-0.25685,20.78748,0.74192
615.162,66.58614,-0.25682,20.75875,0.74138
615.762,66.64645,-0.25696,20.754,0.74084
616.362,66.70691,-0.25611,20.72379,0.74029
616.962,66.76705,-0.25959,20.72021,0.73975
617.562,66.82735,-0.26132,20.72021,0.73921
618.162,66.88726,-0.26273,20.71959,0.73866
618.762,66.94753,-0.25979,20.68669,0.73812
619.362,67.0078,-0.262,20.6878,0.73757
619.962,67.06795,-0.26282,20.65295,0.73703
620.562,67.12828,-0.26173,20.65294,0.73649
621.162,67.1883,-0.25999,20.65294,0.73594
621.762,67.24845,-0.26385,20.65295,0.7354
622.362,67.30852,-0.26366,20.62095,0.73485
622.962,67.3685,-0.26261,20.65094,0.73431
623.562,67.42849,-0.26008,20.65295,0.73376
624.162,67.48857,-0.26102,20.61363,0.73322
624.762,67.54849,-0.26252,20.58543,0.73267
625.362,67.6086,-0.26087,20.58545,0.73213
625.962,67.66874,-0.26474,20.58568,0.73158
626.562,67.72895,-0.26137,20.58716,0.73104
627.162,67.78928,-0.25981,20.5266,0.73049
627.762,67.8494,-0.25991,20.5266,0.72995
628.362,67.90972,-0.25788,20.49308,0.7294
628.962,67.97004,-0.25808,20.52659,0.72886
629.562,68.03016,-0.26008,20.5601,0.72831
630.162,68.09021,-0.26196,20.5515,0.72777
630.762,68.15044,-0.2649,20.5266,0.72722
631.362,68.2106,-0.26576,20.5266,0.72667
631.962,68.27114,-0.26674,20.52659,0.72613
632.562,68.33148,-0.26337,20.49185,0.72558
633.162,68.39156,-0.2633,20.4589,0.72504
633.762,68.45153,-0.26589,20.49307,0.72449
634.362,68.51145,-0.26391,20.4577,0.72394
634.962,68.57141,-0.26746,20.45934,0.7234
635.562,68.63121,-0.26768,20.45934,0.72285
636.162,68.69078,-0.26876,20.45934,0.7223
636.762,68.75076,-0.2672,20.4492,0.72176
637.362,68.8108,-0.27028,20.42557,0.72121
637.962,68.8708,-0.26787,20.42557,0.72066
638.562,68.9311,-0.27012,20.42557,0.72012
639.162,68.99123,-0.27108,20.42557,0.71957
639.762,69.05125,-0.26949,20.42341,0.71902
640.362,69.1114,-0.26943,20.3934,0.71847
640.962,69.1715,-0.27005,20.42588,0.71793
641.562,69.23153,-0.27081,20.39211,0.71738
642.162,69.29157,-0.27027,20.39184,0.71683
642.762,69.35166,-0.27069,20.3584,0.71628
643.362,69.4118,-0.27266,20.3921,0.71574
643.962,69.47189,-0.27408,20.3919,0.71519
644.562,69.53215,-0.27061,20.35849,0.71464
645.162,69.5924,-0.2767,20.35857,0.71409
645.762,69.6528,-0.27404,20.35857,0.71355
646.362,69.71329,-0.27775,20.35853,0.713
646.962,69.77368,-0.27684,20.32463,0.71245
647.562,69.8342,-0.27495,20.32477,0.7119
648.162,69.89454,-0.27782,20.2909,0.71135
648.762,69.95482,-0.2798,20.29105,0.71081
649.362,70.01519,-0.27898,20.29104,0.71026
649.962,70.07564,-0.27721,20.3091,0.70971
650.562,70.13622,-0.283,20.32465,0.70916
651.162,70.19683,-0.2792,20.32457,0.70861
651.762,70.25731,-0.28486,20.2914,0.70806
652.362,70.31785,-0.28561,20.29103,0.70752
652.962,70.37826,-0.28601,20.25684,0.70697
653.562,70.43874,-0.28654,20.2574,0.70642
654.162,70.4991,-0.28861,20.22379,0.70587
654.762,70.55963,-0.28974,20.2238,0.70532
655.362,70.6202,-0.2904,20.2238,0.70477
655.962,70.6806,-0.29042,20.2573,0.70422
656.562,70.74119,-0.29026,20.23176,0.70367
657.162,70.80159,-0.29173,20.26634,0.70312
657.762,70.86189,-0.29255,20.26492,0.70258
658.362,70.9221,-0.29163,20.19475,0.70203
658.962,70.98238,-0.29399,20.19472,0.70148
659.562,71.04258,-0.29506,20.22384,0.70093
660.162,71.10245,-0.29315,20.19679,0.70038
660.762,71.16279,-0.2985,20.19003,0.69983
661.362,71.22304,-0.2961,20.19003,0.69928
661.962,71.28361,-0.29381,20.19098,0.69873
662.562,71.34402,-0.29495,20.15654,0.69818
663.162,71.40448,-0.29417,20.1528,0.69763
663.762,71.4648,-0.29394,20.14808,0.69708
664.362,71.52529,-0.29279,20.14808,0.69653
664.962,71.5857,-0.29914,20.14808,0.69598
665.562,71.64626,-0.29871,20.14772,0.69543
666.162,71.70687,-0.29971,20.11427,0.69488
666.762,71.76733,-0.29912,20.11431,0.69433
667.362,71.8279,-0.29734,20.14781,0.69378
667.962,71.88842,-0.29841,20.11589,0.69323
668.562,71.94893,-0.30101,20.1143,0.69268
669.162,72.00958,-0.3024,20.11376,0.69213
669.762,72.07011,-0.30502,20.1477,0.69158
670.362,72.1306,-0.30331,20.1143,0.69103
670.962,72.19131,-0.30423,20.1143,0.69048
671.562,72.25192,-0.30437,20.11234,0.68993
672.162,72.31266,-0.30687,20.08081,0.68938
672.762,72.3735,-0.31022,20.0808,0.68883
673.362,72.4341,-0.30788,20.08081,0.68828
673.962,72.49484,-0.309,20.07235,0.68773
674.562,72.5553,-0.31066,20.07212,0.68718
675.162,72.616,-0.30659,20.07212,0.68663
675.762,72.67657,-0.30467,20.07212,0.68608
676.362,72.7371,-0.30628,20.08108,0.68553
676.962,72.79774,-0.31077,20.10451,0.68498
677.562,72.85815,-0.31425,20.07212,0.68443
678.162,72.91837,-0.31301,20.07212,0.68388
678.762,72.9789,-0.31143,20.06702,0.68333
679.362,73.03939,-0.31236,20.00486,0.68278
679.962,73.10048,-0.31233,20.0393,0.68223
680.562,73.16099,-0.31603,20.0386,0.68168
681.162,73.22143,-0.31769,20.03034,0.68113
681.762,73.28182,-0.32243,20.0302,0.68058
682.362,73.34226,-0.32398,20.0302,0.68003
682.962,73.40285,-0.3234,20.03173,0.67948
683.562,73.46341,-0.32539,20.00485,0.67893
684.162,73.52375,-0.32997,20.00486,0.67838
684.762,73.58409,-0.33311,20.00486,0.67783
685.362,73.6444,-0.33126,20.0049,0.67728
685.962,73.70482,-0.33134,19.97168,0.67673
686.562,73.76541,-0.33409,19.98987,0.67618
687.162,73.82591,-0.33971,19.99667,0.67563
687.762,73.88628,-0.33815,19.9967,0.67508
688.362,73.94671,-0.33907,19.99667,0.67452
688.962,74.00716,-0.33811,19.9615,0.67397
689.562,74.06774,-0.3413,19.96291,0.67342
690.162,74.12819,-0.34336,19.96291,0.67287
690.762,74.18874,-0.33993,19.96291,0.67232
691.362,74.2492,-0.34414,19.963,0.67177
691.962,74.30969,-0.34344,19.9379,0.67122
692.562,74.37002,-0.34388,19.9292,0.67067
693.162,74.43039,-0.34505,19.9376,0.67012
693.762,74.49072,-0.34839,19.9376,0.66957
694.362,74.55122,-0.34843,19.93767,0.66902
694.962,74.61169,-0.35097,19.9359,0.66847
695.562,74.6721,-0.34697,19.93758,0.66792
696.162,74.73216,-0.34947,19.90394,0.66737
696.762,74.79259,-0.3539,19.93777,0.66682
697.362,74.85324,-0.35652,19.93845,0.66626
697.962,74.91427,-0.35574,19.90386,0.66571
698.562,74.97508,-0.35834,19.90384,0.66516
698.762,74.99512,-0.35939,19.90384,0.66498