File: 01_Data/Overstuffed_Chair_Polyester_Batting/STA/N2/10K_min/Overstuffed_Chair_Polyester_Batting_STA_N2_10KData_220201_R3.csv
##Temp./Â°C,Time/min,DSC(subtr.2)/(mW/mg),Mass(subtr.2)/%,Sensit./(uV/mW)
49.28,10.01,-0.00926926,100.846,1.07447
49.88,10.73049,0.02135647,100.887,1.07443
50.48,10.9168,0.04153016,100.911,1.07439
51.08,11.05921,0.05914572,100.867,1.07435
51.68,11.17733,0.07531897,100.917,1.0743
52.28,11.2817,0.08906745,100.922,1.07426
52.88,11.3775,0.09946816,100.929,1.07421
53.48,11.46692,0.11056,100.934,1.07416
54.08,11.5516,0.1184,100.97,1.07412
54.68,11.63305,0.12793,100.949,1.07407
55.28,11.71161,0.13416,100.97,1.07402
55.88,11.78779,0.13901,100.969,1.07397
56.48,11.86229,0.1453,100.959,1.07392
57.08,11.935,0.14955,100.969,1.07387
57.68,12.00671,0.15323,100.957,1.07382
58.28,12.07767,0.15596,100.962,1.07376
58.88,12.1477,0.16037,100.955,1.07371
59.48,12.21665,0.16289,100.966,1.07365
60.08,12.28497,0.16376,101.007,1.0736
60.68,12.35272,0.16804,100.994,1.07354
61.28,12.42034,0.17173,100.974,1.07349
61.88,12.4869,0.17002,100.9624,1.07343
62.48,12.55363,0.17309,100.961,1.07337
63.08,12.62008,0.17228,100.991,1.07331
63.68,12.68639,0.17607,100.991,1.07325
64.28,12.75192,0.1779,101.003,1.07319
64.88,12.81729,0.18071,100.997,1.07312
65.48,12.8827,0.1831,101.024,1.07306
66.08,12.94802,0.18591,101.011,1.073
66.68,13.01277,0.19009,100.991,1.07293
67.28,13.07745,0.1927,100.991,1.07287
67.88,13.14156,0.19838,101.018,1.0728
68.48,13.20624,0.20098,100.991,1.07273
69.08,13.2707,0.19969,101.025,1.07266
69.68,13.335,0.20026,101.024,1.07259
70.28,13.39892,0.19944,101.0238,1.07252
70.88,13.4628,0.199,101.041,1.07245
71.48,13.52658,0.19833,101.022,1.07238
72.08,13.59025,0.19841,101.032,1.07231
72.68,13.65385,0.19839,101.055,1.07224
73.28,13.7173,0.19932,101.056,1.07216
73.88,13.78045,0.1991,101.065,1.07209
74.48,13.8433,0.19922,101.059,1.07201
75.08,13.90629,0.20017,101.074,1.07194
75.68,13.96918,0.19856,101.0631,1.07186
76.28,14.0322,0.20109,101.09,1.07178
76.88,14.0937,0.20197,101.056,1.0717
77.48,14.15603,0.20242,101.026,1.07162
78.08,14.21764,0.20442,101.056,1.07154
78.68,14.2804,0.20415,101.089,1.07146
79.28,14.34283,0.20537,101.0567,1.07138
79.88,14.40504,0.20638,101.089,1.07129
80.48,14.46739,0.20674,101.121,1.07121
81.08,14.52909,0.20989,101.097,1.07112
81.68,14.59048,0.20793,101.122,1.07104
82.28,14.6517,0.21071,101.089,1.07095
82.88,14.71305,0.21136,101.121,1.07086
83.48,14.7742,0.21286,101.123,1.07078
84.08,14.83525,0.21237,101.121,1.07069
84.68,14.8964,0.21511,101.099,1.0706
85.28,14.95681,0.215,101.121,1.07051
85.88,15.0175,0.21683,101.121,1.07041
86.48,15.0778,0.21685,101.154,1.07032
87.08,15.13822,0.21662,101.121,1.07023
87.68,15.19915,0.21825,101.121,1.07013
88.28,15.2594,0.21977,101.1281,1.07004
88.88,15.31984,0.22003,101.153,1.06994
89.48,15.37989,0.22027,101.153,1.06985
90.08,15.4399,0.22273,101.153,1.06975
90.68,15.5001,0.22328,101.153,1.06965
91.28,15.55984,0.22489,101.121,1.06955
91.88,15.61958,0.22474,101.1537,1.06945
92.48,15.67932,0.22551,101.178,1.06935
93.08,15.73885,0.22722,101.153,1.06925
93.68,15.79853,0.22722,101.153,1.06915
94.28,15.85793,0.22893,101.121,1.06904
94.88,15.91719,0.22635,101.154,1.06894
95.48,15.9769,0.22944,101.153,1.06884
96.08,16.03659,0.22924,101.156,1.06873
96.68,16.09626,0.2301,101.1537,1.06862
97.28,16.1563,0.23191,101.1936,1.06852
97.88,16.21584,0.23122,101.191,1.06841
98.48,16.2754,0.23162,101.159,1.0683
99.08,16.3347,0.23307,101.159,1.06819
99.68,16.394,0.23231,101.16,1.06808
100.28,16.45335,0.23473,101.141,1.06797
100.88,16.5125,0.23472,101.1589,1.06786
101.48,16.57164,0.23589,101.181,1.06774
102.08,16.6307,0.23626,101.167,1.06763
102.68,16.68989,0.23569,101.2,1.06751
103.28,16.74909,0.23957,101.1994,1.0674
103.88,16.80784,0.23807,101.198,1.06728
104.48,16.86717,0.23626,101.191,1.06716
105.08,16.92614,0.23851,101.159,1.06705
105.68,16.98546,0.24058,101.19,1.06693
106.28,17.04437,0.24211,101.191,1.06681
106.88,17.1033,0.24031,101.226,1.06669
107.48,17.16238,0.24256,101.221,1.06657
108.08,17.2215,0.2448,101.191,1.06644
108.68,17.28027,0.24339,101.191,1.06632
109.28,17.33919,0.24485,101.165,1.0662
109.88,17.39784,0.24298,101.194,1.06607
110.48,17.45699,0.24702,101.194,1.06595
111.08,17.51587,0.24906,101.194,1.06582
111.68,17.57465,0.24863,101.198,1.0657
112.28,17.63364,0.25015,101.194,1.06557
112.88,17.6924,0.25064,101.2198,1.06544
113.48,17.75094,0.25077,101.226,1.06531
114.08,17.8094,0.25385,101.194,1.06518
114.68,17.8678,0.25504,101.213,1.06505
115.28,17.92657,0.2564,101.217,1.06492
115.88,17.98534,0.2574,101.194,1.06478
116.48,18.04401,0.25843,101.227,1.06465
117.08,18.10265,0.25926,101.226,1.06452
117.68,18.16112,0.25981,101.208,1.06438
118.28,18.21978,0.26222,101.194,1.06425
118.88,18.27814,0.26511,101.227,1.06411
119.48,18.3365,0.26581,101.228,1.06397
120.08,18.39496,0.26937,101.213,1.06383
120.68,18.45328,0.26939,101.234,1.06369
121.28,18.512,0.27161,101.234,1.06355
121.88,18.57033,0.2741,101.234,1.06341
122.48,18.62878,0.27679,101.2271,1.06327
123.08,18.6872,0.2778,101.216,1.06313
123.68,18.7456,0.27836,101.227,1.06299
124.28,18.80384,0.28341,101.2266,1.06284
124.88,18.8624,0.28588,101.2266,1.0627
125.48,18.92084,0.28773,101.252,1.06255
126.08,18.97936,0.2933,101.218,1.06241
126.68,19.0378,0.29757,101.227,1.06226
127.28,19.0962,0.30157,101.226,1.06211
127.88,19.1545,0.30503,101.194,1.06196
128.48,19.21319,0.30915,101.179,1.06181
129.08,19.2716,0.31215,101.226,1.06166
129.68,19.33004,0.31493,101.226,1.06151
130.28,19.3886,0.31642,101.259,1.06136
130.88,19.44696,0.31774,101.259,1.06121
131.48,19.50539,0.3188,101.261,1.06105
132.08,19.56375,0.32115,101.259,1.0609
132.68,19.62208,0.31773,101.259,1.06074
133.28,19.68034,0.31751,101.242,1.06059
133.88,19.73851,0.3144,101.227,1.06043
134.48,19.79661,0.31139,101.259,1.06027
135.08,19.8548,0.3058,101.259,1.06011
135.68,19.91258,0.30185,101.259,1.05996
136.28,19.97075,0.29224,101.252,1.0598
136.88,20.02887,0.28735,101.267,1.05964
137.48,20.08693,0.28285,101.267,1.05947
138.08,20.14536,0.27727,101.267,1.05931
138.68,20.20341,0.27145,101.299,1.05915
139.28,20.26144,0.27132,101.298,1.05898
139.88,20.31935,0.26526,101.26,1.05882
140.48,20.37709,0.26457,101.259,1.05865
141.08,20.4348,0.26273,101.259,1.05849
141.68,20.49251,0.26089,101.234,1.05832
142.28,20.55036,0.26136,101.251,1.05815
142.88,20.60793,0.26056,101.267,1.05798
143.48,20.66506,0.2617,101.268,1.05782
144.08,20.72269,0.2604,101.262,1.05764
144.68,20.7803,0.26143,101.291,1.05747
145.28,20.838,0.26295,101.3,1.0573
145.88,20.89601,0.26107,101.283,1.05713
146.48,20.9535,0.26275,101.283,1.05696
147.08,21.01105,0.26248,101.282,1.05678
147.68,21.06864,0.26258,101.251,1.05661
148.28,21.1262,0.2648,101.251,1.05643
148.88,21.18379,0.26473,101.259,1.05625
149.48,21.2413,0.2669,101.267,1.05608
150.08,21.2989,0.26545,101.3,1.0559
150.68,21.35664,0.26644,101.3,1.05572
151.28,21.41425,0.26708,101.245,1.05554
151.88,21.472,0.26838,101.255,1.05536
152.48,21.5295,0.26626,101.267,1.05518
153.08,21.58705,0.26718,101.283,1.055
153.68,21.64471,0.26823,101.283,1.05481
154.28,21.70223,0.27082,101.282,1.05463
154.88,21.7597,0.27108,101.3,1.05445
155.48,21.81706,0.27118,101.267,1.05426
156.08,21.87435,0.27103,101.272,1.05408
156.68,21.9317,0.27115,101.267,1.05389
157.28,21.9892,0.2716,101.267,1.0537
157.88,22.04685,0.27173,101.267,1.05351
158.48,22.1046,0.27412,101.267,1.05332
159.08,22.16212,0.27319,101.28,1.05313
159.68,22.21978,0.2725,101.3,1.05294
160.28,22.27713,0.27431,101.299,1.05275
160.88,22.3346,0.27498,101.332,1.05256
161.48,22.39203,0.27299,101.334,1.05237
162.08,22.44959,0.27506,101.332,1.05217
162.68,22.50725,0.27388,101.324,1.05198
163.28,22.56465,0.27564,101.323,1.05178
163.88,22.62225,0.27827,101.332,1.05159
164.48,22.67977,0.27812,101.332,1.05139
165.08,22.73718,0.27633,101.332,1.05119
165.68,22.7946,0.27567,101.301,1.051
166.28,22.852,0.27709,101.299,1.0508
166.88,22.90956,0.27846,101.308,1.0506
167.48,22.96694,0.27926,101.308,1.0504
168.08,23.02454,0.27713,101.338,1.0502
168.68,23.08182,0.28103,101.34,1.04999
169.28,23.13941,0.28116,101.3722,1.04979
169.88,23.197,0.28129,101.356,1.04959
170.48,23.25464,0.28205,101.315,1.04938
171.08,23.3119,0.28097,101.307,1.04918
171.68,23.36908,0.28191,101.307,1.04897
172.28,23.4264,0.28112,101.307,1.04877
172.88,23.48389,0.28397,101.307,1.04856
173.48,23.54148,0.28299,101.307,1.04835
174.08,23.59873,0.28506,101.283,1.04814
174.68,23.65608,0.28273,101.286,1.04793
175.28,23.71347,0.2824,101.316,1.04772
175.88,23.77099,0.28563,101.316,1.04751
176.48,23.82852,0.28283,101.309,1.0473
177.08,23.88596,0.28668,101.308,1.04708
177.68,23.9434,0.28589,101.308,1.04687
178.28,24.0007,0.28651,101.308,1.04666
178.88,24.05804,0.28672,101.34,1.04644
179.48,24.11535,0.28699,101.34,1.04623
180.08,24.1728,0.28689,101.299,1.04601
180.68,24.22968,0.28824,101.326,1.04579
181.28,24.287,0.289,101.326,1.04557
181.88,24.3442,0.2877,101.326,1.04536
182.48,24.4014,0.28981,101.326,1.04514
183.08,24.45906,0.28954,101.326,1.04492
183.68,24.51615,0.29212,101.328,1.04469
184.28,24.5729,0.29191,101.31,1.04447
184.88,24.62996,0.29134,101.3101,1.04425
185.48,24.6871,0.2898,101.343,1.04403
186.08,24.7444,0.29184,101.343,1.0438
186.68,24.80167,0.29254,101.342,1.04358
187.28,24.85891,0.29008,101.359,1.04335
187.88,24.91614,0.29064,101.359,1.04313
188.48,24.9733,0.29364,101.341,1.0429
189.08,25.0308,0.29472,101.343,1.04267
189.68,25.08804,0.2935,101.326,1.04244
190.28,25.145,0.29643,101.326,1.04221
190.88,25.20225,0.29516,101.359,1.04198
191.48,25.25945,0.29489,101.359,1.04175
192.08,25.3168,0.29706,101.359,1.04152
192.68,25.37402,0.29625,101.3267,1.04129
193.28,25.43109,0.29764,101.326,1.04106
193.88,25.48826,0.29886,101.326,1.04082
194.48,25.5453,0.29884,101.327,1.04059
195.08,25.6026,0.29757,101.359,1.04035
195.68,25.65974,0.29961,101.359,1.04012
196.28,25.71714,0.30111,101.359,1.03988
196.88,25.77444,0.30098,101.359,1.03964
197.48,25.8321,0.30067,101.359,1.0394
198.08,25.88948,0.29979,101.359,1.03917
198.68,25.9469,0.3,101.3585,1.03893
199.28,26.00443,0.3029,101.359,1.03869
199.88,26.06169,0.30371,101.359,1.03844
200.48,26.119,0.30221,101.358,1.0382
201.08,26.17614,0.30402,101.391,1.03796
201.68,26.23347,0.30303,101.391,1.03772
202.28,26.29092,0.30189,101.359,1.03747
202.88,26.3485,0.3051,101.359,1.03723
203.48,26.40588,0.30515,101.359,1.03698
204.08,26.4633,0.30534,101.359,1.03674
204.68,26.5205,0.30521,101.359,1.03649
205.28,26.57787,0.3044,101.359,1.03624
205.88,26.6353,0.30439,101.36,1.03599
206.48,26.6928,0.30609,101.327,1.03574
207.08,26.75023,0.30706,101.359,1.03549
207.68,26.80749,0.30833,101.359,1.03524
208.28,26.8647,0.30747,101.359,1.03499
208.88,26.9218,0.30875,101.359,1.03474
209.48,26.9791,0.31075,101.359,1.03449
210.08,27.03649,0.31058,101.363,1.03423
210.68,27.0939,0.31143,101.359,1.03398
211.28,27.1511,0.31238,101.391,1.03372
211.88,27.2085,0.31197,101.391,1.03347
212.48,27.26567,0.31514,101.367,1.03321
213.08,27.323,0.31615,101.367,1.03296
213.68,27.3804,0.3146,101.4,1.0327
214.28,27.4377,0.31765,101.4,1.03244
214.88,27.495,0.31723,101.4,1.03218
215.48,27.5522,0.3193,101.399,1.03192
216.08,27.6093,0.31932,101.391,1.03166
216.68,27.66667,0.3206,101.325,1.0314
217.28,27.72387,0.32192,101.359,1.03114
217.88,27.781,0.32237,101.359,1.03087
218.48,27.8383,0.32697,101.375,1.03061
219.08,27.89552,0.32479,101.375,1.03035
219.68,27.95259,0.32723,101.408,1.03008
220.28,28.00974,0.32793,101.407,1.02981
220.88,28.06673,0.33083,101.375,1.02955
221.48,28.1238,0.33121,101.375,1.02928
222.08,28.181,0.33372,101.374,1.02901
222.68,28.2384,0.33412,101.407,1.02874
223.28,28.2957,0.3364,101.41,1.02848
223.88,28.35322,0.3379,101.3713,1.02821
224.48,28.41082,0.34041,101.342,1.02794
225.08,28.46834,0.3387,101.375,1.02766
225.68,28.52583,0.34423,101.375,1.02739
226.28,28.5831,0.34285,101.375,1.02712
226.88,28.64038,0.34552,101.375,1.02685
227.48,28.69787,0.34781,101.3914,1.02657
228.08,28.75515,0.34714,101.391,1.0263
228.68,28.81263,0.35167,101.391,1.02602
229.28,28.87005,0.35523,101.391,1.02574
229.88,28.9275,0.35653,101.397,1.02547
230.48,28.9849,0.35535,101.407,1.02519
231.08,29.0425,0.36018,101.407,1.02491
231.68,29.10015,0.36258,101.391,1.02463
232.28,29.1575,0.36569,101.375,1.02435
232.88,29.2149,0.36654,101.375,1.02407
233.48,29.27222,0.37179,101.375,1.02379
234.08,29.3296,0.37567,101.375,1.02351
234.68,29.387,0.37996,101.401,1.02323
235.28,29.44443,0.38386,101.407,1.02294
235.88,29.50171,0.38947,101.407,1.02266
236.48,29.5591,0.39485,101.407,1.02238
237.08,29.61614,0.40011,101.375,1.02209
237.68,29.67345,0.4053,101.376,1.0218
238.28,29.7307,0.41145,101.352,1.02152
238.88,29.7882,0.41677,101.375,1.02123
239.48,29.84565,0.42614,101.375,1.02094
240.08,29.90305,0.43238,101.384,1.02065
240.68,29.9604,0.44261,101.383,1.02036
241.28,30.01789,0.45303,101.383,1.02007
241.88,30.07528,0.46283,101.383,1.01978
242.48,30.1328,0.47418,101.383,1.01949
243.08,30.1903,0.4892,101.366,1.0192
243.68,30.24778,0.50551,101.383,1.01891
244.28,30.30515,0.51974,101.376,1.01861
244.88,30.36263,0.53882,101.351,1.01832
245.48,30.4202,0.55753,101.351,1.01802
246.08,30.4776,0.57946,101.379,1.01773
246.68,30.535,0.60747,101.383,1.01743
247.28,30.5925,0.63632,101.358,1.01714
247.88,30.64961,0.67174,101.359,1.01684
248.48,30.7071,0.7104,101.359,1.01654
249.08,30.7646,0.75566,101.359,1.01624
249.68,30.8223,0.80694,101.361,1.01594
250.28,30.8803,0.85953,101.391,1.01564
250.88,30.9379,0.91042,101.367,1.01534
251.48,30.9955,0.96339,101.367,1.01504
252.08,31.0532,1.00885,101.368,1.01474
252.68,31.11093,1.04649,101.4,1.01443
253.28,31.16869,1.07338,101.4,1.01413
253.88,31.2263,1.07997,101.368,1.01382
254.48,31.28411,1.06657,101.365,1.01352
255.08,31.34191,1.02196,101.4027,1.01321
255.68,31.3992,0.94797,101.401,1.01291
256.28,31.4568,0.852,101.399,1.0126
256.88,31.51394,0.75493,101.399,1.01229
257.48,31.5712,0.66642,101.399,1.01198
258.08,31.6282,0.59194,101.375,1.01168
258.68,31.68507,0.53144,101.375,1.01137
259.28,31.742,0.48554,101.375,1.01106
259.88,31.799,0.44669,101.375,1.01074
260.48,31.8558,0.42285,101.375,1.01043
261.08,31.9128,0.40101,101.407,1.01012
261.68,31.96958,0.38144,101.407,1.00981
262.28,32.02641,0.3723,101.402,1.00949
262.88,32.08332,0.36322,101.403,1.00918
263.48,32.14045,0.35858,101.358,1.00886
264.08,32.19766,0.35134,101.377,1.00855
264.68,32.25489,0.34814,101.391,1.00823
265.28,32.31205,0.34734,101.391,1.00792
265.88,32.36902,0.34495,101.391,1.0076
266.48,32.42618,0.34403,101.392,1.00728
267.08,32.4833,0.34435,101.359,1.00696
267.68,32.54055,0.34107,101.359,1.00664
268.28,32.59779,0.34012,101.359,1.00632
268.88,32.6552,0.34116,101.359,1.006
269.48,32.71242,0.34107,101.359,1.00568
270.08,32.76955,0.34492,101.358,1.00536
270.68,32.82648,0.34168,101.375,1.00503
271.28,32.8834,0.34137,101.383,1.00471
271.88,32.94047,0.3416,101.399,1.00439
272.48,32.99765,0.34257,101.399,1.00406
273.08,33.0548,0.34317,101.4,1.00374
273.68,33.11181,0.34498,101.3347,1.00341
274.28,33.1688,0.34584,101.359,1.00308
274.88,33.22595,0.34381,101.359,1.00276
275.48,33.2831,0.34428,101.359,1.00243
276.08,33.3404,0.34459,101.367,1.0021
276.68,33.39774,0.34663,101.367,1.00177
277.28,33.4551,0.34555,101.367,1.00144
277.88,33.5123,0.34675,101.399,1.00111
278.48,33.56955,0.34644,101.367,1.00078
279.08,33.62664,0.34713,101.367,1.00045
279.68,33.68377,0.34721,101.367,1.00012
280.28,33.74105,0.34814,101.343,0.99978
280.88,33.79844,0.34807,101.343,0.99945
281.48,33.85561,0.34744,101.344,0.99911
282.08,33.9129,0.34783,101.326,0.99878
282.68,33.97013,0.34761,101.326,0.99844
283.28,34.02729,0.34786,101.286,0.99811
283.88,34.0847,0.34803,101.324,0.99777
284.48,34.14195,0.35079,101.324,0.99743
285.08,34.19935,0.34898,101.381,0.9971
285.68,34.25694,0.34707,101.381,0.99676
286.28,34.31416,0.34906,101.381,0.99642
286.88,34.3718,0.34986,101.346,0.99608
287.48,34.42909,0.34925,101.348,0.99574
288.08,34.4863,0.3508,101.348,0.9954
288.68,34.54358,0.35091,101.364,0.99505
289.28,34.60086,0.34482,101.364,0.99471
289.88,34.6582,0.34863,101.332,0.99437
290.48,34.71543,0.3485,101.334,0.99402
291.08,34.77267,0.34872,101.364,0.99368
291.68,34.83,0.35073,101.332,0.99334
292.28,34.88743,0.34826,101.333,0.99299
292.88,34.9448,0.34773,101.32,0.99264
293.48,35.0023,0.34915,101.332,0.9923
294.08,35.05962,0.35071,101.332,0.99195
294.68,35.11705,0.34785,101.332,0.9916
295.28,35.1743,0.34943,101.33,0.99125
295.88,35.2316,0.3481,101.307,0.9909
296.48,35.28883,0.34911,101.3,0.99055
297.08,35.34618,0.34973,101.291,0.9902
297.68,35.40367,0.34932,101.291,0.98985
298.28,35.46089,0.34865,101.2995,0.9895
298.88,35.5182,0.35121,101.274,0.98915
299.48,35.5754,0.34826,101.275,0.9888
300.08,35.63281,0.34757,101.275,0.98844
300.68,35.6903,0.35067,101.275,0.98809
301.28,35.74771,0.34856,101.275,0.98773
301.88,35.80515,0.35005,101.275,0.98738
302.48,35.86254,0.34961,101.273,0.98702
303.08,35.92,0.34929,101.232,0.98667
303.68,35.97761,0.34616,101.264,0.98631
304.28,36.0351,0.34772,101.246,0.98595
304.88,36.09253,0.34879,101.248,0.98559
305.48,36.1501,0.34734,101.248,0.98523
306.08,36.20751,0.34862,101.28,0.98487
306.68,36.26498,0.34821,101.2807,0.98451
307.28,36.32232,0.34939,101.262,0.98415
307.88,36.37976,0.35036,101.281,0.98379
308.48,36.43723,0.34816,101.248,0.98343
309.08,36.49465,0.35131,101.247,0.98307
309.68,36.55236,0.34814,101.215,0.9827
310.28,36.60999,0.34758,101.248,0.98234
310.88,36.6676,0.34795,101.216,0.98198
311.48,36.7252,0.34759,101.215,0.98161
312.08,36.78269,0.34969,101.248,0.98125
312.68,36.8403,0.34774,101.248,0.98088
313.28,36.8979,0.34797,101.216,0.98051
313.88,36.95561,0.34734,101.183,0.98015
314.48,37.01341,0.34893,101.201,0.97978
315.08,37.07117,0.34819,101.199,0.97941
315.68,37.12894,0.34798,101.199,0.97904
316.28,37.1868,0.34732,101.199,0.97867
316.88,37.24456,0.34895,101.169,0.9783
317.48,37.30231,0.35098,101.191,0.97793
318.08,37.36009,0.34756,101.191,0.97756
318.68,37.41793,0.34824,101.159,0.97719
319.28,37.47565,0.34841,101.159,0.97681
319.88,37.5334,0.34475,101.159,0.97644
320.48,37.5912,0.34697,101.159,0.97607
321.08,37.64913,0.34617,101.159,0.97569
321.68,37.70686,0.34515,101.159,0.97532
322.28,37.76475,0.34718,101.159,0.97494
322.88,37.82255,0.34468,101.098,0.97457
323.48,37.88043,0.34872,101.094,0.97419
324.08,37.9384,0.34811,101.094,0.97381
324.68,37.99592,0.3471,101.128,0.97344
325.28,38.0538,0.34853,101.094,0.97306
325.88,38.11162,0.34609,101.0702,0.97268
326.48,38.16942,0.34751,101.0697,0.9723
327.08,38.22752,0.34928,101.067,0.97192
327.68,38.2852,0.34813,101.094,0.97154
328.28,38.34313,0.34773,101.072,0.97116
328.88,38.40097,0.34515,101.062,0.97078
329.48,38.45895,0.3485,101.062,0.97039
330.08,38.51682,0.34752,101.062,0.97001
330.68,38.57444,0.34913,101.0615,0.96963
331.28,38.63228,0.35069,101.0938,0.96924
331.88,38.69025,0.35207,101.0613,0.96886
332.48,38.74805,0.35202,101.009,0.96848
333.08,38.8059,0.35251,101.034,0.96809
333.68,38.8636,0.35432,101.064,0.9677
334.28,38.9214,0.35369,101.064,0.96732
334.88,38.97947,0.354,101.064,0.96693
335.48,39.0373,0.35373,101.032,0.96654
336.08,39.09502,0.35404,101.033,0.96615
336.68,39.15285,0.35519,101,0.96576
337.28,39.21065,0.35286,101,0.96537
337.88,39.26843,0.35659,100.968,0.96498
338.48,39.32602,0.3568,100.997,0.96459
339.08,39.38358,0.35684,101.0245,0.9642
339.68,39.4414,0.3594,100.999,0.96381
340.28,39.49906,0.35927,100.967,0.96342
340.88,39.55704,0.35995,100.935,0.96303
341.48,39.61499,0.35866,100.967,0.96263
342.08,39.67289,0.35751,100.967,0.96224
342.68,39.73095,0.36062,100.967,0.96185
343.28,39.78872,0.36066,100.967,0.96145
343.88,39.8465,0.3619,100.966,0.96105
344.48,39.9044,0.36205,100.935,0.96066
345.08,39.96228,0.36141,100.93,0.96026
345.68,40.0199,0.3616,100.9024,0.95987
346.28,40.07759,0.36102,100.934,0.95947
346.88,40.13545,0.35912,100.8712,0.95907
347.48,40.1935,0.361,100.871,0.95867
348.08,40.2517,0.36298,100.894,0.95827
348.68,40.31012,0.36216,100.894,0.95787
349.28,40.36823,0.36153,100.894,0.95747
349.88,40.4265,0.3646,100.837,0.95707
350.48,40.48464,0.36333,100.837,0.95667
351.08,40.5428,0.36403,100.837,0.95627
351.68,40.60094,0.36307,100.837,0.95586
352.28,40.6589,0.3637,100.87,0.95546
352.88,40.71672,0.36524,100.866,0.95506
353.48,40.77459,0.36574,100.805,0.95465
354.08,40.83253,0.36852,100.805,0.95425
354.68,40.8904,0.36792,100.773,0.95384
355.28,40.94828,0.36829,100.773,0.95344
355.88,41.006,0.37221,100.773,0.95303
356.48,41.06384,0.37211,100.774,0.95263
357.08,41.12189,0.37113,100.74,0.95222
357.68,41.17962,0.37095,100.74,0.95181
358.28,41.23762,0.37394,100.74,0.9514
358.88,41.2955,0.37615,100.6717,0.95099
359.48,41.35335,0.37733,100.686,0.95059
360.08,41.41137,0.37446,100.67,0.95018
360.68,41.46934,0.37847,100.67,0.94976
361.28,41.52726,0.37827,100.666,0.94935
361.88,41.5852,0.37971,100.637,0.94894
362.48,41.64328,0.37874,100.6,0.94853
363.08,41.70113,0.3776,100.6164,0.94812
363.68,41.7592,0.37767,100.6,0.94771
364.28,41.8175,0.38172,100.633,0.94729
364.88,41.8755,0.38106,100.619,0.94688
365.48,41.93383,0.38225,100.567,0.94646
366.08,41.99198,0.38246,100.534,0.94605
366.68,42.05,0.38313,100.527,0.94563
367.28,42.1082,0.38568,100.478,0.94522
367.88,42.16632,0.38638,100.448,0.9448
368.48,42.2245,0.38442,100.413,0.94438
369.08,42.28282,0.3866,100.411,0.94397
369.68,42.34113,0.38624,100.3676,0.94355
370.28,42.39938,0.38574,100.367,0.94313
370.88,42.45778,0.38779,100.333,0.94271
371.48,42.51611,0.39034,100.34,0.94229
372.08,42.57438,0.38927,100.325,0.94187
372.68,42.6327,0.39332,100.28,0.94145
373.28,42.69095,0.39508,100.202,0.94103
373.88,42.74915,0.39362,100.203,0.94061
374.48,42.80741,0.39868,100.17,0.94019
375.08,42.86564,0.3982,100.139,0.93977
375.68,42.92394,0.4035,100.039,0.93934
376.28,42.98225,0.40609,99.998,0.93892
376.88,43.04065,0.40438,99.99938,0.93849
377.48,43.09903,0.40687,99.9671,0.93807
378.08,43.1573,0.41062,99.9353,0.93765
378.68,43.2157,0.40916,99.90394,0.93722
379.28,43.2737,0.41124,99.8439,0.93679
379.88,43.33214,0.41268,99.7997,0.93637
380.48,43.3907,0.41271,99.76124,0.93594
381.08,43.44898,0.41663,99.7157,0.93551
381.68,43.50782,0.41855,99.62943,0.93509
382.28,43.56625,0.41593,99.5487,0.93466
382.88,43.62485,0.41824,99.47277,0.93423
383.48,43.68346,0.42169,99.39353,0.9338
384.08,43.74211,0.42339,99.34949,0.93337
384.68,43.8007,0.42702,99.28145,0.93294
385.28,43.8592,0.42852,99.20575,0.93251
385.88,43.91762,0.42889,99.1499,0.93208
386.48,43.97607,0.43356,99.04697,0.93165
387.08,44.03475,0.43419,98.95444,0.93121
387.68,44.0934,0.43809,98.84048,0.93078
388.28,44.15206,0.43945,98.76137,0.93035
388.88,44.21051,0.44323,98.64491,0.92991
389.48,44.26889,0.44796,98.52341,0.92948
390.08,44.3272,0.4514,98.42777,0.92905
390.68,44.38556,0.45158,98.3198,0.92861
391.28,44.44395,0.45643,98.19729,0.92818
391.88,44.5023,0.46124,98.11022,0.92774
392.48,44.56064,0.46127,97.93374,0.9273
393.08,44.619,0.46715,97.78995,0.92687
393.68,44.6773,0.4709,97.66069,0.92643
394.28,44.73567,0.47219,97.5951,0.92599
394.88,44.79403,0.47883,97.40154,0.92555
395.48,44.85246,0.48035,97.22847,0.92512
396.08,44.9107,0.4857,97.01184,0.92468
396.68,44.96907,0.49072,96.84491,0.92424
397.28,45.02737,0.49297,96.64747,0.9238
397.88,45.08576,0.49627,96.5055,0.92336
398.48,45.14423,0.50013,96.3635,0.92291
399.08,45.2027,0.49815,96.14791,0.92247
399.68,45.26125,0.50399,95.90356,0.92203
400.28,45.31969,0.50708,95.711,0.92159
400.88,45.37825,0.50888,95.4709,0.92115
401.48,45.4368,0.51074,95.2544,0.9207
402.08,45.49545,0.51147,95.03653,0.92026
402.68,45.55428,0.51202,94.78185,0.91982
403.28,45.61291,0.51738,94.5575,0.91937
403.88,45.67163,0.51905,94.30001,0.91893
404.48,45.73041,0.52788,93.9786,0.91848
405.08,45.7891,0.5331,93.69459,0.91803
405.68,45.8479,0.53629,93.455,0.91759
406.28,45.90656,0.54353,93.13468,0.91714
406.88,45.96529,0.55102,92.8166,0.91669
407.48,46.02409,0.55813,92.4843,0.91625
408.08,46.0829,0.56375,92.18489,0.9158
408.68,46.14168,0.57174,91.75244,0.91535
409.28,46.20045,0.57719,91.37646,0.9149
409.88,46.25939,0.58732,91.01302,0.91445
410.48,46.31819,0.59201,90.60425,0.914
411.08,46.37695,0.59625,90.23859,0.91355
411.68,46.4356,0.60333,89.80382,0.9131
412.28,46.49442,0.61324,89.342,0.91265
412.88,46.55337,0.62525,88.88717,0.9122
413.48,46.61221,0.63082,88.4301,0.91174
414.08,46.67114,0.63892,87.9271,0.91129
414.68,46.73023,0.65216,87.43295,0.91084
415.28,46.78926,0.66687,86.90374,0.91039
415.88,46.84848,0.69103,86.30411,0.90993
416.48,46.90737,0.70227,85.75725,0.90948
417.08,46.96624,0.70863,85.12115,0.90902
417.68,47.02496,0.71501,84.4996,0.90857
418.28,47.0839,0.72283,83.8397,0.90811
418.88,47.14271,0.72561,83.19959,0.90766
419.48,47.20154,0.73267,82.46996,0.9072
420.08,47.2605,0.73356,81.7855,0.90674
420.68,47.31928,0.7281,81.06,0.90629
421.28,47.37814,0.7224,80.3657,0.90583
421.88,47.43696,0.71591,79.59962,0.90537
422.48,47.49568,0.71086,78.88226,0.90491
423.08,47.55453,0.71197,78.11553,0.90445
423.68,47.61331,0.73197,77.30285,0.90399
424.28,47.67223,0.75208,76.43555,0.90353
424.88,47.73115,0.75861,75.58444,0.90307
425.48,47.79014,0.75617,74.73192,0.90261
426.08,47.84928,0.75325,73.8408,0.90215
426.68,47.9082,0.75163,72.98998,0.90169
427.28,47.96707,0.76986,72.03239,0.90123
427.88,48.02588,0.79392,71.08856,0.90077
428.48,48.0847,0.80483,70.05405,0.9003
429.08,48.1434,0.81178,69.10797,0.89984
429.68,48.20225,0.81384,68.009,0.89938
430.28,48.2607,0.81174,67.01312,0.89891
430.88,48.31899,0.81367,65.9183,0.89845
431.48,48.37737,0.81145,64.9066,0.89798
432.08,48.43609,0.81474,63.81511,0.89752
432.68,48.49478,0.81303,62.7643,0.89705
433.28,48.55356,0.81568,61.63624,0.89659
433.88,48.6122,0.8173,60.58559,0.89612
434.48,48.67093,0.81728,59.4298,0.89565
435.08,48.72956,0.8221,58.30706,0.89519
435.68,48.78821,0.81807,57.1646,0.89472
436.28,48.84707,0.81869,56.03416,0.89425
436.88,48.90569,0.81461,54.92501,0.89378
437.48,48.96447,0.80684,53.74233,0.89332
438.08,49.02309,0.80071,52.6388,0.89285
438.68,49.08186,0.79267,51.42257,0.89238
439.28,49.14056,0.77872,50.34959,0.89191
439.88,49.19948,0.76893,49.22764,0.89144
440.48,49.25844,0.7556,48.11247,0.89097
441.08,49.3174,0.73921,46.95616,0.89049
441.68,49.37647,0.72129,45.8975,0.89002
442.28,49.4355,0.70829,44.85445,0.88955
442.88,49.49453,0.68721,43.80666,0.88908
443.48,49.55348,0.66898,42.7768,0.88861
444.08,49.61187,0.64476,41.81119,0.88813
444.68,49.6706,0.61984,40.86318,0.88766
445.28,49.72945,0.59485,39.93241,0.88719
445.88,49.78824,0.57047,39.1087,0.88671
446.48,49.84733,0.54251,38.20498,0.88624
447.08,49.90619,0.51739,37.43602,0.88576
447.68,49.96519,0.48839,36.62941,0.88529
448.28,50.02405,0.46057,35.91817,0.88481
448.88,50.08274,0.43637,35.2074,0.88434
449.48,50.1415,0.40797,34.60053,0.88386
450.08,50.20013,0.38283,34.00067,0.88338
450.68,50.25895,0.35803,33.44469,0.88291
451.28,50.31775,0.33337,32.89351,0.88243
451.88,50.37628,0.31048,32.41029,0.88195
452.48,50.43495,0.28793,31.9165,0.88147
453.08,50.4934,0.26495,31.5087,0.88099
453.68,50.55191,0.24704,31.1167,0.88052
454.28,50.61063,0.22906,30.73272,0.88004
454.88,50.66942,0.21027,30.38085,0.87956
455.48,50.7282,0.19309,30.01734,0.87908
456.08,50.78693,0.17766,29.6852,0.8786
456.68,50.8452,0.16203,29.386,0.87811
457.28,50.90396,0.14993,29.0942,0.87763
457.88,50.9627,0.13437,28.82595,0.87715
458.48,51.0218,0.12353,28.56247,0.87667
459.08,51.08083,0.10959,28.3465,0.87619
459.68,51.13967,0.09703941,28.13215,0.87571
460.28,51.19883,0.08403928,27.9268,0.87522
460.88,51.25797,0.0741853,27.6945,0.87474
461.48,51.31713,0.06207579,27.4771,0.87426
462.08,51.37637,0.04943328,27.30098,0.87377
462.68,51.43555,0.04098933,27.09988,0.87329
463.28,51.4946,0.02812323,26.91126,0.8728
463.88,51.55369,0.01953249,26.8024,0.87232
464.48,51.61296,0.009728491,26.63628,0.87183
465.08,51.67216,-0.000749611,26.468,0.87135
465.68,51.73153,-0.009567743,26.3271,0.87086
466.28,51.79101,-0.02084721,26.1897,0.87037
466.88,51.8504,-0.02838154,26.064,0.86989
467.48,51.9096,-0.03868823,25.9493,0.8694
468.08,51.96888,-0.04748447,25.82248,0.86891
468.68,52.0283,-0.05594955,25.68015,0.86842
469.28,52.08783,-0.06442436,25.58747,0.86794
469.88,52.14736,-0.07495343,25.4912,0.86745
470.48,52.20704,-0.08117013,25.35373,0.86696
471.08,52.26644,-0.09105032,25.26887,0.86647
471.68,52.326,-0.09946546,25.206,0.86598
472.28,52.38517,-0.10465,25.10069,0.86549
472.88,52.44458,-0.11411,25.00372,0.865
473.48,52.5038,-0.12057,24.9287,0.86451
474.08,52.56301,-0.12654,24.8508,0.86402
474.68,52.6223,-0.13272,24.80248,0.86353
475.28,52.68156,-0.14234,24.7323,0.86303
475.88,52.74083,-0.15017,24.6818,0.86254
476.48,52.8,-0.15412,24.57861,0.86205
477.08,52.85918,-0.16412,24.50655,0.86156
477.68,52.9184,-0.16909,24.43908,0.86107
478.28,52.97759,-0.1753,24.37815,0.86057
478.88,53.03694,-0.18055,24.31545,0.86008
479.48,53.0961,-0.18667,24.2673,0.85958
480.08,53.15514,-0.18348,24.2075,0.85909
480.68,53.2143,-0.18931,24.14358,0.8586
481.28,53.27327,-0.1953,24.10922,0.8581
481.88,53.33249,-0.19968,24.0595,0.85761
482.48,53.3917,-0.20652,24.01529,0.85711
483.08,53.45097,-0.21091,23.98459,0.85661
483.68,53.51022,-0.21491,23.92699,0.85612
484.28,53.5693,-0.21681,23.9059,0.85562
484.88,53.62829,-0.21599,23.8611,0.85512
485.48,53.68715,-0.21544,23.80641,0.85463
486.08,53.7461,-0.21426,23.75388,0.85413
486.68,53.80515,-0.21176,23.71764,0.85363
487.28,53.86415,-0.20939,23.68583,0.85313
487.88,53.9232,-0.20954,23.63184,0.85264
488.48,53.98215,-0.20807,23.58857,0.85214
489.08,54.04113,-0.20587,23.55709,0.85164
489.68,54.10023,-0.20442,23.52488,0.85114
490.28,54.1593,-0.20464,23.52494,0.85064
490.88,54.2183,-0.20282,23.49333,0.85014
491.48,54.2774,-0.20368,23.44204,0.84964
492.08,54.33642,-0.20441,23.4105,0.84914
492.68,54.39527,-0.20575,23.3791,0.84864
493.28,54.45417,-0.20887,23.41038,0.84814
493.88,54.51308,-0.20834,23.35656,0.84764
494.48,54.57205,-0.20986,23.31297,0.84713
495.08,54.63109,-0.21275,23.2816,0.84663
495.68,54.69,-0.23766,23.217,0.84613
496.28,54.74912,-0.22682,23.21844,0.84563
496.88,54.80819,-0.22956,23.18625,0.84512
497.48,54.8675,-0.23755,23.1846,0.84462
498.08,54.9268,-0.24003,23.152,0.84412
498.68,54.9861,-0.2399,23.13768,0.84361
499.28,55.04543,-0.24188,23.1125,0.84311
499.88,55.1046,-0.2453,23.08584,0.8426
500.48,55.1639,-0.24775,23.05474,0.8421
501.08,55.2229,-0.25064,23.02274,0.84159
501.68,55.2821,-0.25308,23.0223,0.84109
502.28,55.3412,-0.25385,22.98984,0.84058
502.88,55.4006,-0.25271,22.95758,0.84008
503.48,55.4598,-0.25093,22.95766,0.83957
504.08,55.51934,-0.25457,22.92513,0.83906
504.68,55.5785,-0.25318,22.89282,0.83856
505.28,55.63769,-0.25441,22.84221,0.83805
505.88,55.69693,-0.25627,22.8464,0.83754
506.48,55.75606,-0.25743,22.81123,0.83704
507.08,55.81525,-0.25951,22.779,0.83653
507.68,55.87449,-0.26043,22.77354,0.83602
508.28,55.93391,-0.26155,22.7468,0.83551
508.88,55.9933,-0.25968,22.69511,0.835
509.48,56.0527,-0.25939,22.65765,0.83449
510.08,56.1122,-0.26119,22.67747,0.83398
510.68,56.17168,-0.26173,22.70175,0.83347
511.28,56.2312,-0.26568,22.66848,0.83297
511.88,56.2906,-0.26425,22.66835,0.83246
512.48,56.3498,-0.26855,22.66305,0.83194
513.08,56.40897,-0.26586,22.6302,0.83143
513.68,56.4682,-0.2679,22.59825,0.83092
514.28,56.52771,-0.27165,22.5652,0.83041
514.88,56.5874,-0.27086,22.56545,0.8299
515.48,56.6473,-0.27115,22.5332,0.82939
516.08,56.70685,-0.27269,22.53499,0.82888
516.68,56.76634,-0.27301,22.50029,0.82836
517.28,56.8259,-0.27411,22.49869,0.82785
517.88,56.8856,-0.27397,22.47083,0.82734
518.48,56.9452,-0.27907,22.43621,0.82683
519.08,57.00509,-0.27765,22.4362,0.82631
519.68,57.0646,-0.27765,22.4043,0.8258
520.28,57.1241,-0.27867,22.3735,0.82529
520.88,57.1837,-0.28023,22.37118,0.82477
521.48,57.2432,-0.28088,22.37119,0.82426
522.08,57.3027,-0.28145,22.34273,0.82374
522.68,57.36232,-0.28301,22.33892,0.82323
523.28,57.4218,-0.28399,22.33898,0.82271
523.88,57.48117,-0.28713,22.30643,0.8222
524.48,57.54061,-0.28698,22.3064,0.82168
525.08,57.60004,-0.28446,22.3064,0.82117
525.68,57.65965,-0.29011,22.30634,0.82065
526.28,57.7193,-0.2909,22.28207,0.82013
526.88,57.7789,-0.29098,22.26555,0.81962
527.48,57.83831,-0.29237,22.26601,0.8191
528.08,57.89795,-0.2911,22.26612,0.81858
528.68,57.95769,-0.29563,22.24969,0.81806
529.28,58.01725,-0.29484,22.23736,0.81755
529.88,58.077,-0.29312,22.18691,0.81703
530.48,58.13664,-0.2932,22.17398,0.81651
531.08,58.1962,-0.29507,22.19943,0.81599
531.68,58.25609,-0.29763,22.17301,0.81547
532.28,58.31585,-0.29655,22.20192,0.81495
532.88,58.3756,-0.30131,22.1982,0.81444
533.48,58.43549,-0.29995,22.15857,0.81392
534.08,58.49516,-0.30215,22.13348,0.8134
534.68,58.55509,-0.30149,22.1654,0.81288
535.28,58.61485,-0.30099,22.1552,0.81236
535.88,58.6744,-0.30302,22.13373,0.81184
536.48,58.7339,-0.29862,22.14333,0.81132
537.08,58.79326,-0.30239,22.11749,0.8108
537.68,58.85278,-0.29999,22.08259,0.81027
538.28,58.9125,-0.30202,22.07685,0.80975
538.88,58.97224,-0.30463,22.09153,0.80923
539.48,59.03207,-0.30301,22.07685,0.80871
540.08,59.0918,-0.30574,22.07685,0.80819
540.68,59.1516,-0.30926,22.07674,0.80767
541.28,59.21136,-0.3083,22.04451,0.80714
541.88,59.27104,-0.31038,22.012,0.80662
542.48,59.3308,-0.31106,22.01207,0.8061
543.08,59.39062,-0.31311,22.01207,0.80557
543.68,59.45035,-0.3128,22.0118,0.80505
544.28,59.5101,-0.31512,21.97956,0.80453
544.88,59.56985,-0.31526,21.9797,0.804
545.48,59.6297,-0.31621,21.9555,0.80348
546.08,59.6896,-0.31525,21.92343,0.80296
546.68,59.7497,-0.31549,21.92291,0.80243
547.28,59.80947,-0.31898,21.92291,0.80191
547.88,59.8693,-0.32042,21.92291,0.80138
548.48,59.92912,-0.32016,21.92291,0.80086
549.08,59.9889,-0.31972,21.92269,0.80033
549.68,60.04864,-0.3239,21.89905,0.79981
550.28,60.1084,-0.31983,21.8906,0.79928
550.88,60.16834,-0.3254,21.89049,0.79876
551.48,60.228,-0.32355,21.8823,0.79823
552.08,60.2877,-0.32448,21.8823,0.7977
552.68,60.34735,-0.32383,21.88343,0.79718
553.28,60.40696,-0.3231,21.8167,0.79665
553.88,60.46669,-0.32706,21.81731,0.79612
554.48,60.52639,-0.32457,21.85148,0.7956
555.08,60.586,-0.32422,21.83522,0.79507
555.68,60.6456,-0.32725,21.81748,0.79454
556.28,60.7052,-0.33483,21.81749,0.79401
556.88,60.76469,-0.33347,21.81718,0.79348
557.48,60.8245,-0.33396,21.7849,0.79296
558.08,60.88417,-0.33541,21.7531,0.79243
558.68,60.94379,-0.3346,21.75246,0.7919
559.28,61.0036,-0.33646,21.75415,0.79137
559.88,61.06332,-0.33847,21.7202,0.79084
560.48,61.12294,-0.33831,21.7202,0.79031
561.08,61.18275,-0.34141,21.7202,0.78978
561.68,61.24244,-0.34061,21.7202,0.78925
562.28,61.30219,-0.34053,21.70686,0.78872
562.88,61.3619,-0.34214,21.68769,0.78819
563.48,61.4219,-0.34332,21.68756,0.78766
564.08,61.48171,-0.34372,21.65535,0.78713
564.68,61.5416,-0.34432,21.65542,0.7866
565.28,61.6015,-0.34716,21.65541,0.78607
565.88,61.6614,-0.34841,21.6228,0.78554
566.48,61.72116,-0.34825,21.62291,0.78501
567.08,61.78099,-0.34869,21.61438,0.78448
567.68,61.84094,-0.35096,21.61502,0.78395
568.28,61.9008,-0.35485,21.61478,0.78342
568.88,61.96083,-0.35602,21.61479,0.78288
569.48,62.02077,-0.35715,21.58265,0.78235
570.08,62.0808,-0.35498,21.58231,0.78182
570.68,62.14096,-0.35519,21.55,0.78129
571.28,62.20106,-0.36008,21.53156,0.78076
571.88,62.2613,-0.35829,21.51749,0.78022
572.48,62.3216,-0.35958,21.51749,0.77969
573.08,62.3818,-0.36206,21.48319,0.77916
573.68,62.442,-0.36389,21.48506,0.77862
574.28,62.50201,-0.3663,21.48539,0.77809
574.88,62.562,-0.36793,21.4596,0.77756
575.48,62.6221,-0.36735,21.46084,0.77702
576.08,62.6821,-0.36961,21.46094,0.77649
576.68,62.7421,-0.37027,21.42016,0.77595
577.28,62.8018,-0.37334,21.38779,0.77542
577.88,62.86198,-0.37128,21.4202,0.77489
578.48,62.9222,-0.37386,21.4203,0.77435
579.08,62.98296,-0.37586,21.39607,0.77382
579.68,63.04325,-0.37514,21.38787,0.77328
580.28,63.10344,-0.37836,21.35301,0.77275
580.88,63.16344,-0.3772,21.3554,0.77221
581.48,63.2235,-0.38251,21.3555,0.77168
582.08,63.2835,-0.38363,21.3232,0.77114
582.68,63.34369,-0.38218,21.3231,0.7706
583.28,63.40365,-0.38346,21.35021,0.77007
583.88,63.4634,-0.38602,21.35543,0.76953
584.48,63.523,-0.38704,21.32306,0.769
585.08,63.5825,-0.3879,21.31782,0.76846
585.68,63.64205,-0.38775,21.2668,0.76792
586.28,63.70188,-0.38579,21.25142,0.76739
586.88,63.76169,-0.39053,21.2665,0.76685
587.48,63.82136,-0.39401,21.25526,0.76631
588.08,63.88163,-0.39633,21.23399,0.76577
588.68,63.9417,-0.39453,21.23347,0.76524
589.28,64.00187,-0.39549,21.20952,0.7647
589.88,64.0618,-0.39839,21.19925,0.76416
590.48,64.12148,-0.39929,21.19359,0.76362
591.08,64.18135,-0.40186,21.17456,0.76309
591.68,64.24118,-0.40554,21.16108,0.76255
592.28,64.30111,-0.40559,21.16091,0.76201
592.88,64.36109,-0.40837,21.15863,0.76147
593.48,64.42125,-0.40624,21.1367,0.76093
594.08,64.4812,-0.40774,21.1367,0.76039
594.68,64.54135,-0.411,21.13443,0.75986
595.28,64.60138,-0.4111,21.1044,0.75932
595.88,64.6614,-0.41228,21.10444,0.75878
596.48,64.72143,-0.41557,21.0723,0.75824
597.08,64.78137,-0.41281,21.10416,0.7577
597.68,64.84128,-0.41429,21.0723,0.75716
598.28,64.90115,-0.41482,21.07219,0.75662
598.88,64.96117,-0.42071,21.03942,0.75608
599.48,65.02076,-0.42008,21.06459,0.75554
600.08,65.08059,-0.41996,21.07167,0.755
600.68,65.1403,-0.42499,21.03952,0.75446
601.28,65.2004,-0.42536,21.03941,0.75392
601.88,65.26021,-0.42523,21.03921,0.75338
602.48,65.32016,-0.42909,21.01503,0.75284
603.08,65.38016,-0.42835,21.01494,0.7523
603.68,65.43982,-0.43047,21.00689,0.75176
604.28,65.49993,-0.42725,20.98251,0.75121
604.88,65.56002,-0.43183,20.98251,0.75067
605.48,65.62043,-0.43113,20.9746,0.75013
606.08,65.68074,-0.43244,20.94217,0.74959
606.68,65.7409,-0.4308,20.934,0.74905
607.28,65.8009,-0.4308,20.934,0.74851
607.88,65.86111,-0.43319,20.93385,0.74797
608.48,65.9213,-0.43314,20.90231,0.74742
609.08,65.98172,-0.43781,20.8692,0.74688
609.68,66.042,-0.43512,20.86921,0.74634
610.28,66.1023,-0.44099,20.86921,0.7458
610.88,66.1626,-0.44228,20.86873,0.74525
611.48,66.22289,-0.44275,20.83669,0.74471
612.08,66.28324,-0.44413,20.8367,0.74417
612.68,66.3435,-0.44426,20.83835,0.74363
613.28,66.40375,-0.44384,20.80446,0.74308
613.88,66.46404,-0.44723,20.7805,0.74254
614.48,66.52456,-0.4466,20.77186,0.742
615.08,66.58493,-0.44742,20.77192,0.74145
615.68,66.64529,-0.44657,20.77316,0.74091
616.28,66.70545,-0.44964,20.73967,0.74037
616.88,66.76572,-0.44954,20.7485,0.73982
617.48,66.82605,-0.45205,20.7454,0.73928
618.08,66.88641,-0.45326,20.78132,0.73874
618.68,66.94671,-0.45286,20.74756,0.73819
619.28,67.0068,-0.45312,20.75004,0.73765
619.88,67.0672,-0.45513,20.68279,0.73711
620.48,67.12731,-0.45472,20.6828,0.73656
621.08,67.1876,-0.4587,20.6825,0.73602
621.68,67.2479,-0.45715,20.65046,0.73547
622.28,67.30821,-0.45791,20.67078,0.73493
622.88,67.3685,-0.45953,20.65034,0.73438
623.48,67.4286,-0.46097,20.65024,0.73384
624.08,67.48863,-0.46244,20.65024,0.73329
624.68,67.54848,-0.45823,20.65025,0.73275
625.28,67.6083,-0.46223,20.61939,0.7322
625.88,67.66839,-0.46108,20.61771,0.73166
626.48,67.72843,-0.46257,20.5854,0.73111
627.08,67.7885,-0.46657,20.58539,0.73057
627.68,67.84849,-0.46594,20.56105,0.73002
628.28,67.9085,-0.46398,20.56108,0.72948
628.88,67.96844,-0.46928,20.56108,0.72893
629.48,68.02845,-0.46839,20.56107,0.72839
630.08,68.0886,-0.46879,20.55302,0.72784
630.68,68.14882,-0.46947,20.55293,0.72729
631.28,68.20906,-0.47287,20.54297,0.72675
631.88,68.26932,-0.47354,20.5532,0.7262
632.48,68.32949,-0.46992,20.5206,0.72566
633.08,68.38967,-0.47481,20.52069,0.72511
633.68,68.4498,-0.47304,20.52069,0.72456
634.28,68.5099,-0.47731,20.48819,0.72402
634.88,68.56994,-0.4774,20.48818,0.72347
635.48,68.63005,-0.48011,20.45565,0.72292
636.08,68.69024,-0.47945,20.48818,0.72238
636.68,68.75053,-0.48255,20.48818,0.72183
637.28,68.8109,-0.48151,20.4881,0.72128
637.88,68.87122,-0.48297,20.43712,0.72074
638.48,68.93155,-0.48407,20.45603,0.72019
639.08,68.99165,-0.48516,20.45597,0.71964
639.68,69.05185,-0.48717,20.4314,0.7191
640.28,69.1121,-0.48817,20.42764,0.71855
640.88,69.17231,-0.48831,20.39901,0.718
641.48,69.23241,-0.49427,20.39901,0.71745
642.08,69.29255,-0.49239,20.39901,0.71691
642.68,69.35288,-0.49252,20.39901,0.71636
643.28,69.41322,-0.49234,20.39901,0.71581
643.88,69.47366,-0.49556,20.39905,0.71526
644.48,69.53413,-0.49343,20.43145,0.71472
645.08,69.5946,-0.49476,20.3883,0.71417
645.68,69.65483,-0.49764,20.37755,0.71362
646.28,69.71523,-0.5,20.37715,0.71307
646.88,69.77552,-0.50017,20.34358,0.71252
647.48,69.83624,-0.50308,20.34507,0.71198
648.08,69.8967,-0.50285,20.34516,0.71143
648.68,69.9572,-0.50431,20.31299,0.71088
649.28,70.01738,-0.50493,20.31281,0.71033
649.88,70.07775,-0.50768,20.31281,0.70978
650.48,70.1382,-0.51186,20.31277,0.70924
651.08,70.19886,-0.51132,20.2803,0.70869
651.68,70.25928,-0.51205,20.2803,0.70814
652.28,70.31966,-0.51496,20.2803,0.70759
652.88,70.38005,-0.5156,20.2803,0.70704
653.48,70.4405,-0.51545,20.2803,0.70649
654.08,70.5008,-0.51933,20.2803,0.70594
654.68,70.5613,-0.52383,20.24662,0.7054
655.28,70.6217,-0.52195,20.24803,0.70485
655.88,70.6821,-0.52562,20.24866,0.7043
656.48,70.74254,-0.5287,20.29648,0.70375
657.08,70.80287,-0.52921,20.29641,0.7032
657.68,70.86326,-0.53322,20.2585,0.70265
658.28,70.92354,-0.53449,20.226,0.7021
658.88,70.9839,-0.53032,20.2261,0.70155
659.48,71.0441,-0.53447,20.2261,0.701
660.08,71.10438,-0.53508,20.2261,0.70045
660.68,71.16459,-0.53196,20.22616,0.6999
661.28,71.22491,-0.53805,20.17817,0.69936
661.88,71.28517,-0.5377,20.21538,0.69881
662.48,71.34538,-0.53954,20.17984,0.69826
663.08,71.40562,-0.54138,20.1479,0.69771
663.68,71.4657,-0.54082,20.14803,0.69716
664.28,71.52595,-0.54177,20.148,0.69661
664.88,71.5861,-0.54938,20.1756,0.69606
665.48,71.6465,-0.54627,20.18029,0.69551
666.08,71.70696,-0.549,20.1803,0.69496
666.68,71.76756,-0.55438,20.1803,0.69441
667.28,71.82808,-0.5514,20.17974,0.69386
667.88,71.88853,-0.55907,20.1559,0.69331
668.48,71.94889,-0.55988,20.1476,0.69276
669.08,72.00925,-0.5587,20.1478,0.69221
669.68,72.06965,-0.56194,20.1478,0.69166
670.28,72.13006,-0.56747,20.11551,0.69111
670.88,72.1904,-0.56758,20.11552,0.69056
671.48,72.2507,-0.57108,20.11552,0.69001
672.08,72.3112,-0.5759,20.11552,0.68946
672.68,72.3717,-0.57204,20.08812,0.68891
673.28,72.432,-0.57898,20.083,0.68836
673.88,72.49237,-0.57511,20.083,0.68781
674.48,72.55265,-0.58052,20.08305,0.68726
675.08,72.61307,-0.58174,20.0508,0.68671
675.68,72.67367,-0.58188,20.05049,0.68616
676.28,72.7341,-0.5867,20.05049,0.68561
676.88,72.79473,-0.58682,20.05049,0.68506
677.48,72.85537,-0.58993,20.0433,0.68451
678.08,72.9161,-0.59645,20.01822,0.68396
678.68,72.9769,-0.59586,20.01822,0.68341
679.28,73.03747,-0.5981,20.01822,0.68286
679.88,73.09804,-0.60013,20.01822,0.68231
680.48,73.1584,-0.6071,20.01823,0.68176
681.08,73.2189,-0.60232,19.9859,0.68121
681.68,73.2792,-0.6053,20.01825,0.68066
682.28,73.33963,-0.61021,20.01822,0.68011
682.88,73.39989,-0.61248,20.01821,0.67955
683.48,73.46013,-0.61686,19.99383,0.679
684.08,73.52023,-0.61796,19.99384,0.67845
684.68,73.58049,-0.61791,20.0319,0.6779
685.28,73.64075,-0.62241,19.97099,0.67735
685.88,73.70105,-0.62558,19.95508,0.6768
686.48,73.76142,-0.63035,19.94803,0.67625
687.08,73.82164,-0.63852,19.94803,0.6757
687.68,73.88199,-0.64017,19.94803,0.67515
688.28,73.942,-0.64312,19.94803,0.6746
688.88,74.0021,-0.64617,19.94803,0.67405
689.48,74.06228,-0.64749,19.9496,0.6735
690.08,74.12258,-0.65059,19.94541,0.67295
690.68,74.1828,-0.65297,19.93991,0.6724
691.28,74.24298,-0.65865,19.93991,0.67185
691.88,74.30311,-0.66093,19.92197,0.6713
692.48,74.3636,-0.66288,19.9056,0.67075
693.08,74.42415,-0.6659,19.90739,0.67019
693.68,74.4849,-0.66802,19.90739,0.66964
694.28,74.5457,-0.67098,19.90739,0.66909
694.88,74.6065,-0.6727,19.8919,0.66854
695.48,74.66714,-0.67657,19.8755,0.66799
696.08,74.72751,-0.67995,19.89927,0.66744
696.68,74.78827,-0.6823,19.89926,0.66689
697.28,74.84908,-0.68455,19.89926,0.66634
697.88,74.91032,-0.69205,19.89926,0.66579
698.48,74.971,-0.6925,19.8832,0.66524
698.68,74.99172,-0.69503,19.883,0.66506