File: 01_Data/FRP_Panel/STA/N2/10K_min/FRP_Panel_STA_N2_10KData_22158_R1.csv
##Temp./Â°C,Time/min,Mass loss(subtr.2)/mg,DSC(subtr.2)/(mW/mg),Sensit./(uV/mW)
49.691,10.01,0.01877,0.0001773403,1.07018
50.291,10.73749,0.01788383,0.02868595,1.07002
50.891,10.93135,0.01856445,0.0491693,1.06985
51.491,11.07235,0.01761673,0.06497646,1.06969
52.091,11.1909,0.0192611,0.08003176,1.06952
52.691,11.2965,0.01830796,0.09054312,1.06935
53.291,11.39353,0.01808438,0.09919242,1.06919
53.891,11.48387,0.01827135,0.10587,1.06902
54.491,11.56899,0.01908033,0.11351,1.06885
55.091,11.6507,0.01814427,0.11829,1.06868
55.691,11.72964,0.01908204,0.12428,1.06852
56.291,11.80587,0.01937861,0.12974,1.06835
56.891,11.88105,0.01967587,0.1359,1.06818
57.491,11.95381,0.02039568,0.13746,1.06801
58.091,12.0251,0.01951214,0.14333,1.06784
58.691,12.095,0.01845235,0.14322,1.06767
59.291,12.16438,0.02000513,0.14681,1.0675
59.891,12.2331,0.01949158,0.15063,1.06733
60.491,12.30149,0.019769,0.15752,1.06716
61.091,12.36973,0.02054337,0.15811,1.06699
61.691,12.43781,0.0206854,0.16076,1.06681
62.291,12.5052,0.01962547,0.16196,1.06664
62.891,12.57192,0.01946302,0.16648,1.06647
63.491,12.6381,0.01955125,0.16988,1.0663
64.091,12.70407,0.01953855,0.17346,1.06612
64.691,12.7696,0.01986897,0.17535,1.06595
65.291,12.83489,0.01819496,0.17967,1.06578
65.891,12.8997,0.01953115,0.18287,1.0656
66.491,12.96452,0.01953136,0.18604,1.06543
67.091,13.0291,0.01950751,0.18796,1.06525
67.691,13.09329,0.01954584,0.19162,1.06508
68.291,13.15693,0.01954504,0.19336,1.0649
68.891,13.22061,0.0208495,0.1943,1.06472
69.491,13.2845,0.01955174,0.19177,1.06455
70.091,13.34874,0.0208647,0.19173,1.06437
70.691,13.4126,0.01951309,0.19103,1.06419
71.291,13.47601,0.02083409,0.1902,1.06401
71.891,13.5391,0.02086833,0.18811,1.06384
72.491,13.60211,0.01953408,0.18692,1.06366
73.091,13.6652,0.02076382,0.18483,1.06348
73.691,13.72829,0.01953949,0.18508,1.0633
74.291,13.79127,0.02086409,0.18187,1.06312
74.891,13.85387,0.02085262,0.18112,1.06294
75.491,13.9165,0.02053747,0.18132,1.06276
76.091,13.9787,0.01921075,0.18082,1.06258
76.691,14.041,0.01788913,0.18009,1.0624
77.291,14.10312,0.01921359,0.17975,1.06221
77.891,14.1652,0.01786976,0.17925,1.06203
78.491,14.22727,0.01921029,0.17955,1.06185
79.091,14.2889,0.01948549,0.18088,1.06167
79.691,14.3509,0.01921849,0.18239,1.06148
80.291,14.41278,0.01920942,0.18116,1.0613
80.891,14.4746,0.01865531,0.18312,1.06112
81.491,14.5361,0.01920987,0.18579,1.06093
82.091,14.59699,0.0191849,0.18535,1.06075
82.691,14.65841,0.01788516,0.18328,1.06056
83.291,14.7195,0.01920983,0.18466,1.06038
83.891,14.78079,0.01921723,0.18587,1.06019
84.491,14.8419,0.01789077,0.18737,1.06001
85.091,14.90298,0.01786723,0.1873,1.05982
85.691,14.9639,0.01657953,0.18808,1.05963
86.291,15.0248,0.01666672,0.18895,1.05944
86.891,15.08523,0.01526141,0.19047,1.05926
87.491,15.1455,0.01590402,0.18915,1.05907
88.091,15.20566,0.01665332,0.19212,1.05888
88.691,15.26586,0.01526081,0.19051,1.05869
89.291,15.32601,0.01526002,0.1933,1.0585
89.891,15.38618,0.0153217,0.19363,1.05831
90.491,15.44597,0.01427125,0.19216,1.05812
91.091,15.50562,0.01562542,0.1959,1.05793
91.691,15.5653,0.01525128,0.19411,1.05774
92.291,15.6251,0.01395314,0.19417,1.05755
92.891,15.6846,0.01394001,0.19554,1.05736
93.491,15.74419,0.01394153,0.1951,1.05717
94.091,15.80376,0.01524723,0.19571,1.05697
94.691,15.8634,0.01393951,0.19556,1.05678
95.291,15.92291,0.01394,0.19605,1.05659
95.891,15.9822,0.0139416,0.19545,1.0564
96.491,16.04131,0.01262844,0.19654,1.0562
97.091,16.10066,0.01262,0.19613,1.05601
97.691,16.16004,0.01262,0.19665,1.05581
98.291,16.2194,0.01261991,0.19868,1.05562
98.891,16.2785,0.01388013,0.19647,1.05542
99.491,16.3373,0.01261597,0.19815,1.05523
100.091,16.39611,0.01261986,0.19928,1.05503
100.691,16.4549,0.01217052,0.19923,1.05483
101.291,16.51406,0.01130996,0.19931,1.05464
101.891,16.57333,0.01131,0.19972,1.05444
102.491,16.63233,0.01131012,0.19916,1.05424
103.091,16.69109,0.01075437,0.2001,1.05404
103.691,16.74961,0.01131002,0.19848,1.05385
104.291,16.8082,0.01135645,0.20019,1.05365
104.891,16.86723,0.01032018,0.20057,1.05345
105.491,16.9259,0.01032,0.20113,1.05325
106.091,16.98489,0.01032,0.2008,1.05305
106.691,17.04365,0.01032,0.20164,1.05285
107.291,17.10219,0.01032008,0.2017,1.05265
107.891,17.16064,0.009978071,0.20311,1.05245
108.491,17.21935,0.009991257,0.20471,1.05224
109.091,17.27811,0.008673853,0.20315,1.05204
109.691,17.33708,0.007380419,0.20254,1.05184
110.291,17.39603,0.0086704,0.20363,1.05164
110.891,17.4543,0.008676152,0.2015,1.05143
111.491,17.51279,0.007361736,0.20407,1.05123
112.091,17.57155,0.00738016,0.20297,1.05103
112.691,17.62997,0.006699686,0.203,1.05082
113.291,17.68935,0.00637415,0.20278,1.05062
113.891,17.74788,0.006370006,0.20439,1.05041
114.491,17.8067,0.006369999,0.2038,1.05021
115.091,17.86545,0.006367246,0.20296,1.05
115.691,17.9242,0.00564146,0.20376,1.0498
116.291,17.98289,0.005848896,0.20475,1.04959
116.891,18.04151,0.007044012,0.20532,1.04938
117.491,18.10013,0.007020001,0.20493,1.04918
118.091,18.15849,0.007021716,0.20568,1.04897
118.691,18.2169,0.0067478,0.2051,1.04876
119.291,18.2752,0.00570029,0.20584,1.04855
119.891,18.33357,0.0057,0.20703,1.04834
120.491,18.39164,0.005699959,0.20593,1.04813
121.091,18.4502,0.005688426,0.20592,1.04792
121.691,18.50846,0.003722384,0.20726,1.04771
122.291,18.567,0.00372999,0.20613,1.0475
122.891,18.6249,0.00373,0.20678,1.04729
123.491,18.6833,0.00373,0.20608,1.04708
124.091,18.7417,0.0037312,0.2068,1.04687
124.691,18.80012,0.002410959,0.20689,1.04666
125.291,18.85864,0.002409995,0.20626,1.04644
125.891,18.91684,0.00241,0.20675,1.04623
126.491,18.9748,0.002410002,0.20848,1.04602
127.091,19.03292,0.002413989,0.20709,1.04581
127.691,19.09125,0.001091098,0.20768,1.04559
128.291,19.14937,0.00109,0.20649,1.04538
128.891,19.20788,0.001090002,0.20541,1.04516
129.491,19.26621,0.00109694,0.20637,1.04495
130.091,19.32456,-0.0002280964,0.20569,1.04473
130.691,19.38287,-0.0002153584,0.20531,1.04452
131.291,19.44086,0.002146866,0.20451,1.0443
131.891,19.49865,0.001096679,0.2049,1.04408
132.491,19.55687,-0.0002617524,0.20548,1.04387
133.091,19.6146,-0.001515409,0.20632,1.04365
133.691,19.6729,-0.001369075,0.20527,1.04343
134.291,19.73124,-0.0008800578,0.20583,1.04321
134.891,19.78933,-0.00088,0.20559,1.04299
135.491,19.84729,-0.00088,0.20414,1.04277
136.091,19.90514,-0.000879999,0.20427,1.04255
136.691,19.96329,-0.0008775308,0.20534,1.04233
137.291,20.02123,-0.002191996,0.20442,1.04211
137.891,20.0795,-0.002200002,0.20526,1.04189
138.491,20.13741,-0.0022,0.20396,1.04167
139.091,20.1952,-0.0022,0.20477,1.04145
139.691,20.25306,-0.002199978,0.20413,1.04123
140.291,20.31082,-0.002185849,0.20449,1.04101
140.891,20.36836,-0.003520166,0.20521,1.04078
141.491,20.4256,-0.00352,0.20427,1.04056
142.091,20.48346,-0.0035174,0.20565,1.04034
142.691,20.54126,-0.004831732,0.20504,1.04011
143.291,20.59936,-0.004840845,0.20628,1.03989
143.891,20.65713,-0.004508526,0.21133,1.03966
144.491,20.71441,-0.00451,0.20911,1.03944
145.091,20.77186,-0.004510002,0.20821,1.03921
145.691,20.82968,-0.004509324,0.20773,1.03899
146.291,20.88738,-0.005812915,0.20845,1.03876
146.891,20.94565,-0.005810723,0.2056,1.03853
147.491,21.00326,-0.005490655,0.20464,1.03831
148.091,21.06103,-0.00547848,0.20563,1.03808
148.691,21.11867,-0.006480296,0.20593,1.03785
149.291,21.17614,-0.006480675,0.20585,1.03762
149.891,21.23367,-0.006800285,0.20493,1.0374
150.491,21.29117,-0.006809998,0.20737,1.03717
151.091,21.34889,-0.00681,0.20526,1.03694
151.691,21.406,-0.006802842,0.20734,1.03671
152.291,21.46365,-0.008153866,0.20635,1.03648
152.891,21.52101,-0.00643201,0.20589,1.03625
153.491,21.5785,-0.0064097,0.20753,1.03601
154.091,21.6363,-0.007471086,0.20646,1.03578
154.691,21.69368,-0.007790545,0.20541,1.03555
155.291,21.75133,-0.007798795,0.20607,1.03532
155.891,21.809,-0.01043561,0.20499,1.03509
156.491,21.86651,-0.0094385,0.20737,1.03485
157.091,21.92386,-0.00945292,0.20649,1.03462
157.691,21.9813,-0.00813666,0.20703,1.03439
158.291,22.0381,-0.009452582,0.20634,1.03415
158.891,22.095,-0.009463135,0.20742,1.03392
159.491,22.15267,-0.0107735,0.20646,1.03368
160.091,22.21037,-0.01111366,0.20548,1.03345
160.691,22.26833,-0.01089185,0.20659,1.03321
161.291,22.32629,-0.01075993,0.20692,1.03297
161.891,22.38354,-0.01112693,0.20666,1.03274
162.491,22.441,-0.01240336,0.20587,1.0325
163.091,22.49854,-0.0124033,0.20523,1.03226
163.691,22.55621,-0.01174617,0.20477,1.03202
164.291,22.6139,-0.01175141,0.20379,1.03179
164.891,22.67116,-0.01307394,0.20411,1.03155
165.491,22.72883,-0.01307,0.20384,1.03131
166.091,22.78641,-0.01307001,0.20487,1.03107
166.691,22.84386,-0.01309024,0.2042,1.03083
167.291,22.90161,-0.01438035,0.20194,1.03059
167.891,22.95885,-0.01438,0.20142,1.03035
168.491,23.01624,-0.01438014,0.20077,1.03011
169.091,23.07359,-0.01579682,0.20109,1.02987
169.691,23.13105,-0.01570002,0.20196,1.02962
170.291,23.18851,-0.0157,0.2005,1.02938
170.891,23.24587,-0.0157,0.20203,1.02914
171.491,23.30333,-0.01569748,0.20208,1.02889
172.091,23.3607,-0.01701505,0.19997,1.02865
172.691,23.41825,-0.01702001,0.2003,1.02841
173.291,23.47545,-0.01701503,0.20177,1.02816
173.891,23.5328,-0.01768479,0.20004,1.02792
174.491,23.59025,-0.01768056,0.20017,1.02767
175.091,23.6475,-0.01899129,0.19895,1.02743
175.691,23.70486,-0.01965302,0.19873,1.02718
176.291,23.76238,-0.02080021,0.19725,1.02693
176.891,23.8197,-0.02097,0.19802,1.02669
177.491,23.8771,-0.02097001,0.19898,1.02644
178.091,23.93437,-0.02099226,0.19713,1.02619
178.691,23.99154,-0.02229034,0.19577,1.02594
179.291,24.04874,-0.02228994,0.1952,1.0257
179.891,24.10613,-0.02187289,0.19572,1.02545
180.491,24.1634,-0.02163007,0.19265,1.0252
181.091,24.22005,-0.02162922,0.19424,1.02495
181.691,24.27698,-0.02294363,0.19265,1.0247
182.291,24.33416,-0.02425798,0.19261,1.02445
182.891,24.39162,-0.02426,0.19168,1.0242
183.491,24.44922,-0.02426003,0.19304,1.02394
184.091,24.50641,-0.02465337,0.19068,1.02369
184.691,24.56352,-0.02690085,0.19403,1.02344
185.291,24.6208,-0.02692793,0.19177,1.02319
185.891,24.6783,-0.02821968,0.19234,1.02293
186.491,24.73562,-0.02822001,0.19179,1.02268
187.091,24.79269,-0.0282339,0.18974,1.02243
187.691,24.8499,-0.02953996,0.19313,1.02217
188.291,24.90691,-0.02954,0.19186,1.02192
188.891,24.96422,-0.02954,0.19162,1.02166
189.491,25.02143,-0.0295385,0.19016,1.02141
190.091,25.0787,-0.03152864,0.19158,1.02115
190.691,25.13589,-0.03150966,0.19238,1.02089
191.291,25.1934,-0.03222946,0.19469,1.02064
191.891,25.2504,-0.03216178,0.19155,1.02038
192.491,25.3077,-0.03347916,0.19598,1.02012
193.091,25.36487,-0.03348004,0.19678,1.01986
193.691,25.42214,-0.03353866,0.19767,1.01961
194.291,25.47928,-0.03576837,0.20157,1.01935
194.891,25.53629,-0.03578993,0.20165,1.01909
195.491,25.59328,-0.03574363,0.20516,1.01883
196.091,25.65035,-0.03711512,0.20664,1.01857
196.691,25.70755,-0.03710998,0.20918,1.01831
197.291,25.76483,-0.03710997,0.20937,1.01805
197.891,25.822,-0.037631,0.21373,1.01779
198.491,25.87921,-0.03842012,0.21485,1.01752
199.091,25.93637,-0.03981082,0.21891,1.01726
199.691,25.9936,-0.04006054,0.22053,1.017
200.291,26.0507,-0.04007118,0.22126,1.01674
200.891,26.10783,-0.04040115,0.22742,1.01647
201.491,26.1649,-0.04065595,0.22937,1.01621
202.091,26.222,-0.04172025,0.23311,1.01594
202.691,26.2793,-0.04170154,0.23532,1.01568
203.291,26.33645,-0.04397073,0.23995,1.01541
203.891,26.39368,-0.0440273,0.24241,1.01515
204.491,26.451,-0.04533318,0.24533,1.01488
205.091,26.5081,-0.04534001,0.24752,1.01462
205.691,26.56522,-0.04534,0.25233,1.01435
206.291,26.62205,-0.04534075,0.25494,1.01408
206.891,26.67897,-0.04665474,0.25847,1.01381
207.491,26.73586,-0.04806156,0.26007,1.01355
208.091,26.79267,-0.04799386,0.26363,1.01328
208.691,26.84964,-0.04929989,0.26544,1.01301
209.291,26.90677,-0.04930191,0.2684,1.01274
209.891,26.9639,-0.05062678,0.26696,1.01247
210.491,27.0212,-0.05062,0.27413,1.0122
211.091,27.0786,-0.05062062,0.27548,1.01193
211.691,27.1358,-0.05197261,0.27608,1.01166
212.291,27.1931,-0.05192616,0.27624,1.01139
212.891,27.25025,-0.05456715,0.28026,1.01112
213.491,27.30749,-0.05456353,0.28068,1.01084
214.091,27.3647,-0.05431507,0.28274,1.01057
214.691,27.42169,-0.05430835,0.28354,1.0103
215.291,27.479,-0.0545701,0.28578,1.01002
215.891,27.53602,-0.05594744,0.28597,1.00975
216.491,27.59308,-0.05718943,0.28785,1.00948
217.091,27.65028,-0.05851108,0.28732,1.0092
217.691,27.7074,-0.05850657,0.28903,1.00893
218.291,27.7646,-0.05981644,0.2899,1.00865
218.891,27.8217,-0.06106817,0.29217,1.00837
219.491,27.87895,-0.06242019,0.29104,1.0081
220.091,27.9361,-0.06378672,0.29077,1.00782
220.691,27.99332,-0.06312779,0.29403,1.00754
221.291,28.05065,-0.06480616,0.29368,1.00727
221.891,28.1078,-0.06477003,0.29436,1.00699
222.491,28.16467,-0.06618391,0.29498,1.00671
223.091,28.2218,-0.06609008,0.29296,1.00643
223.691,28.2788,-0.067329,0.29556,1.00615
224.291,28.3358,-0.0674092,0.29507,1.00587
224.891,28.39307,-0.06906082,0.29524,1.00559
225.491,28.45024,-0.07037091,0.29566,1.00531
226.091,28.50739,-0.07037,0.29643,1.00503
226.691,28.5646,-0.07036956,0.29526,1.00475
227.291,28.62169,-0.07148144,0.2953,1.00446
227.891,28.6787,-0.07169009,0.29527,1.00418
228.491,28.73576,-0.07309185,0.29432,1.0039
229.091,28.7929,-0.07436938,0.29504,1.00362
229.691,28.8497,-0.07431991,0.29448,1.00333
230.291,28.90666,-0.07562248,0.29496,1.00305
230.891,28.96367,-0.07563474,0.29416,1.00276
231.491,29.02058,-0.07695679,0.29303,1.00248
232.091,29.07795,-0.07762077,0.29289,1.00219
232.691,29.1349,-0.07761654,0.2925,1.00191
233.291,29.1918,-0.07892948,0.293,1.00162
233.891,29.24907,-0.07893988,0.29166,1.00133
234.491,29.3063,-0.08007521,0.29165,1.00105
235.091,29.36352,-0.08166495,0.28977,1.00076
235.691,29.42065,-0.08288517,0.28926,1.00047
236.291,29.4774,-0.0828835,0.28799,1.00018
236.891,29.53443,-0.0842083,0.28929,0.9999
237.491,29.5916,-0.08427227,0.288,0.99961
238.091,29.6486,-0.08552958,0.28715,0.99932
238.691,29.7059,-0.086639,0.2871,0.99903
239.291,29.7631,-0.08679124,0.28671,0.99874
239.891,29.82027,-0.08881978,0.28646,0.99844
240.491,29.8774,-0.08881976,0.28558,0.99815
241.091,29.9345,-0.08983933,0.28386,0.99786
241.691,29.99158,-0.0901402,0.28396,0.99757
242.291,30.04873,-0.09042118,0.28348,0.99728
242.891,30.1061,-0.09178732,0.28427,0.99698
243.491,30.16313,-0.09275654,0.28349,0.99669
244.091,30.2204,-0.09342998,0.28321,0.9964
244.691,30.2774,-0.09454392,0.28321,0.9961
245.291,30.3345,-0.09474942,0.28442,0.99581
245.891,30.3917,-0.09584548,0.28325,0.99551
246.491,30.4488,-0.09738086,0.28296,0.99522
247.091,30.50593,-0.09737745,0.28653,0.99492
247.691,30.5629,-0.09770279,0.28621,0.99462
248.291,30.62,-0.09770236,0.2863,0.99433
248.891,30.6772,-0.09901989,0.28679,0.99403
249.491,30.73433,-0.09980248,0.28901,0.99373
250.091,30.7916,-0.10032,0.28836,0.99343
250.691,30.84865,-0.10166,0.28965,0.99313
251.291,30.90578,-0.10347,0.29012,0.99284
251.891,30.963,-0.10561,0.29128,0.99254
252.491,31.0198,-0.10692,0.29171,0.99224
253.091,31.07702,-0.10954,0.29245,0.99194
253.691,31.13435,-0.10985,0.29315,0.99163
254.291,31.1914,-0.10958,0.29456,0.99133
254.891,31.24907,-0.1082,0.29471,0.99103
255.491,31.3064,-0.10945,0.29417,0.99073
256.091,31.3636,-0.10894,0.29973,0.99043
256.691,31.4209,-0.11062,0.30135,0.99012
257.291,31.47816,-0.11222,0.29875,0.98982
257.891,31.5352,-0.11264,0.29869,0.98952
258.491,31.59252,-0.11349,0.29834,0.98921
259.091,31.6497,-0.11447,0.29895,0.98891
259.691,31.70692,-0.11482,0.29841,0.9886
260.291,31.7642,-0.11611,0.299,0.9883
260.891,31.8214,-0.11744,0.30071,0.98799
261.491,31.8788,-0.11966,0.29957,0.98768
262.091,31.936,-0.12013,0.30184,0.98738
262.691,31.99315,-0.12142,0.30112,0.98707
263.291,32.05028,-0.12243,0.29887,0.98676
263.891,32.10713,-0.1242,0.29966,0.98645
264.491,32.16422,-0.12553,0.30256,0.98615
265.091,32.22081,-0.12547,0.30388,0.98584
265.691,32.27789,-0.12698,0.30263,0.98553
266.291,32.3352,-0.12921,0.303,0.98522
266.891,32.3923,-0.13057,0.3005,0.98491
267.491,32.44978,-0.13207,0.30053,0.9846
268.091,32.50693,-0.13339,0.29819,0.98429
268.691,32.56422,-0.1347,0.29704,0.98397
269.291,32.62137,-0.13471,0.29861,0.98366
269.891,32.6785,-0.13603,0.29473,0.98335
270.491,32.73542,-0.13792,0.29397,0.98304
271.091,32.7924,-0.13835,0.2933,0.98272
271.691,32.84967,-0.13995,0.29152,0.98241
272.291,32.90687,-0.14096,0.28966,0.98209
272.891,32.96419,-0.14228,0.2897,0.98178
273.491,33.02102,-0.14359,0.28599,0.98146
274.091,33.07804,-0.14491,0.28442,0.98115
274.691,33.13573,-0.14628,0.28126,0.98083
275.291,33.1933,-0.14624,0.28008,0.98052
275.891,33.251,-0.14755,0.27799,0.9802
276.491,33.3085,-0.14916,0.27597,0.97988
277.091,33.36609,-0.15052,0.27199,0.97956
277.691,33.42348,-0.15186,0.26977,0.97925
278.291,33.48106,-0.15282,0.2678,0.97893
278.891,33.53865,-0.15315,0.26726,0.97861
279.491,33.59623,-0.15432,0.26629,0.97829
280.091,33.65392,-0.1571,0.26482,0.97797
280.691,33.71141,-0.15837,0.2638,0.97765
281.291,33.769,-0.15711,0.26155,0.97733
281.891,33.82645,-0.15846,0.26123,0.97701
282.491,33.88393,-0.15994,0.25653,0.97669
283.091,33.9411,-0.16112,0.25814,0.97636
283.691,33.99818,-0.16319,0.25616,0.97604
284.291,34.05516,-0.16501,0.25441,0.97572
284.891,34.1119,-0.16496,0.25172,0.97539
285.491,34.16885,-0.16575,0.25152,0.97507
286.091,34.22555,-0.16542,0.24954,0.97475
286.691,34.28264,-0.16661,0.2473,0.97442
287.291,34.33998,-0.16797,0.24627,0.9741
287.891,34.39727,-0.1706,0.24191,0.97377
288.491,34.4544,-0.171,0.23827,0.97344
289.091,34.51085,-0.17191,0.24162,0.97312
289.691,34.56779,-0.17324,0.23704,0.97279
290.291,34.62494,-0.17429,0.23423,0.97246
290.891,34.68274,-0.17515,0.23464,0.97214
291.491,34.74113,-0.17587,0.23382,0.97181
292.091,34.7988,-0.17718,0.2322,0.97148
292.691,34.85671,-0.17932,0.23173,0.97115
293.291,34.91401,-0.1797,0.22965,0.97082
293.891,34.97156,-0.18081,0.22936,0.97049
294.491,35.02922,-0.18213,0.23136,0.97016
295.091,35.08664,-0.18213,0.22839,0.96983
295.691,35.14347,-0.18346,0.23065,0.9695
296.291,35.1999,-0.18477,0.23008,0.96917
296.891,35.25658,-0.18615,0.22929,0.96883
297.491,35.31392,-0.18627,0.22698,0.9685
298.091,35.37205,-0.18741,0.22705,0.96817
298.691,35.4298,-0.18839,0.22945,0.96784
299.291,35.48681,-0.18874,0.22849,0.9675
299.891,35.5435,-0.19003,0.22939,0.96717
300.491,35.60037,-0.19004,0.22904,0.96683
301.091,35.65703,-0.1913,0.23012,0.9665
301.691,35.71378,-0.19267,0.22962,0.96616
302.291,35.77082,-0.19398,0.22981,0.96583
302.891,35.82866,-0.19563,0.22956,0.96549
303.491,35.88701,-0.19694,0.23128,0.96515
304.091,35.94535,-0.19829,0.23098,0.96481
304.691,36.0032,-0.19959,0.23309,0.96448
305.291,36.06067,-0.20064,0.23364,0.96414
305.891,36.11827,-0.20161,0.22846,0.9638
306.491,36.17582,-0.20122,0.231,0.96346
307.091,36.23338,-0.20223,0.23028,0.96312
307.691,36.29098,-0.20354,0.23017,0.96278
308.291,36.34838,-0.20586,0.23141,0.96244
308.891,36.4058,-0.20618,0.23311,0.9621
309.491,36.46294,-0.20749,0.23303,0.96176
310.091,36.51944,-0.20881,0.23462,0.96142
310.691,36.57675,-0.21013,0.23466,0.96107
311.291,36.63322,-0.21079,0.23499,0.96073
311.891,36.69045,-0.21145,0.23617,0.96039
312.491,36.7482,-0.21276,0.23485,0.96004
313.091,36.8059,-0.21408,0.2354,0.9597
313.691,36.8641,-0.214,0.23682,0.95936
314.291,36.9217,-0.21541,0.23788,0.95901
314.891,36.97968,-0.21672,0.23637,0.95867
315.491,37.03723,-0.21926,0.23952,0.95832
316.091,37.0952,-0.22095,0.23963,0.95797
316.691,37.15263,-0.22199,0.23844,0.95763
317.291,37.21026,-0.22331,0.23991,0.95728
317.891,37.26829,-0.2246,0.2386,0.95693
318.491,37.32592,-0.22462,0.23888,0.95658
319.091,37.38394,-0.22668,0.2427,0.95624
319.691,37.441,-0.22795,0.24273,0.95589
320.291,37.49863,-0.2288,0.24405,0.95554
320.891,37.55621,-0.22996,0.24086,0.95519
321.491,37.61325,-0.23049,0.2466,0.95484
322.091,37.6706,-0.23288,0.24438,0.95449
322.691,37.72831,-0.23419,0.24494,0.95414
323.291,37.78624,-0.23411,0.24687,0.95378
323.891,37.84384,-0.23769,0.24675,0.95343
324.491,37.90105,-0.23909,0.2467,0.95308
325.091,37.95833,-0.24026,0.24809,0.95273
325.691,38.01579,-0.24212,0.24896,0.95237
326.291,38.0732,-0.24341,0.24723,0.95202
326.891,38.13113,-0.2447,0.24847,0.95167
327.491,38.18947,-0.24603,0.25072,0.95131
328.091,38.24812,-0.24826,0.25106,0.95096
328.691,38.30563,-0.25096,0.25101,0.9506
329.291,38.3635,-0.25137,0.24881,0.95025
329.891,38.42133,-0.25173,0.25173,0.94989
330.491,38.47996,-0.25437,0.25344,0.94953
331.091,38.53842,-0.25569,0.25428,0.94918
331.691,38.59608,-0.25695,0.25412,0.94882
332.291,38.65422,-0.25821,0.25439,0.94846
332.891,38.71198,-0.26012,0.25441,0.9481
333.491,38.7702,-0.26194,0.25193,0.94774
334.091,38.82828,-0.26328,0.25358,0.94738
334.691,38.88562,-0.26448,0.25379,0.94702
335.291,38.9435,-0.26687,0.25591,0.94666
335.891,39.00128,-0.26863,0.25377,0.9463
336.491,39.05925,-0.27133,0.25252,0.94594
337.091,39.1171,-0.2735,0.25898,0.94558
337.691,39.17473,-0.27539,0.25961,0.94522
338.291,39.2327,-0.27588,0.26043,0.94485
338.891,39.29065,-0.27733,0.2614,0.94449
339.491,39.34839,-0.28009,0.26309,0.94413
340.091,39.40592,-0.28169,0.26233,0.94376
340.691,39.46359,-0.28364,0.26363,0.9434
341.291,39.52167,-0.28571,0.26371,0.94304
341.891,39.5801,-0.28851,0.26394,0.94267
342.491,39.63834,-0.28996,0.26105,0.9423
343.091,39.69668,-0.29412,0.2634,0.94194
343.691,39.7547,-0.29551,0.26331,0.94157
344.291,39.8125,-0.29776,0.26556,0.94121
344.891,39.87034,-0.29841,0.26587,0.94084
345.491,39.9283,-0.30175,0.26909,0.94047
346.091,39.98617,-0.30357,0.26637,0.9401
346.691,40.0441,-0.30719,0.27039,0.93973
347.291,40.1014,-0.30837,0.26988,0.93936
347.891,40.15824,-0.30963,0.27453,0.93899
348.491,40.2155,-0.31213,0.27556,0.93862
349.091,40.27292,-0.31526,0.27759,0.93825
349.691,40.33133,-0.3174,0.2774,0.93788
350.291,40.38998,-0.32002,0.28037,0.93751
350.891,40.44863,-0.32351,0.27656,0.93714
351.491,40.50734,-0.32595,0.27993,0.93677
352.091,40.5655,-0.32903,0.27957,0.9364
352.691,40.62353,-0.33097,0.28,0.93602
353.291,40.68145,-0.33341,0.27996,0.93565
353.891,40.73919,-0.33642,0.2826,0.93528
354.491,40.79656,-0.33928,0.28711,0.9349
355.091,40.85417,-0.34216,0.28794,0.93453
355.691,40.91183,-0.34501,0.29014,0.93415
356.291,40.9698,-0.34723,0.29146,0.93378
356.891,41.02809,-0.35102,0.29536,0.9334
357.491,41.08641,-0.35406,0.29492,0.93302
358.091,41.1447,-0.3565,0.29484,0.93265
358.691,41.20312,-0.35949,0.29613,0.93227
359.291,41.26092,-0.36326,0.30203,0.93189
359.891,41.31905,-0.36577,0.30129,0.93151
360.491,41.3767,-0.36964,0.30287,0.93113
361.091,41.4343,-0.37312,0.30324,0.93075
361.691,41.49198,-0.37586,0.3058,0.93037
362.291,41.5501,-0.37942,0.30407,0.92999
362.891,41.60906,-0.38401,0.30914,0.92961
363.491,41.66812,-0.3859,0.31044,0.92923
364.091,41.7265,-0.38996,0.31334,0.92885
364.691,41.78427,-0.39437,0.31688,0.92847
365.291,41.84237,-0.39896,0.31668,0.92809
365.891,41.89989,-0.40312,0.31934,0.9277
366.491,41.95813,-0.40724,0.32132,0.92732
367.091,42.0157,-0.4105,0.32036,0.92694
367.691,42.07369,-0.4143,0.32506,0.92655
368.291,42.13193,-0.41891,0.32707,0.92617
368.891,42.18985,-0.42266,0.3286,0.92578
369.491,42.2478,-0.42724,0.33121,0.9254
370.091,42.3058,-0.43157,0.33333,0.92501
370.691,42.3643,-0.43556,0.33608,0.92463
371.291,42.42346,-0.44063,0.33509,0.92424
371.891,42.48257,-0.44582,0.33897,0.92385
372.491,42.54144,-0.4503,0.34075,0.92347
373.091,42.59902,-0.4562,0.34498,0.92308
373.691,42.6564,-0.46107,0.34569,0.92269
374.291,42.71397,-0.46563,0.34781,0.9223
374.891,42.77132,-0.47179,0.3505,0.92191
375.491,42.82969,-0.47699,0.35425,0.92152
376.091,42.88811,-0.48244,0.35906,0.92113
376.691,42.94623,-0.48808,0.36326,0.92074
377.291,43.00428,-0.49231,0.36766,0.92035
377.891,43.0623,-0.49801,0.36842,0.91996
378.491,43.12005,-0.50359,0.37439,0.91957
379.091,43.17839,-0.51008,0.37675,0.91918
379.691,43.237,-0.51773,0.37925,0.91878
380.291,43.2956,-0.52425,0.38422,0.91839
380.891,43.3544,-0.53144,0.38815,0.918
381.491,43.41278,-0.53684,0.39197,0.9176
382.091,43.4713,-0.54348,0.39857,0.91721
382.691,43.52964,-0.55093,0.40012,0.91681
383.291,43.58804,-0.55876,0.40646,0.91642
383.891,43.6462,-0.56594,0.41033,0.91602
384.491,43.7044,-0.57354,0.41389,0.91562
385.091,43.76249,-0.58117,0.41806,0.91523
385.691,43.821,-0.58915,0.42412,0.91483
386.291,43.8792,-0.59713,0.42772,0.91443
386.891,43.9371,-0.6054,0.43332,0.91404
387.491,43.99542,-0.6138,0.43822,0.91364
388.091,44.05356,-0.6226,0.44424,0.91324
388.691,44.1124,-0.62978,0.44988,0.91284
389.291,44.17027,-0.64009,0.45534,0.91244
389.891,44.2287,-0.64826,0.46117,0.91204
390.491,44.28707,-0.65865,0.46825,0.91164
391.091,44.34532,-0.66711,0.47207,0.91124
391.691,44.40388,-0.67687,0.47727,0.91084
392.291,44.46188,-0.68772,0.48325,0.91043
392.891,44.5199,-0.69798,0.48924,0.91003
393.491,44.5783,-0.70815,0.49604,0.90963
394.091,44.63722,-0.71847,0.50132,0.90923
394.691,44.69619,-0.72965,0.50804,0.90882
395.291,44.75502,-0.74113,0.51373,0.90842
395.891,44.81341,-0.7548,0.51974,0.90801
396.491,44.87168,-0.76721,0.52329,0.90761
397.091,44.93005,-0.77695,0.5299,0.9072
397.691,44.9882,-0.78973,0.53624,0.9068
398.291,45.0467,-0.80296,0.54181,0.90639
398.891,45.1057,-0.81605,0.54872,0.90599
399.491,45.16458,-0.8297,0.55339,0.90558
400.091,45.22314,-0.84376,0.55309,0.90517
400.691,45.28093,-0.85629,0.56305,0.90476
401.291,45.33826,-0.87044,0.56707,0.90436
401.891,45.39585,-0.88383,0.57025,0.90395
402.491,45.454,-0.89903,0.5752,0.90354
403.091,45.51297,-0.91467,0.57797,0.90313
403.691,45.5721,-0.93024,0.58205,0.90272
404.291,45.63159,-0.94617,0.58448,0.90231
404.891,45.69064,-0.96081,0.58797,0.9019
405.491,45.74922,-0.97645,0.59284,0.90149
406.091,45.80727,-0.99184,0.59491,0.90107
406.691,45.8653,-1.00861,0.59381,0.90066
407.291,45.92337,-1.02465,0.5967,0.90025
407.891,45.98195,-1.0425,0.59918,0.89984
408.491,46.04071,-1.05809,0.5967,0.89942
409.091,46.0993,-1.07504,0.5966,0.89901
409.691,46.15782,-1.09166,0.59554,0.89859
410.291,46.21646,-1.1096,0.59357,0.89818
410.891,46.27505,-1.12506,0.59351,0.89776
411.491,46.3339,-1.14257,0.59072,0.89735
412.091,46.39288,-1.16018,0.58732,0.89693
412.691,46.45162,-1.17776,0.58174,0.89652
413.291,46.51021,-1.19416,0.57712,0.8961
413.891,46.5685,-1.21233,0.56989,0.89568
414.491,46.62663,-1.22904,0.56672,0.89526
415.091,46.685,-1.24633,0.55794,0.89485
415.691,46.74387,-1.2633,0.55286,0.89443
416.291,46.8028,-1.27985,0.54774,0.89401
416.891,46.86122,-1.29808,0.53687,0.89359
417.491,46.91973,-1.31458,0.52851,0.89317
418.091,46.978,-1.33151,0.52095,0.89275
418.691,47.03654,-1.34543,0.51088,0.89233
419.291,47.09517,-1.36132,0.49971,0.89191
419.891,47.1539,-1.3778,0.48848,0.89149
420.491,47.21253,-1.39452,0.47961,0.89106
421.091,47.27065,-1.40943,0.46753,0.89064
421.691,47.32911,-1.42375,0.45751,0.89022
422.291,47.38765,-1.43878,0.44495,0.88979
422.891,47.4465,-1.45213,0.43181,0.88937
423.491,47.50568,-1.46572,0.42131,0.88895
424.091,47.56422,-1.47894,0.40728,0.88852
424.691,47.62277,-1.4936,0.3943,0.8881
425.291,47.68104,-1.50665,0.38172,0.88767
425.891,47.7391,-1.51917,0.37005,0.88725
426.491,47.79717,-1.53128,0.35496,0.88682
427.091,47.85556,-1.54173,0.34035,0.88639
427.691,47.9139,-1.55239,0.32905,0.88597
428.291,47.9727,-1.564,0.31625,0.88554
428.891,48.03137,-1.57401,0.29771,0.88511
429.491,48.0901,-1.58595,0.28638,0.88468
430.091,48.14902,-1.59322,0.27754,0.88425
430.691,48.20715,-1.60179,0.26387,0.88382
431.291,48.26489,-1.61247,0.2538,0.8834
431.891,48.32302,-1.61939,0.24434,0.88297
432.491,48.38106,-1.62601,0.23134,0.88253
433.091,48.43974,-1.6332,0.22251,0.8821
433.691,48.49896,-1.63984,0.21239,0.88167
434.291,48.558,-1.6469,0.2042,0.88124
434.891,48.61688,-1.65399,0.19359,0.88081
435.491,48.67562,-1.65803,0.18151,0.88038
436.091,48.73434,-1.66309,0.17401,0.87994
436.691,48.79313,-1.66864,0.16785,0.87951
437.291,48.85221,-1.67411,0.15798,0.87908
437.891,48.9114,-1.67746,0.14821,0.87864
438.491,48.9703,-1.68125,0.14152,0.87821
439.091,49.02913,-1.68547,0.13596,0.87777
439.691,49.08769,-1.68742,0.12991,0.87734
440.291,49.14625,-1.6904,0.12383,0.8769
440.891,49.20482,-1.69317,0.11594,0.87647
441.491,49.26345,-1.69464,0.11076,0.87603
442.091,49.32203,-1.69756,0.10757,0.87559
442.691,49.38078,-1.70036,0.10172,0.87515
443.291,49.43923,-1.70092,0.09943512,0.87472
443.891,49.49798,-1.70294,0.09542876,0.87428
444.491,49.55682,-1.70427,0.08982053,0.87384
445.091,49.61568,-1.70679,0.08847852,0.8734
445.691,49.6746,-1.70836,0.0877036,0.87296
446.291,49.73335,-1.70976,0.0850641,0.87252
446.891,49.79204,-1.71112,0.08016856,0.87208
447.491,49.85065,-1.7124,0.07790432,0.87164
448.091,49.90918,-1.71372,0.07651397,0.8712
448.691,49.96763,-1.71485,0.07457118,0.87076
449.291,50.02635,-1.71448,0.07238078,0.87031
449.891,50.08502,-1.71571,0.07233484,0.86987
450.491,50.144,-1.71701,0.06921654,0.86943
451.091,50.20299,-1.71704,0.06855036,0.86899
451.691,50.2618,-1.7193,0.06377497,0.86854
452.291,50.3206,-1.72063,0.06572809,0.8681
452.891,50.3793,-1.72063,0.06474374,0.86765
453.491,50.43806,-1.72064,0.06360734,0.86721
454.091,50.49705,-1.72195,0.06275168,0.86676
454.691,50.55604,-1.72332,0.06014305,0.86632
455.291,50.61506,-1.72413,0.0591871,0.86587
455.891,50.67392,-1.7239,0.0591778,0.86542
456.491,50.7328,-1.72459,0.05954164,0.86498
457.091,50.79168,-1.72595,0.05921336,0.86453
457.691,50.85066,-1.72591,0.05846788,0.86408
458.291,50.90978,-1.72622,0.05847721,0.86363
458.891,50.9689,-1.72723,0.05681611,0.86319
459.491,51.02756,-1.72718,0.05733771,0.86274
460.091,51.08656,-1.72855,0.05558141,0.86229
460.691,51.14562,-1.72855,0.05524438,0.86184
461.291,51.2048,-1.72855,0.05773279,0.86139
461.891,51.26406,-1.72987,0.05532537,0.86094
462.491,51.3232,-1.7298,0.05356881,0.86049
463.091,51.3824,-1.73118,0.05401374,0.86003
463.691,51.44164,-1.73078,0.05540521,0.85958
464.291,51.50073,-1.73052,0.05450125,0.85913
464.891,51.55985,-1.73151,0.05437901,0.85868
465.491,51.61889,-1.73184,0.05696758,0.85822
466.091,51.6779,-1.73318,0.05580596,0.85777
466.691,51.73692,-1.73447,0.05489676,0.85732
467.291,51.79599,-1.73408,0.05767337,0.85686
467.891,51.85499,-1.73447,0.05967879,0.85641
468.491,51.91408,-1.73447,0.0603392,0.85595
469.091,51.97313,-1.73473,0.06455115,0.8555
469.691,52.03223,-1.73579,0.06267214,0.85504
470.291,52.09133,-1.73681,0.06543287,0.85459
470.891,52.15041,-1.73809,0.06688616,0.85413
471.491,52.2095,-1.73842,0.06743658,0.85367
472.091,52.26865,-1.7387,0.06964428,0.85321
472.691,52.32767,-1.73875,0.06974993,0.85276
473.291,52.38667,-1.73875,0.070451,0.8523
473.891,52.4455,-1.73868,0.07173301,0.85184
474.491,52.50433,-1.74014,0.07169538,0.85138
475.091,52.5632,-1.73997,0.07141377,0.85092
475.691,52.6222,-1.73974,0.07003986,0.85046
476.291,52.6813,-1.74112,0.07119265,0.85
476.891,52.74066,-1.74106,0.07243487,0.84954
477.491,52.7998,-1.74171,0.07218473,0.84908
478.091,52.85898,-1.74238,0.07372435,0.84862
478.691,52.91809,-1.74238,0.07292385,0.84816
479.291,52.97705,-1.74238,0.07189074,0.84769
479.891,53.0354,-1.74368,0.07437646,0.84723
480.491,53.0945,-1.74374,0.07578435,0.84677
481.091,53.15335,-1.74501,0.0744159,0.84631
481.691,53.2126,-1.74501,0.07274512,0.84584
482.291,53.272,-1.74501,0.07340718,0.84538
482.891,53.33039,-1.74635,0.07279256,0.84491
483.491,53.38929,-1.74633,0.07504711,0.84445
484.091,53.44775,-1.74632,0.07735839,0.84398
484.691,53.50655,-1.74766,0.0781972,0.84352
485.291,53.56541,-1.74765,0.07805556,0.84305
485.891,53.62398,-1.74904,0.07685169,0.84258
486.491,53.68289,-1.74764,0.07646473,0.84212
487.091,53.74151,-1.74896,0.07408141,0.84165
487.691,53.80035,-1.74896,0.07285474,0.84118
488.291,53.86019,-1.74896,0.0719872,0.84071
488.891,53.92012,-1.74996,0.06980226,0.84025
489.491,53.98061,-1.75028,0.0732361,0.83978
490.091,54.0406,-1.75028,0.07100452,0.83931
490.691,54.0992,-1.75031,0.07088458,0.83884
491.291,54.1581,-1.75086,0.06896878,0.83837
491.891,54.2167,-1.75026,0.06931874,0.8379
492.491,54.27605,-1.75061,0.06991644,0.83743
493.091,54.33589,-1.753,0.06847237,0.83696
493.691,54.39532,-1.75324,0.06862754,0.83648
494.291,54.4551,-1.75334,0.06585294,0.83601
494.891,54.51465,-1.75423,0.06369021,0.83554
495.491,54.57435,-1.75415,0.05981259,0.83507
496.091,54.6333,-1.75435,0.0617369,0.83459
496.691,54.69255,-1.75423,0.06064907,0.83412
497.291,54.75195,-1.75419,0.05830655,0.83365
497.891,54.8113,-1.75555,0.0590342,0.83317
498.491,54.87053,-1.75555,0.05868813,0.8327
499.091,54.92896,-1.75555,0.06179797,0.83222
499.691,54.9874,-1.75686,0.06199671,0.83175
500.291,55.0463,-1.75686,0.05852585,0.83127
500.891,55.10606,-1.75686,0.05723281,0.8308
501.491,55.16559,-1.75687,0.0584502,0.83032
502.091,55.22505,-1.75818,0.05755929,0.82984
502.691,55.2841,-1.7594,0.05525596,0.82936
503.291,55.3435,-1.76049,0.05273608,0.82889
503.891,55.40322,-1.76076,0.05296037,0.82841
504.491,55.46346,-1.76048,0.05266266,0.82793
505.091,55.5229,-1.76049,0.05128238,0.82745
505.691,55.5814,-1.76049,0.05065414,0.82697
506.291,55.64003,-1.76049,0.05052145,0.82649
506.891,55.69868,-1.76051,0.05027828,0.82601
507.491,55.7579,-1.7618,0.0481624,0.82553
508.091,55.818,-1.7618,0.04828022,0.82505
508.691,55.8781,-1.76175,0.04781615,0.82457
509.291,55.9382,-1.76411,0.04745106,0.82409
509.891,55.99791,-1.76411,0.04868697,0.82361
510.491,56.0572,-1.76411,0.04489069,0.82313
511.091,56.11614,-1.76544,0.04468652,0.82264
511.691,56.17575,-1.76413,0.0441758,0.82216
512.291,56.23515,-1.76517,0.03973743,0.82168
512.891,56.29489,-1.76542,0.04131018,0.82119
513.491,56.35434,-1.76542,0.04067151,0.82071
514.091,56.4135,-1.76542,0.03824151,0.82023
514.691,56.47269,-1.76679,0.03804803,0.81974
515.291,56.53176,-1.76674,0.03928977,0.81926
515.891,56.59121,-1.76674,0.03836912,0.81877
516.491,56.65068,-1.76543,0.03730054,0.81828
517.091,56.71031,-1.76675,0.03696289,0.8178
517.691,56.77015,-1.76675,0.03669034,0.81731
518.291,56.8297,-1.76675,0.03708609,0.81682
518.891,56.88919,-1.76675,0.03617173,0.81634
519.491,56.94859,-1.76675,0.03504716,0.81585
520.091,57.0076,-1.76675,0.0347972,0.81536
520.691,57.067,-1.76769,0.03354333,0.81487
521.291,57.1264,-1.7677,0.03328281,0.81438
521.891,57.18595,-1.76797,0.03119381,0.81389
522.491,57.2456,-1.76938,0.03091837,0.81341
523.091,57.30483,-1.76938,0.02925234,0.81292
523.691,57.3643,-1.76938,0.02657768,0.81242
524.291,57.4238,-1.76938,0.02455676,0.81193
524.891,57.4833,-1.76938,0.02169044,0.81144
525.491,57.54271,-1.76998,0.02206748,0.81095
526.091,57.60216,-1.7707,0.02218009,0.81046
526.691,57.6614,-1.7707,0.0211533,0.80997
527.291,57.7209,-1.7707,0.02013589,0.80948
527.891,57.7804,-1.7707,0.02022618,0.80898
528.491,57.83999,-1.7707,0.01948446,0.80849
529.091,57.89965,-1.76938,0.0181575,0.808
529.691,57.95926,-1.7707,0.01696935,0.8075
530.291,58.0188,-1.77201,0.01581347,0.80701
530.891,58.0784,-1.77202,0.01306417,0.80651
531.491,58.138,-1.7721,0.0122309,0.80602
532.091,58.19752,-1.77122,0.01023658,0.80552
532.691,58.25705,-1.77136,0.01033302,0.80503
533.291,58.3167,-1.77136,0.00660385,0.80453
533.891,58.3765,-1.77136,0.0069219,0.80404
534.491,58.4363,-1.77136,0.004653826,0.80354
535.091,58.49637,-1.77335,0.006085165,0.80304
535.691,58.55624,-1.77234,0.004458182,0.80255
536.291,58.61616,-1.77331,0.00153452,0.80205
536.891,58.6759,-1.77333,-0.002678822,0.80155
537.491,58.7357,-1.77333,-0.003445375,0.80105
538.091,58.79551,-1.77333,-0.005950466,0.80055
538.691,58.8552,-1.77333,-0.005742905,0.80005
539.291,58.9149,-1.77333,-0.00971623,0.79955
539.891,58.97453,-1.77324,-0.01002233,0.79905
540.491,59.0343,-1.77453,-0.01355924,0.79855
541.091,59.09398,-1.77564,-0.01335585,0.79805
541.691,59.15379,-1.77564,-0.01526993,0.79755
542.291,59.21311,-1.77564,-0.02038806,0.79705
542.891,59.2729,-1.77423,-0.02418224,0.79655
543.491,59.33263,-1.77432,-0.02482391,0.79605
544.091,59.3924,-1.77432,-0.02731967,0.79555
544.691,59.45236,-1.77432,-0.03133259,0.79504
545.291,59.51194,-1.77433,-0.03319706,0.79454
545.891,59.57161,-1.77564,-0.03548222,0.79404
546.491,59.6313,-1.77564,-0.0405328,0.79353
547.091,59.6911,-1.77457,-0.04178207,0.79303
547.691,59.7509,-1.77432,-0.04304282,0.79252
548.291,59.81074,-1.77431,-0.04381281,0.79202
548.891,59.8706,-1.77564,-0.04584481,0.79152
549.491,59.93025,-1.77694,-0.05183806,0.79101
550.091,59.99005,-1.77564,-0.0583451,0.7905
550.691,60.04974,-1.77564,-0.06629608,0.79
551.291,60.10937,-1.77564,-0.06678688,0.78949
551.891,60.16895,-1.77564,-0.06684832,0.78899
552.491,60.22835,-1.77564,-0.06611701,0.78848
553.091,60.2881,-1.77564,-0.06784688,0.78797
553.691,60.34789,-1.77564,-0.06816348,0.78746
554.291,60.40772,-1.77661,-0.06868718,0.78696
554.891,60.46765,-1.77662,-0.07115616,0.78645
555.491,60.52751,-1.77659,-0.06847297,0.78594
556.091,60.58736,-1.77563,-0.06698037,0.78543
556.691,60.6472,-1.77563,-0.06970257,0.78492
557.291,60.70703,-1.77564,-0.06582243,0.78441
557.891,60.76686,-1.77695,-0.06902737,0.7839
558.491,60.8267,-1.77727,-0.06638484,0.78339
559.091,60.8864,-1.77666,-0.06337467,0.78288
559.691,60.9461,-1.77595,-0.06180988,0.78237
560.291,61.0057,-1.77728,-0.06540189,0.78186
560.891,61.06539,-1.77728,-0.0641989,0.78135
561.491,61.1251,-1.77604,-0.06140871,0.78083
562.091,61.18492,-1.77597,-0.06470835,0.78032
562.691,61.24485,-1.77733,-0.06169951,0.77981
563.291,61.3049,-1.77728,-0.06054917,0.7793
563.891,61.36475,-1.77728,-0.06282498,0.77878
564.491,61.4246,-1.77728,-0.06223875,0.77827
565.091,61.48449,-1.77599,-0.06034893,0.77776
565.691,61.54436,-1.77698,-0.05919535,0.77724
566.291,61.6043,-1.77729,-0.05913364,0.77673
566.891,61.66426,-1.77729,-0.05848031,0.77621
567.491,61.72404,-1.77729,-0.0562327,0.7757
568.091,61.78377,-1.77729,-0.05469447,0.77518
568.691,61.84355,-1.77729,-0.05688334,0.77467
569.291,61.90336,-1.77722,-0.05536723,0.77415
569.891,61.963,-1.77837,-0.05341931,0.77363
570.491,62.0228,-1.77861,-0.04670575,0.77312
571.091,62.08249,-1.77861,-0.04788913,0.7726
571.691,62.14258,-1.77861,-0.04536061,0.77208
572.291,62.2025,-1.77797,-0.04476103,0.77156
572.891,62.2622,-1.77795,-0.04711267,0.77105
573.491,62.32209,-1.77889,-0.04600096,0.77053
574.091,62.3818,-1.7786,-0.04490721,0.77001
574.691,62.442,-1.7786,-0.04542633,0.76949
575.291,62.5021,-1.77855,-0.04807325,0.76897
575.891,62.5622,-1.77928,-0.04702163,0.76845
576.491,62.62219,-1.77926,-0.04444216,0.76793
577.091,62.68231,-1.77926,-0.04240699,0.76741
577.691,62.74256,-1.78063,-0.04265847,0.76689
578.291,62.8027,-1.78055,-0.03887994,0.76637
578.891,62.8629,-1.78025,-0.03892653,0.76585
579.491,62.92312,-1.78025,-0.03772376,0.76533
580.091,62.9833,-1.78025,-0.03927544,0.7648
580.691,63.0438,-1.78025,-0.03572013,0.76428
581.291,63.1038,-1.78058,-0.0332643,0.76376
581.891,63.164,-1.78155,-0.03328266,0.76324
582.491,63.22393,-1.78156,-0.03423116,0.76271
583.091,63.28386,-1.78058,-0.03112914,0.76219
583.691,63.3437,-1.7809,-0.03086601,0.76167
584.291,63.40361,-1.78091,-0.0322915,0.76114
584.891,63.4639,-1.78222,-0.03238517,0.76062
585.491,63.52411,-1.78353,-0.02903068,0.76009
586.091,63.58424,-1.78254,-0.02846897,0.75957
586.691,63.6441,-1.78218,-0.02848283,0.75905
587.291,63.7042,-1.78354,-0.02872995,0.75852
587.891,63.7644,-1.78354,-0.0280021,0.75799
588.491,63.8246,-1.78354,-0.02475661,0.75747
589.091,63.88475,-1.78354,-0.02268618,0.75694
589.691,63.94481,-1.78354,-0.02396145,0.75642
590.291,64.0047,-1.78354,-0.02014943,0.75589
590.891,64.06448,-1.78354,-0.02004713,0.75536
591.491,64.12427,-1.7849,-0.02048733,0.75483
592.091,64.18411,-1.78453,-0.02031921,0.75431
592.691,64.24428,-1.78453,-0.01899039,0.75378
593.291,64.30453,-1.78453,-0.01578493,0.75325
593.891,64.36449,-1.78582,-0.01616167,0.75272
594.491,64.4245,-1.7848,-0.01408066,0.75219
595.091,64.48441,-1.78486,-0.01258168,0.75166
595.691,64.5443,-1.78524,-0.0148924,0.75113
596.291,64.6041,-1.78608,-0.01086855,0.7506
596.891,64.6638,-1.78716,-0.01014497,0.75007
597.491,64.72374,-1.78709,-0.008253575,0.74954
598.091,64.78368,-1.78683,-0.004167004,0.74901
598.691,64.84382,-1.78683,-0.005017624,0.74848
599.291,64.9037,-1.78684,-0.005516066,0.74795
599.891,64.9635,-1.78716,-0.00416571,0.74742
600.491,65.02348,-1.78922,-0.00304329,0.74689
601.091,65.08306,-1.78914,0.0006061295,0.74635
601.691,65.14315,-1.78914,0.002505366,0.74582
602.291,65.2029,-1.78914,0.004539085,0.74529
602.891,65.26297,-1.78845,0.004400103,0.74476
603.491,65.32285,-1.78915,0.005014607,0.74422
604.091,65.3826,-1.78915,0.008867504,0.74369
604.691,65.44275,-1.79047,0.01252161,0.74316
605.291,65.5027,-1.79046,0.01517846,0.74262
605.891,65.56262,-1.79046,0.0160971,0.74209
606.491,65.62254,-1.79046,0.01706265,0.74155
607.091,65.68257,-1.79187,0.01759025,0.74102
607.691,65.74259,-1.7921,0.02020363,0.74048
608.291,65.803,-1.79328,0.09981927,0.73995
608.891,65.86299,-1.79342,0.12564,0.73941
609.491,65.9228,-1.79342,0.13428,0.73887
610.091,65.9824,-1.79472,0.14009,0.73834
610.691,66.04227,-1.79474,0.14175,0.7378
611.291,66.10237,-1.79411,0.14031,0.73726
611.891,66.16252,-1.79409,0.14135,0.73673
612.491,66.22273,-1.79525,0.15011,0.73619
613.091,66.28301,-1.79673,0.15322,0.73565
613.691,66.34356,-1.79803,0.1545,0.73511
614.291,66.40375,-1.79666,0.15868,0.73458
614.891,66.4636,-1.79804,0.16079,0.73404
615.491,66.5237,-1.79721,0.16044,0.7335
616.091,66.58391,-1.79837,0.16393,0.73296
616.691,66.6442,-1.79995,0.16685,0.73242
617.291,66.7045,-1.801,0.16554,0.73188
617.891,66.76455,-1.80102,0.16817,0.73134
618.491,66.82449,-1.80237,0.16939,0.7308
619.091,66.8845,-1.801,0.17319,0.73026
619.691,66.94463,-1.80203,0.1738,0.72972
620.291,67.00491,-1.80231,0.17644,0.72918
620.891,67.06531,-1.80363,0.17635,0.72864
621.491,67.12565,-1.80363,0.17886,0.7281
622.091,67.18542,-1.805,0.18025,0.72756
622.691,67.24537,-1.80497,0.19111,0.72701
623.291,67.30521,-1.80561,0.19117,0.72647
623.891,67.36564,-1.80561,0.19158,0.72593
624.491,67.42579,-1.80551,0.19708,0.72539
625.091,67.48626,-1.80693,0.19743,0.72484
625.691,67.54681,-1.80827,0.20302,0.7243
626.291,67.60766,-1.80816,0.20646,0.72376
626.891,67.6685,-1.80956,0.20807,0.72321
627.491,67.72928,-1.81016,0.21321,0.72267
628.091,67.78993,-1.81088,0.21656,0.72213
628.691,67.85025,-1.8122,0.2209,0.72158
629.291,67.91075,-1.81355,0.22692,0.72104
629.891,67.97105,-1.81351,0.23072,0.72049
630.491,68.03153,-1.81353,0.23154,0.71995
631.091,68.09188,-1.81418,0.23304,0.7194
631.691,68.1519,-1.81549,0.23705,0.71886
632.291,68.21181,-1.8155,0.23991,0.71831
632.891,68.27189,-1.81762,0.24317,0.71776
633.491,68.33192,-1.81812,0.25021,0.71722
634.091,68.39205,-1.81925,0.25322,0.71667
634.691,68.45196,-1.81959,0.2576,0.71612
635.291,68.51165,-1.82076,0.25976,0.71558
635.891,68.57155,-1.8221,0.26594,0.71503
636.491,68.6313,-1.82085,0.26357,0.71448
637.091,68.69159,-1.82204,0.26829,0.71393
637.691,68.75174,-1.82339,0.27395,0.71339
638.291,68.81228,-1.82506,0.27891,0.71284
638.891,68.87307,-1.82498,0.28629,0.71229
639.491,68.9338,-1.82632,0.29184,0.71174
640.091,68.99404,-1.82802,0.29837,0.71119
640.691,69.05428,-1.82977,0.30583,0.71064
641.291,69.11455,-1.83072,0.31196,0.71009
641.891,69.17496,-1.83163,0.31881,0.70954
642.491,69.23564,-1.83303,0.32477,0.70899
643.091,69.2957,-1.83427,0.32874,0.70844
643.691,69.35571,-1.83556,0.33389,0.70789
644.291,69.41601,-1.8369,0.33815,0.70734
644.891,69.47614,-1.83684,0.34211,0.70679
645.491,69.53639,-1.83811,0.34657,0.70624
646.091,69.59643,-1.83953,0.35452,0.70569
646.691,69.65624,-1.84085,0.35726,0.70514
647.291,69.71551,-1.84218,0.36269,0.70458
647.891,69.77484,-1.84351,0.36183,0.70403
648.491,69.8344,-1.84502,0.36823,0.70348
649.091,69.89415,-1.8462,0.37574,0.70293
649.691,69.95458,-1.84819,0.38084,0.70237
650.291,70.0149,-1.84942,0.38514,0.70182
650.891,70.07518,-1.85074,0.3898,0.70127
651.491,70.1356,-1.852,0.39605,0.70071
652.091,70.19587,-1.85433,0.40387,0.70016
652.691,70.25633,-1.85596,0.41084,0.69961
653.291,70.3168,-1.85661,0.41588,0.69905
653.891,70.37729,-1.85842,0.42449,0.6985
654.491,70.43777,-1.86052,0.43068,0.69794
655.091,70.49817,-1.86112,0.43858,0.69739
655.691,70.55843,-1.86319,0.44626,0.69684
656.291,70.61884,-1.86452,0.45055,0.69628
656.891,70.67919,-1.86635,0.46014,0.69572
657.491,70.73939,-1.86775,0.46516,0.69517
658.091,70.79985,-1.86906,0.4721,0.69461
658.691,70.86046,-1.87206,0.48078,0.69406
659.291,70.9212,-1.87369,0.48536,0.6935
659.891,70.98192,-1.87596,0.49395,0.69295
660.491,71.04239,-1.87818,0.50154,0.69239
661.091,71.10288,-1.88079,0.51033,0.69183
661.691,71.16336,-1.88195,0.5156,0.69127
662.291,71.22361,-1.88426,0.52468,0.69072
662.891,71.28375,-1.88559,0.5317,0.69016
663.491,71.34398,-1.88755,0.54134,0.6896
664.091,71.4044,-1.89028,0.54923,0.68904
664.691,71.46486,-1.89181,0.55641,0.68849
665.291,71.52531,-1.89471,0.56831,0.68793
665.891,71.58548,-1.89527,0.57607,0.68737
666.491,71.64578,-1.89779,0.58644,0.68681
667.091,71.706,-1.90021,0.58995,0.68625
667.691,71.76649,-1.9028,0.60455,0.68569
668.291,71.82677,-1.90486,0.60898,0.68513
668.891,71.88693,-1.907,0.62083,0.68457
669.491,71.94731,-1.90938,0.63133,0.68401
670.091,72.00784,-1.91211,0.64401,0.68346
670.691,72.06855,-1.9152,0.6519,0.6829
671.291,72.12904,-1.91729,0.66078,0.68233
671.891,72.1897,-1.91944,0.67222,0.68177
672.491,72.25014,-1.92309,0.68315,0.68121
673.091,72.31079,-1.92569,0.69593,0.68065
673.691,72.37136,-1.92752,0.70365,0.68009
674.291,72.43182,-1.93003,0.71603,0.67953
674.891,72.49224,-1.93183,0.72657,0.67897
675.491,72.5527,-1.93492,0.7365,0.67841
676.091,72.61326,-1.93764,0.75196,0.67785
676.691,72.6739,-1.94086,0.76166,0.67728
677.291,72.73411,-1.94447,0.77487,0.67672
677.891,72.79437,-1.94791,0.78475,0.67616
678.491,72.85478,-1.95095,0.79737,0.6756
679.091,72.91511,-1.95415,0.81116,0.67503
679.691,72.97589,-1.9557,0.82322,0.67447
680.291,73.03635,-1.95986,0.8394,0.67391
680.891,73.0968,-1.96359,0.84942,0.67335
681.491,73.15736,-1.96679,0.86054,0.67278
682.091,73.218,-1.96942,0.8747,0.67222
682.691,73.27842,-1.97276,0.88752,0.67165
683.291,73.33885,-1.97633,0.90003,0.67109
683.891,73.3994,-1.97966,0.91521,0.67053
684.491,73.45974,-1.98345,0.92996,0.66996
685.091,73.5201,-1.98677,0.94216,0.6694
685.691,73.5804,-1.99086,0.95522,0.66883
686.291,73.64052,-1.995,0.96884,0.66827
686.891,73.7012,-1.99796,0.98016,0.6677
687.491,73.76128,-2.00123,0.99878,0.66714
688.091,73.82212,-2.00555,1.01869,0.66657
688.691,73.88265,-2.00922,1.02949,0.66601
689.291,73.94349,-2.0136,1.04597,0.66544
689.891,74.00431,-2.01781,1.06221,0.66488
690.491,74.06448,-2.02122,1.07401,0.66431
691.091,74.12499,-2.02548,1.09072,0.66374
691.691,74.1855,-2.02946,1.10425,0.66318
692.291,74.2462,-2.03439,1.12016,0.66261
692.891,74.30677,-2.03664,1.13883,0.66204
693.491,74.36737,-2.04113,1.15273,0.66148
694.091,74.42794,-2.04545,1.16722,0.66091
694.691,74.4885,-2.0504,1.17994,0.66034
695.291,74.54889,-2.05439,1.20183,0.65978
695.891,74.60924,-2.05929,1.21208,0.65921
696.491,74.66968,-2.06456,1.22794,0.65864
697.091,74.7301,-2.06854,1.24649,0.65807
697.691,74.79047,-2.07372,1.2609,0.65751
698.291,74.85098,-2.07872,1.27492,0.65694
698.891,74.9114,-2.08323,1.29377,0.65637
699.491,74.9718,-2.08836,1.30982,0.6558
700.091,75.0321,-2.09287,1.32319,0.65523
700.691,75.0926,-2.09753,1.33958,0.65466
701.291,75.15301,-2.10161,1.35695,0.65409
701.891,75.2135,-2.10734,1.37211,0.65353
702.491,75.27386,-2.11205,1.38665,0.65296
703.091,75.33415,-2.11767,1.40452,0.65239
703.691,75.39458,-2.12428,1.42109,0.65182
704.291,75.45498,-2.12962,1.4382,0.65125
704.891,75.5154,-2.13384,1.45798,0.65068
705.491,75.57589,-2.13903,1.47057,0.65011
706.091,75.63629,-2.14264,1.48636,0.64954
706.691,75.6968,-2.14832,1.50057,0.64897
707.291,75.75708,-2.15379,1.51498,0.6484
707.891,75.8173,-2.16085,1.52875,0.64783
708.491,75.8776,-2.16664,1.54614,0.64726
709.091,75.93788,-2.17214,1.55957,0.64669
709.691,75.99813,-2.17746,1.57404,0.64612
710.291,76.05856,-2.18291,1.58592,0.64554
710.891,76.11879,-2.18863,1.59898,0.64497
711.491,76.179,-2.1948,1.61085,0.6444
712.091,76.2394,-2.20054,1.62272,0.64383
712.691,76.29951,-2.20629,1.63318,0.64326
713.291,76.35999,-2.21269,1.64482,0.64269
713.891,76.42044,-2.21922,1.65406,0.64212
714.491,76.48097,-2.22528,1.66267,0.64154
715.091,76.54166,-2.23181,1.67486,0.64097
715.691,76.60226,-2.23731,1.67866,0.6404
716.291,76.66305,-2.24443,1.68647,0.63983
716.891,76.72333,-2.2496,1.69355,0.63925
717.491,76.78399,-2.25579,1.69547,0.63868
718.091,76.8446,-2.26148,1.70139,0.63811
718.691,76.90534,-2.26953,1.70698,0.63754
719.291,76.96616,-2.27499,1.70948,0.63696
719.891,77.02691,-2.28121,1.70841,0.63639
720.491,77.08743,-2.28678,1.70999,0.63582
721.091,77.1482,-2.293,1.70585,0.63524
721.691,77.2088,-2.30045,1.70406,0.63467
722.291,77.26942,-2.30677,1.69975,0.6341
722.891,77.3301,-2.31161,1.69077,0.63352
723.491,77.3907,-2.31751,1.68762,0.63295
724.091,77.4514,-2.32412,1.67791,0.63238
724.691,77.51215,-2.33132,1.66523,0.6318
725.291,77.57284,-2.33726,1.65538,0.63123
725.891,77.6333,-2.34303,1.64151,0.63065
726.491,77.6939,-2.34898,1.62365,0.63008
727.091,77.75474,-2.35412,1.60275,0.6295
727.691,77.8155,-2.36049,1.58397,0.62893
728.291,77.87611,-2.36654,1.55644,0.62835
728.891,77.93666,-2.3732,1.53714,0.62778
729.491,77.997,-2.37795,1.50697,0.6272
730.091,78.05749,-2.38237,1.47666,0.62663
730.691,78.11786,-2.38807,1.43762,0.62605
731.291,78.1781,-2.39302,1.3952,0.62548
731.891,78.23858,-2.39775,1.34919,0.6249
732.491,78.29903,-2.40285,1.29158,0.62433
733.091,78.35964,-2.40863,1.2354,0.62375
733.691,78.42,-2.41227,1.17245,0.62318
734.291,78.48042,-2.41616,1.09524,0.6226
734.891,78.54065,-2.41918,1.01514,0.62203
735.491,78.60096,-2.42244,0.92709,0.62145
736.091,78.6613,-2.42578,0.82968,0.62087
736.691,78.72134,-2.42969,0.73638,0.6203
737.291,78.78177,-2.43282,0.63556,0.61972
737.891,78.8422,-2.43558,0.53761,0.61914
738.491,78.9029,-2.43684,0.44493,0.61857
739.091,78.96339,-2.43686,0.36137,0.61799
739.691,79.02395,-2.43948,0.2886,0.61741
740.291,79.08448,-2.44073,0.21993,0.61684
740.891,79.1451,-2.44114,0.1669,0.61626
741.491,79.20568,-2.44145,0.11441,0.61568
742.091,79.26618,-2.44246,0.07579562,0.61511
742.691,79.3268,-2.4434,0.04776827,0.61453
743.291,79.38736,-2.44345,0.01920779,0.61395
743.891,79.44789,-2.44345,0.0018715,0.61337
744.491,79.50834,-2.4428,-0.01815691,0.6128
745.091,79.56896,-2.44406,-0.03729608,0.61222
745.691,79.62966,-2.4441,-0.04562068,0.61164
746.291,79.6903,-2.44344,-0.05346799,0.61106
746.891,79.75106,-2.44477,-0.063546,0.61049
747.491,79.8116,-2.44477,-0.06558489,0.60991
748.091,79.87212,-2.44461,-0.07033514,0.60933
748.691,79.93258,-2.44345,-0.07438122,0.60875
749.291,79.9931,-2.44453,-0.07985034,0.60818