File: 01_Data/FRP_Panel/STA/N2/10K_min/FRP_Panel_STA_N2_10KData_22238_R3.csv
##Temp./Â°C,Time/min,Mass loss(subtr.2)/mg,DSC(subtr.2)/(mW/mg),Sensit./(uV/mW)
50.187,10.00917,0.00593,0.006145109,1.02684
50.887,10.84481,0.007021699,0.03753581,1.02678
51.587,11.0778,0.0078731,0.0560418,1.02672
52.287,11.254,0.00638637,0.07310138,1.02666
52.987,11.40415,0.008713061,0.08428427,1.0266
53.687,11.53946,0.007791597,0.09904188,1.02654
54.387,11.66353,0.007816942,0.10568,1.02647
55.087,11.7807,0.008249669,0.11323,1.02641
55.787,11.89209,0.00793598,0.12212,1.02635
56.487,11.99864,0.00747924,0.12928,1.02629
57.187,12.10192,0.007158195,0.13386,1.02622
57.887,12.20239,0.008176575,0.13836,1.02616
58.587,12.30074,0.00884561,0.14618,1.0261
59.287,12.39672,0.008534646,0.14817,1.02603
59.987,12.49066,0.008480625,0.15373,1.02597
60.687,12.58325,0.008933918,0.1577,1.02591
61.387,12.67436,0.009151456,0.16031,1.02584
62.087,12.76416,0.009592426,0.16518,1.02578
62.787,12.85259,0.009027698,0.16783,1.02571
63.487,12.94011,0.008261905,0.17464,1.02565
64.187,13.02707,0.00894321,0.17732,1.02558
64.887,13.11321,0.01055462,0.18323,1.02551
65.587,13.1991,0.009221264,0.18777,1.02545
66.287,13.28329,0.01028661,0.19052,1.02538
66.987,13.3667,0.01056133,0.1939,1.02531
67.687,13.44919,0.009558196,0.19545,1.02524
68.387,13.53212,0.009228879,0.20353,1.02518
69.087,13.61466,0.00904617,0.20677,1.02511
69.787,13.696,0.00924657,0.20688,1.02504
70.487,13.7766,0.007827647,0.20847,1.02497
71.187,13.85646,0.009168703,0.20904,1.0249
71.887,13.93609,0.01058586,0.2077,1.02483
72.587,14.01454,0.009444195,0.20678,1.02476
73.287,14.09353,0.00870856,0.20467,1.02469
73.987,14.17216,0.00923673,0.20408,1.02462
74.687,14.251,0.009700578,0.20393,1.02455
75.387,14.3287,0.009235993,0.2027,1.02448
76.087,14.40557,0.009204939,0.20183,1.02441
76.787,14.48277,0.009229246,0.20321,1.02433
77.487,14.56006,0.009219026,0.2044,1.02426
78.187,14.63621,0.008983125,0.20564,1.02419
78.887,14.71207,0.007893249,0.20617,1.02412
79.587,14.7876,0.007895102,0.2077,1.02404
80.287,14.86299,0.007904368,0.20862,1.02397
80.987,14.938,0.008654408,0.20877,1.02389
81.687,15.0122,0.00726944,0.21041,1.02382
82.387,15.0868,0.007323513,0.21217,1.02375
83.087,15.1615,0.006671283,0.21431,1.02367
83.787,15.2354,0.005700758,0.21556,1.02359
84.487,15.30916,0.006589896,0.2169,1.02352
85.187,15.3826,0.0065709,0.21785,1.02344
85.887,15.45646,0.006477619,0.21756,1.02337
86.587,15.52951,0.00529055,0.21918,1.02329
87.287,15.602,0.00659028,0.22064,1.02321
87.987,15.6746,0.00528961,0.22129,1.02313
88.687,15.7469,0.005371766,0.22202,1.02306
89.387,15.81824,0.005273863,0.22286,1.02298
90.087,15.88982,0.00658527,0.22687,1.0229
90.787,15.9612,0.0054576,0.22628,1.02282
91.487,16.03324,0.0050701,0.22721,1.02274
92.187,16.10436,0.00427546,0.22754,1.02266
92.887,16.17547,0.004132103,0.22792,1.02258
93.587,16.2464,0.00525889,0.2287,1.0225
94.287,16.31728,0.005278214,0.2302,1.02242
94.987,16.38779,0.003949508,0.23323,1.02233
95.687,16.4577,0.004006646,0.23245,1.02225
96.387,16.5276,0.003949316,0.23315,1.02217
97.087,16.59786,0.002643436,0.23451,1.02209
97.787,16.6682,0.003222267,0.23287,1.022
98.487,16.73819,0.003963777,0.23397,1.02192
99.187,16.80702,0.00394407,0.23398,1.02184
99.887,16.87667,0.004035981,0.23573,1.02175
100.587,16.94624,0.003291079,0.23582,1.02167
101.287,17.0162,0.003272013,0.23647,1.02158
101.987,17.08527,0.002615929,0.23726,1.0215
102.687,17.1544,0.001320896,0.2391,1.02141
103.387,17.2236,0.0005264175,0.24,1.02133
104.087,17.29279,0.0009546765,0.23927,1.02124
104.787,17.36182,0.001268244,0.24167,1.02115
105.487,17.4308,0.00128289,0.24107,1.02106
106.187,17.49973,0.0002849459,0.24258,1.02098
106.887,17.5683,-0.0005785341,0.24396,1.02089
107.587,17.637,4.12682e-05,0.24248,1.0208
108.287,17.7055,-7.00338e-09,0.24396,1.02071
108.987,17.77395,-4.39429e-11,0.2441,1.02062
109.687,17.84236,3.18835e-07,0.24461,1.02053
110.387,17.91086,-0.00132503,0.24398,1.02044
111.087,17.97951,-0.00132,0.24623,1.02035
111.787,18.04802,-0.00131204,0.2446,1.02026
112.487,18.11634,-0.00362919,0.24537,1.02017
113.187,18.18475,-0.004537092,0.24713,1.02007
113.887,18.25316,-0.004982077,0.2467,1.01998
114.587,18.32171,-0.004515106,0.24716,1.01989
115.287,18.39013,-0.003619882,0.24636,1.0198
115.987,18.4585,-0.003619999,0.24903,1.0197
116.687,18.52676,-0.003643053,0.24638,1.01961
117.387,18.59515,-0.004939898,0.24624,1.01951
118.087,18.66324,-0.005688055,0.24727,1.01942
118.787,18.73156,-0.006203985,0.24817,1.01932
119.487,18.79962,-0.007568959,0.24785,1.01923
120.187,18.86808,-0.006249246,0.24714,1.01913
120.887,18.93599,-0.006250353,0.24697,1.01903
121.587,19.00396,-0.00593256,0.24777,1.01894
122.287,19.0719,-0.00625975,0.2474,1.01884
122.987,19.14015,-0.007578001,0.24818,1.01874
123.687,19.20835,-0.008890086,0.24702,1.01864
124.387,19.2764,-0.00752764,0.24789,1.01854
125.087,19.34457,-0.007580008,0.24994,1.01844
125.787,19.4119,-0.00758,0.2481,1.01835
126.487,19.47949,-0.007580727,0.249,1.01824
127.187,19.5471,-0.008885656,0.2505,1.01814
127.887,19.6153,-0.01031134,0.24859,1.01804
128.587,19.68346,-0.01157294,0.24954,1.01794
129.287,19.7511,-0.01021234,0.24787,1.01784
129.987,19.81833,-0.01087031,0.24823,1.01774
130.687,19.8858,-0.01203455,0.24939,1.01763
131.387,19.95307,-0.01218997,0.24932,1.01753
132.087,20.02091,-0.01187883,0.24851,1.01743
132.787,20.08843,-0.01217999,0.24896,1.01732
133.487,20.15598,-0.01218,0.25005,1.01722
134.187,20.22339,-0.01217999,0.24961,1.01711
134.887,20.2907,-0.0135063,0.24929,1.01701
135.587,20.3585,-0.01217998,0.24888,1.0169
136.287,20.42605,-0.01403665,0.25034,1.01679
136.987,20.49383,-0.0148326,0.24856,1.01669
137.687,20.56147,-0.01614463,0.24771,1.01658
138.387,20.6286,-0.0161398,0.24848,1.01647
139.087,20.69576,-0.01584732,0.24762,1.01636
139.787,20.7629,-0.0161404,0.24882,1.01625
140.487,20.83022,-0.01481632,0.24903,1.01614
141.187,20.8973,-0.01611768,0.24957,1.01603
141.887,20.96426,-0.01613001,0.24834,1.01592
142.587,21.03136,-0.01609945,0.2495,1.01581
143.287,21.09825,-0.01675783,0.2499,1.0157
143.987,21.1652,-0.01872841,0.2494,1.01559
144.687,21.232,-0.01877109,0.25104,1.01548
145.387,21.29887,-0.01879776,0.25028,1.01536
146.087,21.36573,-0.01877997,0.25243,1.01525
146.787,21.43235,-0.01878,0.25097,1.01513
147.487,21.49907,-0.01878,0.25092,1.01502
148.187,21.56541,-0.01877999,0.25039,1.01491
148.887,21.63232,-0.0188192,0.25153,1.01479
149.587,21.69903,-0.01647067,0.24894,1.01467
150.287,21.76606,-0.01788163,0.25108,1.01456
150.987,21.83284,-0.0192105,0.25155,1.01444
151.687,21.8997,-0.01921,0.25155,1.01432
152.387,21.9666,-0.01921,0.25019,1.01421
153.087,22.033,-0.01921,0.25041,1.01409
153.787,22.09903,-0.01921105,0.25194,1.01397
154.487,22.1658,-0.02052932,0.25265,1.01385
155.187,22.23259,-0.02053477,0.25145,1.01373
155.887,22.30001,-0.0192098,0.25153,1.01361
156.587,22.36672,-0.02057745,0.25016,1.01349
157.287,22.43344,-0.02194778,0.25037,1.01337
157.987,22.49993,-0.02315928,0.25135,1.01324
158.687,22.56645,-0.02316,0.2508,1.01312
159.387,22.63305,-0.02315989,0.25013,1.013
160.087,22.69985,-0.02184907,0.25181,1.01288
160.787,22.7666,-0.02314649,0.25246,1.01275
161.487,22.83304,-0.02318744,0.25115,1.01263
162.187,22.8998,-0.02282425,0.25174,1.0125
162.887,22.96631,-0.02523872,0.25155,1.01238
163.587,23.033,-0.02396297,0.24962,1.01225
164.287,23.0993,-0.02292992,0.24956,1.01212
164.987,23.16575,-0.02426172,0.25002,1.012
165.687,23.2322,-0.02560381,0.24931,1.01187
166.387,23.2988,-0.02689003,0.25025,1.01174
167.087,23.36536,-0.02688552,0.24872,1.01161
167.787,23.43207,-0.02590113,0.24774,1.01148
168.487,23.49854,-0.02589999,0.25093,1.01135
169.187,23.56485,-0.02644069,0.24949,1.01122
169.887,23.6312,-0.02721999,0.24927,1.01109
170.587,23.69765,-0.02722,0.24753,1.01096
171.287,23.7644,-0.02722,0.24626,1.01083
171.987,23.83115,-0.02722717,0.24484,1.01069
172.687,23.8977,-0.02985962,0.24748,1.01056
173.387,23.9643,-0.02986,0.24476,1.01043
174.087,24.0308,-0.02986044,0.24573,1.01029
174.787,24.09733,-0.03051324,0.24507,1.01016
175.487,24.1639,-0.03052001,0.24369,1.01002
176.187,24.23025,-0.03050098,0.24377,1.00989
176.887,24.2968,-0.03249111,0.24286,1.00975
177.587,24.36324,-0.03348536,0.24171,1.00961
178.287,24.42989,-0.03380954,0.24229,1.00948
178.987,24.4964,-0.03512208,0.24182,1.00934
179.687,24.56294,-0.03441158,0.24063,1.0092
180.387,24.62946,-0.03416558,0.23988,1.00906
181.087,24.6959,-0.03512799,0.23872,1.00892
181.787,24.76241,-0.03522732,0.23931,1.00878
182.487,24.8289,-0.03513,0.23659,1.00864
183.187,24.8953,-0.03523366,0.2368,1.0085
183.887,24.96195,-0.03644956,0.23649,1.00835
184.587,25.02818,-0.03776537,0.23797,1.00821
185.287,25.0943,-0.03776343,0.23443,1.00807
185.987,25.16085,-0.03909086,0.23773,1.00792
186.687,25.22743,-0.04040229,0.2362,1.00778
187.387,25.29435,-0.0404,0.23731,1.00763
188.087,25.36072,-0.04040309,0.23783,1.00749
188.787,25.42708,-0.04302579,0.23663,1.00734
189.487,25.49342,-0.04301854,0.23754,1.0072
190.187,25.5598,-0.04302156,0.23691,1.00705
190.887,25.62623,-0.04435402,0.23811,1.0069
191.587,25.6926,-0.04305542,0.23806,1.00675
192.287,25.75914,-0.04434991,0.24086,1.0066
192.987,25.82561,-0.04434303,0.24035,1.00645
193.687,25.89205,-0.04567047,0.24255,1.0063
194.387,25.9586,-0.04566992,0.24478,1.00615
195.087,26.0245,-0.04702752,0.24875,1.006
195.787,26.09084,-0.04829864,0.24934,1.00585
196.487,26.15709,-0.04830637,0.25255,1.0057
197.187,26.224,-0.04731158,0.2532,1.00554
197.887,26.2904,-0.04940016,0.25658,1.00539
198.587,26.35693,-0.04994374,0.25964,1.00523
199.287,26.42316,-0.0525972,0.26239,1.00508
199.987,26.4897,-0.05389242,0.26674,1.00492
200.687,26.55605,-0.05387448,0.26984,1.00477
201.387,26.62242,-0.05259011,0.27393,1.00461
202.087,26.6888,-0.05258849,0.27754,1.00445
202.787,26.7552,-0.05381447,0.28288,1.00429
203.487,26.8216,-0.05522003,0.28528,1.00414
204.187,26.888,-0.05522053,0.28807,1.00398
204.887,26.9543,-0.05651914,0.29213,1.00382
205.587,27.0206,-0.05752497,0.29544,1.00366
206.287,27.08701,-0.0581969,0.29894,1.00349
206.987,27.1536,-0.05883963,0.30117,1.00333
207.687,27.22,-0.05856526,0.30383,1.00317
208.387,27.28635,-0.05983003,0.30757,1.00301
209.087,27.35282,-0.05975884,0.31185,1.00284
209.787,27.4191,-0.06247081,0.31486,1.00268
210.487,27.48572,-0.06349258,0.31713,1.00251
211.187,27.5522,-0.06378076,0.31878,1.00235
211.887,27.61845,-0.06477183,0.32394,1.00218
212.587,27.6848,-0.06641775,0.32528,1.00202
213.287,27.7511,-0.06641998,0.327,1.00185
213.987,27.8177,-0.06762801,0.3274,1.00168
214.687,27.88376,-0.06768405,0.33175,1.00151
215.387,27.95,-0.06905004,0.33314,1.00134
216.087,28.0168,-0.07035774,0.3345,1.00117
216.787,28.0837,-0.07037007,0.33436,1.001
217.487,28.1503,-0.07111758,0.33556,1.00083
218.187,28.21695,-0.07215624,0.33633,1.00066
218.887,28.2833,-0.07300075,0.33752,1.00048
219.587,28.34995,-0.07431467,0.33855,1.00031
220.287,28.41635,-0.07564405,0.33886,1.00014
220.987,28.4829,-0.07685297,0.3402,0.99996
221.687,28.5489,-0.07696002,0.34197,0.99979
222.387,28.615,-0.07825824,0.34116,0.99961
223.087,28.681,-0.07878722,0.34328,0.99944
223.787,28.74789,-0.07958998,0.34214,0.99926
224.487,28.8147,-0.08040326,0.34262,0.99908
225.187,28.8817,-0.08189989,0.34258,0.9989
225.887,28.9483,-0.08187592,0.34127,0.99872
226.587,29.0148,-0.08322023,0.34237,0.99854
227.287,29.08135,-0.08319768,0.34006,0.99836
227.987,29.14756,-0.08454068,0.33875,0.99818
228.687,29.214,-0.08616368,0.33955,0.998
229.387,29.2803,-0.0874947,0.34005,0.99782
230.087,29.34698,-0.09012631,0.34064,0.99763
230.787,29.41371,-0.09145316,0.33893,0.99745
231.487,29.48002,-0.09170634,0.3384,0.99726
232.187,29.5463,-0.09143999,0.33801,0.99708
232.887,29.61277,-0.09161068,0.33758,0.99689
233.587,29.67928,-0.09309919,0.33592,0.99671
234.287,29.746,-0.09525459,0.33449,0.99652
234.987,29.81258,-0.09536438,0.33453,0.99633
235.687,29.8794,-0.09672004,0.33149,0.99614
236.387,29.94618,-0.09662566,0.3303,0.99595
237.087,30.0129,-0.09799143,0.33117,0.99576
237.787,30.0796,-0.0993431,0.32861,0.99557
238.487,30.14615,-0.10034,0.32687,0.99538
239.187,30.21275,-0.10139,0.32677,0.99519
239.887,30.2794,-0.10133,0.32438,0.995
240.587,30.3461,-0.10165,0.32549,0.9948
241.287,30.4129,-0.10451,0.3239,0.99461
241.987,30.4794,-0.10441,0.32362,0.99441
242.687,30.5462,-0.10566,0.32296,0.99422
243.387,30.61257,-0.10605,0.32258,0.99402
244.087,30.6792,-0.10605,0.32304,0.99383
244.787,30.74584,-0.10775,0.32172,0.99363
245.487,30.8125,-0.10935,0.32417,0.99343
246.187,30.87929,-0.11,0.32054,0.99323
246.887,30.9458,-0.1087,0.32195,0.99303
247.587,31.01237,-0.11092,0.32292,0.99283
248.287,31.07907,-0.11263,0.32149,0.99263
248.987,31.14575,-0.11398,0.3239,0.99243
249.687,31.21248,-0.11527,0.32348,0.99222
250.387,31.27917,-0.11527,0.32498,0.99202
251.087,31.34583,-0.11659,0.32631,0.99182
251.787,31.4127,-0.11884,0.32745,0.99161
252.487,31.4796,-0.11922,0.32808,0.99141
253.187,31.54628,-0.12124,0.32807,0.9912
253.887,31.6126,-0.12314,0.33127,0.99099
254.587,31.6784,-0.12448,0.33137,0.99079
255.287,31.74451,-0.12581,0.33226,0.99058
255.987,31.81093,-0.1272,0.33368,0.99037
256.687,31.87827,-0.12844,0.33442,0.99016
257.387,31.94533,-0.12844,0.3355,0.98995
258.087,32.01208,-0.12841,0.33641,0.98974
258.787,32.07891,-0.12976,0.33603,0.98953
259.487,32.14549,-0.13192,0.33727,0.98931
260.187,32.21171,-0.13369,0.33926,0.9891
260.887,32.27825,-0.13499,0.33904,0.98889
261.587,32.34483,-0.13764,0.33933,0.98867
262.287,32.41185,-0.13637,0.3382,0.98846
262.987,32.4785,-0.1373,0.33784,0.98824
263.687,32.54501,-0.1391,0.33838,0.98802
264.387,32.61161,-0.14041,0.33782,0.9878
265.087,32.67807,-0.14041,0.33696,0.98759
265.787,32.74485,-0.14049,0.33608,0.98737
266.487,32.81152,-0.14312,0.33516,0.98715
267.187,32.87836,-0.14173,0.33459,0.98693
267.887,32.945,-0.14444,0.3331,0.9867
268.587,33.01162,-0.14728,0.33153,0.98648
269.287,33.0784,-0.14994,0.32981,0.98626
269.987,33.14497,-0.15259,0.32711,0.98603
270.687,33.21182,-0.15392,0.32663,0.98581
271.387,33.27865,-0.15391,0.32378,0.98558
272.087,33.34567,-0.15523,0.3231,0.98536
272.787,33.41235,-0.15654,0.32024,0.98513
273.487,33.47886,-0.15848,0.31781,0.9849
274.187,33.54567,-0.15981,0.31738,0.98468
274.887,33.61246,-0.16116,0.31431,0.98445
275.587,33.67965,-0.16185,0.3117,0.98422
276.287,33.74657,-0.16314,0.30884,0.98399
276.987,33.81349,-0.16478,0.30546,0.98376
277.687,33.88044,-0.16608,0.30385,0.98352
278.387,33.94701,-0.16741,0.30025,0.98329
279.087,34.01378,-0.16871,0.29943,0.98306
279.787,34.08056,-0.17008,0.29569,0.98282
280.487,34.14777,-0.1716,0.29254,0.98259
281.187,34.21477,-0.17272,0.29022,0.98235
281.887,34.28167,-0.17411,0.28986,0.98211
282.587,34.34839,-0.17532,0.28744,0.98188
283.287,34.41523,-0.17527,0.28378,0.98164
283.987,34.48206,-0.17664,0.2831,0.9814
284.687,34.549,-0.17796,0.27947,0.98116
285.387,34.61588,-0.17923,0.27645,0.98092
286.087,34.68289,-0.18063,0.27274,0.98068
286.787,34.74988,-0.18325,0.27006,0.98044
287.487,34.8168,-0.18424,0.2679,0.98019
288.187,34.88381,-0.18657,0.2671,0.97995
288.887,34.95065,-0.18685,0.26449,0.9797
289.587,35.0176,-0.18678,0.2624,0.97946
290.287,35.08439,-0.18817,0.26003,0.97921
290.987,35.1513,-0.19084,0.25892,0.97897
291.687,35.21847,-0.19076,0.25713,0.97872
292.387,35.28541,-0.19209,0.25618,0.97847
293.087,35.35255,-0.19211,0.25637,0.97822
293.787,35.41939,-0.19343,0.25396,0.97797
294.487,35.48635,-0.19475,0.25111,0.97772
295.187,35.55337,-0.19599,0.24934,0.97747
295.887,35.6205,-0.1987,0.24692,0.97722
296.587,35.6875,-0.19996,0.24627,0.97696
297.287,35.75456,-0.20003,0.2494,0.97671
297.987,35.82182,-0.2025,0.24811,0.97645
298.687,35.88905,-0.20397,0.24995,0.9762
299.387,35.95627,-0.20434,0.24892,0.97594
300.087,36.02324,-0.20558,0.24848,0.97568
300.787,36.09021,-0.20694,0.24907,0.97543
301.487,36.15718,-0.20826,0.24924,0.97517
302.187,36.2243,-0.20873,0.24864,0.97491
302.887,36.29162,-0.20957,0.25025,0.97465
303.587,36.35892,-0.21088,0.24943,0.97439
304.287,36.42615,-0.21221,0.24808,0.97412
304.987,36.49313,-0.21221,0.24804,0.97386
305.687,36.56038,-0.21354,0.24994,0.9736
306.387,36.62769,-0.21604,0.25064,0.97333
307.087,36.69513,-0.21479,0.24991,0.97307
307.787,36.76251,-0.21767,0.25011,0.9728
308.487,36.82979,-0.22021,0.24975,0.97253
309.187,36.89716,-0.22014,0.24997,0.97227
309.887,36.9645,-0.22155,0.25142,0.972
310.587,37.03168,-0.22286,0.25121,0.97173
311.287,37.09919,-0.22429,0.25234,0.97146
311.987,37.1667,-0.22707,0.25096,0.97119
312.687,37.2345,-0.22961,0.25326,0.97092
313.387,37.3018,-0.22967,0.25302,0.97064
314.087,37.36914,-0.23099,0.25538,0.97037
314.787,37.43651,-0.23502,0.2544,0.97009
315.487,37.50395,-0.23637,0.25474,0.96982
316.187,37.5715,-0.23654,0.25774,0.96954
316.887,37.63864,-0.2377,0.25432,0.96927
317.587,37.7061,-0.23899,0.25724,0.96899
318.287,37.77367,-0.24167,0.25714,0.96871
318.987,37.84149,-0.24303,0.25663,0.96843
319.687,37.9091,-0.24295,0.25834,0.96815
320.387,37.97638,-0.2429,0.25696,0.96787
321.087,38.04401,-0.24551,0.2578,0.96759
321.787,38.1117,-0.24549,0.26064,0.9673
322.487,38.17933,-0.2469,0.2616,0.96702
323.187,38.24675,-0.2501,0.26206,0.96674
323.887,38.31411,-0.25228,0.26089,0.96645
324.587,38.38172,-0.25227,0.26307,0.96617
325.287,38.44938,-0.2536,0.26171,0.96588
325.987,38.51692,-0.25494,0.26237,0.96559
326.687,38.5845,-0.25633,0.26324,0.9653
327.387,38.65191,-0.25881,0.2656,0.96501
328.087,38.71948,-0.2615,0.2674,0.96472
328.787,38.78715,-0.26279,0.26602,0.96443
329.487,38.85467,-0.26518,0.26753,0.96414
330.187,38.92198,-0.26652,0.26787,0.96385
330.887,38.98946,-0.26941,0.2703,0.96355
331.587,39.0569,-0.2718,0.27015,0.96326
332.287,39.12467,-0.27264,0.27099,0.96296
332.987,39.19227,-0.27392,0.2691,0.96267
333.687,39.26016,-0.27664,0.27144,0.96237
334.387,39.32796,-0.27906,0.26982,0.96207
335.087,39.39573,-0.28154,0.27215,0.96177
335.787,39.4632,-0.28307,0.27295,0.96147
336.487,39.5306,-0.28434,0.27404,0.96117
337.187,39.59807,-0.28564,0.27449,0.96087
337.887,39.6655,-0.28713,0.27658,0.96057
338.587,39.7329,-0.29017,0.27595,0.96027
339.287,39.80048,-0.2931,0.27646,0.95996
339.987,39.86837,-0.29631,0.27716,0.95966
340.687,39.93628,-0.29813,0.2789,0.95935
341.387,40.00399,-0.30328,0.28068,0.95905
342.087,40.07163,-0.30499,0.28033,0.95874
342.787,40.1392,-0.30717,0.2821,0.95843
343.487,40.20667,-0.30783,0.28496,0.95812
344.187,40.27413,-0.30913,0.28393,0.95781
344.887,40.3412,-0.31265,0.2871,0.9575
345.587,40.40874,-0.31626,0.28807,0.95719
346.287,40.47652,-0.31901,0.29009,0.95688
346.987,40.54465,-0.32183,0.29075,0.95656
347.687,40.61244,-0.32402,0.29234,0.95625
348.387,40.68008,-0.32664,0.29423,0.95593
349.087,40.74777,-0.33081,0.29337,0.95562
349.787,40.8155,-0.33518,0.29545,0.9553
350.487,40.88302,-0.33672,0.29751,0.95498
351.187,40.9505,-0.33935,0.29853,0.95466
351.887,41.01813,-0.34271,0.30064,0.95434
352.587,41.0858,-0.34456,0.30101,0.95402
353.287,41.15345,-0.34676,0.30305,0.9537
353.987,41.22047,-0.35245,0.30329,0.95338
354.687,41.2881,-0.35508,0.30464,0.95306
355.387,41.35577,-0.35818,0.30688,0.95273
356.087,41.42403,-0.36134,0.30964,0.95241
356.787,41.4916,-0.36447,0.31225,0.95208
357.487,41.55918,-0.36712,0.31321,0.95175
358.187,41.6269,-0.37234,0.3131,0.95143
358.887,41.6947,-0.37529,0.31591,0.9511
359.587,41.76243,-0.37727,0.31761,0.95077
360.287,41.83012,-0.38072,0.31918,0.95044
360.987,41.89795,-0.38649,0.32052,0.95011
361.687,41.9656,-0.39053,0.32209,0.94978
362.387,42.03333,-0.39566,0.32482,0.94944
363.087,42.10116,-0.40015,0.32577,0.94911
363.787,42.1693,-0.404,0.32672,0.94877
364.487,42.23734,-0.40818,0.33021,0.94844
365.187,42.3053,-0.41222,0.33133,0.9481
365.887,42.37342,-0.41707,0.33341,0.94776
366.587,42.44141,-0.42122,0.3365,0.94743
367.287,42.50928,-0.42762,0.33858,0.94709
367.987,42.57697,-0.4332,0.34044,0.94675
368.687,42.64484,-0.43872,0.34393,0.94641
369.387,42.7126,-0.44372,0.34578,0.94606
370.087,42.78051,-0.44838,0.3499,0.94572
370.787,42.848,-0.4533,0.35505,0.94538
371.487,42.9161,-0.45936,0.35838,0.94503
372.187,42.984,-0.46491,0.3586,0.94469
372.887,43.05229,-0.4718,0.36089,0.94434
373.587,43.1203,-0.47617,0.36404,0.94399
374.287,43.1883,-0.48044,0.3674,0.94365
374.987,43.25631,-0.48755,0.37196,0.9433
375.687,43.3243,-0.49547,0.37537,0.94295
376.387,43.3923,-0.50174,0.37858,0.9426
377.087,43.4604,-0.508,0.38361,0.94224
377.787,43.52856,-0.51427,0.38689,0.94189
378.487,43.59672,-0.52147,0.39235,0.94154
379.187,43.66452,-0.52888,0.39872,0.94118
379.887,43.73223,-0.53563,0.40137,0.94083
380.587,43.8003,-0.54295,0.40535,0.94047
381.287,43.86853,-0.54939,0.40977,0.94012
381.987,43.9368,-0.56032,0.41667,0.93976
382.687,44.00503,-0.56905,0.42083,0.9394
383.387,44.0732,-0.57632,0.42584,0.93904
384.087,44.14119,-0.58626,0.4313,0.93868
384.787,44.20912,-0.59633,0.43854,0.93832
385.487,44.27708,-0.60454,0.44604,0.93795
386.187,44.34531,-0.61282,0.45135,0.93759
386.887,44.41359,-0.62237,0.45681,0.93723
387.587,44.48196,-0.63159,0.46316,0.93686
388.287,44.55004,-0.64087,0.46829,0.93649
388.987,44.6181,-0.65298,0.47586,0.93613
389.687,44.68626,-0.66458,0.48297,0.93576
390.387,44.75419,-0.67546,0.48883,0.93539
391.087,44.8224,-0.68564,0.49521,0.93502
391.787,44.8907,-0.69877,0.50421,0.93465
392.487,44.95917,-0.7115,0.51309,0.93428
393.187,45.02735,-0.72373,0.51748,0.9339
393.887,45.0955,-0.73561,0.524,0.93353
394.587,45.16367,-0.7497,0.53017,0.93316
395.287,45.2319,-0.76317,0.53869,0.93278
395.987,45.30015,-0.77578,0.54349,0.9324
396.687,45.36851,-0.79156,0.55156,0.93203
397.387,45.43694,-0.80688,0.55793,0.93165
398.087,45.5053,-0.82174,0.56592,0.93127
398.787,45.57363,-0.83583,0.57325,0.93089
399.487,45.64205,-0.85255,0.57941,0.93051
400.187,45.71031,-0.86878,0.58348,0.93013
400.887,45.7783,-0.88516,0.59128,0.92974
401.587,45.8463,-0.90119,0.59674,0.92936
402.287,45.9146,-0.91823,0.60352,0.92898
402.987,45.9829,-0.93647,0.608,0.92859
403.687,46.05137,-0.95428,0.6123,0.9282
404.387,46.1195,-0.97278,0.61667,0.92782
405.087,46.1879,-0.99216,0.62073,0.92743
405.787,46.2559,-1.01195,0.62308,0.92704
406.487,46.32434,-1.03041,0.62824,0.92665
407.187,46.3927,-1.04958,0.62871,0.92626
407.887,46.4611,-1.06829,0.62891,0.92586
408.587,46.5293,-1.08735,0.62892,0.92547
409.287,46.59773,-1.10761,0.62905,0.92508
409.987,46.66597,-1.12883,0.62886,0.92468
410.687,46.73408,-1.14979,0.62502,0.92429
411.387,46.80229,-1.16844,0.62389,0.92389
412.087,46.87043,-1.18922,0.61967,0.92349
412.787,46.93872,-1.20889,0.61589,0.92309
413.487,47.0069,-1.22675,0.60913,0.92269
414.187,47.07527,-1.24802,0.6016,0.92229
414.887,47.1438,-1.26916,0.59235,0.92189
415.587,47.21222,-1.29023,0.58375,0.92149
416.287,47.28051,-1.3102,0.57519,0.92109
416.987,47.34868,-1.33013,0.56228,0.92068
417.687,47.4171,-1.35085,0.5536,0.92028
418.387,47.48547,-1.37037,0.54216,0.91987
419.087,47.55384,-1.38848,0.52688,0.91947
419.787,47.622,-1.40656,0.5167,0.91906
420.487,47.69027,-1.42434,0.50352,0.91865
421.187,47.75858,-1.44373,0.48842,0.91824
421.887,47.8269,-1.46135,0.47457,0.91783
422.587,47.8949,-1.47713,0.45874,0.91742
423.287,47.96306,-1.49359,0.4448,0.917
423.987,48.03127,-1.50964,0.4311,0.91659
424.687,48.09956,-1.52474,0.41564,0.91618
425.387,48.1678,-1.53935,0.40162,0.91576
426.087,48.23604,-1.55359,0.38511,0.91534
426.787,48.30435,-1.56705,0.37102,0.91493
427.487,48.37252,-1.58217,0.35883,0.91451
428.187,48.44097,-1.59609,0.34175,0.91409
428.887,48.50938,-1.60759,0.32725,0.91367
429.587,48.5777,-1.61926,0.3119,0.91325
430.287,48.64594,-1.62976,0.30162,0.91283
430.987,48.71415,-1.63818,0.28699,0.9124
431.687,48.78245,-1.64751,0.27253,0.91198
432.387,48.8506,-1.6559,0.26337,0.91156
433.087,48.91896,-1.66506,0.2523,0.91113
433.787,48.98717,-1.67254,0.24048,0.9107
434.487,49.0556,-1.68119,0.22668,0.91028
435.187,49.12401,-1.68637,0.21772,0.90985
435.887,49.19249,-1.69431,0.20729,0.90942
436.587,49.2609,-1.69983,0.19783,0.90899
437.287,49.3294,-1.70484,0.18981,0.90856
437.987,49.39796,-1.70945,0.18254,0.90813
438.687,49.46651,-1.71321,0.1751,0.90769
439.387,49.5349,-1.71774,0.16776,0.90726
440.087,49.60334,-1.72122,0.15978,0.90682
440.787,49.6718,-1.72545,0.1558,0.90639
441.487,49.74046,-1.72839,0.15065,0.90595
442.187,49.80883,-1.72985,0.14638,0.90551
442.887,49.8775,-1.7312,0.13769,0.90507
443.587,49.94604,-1.73462,0.13562,0.90463
444.287,50.0146,-1.73581,0.13087,0.90419
444.987,50.08302,-1.7378,0.12571,0.90375
445.687,50.1514,-1.74137,0.12389,0.90331
446.387,50.21999,-1.74324,0.12254,0.90287
447.087,50.28839,-1.74456,0.11895,0.90242
447.787,50.35693,-1.74592,0.11749,0.90198
448.487,50.42557,-1.74583,0.11546,0.90153
449.187,50.49429,-1.74806,0.1128,0.90108
449.887,50.5629,-1.74972,0.11221,0.90064
450.587,50.63134,-1.75091,0.11168,0.90019
451.287,50.6999,-1.75213,0.10925,0.89974
451.987,50.76848,-1.75079,0.10722,0.89929
452.687,50.83724,-1.75098,0.10548,0.89883
453.387,50.90587,-1.75213,0.10475,0.89838
454.087,50.9747,-1.75244,0.10402,0.89793
454.787,51.0435,-1.75344,0.10034,0.89747
455.487,51.11238,-1.75477,0.10297,0.89702
456.187,51.1811,-1.75654,0.102,0.89656
456.887,51.24989,-1.75741,0.1003,0.8961
457.587,51.31845,-1.75736,0.09934506,0.89565
458.287,51.38745,-1.75872,0.0980775,0.89519
458.987,51.4561,-1.75872,0.09752046,0.89473
459.687,51.52494,-1.75983,0.09760117,0.89426
460.387,51.59357,-1.76004,0.09713869,0.8938
461.087,51.6624,-1.76109,0.09716996,0.89334
461.787,51.73103,-1.76004,0.09473948,0.89288
462.487,51.79971,-1.76205,0.09730555,0.89241
463.187,51.86862,-1.76266,0.09688205,0.89194
463.887,51.93748,-1.76267,0.0965711,0.89148
464.587,52.00622,-1.76281,0.09551594,0.89101
465.287,52.0749,-1.76398,0.09519765,0.89054
465.987,52.14389,-1.76531,0.09594071,0.89007
466.687,52.21281,-1.76563,0.09491375,0.8896
467.387,52.2817,-1.76694,0.09358927,0.88913
468.087,52.35046,-1.76695,0.0935991,0.88866
468.787,52.41939,-1.76696,0.09322006,0.88818
469.487,52.4885,-1.76659,0.09496456,0.88771
470.187,52.55758,-1.76795,0.09540633,0.88723
470.887,52.62655,-1.76999,0.09532336,0.88676
471.587,52.69546,-1.77063,0.09676696,0.88628
472.287,52.7645,-1.76927,0.096652,0.8858
472.987,52.83328,-1.77058,0.09528686,0.88532
473.687,52.90203,-1.77058,0.09621942,0.88484
474.387,52.9705,-1.77195,0.09449757,0.88436
475.087,53.0396,-1.77189,0.09602904,0.88388
475.787,53.1088,-1.7732,0.09479127,0.8834
476.487,53.17815,-1.77321,0.09383317,0.88292
477.187,53.24737,-1.77453,0.09186284,0.88243
477.887,53.31641,-1.77453,0.09155151,0.88195
478.587,53.38567,-1.77452,0.09407845,0.88146
479.287,53.45457,-1.77331,0.09358945,0.88097
479.987,53.5236,-1.77318,0.09354805,0.88048
480.687,53.5927,-1.77453,0.09301427,0.87999
481.387,53.662,-1.77591,0.09146596,0.8795
482.087,53.7312,-1.77716,0.09253197,0.87901
482.787,53.80049,-1.77717,0.09183919,0.87852
483.487,53.8697,-1.77848,0.0916636,0.87803
484.187,53.9391,-1.77848,0.09217384,0.87753
484.887,54.00829,-1.7798,0.08894735,0.87704
485.587,54.0777,-1.77847,0.08915778,0.87654
486.287,54.147,-1.77981,0.08735593,0.87605
486.987,54.21623,-1.7798,0.08972179,0.87555
487.687,54.28538,-1.78126,0.0875154,0.87505
488.387,54.35479,-1.78113,0.08681354,0.87455
489.087,54.42417,-1.78107,0.08653658,0.87405
489.787,54.49361,-1.78244,0.08794274,0.87355
490.487,54.5631,-1.78364,0.08555147,0.87305
491.187,54.6323,-1.78244,0.08545344,0.87255
491.887,54.7017,-1.78108,0.08634097,0.87204
492.587,54.77081,-1.78497,0.08483112,0.87154
493.287,54.8404,-1.78588,0.08676261,0.87103
493.987,54.90979,-1.78584,0.08567864,0.87052
494.687,54.9791,-1.78519,0.08352719,0.87002
495.387,55.04837,-1.78584,0.08253128,0.86951
496.087,55.1175,-1.78715,0.0818856,0.869
496.787,55.1868,-1.78707,0.08298023,0.86849
497.487,55.2559,-1.78849,0.08013331,0.86798
498.187,55.3252,-1.79111,0.07969824,0.86746
498.887,55.3943,-1.78985,0.0774903,0.86695
499.587,55.4635,-1.79133,0.07582394,0.86644
500.287,55.53259,-1.79243,0.07756243,0.86592
500.987,55.60162,-1.79243,0.07552985,0.86541
501.687,55.6706,-1.79243,0.0761456,0.86489
502.387,55.73964,-1.79375,0.07452152,0.86437
503.087,55.80865,-1.79375,0.07437499,0.86385
503.787,55.8778,-1.79507,0.07618271,0.86333
504.487,55.94679,-1.79524,0.07447756,0.86281
505.187,56.0158,-1.79509,0.0737415,0.86229
505.887,56.0848,-1.79771,0.07354791,0.86177
506.587,56.15381,-1.79638,0.07142576,0.86124
507.287,56.2228,-1.79605,0.07240771,0.86072
507.987,56.29181,-1.79519,0.06981811,0.8602
508.687,56.3607,-1.79506,0.07213269,0.85967
509.387,56.42965,-1.79506,0.07095031,0.85914
510.087,56.49879,-1.79506,0.06904134,0.85861
510.787,56.56805,-1.79695,0.06909856,0.85809
511.487,56.6372,-1.79901,0.06758415,0.85756
512.187,56.7061,-1.7977,0.0677563,0.85703
512.887,56.77508,-1.7971,0.06980718,0.85649
513.587,56.84414,-1.79673,0.0666648,0.85596
514.287,56.9132,-1.79802,0.06681737,0.85543
514.987,56.98229,-1.79894,0.06679006,0.85489
515.687,57.0515,-1.79936,0.06833529,0.85436
516.387,57.12078,-1.80067,0.06385431,0.85382
517.087,57.1899,-1.80198,0.06464226,0.85329
517.787,57.2589,-1.80198,0.0645883,0.85275
518.487,57.328,-1.80198,0.06442163,0.85221
519.187,57.3971,-1.80198,0.06527528,0.85167
519.887,57.46626,-1.80328,0.06436435,0.85113
520.587,57.5353,-1.80193,0.06303861,0.85059
521.287,57.60445,-1.80418,0.06434946,0.85005
521.987,57.67361,-1.80461,0.06297441,0.8495
522.687,57.7429,-1.80461,0.06425634,0.84896
523.387,57.8125,-1.80414,0.06424563,0.84841
524.087,57.88204,-1.80395,0.06515632,0.84787
524.787,57.9515,-1.80395,0.06481427,0.84732
525.487,58.02044,-1.80527,0.06484223,0.84677
526.187,58.08936,-1.80527,0.0693919,0.84622
526.887,58.1585,-1.80625,0.07660946,0.84567
527.587,58.22781,-1.8056,0.07905012,0.84512
528.287,58.29733,-1.8043,0.083365,0.84457
528.987,58.3666,-1.80429,0.08605639,0.84402
529.687,58.43606,-1.80461,0.08707843,0.84347
530.387,58.50524,-1.80631,0.08587336,0.84291
531.087,58.5749,-1.80692,0.08583195,0.84236
531.787,58.64435,-1.80689,0.08645286,0.8418
532.487,58.7139,-1.80759,0.08621835,0.84125
533.187,58.78295,-1.80856,0.08621215,0.84069
533.887,58.85219,-1.80832,0.08613704,0.84013
534.587,58.92136,-1.80714,0.08734734,0.83957
535.287,58.99096,-1.80714,0.08871295,0.83901
535.987,59.0602,-1.80712,0.08843529,0.83845
536.687,59.1296,-1.80846,0.08925215,0.83789
537.387,59.19865,-1.80846,0.09037844,0.83732
538.087,59.2678,-1.80846,0.09045392,0.83676
538.787,59.33675,-1.80975,0.09271824,0.8362
539.487,59.406,-1.80977,0.09290583,0.83563
540.187,59.4753,-1.80846,0.09115959,0.83506
540.887,59.5449,-1.80846,0.0884651,0.8345
541.587,59.61396,-1.80977,0.08864459,0.83393
542.287,59.68319,-1.80827,0.08817996,0.83336
542.987,59.7523,-1.8078,0.08811776,0.83279
543.687,59.82179,-1.8078,0.08463668,0.83222
544.387,59.89111,-1.80794,0.08064716,0.83165
545.087,59.96054,-1.80911,0.07550713,0.83108
545.787,60.02992,-1.81079,0.0713131,0.8305
546.487,60.09944,-1.81109,0.06631573,0.82993
547.187,60.169,-1.80978,0.06274041,0.82935
547.887,60.23848,-1.80978,0.05704549,0.82878
548.587,60.30774,-1.81207,0.0556364,0.8282
549.287,60.377,-1.81255,0.05432706,0.82762
549.987,60.4464,-1.81344,0.0532079,0.82704
550.687,60.516,-1.81109,0.05088814,0.82646
551.387,60.58562,-1.81109,0.05102858,0.82588
552.087,60.65521,-1.81201,0.05027809,0.8253
552.787,60.7248,-1.81373,0.04787867,0.82472
553.487,60.79452,-1.81241,0.04971741,0.82414
554.187,60.864,-1.81241,0.04980647,0.82355
554.887,60.9335,-1.81241,0.046626,0.82297
555.587,61.003,-1.81241,0.04632034,0.82238
556.287,61.0724,-1.81314,0.04594539,0.8218
556.987,61.1418,-1.81307,0.04583537,0.82121
557.687,61.21139,-1.81307,0.04713596,0.82062
558.387,61.28141,-1.81373,0.04561677,0.82003
559.087,61.35115,-1.81233,0.04422185,0.81944
559.787,61.42089,-1.81373,0.04573448,0.81885
560.487,61.49055,-1.81368,0.04540673,0.81826
561.187,61.56038,-1.81241,0.04645998,0.81767
561.887,61.6301,-1.81241,0.04514001,0.81708
562.587,61.6996,-1.81241,0.04425659,0.81648
563.287,61.769,-1.81241,0.04382995,0.81589
563.987,61.8385,-1.81244,0.0433522,0.81529
564.687,61.90805,-1.81238,0.04494155,0.81469
565.387,61.97765,-1.81372,0.04632988,0.8141
566.087,62.04719,-1.81372,0.04252053,0.8135
566.787,62.11699,-1.81372,0.04106824,0.8129
567.487,62.18656,-1.81372,0.04322069,0.8123
568.187,62.2562,-1.81372,0.04128457,0.8117
568.887,62.3258,-1.81372,0.04105976,0.8111
569.587,62.3955,-1.81372,0.04304874,0.8105
570.287,62.46512,-1.81369,0.04031354,0.80989
570.987,62.5347,-1.81325,0.03950733,0.80929
571.687,62.604,-1.81405,0.03850119,0.80868
572.387,62.6735,-1.81532,0.04003605,0.80808
573.087,62.74296,-1.81668,0.03808605,0.80747
573.787,62.8125,-1.81669,0.03942998,0.80686
574.487,62.8821,-1.81673,0.03927724,0.80626
575.187,62.9519,-1.8157,0.03955524,0.80565
575.887,63.0214,-1.81572,0.04045507,0.80504
576.587,63.09109,-1.81832,0.04144804,0.80443
577.287,63.1607,-1.81836,0.04529096,0.80381
577.987,63.2306,-1.81768,0.04405776,0.8032
578.687,63.3004,-1.81633,0.04121304,0.80259
579.387,63.37016,-1.81505,0.04330141,0.80197
580.087,63.4398,-1.81636,0.04348929,0.80136
580.787,63.50942,-1.8179,0.04250965,0.80074
581.487,63.57911,-1.8179,0.04468946,0.80013
582.187,63.64897,-1.81658,0.0454396,0.79951
582.887,63.71906,-1.81593,0.04618698,0.79889
583.587,63.789,-1.81526,0.04790344,0.79827
584.287,63.85904,-1.81526,0.04843098,0.79765
584.987,63.92865,-1.81788,0.04750432,0.79703
585.687,63.9984,-1.81922,0.05036033,0.79641
586.387,64.068,-1.81922,0.04785537,0.79579
587.087,64.13789,-1.82053,0.04924492,0.79517
587.787,64.20761,-1.82185,0.0503193,0.79454
588.487,64.27754,-1.82105,0.05454911,0.79392
589.187,64.34747,-1.82053,0.05617916,0.79329
589.887,64.41739,-1.81989,0.05598813,0.79267
590.587,64.48706,-1.81922,0.05615135,0.79204
591.287,64.55677,-1.81924,0.05647444,0.79141
591.987,64.62653,-1.82053,0.05760054,0.79078
592.687,64.69624,-1.82183,0.0583661,0.79016
593.387,64.7661,-1.82178,0.06079927,0.78953
594.087,64.83598,-1.82251,0.06464863,0.78889
594.787,64.9055,-1.82316,0.06292827,0.78826
595.487,64.97524,-1.82219,0.06669576,0.78763
596.187,65.04507,-1.82217,0.06566993,0.787
596.887,65.11525,-1.82186,0.06798679,0.78636
597.587,65.18519,-1.82317,0.06819853,0.78573
598.287,65.2552,-1.82317,0.07121452,0.78509
598.987,65.32525,-1.82449,0.07160726,0.78446
599.687,65.39485,-1.8235,0.07086684,0.78382
600.387,65.46429,-1.82475,0.07486846,0.78318
601.087,65.53406,-1.82481,0.078301,0.78254
601.787,65.60386,-1.82412,0.07647492,0.7819
602.487,65.6737,-1.82415,0.07744501,0.78126
603.187,65.74343,-1.82414,0.07965788,0.78062
603.887,65.81336,-1.82374,0.08115566,0.77998
604.587,65.88343,-1.82382,0.08383909,0.77934
605.287,65.95323,-1.82384,0.08443031,0.77869
605.987,66.02305,-1.82646,0.08663474,0.77805
606.687,66.09295,-1.82719,0.08815309,0.7774
607.387,66.16292,-1.82645,0.08896083,0.77676
608.087,66.2329,-1.82646,0.09250411,0.77611
608.787,66.30269,-1.82646,0.09387616,0.77547
609.487,66.37258,-1.82662,0.09701433,0.77482
610.187,66.44246,-1.82827,0.10109,0.77417
610.887,66.5125,-1.83008,0.10263,0.77352
611.587,66.58253,-1.83008,0.10428,0.77287
612.287,66.6526,-1.83147,0.10594,0.77222
612.987,66.72273,-1.83138,0.10884,0.77157
613.687,66.79294,-1.8314,0.10967,0.77091
614.387,66.86307,-1.8314,0.11329,0.77026
615.087,66.93316,-1.8314,0.11648,0.76961
615.787,67.00324,-1.83139,0.11916,0.76895
616.487,67.0732,-1.83272,0.11907,0.7683
617.187,67.14321,-1.8338,0.12291,0.76764
617.887,67.21314,-1.83437,0.12402,0.76698
618.587,67.28316,-1.83437,0.12784,0.76633
619.287,67.35314,-1.83437,0.13098,0.76567
619.987,67.42318,-1.83535,0.13304,0.76501
620.687,67.4932,-1.83588,0.13694,0.76435
621.387,67.5631,-1.83558,0.13925,0.76369
622.087,67.633,-1.83673,0.1452,0.76303
622.787,67.7031,-1.83799,0.14576,0.76236
623.487,67.773,-1.83666,0.14663,0.7617
624.187,67.84284,-1.83669,0.15076,0.76104
624.887,67.91284,-1.83792,0.15362,0.76037
625.587,67.98295,-1.84148,0.15822,0.75971
626.287,68.05287,-1.84161,0.16011,0.75904
626.987,68.12273,-1.84161,0.16483,0.75838
627.687,68.1927,-1.84303,0.16596,0.75771
628.387,68.263,-1.84424,0.16903,0.75704
629.087,68.33289,-1.84457,0.17334,0.75637
629.787,68.4027,-1.84561,0.17772,0.7557
630.487,68.4726,-1.84689,0.18048,0.75503
631.187,68.54261,-1.84555,0.18264,0.75436
631.887,68.61251,-1.84687,0.18849,0.75369
632.587,68.6824,-1.84835,0.19157,0.75302
633.287,68.7522,-1.85083,0.19653,0.75235
633.987,68.82178,-1.85083,0.20017,0.75167
634.687,68.89135,-1.85139,0.2061,0.751
635.387,68.96091,-1.85357,0.2089,0.75032
636.087,69.03067,-1.85489,0.21407,0.74965
636.787,69.1004,-1.85489,0.22171,0.74897
637.487,69.1701,-1.85692,0.22566,0.74829
638.187,69.23986,-1.85686,0.23047,0.74762
638.887,69.30976,-1.85857,0.23425,0.74694
639.587,69.37976,-1.86085,0.2373,0.74626
640.287,69.44969,-1.86082,0.24134,0.74558
640.987,69.51942,-1.86082,0.24673,0.7449
641.687,69.5891,-1.86214,0.25359,0.74422
642.387,69.65908,-1.86345,0.2546,0.74354
643.087,69.72918,-1.86609,0.26204,0.74285
643.787,69.79921,-1.86807,0.26615,0.74217
644.487,69.86871,-1.86938,0.27792,0.74149
645.187,69.93857,-1.86999,0.27928,0.7408
645.887,70.00851,-1.87202,0.28833,0.74012
646.587,70.07866,-1.87335,0.29496,0.73943
647.287,70.14803,-1.87328,0.29702,0.73874
647.987,70.2178,-1.8752,0.30569,0.73806
648.687,70.2876,-1.87602,0.30967,0.73737
649.387,70.3579,-1.87865,0.31908,0.73668
650.087,70.42774,-1.88003,0.32594,0.73599
650.787,70.4978,-1.88169,0.33218,0.7353
651.487,70.56778,-1.88322,0.33888,0.73461
652.187,70.63785,-1.88567,0.34437,0.73392
652.887,70.70781,-1.88837,0.35163,0.73323
653.587,70.77753,-1.8897,0.3568,0.73253
654.287,70.84765,-1.89097,0.36603,0.73184
654.987,70.91759,-1.89392,0.37152,0.73115
655.687,70.98784,-1.89536,0.37744,0.73045
656.387,71.0578,-1.89684,0.38686,0.72976
657.087,71.12807,-1.89678,0.39656,0.72906
657.787,71.19838,-1.89948,0.40445,0.72836
658.487,71.26859,-1.90087,0.4143,0.72767
659.187,71.33877,-1.90219,0.42242,0.72697
659.887,71.40892,-1.90363,0.43092,0.72627
660.587,71.47922,-1.90781,0.43932,0.72557
661.287,71.54942,-1.91046,0.45087,0.72487
661.987,71.6197,-1.91175,0.46055,0.72417
662.687,71.68979,-1.91332,0.46846,0.72347
663.387,71.76003,-1.91494,0.47941,0.72277
664.087,71.83009,-1.91624,0.48615,0.72207
664.787,71.9003,-1.92062,0.50005,0.72137
665.487,71.9704,-1.9234,0.50662,0.72066
666.187,72.0406,-1.92609,0.51827,0.71996
666.887,72.1109,-1.92748,0.52934,0.71925
667.587,72.1811,-1.93036,0.53987,0.71855
668.287,72.25135,-1.93198,0.54749,0.71784
668.987,72.3215,-1.93487,0.55994,0.71714
669.687,72.39164,-1.9367,0.56923,0.71643
670.387,72.4619,-1.93987,0.57921,0.71572
671.087,72.53222,-1.94367,0.59296,0.71501
671.787,72.60251,-1.94751,0.6062,0.7143
672.487,72.67273,-1.94963,0.61814,0.71359
673.187,72.7428,-1.95267,0.63007,0.71288
673.887,72.8128,-1.95545,0.64364,0.71217
674.587,72.88286,-1.95826,0.6553,0.71146
675.287,72.95275,-1.96141,0.66667,0.71075
675.987,73.02283,-1.96427,0.68169,0.71004
676.687,73.09265,-1.96768,0.69257,0.70932
677.387,73.16281,-1.971,0.70725,0.70861
678.087,73.23292,-1.97406,0.71894,0.7079
678.787,73.303,-1.9773,0.73771,0.70718
679.487,73.37292,-1.98104,0.7497,0.70647
680.187,73.4427,-1.98582,0.76401,0.70575
680.887,73.51275,-1.98953,0.78237,0.70503
681.587,73.58235,-1.99145,0.79378,0.70432
682.287,73.65231,-1.99558,0.80905,0.7036
682.987,73.72204,-1.99899,0.82292,0.70288
683.687,73.79209,-2.00406,0.8402,0.70216
684.387,73.8618,-2.0077,0.85461,0.70144
685.087,73.9314,-2.01205,0.8701,0.70072
685.787,74.00129,-2.01559,0.88718,0.7
686.487,74.07119,-2.01896,0.90382,0.69928
687.187,74.1413,-2.02407,0.92125,0.69856
687.887,74.21099,-2.02724,0.94143,0.69783
688.587,74.2807,-2.03267,0.95889,0.69711
689.287,74.35069,-2.03747,0.97736,0.69639
689.987,74.42086,-2.04192,0.99571,0.69566
690.687,74.491,-2.04633,1.00929,0.69494
691.387,74.56102,-2.05183,1.02658,0.69421
692.087,74.63112,-2.05688,1.04123,0.69349
692.787,74.70138,-2.06093,1.05734,0.69276
693.487,74.77154,-2.06366,1.07382,0.69204
694.187,74.84111,-2.06875,1.08765,0.69131
694.887,74.91102,-2.07296,1.1034,0.69058
695.587,74.98124,-2.07892,1.1233,0.68985
696.287,75.05192,-2.08688,1.1456,0.68912
696.987,75.12207,-2.09097,1.15752,0.68839
697.687,75.19185,-2.0968,1.17907,0.68766
698.387,75.26191,-2.1027,1.19858,0.68693
699.087,75.33229,-2.10746,1.21541,0.6862
699.787,75.40254,-2.11143,1.23258,0.68547
700.487,75.47276,-2.11768,1.2544,0.68474
701.187,75.54271,-2.12324,1.26586,0.68401
701.887,75.61279,-2.12896,1.28599,0.68327
702.587,75.68271,-2.13419,1.30202,0.68254
703.287,75.75256,-2.14022,1.32349,0.68181
703.987,75.82261,-2.14753,1.33967,0.68107
704.687,75.8926,-2.15324,1.35558,0.68034
705.387,75.9626,-2.1597,1.37342,0.6796
706.087,76.03273,-2.16513,1.39171,0.67887
706.787,76.1028,-2.17085,1.40708,0.67813
707.487,76.17296,-2.17795,1.42749,0.67739
708.187,76.24294,-2.18405,1.44299,0.67665
708.887,76.31295,-2.19083,1.46021,0.67592
709.587,76.38299,-2.19769,1.47757,0.67518
710.287,76.45319,-2.20433,1.49304,0.67444
710.987,76.52338,-2.21182,1.50942,0.6737
711.687,76.59347,-2.21957,1.52523,0.67296
712.387,76.66345,-2.22633,1.54008,0.67222
713.087,76.7334,-2.23257,1.55292,0.67148
713.787,76.8036,-2.23865,1.56847,0.67074
714.487,76.87379,-2.24663,1.5817,0.66999
715.187,76.94404,-2.25403,1.59512,0.66925
715.887,77.01393,-2.26121,1.60537,0.66851
716.587,77.0835,-2.2684,1.61914,0.66776
717.287,77.15352,-2.27625,1.63261,0.66702
717.987,77.2242,-2.28398,1.64209,0.66628
718.687,77.2952,-2.29402,1.64922,0.66553
719.387,77.36577,-2.30184,1.65891,0.66479
720.087,77.43553,-2.30845,1.66431,0.66404
720.787,77.50595,-2.31485,1.67231,0.66329
721.487,77.57644,-2.32075,1.67525,0.66255
722.187,77.64734,-2.32871,1.67811,0.6618
722.887,77.71767,-2.33639,1.67791,0.66105
723.587,77.78796,-2.34383,1.6802,0.6603
724.287,77.8583,-2.35071,1.67607,0.65956
724.987,77.92863,-2.35827,1.67239,0.65881
725.687,77.9991,-2.36779,1.66732,0.65806
726.387,78.0694,-2.3744,1.65897,0.65731
727.087,78.13943,-2.38188,1.64194,0.65656
727.787,78.20943,-2.38726,1.62957,0.65581
728.487,78.2799,-2.39542,1.60849,0.65506
729.187,78.35077,-2.40236,1.59109,0.6543
729.887,78.42143,-2.41233,1.56677,0.65355
730.587,78.49178,-2.41866,1.53885,0.6528
731.287,78.562,-2.42491,1.50289,0.65205
731.987,78.6323,-2.43241,1.47208,0.65129
732.687,78.7024,-2.43831,1.426,0.65054
733.387,78.77253,-2.44454,1.3741,0.64979
734.087,78.84272,-2.45133,1.31406,0.64903
734.787,78.91265,-2.45658,1.24502,0.64828
735.487,78.98258,-2.46164,1.17114,0.64752
736.187,79.0526,-2.46702,1.07816,0.64677
736.887,79.1228,-2.47081,0.97416,0.64601
737.587,79.1929,-2.47525,0.8591,0.64525
738.287,79.26257,-2.47964,0.73331,0.6445
738.987,79.33184,-2.48259,0.59987,0.64374
739.687,79.4013,-2.48673,0.46885,0.64298
740.387,79.471,-2.48875,0.35232,0.64222
741.087,79.54128,-2.48966,0.24904,0.64146
741.787,79.6113,-2.49101,0.1643,0.64071
742.487,79.68129,-2.49097,0.09737321,0.63995
743.187,79.75112,-2.49215,0.04435942,0.63919
743.887,79.821,-2.49295,0.01151215,0.63843
744.587,79.8912,-2.49281,-0.0167668,0.63767
745.287,79.96135,-2.49361,-0.03715057,0.6369
745.987,80.03175,-2.49396,-0.05534616,0.63614
746.687,80.1018,-2.49427,-0.06900258,0.63538
747.387,80.17206,-2.49558,-0.07613503,0.63462
748.087,80.24243,-2.49631,-0.08316306,0.63386
748.787,80.3131,-2.49715,-0.08841162,0.6331
749.487,80.3838,-2.49764,-0.09253153,0.63233
750.187,80.45438,-2.49619,-0.09598551,0.63157
750.887,80.52486,-2.49498,-0.09932934,0.6308
751.587,80.59514,-2.49493,-0.10008,0.63004
752.287,80.66545,-2.49493,-0.1046,0.62928
752.987,80.7358,-2.49493,-0.10357,0.62851
753.687,80.80611,-2.49504,-0.1039,0.62775
754.387,80.87642,-2.49354,-0.10872,0.62698
755.087,80.94671,-2.4951,-0.10589,0.62621
755.787,81.0172,-2.49755,-0.10687,0.62545
756.487,81.08762,-2.49756,-0.10574,0.62468
757.187,81.15785,-2.49756,-0.10925,0.62391
757.887,81.22806,-2.49756,-0.11152,0.62315
758.587,81.2984,-2.49756,-0.10805,0.62238
759.287,81.36915,-2.49756,-0.1092,0.62161
759.987,81.43991,-2.49789,-0.11028,0.62084
760.687,81.51051,-2.49789,-0.11016,0.62008
761.387,81.58117,-2.49789,-0.11393,0.61931
762.087,81.6518,-2.49789,-0.11173,0.61854
762.787,81.72246,-2.49816,-0.11158,0.61777
763.487,81.79294,-2.49888,-0.11228,0.617
764.187,81.86345,-2.49888,-0.11204,0.61623
764.887,81.93391,-2.49822,-0.11345,0.61546
765.587,82.00447,-2.49959,-0.11137,0.61469
766.287,82.07489,-2.49954,-0.10956,0.61391
766.987,82.1455,-2.49953,-0.11013,0.61314
767.687,82.21615,-2.49921,-0.11308,0.61237
768.387,82.2868,-2.50052,-0.11416,0.6116
769.087,82.35716,-2.49921,-0.11191,0.61083
769.787,82.4273,-2.49922,-0.11317,0.61005
770.487,82.49753,-2.4979,-0.11161,0.60928
771.187,82.56791,-2.4979,-0.11354,0.60851
771.887,82.63837,-2.4979,-0.1133,0.60773
772.587,82.70864,-2.49955,-0.11191,0.60696
773.287,82.779,-2.50052,-0.11199,0.60619
773.987,82.8493,-2.50184,-0.1137,0.60541
774.687,82.9198,-2.50054,-0.11539,0.60464
775.387,82.99016,-2.49918,-0.11711,0.60386
776.087,83.0603,-2.50083,-0.11508,0.60309
776.787,83.13045,-2.49965,-0.11809,0.60231
777.487,83.2003,-2.50095,-0.12154,0.60154
778.187,83.2706,-2.50097,-0.11782,0.60076
778.887,83.34091,-2.50097,-0.11908,0.59998
779.587,83.4115,-2.49964,-0.11717,0.59921
780.287,83.48189,-2.49899,-0.11806,0.59843
780.987,83.55235,-2.49893,-0.1199,0.59765
781.687,83.6226,-2.49958,-0.11913,0.59688
782.387,83.693,-2.49965,-0.12115,0.5961
783.087,83.76316,-2.49966,-0.12168,0.59532
783.787,83.83374,-2.49727,-0.12366,0.59454
784.487,83.90388,-2.49872,-0.12236,0.59377
785.187,83.97421,-2.50009,-0.1188,0.59299
785.887,84.04434,-2.50145,-0.12157,0.59221
786.587,84.11482,-2.5014,-0.12076,0.59143
787.287,84.185,-2.5018,-0.1217,0.59065
787.987,84.25546,-2.5014,-0.12284,0.58987
788.687,84.3259,-2.50276,-0.12109,0.58909
789.387,84.39659,-2.5014,-0.12617,0.58831
790.087,84.4672,-2.50406,-0.1234,0.58753
790.787,84.5377,-2.50382,-0.12469,0.58675
791.487,84.60812,-2.50272,-0.12185,0.58597
792.187,84.67827,-2.50404,-0.11965,0.58519
792.887,84.74845,-2.50404,-0.11952,0.58441
793.587,84.81854,-2.50273,-0.11828,0.58363
794.287,84.8887,-2.5014,-0.11775,0.58284
794.987,84.95881,-2.50141,-0.12027,0.58206
795.387,84.99896,-2.50141,-0.1213,0.58162