File: 01_Data/FRP_Panel/STA/N2/10K_min/FRP_Panel_STA_N2_10KData_22238_R2.csv
##Temp./Â°C,Time/min,Mass loss(subtr.2)/mg,DSC(subtr.2)/(mW/mg),Sensit./(uV/mW)
50.119,10.01,0.03602,0.0007562311,1.02684
50.819,10.8367,0.03677681,0.03671174,1.02678
51.519,11.07037,0.03844622,0.05707685,1.02672
52.219,11.2486,0.03878002,0.07999321,1.02666
52.919,11.3995,0.03991739,0.09135525,1.0266
53.619,11.53386,0.03984604,0.10353,1.02654
54.319,11.65835,0.0410556,0.11481,1.02648
55.019,11.77547,0.03983359,0.12286,1.02642
55.719,11.88643,0.04047552,0.12945,1.02636
56.419,11.99334,0.04111711,0.13569,1.02629
57.119,12.09673,0.04095841,0.14343,1.02623
57.819,12.19703,0.04106041,0.14742,1.02617
58.519,12.2941,0.04138761,0.15327,1.0261
59.219,12.38999,0.04294005,0.15799,1.02604
59.919,12.48422,0.04290675,0.16341,1.02598
60.619,12.57708,0.04430535,0.16889,1.02591
61.319,12.66793,0.04415758,0.17286,1.02585
62.019,12.75757,0.04449057,0.17847,1.02578
62.719,12.847,0.04457922,0.18174,1.02572
63.419,12.93465,0.044627,0.18674,1.02565
64.119,13.02154,0.0439966,0.19336,1.02559
64.819,13.10699,0.04305808,0.19555,1.02552
65.519,13.192,0.04539291,0.20515,1.02545
66.219,13.27641,0.04458779,0.20808,1.02539
66.919,13.35987,0.04457152,0.21412,1.02532
67.619,13.44321,0.04615152,0.21836,1.02525
68.319,13.5257,0.04591689,0.22012,1.02518
69.019,13.6074,0.04600359,0.22379,1.02511
69.719,13.6883,0.04474745,0.22649,1.02505
70.419,13.7685,0.04465696,0.22831,1.02498
71.119,13.84816,0.04468549,0.22706,1.02491
71.819,13.92811,0.04608251,0.22608,1.02484
72.519,14.00785,0.04610408,0.22747,1.02477
73.219,14.0865,0.046838,0.22606,1.0247
73.919,14.16506,0.047273,0.22359,1.02463
74.619,14.2431,0.04749822,0.2269,1.02456
75.319,14.32058,0.04715111,0.22435,1.02449
76.019,14.39749,0.04531346,0.224,1.02441
76.719,14.4739,0.04681428,0.22646,1.02434
77.419,14.55062,0.04617935,0.22554,1.02427
78.119,14.6272,0.04619738,0.22712,1.0242
78.819,14.7035,0.04626232,0.22866,1.02412
79.519,14.77926,0.04622661,0.23109,1.02405
80.219,14.85472,0.04626812,0.23206,1.02398
80.919,14.9298,0.04621956,0.23243,1.0239
81.619,15.0047,0.04617806,0.23353,1.02383
82.319,15.07879,0.04658433,0.23473,1.02375
83.019,15.1526,0.04613611,0.23633,1.02368
83.719,15.2266,0.04720574,0.23686,1.0236
84.419,15.3003,0.04755841,0.23883,1.02353
85.119,15.37401,0.04755315,0.23857,1.02345
85.819,15.44718,0.04804142,0.24281,1.02337
86.519,15.52,0.04688,0.24112,1.0233
87.219,15.59247,0.04752759,0.24583,1.02322
87.919,15.6648,0.04549072,0.2466,1.02314
88.619,15.7372,0.04424734,0.24759,1.02306
89.319,15.80923,0.04419914,0.24934,1.02298
90.019,15.8812,0.04552579,0.24965,1.02291
90.719,15.9529,0.04556197,0.25085,1.02283
91.419,16.02441,0.0452551,0.25195,1.02275
92.119,16.09574,0.04528758,0.25164,1.02267
92.819,16.16649,0.04557369,0.25383,1.02259
93.519,16.23712,0.04618593,0.25574,1.02251
94.219,16.3076,0.04687596,0.25533,1.02242
94.919,16.3784,0.04557049,0.25685,1.02234
95.619,16.44898,0.04425623,0.25771,1.02226
96.319,16.51935,0.04555978,0.25955,1.02218
97.019,16.5892,0.0455631,0.26133,1.0221
97.719,16.65925,0.04425992,0.26144,1.02201
98.419,16.729,0.04467038,0.26191,1.02193
99.119,16.79899,0.04492635,0.2625,1.02185
99.819,16.86874,0.04424997,0.26493,1.02176
100.519,16.93855,0.04357069,0.26401,1.02168
101.219,17.0079,0.04364873,0.26497,1.02159
101.919,17.07743,0.04404659,0.26696,1.02151
102.619,17.1467,0.04294223,0.26738,1.02142
103.319,17.21619,0.04423844,0.26875,1.02133
104.019,17.28529,0.04294287,0.26775,1.02125
104.719,17.35428,0.04155982,0.26924,1.02116
105.419,17.423,0.04250967,0.2696,1.02107
106.119,17.4921,0.04160802,0.27324,1.02099
106.819,17.5614,0.04295467,0.27115,1.0209
107.519,17.63009,0.04162,0.27233,1.02081
108.219,17.6986,0.04162,0.27514,1.02072
108.919,17.76708,0.04158181,0.27476,1.02063
109.619,17.83614,0.04152111,0.27552,1.02054
110.319,17.9052,0.04024242,0.27506,1.02045
111.019,17.9741,0.04029152,0.27606,1.02036
111.719,18.043,0.03964249,0.27532,1.02027
112.419,18.1116,0.03910486,0.27718,1.02018
113.119,18.17925,0.03831325,0.27763,1.02008
113.819,18.24774,0.0382363,0.27928,1.01999
114.519,18.31643,0.03927078,0.27825,1.0199
115.219,18.3859,0.03832005,0.2797,1.01981
115.919,18.4545,0.03841328,0.28106,1.01971
116.619,18.52271,0.03828521,0.28099,1.01962
117.319,18.59095,0.03830549,0.2829,1.01952
118.019,18.6591,0.03832254,0.28204,1.01943
118.719,18.72739,0.03833,0.28396,1.01933
119.419,18.79564,0.03832993,0.28445,1.01924
120.119,18.86349,0.03738438,0.28349,1.01914
120.819,18.93175,0.03697737,0.28457,1.01904
121.519,19.0001,0.03832007,0.28521,1.01895
122.219,19.06831,0.03643313,0.28471,1.01885
122.919,19.13626,0.03633998,0.28469,1.01875
123.619,19.20403,0.03633978,0.28382,1.01865
124.319,19.27206,0.03773108,0.28659,1.01855
125.019,19.33977,0.0363498,0.28721,1.01845
125.719,19.40735,0.03642977,0.28644,1.01835
126.419,19.47494,0.03493932,0.28653,1.01825
127.119,19.54226,0.03634941,0.28706,1.01815
127.819,19.6098,0.03569035,0.28548,1.01805
128.519,19.67727,0.033771,0.28738,1.01795
129.219,19.745,0.033252,0.28816,1.01785
129.919,19.81242,0.03236505,0.28742,1.01775
130.619,19.87989,0.03370998,0.28901,1.01764
131.319,19.94751,0.03371043,0.29143,1.01754
132.019,20.0151,0.03238354,0.28954,1.01744
132.719,20.0828,0.03251357,0.28934,1.01733
133.419,20.15005,0.03371,0.28952,1.01723
134.119,20.2175,0.0325062,0.28645,1.01712
134.819,20.2846,0.03240001,0.29,1.01702
135.519,20.35173,0.03227453,0.29017,1.01691
136.219,20.41905,0.03107999,0.29038,1.0168
136.919,20.48625,0.03108013,0.29063,1.0167
137.619,20.55345,0.03226958,0.28964,1.01659
138.319,20.62057,0.03239952,0.29067,1.01648
139.019,20.68769,0.03107007,0.2897,1.01637
139.719,20.75473,0.0310109,0.29156,1.01626
140.419,20.8217,0.03107031,0.29053,1.01615
141.119,20.88898,0.02975864,0.29152,1.01604
141.819,20.95601,0.03009812,0.28966,1.01593
142.519,21.02306,0.03106989,0.29154,1.01582
143.219,21.08995,0.03042414,0.2909,1.01571
143.919,21.15685,0.02858346,0.29198,1.0156
144.619,21.22361,0.02843998,0.29043,1.01549
145.319,21.29009,0.02844,0.29252,1.01537
146.019,21.35673,0.02843987,0.29149,1.01526
146.719,21.42369,0.02722962,0.28994,1.01515
147.419,21.49059,0.02711995,0.2911,1.01503
148.119,21.5575,0.0284216,0.29091,1.01492
148.819,21.6239,0.02714583,0.29112,1.0148
149.519,21.69066,0.02712022,0.29123,1.01469
150.219,21.75721,0.02844387,0.2904,1.01457
150.919,21.82401,0.02841962,0.29053,1.01445
151.619,21.89072,0.02713005,0.29131,1.01434
152.319,21.95745,0.02712991,0.29268,1.01422
153.019,22.024,0.02639932,0.2936,1.0141
153.719,22.0905,0.02647308,0.29317,1.01398
154.419,22.15685,0.02613984,0.29519,1.01386
155.119,22.22332,0.0257704,0.29301,1.01374
155.819,22.28999,0.02712,0.29533,1.01362
156.519,22.35671,0.02709454,0.29564,1.0135
157.219,22.42326,0.02583472,0.29435,1.01338
157.919,22.4897,0.02449004,0.29236,1.01326
158.619,22.5562,0.02508436,0.29475,1.01313
159.319,22.62245,0.02447978,0.29476,1.01301
160.019,22.68885,0.02317614,0.29494,1.01289
160.719,22.75531,0.02316304,0.29643,1.01276
161.419,22.8218,0.02447997,0.29534,1.01264
162.119,22.88831,0.02349634,0.29609,1.01251
162.819,22.9547,0.02317067,0.29628,1.01239
163.519,23.02119,0.02316641,0.29697,1.01226
164.219,23.0877,0.02211761,0.29428,1.01214
164.919,23.1543,0.02247486,0.29548,1.01201
165.619,23.22074,0.02251,0.29557,1.01188
166.319,23.28705,0.02250958,0.29537,1.01175
167.019,23.35353,0.02185692,0.29405,1.01162
167.719,23.42015,0.02185041,0.29153,1.01149
168.419,23.48712,0.02119577,0.295,1.01136
169.119,23.5537,0.0212,0.29485,1.01123
169.819,23.6206,0.0212,0.29288,1.0111
170.519,23.687,0.02119972,0.2939,1.01097
171.219,23.75345,0.01995898,0.29205,1.01084
171.919,23.82003,0.01856,0.29464,1.01071
172.619,23.88648,0.01856696,0.29393,1.01057
173.319,23.95328,0.0172395,0.29243,1.01044
174.019,24.01971,0.01724,0.29092,1.01031
174.719,24.0865,0.01742437,0.29333,1.01017
175.419,24.15273,0.01658172,0.29244,1.01004
176.119,24.21935,0.01658001,0.29131,1.0099
176.819,24.28612,0.01518437,0.29189,1.00976
177.519,24.35303,0.01525941,0.29109,1.00963
178.219,24.41986,0.01394889,0.29135,1.00949
178.919,24.4863,0.01395,0.29019,1.00935
179.619,24.55286,0.01395,0.28973,1.00921
180.319,24.6193,0.01394842,0.29011,1.00907
181.019,24.68592,0.01297094,0.29017,1.00893
181.719,24.75239,0.01297001,0.28961,1.00879
182.419,24.81889,0.01298891,0.28893,1.00865
183.119,24.88534,0.01264004,0.28874,1.00851
183.819,24.952,0.01264,0.28741,1.00837
184.519,25.01851,0.01264033,0.28858,1.00823
185.219,25.08474,0.01131337,0.28724,1.00808
185.919,25.1513,0.01134392,0.28685,1.00794
186.619,25.21725,0.01000007,0.28609,1.00779
187.319,25.28376,0.01001427,0.28951,1.00765
188.019,25.35,0.01066,0.28864,1.0075
188.719,25.41668,0.01075953,0.28775,1.00736
189.419,25.4832,0.008016313,0.29032,1.00721
190.119,25.54959,0.008020008,0.28895,1.00706
190.819,25.6159,0.006595443,0.29005,1.00692
191.519,25.6821,0.005380089,0.28991,1.00677
192.219,25.74849,0.004822499,0.2927,1.00662
192.919,25.81488,0.004390021,0.29386,1.00647
193.619,25.8815,0.00439,0.29703,1.00632
194.319,25.94792,0.00438944,0.29931,1.00617
195.019,26.01425,0.004056113,0.29991,1.00602
195.719,26.0804,0.002749954,0.29977,1.00586
196.419,26.1467,0.002103876,0.30306,1.00571
197.119,26.21284,0.00144125,0.30645,1.00556
197.819,26.27923,0.0008444016,0.30728,1.0054
198.519,26.34552,0.000120062,0.31249,1.00525
199.219,26.4121,0.000118132,0.31331,1.00509
199.919,26.4786,-0.0005265832,0.31746,1.00494
200.619,26.54485,0.0001195319,0.31997,1.00478
201.319,26.6111,7.94192e-05,0.32245,1.00463
202.019,26.67744,-0.002410597,0.32914,1.00447
202.719,26.7439,-0.002560111,0.33309,1.00431
203.419,26.8104,-0.003839737,0.33757,1.00415
204.119,26.87677,-0.005152902,0.3408,1.00399
204.819,26.94326,-0.006398774,0.345,1.00383
205.519,27.0097,-0.007450031,0.34873,1.00367
206.219,27.0762,-0.00744982,0.35211,1.00351
206.919,27.1424,-0.00776826,0.35562,1.00335
207.619,27.20865,-0.00909519,0.3593,1.00319
208.319,27.2751,-0.01042699,0.36392,1.00302
209.019,27.3416,-0.009182141,0.36525,1.00286
209.719,27.40806,-0.009704164,0.3705,1.0027
210.419,27.4744,-0.01041987,0.37181,1.00253
211.119,27.5407,-0.01177701,0.3748,1.00236
211.819,27.6071,-0.01311697,0.3763,1.0022
212.519,27.6735,-0.01305527,0.38065,1.00203
213.219,27.7401,-0.0143791,0.3829,1.00186
213.919,27.8068,-0.01568755,0.38435,1.0017
214.619,27.87361,-0.01635286,0.38504,1.00153
215.319,27.9402,-0.01701055,0.38617,1.00136
216.019,28.0066,-0.01860188,0.39006,1.00119
216.719,28.07331,-0.02052999,0.38991,1.00102
217.419,28.13983,-0.02053,0.39259,1.00085
218.119,28.2066,-0.02117104,0.39329,1.00067
218.819,28.2729,-0.02265489,0.39573,1.0005
219.519,28.33943,-0.02283,0.39701,1.00033
220.219,28.40587,-0.02286556,0.39674,1.00015
220.919,28.47247,-0.02250003,0.39898,0.99998
221.619,28.5391,-0.02245631,0.39801,0.9998
222.319,28.6058,-0.02493341,0.39979,0.99963
223.019,28.6723,-0.0259916,0.40147,0.99945
223.719,28.73883,-0.0277618,0.40121,0.99928
224.419,28.80527,-0.02907837,0.40338,0.9991
225.119,28.87183,-0.02908066,0.40294,0.99892
225.819,28.9384,-0.03040216,0.40263,0.99874
226.519,29.00497,-0.03171955,0.40395,0.99856
227.219,29.07133,-0.03303992,0.40532,0.99838
227.919,29.1378,-0.03304,0.40418,0.9982
228.619,29.2039,-0.03304146,0.40537,0.99802
229.319,29.2703,-0.03435977,0.40583,0.99783
230.019,29.33675,-0.03567451,0.4054,0.99765
230.719,29.4035,-0.03635765,0.4054,0.99747
231.419,29.47,-0.03699004,0.4049,0.99728
232.119,29.5364,-0.03830865,0.40295,0.9971
232.819,29.60275,-0.03833161,0.40315,0.99691
233.519,29.66912,-0.03963008,0.40409,0.99672
234.219,29.7356,-0.03963001,0.40195,0.99654
234.919,29.8021,-0.03958987,0.40144,0.99635
235.619,29.8686,-0.04094965,0.40042,0.99616
236.319,29.93494,-0.0422672,0.40186,0.99597
237.019,30.00115,-0.04408233,0.39804,0.99578
237.719,30.0675,-0.04488996,0.39942,0.99559
238.419,30.13407,-0.0448901,0.39728,0.9954
239.119,30.20079,-0.0461985,0.39775,0.99521
239.819,30.26744,-0.04889859,0.39825,0.99502
240.519,30.3342,-0.04811729,0.39746,0.99482
241.219,30.4005,-0.04822046,0.3952,0.99463
241.919,30.4671,-0.0495005,0.39813,0.99443
242.619,30.53345,-0.05015313,0.39638,0.99424
243.319,30.60023,-0.05147665,0.39566,0.99404
244.019,30.66672,-0.05148,0.39748,0.99384
244.719,30.7333,-0.05146279,0.39593,0.99365
245.419,30.7997,-0.05346733,0.3961,0.99345
246.119,30.86608,-0.05488605,0.39519,0.99325
246.819,30.9327,-0.05493014,0.39652,0.99305
247.519,30.9993,-0.05719689,0.39711,0.99285
248.219,31.06571,-0.05846198,0.39641,0.99265
248.919,31.13237,-0.05907158,0.39718,0.99245
249.619,31.19903,-0.05981289,0.39701,0.99224
250.319,31.26557,-0.06151037,0.39959,0.99204
251.019,31.33202,-0.0641428,0.40031,0.99184
251.719,31.3984,-0.06548884,0.40219,0.99163
252.419,31.4644,-0.06300988,0.40288,0.99143
253.119,31.53118,-0.06410991,0.40412,0.99122
253.819,31.5979,-0.06541919,0.40481,0.99101
254.519,31.66525,-0.06781491,0.4068,0.99081
255.219,31.73204,-0.06934849,0.40647,0.9906
255.919,31.7986,-0.07077483,0.40872,0.99039
256.619,31.8652,-0.07289595,0.40779,0.99018
257.319,31.9318,-0.07333005,0.40879,0.98997
258.019,31.99855,-0.07386973,0.41076,0.98976
258.719,32.06499,-0.07463993,0.40954,0.98955
259.419,32.13157,-0.07464778,0.41228,0.98933
260.119,32.1982,-0.07597079,0.41224,0.98912
260.819,32.26482,-0.07729957,0.41179,0.98891
261.519,32.33171,-0.0799226,0.41183,0.98869
262.219,32.39852,-0.07991998,0.41257,0.98848
262.919,32.46519,-0.08131145,0.41334,0.98826
263.619,32.53177,-0.08255101,0.41208,0.98804
264.319,32.59835,-0.08388229,0.41149,0.98783
265.019,32.66496,-0.0841343,0.41092,0.98761
265.719,32.73169,-0.08521744,0.41031,0.98739
266.419,32.7984,-0.08783148,0.41125,0.98717
267.119,32.8651,-0.08907769,0.40889,0.98695
267.819,32.93184,-0.08965859,0.40642,0.98673
268.519,32.9983,-0.09121091,0.407,0.9865
269.219,33.06512,-0.09149222,0.40636,0.98628
269.919,33.1317,-0.09250794,0.40441,0.98606
270.619,33.1984,-0.09378724,0.40203,0.98583
271.319,33.2649,-0.09671211,0.40272,0.98561
272.019,33.33139,-0.09932333,0.3996,0.98538
272.719,33.398,-0.10066,0.39974,0.98515
273.419,33.46488,-0.10334,0.39623,0.98493
274.119,33.53178,-0.1033,0.39273,0.9847
274.819,33.59877,-0.10457,0.39267,0.98447
275.519,33.66556,-0.10589,0.39025,0.98424
276.219,33.73217,-0.1073,0.38753,0.98401
276.919,33.7988,-0.10726,0.38697,0.98378
277.619,33.86546,-0.10857,0.38374,0.98355
278.319,33.9324,-0.1099,0.38393,0.98331
279.019,33.99926,-0.11253,0.38104,0.98308
279.719,34.0664,-0.11385,0.37873,0.98284
280.419,34.13335,-0.11394,0.37499,0.98261
281.119,34.2004,-0.11517,0.37447,0.98237
281.819,34.26739,-0.11638,0.3707,0.98214
282.519,34.3343,-0.11902,0.36675,0.9819
283.219,34.40128,-0.11985,0.3645,0.98166
283.919,34.46802,-0.12166,0.36287,0.98142
284.619,34.53494,-0.12197,0.36063,0.98118
285.319,34.6019,-0.1234,0.35944,0.98094
286.019,34.66878,-0.12469,0.35666,0.9807
286.719,34.73559,-0.12473,0.35278,0.98046
287.419,34.80225,-0.12752,0.35223,0.98022
288.119,34.86919,-0.12866,0.34853,0.97997
288.819,34.93639,-0.12998,0.34651,0.97973
289.519,35.00349,-0.13001,0.34519,0.97948
290.219,35.07078,-0.13134,0.34359,0.97924
290.919,35.1379,-0.13261,0.34193,0.97899
291.619,35.20515,-0.13268,0.33999,0.97874
292.319,35.2723,-0.13389,0.33807,0.97849
293.019,35.3394,-0.13718,0.33651,0.97824
293.719,35.40619,-0.13789,0.33573,0.97799
294.419,35.47331,-0.13986,0.33696,0.97774
295.119,35.54036,-0.14052,0.33386,0.97749
295.819,35.60752,-0.14184,0.336,0.97724
296.519,35.67467,-0.14286,0.33538,0.97699
297.219,35.74175,-0.14528,0.33521,0.97673
297.919,35.80883,-0.14571,0.3359,0.97648
298.619,35.87599,-0.14569,0.33518,0.97622
299.319,35.94307,-0.1483,0.3366,0.97597
300.019,36.0103,-0.14973,0.33647,0.97571
300.719,36.0775,-0.15105,0.33749,0.97545
301.419,36.14481,-0.15238,0.335,0.97519
302.119,36.21198,-0.15245,0.33667,0.97493
302.819,36.27906,-0.15369,0.33607,0.97467
303.519,36.3463,-0.15476,0.33754,0.97441
304.219,36.41368,-0.1572,0.33695,0.97415
304.919,36.4812,-0.15795,0.33786,0.97389
305.619,36.54851,-0.15732,0.33779,0.97362
306.319,36.61546,-0.15868,0.33774,0.97336
307.019,36.68262,-0.16005,0.33902,0.97309
307.719,36.74977,-0.16389,0.33925,0.97283
308.419,36.81734,-0.1639,0.3407,0.97256
309.119,36.8848,-0.1652,0.34015,0.97229
309.819,36.95232,-0.16389,0.34157,0.97202
310.519,37.01967,-0.16652,0.34102,0.97175
311.219,37.087,-0.16785,0.34231,0.97148
311.919,37.15406,-0.16917,0.34206,0.97121
312.619,37.2213,-0.17048,0.34575,0.97094
313.319,37.2883,-0.1718,0.345,0.97067
314.019,37.35575,-0.17209,0.34488,0.9704
314.719,37.42305,-0.17477,0.34668,0.97012
315.419,37.49058,-0.17609,0.34692,0.96985
316.119,37.5577,-0.17739,0.34644,0.96957
316.819,37.62482,-0.17871,0.35037,0.96929
317.519,37.69228,-0.18004,0.34849,0.96902
318.219,37.75962,-0.18136,0.3495,0.96874
318.919,37.8266,-0.18305,0.35113,0.96846
319.619,37.89387,-0.184,0.35026,0.96818
320.319,37.96102,-0.18399,0.35133,0.9679
321.019,38.02857,-0.1853,0.35267,0.96762
321.719,38.09592,-0.18781,0.35461,0.96733
322.419,38.16364,-0.19066,0.35393,0.96705
323.119,38.23122,-0.192,0.35358,0.96676
323.819,38.29853,-0.19331,0.35399,0.96648
324.519,38.36591,-0.19373,0.35345,0.96619
325.219,38.43333,-0.19496,0.35295,0.96591
325.919,38.50118,-0.19772,0.35298,0.96562
326.619,38.5688,-0.20027,0.35475,0.96533
327.319,38.63612,-0.20168,0.35496,0.96504
328.019,38.7031,-0.20298,0.35758,0.96475
328.719,38.77068,-0.20429,0.35689,0.96446
329.419,38.83854,-0.20563,0.35637,0.96417
330.119,38.90658,-0.20705,0.35668,0.96388
330.819,38.9741,-0.2095,0.3577,0.96358
331.519,39.04157,-0.21299,0.35938,0.96329
332.219,39.10933,-0.21495,0.35852,0.96299
332.919,39.17705,-0.21627,0.36042,0.9627
333.619,39.2446,-0.21755,0.36075,0.9624
334.319,39.3122,-0.21918,0.36177,0.9621
335.019,39.3798,-0.22165,0.36313,0.9618
335.719,39.44761,-0.22296,0.363,0.9615
336.419,39.5154,-0.22518,0.36215,0.9612
337.119,39.583,-0.22687,0.36497,0.9609
337.819,39.65061,-0.22957,0.36599,0.9606
338.519,39.71836,-0.23138,0.36625,0.9603
339.219,39.7864,-0.23513,0.36715,0.95999
339.919,39.8544,-0.23708,0.36775,0.95969
340.619,39.92212,-0.23799,0.36944,0.95938
341.319,39.98965,-0.23933,0.36985,0.95908
342.019,40.05713,-0.24134,0.37022,0.95877
342.719,40.1248,-0.24341,0.36957,0.95846
343.419,40.19243,-0.24784,0.36993,0.95815
344.119,40.2602,-0.25029,0.37231,0.95784
344.819,40.32816,-0.25221,0.37535,0.95753
345.519,40.39624,-0.25349,0.37726,0.95722
346.219,40.46402,-0.25685,0.38062,0.95691
346.919,40.53185,-0.26014,0.38003,0.95659
347.619,40.59965,-0.26203,0.38006,0.95628
348.319,40.66758,-0.2647,0.38175,0.95596
349.019,40.73535,-0.2686,0.38119,0.95565
349.719,40.80281,-0.27193,0.38611,0.95533
350.419,40.8705,-0.2745,0.38604,0.95501
351.119,40.93824,-0.27819,0.38634,0.95469
351.819,41.00629,-0.28125,0.38903,0.95437
352.519,41.07419,-0.28413,0.38967,0.95405
353.219,41.14205,-0.28696,0.39092,0.95373
353.919,41.20993,-0.29004,0.39094,0.95341
354.619,41.27763,-0.29288,0.39258,0.95309
355.319,41.34497,-0.29404,0.39449,0.95276
356.019,41.41245,-0.29777,0.39571,0.95244
356.719,41.4802,-0.30189,0.39696,0.95211
357.419,41.5482,-0.30512,0.39791,0.95179
358.119,41.61626,-0.30957,0.40158,0.95146
358.819,41.6841,-0.31285,0.40412,0.95113
359.519,41.75166,-0.31599,0.40472,0.9508
360.219,41.81926,-0.31841,0.40757,0.95047
360.919,41.887,-0.32204,0.40836,0.95014
361.619,41.95487,-0.32683,0.4133,0.94981
362.319,42.0225,-0.33147,0.41461,0.94947
363.019,42.09016,-0.33484,0.41705,0.94914
363.719,42.15789,-0.33957,0.41968,0.94881
364.419,42.22592,-0.34328,0.42171,0.94847
365.119,42.29379,-0.34797,0.42179,0.94813
365.819,42.36166,-0.35285,0.42742,0.9478
366.519,42.4296,-0.35784,0.42921,0.94746
367.219,42.49758,-0.3619,0.43051,0.94712
367.919,42.56552,-0.36677,0.43495,0.94678
368.619,42.63346,-0.37116,0.43655,0.94644
369.319,42.70104,-0.3773,0.43979,0.9461
370.019,42.7689,-0.3827,0.44297,0.94575
370.719,42.8369,-0.38848,0.44586,0.94541
371.419,42.90486,-0.39286,0.44754,0.94507
372.119,42.97286,-0.39846,0.45163,0.94472
372.819,43.04064,-0.40331,0.45595,0.94438
373.519,43.10881,-0.40949,0.45761,0.94403
374.219,43.17678,-0.41383,0.46274,0.94368
374.919,43.24477,-0.42019,0.46482,0.94333
375.619,43.31292,-0.42547,0.46819,0.94298
376.319,43.38088,-0.4325,0.47407,0.94263
377.019,43.44891,-0.43879,0.47509,0.94228
377.719,43.5169,-0.44469,0.48086,0.94193
378.419,43.58495,-0.45152,0.48402,0.94157
379.119,43.65307,-0.45862,0.48927,0.94122
379.819,43.7215,-0.46523,0.49427,0.94086
380.519,43.78969,-0.473,0.49972,0.94051
381.219,43.85799,-0.48077,0.50422,0.94015
381.919,43.92606,-0.48813,0.50751,0.93979
382.619,43.99422,-0.49632,0.51593,0.93943
383.319,44.06241,-0.50606,0.51968,0.93907
384.019,44.13051,-0.51474,0.5245,0.93871
384.719,44.19877,-0.52293,0.53246,0.93835
385.419,44.26704,-0.53266,0.53703,0.93799
386.119,44.33531,-0.54211,0.54311,0.93762
386.819,44.40355,-0.55075,0.55146,0.93726
387.519,44.47167,-0.56165,0.55712,0.9369
388.219,44.54002,-0.57108,0.5632,0.93653
388.919,44.60816,-0.57988,0.57244,0.93616
389.619,44.6766,-0.5898,0.57617,0.93579
390.319,44.74456,-0.60098,0.58285,0.93543
391.019,44.81264,-0.61197,0.59061,0.93506
391.719,44.88041,-0.62307,0.59837,0.93468
392.419,44.9486,-0.63565,0.60392,0.93431
393.119,45.01695,-0.64701,0.61242,0.93394
393.819,45.08559,-0.65998,0.62168,0.93357
394.519,45.15381,-0.67179,0.62831,0.93319
395.219,45.22177,-0.68577,0.63638,0.93282
395.919,45.29,-0.69831,0.64395,0.93244
396.619,45.3583,-0.71196,0.65341,0.93206
397.319,45.42686,-0.72661,0.65918,0.93169
398.019,45.49518,-0.74158,0.66414,0.93131
398.719,45.5634,-0.75751,0.67278,0.93093
399.419,45.6317,-0.77347,0.67995,0.93055
400.119,45.70008,-0.78891,0.68706,0.93016
400.819,45.76856,-0.80584,0.6946,0.92978
401.519,45.83683,-0.82231,0.69918,0.9294
402.219,45.90488,-0.83737,0.70559,0.92901
402.919,45.9732,-0.85528,0.70866,0.92863
403.619,46.04146,-0.87171,0.71482,0.92824
404.319,46.11,-0.89021,0.72226,0.92785
405.019,46.17823,-0.90924,0.72604,0.92746
405.719,46.24655,-0.9269,0.73178,0.92708
406.419,46.3148,-0.94615,0.7349,0.92669
407.119,46.3831,-0.96565,0.7371,0.92629
407.819,46.45154,-0.98509,0.73779,0.9259
408.519,46.52,-1.00538,0.73772,0.92551
409.219,46.58832,-1.0254,0.73941,0.92512
409.919,46.65644,-1.04402,0.7411,0.92472
410.619,46.7245,-1.06389,0.73771,0.92433
411.319,46.79262,-1.08413,0.73607,0.92393
412.019,46.86077,-1.1052,0.7323,0.92353
412.719,46.9291,-1.12455,0.72932,0.92313
413.419,46.9976,-1.14567,0.72552,0.92273
414.119,47.06607,-1.16669,0.71617,0.92233
414.819,47.13415,-1.18681,0.7111,0.92193
415.519,47.202,-1.20618,0.70324,0.92153
416.219,47.27036,-1.22603,0.69611,0.92113
416.919,47.3391,-1.24771,0.68679,0.92072
417.619,47.40762,-1.26644,0.67633,0.92032
418.319,47.47592,-1.28613,0.66545,0.91991
419.019,47.5441,-1.3067,0.6551,0.9195
419.719,47.6126,-1.32417,0.64244,0.9191
420.419,47.6811,-1.34335,0.62953,0.91869
421.119,47.74969,-1.36134,0.6172,0.91828
421.819,47.81798,-1.37972,0.60447,0.91787
422.519,47.88623,-1.39536,0.59043,0.91746
423.219,47.95443,-1.41366,0.57557,0.91704
423.919,48.02277,-1.43071,0.56249,0.91663
424.619,48.09114,-1.44629,0.5461,0.91622
425.319,48.1595,-1.46142,0.53193,0.9158
426.019,48.2279,-1.47613,0.51718,0.91539
426.719,48.29642,-1.49157,0.50102,0.91497
427.419,48.36487,-1.50597,0.48497,0.91455
428.119,48.4334,-1.51787,0.47021,0.91413
428.819,48.50183,-1.53018,0.45503,0.91371
429.519,48.57039,-1.54273,0.4406,0.91329
430.219,48.6387,-1.55455,0.42522,0.91287
430.919,48.70712,-1.56481,0.4098,0.91245
431.619,48.7755,-1.57564,0.39447,0.91202
432.319,48.84427,-1.58481,0.38311,0.9116
433.019,48.91279,-1.59502,0.36887,0.91117
433.719,48.98137,-1.60392,0.35854,0.91075
434.419,49.04981,-1.61072,0.34446,0.91032
435.119,49.1184,-1.6177,0.33142,0.90989
435.819,49.1868,-1.625,0.32272,0.90946
436.519,49.25523,-1.63045,0.31132,0.90903
437.219,49.3234,-1.63627,0.30156,0.9086
437.919,49.39196,-1.63989,0.29481,0.90817
438.619,49.46047,-1.64402,0.28737,0.90773
439.319,49.52899,-1.64974,0.28011,0.9073
440.019,49.5972,-1.64942,0.27378,0.90687
440.719,49.66565,-1.65205,0.26832,0.90643
441.419,49.73438,-1.664,0.26211,0.90599
442.119,49.80301,-1.66487,0.25496,0.90556
442.819,49.87151,-1.668,0.2507,0.90512
443.519,49.93999,-1.67308,0.2457,0.90468
444.219,50.0085,-1.67387,0.24116,0.90424
444.919,50.07714,-1.67387,0.24092,0.9038
445.619,50.14578,-1.67517,0.2353,0.90335
446.319,50.21411,-1.67759,0.23206,0.90291
447.019,50.28245,-1.67924,0.22872,0.90247
447.719,50.35096,-1.68058,0.22766,0.90202
448.419,50.41987,-1.6833,0.22546,0.90157
449.119,50.4889,-1.68462,0.22291,0.90113
449.819,50.55743,-1.68594,0.22094,0.90068
450.519,50.62599,-1.68592,0.21857,0.90023
451.219,50.69445,-1.68722,0.21805,0.89978
451.919,50.76319,-1.6888,0.21613,0.89933
452.619,50.832,-1.68879,0.21519,0.89888
453.319,50.90067,-1.6901,0.21456,0.89843
454.019,50.96922,-1.68334,0.21198,0.89797
454.719,51.03748,-1.68652,0.21283,0.89752
455.419,51.10589,-1.68802,0.20942,0.89706
456.119,51.17445,-1.68928,0.2102,0.89661
456.819,51.24303,-1.69079,0.20995,0.89615
457.519,51.31162,-1.69197,0.20946,0.89569
458.219,51.37999,-1.69066,0.21078,0.89523
458.919,51.44872,-1.69197,0.20903,0.89477
459.619,51.51749,-1.69332,0.21066,0.89431
460.319,51.5864,-1.69329,0.20852,0.89385
461.019,51.65517,-1.69466,0.20669,0.89338
461.719,51.7237,-1.69614,0.20804,0.89292
462.419,51.79253,-1.69735,0.20683,0.89246
463.119,51.86107,-1.69735,0.20784,0.89199
463.819,51.9301,-1.69735,0.20905,0.89152
464.519,51.9989,-1.69792,0.2071,0.89106
465.219,52.0678,-1.69871,0.2083,0.89059
465.919,52.13632,-1.6973,0.20744,0.89012
466.619,52.205,-1.70019,0.20787,0.88965
467.319,52.27377,-1.7001,0.20737,0.88918
468.019,52.34219,-1.7001,0.2073,0.8887
468.719,52.41088,-1.70146,0.20969,0.88823
469.419,52.47976,-1.70207,0.2093,0.88776
470.119,52.5491,-1.70338,0.20941,0.88728
470.819,52.6179,-1.70386,0.20877,0.8868
471.519,52.68655,-1.7047,0.21064,0.88633
472.219,52.7554,-1.7047,0.21049,0.88585
472.919,52.82431,-1.7047,0.20849,0.88537
473.619,52.8932,-1.70398,0.20979,0.88489
474.319,52.96199,-1.70504,0.21237,0.88441
475.019,53.0307,-1.70504,0.21261,0.88393
475.719,53.0995,-1.70633,0.20985,0.88345
476.419,53.1684,-1.70632,0.21039,0.88296
477.119,53.23734,-1.70735,0.2101,0.88248
477.819,53.3063,-1.70716,0.21065,0.88199
478.519,53.3749,-1.70753,0.21006,0.88151
479.219,53.4438,-1.708,0.21116,0.88102
479.919,53.51266,-1.70899,0.21186,0.88053
480.619,53.5818,-1.70904,0.21187,0.88004
481.319,53.6507,-1.71036,0.20904,0.87955
482.019,53.7199,-1.71063,0.20958,0.87906
482.719,53.78904,-1.71157,0.21121,0.87857
483.419,53.85815,-1.71129,0.20896,0.87808
484.119,53.92717,-1.71172,0.2094,0.87758
484.819,53.9961,-1.71261,0.20749,0.87709
485.519,54.06541,-1.71308,0.21045,0.87659
486.219,54.13459,-1.71431,0.20958,0.8761
486.919,54.20405,-1.71557,0.2072,0.8756
487.619,54.2733,-1.71614,0.20806,0.8751
488.319,54.34255,-1.71656,0.20873,0.8746
489.019,54.41176,-1.71732,0.20818,0.8741
489.719,54.4808,-1.71682,0.21052,0.8736
490.419,54.55,-1.71623,0.21056,0.8731
491.119,54.6189,-1.71651,0.21242,0.87259
491.819,54.6878,-1.71788,0.21376,0.87209
492.519,54.75688,-1.7191,0.21216,0.87159
493.219,54.826,-1.72051,0.21151,0.87108
493.919,54.89541,-1.72051,0.21189,0.87057
494.619,54.9644,-1.72018,0.21266,0.87007
495.319,55.03337,-1.72018,0.21156,0.86956
496.019,55.10239,-1.72018,0.21058,0.86905
496.719,55.17145,-1.71944,0.20978,0.86854
497.419,55.24071,-1.7202,0.20684,0.86803
498.119,55.30981,-1.72051,0.20611,0.86751
498.819,55.37896,-1.72183,0.206,0.867
499.519,55.448,-1.72315,0.20711,0.86649
500.219,55.5168,-1.7231,0.20635,0.86597
500.919,55.58588,-1.72455,0.20626,0.86546
501.619,55.65494,-1.72583,0.2073,0.86494
502.319,55.72426,-1.72446,0.20666,0.86442
503.019,55.7935,-1.72464,0.2053,0.8639
503.719,55.86269,-1.72677,0.20405,0.86338
504.419,55.93184,-1.72808,0.20388,0.86286
505.119,56.00091,-1.72677,0.20306,0.86234
505.819,56.07,-1.72546,0.20341,0.86182
506.519,56.139,-1.72546,0.20218,0.8613
507.219,56.2083,-1.72676,0.20295,0.86077
507.919,56.2772,-1.72813,0.20451,0.86025
508.619,56.3463,-1.72903,0.20319,0.85972
509.319,56.41535,-1.72907,0.2038,0.85919
510.019,56.48483,-1.73039,0.20392,0.85867
510.719,56.55379,-1.73039,0.20343,0.85814
511.419,56.62304,-1.7304,0.20069,0.85761
512.119,56.69214,-1.73171,0.20161,0.85708
512.819,56.761,-1.73171,0.203,0.85655
513.519,56.8302,-1.73072,0.20322,0.85601
514.219,56.89945,-1.73205,0.20351,0.85548
514.919,56.96923,-1.73073,0.20545,0.85495
515.619,57.03859,-1.73369,0.20417,0.85441
516.319,57.1079,-1.73467,0.2052,0.85387
517.019,57.17726,-1.73379,0.20393,0.85334
517.719,57.24664,-1.73244,0.20001,0.8528
518.419,57.3162,-1.73391,0.20204,0.85226
519.119,57.38553,-1.73511,0.20155,0.85172
519.819,57.4548,-1.73508,0.20389,0.85118
520.519,57.52389,-1.73778,0.20236,0.85064
521.219,57.5931,-1.7378,0.20303,0.8501
521.919,57.6624,-1.73785,0.20107,0.84955
522.619,57.73185,-1.73785,0.20182,0.84901
523.319,57.80112,-1.73917,0.20341,0.84847
524.019,57.8705,-1.73985,0.20211,0.84792
524.719,57.93995,-1.73983,0.20366,0.84737
525.419,58.0094,-1.73982,0.20484,0.84683
526.119,58.0786,-1.73852,0.21368,0.84628
526.819,58.14765,-1.7385,0.21713,0.84573
527.519,58.2167,-1.73789,0.21977,0.84518
528.219,58.2863,-1.7372,0.2196,0.84463
528.919,58.3559,-1.73719,0.22118,0.84407
529.619,58.42544,-1.73786,0.22286,0.84352
530.319,58.4947,-1.73786,0.22306,0.84297
531.019,58.56409,-1.73786,0.22346,0.84241
531.719,58.6335,-1.73852,0.22339,0.84186
532.419,58.70304,-1.73852,0.22508,0.8413
533.119,58.77253,-1.73724,0.22556,0.84074
533.819,58.8421,-1.73818,0.22684,0.84018
534.519,58.91154,-1.73958,0.2299,0.83962
535.219,58.9809,-1.74082,0.23183,0.83906
535.919,59.05027,-1.7395,0.23173,0.8385
536.619,59.1193,-1.7395,0.23263,0.83794
537.319,59.1886,-1.74082,0.23387,0.83738
538.019,59.25796,-1.74213,0.23344,0.83682
538.719,59.3276,-1.74082,0.23571,0.83625
539.419,59.39715,-1.74082,0.23671,0.83569
540.119,59.4665,-1.74082,0.2343,0.83512
540.819,59.53612,-1.74081,0.23627,0.83455
541.519,59.60566,-1.74214,0.23459,0.83398
542.219,59.67516,-1.74228,0.22949,0.83342
542.919,59.7447,-1.7428,0.22475,0.83285
543.619,59.8143,-1.7428,0.21785,0.83227
544.319,59.8839,-1.7429,0.21826,0.8317
545.019,59.95318,-1.74412,0.21197,0.83113
545.719,60.02268,-1.7417,0.21153,0.83056
546.419,60.0923,-1.74126,0.20805,0.82998
547.119,60.16222,-1.74159,0.20416,0.82941
547.819,60.23185,-1.7416,0.20232,0.82883
548.519,60.3012,-1.74232,0.20205,0.82826
549.219,60.37061,-1.74258,0.20221,0.82768
549.919,60.4402,-1.74389,0.20092,0.8271
550.619,60.5099,-1.74389,0.20129,0.82652
551.319,60.5794,-1.74328,0.20095,0.82594
552.019,60.6487,-1.74258,0.20129,0.82536
552.719,60.71829,-1.74413,0.19871,0.82478
553.419,60.7877,-1.74653,0.20048,0.82419
554.119,60.85703,-1.74653,0.19945,0.82361
554.819,60.9265,-1.74517,0.19804,0.82303
555.519,60.9961,-1.74398,0.19699,0.82244
556.219,61.06531,-1.74258,0.19674,0.82185
556.919,61.1346,-1.7439,0.19629,0.82127
557.619,61.20405,-1.74258,0.19399,0.82068
558.319,61.2737,-1.74258,0.19372,0.82009
559.019,61.34321,-1.74391,0.19215,0.8195
559.719,61.4128,-1.74392,0.19245,0.81891
560.419,61.48254,-1.74357,0.19006,0.81832
561.119,61.5522,-1.7449,0.18894,0.81773
561.819,61.62165,-1.7439,0.19077,0.81713
562.519,61.6911,-1.7439,0.1901,0.81654
563.219,61.7606,-1.7439,0.19087,0.81594
563.919,61.83054,-1.7439,0.18907,0.81535
564.619,61.9003,-1.7439,0.18776,0.81475
565.319,61.9702,-1.74522,0.1898,0.81416
566.019,62.03985,-1.74522,0.18899,0.81356
566.719,62.10951,-1.74653,0.18882,0.81296
567.419,62.17892,-1.74653,0.18975,0.81236
568.119,62.24845,-1.74518,0.18892,0.81176
568.819,62.3178,-1.74521,0.19044,0.81116
569.519,62.3873,-1.74521,0.1907,0.81055
570.219,62.45658,-1.74515,0.18993,0.80995
570.919,62.526,-1.7462,0.18994,0.80935
571.619,62.59547,-1.7462,0.18935,0.80874
572.319,62.66491,-1.74753,0.19181,0.80814
573.019,62.7345,-1.74752,0.19138,0.80753
573.719,62.80396,-1.74752,0.19075,0.80692
574.419,62.87395,-1.74752,0.19017,0.80631
575.119,62.9437,-1.74884,0.1903,0.80571
575.819,63.0137,-1.74785,0.18903,0.8051
576.519,63.08342,-1.74753,0.1893,0.80449
577.219,63.15334,-1.74614,0.1932,0.80387
577.919,63.22336,-1.74763,0.19375,0.80326
578.619,63.29323,-1.74763,0.19269,0.80265
579.319,63.36305,-1.74763,0.19324,0.80203
580.019,63.43283,-1.74763,0.19449,0.80142
580.719,63.5026,-1.74895,0.19358,0.8008
581.419,63.5726,-1.74895,0.19437,0.80019
582.119,63.64245,-1.74895,0.19592,0.79957
582.819,63.71244,-1.74799,0.19397,0.79895
583.519,63.78207,-1.74694,0.19401,0.79833
584.219,63.85164,-1.74828,0.19348,0.79771
584.919,63.9215,-1.74826,0.19696,0.79709
585.619,63.9915,-1.74927,0.19484,0.79647
586.319,64.06155,-1.74927,0.19485,0.79585
587.019,64.1314,-1.74927,0.19466,0.79523
587.719,64.2012,-1.74854,0.19635,0.7946
588.419,64.27113,-1.74796,0.19701,0.79398
589.119,64.34104,-1.74796,0.19854,0.79335
589.819,64.41109,-1.74994,0.19879,0.79273
590.519,64.48097,-1.74996,0.20263,0.7921
591.219,64.55059,-1.75189,0.20089,0.79147
591.919,64.62017,-1.75103,0.20128,0.79085
592.619,64.68985,-1.75071,0.20392,0.79022
593.319,64.75989,-1.74939,0.20407,0.78959
594.019,64.82973,-1.75036,0.20421,0.78896
594.719,64.89992,-1.75071,0.20832,0.78832
595.419,64.96977,-1.75069,0.20705,0.78769
596.119,65.03993,-1.75005,0.2109,0.78706
596.819,65.10995,-1.75005,0.21155,0.78642
597.519,65.18001,-1.75005,0.21271,0.78579
598.219,65.2499,-1.75037,0.21264,0.78515
598.919,65.3201,-1.75169,0.2133,0.78452
599.619,65.39,-1.75169,0.21521,0.78388
600.319,65.46008,-1.75169,0.21763,0.78324
601.019,65.52973,-1.75168,0.21806,0.7826
601.719,65.5997,-1.75301,0.21918,0.78196
602.419,65.66959,-1.75301,0.22036,0.78132
603.119,65.73946,-1.75331,0.22162,0.78068
603.819,65.8095,-1.754,0.22393,0.78004
604.519,65.8794,-1.7553,0.22615,0.7794
605.219,65.94915,-1.75537,0.23059,0.77876
605.919,66.01897,-1.75458,0.22903,0.77811
606.619,66.0888,-1.75564,0.22912,0.77747
607.319,66.15863,-1.75465,0.23177,0.77682
608.019,66.22837,-1.75465,0.23305,0.77618
608.719,66.29813,-1.75597,0.23473,0.77553
609.419,66.3679,-1.75729,0.23995,0.77488
610.119,66.4376,-1.75729,0.23937,0.77423
610.819,66.50741,-1.75866,0.24046,0.77358
611.519,66.57737,-1.75826,0.24216,0.77293
612.219,66.64732,-1.75829,0.24419,0.77228
612.919,66.71706,-1.75828,0.24707,0.77163
613.619,66.78695,-1.75828,0.24878,0.77098
614.319,66.85677,-1.75925,0.25147,0.77032
615.019,66.9265,-1.75927,0.25551,0.76967
615.719,66.99639,-1.7593,0.25613,0.76902
616.419,67.06621,-1.76059,0.25929,0.76836
617.119,67.1365,-1.76059,0.25997,0.7677
617.819,67.20682,-1.76225,0.26385,0.76705
618.519,67.2772,-1.76322,0.26647,0.76639
619.219,67.3475,-1.76453,0.26803,0.76573
619.919,67.41716,-1.76454,0.27136,0.76507
620.619,67.48733,-1.76469,0.27737,0.76441
621.319,67.55755,-1.76585,0.27871,0.76375
622.019,67.62823,-1.76663,0.28423,0.76309
622.719,67.69872,-1.76793,0.29167,0.76243
623.419,67.7692,-1.76729,0.29484,0.76177
624.119,67.8395,-1.7673,0.29964,0.7611
624.819,67.90981,-1.76762,0.30304,0.76044
625.519,67.98001,-1.76893,0.30431,0.75977
626.219,68.0505,-1.76892,0.30924,0.75911
626.919,68.12051,-1.77124,0.31431,0.75844
627.619,68.19108,-1.77257,0.31904,0.75777
628.319,68.26131,-1.77123,0.32215,0.75711
629.019,68.3319,-1.77174,0.32426,0.75644
629.719,68.40201,-1.77257,0.32951,0.75577
630.419,68.47244,-1.77253,0.33338,0.7551
631.119,68.54276,-1.77486,0.3379,0.75443
631.819,68.6126,-1.77522,0.34222,0.75376
632.519,68.6827,-1.77629,0.3457,0.75308
633.219,68.75278,-1.77518,0.34965,0.75241
633.919,68.82325,-1.77649,0.35627,0.75174
634.619,68.8933,-1.77677,0.36125,0.75106
635.319,68.96306,-1.77901,0.36463,0.75039
636.019,69.0329,-1.78003,0.37324,0.74971
636.719,69.1028,-1.78047,0.37682,0.74904
637.419,69.17291,-1.78239,0.38083,0.74836
638.119,69.2431,-1.78332,0.38693,0.74768
638.819,69.31281,-1.78458,0.38939,0.747
639.519,69.3824,-1.78471,0.39494,0.74632
640.219,69.45204,-1.78605,0.40002,0.74565
640.919,69.52181,-1.78735,0.4061,0.74496
641.619,69.59174,-1.78869,0.41115,0.74428
642.319,69.66159,-1.78869,0.41757,0.7436
643.019,69.7317,-1.79002,0.42147,0.74292
643.719,69.80164,-1.79225,0.42816,0.74224
644.419,69.87119,-1.79265,0.43513,0.74155
645.119,69.9409,-1.79396,0.43906,0.74087
645.819,70.0106,-1.7953,0.44614,0.74018
646.519,70.08073,-1.7966,0.4527,0.7395
647.219,70.15043,-1.7966,0.46042,0.73881
647.919,70.22035,-1.79791,0.4621,0.73812
648.619,70.29029,-1.80002,0.4729,0.73743
649.319,70.36019,-1.80032,0.47984,0.73675
650.019,70.42997,-1.80132,0.48555,0.73606
650.719,70.49967,-1.80338,0.49046,0.73537
651.419,70.5694,-1.8073,0.49906,0.73468
652.119,70.6391,-1.809,0.50342,0.73399
652.819,70.70867,-1.81064,0.51064,0.73329
653.519,70.77843,-1.81224,0.51824,0.7326
654.219,70.8484,-1.81096,0.52222,0.73191
654.919,70.91829,-1.81231,0.53211,0.73121
655.619,70.988,-1.81357,0.54119,0.73052
656.319,71.0578,-1.81626,0.54638,0.72982
657.019,71.1277,-1.81783,0.55544,0.72913
657.719,71.19773,-1.8204,0.56389,0.72843
658.419,71.26776,-1.82165,0.57244,0.72774
659.119,71.3379,-1.82451,0.57947,0.72704
659.819,71.40799,-1.82596,0.59046,0.72634
660.519,71.47807,-1.82729,0.59557,0.72564
661.219,71.54816,-1.83164,0.60575,0.72494
661.919,71.61822,-1.83448,0.61446,0.72424
662.619,71.68835,-1.8363,0.62372,0.72354
663.319,71.75845,-1.83763,0.63069,0.72284
664.019,71.82866,-1.83974,0.64285,0.72214
664.719,71.89881,-1.84103,0.65318,0.72143
665.419,71.96856,-1.84371,0.66432,0.72073
666.119,72.03872,-1.8452,0.67334,0.72003
666.819,72.10876,-1.84809,0.67999,0.71932
667.519,72.1795,-1.84939,0.6902,0.71862
668.219,72.24959,-1.85108,0.69988,0.71791
668.919,72.3199,-1.85357,0.71054,0.7172
669.619,72.3899,-1.85796,0.72071,0.7165
670.319,72.46002,-1.86092,0.73255,0.71579
671.019,72.53005,-1.86389,0.74442,0.71508
671.719,72.6002,-1.86663,0.75359,0.71437
672.419,72.67021,-1.86907,0.76818,0.71366
673.119,72.74042,-1.87117,0.77747,0.71295
673.819,72.81055,-1.87271,0.78998,0.71224
674.519,72.88087,-1.87647,0.802,0.71153
675.219,72.9511,-1.8768,0.81765,0.71082
675.919,73.02126,-1.88028,0.83037,0.71011
676.619,73.09161,-1.88412,0.84157,0.70939
677.319,73.16195,-1.88667,0.85628,0.70868
678.019,73.2323,-1.88977,0.86841,0.70797
678.719,73.30264,-1.89173,0.87958,0.70725
679.419,73.37294,-1.89511,0.89769,0.70653
680.119,73.44318,-1.89932,0.90901,0.70582
680.819,73.51347,-1.90235,0.92239,0.7051
681.519,73.5836,-1.90655,0.93446,0.70439
682.219,73.65395,-1.91073,0.9514,0.70367
682.919,73.72409,-1.91402,0.96471,0.70295
683.619,73.79434,-1.91677,0.98414,0.70223
684.319,73.86457,-1.92053,0.99769,0.70151
685.019,73.93474,-1.92389,1.01447,0.70079
685.719,74.00501,-1.92687,1.02819,0.70007
686.419,74.07512,-1.93102,1.04379,0.69935
687.119,74.14524,-1.93571,1.05593,0.69863
687.819,74.21525,-1.93982,1.07058,0.69791
688.519,74.28524,-1.9454,1.08645,0.69718
689.219,74.35523,-1.94878,1.10549,0.69646
689.919,74.4252,-1.9534,1.12517,0.69573
690.619,74.495,-1.95979,1.14434,0.69501
691.319,74.5649,-1.96341,1.16353,0.69429
692.019,74.63484,-1.96738,1.18116,0.69356
692.719,74.70491,-1.97183,1.19675,0.69283
693.419,74.77504,-1.97555,1.21304,0.69211
694.119,74.84491,-1.98026,1.22364,0.69138
694.819,74.9148,-1.98262,1.23651,0.69065
695.519,74.985,-1.98799,1.25274,0.68992
696.219,75.05532,-1.99354,1.26737,0.6892
696.919,75.1257,-1.99993,1.28299,0.68847
697.619,75.1957,-2.00469,1.30331,0.68774
698.319,75.2657,-2.00927,1.31924,0.68701
699.019,75.33583,-2.01376,1.33378,0.68627
699.719,75.40596,-2.01922,1.35315,0.68554
700.419,75.47609,-2.02448,1.37284,0.68481
701.119,75.54596,-2.02952,1.38976,0.68408
701.819,75.61601,-2.03773,1.40682,0.68335
702.519,75.68615,-2.04212,1.42551,0.68261
703.219,75.75599,-2.04775,1.44118,0.68188
703.919,75.8261,-2.05303,1.45763,0.68114
704.619,75.89613,-2.05957,1.47473,0.68041
705.319,75.9668,-2.06581,1.4893,0.67967
706.019,76.03735,-2.07077,1.50815,0.67894
706.719,76.10797,-2.07667,1.52045,0.6782
707.419,76.1784,-2.08242,1.53834,0.67746
708.119,76.2487,-2.08903,1.55623,0.67673
708.819,76.31894,-2.09695,1.57251,0.67599
709.519,76.38924,-2.1033,1.58857,0.67525
710.219,76.45968,-2.10901,1.60655,0.67451
710.919,76.53007,-2.11552,1.62679,0.67377
711.619,76.60051,-2.12403,1.64225,0.67303
712.319,76.6708,-2.13151,1.65913,0.67229
713.019,76.74128,-2.13846,1.67366,0.67155
713.719,76.81169,-2.14464,1.69044,0.67081
714.419,76.88211,-2.14893,1.70607,0.67007
715.119,76.95229,-2.15554,1.71834,0.66932
715.819,77.02247,-2.16154,1.73315,0.66858
716.519,77.09273,-2.16745,1.74823,0.66784
717.219,77.16287,-2.17353,1.7599,0.66709
717.919,77.23277,-2.18079,1.77265,0.66635
718.619,77.3026,-2.18852,1.78369,0.6656
719.319,77.37265,-2.19742,1.79951,0.66486
720.019,77.44291,-2.20603,1.80732,0.66411
720.719,77.51308,-2.21311,1.81906,0.66337
721.419,77.5832,-2.22192,1.82579,0.66262
722.119,77.6532,-2.23054,1.83358,0.66187
722.819,77.72315,-2.23562,1.84053,0.66113
723.519,77.7931,-2.24332,1.84876,0.66038
724.219,77.86313,-2.25097,1.85417,0.65963
724.919,77.93329,-2.25893,1.8592,0.65888
725.619,78.00332,-2.26454,1.85953,0.65813
726.319,78.07333,-2.27201,1.86056,0.65738
727.019,78.1433,-2.27895,1.86118,0.65663
727.719,78.2135,-2.28715,1.85674,0.65588
728.419,78.28369,-2.29689,1.85378,0.65513
729.119,78.3538,-2.3021,1.84509,0.65438
729.819,78.42365,-2.30992,1.83541,0.65363
730.519,78.4936,-2.31733,1.82615,0.65287
731.219,78.56342,-2.32548,1.80897,0.65212
731.919,78.63348,-2.33402,1.79156,0.65137
732.619,78.70342,-2.34017,1.76761,0.65061
733.319,78.7736,-2.34726,1.74055,0.64986
734.019,78.84376,-2.35077,1.70581,0.6491
734.719,78.9139,-2.35732,1.6691,0.64835
735.419,78.98422,-2.36587,1.62151,0.64759
736.119,79.05436,-2.37304,1.56817,0.64684
736.819,79.12481,-2.37961,1.50343,0.64608
737.519,79.1951,-2.3843,1.43179,0.64533
738.219,79.26567,-2.38954,1.34684,0.64457
738.919,79.33593,-2.39535,1.24997,0.64381
739.619,79.40607,-2.40078,1.13916,0.64305
740.319,79.47631,-2.40393,1.02267,0.6423
741.019,79.5466,-2.4084,0.89397,0.64154
741.719,79.61694,-2.41178,0.76702,0.64078
742.419,79.68718,-2.41512,0.63743,0.64002
743.119,79.75731,-2.41634,0.52708,0.63926
743.819,79.8276,-2.41907,0.42476,0.6385
744.519,79.8977,-2.41962,0.34184,0.63774
745.219,79.9679,-2.42042,0.27621,0.63698
745.919,80.03814,-2.42204,0.22855,0.63622
746.619,80.10831,-2.42203,0.18541,0.63546
747.319,80.1785,-2.42335,0.1563,0.63469
748.019,80.2487,-2.42335,0.12941,0.63393
748.719,80.3192,-2.42335,0.11416,0.63317
749.419,80.38974,-2.42271,0.09760285,0.63241
750.119,80.4601,-2.42203,0.09127976,0.63164
750.819,80.53033,-2.42334,0.08095972,0.63088
751.519,80.60075,-2.42466,0.07892225,0.63011
752.219,80.67107,-2.42466,0.07848068,0.62935
752.919,80.74138,-2.4242,0.07603013,0.62859
753.619,80.81111,-2.42334,0.07062521,0.62782
754.319,80.8811,-2.42334,0.07066185,0.62705
755.019,80.95111,-2.42471,0.07173855,0.62629
755.719,81.02141,-2.42575,0.07121212,0.62552
756.419,81.09141,-2.42598,0.07105342,0.62476
757.119,81.1614,-2.42598,0.06776394,0.62399
757.819,81.23135,-2.42598,0.0668539,0.62322
758.519,81.30135,-2.42463,0.06639467,0.62245
759.219,81.37125,-2.42335,0.06629583,0.62169
759.919,81.44135,-2.42482,0.06279358,0.62092
760.619,81.51161,-2.42532,0.0650274,0.62015
761.319,81.5821,-2.42532,0.06485776,0.61938
762.019,81.6525,-2.42535,0.06411023,0.61861
762.719,81.72283,-2.42729,0.06175097,0.61784
763.419,81.7931,-2.42729,0.06257488,0.61707
764.119,81.8635,-2.42697,0.06114181,0.6163
764.819,81.93392,-2.4263,0.0590731,0.61553
765.519,82.00424,-2.42641,0.05607462,0.61476
766.219,82.07468,-2.42659,0.05964147,0.61399
766.919,82.14509,-2.42729,0.05613707,0.61322
767.619,82.21542,-2.42861,0.05627217,0.61245
768.319,82.28569,-2.42992,0.05425026,0.61167
769.019,82.35592,-2.42998,0.05348036,0.6109
769.719,82.42641,-2.42719,0.05352769,0.61013
770.419,82.49677,-2.42719,0.05264496,0.60936
771.119,82.5672,-2.4271,0.05059459,0.60858
771.819,82.6375,-2.42968,0.04927441,0.60781
772.519,82.70784,-2.42849,0.05145297,0.60704
773.219,82.7783,-2.42885,0.05099768,0.60626
773.919,82.84868,-2.42884,0.04973275,0.60549
774.619,82.91909,-2.42608,0.04654702,0.60471
775.319,82.98945,-2.42609,0.04495427,0.60394
776.019,83.05979,-2.42609,0.04308129,0.60316
776.719,83.1302,-2.42609,0.04482317,0.60239
777.419,83.2007,-2.42609,0.04489637,0.60161
778.119,83.2709,-2.42609,0.04270788,0.60084
778.819,83.34133,-2.42712,0.04280052,0.60006
779.519,83.41194,-2.42708,0.04249411,0.59928
780.219,83.48308,-2.42796,0.04226147,0.59851
780.919,83.55367,-2.42857,0.042232,0.59773
781.619,83.624,-2.42971,0.04237784,0.59695
782.319,83.69409,-2.43003,0.04238608,0.59617
783.019,83.76475,-2.43003,0.04340392,0.5954
783.719,83.83536,-2.43004,0.04208724,0.59462
784.419,83.90624,-2.42872,0.03907934,0.59384
785.119,83.97677,-2.42966,0.03786331,0.59306
785.819,84.04754,-2.42891,0.04123369,0.59228
786.519,84.1181,-2.43004,0.0359134,0.5915
787.219,84.18848,-2.43004,0.03863512,0.59073
787.919,84.25875,-2.43004,0.04209829,0.58995
788.619,84.32924,-2.43109,0.03931836,0.58917
789.319,84.3998,-2.43004,0.0405728,0.58839
790.019,84.47029,-2.43002,0.04296169,0.58761
790.719,84.5406,-2.42872,0.03970939,0.58683
791.419,84.61115,-2.42905,0.04098375,0.58605
792.119,84.68178,-2.43002,0.04079161,0.58526
792.819,84.75228,-2.43136,0.04493804,0.58448
793.519,84.82265,-2.43136,0.04406899,0.5837
794.219,84.89294,-2.43198,0.04196467,0.58292
794.919,84.96342,-2.43251,0.04187539,0.58214
795.219,84.99368,-2.43138,0.04002901,0.5818