File: 01_Data/Engineered_Wood_Furniture/STA/N2/3K_min/Engineered_Wood_Furniture_STA_N2_3KData_22114_R1.csv
##Temp./Â°C,Time/min,Mass loss(subtr.2)/mg,DSC(subtr.2)/(mW/mg),Sensit./(uV/mW)
50.379,10.01667,-0.01756,0.01820581,1.05029
51.079,11.15294,-0.01623687,0.04439261,1.05016
51.779,11.54765,-0.01672486,0.05913704,1.05004
52.479,11.86853,-0.01757436,0.06872311,1.04991
53.179,12.161,-0.01604372,0.07484162,1.04979
53.879,12.44033,-0.01892321,0.07825096,1.04966
54.579,12.7115,-0.01887189,0.08087726,1.04953
55.279,12.97631,-0.01887065,0.08302858,1.0494
55.979,13.23635,-0.01755,0.0868292,1.04927
56.679,13.49375,-0.01745562,0.08920768,1.04914
57.379,13.74779,-0.01957821,0.08952861,1.04901
58.079,13.99939,-0.01885562,0.08942361,1.04888
58.779,14.248,-0.02051144,0.09153454,1.04875
59.479,14.49409,-0.02050999,0.09452023,1.04862
60.179,14.7392,-0.02051906,0.09346639,1.04848
60.879,14.98274,-0.02115602,0.0942693,1.04835
61.579,15.2264,-0.02248952,0.09353199,1.04821
62.279,15.4697,-0.02183036,0.09486255,1.04807
62.979,15.7121,-0.02215969,0.09868772,1.04794
63.679,15.9527,-0.02246595,0.0972373,1.0478
64.379,16.19225,-0.02349866,0.09698104,1.04766
65.079,16.43136,-0.02447211,0.09737153,1.04752
65.779,16.6692,-0.02315187,0.09922403,1.04738
66.479,16.90767,-0.02453684,0.09899566,1.04724
67.179,17.14558,-0.02446,0.10262,1.0471
67.879,17.38341,-0.0238,0.10082,1.04696
68.579,17.61975,-0.02393684,0.1015,1.04681
69.279,17.85558,-0.0264378,0.10234,1.04667
69.979,18.08971,-0.0277283,0.10361,1.04652
70.679,18.3247,-0.02674188,0.10169,1.04638
71.379,18.559,-0.02739779,0.1021,1.04623
72.079,18.79569,-0.02644119,0.10407,1.04608
72.779,19.03114,-0.02873988,0.10259,1.04594
73.479,19.2677,-0.0287391,0.10307,1.04579
74.179,19.50333,-0.02872613,0.10249,1.04564
74.879,19.73953,-0.03051701,0.10239,1.04549
75.579,19.97455,-0.02860965,0.10153,1.04534
76.279,20.20885,-0.03104,0.10296,1.04518
76.979,20.4424,-0.03169463,0.10267,1.04503
77.679,20.67606,-0.03027588,0.104,1.04488
78.379,20.90941,-0.03070565,0.10106,1.04472
79.079,21.14361,-0.03138734,0.09863941,1.04457
79.779,21.3778,-0.03275419,0.09992584,1.04441
80.479,21.61136,-0.03302108,0.09965608,1.04426
81.179,21.84499,-0.03237871,0.09895981,1.0441
81.879,22.0783,-0.03237349,0.10106,1.04394
82.579,22.3116,-0.03381592,0.10138,1.04378
83.279,22.5454,-0.03368,0.10018,1.04362
83.979,22.7795,-0.0327612,0.0959783,1.04346
84.679,23.01369,-0.03496487,0.09678319,1.0433
85.379,23.24755,-0.03382131,0.09825378,1.04314
86.079,23.48077,-0.03465332,0.10005,1.04298
86.779,23.71429,-0.03564998,0.10216,1.04281
87.479,23.947,-0.03566099,0.10452,1.04265
88.179,24.18051,-0.03698686,0.10417,1.04248
88.879,24.41467,-0.03631015,0.10219,1.04232
89.579,24.64997,-0.03630999,0.1055,1.04215
90.279,24.88405,-0.03763,0.10481,1.04198
90.979,25.11733,-0.03762997,0.10396,1.04182
91.679,25.3495,-0.03893957,0.10374,1.04165
92.379,25.58184,-0.03759218,0.10543,1.04148
93.079,25.81395,-0.03861004,0.1069,1.04131
93.779,26.0457,-0.03894001,0.10496,1.04113
94.479,26.27706,-0.0402481,0.10416,1.04096
95.179,26.50797,-0.04156853,0.10357,1.04079
95.879,26.73863,-0.03927001,0.10442,1.04062
96.579,26.9699,-0.03992956,0.10238,1.04044
97.279,27.20154,-0.0385864,0.10362,1.04027
97.979,27.4344,-0.03992994,0.10087,1.04009
98.679,27.6675,-0.0409183,0.10122,1.03991
99.379,27.90035,-0.03893843,0.09932561,1.03974
100.079,28.1335,-0.03927008,0.10044,1.03956
100.779,28.3659,-0.03927328,0.10391,1.03938
101.479,28.59835,-0.04025385,0.10049,1.0392
102.179,28.82985,-0.03959453,0.10264,1.03902
102.879,29.06085,-0.04098834,0.10007,1.03884
103.579,29.29125,-0.04091976,0.10168,1.03865
104.279,29.52232,-0.04445288,0.10138,1.03847
104.979,29.7534,-0.04277701,0.10271,1.03829
105.679,29.9848,-0.04257422,0.10052,1.0381
106.379,30.2159,-0.04387752,0.10336,1.03792
107.079,30.4474,-0.04411995,0.10239,1.03773
107.779,30.6787,-0.04180356,0.10192,1.03755
108.479,30.91,-0.04201687,0.10306,1.03736
109.179,31.14132,-0.04204593,0.10393,1.03717
109.879,31.37305,-0.04333,0.10386,1.03698
110.579,31.60445,-0.04229049,0.10475,1.03679
111.279,31.83548,-0.04234973,0.10271,1.0366
111.979,32.0666,-0.04333078,0.10479,1.03641
112.679,32.2976,-0.04167885,0.10365,1.03622
113.379,32.52966,-0.043,0.1024,1.03602
114.079,32.7605,-0.04431751,0.10559,1.03583
114.779,32.99171,-0.0441762,0.1049,1.03563
115.479,33.22184,-0.0443122,0.10575,1.03544
116.179,33.45262,-0.04464997,0.10602,1.03524
116.879,33.68255,-0.04464847,0.10291,1.03505
117.579,33.91366,-0.04333689,0.10636,1.03485
118.279,34.14441,-0.04566575,0.10621,1.03465
118.979,34.37614,-0.04462506,0.10636,1.03445
119.679,34.6068,-0.04398431,0.10703,1.03425
120.379,34.8382,-0.0455822,0.10541,1.03405
121.079,35.06886,-0.04562835,0.10724,1.03385
121.779,35.30082,-0.04628749,0.10651,1.03365
122.479,35.53217,-0.04498352,0.10638,1.03344
123.179,35.76273,-0.04694086,0.10795,1.03324
123.879,35.9929,-0.04727933,0.1102,1.03303
124.579,36.22273,-0.04712433,0.11071,1.03283
125.279,36.45417,-0.04648352,0.10853,1.03262
125.979,36.68488,-0.04761043,0.11214,1.03241
126.679,36.91523,-0.04826712,0.11128,1.03221
127.379,37.14461,-0.04695009,0.11117,1.032
128.079,37.37382,-0.04728251,0.11283,1.03179
128.779,37.60409,-0.04728,0.11224,1.03158
129.479,37.83471,-0.0485929,0.11197,1.03137
130.179,38.06528,-0.04799968,0.11057,1.03116
130.879,38.29625,-0.04963105,0.11143,1.03094
131.579,38.52621,-0.04957572,0.11282,1.03073
132.279,38.75696,-0.04804703,0.11329,1.03052
132.979,38.9868,-0.04794,0.11454,1.0303
133.679,39.2169,-0.04793995,0.11546,1.03009
134.379,39.4461,-0.04817766,0.11466,1.02987
135.079,39.67539,-0.04860929,0.11577,1.02965
135.779,39.90508,-0.05057051,0.1152,1.02944
136.479,40.1355,-0.04959007,0.11638,1.02922
137.179,40.36607,-0.05055589,0.11619,1.029
137.879,40.59713,-0.04986306,0.11629,1.02878
138.579,40.8274,-0.05025819,0.11773,1.02856
139.279,41.05743,-0.05081317,0.11926,1.02833
139.979,41.28719,-0.05156,0.11878,1.02811
140.679,41.5175,-0.05090003,0.11909,1.02789
141.379,41.74816,-0.05220498,0.11825,1.02766
142.079,41.9788,-0.05219932,0.11938,1.02744
142.779,42.20867,-0.05222,0.11919,1.02721
143.479,42.4386,-0.05254466,0.12122,1.02699
144.179,42.66807,-0.05187365,0.12094,1.02676
144.879,42.89718,-0.05270019,0.12063,1.02653
145.579,43.12572,-0.05288438,0.12191,1.0263
146.279,43.35478,-0.05353008,0.12384,1.02608
146.979,43.584,-0.05352955,0.12374,1.02585
147.679,43.814,-0.05484999,0.12575,1.02561
148.379,44.04441,-0.05485,0.12351,1.02538
149.079,44.27465,-0.05688574,0.12401,1.02515
149.779,44.50441,-0.05550958,0.12521,1.02492
150.479,44.73346,-0.05616,0.12781,1.02468
151.179,44.9627,-0.05616001,0.12999,1.02445
151.879,45.19099,-0.05746949,0.12911,1.02421
152.579,45.4191,-0.05822224,0.13072,1.02398
153.279,45.64655,-0.05683492,0.13419,1.02374
153.979,45.87508,-0.05943197,0.13378,1.0235
154.679,46.10372,-0.0607744,0.13352,1.02326
155.379,46.33296,-0.06109003,0.13666,1.02302
156.079,46.56232,-0.06010998,0.13893,1.02278
156.779,46.7916,-0.06010932,0.14302,1.02254
157.479,47.01968,-0.06141648,0.14612,1.0223
158.179,47.24771,-0.06171506,0.14581,1.02206
158.879,47.47469,-0.06273804,0.14685,1.02181
159.579,47.70328,-0.06207591,0.14821,1.02157
160.279,47.9314,-0.06477093,0.14901,1.02133
160.979,48.16036,-0.06340084,0.14977,1.02108
161.679,48.38909,-0.06514309,0.15161,1.02083
162.379,48.61833,-0.06373056,0.15306,1.02059
163.079,48.8478,-0.06635067,0.15487,1.02034
163.779,49.07698,-0.06701999,0.1555,1.02009
164.479,49.30636,-0.06702101,0.1558,1.01984
165.179,49.53585,-0.06900823,0.15689,1.01959
165.879,49.76515,-0.06999745,0.16128,1.01934
166.579,49.99365,-0.07035577,0.16119,1.01909
167.279,50.22231,-0.07194662,0.16273,1.01884
167.979,50.45102,-0.07295272,0.16492,1.01858
168.679,50.6792,-0.07458523,0.16469,1.01833
169.379,50.90598,-0.075284,0.1662,1.01807
170.079,51.13325,-0.07524,0.16683,1.01782
170.779,51.361,-0.07755239,0.16912,1.01756
171.479,51.58936,-0.07745045,0.16849,1.01731
172.179,51.8168,-0.07952679,0.16902,1.01705
172.879,52.0456,-0.08051135,0.17379,1.01679
173.579,52.275,-0.08186316,0.17444,1.01653
174.279,52.50473,-0.082693,0.17614,1.01627
174.979,52.7333,-0.08413,0.17992,1.01601
175.679,52.9617,-0.08545045,0.18038,1.01575
176.379,53.18991,-0.08678028,0.18313,1.01548
177.079,53.41862,-0.08807812,0.1854,1.01522
177.779,53.648,-0.08977562,0.1872,1.01496
178.479,53.8769,-0.09070752,0.18829,1.01469
179.179,54.10533,-0.09322167,0.18834,1.01443
179.879,54.3329,-0.09335003,0.19216,1.01416
180.579,54.5606,-0.09469795,0.19415,1.01389
181.279,54.78748,-0.09757292,0.19604,1.01363
181.979,55.01461,-0.09991954,0.19816,1.01336
182.679,55.2429,-0.10026,0.19959,1.01309
183.379,55.4731,-0.10322,0.19847,1.01282
184.079,55.70279,-0.10339,0.19932,1.01255
184.779,55.93121,-0.10684,0.20314,1.01228
185.479,56.1584,-0.10818,0.20494,1.012
186.179,56.3863,-0.11022,0.20786,1.01173
186.879,56.61464,-0.11076,0.20802,1.01146
187.579,56.8437,-0.11341,0.21014,1.01118
188.279,57.0721,-0.11635,0.20986,1.01091
188.979,57.3001,-0.11769,0.20926,1.01063
189.679,57.52724,-0.11955,0.21044,1.01036
190.379,57.7541,-0.12132,0.2117,1.01008
191.079,57.9813,-0.12128,0.21428,1.0098
191.779,58.20828,-0.12553,0.21317,1.00952
192.479,58.4365,-0.12794,0.2144,1.00924
193.179,58.66425,-0.12921,0.21622,1.00896
193.879,58.89264,-0.13128,0.21367,1.00868
194.579,59.12078,-0.13316,0.2171,1.0084
195.279,59.3488,-0.13604,0.21879,1.00811
195.979,59.5766,-0.13792,0.21774,1.00783
196.679,59.80386,-0.13974,0.21919,1.00755
197.379,60.03184,-0.14108,0.21922,1.00726
198.079,60.2603,-0.14516,0.21904,1.00697
198.779,60.4885,-0.14762,0.21872,1.00669
199.479,60.7165,-0.15028,0.21871,1.0064
200.179,60.9437,-0.15431,0.21962,1.00611
200.879,61.1712,-0.15566,0.21899,1.00582
201.579,61.39849,-0.15743,0.21842,1.00553
202.279,61.62615,-0.16035,0.219,1.00524
202.979,61.85391,-0.16343,0.21924,1.00495
203.679,62.08192,-0.1651,0.22358,1.00466
204.379,62.3098,-0.1678,0.22221,1.00437
205.079,62.53748,-0.17139,0.21914,1.00407
205.779,62.76432,-0.17364,0.22004,1.00378
206.479,62.991,-0.17495,0.22,1.00349
207.179,63.2175,-0.17629,0.22035,1.00319
207.879,63.44429,-0.18007,0.22046,1.00289
208.579,63.6702,-0.1835,0.22191,1.0026
209.279,63.89645,-0.18518,0.21702,1.0023
209.979,64.12228,-0.18736,0.21967,1.002
210.679,64.3486,-0.19008,0.22014,1.0017
211.379,64.57486,-0.19331,0.22033,1.0014
212.079,64.80236,-0.19611,0.21992,1.0011
212.779,65.02976,-0.19799,0.21807,1.0008
213.479,65.25729,-0.20118,0.21539,1.00049
214.179,65.4842,-0.20461,0.21645,1.00019
214.879,65.71149,-0.20691,0.21659,0.99989
215.579,65.9387,-0.21069,0.21509,0.99958
216.279,66.16596,-0.21378,0.2144,0.99928
216.979,66.39267,-0.21638,0.21156,0.99897
217.679,66.61931,-0.21769,0.21009,0.99866
218.379,66.84748,-0.22168,0.20913,0.99836
219.079,67.07615,-0.22436,0.20826,0.99805
219.779,67.30513,-0.22813,0.20919,0.99774
220.479,67.53269,-0.23023,0.21066,0.99743
221.179,67.76013,-0.23553,0.20961,0.99712
221.879,67.9875,-0.2368,0.20943,0.99681
222.579,68.21486,-0.24065,0.20934,0.99649
223.279,68.4418,-0.24455,0.20849,0.99618
223.979,68.66804,-0.24643,0.20619,0.99587
224.679,68.89498,-0.24996,0.20615,0.99555
225.379,69.12273,-0.2537,0.20658,0.99524
226.079,69.351,-0.25788,0.20325,0.99492
226.779,69.57868,-0.25976,0.20641,0.99461
227.479,69.8065,-0.26414,0.20498,0.99429
228.179,70.03461,-0.26712,0.20282,0.99397
228.879,70.2629,-0.27098,0.20006,0.99365
229.579,70.49069,-0.27436,0.20015,0.99333
230.279,70.7183,-0.2776,0.20063,0.99301
230.979,70.946,-0.28155,0.20011,0.99269
231.679,71.17325,-0.28562,0.19873,0.99237
232.379,71.40021,-0.28947,0.19717,0.99205
233.079,71.62651,-0.29421,0.19726,0.99172
233.779,71.85263,-0.29621,0.19831,0.9914
234.479,72.07819,-0.30271,0.19799,0.99107
235.179,72.3041,-0.30654,0.19544,0.99075
235.879,72.53061,-0.30923,0.19504,0.99042
236.579,72.7574,-0.31417,0.19143,0.9901
237.279,72.9836,-0.31723,0.19184,0.98977
237.979,73.2103,-0.3231,0.19111,0.98944
238.679,73.4376,-0.32755,0.19155,0.98911
239.379,73.6653,-0.33083,0.19211,0.98878
240.079,73.89241,-0.33639,0.18999,0.98845
240.779,74.11975,-0.34184,0.18964,0.98812
241.479,74.34689,-0.34564,0.18738,0.98779
242.179,74.5746,-0.35048,0.18777,0.98745
242.879,74.80212,-0.35527,0.1853,0.98712
243.579,75.03044,-0.3605,0.18642,0.98679
244.279,75.259,-0.36578,0.18452,0.98645
244.979,75.48778,-0.37253,0.18359,0.98611
245.679,75.7152,-0.37644,0.1839,0.98578
246.379,75.94269,-0.38334,0.18345,0.98544
247.079,76.1692,-0.38781,0.17996,0.9851
247.779,76.39678,-0.3942,0.17849,0.98476
248.479,76.62311,-0.39827,0.17861,0.98442
249.179,76.8504,-0.40619,0.17638,0.98408
249.879,77.07735,-0.41417,0.17678,0.98374
250.579,77.30445,-0.41794,0.17591,0.9834
251.279,77.53124,-0.42409,0.17452,0.98306
251.979,77.75761,-0.43018,0.17546,0.98272
252.679,77.9846,-0.43927,0.17415,0.98237
253.379,78.2116,-0.44654,0.17336,0.98203
254.079,78.43851,-0.45476,0.17167,0.98168
254.779,78.66551,-0.46011,0.16833,0.98134
255.479,78.89229,-0.46744,0.16863,0.98099
256.179,79.11964,-0.47501,0.17116,0.98064
256.879,79.34748,-0.4818,0.16981,0.98029
257.579,79.5752,-0.48756,0.16651,0.97994
258.279,79.80289,-0.49754,0.16662,0.9796
258.979,80.03094,-0.50541,0.16327,0.97924
259.679,80.25973,-0.51335,0.16012,0.97889
260.379,80.48861,-0.52186,0.16188,0.97854
261.079,80.71556,-0.53131,0.16171,0.97819
261.779,80.94179,-0.53857,0.16267,0.97784
262.479,81.1677,-0.5474,0.165,0.97748
263.179,81.3939,-0.5574,0.16049,0.97713
263.879,81.6199,-0.56381,0.15923,0.97677
264.579,81.8454,-0.57237,0.15797,0.97642
265.279,82.07165,-0.58282,0.1564,0.97606
265.979,82.29811,-0.59318,0.15593,0.9757
266.679,82.5248,-0.60094,0.15397,0.97534
267.379,82.75193,-0.61161,0.14964,0.97498
268.079,82.97973,-0.62311,0.1517,0.97462
268.779,83.20647,-0.6326,0.14706,0.97426
269.479,83.43303,-0.64155,0.14883,0.9739
270.179,83.65971,-0.65283,0.14879,0.97354
270.879,83.88776,-0.66251,0.14997,0.97318
271.579,84.11522,-0.67363,0.14816,0.97281
272.279,84.34267,-0.68486,0.14587,0.97245
272.979,84.57038,-0.69711,0.14525,0.97208
273.679,84.79822,-0.70621,0.14718,0.97172
274.379,85.0259,-0.71895,0.14525,0.97135
275.079,85.25272,-0.72898,0.14422,0.97099
275.779,85.48034,-0.74091,0.14509,0.97062
276.479,85.70787,-0.75388,0.14224,0.97025
277.179,85.935,-0.76467,0.14325,0.96988
277.879,86.16242,-0.77787,0.14004,0.96951
278.579,86.38996,-0.78825,0.1391,0.96914
279.279,86.61874,-0.79859,0.13912,0.96877
279.979,86.84759,-0.81103,0.1391,0.9684
280.679,87.07521,-0.82529,0.13695,0.96802
281.379,87.30362,-0.83647,0.13579,0.96765
282.079,87.53076,-0.84837,0.13925,0.96728
282.779,87.7593,-0.86312,0.13868,0.9669
283.479,87.98618,-0.87479,0.13955,0.96653
284.179,88.2138,-0.8878,0.13814,0.96615
284.879,88.4405,-0.90066,0.13897,0.96577
285.579,88.6682,-0.91409,0.13746,0.9654
286.279,88.89532,-0.92679,0.13995,0.96502
286.979,89.1229,-0.9392,0.14119,0.96464
287.679,89.35025,-0.9533,0.13821,0.96426
288.379,89.57818,-0.96545,0.13885,0.96388
289.079,89.80638,-0.98089,0.1385,0.9635
289.779,90.03434,-0.99305,0.13957,0.96311
290.479,90.26172,-1.0066,0.14285,0.96273
291.179,90.4889,-1.0206,0.14181,0.96235
291.879,90.71559,-1.03303,0.14288,0.96196
292.579,90.94238,-1.04749,0.14393,0.96158
293.279,91.16866,-1.06253,0.15029,0.96119
293.979,91.39587,-1.07641,0.14887,0.96081
294.679,91.62361,-1.09035,0.14744,0.96042
295.379,91.85151,-1.10557,0.1427,0.96003
296.079,92.07855,-1.1199,0.15015,0.95965
296.779,92.30497,-1.13448,0.145,0.95926
297.479,92.5317,-1.14981,0.14803,0.95887
298.179,92.75926,-1.16748,0.15044,0.95848
298.879,92.98729,-1.17912,0.14783,0.95809
299.579,93.21576,-1.1942,0.15182,0.95769
300.279,93.44466,-1.21004,0.15414,0.9573
300.979,93.67245,-1.22506,0.15433,0.95691
301.679,93.9011,-1.24085,0.15571,0.95651
302.379,94.12805,-1.25778,0.15558,0.95612
303.079,94.35465,-1.27364,0.15712,0.95572
303.779,94.58232,-1.29006,0.15782,0.95533
304.479,94.81119,-1.30756,0.16049,0.95493
305.179,95.04098,-1.32409,0.16254,0.95453
305.879,95.26857,-1.34154,0.16095,0.95414
306.579,95.4954,-1.35747,0.16127,0.95374
307.279,95.72306,-1.37395,0.16249,0.95334
307.979,95.9508,-1.39242,0.16537,0.95294
308.679,96.1792,-1.41057,0.16599,0.95254
309.379,96.40734,-1.42727,0.169,0.95214
310.079,96.63538,-1.44845,0.16918,0.95173
310.779,96.8634,-1.46485,0.17257,0.95133
311.479,97.09088,-1.4839,0.17208,0.95093
312.179,97.31894,-1.50394,0.17442,0.95052
312.879,97.54706,-1.52337,0.17475,0.95012
313.579,97.77597,-1.54293,0.17629,0.94971
314.279,98.00378,-1.5628,0.17754,0.94931
314.979,98.2325,-1.5837,0.17942,0.9489
315.679,98.4606,-1.60248,0.17813,0.94849
316.379,98.68965,-1.6238,0.17831,0.94808
317.079,98.91812,-1.64509,0.18092,0.94767
317.779,99.1463,-1.66911,0.18159,0.94726
318.479,99.37395,-1.68775,0.1851,0.94685
319.179,99.60083,-1.71415,0.18486,0.94644
319.879,99.8277,-1.73302,0.18992,0.94603
320.579,100.054,-1.75444,0.18907,0.94562
321.279,100.281,-1.77599,0.18731,0.94521
321.979,100.509,-1.80052,0.19001,0.94479
322.679,100.738,-1.82384,0.19009,0.94438
323.379,100.968,-1.84883,0.19293,0.94396
324.079,101.198,-1.87154,0.19351,0.94355
324.779,101.427,-1.89665,0.1932,0.94313
325.479,101.655,-1.92072,0.19288,0.94271
326.179,101.884,-1.9452,0.19526,0.94229
326.879,102.111,-1.96963,0.19348,0.94188
327.579,102.339,-1.99547,0.19733,0.94146
328.279,102.567,-2.01995,0.19906,0.94104
328.979,102.795,-2.0458,0.19871,0.94062
329.679,103.023,-2.0708,0.19815,0.94019
330.379,103.252,-2.09617,0.19714,0.93977
331.079,103.482,-2.12234,0.19252,0.93935
331.779,103.712,-2.14824,0.19502,0.93893
332.479,103.942,-2.17222,0.19238,0.9385
333.179,104.171,-2.19877,0.18867,0.93808
333.879,104.4,-2.22366,0.18781,0.93765
334.579,104.629,-2.24765,0.18823,0.93723
335.279,104.857,-2.27148,0.18434,0.9368
335.979,105.085,-2.29367,0.18051,0.93637
336.679,105.313,-2.3179,0.17882,0.93595
337.379,105.541,-2.33879,0.176,0.93552
338.079,105.77,-2.36001,0.17053,0.93509
338.779,106,-2.38169,0.16777,0.93466
339.479,106.23,-2.40159,0.15805,0.93423
340.179,106.458,-2.41854,0.15176,0.9338
340.879,106.688,-2.43475,0.1465,0.93336
341.579,106.917,-2.45171,0.14574,0.93293
342.279,107.145,-2.46815,0.13986,0.9325
342.979,107.374,-2.48163,0.13678,0.93206
343.679,107.602,-2.49392,0.12823,0.93163
344.379,107.83,-2.50447,0.12416,0.93119
345.079,108.058,-2.51483,0.11997,0.93076
345.779,108.286,-2.52412,0.11758,0.93032
346.479,108.514,-2.53382,0.11464,0.92988
347.179,108.743,-2.54193,0.11214,0.92945
347.879,108.971,-2.54887,0.10942,0.92901
348.579,109.2,-2.55547,0.10645,0.92857
349.279,109.429,-2.56098,0.1065,0.92813
349.979,109.658,-2.56724,0.1014,0.92769
350.679,109.888,-2.57146,0.09827032,0.92725
351.379,110.117,-2.57533,0.10233,0.9268
352.079,110.346,-2.58058,0.09911255,0.92636
352.779,110.574,-2.58493,0.09943654,0.92592
353.479,110.8036,-2.58755,0.09871545,0.92547
354.179,111.033,-2.59266,0.09611993,0.92503
354.879,111.262,-2.59574,0.10042,0.92458
355.579,111.4915,-2.59825,0.09928684,0.92414
356.279,111.721,-2.60182,0.09783726,0.92369
356.979,111.95,-2.60615,0.09670866,0.92325
357.679,112.18,-2.61008,0.09648258,0.9228
358.379,112.411,-2.61275,0.09727784,0.92235
359.079,112.64,-2.61537,0.0967333,0.9219
359.779,112.871,-2.62043,0.09841811,0.92145
360.479,113.101,-2.6229,0.0970231,0.921
361.179,113.331,-2.62586,0.09672577,0.92055
361.879,113.56,-2.62749,0.09370327,0.9201
362.579,113.788,-2.63161,0.0948333,0.91965
363.279,114.016,-2.63474,0.09383776,0.91919
363.979,114.244,-2.6366,0.0944395,0.91874
364.679,114.474,-2.6399,0.09411656,0.91828
365.379,114.703,-2.64309,0.09207698,0.91783
366.079,114.931,-2.64452,0.08988838,0.91737
366.779,115.158,-2.64721,0.0930003,0.91692
367.479,115.3853,-2.65091,0.09299557,0.91646
368.179,115.614,-2.65352,0.09125501,0.916
368.879,115.844,-2.65495,0.08986667,0.91555
369.579,116.075,-2.65793,0.09491279,0.91509
370.279,116.305,-2.66009,0.09403815,0.91463
370.979,116.535,-2.66276,0.09454432,0.91417
371.679,116.765,-2.66672,0.0942905,0.91371
372.379,116.994,-2.66792,0.09430286,0.91325
373.079,117.224,-2.67069,0.09386408,0.91278
373.779,117.453,-2.67361,0.09235167,0.91232
374.479,117.6843,-2.67624,0.09328126,0.91186
375.179,117.915,-2.67887,0.09085405,0.9114
375.879,118.146,-2.68072,0.0928113,0.91093
376.579,118.376,-2.68476,0.09290868,0.91047
377.279,118.606,-2.68753,0.0943725,0.91
377.979,118.836,-2.6874,0.09208115,0.90953
378.679,119.065,-2.6911,0.09415999,0.90907
379.379,119.294,-2.69301,0.09687255,0.9086
380.079,119.523,-2.69694,0.09621507,0.90813
380.779,119.7537,-2.69964,0.09573572,0.90766
381.479,119.984,-2.70223,0.09782679,0.90719
382.179,120.2141,-2.70355,0.09432535,0.90672
382.879,120.444,-2.70618,0.0946028,0.90625
383.579,120.6737,-2.70971,0.0977909,0.90578
384.279,120.904,-2.70981,0.09311233,0.90531
384.979,121.135,-2.71308,0.09709792,0.90484
385.679,121.365,-2.71606,0.09341771,0.90436
386.379,121.5951,-2.71855,0.09548947,0.90389
387.079,121.825,-2.71974,0.09599853,0.90342
387.779,122.055,-2.7223,0.09531404,0.90294
388.479,122.285,-2.72494,0.09680903,0.90247
389.179,122.515,-2.72751,0.09505665,0.90199
389.879,122.744,-2.72889,0.0984064,0.90151
390.579,122.973,-2.73028,0.09801584,0.90104
391.279,123.202,-2.73284,0.09691792,0.90056
391.979,123.432,-2.73547,0.09657514,0.90008
392.679,123.662,-2.73809,0.09611055,0.8996
393.379,123.893,-2.73976,0.094635,0.89912
394.079,124.123,-2.74156,0.09665356,0.89864
394.779,124.355,-2.74502,0.09648867,0.89816
395.479,124.586,-2.74572,0.09639326,0.89768
396.179,124.816,-2.74927,0.09974982,0.89719
396.879,125.046,-2.75092,0.09821791,0.89671
397.579,125.276,-2.75191,0.09932985,0.89623
398.279,125.507,-2.75232,0.09834862,0.89574
398.979,125.737,-2.7562,0.09928307,0.89526
399.679,125.967,-2.75885,0.10535,0.89477
400.379,126.196,-2.75918,0.10166,0.89429
401.079,126.426,-2.76239,0.10492,0.8938
401.779,126.656,-2.76386,0.10229,0.89331
402.479,126.8873,-2.76871,0.10235,0.89283
403.179,127.1198,-2.77001,0.10377,0.89234
403.879,127.3528,-2.77002,0.1041,0.89185
404.579,127.5849,-2.77265,0.10129,0.89136
405.279,127.817,-2.77396,0.10409,0.89087
405.979,128.048,-2.7766,0.10414,0.89038
406.679,128.28,-2.7789,0.10431,0.88989
407.379,128.512,-2.78055,0.10542,0.8894
408.079,128.743,-2.78156,0.10578,0.8889
408.779,128.974,-2.78351,0.10698,0.88841
409.479,129.206,-2.78485,0.10702,0.88792
410.179,129.436,-2.78704,0.11018,0.88742
410.879,129.666,-2.78944,0.10921,0.88693
411.579,129.895,-2.79204,0.11148,0.88643
412.279,130.127,-2.79321,0.10996,0.88594
412.979,130.359,-2.79469,0.10854,0.88544
413.679,130.591,-2.79601,0.1105,0.88494
414.379,130.823,-2.79764,0.11128,0.88444
415.079,131.055,-2.79996,0.11104,0.88395
415.779,131.287,-2.80127,0.11274,0.88345
416.479,131.518,-2.80389,0.1123,0.88295
417.179,131.748,-2.80424,0.11273,0.88245
417.879,131.978,-2.80733,0.11276,0.88195
418.579,132.209,-2.80818,0.11639,0.88144
419.279,132.44,-2.81064,0.11571,0.88094
419.979,132.67,-2.81214,0.11637,0.88044
420.679,132.9,-2.81247,0.11629,0.87994
421.379,133.132,-2.81509,0.11806,0.87943
422.079,133.363,-2.81675,0.11727,0.87893
422.779,133.5939,-2.81806,0.11928,0.87842
423.479,133.826,-2.81938,0.11755,0.87792
424.179,134.057,-2.82117,0.11834,0.87741
424.879,134.288,-2.82233,0.11868,0.87691
425.579,134.519,-2.82496,0.11746,0.8764
426.279,134.75,-2.82628,0.11791,0.87589
426.979,134.981,-2.82828,0.12065,0.87538
427.679,135.213,-2.82933,0.11784,0.87488
428.379,135.444,-2.83045,0.12047,0.87437
429.079,135.6761,-2.83224,0.11981,0.87386
429.779,135.908,-2.83353,0.12051,0.87335
430.479,136.14,-2.8335,0.11909,0.87283
431.179,136.372,-2.83493,0.11801,0.87232
431.879,136.606,-2.83778,0.12011,0.87181
432.579,136.838,-2.83978,0.11912,0.8713
433.279,137.07,-2.84206,0.12206,0.87078
433.979,137.302,-2.84214,0.12639,0.87027
434.679,137.533,-2.8434,0.12311,0.86976
435.379,137.764,-2.8447,0.12304,0.86924
436.079,137.995,-2.84674,0.12406,0.86873
436.779,138.226,-2.848,0.12411,0.86821
437.479,138.458,-2.85069,0.12595,0.86769
438.179,138.6897,-2.85099,0.1245,0.86718
438.879,138.922,-2.85228,0.12665,0.86666
439.579,139.153,-2.8536,0.12602,0.86614
440.279,139.385,-2.85557,0.12701,0.86562
440.979,139.616,-2.85689,0.1306,0.8651
441.679,139.8483,-2.8588,0.13169,0.86458
442.379,140.08,-2.86021,0.13349,0.86406
443.079,140.31,-2.86281,0.13301,0.86354
443.779,140.54,-2.86376,0.13392,0.86302
444.479,140.771,-2.86382,0.13419,0.8625
445.179,141.003,-2.86565,0.13821,0.86197
445.879,141.234,-2.86774,0.14026,0.86145
446.579,141.467,-2.86844,0.13997,0.86093
447.279,141.699,-2.86971,0.14554,0.8604
447.979,141.931,-2.87062,0.14362,0.85988
448.679,142.1628,-2.87048,0.14422,0.85935
449.379,142.3936,-2.87301,0.14631,0.85883
450.079,142.625,-2.87334,0.14703,0.8583
450.779,142.856,-2.87532,0.14887,0.85777
451.479,143.089,-2.87663,0.14857,0.85724
452.179,143.322,-2.87794,0.15058,0.85672
452.879,143.556,-2.87911,0.14808,0.85619
453.579,143.788,-2.87935,0.14954,0.85566
454.279,144.02,-2.88061,0.15133,0.85513
454.979,144.252,-2.88288,0.14728,0.8546
455.679,144.483,-2.88321,0.14999,0.85407
456.379,144.716,-2.88585,0.14974,0.85354
457.079,144.947,-2.88584,0.14585,0.853
457.779,145.1789,-2.8865,0.14532,0.85247
458.479,145.4111,-2.8879,0.14767,0.85194
459.179,145.644,-2.8888,0.14498,0.8514
459.879,145.8758,-2.88881,0.14576,0.85087
460.579,146.108,-2.89013,0.14661,0.85034
461.279,146.34,-2.89099,0.14863,0.8498
461.979,146.572,-2.89243,0.14671,0.84927
462.679,146.803,-2.89467,0.15035,0.84873
463.379,147.034,-2.89507,0.14827,0.84819
464.079,147.2661,-2.89605,0.14995,0.84766
464.779,147.499,-2.89698,0.14634,0.84712
465.479,147.731,-2.8983,0.14147,0.84658
466.179,147.964,-2.90032,0.13883,0.84604
466.879,148.196,-2.90036,0.13791,0.8455
467.579,148.428,-2.90164,0.13445,0.84496
468.279,148.661,-2.90157,0.13509,0.84442
468.979,148.893,-2.90426,0.13607,0.84388
469.679,149.126,-2.9046,0.13438,0.84334
470.379,149.359,-2.90723,0.13476,0.8428
471.079,149.592,-2.90651,0.13495,0.84226
471.779,149.8244,-2.90644,0.13348,0.84171
472.479,150.057,-2.90888,0.1345,0.84117
473.179,150.288,-2.90888,0.13486,0.84063
473.879,150.519,-2.91032,0.13491,0.84008
474.579,150.7512,-2.91154,0.13438,0.83954
475.279,150.983,-2.91316,0.13539,0.83899
475.979,151.216,-2.91315,0.13638,0.83845
476.679,151.449,-2.91678,0.13258,0.8379
477.379,151.683,-2.91546,0.13245,0.83735
478.079,151.917,-2.91678,0.13228,0.8368
478.779,152.151,-2.91811,0.13099,0.83626
479.479,152.385,-2.91821,0.12894,0.83571
480.179,152.62,-2.91941,0.131,0.83516
480.879,152.853,-2.91993,0.12928,0.83461
481.579,153.086,-2.9204,0.12765,0.83406
482.279,153.319,-2.92313,0.1304,0.83351
482.979,153.552,-2.92277,0.1259,0.83296
483.679,153.785,-2.92434,0.12785,0.83241
484.379,154.018,-2.92401,0.12587,0.83186
485.079,154.251,-2.92632,0.12694,0.8313
485.779,154.484,-2.92763,0.12731,0.83075
486.479,154.716,-2.92796,0.12529,0.8302
487.179,154.949,-2.92928,0.12787,0.82964
487.879,155.1814,-2.93059,0.1277,0.82909
488.579,155.414,-2.93113,0.12401,0.82854
489.279,155.645,-2.93089,0.12242,0.82798
489.979,155.877,-2.93228,0.12235,0.82742
490.679,156.109,-2.93451,0.1215,0.82687
491.379,156.342,-2.93628,0.12286,0.82631
492.079,156.574,-2.93564,0.12334,0.82575
492.779,156.806,-2.93598,0.12379,0.8252
493.479,157.038,-2.93663,0.12047,0.82464
494.179,157.271,-2.93774,0.12166,0.82408
494.879,157.504,-2.9387,0.12172,0.82352
495.579,157.738,-2.93893,0.11854,0.82296
496.279,157.972,-2.94013,0.12049,0.8224
496.979,158.206,-2.93894,0.11936,0.82184
497.679,158.439,-2.94025,0.12094,0.82128
498.379,158.67,-2.94123,0.12037,0.82072
499.079,158.9,-2.94124,0.12407,0.82016
499.779,159.132,-2.94386,0.11979,0.81959
500.479,159.366,-2.94285,0.11752,0.81903
501.179,159.6,-2.94551,0.11825,0.81847
501.879,159.836,-2.9468,0.11724,0.8179
502.579,160.071,-2.94725,0.1125,0.81734
503.279,160.306,-2.94745,0.11355,0.81677
503.979,160.541,-2.94749,0.11251,0.81621
504.679,160.775,-2.94881,0.11146,0.81564
505.379,161.008,-2.95026,0.11202,0.81508
506.079,161.241,-2.95036,0.10814,0.81451
506.779,161.473,-2.95142,0.10772,0.81394
507.479,161.707,-2.95004,0.10723,0.81338
508.179,161.94,-2.9521,0.10755,0.81281
508.879,162.174,-2.95407,0.10382,0.81224
509.579,162.408,-2.95553,0.10033,0.81167
510.279,162.643,-2.95396,0.10096,0.8111
510.979,162.877,-2.95506,0.10033,0.81053
511.679,163.11,-2.95523,0.10012,0.80996
512.379,163.3431,-2.95539,0.09998939,0.80939
513.079,163.576,-2.95769,0.09399266,0.80882
513.779,163.808,-2.95756,0.09722622,0.80825
514.479,164.041,-2.9574,0.09600789,0.80768
515.179,164.273,-2.9576,0.09731317,0.8071
515.879,164.506,-2.96036,0.09656071,0.80653
516.579,164.739,-2.959,0.09635805,0.80596
517.279,164.972,-2.96064,0.09250702,0.80538
517.979,165.206,-2.96165,0.09383895,0.80481
518.679,165.44,-2.96128,0.09428505,0.80424
519.379,165.6741,-2.96213,0.09354645,0.80366
520.079,165.908,-2.96427,0.09443908,0.80309
520.779,166.1416,-2.9623,0.09721706,0.80251
521.479,166.376,-2.96479,0.09564732,0.80193
522.179,166.609,-2.96557,0.09469761,0.80136
522.879,166.8429,-2.96553,0.09483001,0.80078
523.579,167.076,-2.96626,0.09785461,0.8002
524.279,167.31,-2.96657,0.09707294,0.79962
524.979,167.542,-2.96796,0.09399276,0.79904
525.679,167.776,-2.9692,0.09573879,0.79847
526.379,168.009,-2.97052,0.09650391,0.79789
527.079,168.243,-2.97052,0.09330334,0.79731
527.779,168.477,-2.97118,0.09312691,0.79673
528.479,168.711,-2.97118,0.09700923,0.79615
529.179,168.945,-2.97354,0.09326432,0.79556
529.879,169.179,-2.97184,0.09244368,0.79498
530.579,169.412,-2.9736,0.09358894,0.7944
531.279,169.646,-2.97229,0.09125336,0.79382
531.979,169.879,-2.9748,0.09178649,0.79324
532.679,170.113,-2.97611,0.09706298,0.79265
533.379,170.346,-2.97513,0.09521621,0.79207
534.079,170.58,-2.97645,0.09559155,0.79149
534.779,170.8136,-2.97615,0.09489726,0.7909
535.479,171.048,-2.97743,0.09420396,0.79032
536.179,171.282,-2.97743,0.09438562,0.78973
536.879,171.517,-2.97611,0.09401642,0.78914
537.579,171.751,-2.97941,0.09220051,0.78856
538.279,171.985,-2.97936,0.09294488,0.78797
538.979,172.219,-2.98016,0.09336774,0.78739
539.679,172.453,-2.97942,0.09220747,0.7868
540.379,172.687,-2.98119,0.09165669,0.78621
541.079,172.921,-2.98147,0.09137152,0.78562
541.779,173.1534,-2.98072,0.08974907,0.78503
542.479,173.386,-2.98204,0.0914002,0.78445
543.179,173.619,-2.98336,0.08753458,0.78386
543.879,173.853,-2.98342,0.09169177,0.78327
544.579,174.087,-2.98371,0.09234522,0.78268
545.279,174.321,-2.98432,0.08685951,0.78209
545.979,174.556,-2.98467,0.08662764,0.78149
546.679,174.79,-2.98534,0.09183533,0.7809
547.379,175.022,-2.98632,0.09243124,0.78031
548.079,175.2549,-2.98669,0.09440553,0.77972
548.779,175.487,-2.98763,0.09553765,0.77913
549.479,175.72,-2.98872,0.09556179,0.77853
550.179,175.955,-2.98796,0.09415848,0.77794
550.879,176.191,-2.98918,0.09755283,0.77735
551.579,176.428,-2.989,0.09799477,0.77675
552.279,176.665,-2.99092,0.09572018,0.77616
552.979,176.8995,-2.9909,0.09641156,0.77556
553.679,177.134,-2.99424,0.09797085,0.77497
554.379,177.368,-2.9933,0.09701042,0.77437
555.079,177.602,-2.99453,0.10212,0.77378
555.779,177.834,-2.99453,0.10114,0.77318
556.479,178.067,-2.99454,0.09800625,0.77258
557.179,178.299,-2.9952,0.1009,0.77199
557.879,178.532,-2.99486,0.10317,0.77139
558.579,178.765,-2.99656,0.10434,0.77079
559.279,179,-2.99553,0.10427,0.77019
559.979,179.235,-2.99683,0.10616,0.7696
560.679,179.4693,-2.99816,0.1052,0.769
561.379,179.704,-2.99744,0.102,0.7684
562.079,179.941,-2.99757,0.10237,0.7678
562.779,180.178,-2.99934,0.10128,0.7672
563.479,180.414,-2.99948,0.10167,0.7666
564.179,180.65,-2.99948,0.10559,0.766
564.879,180.884,-3.00211,0.10747,0.7654
565.579,181.117,-3.00343,0.10502,0.76479
566.279,181.349,-3.00079,0.10945,0.76419
566.979,181.5817,-3.00343,0.10949,0.76359
567.679,181.814,-3.00362,0.1088,0.76299
568.379,182.048,-3.00474,0.10827,0.76238
569.079,182.282,-3.0054,0.10511,0.76178
569.779,182.516,-3.00606,0.10449,0.76118
570.479,182.7511,-3.00606,0.10342,0.76057
571.179,182.986,-3.00507,0.10545,0.75997
571.879,183.221,-3.00639,0.10555,0.75936
572.579,183.458,-3.00682,0.10766,0.75876
573.279,183.694,-3.00869,0.1107,0.75815
573.979,183.93,-3.0077,0.11101,0.75755
574.679,184.165,-3.00995,0.1074,0.75694
575.379,184.401,-3.00902,0.11087,0.75634
576.079,184.636,-3.00935,0.10905,0.75573
576.779,184.871,-3.00836,0.10902,0.75512
577.479,185.1062,-3.00968,0.11079,0.75452
578.179,185.341,-3.01141,0.11183,0.75391
578.879,185.575,-3.01132,0.11172,0.7533
579.579,185.809,-3.01159,0.11104,0.75269
580.279,186.044,-3.01264,0.1176,0.75208
580.979,186.281,-3.01264,0.11109,0.75147
581.679,186.518,-3.01461,0.11677,0.75086
582.379,186.753,-3.01401,0.11675,0.75025
583.079,186.988,-3.01388,0.1171,0.74964
583.779,187.222,-3.0155,0.11892,0.74903
584.479,187.456,-3.01682,0.11898,0.74842
585.179,187.6898,-3.01744,0.12061,0.74781
585.879,187.925,-3.01709,0.12084,0.7472
586.579,188.16,-3.01846,0.1226,0.74659
587.279,188.396,-3.01874,0.12271,0.74598
587.979,188.631,-3.01945,0.11915,0.74536
588.679,188.866,-3.01945,0.12039,0.74475
589.379,189.101,-3.01978,0.12141,0.74414
590.079,189.335,-3.02076,0.12304,0.74352
590.779,189.568,-3.02206,0.11804,0.74291
591.479,189.803,-3.02207,0.12616,0.7423
592.179,190.0377,-3.0241,0.12249,0.74168
592.879,190.274,-3.02414,0.12702,0.74107
593.579,190.511,-3.02537,0.12603,0.74045
594.279,190.747,-3.02438,0.12693,0.73984
594.979,190.9836,-3.0257,0.12654,0.73922
595.679,191.219,-3.02668,0.12633,0.73861
596.379,191.455,-3.02767,0.12901,0.73799
597.079,191.691,-3.02788,0.13135,0.73737
597.779,191.927,-3.02841,0.13249,0.73676
598.479,192.162,-3.02978,0.13199,0.73614
599.179,192.398,-3.02898,0.13305,0.73552
599.879,192.63,-3.02998,0.13098,0.7349
600.579,192.863,-3.03141,0.13395,0.73429
601.279,193.097,-3.03052,0.13447,0.73367
601.979,193.331,-3.03162,0.13864,0.73305
602.679,193.565,-3.03292,0.13917,0.73243
603.379,193.799,-3.03294,0.13758,0.73181
604.079,194.034,-3.03424,0.13698,0.73119
604.779,194.269,-3.03524,0.13839,0.73057
605.479,194.5049,-3.03614,0.13677,0.72995
606.179,194.741,-3.03583,0.13749,0.72933
606.879,194.977,-3.03459,0.13601,0.72871
607.579,195.213,-3.03557,0.13584,0.72809
608.279,195.448,-3.03756,0.13563,0.72747
608.979,195.684,-3.03624,0.13524,0.72685
609.679,195.917,-3.0382,0.13349,0.72623
610.379,196.151,-3.04019,0.13732,0.7256
611.079,196.386,-3.03886,0.13424,0.72498
611.779,196.622,-3.03886,0.14037,0.72436
612.479,196.858,-3.04014,0.13736,0.72374
613.179,197.094,-3.04083,0.14247,0.72311
613.879,197.33,-3.04247,0.14123,0.72249
614.579,197.566,-3.04149,0.14175,0.72187
615.279,197.801,-3.04411,0.13955,0.72124
615.979,198.036,-3.04281,0.14004,0.72062
616.679,198.271,-3.04412,0.14085,0.71999
617.379,198.506,-3.04543,0.14086,0.71937
618.079,198.741,-3.04577,0.14125,0.71874
618.779,198.977,-3.04581,0.14306,0.71812
619.479,199.212,-3.0461,0.14438,0.71749
620.179,199.447,-3.04741,0.14102,0.71687
620.879,199.681,-3.0484,0.14611,0.71624
621.579,199.915,-3.0484,0.14292,0.71561
622.279,200.15,-3.04675,0.14201,0.71499
622.979,200.385,-3.04715,0.14269,0.71436
623.679,200.6182,-3.04781,0.14246,0.71373
624.379,200.852,-3.04736,0.1414,0.7131
625.079,201.085,-3.04873,0.14043,0.71248
625.779,201.32,-3.04803,0.14183,0.71185
626.479,201.5567,-3.04904,0.14179,0.71122
627.179,201.793,-3.04908,0.14089,0.71059
627.879,202.029,-3.04972,0.14069,0.70996
628.579,202.264,-3.05103,0.14237,0.70933
629.279,202.5,-3.05103,0.14108,0.70871
629.979,202.736,-3.05103,0.14501,0.70808
630.679,202.972,-3.05301,0.14233,0.70745
631.379,203.2087,-3.05235,0.14087,0.70682
632.079,203.445,-3.05235,0.14051,0.70619
632.779,203.681,-3.05261,0.14024,0.70556
633.479,203.917,-3.05103,0.14296,0.70493
634.179,204.153,-3.05197,0.14174,0.70429
634.879,204.389,-3.0536,0.14262,0.70366
635.579,204.625,-3.055,0.14255,0.70303
636.279,204.861,-3.05366,0.14532,0.7024
636.979,205.097,-3.05597,0.14421,0.70177
637.679,205.333,-3.05465,0.14692,0.70114
638.379,205.568,-3.05399,0.14579,0.7005
639.079,205.803,-3.05399,0.15185,0.69987
639.779,206.038,-3.0553,0.14746,0.69924
640.479,206.274,-3.05526,0.1468,0.69861
641.179,206.51,-3.05529,0.14429,0.69797
641.879,206.747,-3.05376,0.15053,0.69734
642.579,206.983,-3.05387,0.14632,0.69671
643.279,207.218,-3.05648,0.14862,0.69607
643.979,207.452,-3.05787,0.14849,0.69544
644.679,207.687,-3.05718,0.15084,0.6948
645.379,207.923,-3.0591,0.15026,0.69417
646.079,208.159,-3.05874,0.15311,0.69353
646.779,208.395,-3.05751,0.15491,0.6929
647.479,208.631,-3.05948,0.15396,0.69226
648.179,208.867,-3.05816,0.1595,0.69163
648.879,209.102,-3.0588,0.16008,0.69099
649.579,209.337,-3.06084,0.15729,0.69036
650.279,209.573,-3.05948,0.15912,0.68972
650.979,209.809,-3.0608,0.15835,0.68908
651.679,210.044,-3.06122,0.15827,0.68845
652.379,210.279,-3.06108,0.15679,0.68781
653.079,210.514,-3.06112,0.15792,0.68717
653.779,210.749,-3.06112,0.1553,0.68654
654.479,210.984,-3.06178,0.1589,0.6859
655.179,211.219,-3.0631,0.16395,0.68526
655.879,211.455,-3.06267,0.16285,0.68462
656.579,211.691,-3.0631,0.16393,0.68399
657.279,211.927,-3.06299,0.16145,0.68335
657.979,212.163,-3.06277,0.16618,0.68271
658.679,212.3995,-3.06277,0.16398,0.68207
659.379,212.6355,-3.06309,0.16341,0.68143
660.079,212.872,-3.06346,0.1632,0.68079
660.779,213.108,-3.06483,0.16712,0.68016
661.479,213.343,-3.06382,0.16245,0.67952
662.179,213.578,-3.06408,0.16946,0.67888
662.879,213.813,-3.06374,0.16796,0.67824
663.579,214.048,-3.06441,0.16809,0.6776
664.279,214.281,-3.06442,0.16671,0.67696
664.979,214.516,-3.06311,0.16979,0.67632
665.679,214.752,-3.06434,0.16829,0.67568
666.379,214.99,-3.06448,0.17032,0.67504
667.079,215.2261,-3.0652,0.17036,0.6744
667.779,215.463,-3.0651,0.16947,0.67376
668.479,215.7001,-3.06639,0.17155,0.67311
669.179,215.937,-3.0654,0.17109,0.67247
669.879,216.172,-3.06639,0.17161,0.67183
670.579,216.406,-3.06804,0.17434,0.67119
671.279,216.642,-3.06804,0.17285,0.67055
671.979,216.878,-3.06811,0.17409,0.66991
672.679,217.115,-3.06935,0.17464,0.66926
673.379,217.352,-3.06737,0.17692,0.66862
674.079,217.588,-3.06811,0.1759,0.66798
674.779,217.825,-3.06856,0.17677,0.66734
675.479,218.062,-3.07001,0.17964,0.66669
676.179,218.298,-3.0706,0.17419,0.66605
676.879,218.533,-3.07165,0.17384,0.66541
677.579,218.768,-3.071,0.17628,0.66477
678.279,219.003,-3.07034,0.18397,0.66412
678.979,219.238,-3.07296,0.18325,0.66348
679.679,219.474,-3.07298,0.18266,0.66284
680.379,219.71,-3.07431,0.18752,0.66219
681.079,219.947,-3.07694,0.18501,0.66155
681.779,220.183,-3.07461,0.18711,0.6609
682.479,220.4183,-3.07461,0.18939,0.66026
683.179,220.655,-3.07503,0.18819,0.65962
683.879,220.892,-3.07284,0.18882,0.65897
684.579,221.128,-3.072,0.18809,0.65833
685.279,221.3643,-3.07165,0.18504,0.65768
685.979,221.601,-3.07169,0.18646,0.65704
686.679,221.837,-3.07196,0.18667,0.65639
687.379,222.073,-3.07461,0.18667,0.65575
688.079,222.308,-3.07642,0.19224,0.6551
688.779,222.544,-3.07724,0.1884,0.65446
689.479,222.779,-3.07659,0.1866,0.65381
690.179,223.016,-3.07525,0.1813,0.65316
690.879,223.252,-3.07459,0.18449,0.65252
691.579,223.488,-3.07519,0.18599,0.65187
692.279,223.724,-3.07593,0.18604,0.65123
692.979,223.961,-3.07723,0.18973,0.65058
693.679,224.196,-3.07855,0.19199,0.64993
694.379,224.432,-3.07724,0.18892,0.64929
695.079,224.6676,-3.07823,0.19273,0.64864
695.779,224.904,-3.07823,0.19846,0.64799
696.479,225.139,-3.07823,0.19841,0.64735
697.179,225.375,-3.07856,0.19922,0.6467
697.879,225.611,-3.08054,0.20207,0.64605
698.579,225.8473,-3.08119,0.19933,0.6454
699.279,226.083,-3.08448,0.20079,0.64476
699.979,226.319,-3.08504,0.20388,0.64411
700.679,226.555,-3.08276,0.19877,0.64346
701.379,226.792,-3.08125,0.20046,0.64281
702.079,227.029,-3.07873,0.19887,0.64217
702.779,227.265,-3.07626,0.20607,0.64152
703.479,227.501,-3.07692,0.20653,0.64087
704.179,227.737,-3.07956,0.20578,0.64022
704.879,227.973,-3.08125,0.20937,0.63957
705.579,228.2088,-3.08514,0.20774,0.63893
706.279,228.445,-3.08515,0.20582,0.63828
706.979,228.681,-3.0871,0.20311,0.63763
707.679,228.918,-3.0858,0.20487,0.63698
708.379,229.154,-3.08374,0.20629,0.63633
709.079,229.391,-3.08211,0.20603,0.63568
709.779,229.629,-3.08055,0.20604,0.63503
710.479,229.868,-3.08152,0.21287,0.63438
711.179,230.107,-3.08278,0.21379,0.63374
711.879,230.345,-3.0839,0.2114,0.63309
712.579,230.582,-3.08284,0.2138,0.63244
713.279,230.818,-3.08547,0.21266,0.63179
713.979,231.053,-3.08691,0.21496,0.63114
714.679,231.288,-3.08745,0.21427,0.63049
715.379,231.523,-3.08679,0.21197,0.62984
716.079,231.758,-3.08772,0.21292,0.62919
716.779,231.994,-3.08913,0.21425,0.62854
717.479,232.229,-3.08875,0.21179,0.62789
718.179,232.466,-3.08876,0.21444,0.62724
718.879,232.703,-3.08607,0.21611,0.62659
719.579,232.94,-3.08616,0.21153,0.62594
720.279,233.178,-3.08785,0.21094,0.62529
720.979,233.416,-3.08744,0.21796,0.62464
721.679,233.653,-3.08869,0.21766,0.62399
722.379,233.891,-3.08994,0.21749,0.62334
723.079,234.128,-3.09045,0.21081,0.62269
723.779,234.366,-3.09041,0.21324,0.62204
724.479,234.603,-3.08941,0.2124,0.62139
725.179,234.84,-3.0878,0.21138,0.62074
725.879,235.077,-3.08678,0.20793,0.62008
726.579,235.313,-3.08943,0.20853,0.61943
727.279,235.55,-3.09074,0.20735,0.61878
727.979,235.786,-3.09008,0.21103,0.61813
728.679,236.023,-3.0925,0.21419,0.61748
729.379,236.26,-3.09205,0.21429,0.61683
730.079,236.497,-3.08992,0.21433,0.61618
730.779,236.732,-3.09203,0.21467,0.61553
731.479,236.967,-3.08679,0.2105,0.61488
732.179,237.202,-3.08381,0.2133,0.61422
732.879,237.438,-3.0811,0.21139,0.61357
733.579,237.677,-3.0819,0.21319,0.61292
734.279,237.916,-3.08314,0.21392,0.61227
734.979,238.154,-3.09223,0.21469,0.61162
735.679,238.391,-3.09315,0.21532,0.61097
736.379,238.627,-3.09735,0.2126,0.61032
737.079,238.863,-3.0982,0.21046,0.60966
737.779,239.0999,-3.0982,0.21068,0.60901
738.479,239.337,-3.09748,0.21008,0.60836
739.179,239.575,-3.09708,0.21171,0.60771
739.879,239.812,-3.09721,0.21481,0.60706
740.579,240.048,-3.09723,0.20879,0.60641
741.279,240.283,-3.09984,0.20925,0.60575
741.979,240.519,-3.09852,0.21281,0.6051
742.679,240.756,-3.09819,0.21434,0.60445
743.379,240.993,-3.0971,0.21473,0.6038
744.079,241.229,-3.09819,0.21716,0.60315
744.779,241.466,-3.09951,0.21774,0.60249
745.479,241.703,-3.10022,0.21101,0.60184
746.179,241.941,-3.09886,0.21588,0.60119
746.879,242.178,-3.09886,0.21453,0.60054
747.579,242.416,-3.09952,0.21298,0.59989
748.279,242.655,-3.09674,0.21387,0.59923
748.979,242.893,-3.09787,0.21832,0.59858
749.679,243.13,-3.09543,0.22128,0.59793
750.379,243.366,-3.0959,0.22567,0.59728
751.079,243.603,-3.09458,0.22009,0.59662
751.779,243.839,-3.09589,0.21849,0.59597
752.479,244.075,-3.09722,0.219,0.59532
753.179,244.312,-3.09982,0.21914,0.59467
753.879,244.549,-3.10248,0.22018,0.59402
754.579,244.786,-3.10341,0.21764,0.59336
755.279,245.023,-3.10618,0.21531,0.59271
755.979,245.26,-3.10387,0.21501,0.59206
756.679,245.498,-3.10446,0.21283,0.59141
757.379,245.736,-3.10478,0.2163,0.59075
758.079,245.974,-3.10412,0.21531,0.5901
758.779,246.212,-3.10412,0.21189,0.58945
759.479,246.45,-3.10412,0.21376,0.5888
760.179,246.688,-3.10412,0.21672,0.58814
760.879,246.923,-3.10416,0.21971,0.58749
761.579,247.159,-3.10379,0.22052,0.58684
762.279,247.3948,-3.10345,0.21755,0.58619
762.979,247.632,-3.10737,0.22143,0.58553
763.679,247.87,-3.10623,0.21748,0.58488
764.379,248.108,-3.10643,0.21585,0.58423
765.079,248.346,-3.10628,0.2152,0.58358
765.779,248.584,-3.10347,0.21291,0.58293
766.479,248.821,-3.10543,0.21522,0.58227
767.179,249.0579,-3.10595,0.21737,0.58162
767.879,249.294,-3.10577,0.21141,0.58097
768.579,249.529,-3.10706,0.21332,0.58032
769.279,249.764,-3.10773,0.21392,0.57966
769.979,250,-3.10675,0.21393,0.57901
770.679,250.236,-3.10544,0.21831,0.57836
771.379,250.474,-3.10613,0.21556,0.57771
772.079,250.711,-3.10547,0.21208,0.57706
772.779,250.947,-3.10577,0.21233,0.5764
773.479,251.184,-3.10577,0.21255,0.57575
774.179,251.422,-3.10767,0.21537,0.5751
774.879,251.66,-3.10876,0.21256,0.57445
775.579,251.899,-3.10872,0.21232,0.5738
776.279,252.137,-3.11063,0.20921,0.57314
776.979,252.373,-3.10975,0.21103,0.57249
777.679,252.61,-3.11006,0.21104,0.57184
778.379,252.848,-3.10905,0.2093,0.57119
779.079,253.0854,-3.11038,0.21076,0.57054
779.779,253.323,-3.11069,0.2142,0.56988
780.479,253.561,-3.11233,0.21875,0.56923
781.179,253.798,-3.11391,0.22229,0.56858
781.879,254.035,-3.11534,0.21883,0.56793
782.579,254.273,-3.11487,0.21923,0.56728
783.279,254.512,-3.1153,0.21909,0.56663
783.979,254.75,-3.1153,0.22101,0.56597
784.679,254.987,-3.11532,0.22671,0.56532
785.379,255.224,-3.11611,0.22346,0.56467
786.079,255.461,-3.11573,0.22897,0.56402
786.779,255.697,-3.11568,0.2252,0.56337
787.479,255.932,-3.11432,0.2263,0.56272
788.179,256.168,-3.113,0.23107,0.56207
788.879,256.403,-3.11234,0.22989,0.56141
789.579,256.64,-3.11234,0.22624,0.56076
790.279,256.876,-3.11168,0.2314,0.56011
790.979,257.114,-3.113,0.22974,0.55946
791.679,257.353,-3.113,0.2311,0.55881
792.379,257.591,-3.11365,0.23194,0.55816
793.079,257.83,-3.11476,0.22941,0.55751
793.779,258.068,-3.11629,0.22748,0.55686
794.479,258.3066,-3.11498,0.22462,0.55621
795.179,258.545,-3.11632,0.22069,0.55556
795.879,258.782,-3.11695,0.22749,0.55491
796.579,259.02,-3.11695,0.22928,0.55425
797.279,259.258,-3.11958,0.23037,0.5536
797.979,259.495,-3.11958,0.22996,0.55295
798.679,259.732,-3.11956,0.2295,0.5523
799.379,259.969,-3.1209,0.23157,0.55165