File: 01_Data/Pine_Siding/STA/N2/3K_min/Pine_Siding_STA_N2_3KData_211606_R1.csv
##Temp./Â°C,Time/min,Mass loss(subtr.2)/mg,DSC(subtr.2)/mW,Sensit./(uV/mW)
48.875,10.00917,-0.04245,0.001306224,0.58408
49.475,12.05269,-0.04870553,0.05860772,0.58436
50.075,12.65793,-0.04881025,0.08894883,0.58465
50.675,13.1267,-0.04744085,0.10641,0.58493
51.275,13.5311,-0.04738498,0.12762,0.58521
51.875,13.8979,-0.05013045,0.14368,0.58549
52.475,14.24288,-0.05265053,0.15761,0.58577
53.075,14.56962,-0.05265,0.15472,0.58605
53.675,14.8806,-0.05385991,0.16124,0.58633
54.275,15.1797,-0.05242779,0.17834,0.58661
54.875,15.46708,-0.05159927,0.18959,0.58688
55.475,15.7471,-0.05374978,0.2085,0.58716
56.075,16.01997,-0.05648,0.21469,0.58743
56.675,16.28608,-0.05648939,0.21546,0.5877
57.275,16.54533,-0.05650821,0.21652,0.58798
57.875,16.8,-0.0584598,0.2254,0.58825
58.475,17.0507,-0.05681973,0.23573,0.58852
59.075,17.2982,-0.05615605,0.24596,0.58879
59.675,17.54199,-0.05846003,0.25244,0.58906
60.275,17.78162,-0.05689426,0.25075,0.58932
60.875,18.018,-0.0640671,0.26229,0.58959
61.475,18.25189,-0.06094648,0.27699,0.58985
62.075,18.48461,-0.06036529,0.27716,0.59012
62.675,18.7138,-0.06292358,0.26787,0.59038
63.275,18.94132,-0.06339999,0.2664,0.59065
63.875,19.16668,-0.0647134,0.26781,0.59091
64.475,19.39152,-0.06471685,0.28136,0.59117
65.075,19.61358,-0.06615098,0.27385,0.59143
65.675,19.83367,-0.06600857,0.2822,0.59169
66.275,20.05225,-0.06764484,0.29176,0.59195
66.875,20.27032,-0.06724,0.29139,0.5922
67.475,20.48711,-0.06722696,0.29369,0.59246
68.075,20.70324,-0.07181547,0.28365,0.59271
68.675,20.91844,-0.07151187,0.30641,0.59297
69.275,21.1332,-0.07020283,0.31875,0.59322
69.875,21.34639,-0.06986425,0.33066,0.59347
70.475,21.55797,-0.07151001,0.32287,0.59373
71.075,21.76954,-0.07163621,0.31598,0.59398
71.675,21.98109,-0.0716167,0.33168,0.59423
72.275,22.19163,-0.07424905,0.32107,0.59447
72.875,22.40183,-0.07403507,0.3288,0.59472
73.475,22.6109,-0.07533977,0.32603,0.59497
74.075,22.81965,-0.07667027,0.31663,0.59521
74.675,23.02811,-0.07666951,0.32183,0.59546
75.275,23.23476,-0.07667,0.31547,0.5957
75.875,23.44179,-0.07732828,0.33365,0.59595
76.475,23.6481,-0.07871994,0.32712,0.59619
77.075,23.85439,-0.07865,0.31968,0.59643
77.675,24.06031,-0.07929928,0.33594,0.59667
78.275,24.26565,-0.08061929,0.32211,0.59691
78.875,24.47056,-0.08192997,0.3183,0.59715
79.475,24.67556,-0.08116735,0.32844,0.59738
80.075,24.88008,-0.08259,0.30454,0.59762
80.675,25.08418,-0.0812709,0.29625,0.59786
81.275,25.28814,-0.08157568,0.30843,0.59809
81.875,25.49162,-0.08425274,0.30765,0.59832
82.475,25.69555,-0.08423929,0.30027,0.59856
83.075,25.89848,-0.08423854,0.29595,0.59879
83.675,26.10199,-0.08554993,0.28566,0.59902
84.275,26.30477,-0.08536026,0.28493,0.59925
84.875,26.507,-0.08620386,0.29163,0.59948
85.475,26.7088,-0.08487088,0.2901,0.5997
86.075,26.91024,-0.0872,0.29334,0.59993
86.675,27.1116,-0.08720001,0.29338,0.60016
87.275,27.3123,-0.08751616,0.2926,0.60038
87.875,27.51274,-0.08885036,0.30392,0.60061
88.475,27.7126,-0.08714915,0.28755,0.60083
89.075,27.91265,-0.08754388,0.2971,0.60105
89.675,28.11253,-0.0901465,0.28389,0.60127
90.275,28.3114,-0.08994785,0.29481,0.60149
90.875,28.51,-0.08983445,0.30212,0.60171
91.475,28.7075,-0.09083164,0.31483,0.60193
92.075,28.90585,-0.08984127,0.30845,0.60215
92.675,29.10393,-0.09054048,0.31349,0.60236
93.275,29.3021,-0.0904983,0.30598,0.60258
93.875,29.5002,-0.09050018,0.31611,0.60279
94.475,29.69765,-0.09411109,0.29401,0.60301
95.075,29.895,-0.09411,0.30754,0.60322
95.675,30.09204,-0.09411329,0.30576,0.60343
96.275,30.28835,-0.09421993,0.31081,0.60364
96.875,30.48475,-0.09421999,0.31166,0.60385
97.475,30.68058,-0.09422503,0.31375,0.60406
98.075,30.87637,-0.095568,0.32163,0.60427
98.675,31.07165,-0.09558791,0.32977,0.60447
99.275,31.2668,-0.09553342,0.32908,0.60468
99.875,31.4614,-0.09489887,0.33921,0.60488
100.475,31.6567,-0.10038,0.33593,0.60509
101.075,31.85117,-0.09800471,0.34587,0.60529
101.675,32.04585,-0.09743337,0.34119,0.60549
102.275,32.24026,-0.09892092,0.3421,0.60569
102.875,32.4344,-0.10494,0.35024,0.60589
103.475,32.6282,-0.09830737,0.33946,0.60609
104.075,32.82225,-0.1007,0.35926,0.60629
104.675,33.01676,-0.10056,0.3727,0.60649
105.275,33.2113,-0.10058,0.36978,0.60668
105.875,33.40571,-0.10255,0.36015,0.60688
106.475,33.59998,-0.10156,0.35822,0.60707
107.075,33.79401,-0.10091,0.3445,0.60727
107.675,33.98754,-0.10354,0.35989,0.60746
108.275,34.18138,-0.10212,0.35967,0.60765
108.875,34.3743,-0.10343,0.35744,0.60784
109.475,34.56805,-0.10212,0.36161,0.60803
110.075,34.7622,-0.10465,0.35561,0.60822
110.675,34.95671,-0.10332,0.36199,0.60841
111.275,35.15041,-0.10419,0.36897,0.60859
111.875,35.34425,-0.10464,0.37788,0.60878
112.475,35.5383,-0.10464,0.37996,0.60896
113.075,35.73219,-0.10464,0.38246,0.60915
113.675,35.926,-0.10585,0.37783,0.60933
114.275,36.11947,-0.10715,0.37929,0.60951
114.875,36.31304,-0.10449,0.38468,0.60969
115.475,36.5071,-0.10694,0.38079,0.60987
116.075,36.70106,-0.10422,0.38576,0.61005
116.675,36.89537,-0.10812,0.3903,0.61023
117.275,37.0892,-0.10541,0.37621,0.61041
117.875,37.28252,-0.11056,0.38811,0.61058
118.475,37.4756,-0.10804,0.39002,0.61076
119.075,37.66867,-0.10804,0.38944,0.61093
119.675,37.86218,-0.10935,0.4031,0.6111
120.275,38.05492,-0.10881,0.39691,0.61128
120.875,38.24793,-0.10761,0.38994,0.61145
121.475,38.44072,-0.10837,0.40534,0.61162
122.075,38.6331,-0.10856,0.3979,0.61179
122.675,38.82588,-0.10837,0.3989,0.61196
123.275,39.01797,-0.10971,0.40737,0.61212
123.875,39.2105,-0.11122,0.39129,0.61229
124.475,39.40283,-0.10991,0.39503,0.61246
125.075,39.59531,-0.11089,0.39566,0.61262
125.675,39.78838,-0.10673,0.40225,0.61278
126.275,39.98097,-0.11199,0.39976,0.61295
126.875,40.17388,-0.11001,0.40217,0.61311
127.475,40.36567,-0.11145,0.40978,0.61327
128.075,40.55766,-0.11023,0.41001,0.61343
128.675,40.7499,-0.11462,0.409,0.61359
129.275,40.94184,-0.11189,0.41156,0.61375
129.875,41.1335,-0.10798,0.42018,0.6139
130.475,41.3247,-0.11133,0.42107,0.61406
131.075,41.51577,-0.11133,0.4197,0.61421
131.675,41.70726,-0.11034,0.42858,0.61437
132.275,41.8985,-0.11167,0.42667,0.61452
132.875,42.08952,-0.11166,0.42939,0.61467
133.475,42.2806,-0.11111,0.43099,0.61482
134.075,42.4721,-0.10917,0.41821,0.61497
134.675,42.66326,-0.11025,0.4248,0.61512
135.275,42.85522,-0.11308,0.42171,0.61527
135.875,43.04654,-0.11177,0.43777,0.61542
136.475,43.2376,-0.11341,0.43094,0.61557
137.075,43.4285,-0.11341,0.42996,0.61571
137.675,43.61975,-0.11402,0.43139,0.61586
138.275,43.81102,-0.11375,0.44133,0.616
138.875,44.00242,-0.11374,0.44996,0.61614
139.475,44.19297,-0.10566,0.44101,0.61628
140.075,44.3833,-0.11246,0.45042,0.61642
140.675,44.57423,-0.11406,0.45146,0.61656
141.275,44.7646,-0.11396,0.45733,0.6167
141.875,44.95505,-0.11528,0.44595,0.61684
142.475,45.14495,-0.11509,0.46371,0.61698
143.075,45.3346,-0.11241,0.45883,0.61711
143.675,45.52427,-0.11111,0.47236,0.61725
144.275,45.71405,-0.1169,0.47739,0.61738
144.875,45.9039,-0.11431,0.47292,0.61751
145.475,46.09388,-0.11567,0.48883,0.61765
146.075,46.28354,-0.11361,0.48445,0.61778
146.675,46.47222,-0.11084,0.48772,0.61791
147.275,46.6616,-0.11432,0.47555,0.61804
147.875,46.8512,-0.11638,0.48979,0.61817
148.475,47.0411,-0.11572,0.49541,0.61829
149.075,47.23183,-0.11537,0.49654,0.61842
149.675,47.42228,-0.11463,0.49788,0.61854
150.275,47.61187,-0.11671,0.4907,0.61867
150.875,47.80142,-0.11316,0.49255,0.61879
151.475,47.9906,-0.11713,0.50539,0.61892
152.075,48.1798,-0.11801,0.50651,0.61904
152.675,48.36914,-0.11659,0.50027,0.61916
153.275,48.55851,-0.11673,0.50511,0.61928
153.875,48.74729,-0.11845,0.50265,0.6194
154.475,48.93635,-0.11779,0.5022,0.61951
155.075,49.12488,-0.11649,0.51238,0.61963
155.675,49.31397,-0.1178,0.50915,0.61975
156.275,49.5026,-0.1261,0.49956,0.61986
156.875,49.69102,-0.12139,0.50472,0.61997
157.475,49.87928,-0.11922,0.50689,0.62009
158.075,50.06738,-0.11793,0.51234,0.6202
158.675,50.25457,-0.12054,0.51337,0.62031
159.275,50.44209,-0.12054,0.51422,0.62042
159.875,50.63009,-0.12142,0.51713,0.62053
160.475,50.81823,-0.12079,0.51375,0.62064
161.075,51.00732,-0.12158,0.52127,0.62075
161.675,51.19549,-0.12302,0.51804,0.62085
162.275,51.38333,-0.12361,0.5372,0.62096
162.875,51.57165,-0.12366,0.54242,0.62106
163.475,51.7594,-0.12229,0.53431,0.62117
164.075,51.94757,-0.12504,0.54772,0.62127
164.675,52.1358,-0.12367,0.54743,0.62137
165.275,52.32441,-0.12458,0.55313,0.62147
165.875,52.5128,-0.12438,0.55858,0.62157
166.475,52.70098,-0.12427,0.5728,0.62167
167.075,52.88881,-0.12427,0.57304,0.62177
167.675,53.07679,-0.12435,0.57273,0.62186
168.275,53.26396,-0.12405,0.57926,0.62196
168.875,53.45185,-0.12495,0.57902,0.62205
169.475,53.63975,-0.12162,0.5799,0.62215
170.075,53.82765,-0.12697,0.56983,0.62224
170.675,54.01554,-0.12345,0.57735,0.62233
171.275,54.20383,-0.12593,0.58501,0.62243
171.875,54.3919,-0.12725,0.57622,0.62252
172.475,54.5805,-0.12627,0.5895,0.6226
173.075,54.7687,-0.12888,0.58547,0.62269
173.675,54.95652,-0.12656,0.58029,0.62278
174.275,55.145,-0.12792,0.58117,0.62287
174.875,55.33336,-0.12956,0.59244,0.62295
175.475,55.5215,-0.12855,0.59133,0.62304
176.075,55.7101,-0.12928,0.60632,0.62312
176.675,55.8983,-0.12954,0.58288,0.6232
177.275,56.08667,-0.13036,0.59702,0.62329
177.875,56.275,-0.13029,0.59986,0.62337
178.475,56.4636,-0.13021,0.60182,0.62345
179.075,56.65158,-0.13119,0.60515,0.62352
179.675,56.83979,-0.13184,0.60437,0.6236
180.275,57.02794,-0.13314,0.60958,0.62368
180.875,57.2162,-0.13217,0.62702,0.62376
181.475,57.4051,-0.13347,0.63078,0.62383
182.075,57.5943,-0.13223,0.62344,0.62391
182.675,57.7834,-0.13085,0.6285,0.62398
183.275,57.9724,-0.12968,0.62762,0.62405
183.875,58.16058,-0.13539,0.63606,0.62412
184.475,58.3485,-0.13382,0.62522,0.62419
185.075,58.5359,-0.13211,0.63664,0.62426
185.675,58.7233,-0.13529,0.64986,0.62433
186.275,58.91098,-0.13274,0.65692,0.6244
186.875,59.0982,-0.13624,0.66094,0.62447
187.475,59.2855,-0.13356,0.66233,0.62453
188.075,59.4726,-0.13631,0.66235,0.6246
188.675,59.66,-0.13502,0.65711,0.62466
189.275,59.847,-0.13503,0.66684,0.62472
189.875,60.03374,-0.13732,0.65982,0.62479
190.475,60.22107,-0.13568,0.66381,0.62485
191.075,60.4078,-0.13914,0.668,0.62491
191.675,60.5946,-0.13787,0.66517,0.62497
192.275,60.78165,-0.13931,0.68038,0.62502
192.875,60.96793,-0.13914,0.66965,0.62508
193.475,61.1553,-0.13908,0.67107,0.62514
194.075,61.3426,-0.1404,0.66971,0.62519
194.675,61.53009,-0.14037,0.65895,0.62525
195.275,61.71821,-0.14172,0.67251,0.6253
195.875,61.9058,-0.14151,0.66537,0.62535
196.475,62.09293,-0.1421,0.67274,0.62541
197.075,62.28014,-0.14243,0.66509,0.62546
197.675,62.467,-0.14292,0.66821,0.62551
198.275,62.655,-0.14349,0.68441,0.62556
198.875,62.8431,-0.14469,0.67193,0.6256
199.475,63.03164,-0.15142,0.68159,0.62565
200.075,63.22011,-0.14478,0.68396,0.6257
200.675,63.4079,-0.14742,0.68137,0.62574
201.275,63.5954,-0.1471,0.69223,0.62579
201.875,63.78264,-0.14675,0.69189,0.62583
202.475,63.9706,-0.14881,0.70589,0.62587
203.075,64.15774,-0.14808,0.70662,0.62591
203.675,64.34555,-0.14897,0.70312,0.62596
204.275,64.53354,-0.14951,0.70086,0.626
204.875,64.72131,-0.14834,0.70976,0.62603
205.475,64.9101,-0.15224,0.71434,0.62607
206.075,65.09792,-0.15202,0.73196,0.62611
206.675,65.28556,-0.15299,0.72923,0.62614
207.275,65.47291,-0.15168,0.74236,0.62618
207.875,65.66003,-0.1521,0.72991,0.62621
208.475,65.84697,-0.15662,0.72854,0.62625
209.075,66.03658,-0.15599,0.73399,0.62628
209.675,66.22641,-0.15663,0.74435,0.62631
210.275,66.41623,-0.15663,0.74851,0.62634
210.875,66.6046,-0.15655,0.74702,0.62637
211.475,66.79201,-0.15795,0.74557,0.6264
212.075,66.9791,-0.15828,0.74777,0.62643
212.675,67.16646,-0.15928,0.74569,0.62645
213.275,67.35378,-0.15927,0.74209,0.62648
213.875,67.54186,-0.16209,0.75677,0.62651
214.475,67.72949,-0.16211,0.75384,0.62653
215.075,67.91685,-0.1625,0.74272,0.62655
215.675,68.10469,-0.16376,0.75208,0.62658
216.275,68.2919,-0.16377,0.74669,0.6266
216.875,68.47936,-0.16508,0.73791,0.62662
217.475,68.66677,-0.1681,0.74343,0.62664
218.075,68.8534,-0.16934,0.734,0.62666
218.675,69.04035,-0.16924,0.74698,0.62667
219.275,69.227,-0.17067,0.74789,0.62669
219.875,69.4148,-0.17198,0.73771,0.62671
220.475,69.60231,-0.17068,0.75004,0.62672
221.075,69.78968,-0.17078,0.74361,0.62674
221.675,69.97761,-0.17341,0.73404,0.62675
222.275,70.16525,-0.17604,0.74822,0.62676
222.875,70.35331,-0.17605,0.73921,0.62677
223.475,70.54082,-0.1789,0.744,0.62678
224.075,70.72822,-0.17187,0.73709,0.62679
224.675,70.91581,-0.1798,0.73385,0.6268
225.275,71.10353,-0.18275,0.75428,0.62681
225.875,71.29156,-0.18405,0.74928,0.62682
226.475,71.4789,-0.18536,0.75332,0.62682
227.075,71.66592,-0.18398,0.76017,0.62683
227.675,71.85248,-0.18547,0.76039,0.62683
228.275,72.03985,-0.18636,0.75833,0.62683
228.875,72.22657,-0.18839,0.77389,0.62684
229.475,72.41381,-0.19042,0.77032,0.62684
230.075,72.60101,-0.19645,0.77077,0.62684
230.675,72.78838,-0.19206,0.77056,0.62684
231.275,72.97576,-0.19486,0.75253,0.62684
231.875,73.16298,-0.19908,0.74817,0.62683
232.475,73.35051,-0.19916,0.76664,0.62683
233.075,73.538,-0.20393,0.78629,0.62683
233.675,73.7264,-0.20206,0.78439,0.62682
234.275,73.91355,-0.20577,0.78079,0.62682
234.875,74.10117,-0.20763,0.78987,0.62681
235.475,74.28811,-0.2085,0.78131,0.6268
236.075,74.47511,-0.21247,0.77938,0.62679
236.675,74.66243,-0.21248,0.78829,0.62678
237.275,74.84957,-0.21555,0.79849,0.62677
237.875,75.03671,-0.21773,0.80312,0.62676
238.475,75.22375,-0.21968,0.80175,0.62675
239.075,75.41108,-0.2238,0.79956,0.62674
239.675,75.59828,-0.2227,0.79469,0.62672
240.275,75.7856,-0.22471,0.79812,0.62671
240.875,75.97288,-0.22673,0.82905,0.62669
241.475,76.15983,-0.23241,0.83992,0.62668
242.075,76.34701,-0.23374,0.84039,0.62666
242.675,76.53379,-0.23659,0.84324,0.62664
243.275,76.72066,-0.23851,0.85951,0.62662
243.875,76.90737,-0.23826,0.8464,0.6266
244.475,77.0942,-0.24613,0.8589,0.62658
245.075,77.28137,-0.24689,0.86106,0.62656
245.675,77.46865,-0.25063,0.8598,0.62654
246.275,77.65524,-0.24789,0.85551,0.62651
246.875,77.8417,-0.25782,0.86237,0.62649
247.475,78.02846,-0.2566,0.86199,0.62646
248.075,78.21518,-0.26007,0.85845,0.62644
248.675,78.40142,-0.26282,0.86429,0.62641
249.275,78.58887,-0.26464,0.86698,0.62638
249.875,78.77575,-0.26761,0.86549,0.62635
250.475,78.96306,-0.2705,0.87751,0.62632
251.075,79.15093,-0.2733,0.8765,0.62629
251.675,79.33796,-0.27663,0.88147,0.62626
252.275,79.52525,-0.2796,0.89083,0.62623
252.875,79.71228,-0.28266,0.89306,0.6262
253.475,79.89953,-0.28435,0.90912,0.62616
254.075,80.08665,-0.28837,0.89962,0.62613
254.675,80.27382,-0.29076,0.90066,0.62609
255.275,80.46099,-0.29824,0.90213,0.62605
255.875,80.6486,-0.29983,0.90094,0.62602
256.475,80.8362,-0.30696,0.90786,0.62598
257.075,81.02364,-0.30737,0.91091,0.62594
257.675,81.21099,-0.31028,0.90382,0.6259
258.275,81.3984,-0.31471,0.8884,0.62586
258.875,81.58578,-0.31892,0.91421,0.62581
259.475,81.7736,-0.32294,0.90912,0.62577
260.075,81.96101,-0.32704,0.90148,0.62573
260.675,82.14811,-0.33,0.90657,0.62568
261.275,82.33514,-0.3345,0.91272,0.62564
261.875,82.52225,-0.33654,0.91386,0.62559
262.475,82.70907,-0.34166,0.91474,0.62554
263.075,82.89608,-0.34608,0.91197,0.6255
263.675,83.0838,-0.35294,0.9253,0.62545
264.275,83.27202,-0.35738,0.91643,0.6254
264.875,83.46014,-0.35865,0.93474,0.62535
265.475,83.64751,-0.36297,0.93413,0.6253
266.075,83.8349,-0.37018,0.94861,0.62524
266.675,84.02218,-0.37283,0.95176,0.62519
267.275,84.20992,-0.37807,0.95656,0.62514
267.875,84.3981,-0.38394,0.95665,0.62508
268.475,84.58591,-0.38929,0.95319,0.62503
269.075,84.7736,-0.39487,0.94864,0.62497
269.675,84.96127,-0.40102,0.95666,0.62491
270.275,85.14913,-0.40836,0.97805,0.62485
270.875,85.33743,-0.40835,0.96236,0.62479
271.475,85.52575,-0.41603,0.97033,0.62473
272.075,85.71367,-0.42206,0.97482,0.62467
272.675,85.90201,-0.43279,0.98328,0.62461
273.275,86.09018,-0.43308,0.98106,0.62455
273.875,86.2783,-0.4402,0.9807,0.62449
274.475,86.46621,-0.44659,0.97609,0.62442
275.075,86.65427,-0.4573,0.99804,0.62436
275.675,86.8421,-0.46026,0.99275,0.62429
276.275,87.03007,-0.46694,1.00563,0.62422
276.875,87.21804,-0.47734,1.02636,0.62415
277.475,87.40604,-0.48409,1.02348,0.62409
278.075,87.5934,-0.48876,1.02927,0.62402
278.675,87.78069,-0.49843,1.02976,0.62395
279.275,87.9676,-0.50569,1.03842,0.62388
279.875,88.1549,-0.51304,1.03782,0.6238
280.475,88.3429,-0.52058,1.05196,0.62373
281.075,88.5309,-0.53067,1.04674,0.62366
281.675,88.7188,-0.53742,1.06942,0.62358
282.275,88.90743,-0.54369,1.06732,0.62351
282.875,89.09551,-0.55261,1.07043,0.62343
283.475,89.28482,-0.56256,1.0773,0.62335
284.075,89.47328,-0.56631,1.08091,0.62328
284.675,89.66193,-0.57834,1.08544,0.6232
285.275,89.8505,-0.58633,1.08541,0.62312
285.875,90.03899,-0.59944,1.0861,0.62304
286.475,90.22736,-0.60985,1.09251,0.62296
287.075,90.41544,-0.62103,1.1031,0.62288
287.675,90.60379,-0.62725,1.11355,0.62279
288.275,90.79224,-0.63731,1.11409,0.62271
288.875,90.98016,-0.64992,1.12794,0.62262
289.475,91.1686,-0.65741,1.12383,0.62254
290.075,91.35674,-0.66712,1.13424,0.62245
290.675,91.54521,-0.67663,1.14301,0.62237
291.275,91.73306,-0.69134,1.16309,0.62228
291.875,91.9209,-0.70265,1.16693,0.62219
292.475,92.10889,-0.71361,1.17112,0.6221
293.075,92.2967,-0.72129,1.18223,0.62201
293.675,92.48477,-0.73603,1.17978,0.62192
294.275,92.6729,-0.74781,1.20729,0.62183
294.875,92.861,-0.75952,1.21272,0.62174
295.475,93.04948,-0.77175,1.21128,0.62164
296.075,93.2383,-0.78375,1.20661,0.62155
296.675,93.42693,-0.79303,1.21215,0.62145
297.275,93.61574,-0.8092,1.2141,0.62136
297.875,93.80419,-0.81878,1.2287,0.62126
298.475,93.9925,-0.83567,1.22931,0.62116
299.075,94.18167,-0.84346,1.22208,0.62106
299.675,94.37091,-0.86934,1.24407,0.62096
300.275,94.56068,-0.87552,1.25667,0.62086
300.875,94.74968,-0.88798,1.2548,0.62076
301.475,94.9393,-0.89844,1.25989,0.62066
302.075,95.12854,-0.91607,1.27207,0.62056
302.675,95.31834,-0.93023,1.2884,0.62046
303.275,95.50864,-0.94422,1.29394,0.62035
303.875,95.698,-0.96638,1.31089,0.62025
304.475,95.88642,-0.97276,1.31283,0.62014
305.075,96.07521,-0.98902,1.31117,0.62003
305.675,96.26344,-0.99994,1.32387,0.61993
306.275,96.45235,-1.01593,1.32581,0.61982
306.875,96.6417,-1.03216,1.33223,0.61971
307.475,96.83014,-1.04777,1.33688,0.6196
308.075,97.01939,-1.063,1.34358,0.61949
308.675,97.20831,-1.08011,1.34795,0.61938
309.275,97.3976,-1.0928,1.35886,0.61927
309.875,97.587,-1.10863,1.35227,0.61915
310.475,97.7762,-1.12718,1.35668,0.61904
311.075,97.96607,-1.13158,1.34189,0.61893
311.675,98.15555,-1.15679,1.37492,0.61881
312.275,98.34546,-1.17645,1.38073,0.61869
312.875,98.53461,-1.19118,1.37987,0.61858
313.475,98.72299,-1.209,1.38108,0.61846
314.075,98.9115,-1.22726,1.38782,0.61834
314.675,99.10034,-1.2422,1.39693,0.61822
315.275,99.2893,-1.26074,1.4059,0.6181
315.875,99.4792,-1.27971,1.41481,0.61798
316.475,99.66861,-1.298,1.42614,0.61786
317.075,99.85862,-1.31146,1.4266,0.61774
317.675,100.048,-1.33004,1.42432,0.61761
318.275,100.238,-1.35133,1.44082,0.61749
318.875,100.428,-1.36798,1.44627,0.61737
319.475,100.618,-1.38115,1.43505,0.61724
320.075,100.808,-1.40274,1.43025,0.61711
320.675,100.997,-1.42131,1.45549,0.61699
321.275,101.187,-1.43814,1.47073,0.61686
321.875,101.376,-1.45724,1.45824,0.61673
322.475,101.565,-1.4763,1.48115,0.6166
323.075,101.754,-1.49636,1.48334,0.61647
323.675,101.943,-1.51477,1.4998,0.61634
324.275,102.133,-1.53488,1.50374,0.61621
324.875,102.323,-1.56484,1.51587,0.61608
325.475,102.513,-1.57113,1.53711,0.61594
326.075,102.703,-1.59083,1.54114,0.61581
326.675,102.8924,-1.61465,1.55481,0.61567
327.275,103.082,-1.63176,1.57147,0.61554
327.875,103.272,-1.6535,1.57363,0.6154
328.475,103.462,-1.67288,1.58127,0.61526
329.075,103.651,-1.69269,1.58691,0.61513
329.675,103.841,-1.71667,1.58476,0.61499
330.275,104.03,-1.73508,1.61092,0.61485
330.875,104.22,-1.75782,1.62107,0.61471
331.475,104.409,-1.78031,1.63495,0.61457
332.075,104.598,-1.80041,1.64038,0.61443
332.675,104.788,-1.82216,1.65194,0.61428
333.275,104.978,-1.84418,1.66034,0.61414
333.875,105.168,-1.86616,1.66894,0.614
334.475,105.358,-1.88844,1.69034,0.61385
335.075,105.55,-1.91275,1.69316,0.61371
335.675,105.7403,-1.935,1.70185,0.61356
336.275,105.931,-1.96217,1.719,0.61341
336.875,106.122,-1.9835,1.72955,0.61326
337.475,106.312,-2.00745,1.74906,0.61312
338.075,106.503,-2.03437,1.77114,0.61297
338.675,106.693,-2.06063,1.77919,0.61282
339.275,106.884,-2.08556,1.79695,0.61267
339.875,107.0741,-2.10929,1.81042,0.61251
340.475,107.264,-2.13409,1.82308,0.61236
341.075,107.4544,-2.16375,1.85083,0.61221
341.675,107.645,-2.18717,1.85714,0.61205
342.275,107.835,-2.21744,1.87362,0.6119
342.875,108.026,-2.24636,1.89841,0.61174
343.475,108.216,-2.2752,1.90236,0.61159
344.075,108.407,-2.3009,1.9186,0.61143
344.675,108.599,-2.32812,1.93326,0.61127
345.275,108.791,-2.35767,1.92358,0.61112
345.875,108.984,-2.3837,1.95399,0.61096
346.475,109.176,-2.41827,1.96197,0.6108
347.075,109.367,-2.4471,1.96502,0.61064
347.675,109.558,-2.47567,1.96757,0.61048
348.275,109.75,-2.50753,1.96352,0.61031
348.875,109.941,-2.53286,1.95657,0.61015
349.475,110.132,-2.56527,1.96916,0.60999
350.075,110.323,-2.59518,1.9534,0.60982
350.675,110.513,-2.62145,1.94548,0.60966
351.275,110.704,-2.6536,1.9338,0.60949
351.875,110.896,-2.68464,1.90219,0.60933
352.475,111.086,-2.709,1.87664,0.60916
353.075,111.277,-2.73925,1.85144,0.60899
353.675,111.467,-2.76529,1.82546,0.60882
354.275,111.657,-2.78894,1.77746,0.60866
354.875,111.847,-2.82185,1.73509,0.60849
355.475,112.037,-2.84421,1.68789,0.60831
356.075,112.226,-2.8692,1.64892,0.60814
356.675,112.417,-2.89343,1.59096,0.60797
357.275,112.607,-2.91612,1.53359,0.6078
357.875,112.798,-2.93826,1.48077,0.60763
358.475,112.988,-2.95915,1.41164,0.60745
359.075,113.179,-2.97402,1.3569,0.60728
359.675,113.369,-2.98929,1.29062,0.6071
360.275,113.56,-3.00934,1.21467,0.60692
360.875,113.751,-3.02804,1.15917,0.60675
361.475,113.9425,-3.04352,1.09356,0.60657
362.075,114.133,-3.05329,1.03324,0.60639
362.675,114.323,-3.06761,0.98647,0.60621
363.275,114.514,-3.07736,0.92716,0.60603
363.875,114.704,-3.08659,0.86888,0.60585
364.475,114.895,-3.09583,0.82329,0.60567
365.075,115.087,-3.10052,0.77173,0.60549
365.675,115.278,-3.10912,0.74878,0.60531
366.275,115.469,-3.11467,0.71512,0.60512
366.875,115.661,-3.11947,0.68762,0.60494
367.475,115.852,-3.12507,0.67079,0.60475
368.075,116.0427,-3.12883,0.65809,0.60457
368.675,116.234,-3.13263,0.63364,0.60438
369.275,116.425,-3.13581,0.6148,0.60419
369.875,116.617,-3.14155,0.61466,0.60401
370.475,116.809,-3.15004,0.60023,0.60382
371.075,117,-3.14569,0.59676,0.60363
371.675,117.192,-3.1512,0.59894,0.60344
372.275,117.384,-3.15297,0.59074,0.60325
372.875,117.576,-3.15487,0.59988,0.60306
373.475,117.769,-3.15622,0.60639,0.60287
374.075,117.962,-3.15783,0.5941,0.60267
374.675,118.154,-3.16334,0.59931,0.60248
375.275,118.346,-3.16465,0.59658,0.60229
375.875,118.536,-3.16796,0.59133,0.60209
376.475,118.7277,-3.17194,0.59807,0.6019
377.075,118.92,-3.16395,0.58194,0.6017
377.675,119.111,-3.17618,0.58653,0.60151
378.275,119.304,-3.17728,0.58892,0.60131
378.875,119.496,-3.17608,0.57407,0.60111
379.475,119.689,-3.1781,0.57142,0.60091
380.075,119.8816,-3.18056,0.56644,0.60071
380.675,120.075,-3.18517,0.57937,0.60051
381.275,120.267,-3.18592,0.57629,0.60031
381.875,120.46,-3.18725,0.56087,0.60011
382.475,120.652,-3.19295,0.55816,0.59991
383.075,120.8452,-3.19454,0.567,0.59971
383.675,121.038,-3.19449,0.55687,0.5995
384.275,121.231,-3.19976,0.55388,0.5993
384.875,121.4228,-3.19839,0.56292,0.59909
385.475,121.616,-3.20131,0.55909,0.59889
386.075,121.809,-3.20272,0.54547,0.59868
386.675,122.003,-3.207,0.54809,0.59848
387.275,122.197,-3.20504,0.54043,0.59827
387.875,122.39,-3.21028,0.54087,0.59806
388.475,122.584,-3.20952,0.53858,0.59785
389.075,122.777,-3.21415,0.52769,0.59764
389.675,122.969,-3.21622,0.53012,0.59743
390.275,123.161,-3.21916,0.52776,0.59722
390.875,123.354,-3.21885,0.51743,0.59701
391.475,123.547,-3.22154,0.51707,0.5968
392.075,123.74,-3.2238,0.52077,0.59659
392.675,123.933,-3.22694,0.52875,0.59638
393.275,124.127,-3.23005,0.52676,0.59616
393.875,124.321,-3.23069,0.53337,0.59595
394.475,124.515,-3.23954,0.543,0.59573
395.075,124.709,-3.23497,0.53682,0.59552
395.675,124.903,-3.23762,0.53932,0.5953
396.275,125.097,-3.23631,0.54513,0.59508
396.875,125.291,-3.24116,0.53933,0.59487
397.475,125.484,-3.24286,0.53381,0.59465
398.075,125.678,-3.24717,0.52964,0.59443
398.675,125.872,-3.24979,0.51708,0.59421
399.275,126.065,-3.25293,0.5197,0.59399
399.875,126.259,-3.25089,0.52551,0.59377
400.475,126.452,-3.25242,0.51257,0.59355
401.075,126.646,-3.25373,0.52795,0.59332
401.675,126.839,-3.25637,0.52885,0.5931
402.275,127.033,-3.25901,0.51984,0.59288
402.875,127.227,-3.26148,0.51967,0.59265
403.475,127.421,-3.26294,0.51684,0.59243
404.075,127.615,-3.26162,0.5072,0.5922
404.675,127.81,-3.26744,0.49605,0.59198
405.275,128.004,-3.26744,0.48626,0.59175
405.875,128.198,-3.2715,0.48634,0.59152
406.475,128.393,-3.27423,0.48735,0.5913
407.075,128.586,-3.27687,0.49103,0.59107
407.675,128.78,-3.27492,0.4934,0.59084
408.275,128.975,-3.27889,0.5041,0.59061
408.875,129.169,-3.28148,0.50269,0.59038
409.475,129.363,-3.2828,0.49576,0.59015
410.075,129.5572,-3.28626,0.49817,0.58992
410.675,129.751,-3.28516,0.50121,0.58969
411.275,129.945,-3.29004,0.49132,0.58945
411.875,130.14,-3.29004,0.49203,0.58922
412.475,130.334,-3.29848,0.49284,0.58899
413.075,130.527,-3.29656,0.4823,0.58875
413.675,130.722,-3.29342,0.48626,0.58852
414.275,130.916,-3.30651,0.47668,0.58828
414.875,131.111,-3.29994,0.48812,0.58804
415.475,131.306,-3.30071,0.49203,0.58781
416.075,131.501,-3.30177,0.50182,0.58757
416.675,131.697,-3.30935,0.49896,0.58733
417.275,131.893,-3.30583,0.50656,0.58709
417.875,132.088,-3.30999,0.50709,0.58685
418.475,132.284,-3.31291,0.51261,0.58661
419.075,132.478,-3.31462,0.51523,0.58637
419.675,132.672,-3.31394,0.50678,0.58613
420.275,132.865,-3.31932,0.50633,0.58589
420.875,133.0591,-3.32064,0.52108,0.58565
421.475,133.253,-3.32184,0.51499,0.5854
422.075,133.448,-3.32513,0.52296,0.58516
422.675,133.642,-3.32482,0.51946,0.58492
423.275,133.838,-3.32677,0.52176,0.58467
423.875,134.033,-3.32535,0.53362,0.58443
424.475,134.228,-3.33092,0.53766,0.58418
425.075,134.423,-3.33088,0.53803,0.58393
425.675,134.618,-3.33348,0.54777,0.58369
426.275,134.814,-3.33871,0.54678,0.58344
426.875,135.01,-3.33858,0.55975,0.58319
427.475,135.205,-3.3413,0.56489,0.58294
428.075,135.4,-3.33862,0.58089,0.58269
428.675,135.595,-3.34235,0.5796,0.58244
429.275,135.79,-3.34783,0.58165,0.58219
429.875,135.985,-3.34781,0.57223,0.58194
430.475,136.18,-3.34787,0.57018,0.58169
431.075,136.374,-3.34986,0.58923,0.58144
431.675,136.57,-3.34931,0.58877,0.58118
432.275,136.766,-3.35385,0.60065,0.58093
432.875,136.961,-3.35645,0.59904,0.58068
433.475,137.157,-3.35106,0.59597,0.58042
434.075,137.352,-3.35804,0.60955,0.58017
434.675,137.547,-3.36067,0.61298,0.57991
435.275,137.742,-3.36215,0.63342,0.57966
435.875,137.938,-3.36265,0.63096,0.5794
436.475,138.134,-3.36518,0.63157,0.57914
437.075,138.329,-3.36781,0.63909,0.57888
437.675,138.524,-3.36771,0.64935,0.57862
438.275,138.72,-3.3678,0.65546,0.57837
438.875,138.916,-3.37054,0.65678,0.57811
439.475,139.113,-3.37054,0.68221,0.57785
440.075,139.3095,-3.37186,0.67766,0.57758
440.675,139.506,-3.37285,0.69002,0.57732
441.275,139.702,-3.37471,0.69358,0.57706
441.875,139.8981,-3.37994,0.68034,0.5768
442.475,140.094,-3.37913,0.68566,0.57654
443.075,140.291,-3.37866,0.68686,0.57627
443.675,140.487,-3.38138,0.70124,0.57601
444.275,140.683,-3.38385,0.71499,0.57574
444.875,140.879,-3.38434,0.70681,0.57548
445.475,141.076,-3.38371,0.71788,0.57521
446.075,141.273,-3.38502,0.70927,0.57495
446.675,141.4697,-3.38599,0.71029,0.57468
447.275,141.666,-3.38688,0.71616,0.57441
447.875,141.862,-3.38732,0.7184,0.57415
448.475,142.057,-3.39176,0.71296,0.57388
449.075,142.251,-3.39248,0.72734,0.57361
449.675,142.4463,-3.39369,0.71473,0.57334
450.275,142.642,-3.39643,0.72345,0.57307
450.875,142.838,-3.39775,0.73226,0.5728
451.475,143.035,-3.39743,0.72732,0.57253
452.075,143.232,-3.39681,0.7497,0.57226
452.675,143.429,-3.39951,0.74572,0.57198
453.275,143.625,-3.3995,0.75246,0.57171
453.875,143.822,-3.40082,0.7574,0.57144
454.475,144.019,-3.40213,0.75032,0.57116
455.075,144.216,-3.40177,0.78101,0.57089
455.675,144.414,-3.40443,0.78329,0.57062
456.275,144.61,-3.40599,0.77403,0.57034
456.875,144.806,-3.40724,0.76945,0.57006
457.475,145.002,-3.40979,0.77629,0.56979
458.075,145.197,-3.40699,0.78178,0.56951
458.675,145.393,-3.40959,0.77405,0.56923
459.275,145.589,-3.40828,0.78432,0.56896
459.875,145.785,-3.41089,0.79416,0.56868
460.475,145.981,-3.41211,0.78786,0.5684
461.075,146.177,-3.4108,0.80363,0.56812
461.675,146.373,-3.41342,0.80317,0.56784
462.275,146.57,-3.41409,0.80407,0.56756
462.875,146.767,-3.41342,0.79252,0.56728
463.475,146.965,-3.41618,0.80746,0.567
464.075,147.163,-3.41802,0.80248,0.56671
464.675,147.361,-3.41901,0.80558,0.56643
465.275,147.56,-3.41803,0.8179,0.56615
465.875,147.758,-3.41671,0.80493,0.56587
466.475,147.957,-3.41906,0.80985,0.56558
467.075,148.154,-3.41966,0.8224,0.5653
467.675,148.352,-3.42457,0.8092,0.56501
468.275,148.549,-3.42614,0.81875,0.56473
468.875,148.746,-3.42121,0.81288,0.56444
469.475,148.943,-3.41927,0.81252,0.56416
470.075,149.14,-3.42649,0.81301,0.56387
470.675,149.337,-3.42762,0.81377,0.56358
471.275,149.534,-3.42572,0.81626,0.56329
471.875,149.733,-3.42842,0.82296,0.563
472.475,149.931,-3.42704,0.82693,0.56272
473.075,150.129,-3.43098,0.83558,0.56243
473.675,150.328,-3.42912,0.84538,0.56214
474.275,150.526,-3.43052,0.83998,0.56185
474.875,150.724,-3.43185,0.84334,0.56156
475.475,150.921,-3.43164,0.84835,0.56126
476.075,151.118,-3.43208,0.848,0.56097
476.675,151.315,-3.43384,0.84533,0.56068
477.275,151.513,-3.43482,0.85055,0.56039
477.875,151.7101,-3.43485,0.86126,0.56009
478.475,151.907,-3.43515,0.86103,0.5598
479.075,152.104,-3.43515,0.87232,0.55951
479.675,152.301,-3.43493,0.87205,0.55921
480.275,152.498,-3.43899,0.8719,0.55892
480.875,152.696,-3.43911,0.86616,0.55862
481.475,152.895,-3.4404,0.88279,0.55833
482.075,153.093,-3.44178,0.88497,0.55803
482.675,153.292,-3.44324,0.90588,0.55773
483.275,153.49,-3.44193,0.90449,0.55744
483.875,153.688,-3.44326,0.89507,0.55714
484.475,153.885,-3.44316,0.90223,0.55684
485.075,154.083,-3.44824,0.89243,0.55654
485.675,154.2814,-3.44282,0.89955,0.55624
486.275,154.48,-3.4448,0.90521,0.55594
486.875,154.679,-3.44482,0.91166,0.55564
487.475,154.878,-3.44557,0.9359,0.55534
488.075,155.0776,-3.44546,0.93748,0.55504
488.675,155.277,-3.44788,0.93389,0.55474
489.275,155.477,-3.45083,0.92375,0.55444
489.875,155.676,-3.45149,0.93355,0.55413
490.475,155.8757,-3.4503,0.93198,0.55383
491.075,156.075,-3.44948,0.94929,0.55353
491.675,156.273,-3.45083,0.92655,0.55322
492.275,156.472,-3.45215,0.9108,0.55292
492.875,156.67,-3.45078,0.92347,0.55261
493.475,156.869,-3.45456,0.92143,0.55231
494.075,157.066,-3.45554,0.90906,0.552
494.675,157.265,-3.45544,0.92279,0.5517
495.275,157.464,-3.45677,0.92401,0.55139
495.875,157.663,-3.45546,0.92164,0.55109
496.475,157.863,-3.45544,0.91985,0.55078
497.075,158.061,-3.45905,0.93983,0.55047
497.675,158.26,-3.45905,0.93333,0.55016
498.275,158.457,-3.45972,0.92828,0.54985
498.875,158.6551,-3.46101,0.94081,0.54954
499.475,158.853,-3.46168,0.94495,0.54924
500.075,159.051,-3.46009,0.96347,0.54893
500.675,159.249,-3.45993,0.95119,0.54861
501.275,159.448,-3.46125,0.95957,0.5483
501.875,159.646,-3.46651,0.95546,0.54799
502.475,159.846,-3.46247,0.9647,0.54768
503.075,160.046,-3.4664,0.97136,0.54737
503.675,160.246,-3.46502,0.9594,0.54706
504.275,160.446,-3.46535,0.97623,0.54674
504.875,160.645,-3.46465,0.98094,0.54643
505.475,160.845,-3.46692,0.97367,0.54612
506.075,161.044,-3.46767,0.96856,0.5458
506.675,161.243,-3.46886,0.98099,0.54549
507.275,161.443,-3.47026,0.9708,0.54517
507.875,161.643,-3.46929,0.97025,0.54486
508.475,161.843,-3.47189,0.97961,0.54454
509.075,162.0428,-3.46933,0.97726,0.54423
509.675,162.2423,-3.47464,0.97832,0.54391
510.275,162.442,-3.47464,0.98726,0.54359
510.875,162.642,-3.47321,0.98501,0.54328
511.475,162.8415,-3.47154,0.97967,0.54296
512.075,163.0408,-3.47157,1.00703,0.54264
512.675,163.239,-3.47193,0.99737,0.54232
513.275,163.438,-3.47715,0.98634,0.542
513.875,163.638,-3.47354,0.9983,0.54168
514.475,163.838,-3.47616,1.00165,0.54136
515.075,164.039,-3.47474,1.00674,0.54104
515.675,164.239,-3.4776,1.03046,0.54072
516.275,164.438,-3.47903,1.01972,0.5404
516.875,164.638,-3.47638,1.03319,0.54008
517.475,164.838,-3.48177,1.03181,0.53976
518.075,165.0377,-3.47749,1.02499,0.53944
518.675,165.238,-3.48013,1.04071,0.53911
519.275,165.438,-3.48192,1.03418,0.53879
519.875,165.636,-3.48012,1.03994,0.53847
520.475,165.836,-3.48275,1.03036,0.53814
521.075,166.036,-3.48549,1.04471,0.53782
521.675,166.237,-3.48334,1.04366,0.5375
522.275,166.438,-3.4825,1.04251,0.53717
522.875,166.6385,-3.48545,1.05476,0.53685
523.475,166.839,-3.48385,1.05075,0.53652
524.075,167.0388,-3.48647,1.06153,0.53619
524.675,167.239,-3.48615,1.06771,0.53587
525.275,167.439,-3.48746,1.06862,0.53554
525.875,167.638,-3.48747,1.05651,0.53521
526.475,167.838,-3.49024,1.05922,0.53489
527.075,168.037,-3.4905,1.07121,0.53456
527.675,168.236,-3.48967,1.06425,0.53423
528.275,168.435,-3.48967,1.0803,0.5339
528.875,168.635,-3.48732,1.07436,0.53357
529.475,168.835,-3.49091,1.07472,0.53324
530.075,169.036,-3.4898,1.07775,0.53291
530.675,169.237,-3.49375,1.08772,0.53258
531.275,169.438,-3.49241,1.08905,0.53225
531.875,169.64,-3.49361,1.08836,0.53192
532.475,169.8398,-3.4935,1.09216,0.53159
533.075,170.039,-3.49482,1.08559,0.53126
533.675,170.239,-3.48428,1.09211,0.53093
534.275,170.439,-3.49273,1.08561,0.5306
534.875,170.64,-3.49604,1.09025,0.53026
535.475,170.84,-3.49635,1.08701,0.52993
536.075,171.039,-3.49797,1.09769,0.5296
536.675,171.237,-3.49652,1.09809,0.52927
537.275,171.436,-3.49864,1.10779,0.52893
537.875,171.635,-3.49732,1.11618,0.5286
538.475,171.836,-3.49987,1.09935,0.52826
539.075,172.039,-3.50121,1.07778,0.52793
539.675,172.242,-3.50122,1.10542,0.52759
540.275,172.444,-3.49953,1.12255,0.52726
540.875,172.646,-3.50044,1.12291,0.52692
541.475,172.847,-3.49965,1.13186,0.52658
542.075,173.048,-3.50254,1.1209,0.52625
542.675,173.249,-3.50226,1.1114,0.52591
543.275,173.449,-3.50589,1.12067,0.52557
543.875,173.65,-3.50385,1.1243,0.52524
544.475,173.851,-3.49568,1.10955,0.5249
545.075,174.054,-3.50458,1.11662,0.52456
545.675,174.256,-3.50511,1.11457,0.52422
546.275,174.459,-3.50732,1.12872,0.52388
546.875,174.662,-3.50596,1.1285,0.52354
547.475,174.864,-3.5065,1.14019,0.5232
548.075,175.067,-3.50754,1.12979,0.52286
548.675,175.27,-3.50783,1.134,0.52252
549.275,175.473,-3.50732,1.13097,0.52218
549.875,175.675,-3.51029,1.14484,0.52184
550.475,175.877,-3.51181,1.14738,0.5215
551.075,176.08,-3.51324,1.1319,0.52116
551.675,176.2809,-3.51283,1.15286,0.52082
552.275,176.481,-3.51171,1.14933,0.52047
552.875,176.683,-3.51202,1.14838,0.52013
553.475,176.885,-3.51467,1.16214,0.51979
554.075,177.087,-3.51205,1.14492,0.51945
554.675,177.289,-3.51203,1.14765,0.5191
555.275,177.49,-3.51599,1.13888,0.51876
555.875,177.69,-3.51718,1.16722,0.51841
556.475,177.89,-3.5161,1.16254,0.51807
557.075,178.09,-3.51577,1.18852,0.51772
557.675,178.29,-3.51846,1.20756,0.51738
558.275,178.492,-3.51709,1.19441,0.51703
558.875,178.693,-3.51469,1.18475,0.51669
559.475,178.896,-3.51873,1.18153,0.51634
560.075,179.0987,-3.52052,1.17541,0.516
560.675,179.302,-3.517,1.18296,0.51565
561.275,179.505,-3.51829,1.19106,0.5153
561.875,179.707,-3.52005,1.19037,0.51496
562.475,179.91,-3.52136,1.20653,0.51461
563.075,180.113,-3.52007,1.19928,0.51426
563.675,180.315,-3.52105,1.19969,0.51391
564.275,180.518,-3.52167,1.19986,0.51356
564.875,180.721,-3.52398,1.2147,0.51322
565.475,180.924,-3.52199,1.21587,0.51287
566.075,181.126,-3.52287,1.2174,0.51252
566.675,181.328,-3.52431,1.22547,0.51217
567.275,181.5309,-3.52302,1.22478,0.51182
567.875,181.733,-3.52553,1.23378,0.51147
568.475,181.936,-3.52147,1.21899,0.51112
569.075,182.138,-3.52278,1.21991,0.51077
569.675,182.34,-3.52544,1.21426,0.51042
570.275,182.542,-3.52542,1.22455,0.51007
570.875,182.744,-3.52504,1.23546,0.50971
571.475,182.946,-3.5252,1.2436,0.50936
572.075,183.148,-3.52586,1.2422,0.50901
572.675,183.351,-3.52684,1.24826,0.50866
573.275,183.553,-3.52548,1.22314,0.50831
573.875,183.756,-3.52817,1.2255,0.50795
574.475,183.959,-3.52805,1.25046,0.5076
575.075,184.161,-3.52823,1.25858,0.50725
575.675,184.364,-3.5285,1.26458,0.50689
576.275,184.567,-3.52745,1.27581,0.50654
576.875,184.77,-3.53142,1.27768,0.50619
577.475,184.972,-3.52884,1.29947,0.50583
578.075,185.1743,-3.52882,1.28454,0.50548
578.675,185.376,-3.53244,1.29997,0.50512
579.275,185.578,-3.53102,1.29402,0.50477
579.875,185.781,-3.53102,1.2986,0.50441
580.475,185.983,-3.53145,1.32744,0.50405
581.075,186.185,-3.53266,1.32476,0.5037
581.675,186.386,-3.53266,1.34138,0.50334
582.275,186.588,-3.53266,1.34048,0.50299
582.875,186.79,-3.5353,1.35042,0.50263
583.475,186.992,-3.53661,1.3349,0.50227
584.075,187.1942,-3.53531,1.37241,0.50192
584.675,187.397,-3.53464,1.35702,0.50156
585.275,187.599,-3.53595,1.36387,0.5012
585.875,187.801,-3.53741,1.38605,0.50084
586.475,188.003,-3.53496,1.38795,0.50048
587.075,188.205,-3.5376,1.4084,0.50013
587.675,188.407,-3.53629,1.39439,0.49977
588.275,188.61,-3.53759,1.39192,0.49941
588.875,188.8137,-3.53703,1.40968,0.49905
589.475,189.018,-3.53803,1.40819,0.49869
590.075,189.222,-3.53768,1.41277,0.49833
590.675,189.426,-3.53908,1.41462,0.49797
591.275,189.631,-3.53934,1.42177,0.49761
591.875,189.836,-3.5376,1.43083,0.49725
592.475,190.041,-3.53761,1.42805,0.49689
593.075,190.246,-3.53894,1.4295,0.49653
593.675,190.45,-3.53869,1.4408,0.49617
594.275,190.653,-3.54,1.43068,0.4958
594.875,190.857,-3.54001,1.44906,0.49544
595.475,191.06,-3.54067,1.46016,0.49508
596.075,191.264,-3.54068,1.44811,0.49472
596.675,191.467,-3.54085,1.45601,0.49436
597.275,191.67,-3.54133,1.47392,0.49399
597.875,191.873,-3.54395,1.4824,0.49363
598.475,192.0752,-3.5402,1.52397,0.49327
599.075,192.278,-3.54472,1.51291,0.49291
599.675,192.481,-3.5433,1.51177,0.49254
600.275,192.685,-3.54307,1.53427,0.49218
600.875,192.889,-3.54659,1.52033,0.49181
601.475,193.093,-3.54658,1.51774,0.49145
602.075,193.296,-3.54528,1.5104,0.49109
602.675,193.5,-3.5433,1.53014,0.49072
603.275,193.705,-3.54626,1.52154,0.49036
603.875,193.908,-3.54593,1.5342,0.48999
604.475,194.112,-3.54871,1.54912,0.48963
605.075,194.315,-3.54746,1.52747,0.48926
605.675,194.518,-3.54813,1.52602,0.4889
606.275,194.722,-3.54684,1.55659,0.48853
606.875,194.926,-3.54911,1.55322,0.48817
607.475,195.129,-3.54911,1.56886,0.4878
608.075,195.332,-3.54911,1.55186,0.48743
608.675,195.5351,-3.54933,1.55127,0.48707
609.275,195.739,-3.55196,1.56132,0.4867
609.875,195.944,-3.55196,1.54397,0.48633
610.475,196.1481,-3.55064,1.56135,0.48597
611.075,196.353,-3.55196,1.56083,0.4856
611.675,196.557,-3.55131,1.57318,0.48523
612.275,196.762,-3.55032,1.5931,0.48486
612.875,196.966,-3.5523,1.60113,0.4845
613.475,197.171,-3.55361,1.59633,0.48413
614.075,197.3762,-3.55223,1.6093,0.48376
614.675,197.582,-3.55352,1.62599,0.48339
615.275,197.787,-3.55328,1.64741,0.48302
615.875,197.991,-3.55591,1.65049,0.48265
616.475,198.196,-3.55459,1.65616,0.48228
617.075,198.401,-3.55614,1.66116,0.48191
617.675,198.6056,-3.55613,1.65873,0.48155
618.275,198.81,-3.55748,1.65278,0.48118
618.875,199.013,-3.55403,1.67117,0.48081
619.475,199.216,-3.55734,1.68584,0.48044
620.075,199.42,-3.55602,1.69484,0.48007
620.675,199.6247,-3.55706,1.71272,0.4797
621.275,199.831,-3.55863,1.74941,0.47932
621.875,200.036,-3.55668,1.75533,0.47895
622.475,200.241,-3.55664,1.75904,0.47858
623.075,200.446,-3.5487,1.75098,0.47821
623.675,200.651,-3.55782,1.75994,0.47784
624.275,200.856,-3.55947,1.76473,0.47747
624.875,201.06,-3.55942,1.76026,0.4771
625.475,201.264,-3.55941,1.79445,0.47673
626.075,201.468,-3.5604,1.76834,0.47635
626.675,201.672,-3.55967,1.77431,0.47598
627.275,201.878,-3.55873,1.81328,0.47561
627.875,202.084,-3.55831,1.82488,0.47524
628.475,202.29,-3.56041,1.80868,0.47487
629.075,202.496,-3.55909,1.79784,0.47449
629.675,202.701,-3.56038,1.82351,0.47412
630.275,202.906,-3.56304,1.8345,0.47375
630.875,203.111,-3.5617,1.85851,0.47337
631.475,203.316,-3.56236,1.84632,0.473
632.075,203.521,-3.56578,1.85839,0.47263
632.675,203.727,-3.56275,1.87231,0.47225
633.275,203.9325,-3.56404,1.87075,0.47188
633.875,204.138,-3.56468,1.88749,0.47151
634.475,204.342,-3.56403,1.88842,0.47113
635.075,204.547,-3.56463,1.902,0.47076
635.675,204.751,-3.564,1.91497,0.47038
636.275,204.955,-3.5648,1.92965,0.47001
636.875,205.159,-3.56337,1.96741,0.46963
637.475,205.363,-3.56423,1.98401,0.46926
638.075,205.567,-3.56374,1.97489,0.46888
638.675,205.771,-3.5651,1.98117,0.46851
639.275,205.977,-3.56645,1.98611,0.46813
639.875,206.1834,-3.56799,1.98908,0.46776
640.475,206.39,-3.56633,1.99323,0.46738
641.075,206.597,-3.56732,2.01972,0.46701
641.675,206.802,-3.56732,2.02289,0.46663
642.275,207.0073,-3.56724,2.01899,0.46626
642.875,207.212,-3.56732,2.02981,0.46588
643.475,207.417,-3.566,2.01418,0.4655
644.075,207.623,-3.56589,2.02861,0.46513
644.675,207.829,-3.56699,2.03728,0.46475
645.275,208.035,-3.56337,2.03868,0.46437
645.875,208.242,-3.56478,2.03143,0.464
646.475,208.4479,-3.56859,2.00979,0.46362
647.075,208.653,-3.5691,2.00301,0.46324
647.675,208.859,-3.56721,1.98463,0.46287
648.275,209.0647,-3.56716,1.99012,0.46249
648.875,209.27,-3.56578,1.99806,0.46211
649.475,209.475,-3.56841,2.00764,0.46173
650.075,209.68,-3.5704,2.01106,0.46136
650.675,209.885,-3.56268,2.03499,0.46098
651.275,210.09,-3.57071,2.03717,0.4606
651.875,210.296,-3.56908,2.03368,0.46022
652.475,210.503,-3.56941,2.02562,0.45984
653.075,210.708,-3.57061,2.03193,0.45947
653.675,210.914,-3.57304,2.0302,0.45909
654.275,211.121,-3.57074,2.05536,0.45871
654.875,211.327,-3.56397,2.06582,0.45833
655.475,211.5326,-3.56958,2.07577,0.45795
656.075,211.738,-3.57006,2.10238,0.45757
656.675,211.943,-3.56692,2.11385,0.45719
657.275,212.148,-3.57292,2.10637,0.45682
657.875,212.354,-3.5716,2.09435,0.45644
658.475,212.559,-3.57291,2.09275,0.45606
659.075,212.764,-3.57262,2.09297,0.45568
659.675,212.97,-3.57073,2.09937,0.4553
660.275,213.177,-3.57001,2.08007,0.45492
660.875,213.384,-3.57668,2.08944,0.45454
661.475,213.591,-3.57434,2.08369,0.45416
662.075,213.798,-3.57303,2.07673,0.45378
662.675,214.0049,-3.5734,2.06332,0.4534
663.275,214.211,-3.57423,2.05567,0.45302
663.875,214.4177,-3.57532,2.05547,0.45264
664.475,214.624,-3.57242,2.0602,0.45226
665.075,214.829,-3.57281,2.07333,0.45188
665.675,215.034,-3.57297,2.06217,0.4515
666.275,215.238,-3.57346,2.0544,0.45112
666.875,215.444,-3.5748,2.05029,0.45074
667.475,215.65,-3.57708,2.0615,0.45036
668.075,215.858,-3.57577,2.07805,0.44998
668.675,216.065,-3.57283,2.08748,0.44959
669.275,216.272,-3.57543,2.07027,0.44921
669.875,216.4787,-3.57471,2.08598,0.44883
670.475,216.685,-3.57334,2.10644,0.44845
671.075,216.892,-3.57432,2.08388,0.44807
671.675,217.098,-3.57498,2.05373,0.44769
672.275,217.3053,-3.5722,2.04012,0.44731
672.875,217.512,-3.57562,2.04991,0.44693
673.475,217.7194,-3.56912,2.05395,0.44654
674.075,217.926,-3.5775,2.02677,0.44616
674.675,218.133,-3.57635,2.01729,0.44578
675.275,218.34,-3.57509,2.01452,0.4454
675.875,218.546,-3.57971,2.01986,0.44502
676.475,218.754,-3.57474,2.00012,0.44464
677.075,218.961,-3.57823,1.999,0.44425
677.675,219.169,-3.57819,1.99079,0.44387
678.275,219.376,-3.57658,1.98357,0.44349
678.875,219.582,-3.57643,1.98529,0.44311
679.475,219.789,-3.57826,2.00435,0.44273
680.075,219.996,-3.57709,1.97789,0.44234
680.675,220.203,-3.57679,2.00133,0.44196
681.275,220.412,-3.57817,2.00239,0.44158
681.875,220.62,-3.57818,2.01729,0.4412
682.475,220.828,-3.57817,2.01689,0.44081
683.075,221.035,-3.57819,2.02946,0.44043
683.675,221.242,-3.57456,2.04034,0.44005
684.275,221.449,-3.57719,2.01822,0.43966
684.875,221.655,-3.57724,2.02913,0.43928
685.475,221.861,-3.57619,2.02348,0.4389
686.075,222.067,-3.58118,2.01859,0.43852
686.675,222.2729,-3.57862,2.0244,0.43813
687.275,222.48,-3.57807,2.01493,0.43775
687.875,222.686,-3.57982,2.01451,0.43737
688.475,222.893,-3.58002,2.01568,0.43698
689.075,223.0996,-3.5772,2.01827,0.4366
689.675,223.307,-3.57843,2.01254,0.43622
690.275,223.514,-3.58103,2.00489,0.43583
690.875,223.721,-3.57971,2.03017,0.43545
691.475,223.929,-3.581,1.99918,0.43507
692.075,224.135,-3.57822,2.01638,0.43468
692.675,224.342,-3.57829,1.98672,0.4343
693.275,224.551,-3.58125,2.00815,0.43392
693.875,224.759,-3.58201,1.99387,0.43353
694.475,224.968,-3.57939,1.97579,0.43315
695.075,225.177,-3.58082,1.9583,0.43276
695.675,225.387,-3.58044,1.97071,0.43238
696.275,225.596,-3.5818,1.96762,0.432
696.875,225.804,-3.57752,2.00131,0.43161
697.475,226.011,-3.58235,1.98932,0.43123
698.075,226.218,-3.5827,2.0008,0.43085
698.675,226.4253,-3.57995,2.01644,0.43046
699.275,226.633,-3.58223,2.02846,0.43008
699.875,226.84,-3.58334,2.02453,0.42969
700.475,227.048,-3.58339,2.03044,0.42931
701.075,227.256,-3.58215,2.01847,0.42893
701.675,227.464,-3.58071,2.01193,0.42854
702.275,227.672,-3.5806,1.99799,0.42816
702.875,227.879,-3.58059,2.00643,0.42777
703.475,228.087,-3.58216,2.01826,0.42739
704.075,228.294,-3.58082,2.01501,0.427
704.675,228.5013,-3.5818,2.00124,0.42662
705.275,228.709,-3.58356,2.02082,0.42624
705.875,228.9171,-3.58447,2.04576,0.42585
706.475,229.125,-3.58345,2.03788,0.42547
707.075,229.332,-3.58346,2.05483,0.42508
707.675,229.54,-3.58345,2.04241,0.4247
708.275,229.7477,-3.58279,2.04744,0.42431
708.875,229.956,-3.58279,2.0593,0.42393
709.475,230.164,-3.5815,2.06487,0.42355
710.075,230.373,-3.58163,2.07088,0.42316
710.675,230.582,-3.58355,2.08545,0.42278
711.275,230.79,-3.58375,2.08774,0.42239
711.875,230.998,-3.5834,2.10443,0.42201
712.475,231.206,-3.58422,2.11736,0.42162
713.075,231.414,-3.58569,2.10497,0.42124
713.675,231.623,-3.58304,2.11601,0.42085
714.275,231.8312,-3.58486,2.12025,0.42047
714.875,232.04,-3.58501,2.11815,0.42008
715.475,232.248,-3.58399,2.1197,0.4197
716.075,232.457,-3.58537,2.11078,0.41932
716.675,232.665,-3.58511,2.15684,0.41893
717.275,232.874,-3.58641,2.14664,0.41855
717.875,233.083,-3.58641,2.17645,0.41816
718.475,233.2921,-3.58641,2.20759,0.41778
719.075,233.5,-3.58772,2.17522,0.41739
719.675,233.706,-3.585,2.19731,0.41701
720.275,233.913,-3.58646,2.20474,0.41662
720.875,234.119,-3.58509,2.1849,0.41624
721.475,234.327,-3.58673,2.19249,0.41585
722.075,234.535,-3.58541,2.20656,0.41547
722.675,234.744,-3.58539,2.202,0.41508
723.275,234.953,-3.5864,2.19106,0.4147
723.875,235.161,-3.58674,2.21187,0.41432
724.475,235.369,-3.58805,2.19153,0.41393
725.075,235.577,-3.58706,2.18473,0.41355
725.675,235.784,-3.58739,2.19269,0.41316
726.275,235.992,-3.58937,2.20321,0.41278
726.875,236.2,-3.58629,2.20856,0.41239
727.475,236.408,-3.58624,2.17879,0.41201
728.075,236.616,-3.58788,2.22652,0.41162
728.675,236.826,-3.58815,2.23372,0.41124
729.275,237.035,-3.5875,2.24877,0.41085
729.875,237.2445,-3.58553,2.24854,0.41047
730.475,237.452,-3.58697,2.25244,0.41009
731.075,237.66,-3.58728,2.26469,0.4097
731.675,237.868,-3.58838,2.25158,0.40932
732.275,238.077,-3.58979,2.29014,0.40893
732.875,238.286,-3.58694,2.29075,0.40855
733.475,238.494,-3.59112,2.28832,0.40816
734.075,238.7028,-3.58838,2.32172,0.40778
734.675,238.912,-3.59133,2.33741,0.40739
735.275,239.121,-3.59046,2.35096,0.40701
735.875,239.329,-3.59112,2.32846,0.40663
736.475,239.537,-3.59144,2.31952,0.40624
737.075,239.745,-3.59046,2.3249,0.40586
737.675,239.954,-3.59025,2.34925,0.40547
738.275,240.163,-3.59044,2.35017,0.40509
738.875,240.373,-3.59058,2.37424,0.40471
739.475,240.583,-3.59203,2.39994,0.40432
740.075,240.792,-3.59059,2.41483,0.40394
740.675,241.001,-3.59046,2.4383,0.40355
741.275,241.21,-3.59058,2.44491,0.40317
741.875,241.418,-3.59191,2.46949,0.40278
742.475,241.626,-3.59255,2.49448,0.4024
743.075,241.8342,-3.59391,2.52502,0.40202
743.675,242.042,-3.59346,2.57291,0.40163
744.275,242.251,-3.59007,2.58581,0.40125
744.875,242.4578,-3.58931,2.61875,0.40086
745.475,242.664,-3.59177,2.63266,0.40048
746.075,242.871,-3.59156,2.66902,0.4001
746.675,243.08,-3.59022,2.66071,0.39971
747.275,243.29,-3.59156,2.67705,0.39933
747.375,243.324,-3.59156,2.69252,0.39927