File: 01_Data/Basswood_Panel/Cone/Basswood_Panel_Cone_HF25Scan_221212_R1.csv
Names,Time,Stack TC,Smoke TC,Exh Press,Smoke Comp,Smoke Meas,CO Meter,CO2 Meter,O2 Meter,Sample Mass,Ext Coeff,Start Test,Flame Verif
Chan Gain,,500,500,1,1,1,1,1,1,1,1,1.0,1.0
Offset,,0,0,0.136389,0,0,0,0,0,0,0,0.0,0.0
Gain,,1,1,25.011,14.2696,296.664,1,1,1,1.0009,1.04656,1.0,1.0
Units,sec,C,C,Pa,%,%,%,%,%,g,/m,,
Baseline,,24.4992,25.3778,160.922,106.747,112.622,0.000620808,0.0671075,20.9537,-447.042,-0.491761,,
8,1.75,22.1176,23.2931,160.314,105.824,111.756,0.000612566,0.0770543,20.9401,132.959,-0.500676,0.0,0.0
16,3.75,22.641,22.8063,159.833,105.737,111.792,0.000687203,0.0761031,20.941,132.959,-0.511248,0.0,0.0
24,5.75,22.4243,23.3084,159.868,105.653,111.647,0.000787683,0.0753678,20.9415,132.959,-0.506606,0.0,0.0
32,7.75,22.8691,22.8888,163.129,105.582,112.127,0.000804168,0.0749728,20.9419,132.929,-0.552147,0.0,0.0
40,9.75,22.3171,23.55,163.709,105.521,112.2,0.000788938,0.0744165,20.9432,132.899,-0.563415,0.0,0.0
48,11.75,22.3752,23.5611,160.268,105.483,111.991,0.000805628,0.0737454,20.9437,132.859,-0.549658,0.0,0.0
56,13.75,22.2824,23.7578,164.009,105.449,112.055,0.000717561,0.0731076,20.944,132.829,-0.557771,0.0,0.0
64,15.75,22.6678,23.0105,160.717,105.438,112.209,0.000510611,0.0725445,20.9441,132.799,-0.571319,0.0,0.0
72,17.75,22.8423,23.7095,164.313,105.431,112.209,0.000451429,0.0720933,20.9442,132.759,-0.571926,0.0,0.0
80,19.75,22.4134,23.4022,160.129,105.451,111.593,0.0004626,0.0717279,20.9453,132.729,-0.519713,0.0,0.0
88,21.75,22.5912,23.7647,164.679,105.471,111.62,0.00049764,0.0712878,20.946,132.679,-0.520165,0.0,0.0
96,23.75,22.787,23.6148,159.994,105.518,111.158,0.000602388,0.0708107,20.947,132.679,-0.478095,0.0,0.0
104,25.75,22.425,23.5881,162.34,105.559,111.086,0.000727619,0.0702578,20.9481,132.649,-0.46855,0.0,0.0
112,27.75,22.2355,23.7291,158.478,105.627,112.064,0.000824662,0.0698218,20.9485,132.609,-0.543019,0.0,0.0
120,29.75,22.7395,23.1399,157.951,105.707,111.602,0.000875859,0.0697388,20.9487,132.599,-0.498154,0.0,0.0
128,31.75,22.9175,23.7846,160.879,105.781,110.932,0.000808516,0.0697738,20.9488,132.559,-0.436489,0.0,0.0
136,33.75,22.5582,23.5741,162.867,105.861,110.651,0.00063954,0.0697889,20.9489,132.549,-0.406283,0.0,0.0
144,35.75,22.6632,23.6471,162.386,105.945,110.86,0.000582049,0.0697318,20.9489,132.529,-0.416256,0.0,0.0
152,37.75,22.7494,23.3014,158.703,106.033,111.91,0.000671151,0.0698199,20.9496,132.489,-0.495233,0.0,0.0
160,39.75,22.4655,23.5345,160.412,106.14,111.584,0.000824356,0.0700357,20.9499,132.469,-0.45915,0.0,0.0
168,41.75,22.8545,23.7504,159.111,106.209,112.236,0.000910987,0.0704364,20.9501,132.439,-0.506674,0.0,0.0
176,43.75,22.6387,23.5364,159.787,106.302,111.946,0.000851858,0.070699,20.9497,132.439,-0.474933,0.0,0.0
184,45.75,22.6689,23.5908,160.593,106.399,112.055,0.000653632,0.0709477,20.9495,132.409,-0.475455,0.0,0.0
192,47.75,22.7899,23.4904,163.973,106.48,112.842,0.000607783,0.0709217,20.9506,132.359,-0.532736,0.0,0.0
200,49.75,22.4829,23.8215,160.363,106.571,111.521,0.000716824,0.0707123,20.9512,132.329,-0.416759,0.0,0.0
208,51.75,22.8148,23.5274,162.143,106.662,111.303,0.000703376,0.0703271,20.9517,132.299,-0.391055,0.0,0.0
216,53.75,22.8188,23.7012,158.827,106.752,112.535,0.000575658,0.0697087,20.953,132.289,-0.484261,0.0,0.0
224,55.75,22.6401,23.8227,163.58,106.847,112.761,0.000539068,0.0695555,20.9536,132.249,-0.494546,0.0,0.0
232,57.75,22.694,23.7734,158.188,106.923,111.937,0.000652297,0.0696787,20.9529,132.218,-0.420717,0.0,0.0
240,59.75,22.8882,23.6386,159.925,107.019,112.625,0.000852631,0.0699632,20.9518,132.148,-0.468716,0.0,0.0
248,61.75,22.4975,23.6862,164.749,107.098,111.095,0.00101917,0.0702414,20.9509,132.128,-0.336347,0.0,0.0
256,63.75,22.7821,23.9402,162.703,107.18,111.131,0.00107595,0.0703611,20.9505,132.098,-0.332325,0.0,0.0
264,65.75,22.7363,23.7353,161.41,107.248,111.349,0.00105757,0.0703688,20.9504,132.048,-0.344477,0.0,0.0
272,67.75,23.0316,23.8501,155.128,107.32,111.502,0.00100516,0.0703835,20.9503,131.998,-0.35101,0.0,0.0
280,69.75,22.7067,24.2558,157.823,107.364,111.738,0.00103007,0.0704439,20.9502,131.968,-0.366571,0.0,0.0
288,71.75,23.0387,24.0405,157.737,107.406,111.294,0.00112788,0.0705332,20.9502,131.948,-0.326476,0.0,0.0
296,73.75,23.2837,24.0672,166.385,107.447,110.769,0.00120046,0.0706048,20.9508,131.848,-0.279561,0.0,0.0
304,75.75,22.387,23.8683,161.187,107.471,111.584,0.00127586,0.0707337,20.9515,131.818,-0.344761,0.0,0.0
312,77.75,23.2828,23.8936,159.762,107.484,112.091,0.00134822,0.0708532,20.9517,131.768,-0.385262,0.0,0.0
320,79.75,23.1134,24.2363,161.954,107.485,110.679,0.00138266,0.0709976,20.9518,131.728,-0.268819,0.0,0.0
328,81.75,23.2054,24.0586,160.996,107.492,110.009,0.00143464,0.0713393,20.9519,131.678,-0.212411,0.0,0.0
336,83.75,23.4176,24.1829,158.941,107.471,111.004,0.00154295,0.0717148,20.9537,131.618,-0.297004,0.0,0.0
344,85.75,22.8801,24.029,159.89,107.459,111.195,0.00173761,0.0720429,20.9535,131.568,-0.313719,0.0,0.0
352,87.75,22.6715,23.554,151.7,107.432,115.124,0.00190064,0.0818804,20.9326,131.438,-0.634823,0.0,1.0
360,89.75,23.4535,23.8718,145.522,107.386,121.968,0.00211477,0.132147,20.8379,131.198,-1.16892,0.0,1.0
368,91.75,24.7166,25.0935,139.515,107.349,126.305,0.00253094,0.236003,20.7361,130.877,-1.49282,0.0,1.0
376,93.75,25.2812,25.0439,137.297,107.297,125.879,0.00293458,0.341345,20.6339,130.557,-1.46627,0.0,1.0
384,95.75,27.4275,26.6882,135.997,107.236,125.409,0.00333803,0.429855,20.5523,130.237,-1.43713,0.0,1.0
392,97.75,29.5907,28.7279,138.22,107.177,123.906,0.003729,0.48596,20.4995,129.906,-1.33148,0.0,0.0
400,99.75,31.0758,30.6112,143.9,107.126,126.993,0.00399694,0.517743,20.4686,129.566,-1.56182,0.0,0.0
408,101.75,32.6706,32.4619,132.362,107.064,125.363,0.00413239,0.534418,20.4537,129.246,-1.44852,0.0,0.0
416,103.75,34.1524,34.0055,141.109,107.013,124.295,0.00420915,0.54087,20.4464,128.956,-1.37436,0.0,0.0
424,105.75,35.5231,35.9107,136.496,106.949,123.842,0.00426315,0.543274,20.4431,128.605,-1.34636,0.0,0.0
432,107.75,36.8689,37.3547,143.052,106.888,122.964,0.00434104,0.544445,20.444,128.325,-1.28626,0.0,0.0
440,109.75,38.2138,38.5929,142.948,106.835,120.112,0.00433595,0.541081,20.4504,128.065,-1.0754,0.0,0.0
448,111.75,39.2382,40.1091,137.765,106.791,121.851,0.00423602,0.532141,20.4603,127.774,-1.21105,0.0,0.0
456,113.75,39.9862,41.0471,134.584,106.756,123.643,0.0041084,0.521371,20.4713,127.454,-1.34815,0.0,0.0
464,115.75,41.3535,42.6422,142.288,106.701,121.905,0.00407214,0.509633,20.4824,127.154,-1.22289,0.0,0.0
472,117.75,42.0451,43.2321,135.39,106.65,123.181,0.00405294,0.500682,20.4949,126.864,-1.32291,0.0,0.0
480,119.75,42.4051,44.0687,142.972,106.609,123.254,0.00395375,0.489916,20.5065,126.593,-1.33187,0.0,0.0
488,121.75,42.3984,44.3502,142.791,106.571,122.937,0.00389186,0.478337,20.5208,126.363,-1.3115,0.0,0.0
496,123.75,43.2636,45.2971,143.196,106.58,123.181,0.00377564,0.465063,20.5361,126.063,-1.32895,0.0,0.0
504,125.75,43.8323,45.8545,139.801,106.682,122.457,0.00362932,0.4534,20.5468,125.803,-1.26604,0.0,0.0
512,127.75,44.2226,46.4814,144.82,106.774,122.086,0.00349122,0.445258,20.5556,125.583,-1.23023,0.0,0.0
520,129.75,44.8273,47.0214,146.24,106.855,121.063,0.00331704,0.435879,20.5628,125.352,-1.14609,0.0,0.0
528,131.75,44.6192,47.3991,142.362,106.915,122.484,0.00304623,0.426979,20.5715,125.092,-1.24805,0.0,0.0
536,133.75,45.2208,48.0201,144.273,106.98,122.982,0.00292335,0.417659,20.5821,124.862,-1.27969,0.0,0.0
544,135.75,45.3484,48.0926,142.498,107.03,123.507,0.00289632,0.408106,20.593,124.582,-1.3145,0.0,0.0
552,137.75,45.6369,48.6101,144.764,107.062,123.236,0.00278028,0.399352,20.6015,124.381,-1.2916,0.0,0.0
560,139.75,45.5708,48.4908,141.9,107.086,122.249,0.00261724,0.392171,20.6074,124.141,-1.2157,0.0,0.0
568,141.75,45.8074,48.9016,145.305,107.117,123.281,0.00243141,0.385471,20.6139,123.941,-1.29023,0.0,0.0
576,143.75,45.97,49.3035,142.797,107.108,123.064,0.00232943,0.380887,20.6199,123.711,-1.27479,0.0,0.0
584,145.75,46.1992,49.6653,145.243,107.104,122.095,0.00228554,0.37608,20.6248,123.501,-1.20265,0.0,0.0
592,147.75,46.2603,49.6391,141.172,107.088,122.176,0.00222871,0.371535,20.6297,123.27,-1.21015,0.0,0.0
600,149.75,46.1237,49.4303,149.881,107.055,121.869,0.00220645,0.367385,20.6341,123.06,-1.18975,0.0,0.0
608,151.75,46.1483,49.8794,139.928,107.01,122.348,0.00222749,0.362767,20.6378,122.81,-1.22968,0.0,0.0
616,153.75,46.1969,50.0492,145.221,106.959,124.105,0.00217118,0.358102,20.6436,122.61,-1.36498,0.0,0.0
624,155.75,46.3401,50.0426,144.127,106.912,122.91,0.00206829,0.353112,20.6507,122.43,-1.28015,0.0,0.0
632,157.75,46.2506,50.2343,148.083,106.848,123.589,0.00203388,0.347656,20.656,122.25,-1.33626,0.0,0.0
640,159.75,46.2102,49.8657,145.74,106.757,122.946,0.00203288,0.34306,20.6597,122.049,-1.29617,0.0,0.0
648,161.75,46.0363,50.0695,147.259,106.656,123.652,0.00200059,0.340202,20.6632,121.829,-1.35748,0.0,0.0
656,163.75,46.6584,50.2063,147.623,106.548,123.082,0.00198814,0.336716,20.6673,121.639,-1.3243,0.0,0.0
664,165.75,46.1434,49.9218,144.501,106.458,121.769,0.00200311,0.333033,20.6709,121.479,-1.23359,0.0,0.0
672,167.75,45.9008,50.1828,144.85,106.334,122.647,0.00198245,0.329336,20.6753,121.269,-1.31027,0.0,0.0
680,169.75,45.6962,50.35,151.395,106.188,122.43,0.00189956,0.325325,20.6805,121.078,-1.30663,0.0,0.0
688,171.75,45.7832,50.3406,148.58,106.188,119.85,0.00184665,0.322097,20.6832,120.868,-1.11109,0.0,0.0
696,173.75,45.4731,49.8807,147.901,106.195,121.715,0.00188922,0.320075,20.6844,120.688,-1.25221,0.0,0.0
704,175.75,46.36,50.3981,145.334,106.228,122.204,0.00202653,0.31822,20.686,120.528,-1.28614,0.0,0.0
712,177.75,46.062,50.1557,143.928,106.231,122.511,0.00213165,0.316562,20.6874,120.338,-1.30901,0.0,0.0
720,179.75,47.2733,50.1409,151.154,106.257,121.027,0.00214253,0.315942,20.6882,120.178,-1.19482,0.0,0.0
728,181.75,45.7524,49.7672,148.014,106.284,122.466,0.00213338,0.315578,20.69,119.988,-1.30099,0.0,0.0
736,183.75,45.7348,50.2495,147.786,106.326,121.624,0.00210435,0.314895,20.6917,119.807,-1.23409,0.0,0.0
744,185.75,45.7179,51.102,144.818,106.354,122.068,0.00217257,0.313546,20.693,119.617,-1.26507,0.0,0.0
752,187.75,45.4671,50.2031,145.749,106.385,121.525,0.00225987,0.311978,20.6943,119.437,-1.22145,0.0,0.0
760,189.75,44.8838,49.3777,144.25,106.42,121.968,0.00224288,0.310521,20.6953,119.247,-1.25186,0.0,0.0
768,191.75,45.6681,49.8561,148.288,106.448,122.656,0.00225845,0.310206,20.6954,119.047,-1.3011,0.0,0.0
776,193.75,45.4878,49.802,147.292,106.48,123.462,0.00232939,0.309389,20.6966,118.867,-1.35847,0.0,0.0
784,195.75,45.4226,49.8008,152.011,106.525,120.936,0.00240433,0.307277,20.6994,118.686,-1.16484,0.0,0.0
792,197.75,45.4937,49.8495,145.143,106.544,123.897,0.00242408,0.305446,20.7011,118.516,-1.38517,0.0,0.0
800,199.75,45.6092,49.6775,148.587,106.576,122.53,0.0023305,0.303978,20.7018,118.356,-1.28061,0.0,0.0
808,201.75,45.173,49.6419,143.544,106.616,123.236,0.00217348,0.302485,20.7026,118.186,-1.32988,0.0,0.0
816,203.75,44.9437,49.2538,144.164,106.649,120.981,0.00213755,0.301797,20.7034,117.996,-1.15755,0.0,0.0
824,205.75,45.1345,49.5594,147.667,106.674,123.154,0.0022307,0.30098,20.7046,117.796,-1.31883,0.0,0.0
832,207.75,45.1202,49.3232,146.529,106.699,122.837,0.00237917,0.300066,20.7052,117.625,-1.29307,0.0,0.0
840,209.75,44.8237,49.2141,151.087,106.714,122.448,0.00244908,0.299888,20.7054,117.475,-1.26259,0.0,0.0
848,211.75,44.6756,49.3699,146.234,106.714,122.385,0.0023423,0.300152,20.7055,117.305,-1.25783,0.0,0.0
856,213.75,45.0154,49.352,154.627,106.718,122.557,0.00224728,0.300075,20.706,117.115,-1.27039,0.0,0.0
864,215.75,44.7709,49.3302,150.85,106.722,122.575,0.00221577,0.299463,20.707,116.975,-1.27145,0.0,0.0
872,217.75,44.9045,49.2858,153.99,106.722,122.493,0.00212675,0.29865,20.7075,116.775,-1.26534,0.0,0.0
880,219.75,44.7966,49.1768,151.589,106.687,121.108,0.00202974,0.297771,20.7077,116.614,-1.16393,0.0,0.0
888,221.75,44.7172,49.1835,147.749,106.67,121.262,0.00192595,0.296843,20.7072,116.444,-1.17706,0.0,0.0
896,223.75,44.5437,48.7737,147.657,106.637,122.855,0.00188231,0.297285,20.7067,116.254,-1.29975,0.0,0.0
904,225.75,44.5949,49.103,149.495,106.607,121.697,0.00200436,0.297321,20.7065,116.074,-1.2153,0.0,0.0
912,227.75,44.8812,49.0908,151.237,106.564,122.457,0.00217539,0.295976,20.7071,115.924,-1.27624,0.0,0.0
920,229.75,44.6042,48.9524,148.003,106.507,120.99,0.00227487,0.295288,20.7082,115.754,-1.1705,0.0,0.0
928,231.75,44.4844,48.9292,151.624,106.457,121.896,0.00221697,0.294317,20.7098,115.574,-1.24322,0.0,0.0
936,233.75,44.6027,48.988,148.63,106.399,122.928,0.00218656,0.29291,20.7104,115.413,-1.32562,0.0,0.0
944,235.75,44.4449,48.7079,150.596,106.338,122.493,0.00222488,0.292507,20.7108,115.243,-1.29844,0.0,0.0
952,237.75,44.2541,48.5886,153.123,106.269,122.367,0.00223508,0.292185,20.7109,115.053,-1.29488,0.0,0.0
960,239.75,44.254,48.7499,149.805,106.194,122.013,0.00224048,0.292011,20.711,114.893,-1.27482,0.0,0.0
968,241.75,44.5,48.5672,146.501,106.115,122.24,0.0022743,0.291495,20.711,114.743,-1.29865,0.0,0.0
976,243.75,44.549,48.4415,151.3,106.05,122.792,0.00225067,0.29193,20.711,114.553,-1.34565,0.0,0.0
984,245.75,44.2557,48.4452,147.85,105.96,123.009,0.00207812,0.292724,20.7117,114.372,-1.36969,0.0,0.0
992,247.75,44.0141,48.2813,151.388,105.884,121.461,0.00207488,0.29238,20.712,114.172,-1.25998,0.0,0.0
1000,249.75,44.573,48.6608,148.022,105.828,123.127,0.00219256,0.291519,20.7122,114.022,-1.38994,0.0,0.0
1008,251.75,43.9876,48.2609,147.388,105.765,121.778,0.00232306,0.292033,20.7123,113.842,-1.29425,0.0,0.0
1016,253.75,44.231,48.3169,147.247,105.697,121.769,0.00239255,0.291868,20.7135,113.682,-1.29947,0.0,0.0
1024,255.75,44.1448,48.1969,145.637,105.63,122.312,0.00236822,0.290992,20.7141,113.512,-1.34612,0.0,0.0
1032,257.75,44.0959,47.9275,151.164,105.564,121.38,0.00224906,0.29064,20.7144,113.372,-1.28162,0.0,0.0
1040,259.75,44.1115,47.9948,147.811,105.516,121.398,0.00205224,0.289857,20.7155,113.171,-1.28719,0.0,0.0
1048,261.75,43.8747,47.8966,148.892,105.461,120.438,0.00191014,0.288151,20.7163,113.001,-1.21914,0.0,0.0
1056,263.75,43.732,47.9912,150.855,105.408,121.153,0.00190813,0.286805,20.718,112.841,-1.27809,0.0,0.0
1064,265.75,43.9845,47.7453,152.778,105.377,121.362,0.00191701,0.285281,20.7197,112.671,-1.29654,0.0,0.0
1072,267.75,43.7462,47.7431,148.981,105.346,120.61,0.00190787,0.283808,20.7216,112.521,-1.24218,0.0,0.0
1080,269.75,43.6458,47.7157,146.278,105.312,120.511,0.00192777,0.282078,20.7234,112.331,-1.23764,0.0,0.0
1088,271.75,43.8312,47.8073,147.233,105.293,120.33,0.00195835,0.280968,20.7247,112.16,-1.22546,0.0,0.0
1096,273.75,43.6517,47.6298,151.176,105.28,120.764,0.00201035,0.280104,20.7262,112,-1.25966,0.0,0.0
1104,275.75,43.5858,47.6055,149.923,105.286,120.357,0.00209657,0.279569,20.7263,111.87,-1.22811,0.0,0.0
1112,277.75,43.4616,47.6387,149.919,105.306,120.882,0.00213898,0.278434,20.7277,111.68,-1.26632,0.0,0.0
1120,279.75,43.7034,47.4694,151.382,105.326,121.108,0.00211959,0.277569,20.7289,111.54,-1.28175,0.0,0.0
1128,281.75,43.4407,47.4134,146.684,105.374,121.669,0.00206069,0.276474,20.7308,111.35,-1.32003,0.0,0.0
1136,283.75,43.2909,47.3116,146.393,105.426,121.977,0.00194783,0.274876,20.7322,111.18,-1.33871,0.0,0.0
1144,285.75,43.3304,47.2324,148.685,105.474,121.679,0.00179489,0.273727,20.7333,111.019,-1.31206,0.0,0.0
1152,287.75,43.648,47.1223,149.596,105.543,120.782,0.00181271,0.272838,20.7347,110.889,-1.23817,0.0,0.0
1160,289.75,43.3346,47.0231,150.429,105.629,121.353,0.00202336,0.271762,20.736,110.709,-1.27396,0.0,0.0
1168,291.75,43.1099,47.0451,151.637,105.721,121.081,0.00219022,0.270273,20.7374,110.549,-1.24537,0.0,0.0
1176,293.75,43.1182,47.1423,146.784,105.807,121.217,0.00215276,0.268797,20.738,110.389,-1.24821,0.0,0.0
1184,295.75,43.1752,47.1769,149.498,105.908,122.928,0.00212668,0.267856,20.7405,110.249,-1.3681,0.0,0.0
1192,297.75,43.085,46.7506,149.165,106.004,121.099,0.00219095,0.266627,20.7425,110.099,-1.22219,0.0,0.0
1200,299.75,43.0705,46.8294,148.641,106.102,121.416,0.00222208,0.266285,20.7423,109.928,-1.23766,0.0,0.0
1208,301.75,43.1196,46.7525,148.455,106.199,122.729,0.00220895,0.266899,20.7419,109.758,-1.32803,0.0,0.0
1216,303.75,42.9426,46.5433,150.578,106.299,122.511,0.00219574,0.266668,20.7418,109.588,-1.30315,0.0,0.0
1224,305.75,43.0993,46.4371,148.659,106.402,122.855,0.00206261,0.265926,20.7425,109.438,-1.32002,0.0,0.0
1232,307.75,42.5688,46.5013,146.821,106.487,123.897,0.00190814,0.264819,20.7434,109.288,-1.39009,0.0,0.0
1240,309.75,42.8648,46.7963,149.896,106.56,121.633,0.00188775,0.263618,20.7437,109.128,-1.21456,0.0,0.0
1248,311.75,42.8177,46.2245,151.423,106.652,121.959,0.00187058,0.263311,20.7445,108.998,-1.23118,0.0,0.0
1256,313.75,42.5054,46.444,150.999,106.713,122.077,0.00181078,0.262904,20.7445,108.807,-1.23483,0.0,0.0
1264,315.75,42.7539,46.1416,152.056,106.772,122.167,0.00176009,0.262658,20.7451,108.657,-1.23658,0.0,0.0
1272,317.75,42.5394,45.8252,149.109,106.839,122.801,0.00180114,0.262145,20.7457,108.537,-1.27831,0.0,0.0
1280,319.75,42.586,46.0053,154.272,106.9,121.525,0.00192739,0.261019,20.7469,108.367,-1.17714,0.0,0.0
1288,321.75,42.6688,45.5122,145.343,106.936,121.968,0.00202764,0.25954,20.7482,108.217,-1.20745,0.0,0.0
1296,323.75,42.2648,45.9535,152.118,106.989,122.394,0.00195057,0.258142,20.7493,108.067,-1.2349,0.0,0.0
1304,325.75,42.3583,46.0348,147.445,107.03,123.009,0.00185862,0.257438,20.7498,107.967,-1.27745,0.0,0.0
1312,327.75,42.0994,46.1638,154.455,107.064,122.647,0.00188545,0.257089,20.7499,107.787,-1.24744,0.0,0.0
1320,329.75,42.1393,45.5435,149.816,107.128,121.144,0.00192807,0.256458,20.7514,107.626,-1.12884,0.0,0.0
1328,331.75,41.9915,45.6765,147.436,107.135,122.783,0.00187847,0.255625,20.752,107.466,-1.25159,0.0,0.0
1336,333.75,42.0584,45.4954,149.451,107.171,124.902,0.00186167,0.255164,20.7522,107.316,-1.40554,0.0,0.0
1344,335.75,41.9648,45.4732,147.642,107.208,122.385,0.00189159,0.254975,20.7528,107.186,-1.21545,0.0,0.0
1352,337.75,41.8015,45.4144,149.667,107.247,122.792,0.00195803,0.254343,20.7534,107.046,-1.24264,0.0,0.0
1360,339.75,41.6532,45.0958,146.356,107.269,122.846,0.00194768,0.254592,20.7533,106.876,-1.24484,0.0,0.0
1368,341.75,41.7861,45.163,150.493,107.301,122.149,0.00186912,0.254546,20.7533,106.716,-1.18984,0.0,0.0
1376,343.75,41.859,45.2536,148.297,107.332,124.295,0.00180621,0.253509,20.7546,106.586,-1.34705,0.0,0.0
1384,345.75,41.6857,44.9887,146.853,107.346,122.937,0.00182586,0.252302,20.7551,106.445,-1.24497,0.0,0.0
1392,347.75,41.4669,44.8402,148.672,107.365,122.683,0.00187234,0.251956,20.7552,106.305,-1.22438,0.0,0.0
1400,349.75,41.34,44.8028,146.798,107.384,122.991,0.00195474,0.252556,20.7546,106.115,-1.24575,0.0,0.0
1408,351.75,41.501,44.7407,149.285,107.388,122.656,0.00216968,0.252754,20.7543,105.985,-1.22041,0.0,0.0
1416,353.75,41.472,44.7562,150.418,107.383,122.095,0.00241438,0.253316,20.7542,105.865,-1.17871,0.0,0.0
1424,355.75,41.4942,44.7591,149.947,107.395,122.801,0.00251298,0.253851,20.7537,105.735,-1.23069,0.0,0.0
1432,357.75,41.4156,44.5441,150.127,107.385,122.665,0.00249559,0.254398,20.7526,105.535,-1.22135,0.0,0.0
1440,359.75,41.5653,44.7514,153.318,107.372,121.95,0.00241238,0.254611,20.7526,105.394,-1.16875,0.0,0.0
1448,361.75,41.5964,44.763,150.303,107.353,122.176,0.00230057,0.25381,20.7534,105.254,-1.18744,0.0,0.0
1456,363.75,41.3006,44.5925,154.426,107.352,122.765,0.00220864,0.252655,20.7538,105.134,-1.23163,0.0,0.0
1464,365.75,41.2491,44.3959,152.098,107.32,122.638,0.00210164,0.252463,20.754,104.964,-1.22487,0.0,0.0
1472,367.75,41.0033,44.3289,152.77,107.29,121.986,0.00199301,0.252734,20.754,104.834,-1.17847,0.0,0.0
1480,369.75,41.2206,44.216,150.095,107.276,123.236,0.00192044,0.252484,20.7548,104.684,-1.27321,0.0,0.0
1488,371.75,41.1548,44.364,148.815,107.242,121.823,0.00195755,0.251964,20.7544,104.564,-1.17034,0.0,0.0
1496,373.75,41.1167,44.3767,150.762,107.206,122.711,0.00210177,0.252431,20.7538,104.404,-1.24009,0.0,0.0
1504,375.75,41.2692,44.3015,148.266,107.167,122.385,0.00219705,0.253223,20.7532,104.243,-1.21895,0.0,0.0
1512,377.75,40.9731,44.1874,147.555,107.133,122.059,0.00215983,0.253578,20.7519,104.103,-1.19738,0.0,0.0
1520,379.75,40.74,44.2252,153.875,107.086,122.385,0.0020439,0.253511,20.7524,103.943,-1.2259,0.0,0.0
1528,381.75,40.9792,43.883,151.924,107.043,122.883,0.00191932,0.253077,20.7524,103.803,-1.26687,0.0,0.0
1536,383.75,41.1358,44.4002,151.959,107.01,122.91,0.00181678,0.252945,20.7511,103.663,-1.27174,0.0,0.0
1544,385.75,41.2902,44.2749,147.743,106.965,124.132,0.00180556,0.253371,20.7505,103.523,-1.36642,0.0,0.0
1552,387.75,41.1088,44.0866,151.159,106.912,123.118,0.00193181,0.254258,20.7503,103.343,-1.29569,0.0,0.0
1560,389.75,40.8987,43.9125,149.774,106.864,123.299,0.00211949,0.254034,20.7515,103.192,-1.31333,0.0,0.0
1568,391.75,41.0057,43.8619,152.107,106.831,123.625,0.00207951,0.253234,20.7523,103.042,-1.34033,0.0,0.0
1576,393.75,40.9653,43.9434,144.159,106.78,120.628,0.00185309,0.252833,20.7535,102.902,-1.11947,0.0,0.0
1584,395.75,40.9625,43.9971,152.872,106.733,122.149,0.00166378,0.252943,20.7538,102.762,-1.23855,0.0,0.0
1592,397.75,41.0776,43.7776,148.436,106.678,122.059,0.00163535,0.253064,20.7536,102.602,-1.2365,0.0,0.0
1600,399.75,40.6886,43.9884,145.956,106.632,122.421,0.00166526,0.252378,20.7541,102.442,-1.26763,0.0,0.0
1608,401.75,40.9045,43.8486,146.405,106.591,121.38,0.00163425,0.252131,20.7534,102.332,-1.19271,0.0,0.0
1616,403.75,40.8417,44.0251,148.073,106.549,122.013,0.0015672,0.252596,20.7528,102.162,-1.24416,0.0,0.0
1624,405.75,40.8485,43.9056,148.152,106.515,122.475,0.00159078,0.252397,20.7529,102.001,-1.28176,0.0,0.0
1632,407.75,40.709,43.8408,156.691,106.486,121.787,0.00167519,0.252078,20.7538,101.891,-1.23259,0.0,0.0
1640,409.75,40.991,43.7581,147.467,106.465,122.457,0.00166008,0.25174,20.7547,101.731,-1.28476,0.0,0.0
1648,411.75,40.6151,43.6267,150.36,106.498,122.702,0.00151837,0.251849,20.7547,101.571,-1.30017,0.0,0.0
1656,413.75,40.8913,43.8042,147.178,106.57,121.416,0.00145696,0.252735,20.7535,101.451,-1.19732,0.0,0.0
1664,415.75,40.8454,43.7614,152.136,106.648,122.276,0.00147519,0.25355,20.7528,101.301,-1.25538,0.0,0.0
1672,417.75,40.7124,43.6941,148.554,106.689,122.43,0.0014919,0.253301,20.7525,101.141,-1.26344,0.0,0.0
1680,419.75,40.8939,43.6656,149.127,106.732,122.14,0.00146207,0.253312,20.7531,101.041,-1.23794,0.0,0.0
1688,421.75,40.9689,43.7955,153.127,106.761,121.307,0.00153968,0.253301,20.753,100.88,-1.17261,0.0,0.0
1696,423.75,40.7476,43.5911,146.494,106.801,121.95,0.00169792,0.25365,20.7521,100.73,-1.21769,0.0,0.0
1704,425.75,40.9823,43.8459,153.459,106.834,121.679,0.00176012,0.254106,20.752,100.58,-1.19445,0.0,0.0
1712,427.75,40.5771,43.7969,150.397,106.859,123.136,0.00169633,0.254075,20.7526,100.43,-1.30156,0.0,0.0
1720,429.75,40.9731,43.5841,151.028,106.872,121.679,0.00155302,0.253881,20.7542,100.3,-1.19119,0.0,0.0
1728,431.75,40.8737,43.6336,149.775,106.884,122.53,0.00150898,0.253384,20.7549,100.14,-1.25409,0.0,0.0
1736,433.75,40.7918,43.6663,150.476,106.885,123.29,0.00162266,0.253062,20.7541,99.9796,-1.31086,0.0,0.0
1744,435.75,40.865,43.8315,153.616,106.898,122.466,0.0017267,0.25356,20.7526,99.8294,-1.24815,0.0,0.0
1752,437.75,40.8304,43.6617,150.524,106.888,121.117,0.00175758,0.254505,20.7515,99.7093,-1.14729,0.0,0.0
1760,439.75,40.9363,43.9694,150.269,106.887,123.308,0.00169402,0.255096,20.7511,99.5992,-1.31202,0.0,0.0
1768,441.75,40.9468,43.607,149.171,106.882,122.321,0.0016031,0.255653,20.7507,99.4891,-1.23867,0.0,0.0
1776,443.75,40.9879,43.7817,146.505,106.864,122.249,0.00157702,0.255757,20.7498,99.2589,-1.23476,0.0,0.0
1784,445.75,40.8142,43.7793,149.454,106.851,122.602,0.00164489,0.256262,20.7477,99.1388,-1.26236,0.0,0.0
1792,447.75,40.8285,43.5334,152.002,106.831,122.837,0.00170692,0.257526,20.7463,98.9687,-1.28173,0.0,0.0
1800,449.75,41.0371,43.746,152.979,106.796,123.743,0.00163417,0.257458,20.7469,98.8286,-1.3521,0.0,0.0
1808,451.75,40.987,43.7154,151.674,106.766,122.828,0.00152696,0.257444,20.7479,98.6684,-1.28663,0.0,0.0
1816,453.75,41.352,44.0335,148.938,106.74,123.589,0.001526,0.258021,20.7492,98.4883,-1.3455,0.0,0.0
1824,455.75,40.9863,44.0312,148.271,106.683,122.919,0.00152882,0.258164,20.7498,98.3681,-1.30047,0.0,0.0
1832,457.75,41.3017,44.0858,145.335,106.651,122.729,0.00147857,0.258202,20.7501,98.248,-1.28904,0.0,0.0
1840,459.75,41.1448,43.8104,150.025,106.603,123.516,0.00149559,0.258616,20.7502,98.1079,-1.35193,0.0,0.0
1848,461.75,41.1381,44.1707,144.802,106.543,124.711,0.00164887,0.258869,20.7503,97.9378,-1.4455,0.0,0.0
1856,463.75,41.3577,43.8741,147.91,106.467,121.796,0.00184993,0.259377,20.7503,97.7676,-1.23492,0.0,0.0
1864,465.75,41.6264,43.9374,158.927,106.453,122.466,0.00199971,0.259548,20.7494,97.6475,-1.28649,0.0,0.0
1872,467.75,41.2341,44.0466,150.057,106.477,122.412,0.00203447,0.26037,20.748,97.5074,-1.28027,0.0,0.0
1880,469.75,41.599,44.0646,149.224,106.497,121.923,0.00202957,0.261716,20.7467,97.3572,-1.24185,0.0,0.0
1888,471.75,41.2926,44.0931,149.109,106.527,121.579,0.00202648,0.262834,20.745,97.1871,-1.21331,0.0,0.0
1896,473.75,41.4779,44.3418,144.83,106.539,122.819,0.00197029,0.263898,20.7441,97.057,-1.30545,0.0,0.0
1904,475.75,42.827,44.2745,150.397,106.582,123.344,0.00189509,0.26489,20.7428,96.8968,-1.34093,0.0,0.0
1912,477.75,41.7363,44.1852,155.822,106.614,121.905,0.00183243,0.264205,20.7423,96.7467,-1.23043,0.0,0.0
1920,479.75,41.897,44.4556,148.929,106.669,122.186,0.0017381,0.262878,20.7434,96.6466,-1.24678,0.0,0.0
1928,481.75,41.545,44.2095,148.29,106.728,123.046,0.00165431,0.262205,20.7446,96.4664,-1.30608,0.0,0.0
1936,483.75,41.5471,44.5281,151.295,106.787,124.503,0.00167952,0.262032,20.7451,96.3263,-1.4091,0.0,0.0
1944,485.75,41.622,44.5762,147.652,106.841,123.562,0.00176031,0.261789,20.7461,96.1762,-1.33476,0.0,0.0
1952,487.75,41.7215,44.472,148.153,106.912,124.204,0.00177804,0.261467,20.7471,96.0461,-1.37638,0.0,0.0
1960,489.75,42.0023,44.4805,146.204,106.972,124.087,0.0017284,0.261514,20.7475,95.9259,-1.36248,0.0,0.0
1968,491.75,42.0976,44.5547,146.217,107.038,123.254,0.00167964,0.261727,20.7466,95.7858,-1.29501,0.0,0.0
1976,493.75,41.7362,44.4361,148.988,107.09,123.199,0.00162996,0.262373,20.7455,95.6157,-1.28648,0.0,0.0
1984,495.75,41.9186,44.7652,149.898,107.155,122.955,0.00158376,0.263348,20.7442,95.4455,-1.26268,0.0,0.0
1992,497.75,41.9987,44.7174,148.676,107.213,124.376,0.00157334,0.263715,20.7442,95.3354,-1.36324,0.0,0.0
2000,499.75,41.8238,44.5606,144.873,107.25,124.965,0.00171097,0.264565,20.7437,95.1252,-1.40337,0.0,0.0
2008,501.75,41.7191,44.4726,150.514,107.293,124.494,0.00192231,0.265639,20.7434,95.0552,-1.3651,0.0,0.0
2016,503.75,41.8053,44.508,151.333,107.337,123.969,0.00213592,0.266337,20.7419,94.895,-1.3225,0.0,0.0
2024,505.75,42.1347,44.9214,147.887,107.338,123.679,0.0022379,0.267085,20.7413,94.7449,-1.30095,0.0,0.0
2032,507.75,42.0055,44.8533,146.93,107.351,125.146,0.00224972,0.267029,20.741,94.5747,-1.40809,0.0,0.0
2040,509.75,41.9781,45.1406,147.111,107.344,124.512,0.00229113,0.267284,20.7409,94.3846,-1.36204,0.0,0.0
2048,511.75,42.2606,45.136,149.109,107.337,124.974,0.00242135,0.268562,20.7395,94.2444,-1.39666,0.0,0.0
2056,513.75,42.556,45.1161,151.177,107.299,123.489,0.00239709,0.269407,20.7389,94.0743,-1.29018,0.0,0.0
2064,515.75,42.1977,44.959,152.241,107.259,123.67,0.00210551,0.269489,20.7387,93.9642,-1.30702,0.0,0.0
2072,517.75,42.8675,45.332,147.298,107.194,122.937,0.00173123,0.268841,20.7391,93.8541,-1.25801,0.0,0.0
2080,519.75,42.3678,45.5041,149.046,107.117,124.159,0.00155367,0.268857,20.7388,93.6439,-1.35543,0.0,0.0
2088,521.75,42.2948,44.7352,147.832,107.015,124.612,0.00154675,0.269773,20.7374,93.5138,-1.39758,0.0,0.0
2096,523.75,42.5766,45.2777,149.55,106.9,124.005,0.00158637,0.27126,20.7357,93.3136,-1.36262,0.0,0.0
2104,525.75,42.8067,45.5889,151.727,106.768,124.132,0.0015765,0.272184,20.7342,93.2135,-1.38333,0.0,0.0
2112,527.75,42.5489,45.29,148.399,106.634,124.92,0.00161987,0.272475,20.7331,93.0934,-1.45294,0.0,0.0
2120,529.75,43.108,45.845,147.003,106.487,123.743,0.00168366,0.27279,20.7327,92.9233,-1.37872,0.0,0.0
2128,531.75,42.8513,45.6319,150.177,106.338,123.209,0.00167999,0.273196,20.7325,92.7131,-1.35181,0.0,0.0
2136,533.75,42.8415,45.4277,151.628,106.184,124.114,0.00169151,0.27404,20.7313,92.5629,-1.43234,0.0,0.0
2144,535.75,42.8838,45.5589,146.155,106.022,123.643,0.00168579,0.275037,20.7306,92.4028,-1.41151,0.0,0.0
2152,537.75,42.8628,45.6612,145.913,105.88,122.883,0.00154206,0.275063,20.7315,92.2627,-1.36717,0.0,0.0
2160,539.75,42.657,45.739,147.549,105.749,123.589,0.00144389,0.275956,20.7315,92.1426,-1.43111,0.0,0.0
2168,541.75,43.0987,45.8891,156.476,105.613,122.339,0.0014308,0.277591,20.7281,91.9724,-1.34963,0.0,0.0
2176,543.75,43.2369,45.6917,146.046,105.491,122.584,0.00146676,0.279884,20.7252,91.8123,-1.37864,0.0,0.0
2184,545.75,43.3814,46.0718,147.27,105.383,121.896,0.00152803,0.280395,20.7242,91.6922,-1.33629,0.0,0.0
2192,547.75,42.8929,45.6584,156.537,105.3,122.285,0.00159211,0.279667,20.7236,91.522,-1.37285,0.0,0.0
2200,549.75,43.1097,46.3064,150.188,105.255,123.779,0.00164431,0.282127,20.7222,91.2918,-1.48827,0.0,0.0
2208,551.75,43.4797,46.2767,144.921,105.23,123.281,0.00177637,0.284355,20.7217,91.1717,-1.45343,0.0,0.0
2216,553.75,43.4806,46.374,141.611,105.248,124.53,0.00189146,0.285055,20.7214,90.9615,-1.54444,0.0,0.0
2224,555.75,43.648,46.2859,148.357,105.261,122.493,0.00189557,0.285885,20.7202,90.7413,-1.39185,0.0,0.0
2232,557.75,43.9256,46.4177,148.846,105.317,123.498,0.00184322,0.285748,20.7188,90.7613,-1.462,0.0,0.0
2240,559.75,43.4677,46.2023,147.925,105.405,124.802,0.00183354,0.286757,20.7171,90.6012,-1.5507,0.0,0.0
2248,561.75,43.7889,46.0261,148.292,105.518,122.683,0.0017895,0.28978,20.7133,90.431,-1.38371,0.0,0.0
2256,563.75,43.8717,46.6855,151.304,105.631,123.562,0.00169665,0.292388,20.7112,90.2409,-1.43938,0.0,0.0
2264,565.75,44.112,46.6556,146.846,105.791,124.548,0.00163859,0.293018,20.7116,90.0507,-1.49853,0.0,0.0
2272,567.75,44.1042,46.9161,145.846,105.951,124.295,0.00164736,0.29303,20.7117,89.8705,-1.46589,0.0,0.0
2280,569.75,44.1969,46.8366,146.717,106.123,125.916,0.0016514,0.293167,20.7115,89.7704,-1.56996,0.0,0.0
2288,571.75,43.9422,47.0464,146.914,106.266,124.395,0.00166875,0.292936,20.7114,89.5903,-1.446,0.0,0.0
2296,573.75,44.3393,47.2708,149.113,106.383,124.331,0.00170671,0.293528,20.7101,89.4602,-1.43125,0.0,0.0
2304,575.75,44.2747,46.9766,147.554,106.491,124.766,0.0017162,0.295337,20.708,89.28,-1.45396,0.0,0.0
2312,577.75,43.752,47.4672,148.343,106.567,125.961,0.00169279,0.297441,20.705,89.1199,-1.53495,0.0,0.0
2320,579.75,44.462,47.2346,147.725,106.63,125.744,0.00170123,0.301292,20.7014,88.9297,-1.51366,0.0,0.0
2328,581.75,44.4541,47.526,148.634,106.647,125.825,0.00175109,0.304336,20.6991,88.7695,-1.51811,0.0,0.0
2336,583.75,44.3545,47.0725,146.034,106.628,125.825,0.00172153,0.305718,20.6981,88.5794,-1.5198,0.0,0.0
2344,585.75,44.654,47.5358,147.423,106.585,126.712,0.00173326,0.305024,20.6969,88.4493,-1.58802,0.0,0.0
2352,587.75,44.3948,47.3631,144.683,106.514,126.078,0.00183353,0.30532,20.6958,88.2791,-1.54803,0.0,0.0
2360,589.75,45.0788,47.7537,152.682,106.427,124.06,0.00197349,0.307847,20.6917,88.119,-1.40734,0.0,0.0
2368,591.75,44.6954,47.383,143.471,106.36,125.517,0.00195704,0.310494,20.6899,87.9288,-1.5204,0.0,0.0
2376,593.75,45.0689,47.9928,141.59,106.271,126.83,0.00178805,0.311956,20.6892,87.7686,-1.62358,0.0,0.0
2384,595.75,45.105,47.9,144.618,106.169,125.182,0.00165556,0.313396,20.6876,87.6385,-1.51238,0.0,0.0
2392,597.75,45.1313,48.3779,147.174,106.109,125.68,0.00160275,0.31501,20.6861,87.4584,-1.55402,0.0,0.0
2400,599.75,45.1913,48.4451,145.14,106.139,125.78,0.00165034,0.317807,20.6828,87.2782,-1.55862,0.0,0.0
2408,601.75,45.2163,48.47,147.01,106.441,126.703,0.00178658,0.320561,20.6784,87.108,-1.59971,0.0,0.0
2416,603.75,45.6529,48.8922,149.893,106.667,126.305,0.00188128,0.32417,20.6734,86.8378,-1.55133,0.0,0.0
2424,605.75,45.5155,48.117,140.522,106.855,124.675,0.00192822,0.326219,20.6713,86.6977,-1.41601,0.0,0.0
2432,607.75,45.775,49.0791,147.293,106.992,124.558,0.00198347,0.328234,20.668,86.5175,-1.39552,0.0,0.0
2440,609.75,45.8,48.4927,151.395,107.015,127.192,0.00208028,0.330599,20.6661,86.3674,-1.58569,0.0,0.0
2448,611.75,46.2389,49.1602,146.83,106.963,126.576,0.00212348,0.332417,20.6641,86.1572,-1.5456,0.0,0.0
2456,613.75,46.2749,49.3115,145.843,106.82,126.278,0.00210665,0.333917,20.6626,85.967,-1.53621,0.0,0.0
2464,615.75,45.8253,49.3055,145.645,106.598,125.237,0.00211163,0.335321,20.6603,85.7969,-1.47931,0.0,0.0
2472,617.75,46.7099,49.5326,143.154,106.507,127.274,0.0020481,0.336965,20.6574,85.6067,-1.63527,0.0,0.0
2480,619.75,46.91,50.3934,147.154,106.629,126.585,0.00195054,0.340089,20.655,85.3765,-1.575,0.0,0.0
2488,621.75,46.1498,49.768,148.463,106.778,126.785,0.00192685,0.342377,20.6532,85.2264,-1.57662,0.0,0.0
2496,623.75,47.0384,50.0142,144.95,106.936,126.658,0.00196613,0.344803,20.6507,85.0262,-1.5539,0.0,0.0
2504,625.75,47.1639,50.2386,141.579,107.08,127.98,0.00194721,0.347865,20.6466,84.816,-1.63684,0.0,0.0
2512,627.75,47.4,50.4904,147.433,107.226,127.219,0.0018601,0.351972,20.642,84.6358,-1.56959,0.0,0.0
2520,629.75,47.4574,50.663,147.883,107.318,126.54,0.00175769,0.35607,20.6375,84.4457,-1.51256,0.0,0.0
2528,631.75,47.4442,50.3363,144.192,107.374,127.147,0.00173261,0.359813,20.6338,84.2655,-1.55169,0.0,0.0
2536,633.75,47.7649,51.1117,142,107.351,127.844,0.00186507,0.361837,20.6316,84.0753,-1.60386,0.0,0.0
2544,635.75,47.7077,50.7235,142.088,107.277,127.744,0.00217639,0.362534,20.6307,83.8351,-1.60304,0.0,0.0
2552,637.75,48.2321,51.1538,141.52,107.147,128.26,0.00238434,0.364758,20.6279,83.6449,-1.6512,0.0,0.0
2560,639.75,47.7509,52.07,145.738,106.938,128.731,0.00240371,0.368122,20.6246,83.3947,-1.70273,0.0,0.0
2568,641.75,48.4338,51.7598,146.077,106.722,127.536,0.0023696,0.370951,20.6215,83.2046,-1.63567,0.0,0.0
2576,643.75,48.3308,52.0102,146.465,106.467,128.568,0.00238353,0.374539,20.6171,82.9944,-1.73164,0.0,0.0
2584,645.75,48.978,51.8612,140.862,106.199,125.798,0.00238006,0.378092,20.6125,82.7842,-1.55478,0.0,0.0
2592,647.75,49.1648,52.3209,140.877,105.92,127.21,0.00233841,0.381008,20.6089,82.534,-1.6814,0.0,0.0
2600,649.75,49.1461,52.2977,142.631,105.679,124.992,0.00239206,0.383573,20.6063,82.3438,-1.54089,0.0,0.0
2608,651.75,49.3941,52.9012,141.416,105.492,124.865,0.0024875,0.385579,20.6035,82.1236,-1.54782,0.0,0.0
2616,653.75,49.632,52.8432,138.895,105.356,126.314,0.00252542,0.387958,20.5994,81.9434,-1.6655,0.0,0.0
2624,655.75,49.7798,53.3125,143.335,105.301,125.227,0.00255714,0.391649,20.5952,81.6932,-1.59105,0.0,0.0
2632,657.75,50.0842,53.3964,146.449,105.32,124.838,0.00265192,0.394868,20.5917,81.483,-1.5608,0.0,0.0
2640,659.75,50.0296,53.3065,140.909,105.407,124.711,0.00267211,0.397553,20.5883,81.2628,-1.54388,0.0,0.0
2648,661.75,50.4167,53.6205,144.086,105.562,125.816,0.00255888,0.399022,20.5869,81.0126,-1.61138,0.0,0.0
2656,663.75,50.6026,54.0022,142.498,105.74,125.418,0.00253217,0.401013,20.586,80.7423,-1.56679,0.0,0.0
2664,665.75,50.8247,54.153,141.065,105.952,127.536,0.00262348,0.405121,20.5806,80.5522,-1.70213,0.0,0.0
2672,667.75,51.0287,54.4879,143.265,106.175,125.789,0.00268266,0.409576,20.5754,80.332,-1.55619,0.0,0.0
2680,669.75,51.2596,54.8319,140.948,106.368,127.599,0.00270655,0.413445,20.5702,80.0918,-1.67073,0.0,0.0
2688,671.75,51.4816,55.0107,137.275,106.52,126.667,0.00272613,0.41594,20.5673,79.8816,-1.59029,0.0,0.0
2696,673.75,51.5365,54.6998,141.822,106.642,129.066,0.00269655,0.418719,20.564,79.6013,-1.752,0.0,0.0
2704,675.75,51.5659,55.1832,140.458,106.683,127.065,0.00264466,0.420788,20.5626,79.4312,-1.60505,0.0,0.0
2712,677.75,51.9378,55.5572,144.131,106.668,127.427,0.00267329,0.421519,20.561,79.1609,-1.63253,0.0,0.0
2720,679.75,52.0527,55.4965,144.912,106.585,126.911,0.00278365,0.424014,20.5561,78.9107,-1.6024,0.0,0.0
2728,681.75,52.1964,55.9495,139.49,106.443,127.618,0.00287375,0.426828,20.5537,78.7205,-1.66561,0.0,0.0
2736,683.75,52.5767,56.2448,145.523,106.322,125.409,0.00292628,0.428933,20.5525,78.4503,-1.51568,0.0,0.0
2744,685.75,52.6581,56.3365,143.227,106.2,126.178,0.00288265,0.430223,20.5506,78.2001,-1.58238,0.0,0.0
2752,687.75,52.9837,56.6703,141.689,106.089,126.088,0.00277354,0.432008,20.5481,77.9498,-1.58543,0.0,0.0
2760,689.75,52.938,56.825,143.718,106.343,126.133,0.00273094,0.434269,20.545,77.7497,-1.56678,0.0,0.0
2768,691.75,53.1857,57.2328,142.009,106.716,126.024,0.00282124,0.436248,20.5432,77.5095,-1.52671,0.0,0.0
2776,693.75,53.2353,57.2808,141.361,106.936,124.15,0.00295003,0.437898,20.5414,77.2692,-1.37027,0.0,0.0
2784,695.75,53.5516,57.4682,142.255,107.004,127.192,0.00291184,0.439057,20.5408,77.009,-1.58666,0.0,0.0
2792,697.75,53.6433,57.6805,141.184,106.94,128.269,0.00278213,0.440327,20.5397,76.7388,-1.66955,0.0,0.0
2800,699.75,53.7704,58.1062,140.245,106.688,127.427,0.00273098,0.441405,20.5387,76.4885,-1.6308,0.0,0.0
2808,701.75,54.049,57.7982,144.15,106.512,127.618,0.00279079,0.442084,20.537,76.2383,-1.65964,0.0,0.0
2816,703.75,54.5145,58.4719,143.674,106.686,128.55,0.00284428,0.442664,20.5361,76.0381,-1.71144,0.0,0.0
2824,705.75,54.3457,58.3475,141.785,106.909,127.301,0.00288459,0.44364,20.5354,75.7879,-1.60269,0.0,0.0
2832,707.75,54.4234,58.6267,140.635,107.117,129.084,0.00296604,0.444268,20.5345,75.5477,-1.71256,0.0,0.0
2840,709.75,54.6625,58.8197,140.107,107.293,126.92,0.0030235,0.444877,20.5338,75.2975,-1.5423,0.0,0.0
2848,711.75,54.864,59.0002,141.848,107.387,129.51,0.0030115,0.444999,20.5336,75.0472,-1.71962,0.0,0.0
2856,713.75,55.0337,59.2165,141.019,107.379,126.423,0.00287666,0.444183,20.5341,74.827,-1.49884,0.0,0.0
2864,715.75,55.3143,59.4084,141.208,107.229,127.572,0.00272389,0.442436,20.5365,74.5868,-1.59477,0.0,0.0
2872,717.75,55.0241,59.332,143.041,107.008,127.808,0.00268407,0.439746,20.5378,74.3366,-1.63066,0.0,0.0
2880,719.75,55.046,59.5408,142.172,106.672,128.505,0.00271311,0.438896,20.5391,74.1164,-1.70944,0.0,0.0
2888,721.75,55.1157,59.4411,139.208,106.298,126.64,0.00277879,0.438757,20.5391,73.8662,-1.60744,0.0,0.0
2896,723.75,55.6137,59.8704,139.311,105.923,126.803,0.00284683,0.439184,20.5403,73.656,-1.65172,0.0,0.0
2904,725.75,55.5249,59.9981,146.593,105.634,124.385,0.00286437,0.439291,20.5404,73.4458,-1.50009,0.0,0.0
2912,727.75,55.4631,60.1938,141.661,105.421,125.798,0.00282867,0.438626,20.5404,73.1455,-1.62234,0.0,0.0
2920,729.75,55.6332,60.2429,139.283,105.341,125.671,0.00282992,0.438028,20.5402,72.9053,-1.62002,0.0,0.0
2928,731.75,55.7277,60.3916,141.181,105.411,126.522,0.00291049,0.439001,20.5397,72.6651,-1.67588,0.0,0.0
2936,733.75,55.8382,60.4593,143.863,105.584,124.476,0.00303416,0.439965,20.5384,72.4449,-1.51116,0.0,0.0
2944,735.75,56.0184,60.2464,140.752,105.84,125.146,0.00315199,0.440072,20.5378,72.1947,-1.5382,0.0,0.0
2952,737.75,56.1035,60.5608,143.911,106.117,126.495,0.00324585,0.441969,20.5349,71.9244,-1.61263,0.0,0.0
2960,739.75,55.9647,60.5487,139.175,106.374,124.204,0.00328572,0.445036,20.5315,71.6842,-1.42264,0.0,0.0
2968,741.75,55.9649,60.7356,138.596,106.585,124.784,0.00328319,0.44725,20.5282,71.444,-1.44719,0.0,0.0
2976,743.75,56.1595,60.6108,145.904,106.696,124.702,0.00326339,0.449562,20.5247,71.2138,-1.4316,0.0,0.0
2984,745.75,56.1725,60.8104,140.313,106.709,124.902,0.00325491,0.452006,20.5222,70.9636,-1.44516,0.0,0.0
2992,747.75,56.261,61.1708,139.973,106.632,124.503,0.00318847,0.455419,20.5172,70.7134,-1.42251,0.0,0.0
3000,749.75,56.8074,61.0603,151.682,106.483,125.499,0.00315927,0.459616,20.5124,70.4631,-1.5084,0.0,0.0
3008,751.75,56.9961,61.3737,137.744,106.329,124.458,0.00320747,0.462095,20.5094,70.1529,-1.44523,0.0,0.0
3016,753.75,56.9173,61.4685,138.949,106.202,123.181,0.0033342,0.464619,20.5052,69.9026,-1.3616,0.0,0.0
3024,755.75,57.1286,61.7147,135.283,106.091,124.902,0.00346252,0.466971,20.5002,69.6024,-1.49852,0.0,0.0
3032,757.75,57.1353,61.886,136.499,106.316,125.97,0.00359466,0.470426,20.4935,69.3121,-1.55721,0.0,0.0
3040,759.75,57.4787,62.0097,145.421,106.666,123.562,0.00379533,0.473785,20.4889,69.152,-1.34989,0.0,0.0
3048,761.75,58.0117,62.0993,138.423,106.878,124.865,0.00402239,0.4758,20.4868,68.9418,-1.42798,0.0,0.0
3056,763.75,57.6282,62.203,144.089,106.997,124.539,0.00409185,0.474573,20.489,68.6615,-1.39374,0.0,0.0
3064,765.75,57.6529,62.5715,139.615,106.982,124.82,0.00404471,0.465691,20.4993,68.4413,-1.41575,0.0,0.0
3072,767.75,57.4329,62.302,144.218,106.868,124.793,0.00387403,0.451876,20.5139,68.2211,-1.42347,0.0,0.0
3080,769.75,57.4173,62.1116,150.007,106.642,122.466,0.00361673,0.438148,20.5295,67.9709,-1.27016,0.0,0.0
3088,771.75,57.3943,62.0224,142.971,106.503,124.159,0.00337586,0.422424,20.5478,67.7707,-1.40821,0.0,0.0
3096,773.75,56.9325,61.7174,145.303,106.62,122.358,0.00324396,0.403642,20.566,67.6106,-1.26389,0.0,0.0
3104,775.75,56.7248,61.516,144.731,106.766,125.707,0.00311155,0.383047,20.5878,67.4304,-1.49933,0.0,0.0
3112,777.75,55.9362,61.02,148.423,106.94,123.525,0.00298189,0.358406,20.6144,67.2903,-1.32362,0.0,0.0
3120,779.75,55.8978,60.8305,149.415,107.101,122.72,0.00300887,0.336771,20.6389,67.1602,-1.24968,0.0,0.0
3128,781.75,55.1398,60.3433,147.094,107.243,121.353,0.00313111,0.319417,20.6557,67.0501,-1.13476,0.0,0.0
3136,783.75,54.8331,59.6697,147.015,107.328,119.623,0.00342753,0.307992,20.6656,66.92,-0.995696,0.0,0.0
3144,785.75,54.3487,59.2761,148.741,107.39,122.421,0.00383468,0.300939,20.6712,66.8499,-1.20263,0.0,0.0
3152,787.75,53.642,58.8186,149.66,107.395,121.923,0.00434085,0.292287,20.678,66.7198,-1.1648,0.0,0.0
3160,789.75,53.1615,58.3555,150.093,107.354,121.479,0.00495619,0.281869,20.689,66.5997,-1.13484,0.0,0.0
3168,791.75,52.7415,57.8837,151.419,107.278,124.775,0.00553219,0.269497,20.7025,66.5296,-1.38701,0.0,0.0
3176,793.75,52.3038,57.2292,149.651,107.157,123.471,0.00608871,0.258578,20.7153,66.4095,-1.30098,0.0,0.0
3184,795.75,51.5423,56.489,147.884,107.001,123.996,0.00649219,0.246198,20.7303,66.3494,-1.35331,0.0,0.0
3192,797.75,50.802,56.0854,151.175,106.838,122.303,0.00686483,0.234218,20.7443,66.2894,-1.24112,0.0,0.0
3200,799.75,50.6362,55.4102,151.315,106.648,122.068,0.00725363,0.223181,20.7562,66.1993,-1.23973,0.0,0.0
3208,801.75,49.8664,54.5363,154.064,106.445,121.045,0.0076132,0.212556,20.7656,66.1493,-1.17999,0.0,0.0
3216,803.75,48.9528,53.8173,158.07,106.248,120.212,0.00824855,0.203406,20.7765,66.0692,-1.13355,0.0,0.0
3224,805.75,48.5263,53.2873,152.92,106.05,120.637,0.00884613,0.196669,20.7873,65.9891,-1.18317,0.0,0.0
3232,807.75,47.8552,52.7734,153.546,105.88,119.37,0.00922478,0.188929,20.7964,65.9291,-1.10091,0.0,0.0
3240,809.75,47.1137,51.8955,156.838,105.714,120.293,0.00941092,0.182608,20.804,65.9291,-1.18602,0.0,0.0
3248,811.75,46.7275,51.1441,157.99,105.593,117.749,0.00977121,0.178003,20.8107,65.829,-1.00034,0.0,0.0
3256,813.75,45.7488,50.2599,153.619,105.512,118.537,0.010292,0.174069,20.8146,65.7789,-1.06859,0.0,0.0
3264,815.75,45.2166,49.6572,154.415,105.443,117.251,0.0109261,0.172441,20.817,65.7289,-0.974474,0.0,0.0
3272,817.75,44.5306,48.9747,158.492,105.4,118.311,0.011343,0.170779,20.8187,65.7189,-1.06079,0.0,0.0
3280,819.75,44.1494,48.4811,157.499,105.393,118.184,0.0115134,0.169781,20.8183,65.6488,-1.05156,0.0,0.0
3288,821.75,43.5407,47.7126,155.467,105.386,117.604,0.0116576,0.170012,20.8174,65.5988,-1.00705,0.0,0.0
3296,823.75,42.8701,47.037,151.854,105.428,118.13,0.0118696,0.169604,20.8172,65.5687,-1.0443,0.0,0.0
3304,825.75,42.6106,46.8686,161.35,105.471,116.781,0.0119022,0.169147,20.8181,65.5187,-0.935075,0.0,0.0
3312,827.75,41.7513,45.9263,157.659,105.539,116.79,0.0117612,0.168243,20.8193,65.4587,-0.929952,0.0,0.0
3320,829.75,41.5133,45.4117,154.043,105.629,117.74,0.0116976,0.165682,20.8215,65.4186,-0.996535,0.0,0.0
3328,831.75,40.9651,44.6173,155.039,105.714,117.487,0.0118417,0.164152,20.823,65.3886,-0.96937,0.0,0.0
3336,833.75,39.7827,43.6868,156.896,105.817,116.753,0.0119406,0.162736,20.8266,65.3586,-0.902894,0.0,0.0
3344,835.75,39.5838,43.1424,161.785,105.921,117.749,0.0120211,0.160742,20.8292,65.3085,-0.971842,0.0,0.0
3352,837.75,39.1478,42.2244,153.921,106.02,117.695,0.0122639,0.160448,20.8292,65.2685,-0.95908,0.0,0.0
3360,839.75,38.9722,42.4106,157.389,106.117,117.505,0.012591,0.160665,20.829,65.2284,-0.935796,0.0,0.0
3368,841.75,38.2057,41.7625,156.487,106.197,117.623,0.0126411,0.159989,20.8293,65.1884,-0.938095,0.0,0.0
3376,843.75,38.1183,41.1931,159.591,106.303,116.681,0.0122702,0.158014,20.8323,65.1684,-0.855168,0.0,0.0
3384,845.75,37.7268,40.7296,158.062,106.375,117.46,0.0120459,0.155863,20.8338,65.1183,-0.910021,0.0,0.0
3392,847.75,37.3109,40.1675,155.319,106.438,116.808,0.0123101,0.15452,20.8356,65.0883,-0.853484,0.0,0.0
3400,849.75,36.8894,39.5054,158.249,106.494,116.69,0.0126041,0.15319,20.8384,65.0483,-0.839423,0.0,0.0
3408,851.75,36.6176,39.8574,156.219,106.564,116.681,0.0127557,0.150543,20.8423,65.0082,-0.832594,0.0,0.0
3416,853.75,35.8069,39.1744,156.233,106.619,117.496,0.012898,0.148393,20.8456,64.9682,-0.891792,0.0,0.0
3424,855.75,36.0067,38.4026,153.153,106.656,117.722,0.0130155,0.146556,20.8479,64.9382,-0.90631,0.0,0.0
3432,857.75,35.2809,38.3695,154.482,106.678,117.007,0.0130265,0.145291,20.8491,64.9082,-0.848453,0.0,0.0
3440,859.75,35.3458,37.9954,157.839,106.703,117.369,0.0128944,0.144492,20.8496,64.8581,-0.874611,0.0,0.0
3448,861.75,35.2279,37.2641,157.393,106.722,116.708,0.0126152,0.144309,20.8504,64.8281,-0.821198,0.0,0.0
3456,863.75,34.8708,37.2632,156.79,106.726,117.885,0.0123318,0.144383,20.8519,64.8081,-0.912901,0.0,0.0
3464,865.75,34.4627,37.0488,160.027,106.723,116.59,0.0120263,0.143931,20.8526,64.748,-0.811823,0.0,0.0
3472,867.75,33.9819,36.7496,156.523,106.723,117.107,0.0117032,0.143403,20.8529,64.728,-0.852404,0.0,0.0
3480,869.75,33.8888,36.1952,157.933,106.71,117.405,0.0114558,0.142612,20.8541,64.698,-0.876882,0.0,0.0
3488,871.75,34.0376,35.8188,152.711,106.697,117.623,0.0113073,0.142381,20.8543,64.678,-0.894943,0.0,0.0
3496,873.75,33.4445,35.5633,162.195,106.672,117.306,0.0112091,0.142239,20.8542,64.6279,-0.872389,0.0,0.0
3504,875.75,33.3377,35.3669,156.851,106.652,117.324,0.0112227,0.141685,20.8553,64.6079,-0.87553,0.0,0.0
3512,877.75,33.0622,35.4032,156.925,106.612,116.156,0.0113111,0.141395,20.8557,64.6179,-0.787136,0.0,0.0
3520,879.75,33.0466,34.8399,154.74,106.569,116.536,0.0114503,0.141226,20.855,64.6379,-0.820815,0.0,0.0
3528,881.75,32.9387,34.7816,154.848,106.527,116.563,0.0115311,0.141674,20.8533,64.5679,-0.826593,0.0,0.0
3536,883.75,32.0535,33.9593,158.668,106.486,116.762,0.011457,0.142663,20.8532,64.5278,-0.845757,0.0,0.0
3544,885.75,32.2016,34.4337,154.742,106.452,116.762,0.0111694,0.142497,20.8535,64.5178,-0.848687,0.0,0.0
3552,887.75,32.2539,33.9497,157.164,106.402,116.346,0.0109501,0.141378,20.8536,64.4578,-0.820204,0.0,0.0
3560,889.75,32.1634,33.7185,151.956,106.373,116.21,0.0109541,0.141275,20.8537,64.4477,-0.811963,0.0,0.0
3568,891.75,32.0237,33.4726,161.287,106.333,116.065,0.0110159,0.142243,20.8531,64.4077,-0.804008,0.0,0.0
3576,893.75,31.8762,33.3673,155.119,106.313,115.558,0.0110535,0.143036,20.8521,64.3577,-0.765511,0.0,0.0
3584,895.75,31.5991,33.158,159.688,106.295,115.269,0.0110559,0.142687,20.8526,64.3276,-0.744046,0.0,0.0
3592,897.75,31.4616,32.8167,159.936,106.26,115.803,0.0110995,0.141791,20.8528,64.3076,-0.789536,0.0,0.0
3600,899.75,31.3037,32.3965,156.28,106.243,116.219,0.011134,0.141098,20.8541,64.2676,-0.823921,0.0,0.0
3608,901.75,31.1861,32.5101,158.213,106.222,116.192,0.01109,0.140499,20.8547,64.2476,-0.823582,0.0,0.0
3616,903.75,30.6063,32.4694,159.746,106.226,115.73,0.0109194,0.139768,20.856,64.1975,-0.78669,0.0,0.0
3624,905.75,30.8082,32.1387,159.766,106.2,114.753,0.010749,0.13884,20.8569,64.1975,-0.711057,0.0,0.0
3632,907.75,30.5678,32.1625,154.791,106.174,114.943,0.0106428,0.138456,20.8573,64.1675,-0.728514,0.0,0.0
3640,909.75,30.4891,32.1337,156.756,106.154,114.907,0.0104897,0.139036,20.857,64.1675,-0.727353,0.0,0.0
3648,911.75,30.6103,31.8585,156.725,106.133,116.111,0.0103384,0.140498,20.856,64.1174,-0.824861,0.0,0.0
3656,913.75,30.6137,31.4775,158.1,106.126,116.59,0.0103531,0.141682,20.8559,64.0574,-0.863286,0.0,0.0
3664,915.75,30.1321,31.3253,158.202,106.107,115.386,0.0104919,0.141884,20.8564,64.0474,-0.769677,0.0,0.0
3672,917.75,29.9977,31.5259,160.091,106.089,115.323,0.0105507,0.141698,20.8577,64.0074,-0.766215,0.0,0.0
3680,919.75,30.4009,30.9284,161.184,106.089,114.888,0.0106094,0.140649,20.8593,63.9673,-0.731519,0.0,0.0
3688,921.75,30.1065,31.0744,158.808,106.069,114.916,0.0107226,0.13988,20.86,63.9673,-0.735422,0.0,0.0
3696,923.75,30.3486,30.8641,152.811,106.06,114.228,0.0106661,0.139509,20.8603,63.9473,-0.681081,0.0,0.0
3704,925.75,29.8904,30.8675,160.957,106.087,114.798,0.0105423,0.139291,20.8605,63.9273,-0.72447,0.0,0.0
3712,927.75,29.9898,31.108,155.542,106.143,116.283,0.0104393,0.139536,20.8592,63.8973,-0.837585,0.0,0.0
3720,929.75,29.8423,30.7278,159.102,106.197,114.454,0.0103518,0.140662,20.858,63.8372,-0.687426,0.0,0.0
3728,931.75,29.8934,30.5849,155.689,106.266,114.771,0.0103257,0.141711,20.8562,63.8272,-0.706822,0.0,0.0
3736,933.75,29.7847,30.2358,158.553,106.338,115.232,0.0102653,0.142992,20.8547,63.8172,-0.737438,0.0,0.0
3744,935.75,28.7042,29.9994,159.6,106.396,115.404,0.0101995,0.144183,20.8538,63.8172,-0.746134,0.0,0.0
3752,937.75,29.4568,30.3126,162.712,106.44,116.083,0.0101743,0.144579,20.8532,63.7872,-0.796196,0.0,0.0
3760,939.75,28.6097,29.5276,157.162,106.49,114.961,0.0101308,0.144039,20.8523,63.7571,-0.702664,0.0,0.0
3768,941.75,29.0546,29.8866,155.915,106.525,116.129,,0.142843,,63.7071,-0.792455,0.0,0.0
3776,943.75,28.9691,29.8582,157.479,106.558,115.748,,0.140919,,63.6771,-0.759493,0.0,0.0
3784,945.75,28.5347,29.5386,154.909,106.615,116.093,,,,63.6771,-0.781825,0.0,0.0
3792,947.75,29.116,29.8277,155.09,106.658,116.111,,,,63.627,-0.779583,0.0,0.0
3800,949.75,29.0245,29.7874,158.163,106.691,115.83,,,,63.6771,-0.754518,0.0,0.0
3808,951.75,29.0972,29.6765,160.836,106.731,115.748,,,,63.617,-0.744573,0.0,0.0
3809,952,29.0696,29.6685,159.052,106.733,115.332,,,,63.607,-0.711296,0.0,0.0