File: 01_Data/Basswood_Panel/Cone/Basswood_Panel_Cone_HF75Scan_221219_R2.csv
Names,Time,Stack TC,Smoke TC,Exh Press,Smoke Comp,Smoke Meas,CO Meter,CO2 Meter,O2 Meter,Sample Mass,Ext Coeff,Start Test,Flame Verif
Chan Gain,,500,500,1,1,1,1,1,1,1,1,1.0,1.0
Offset,,0,0,0.136803,0,0,0,0,0,0,0,0.0,0.0
Gain,,1,1,25.011,13.2421,13.1342,1,1,1,1.00087,1.04452,1.0,1.0
Units,sec,C,C,Pa,%,%,%,%,%,g,/m,,
Baseline,,40.4615,40.5405,153.112,98.8259,98.6269,-0.000936657,0.0570452,20.929,-445.466,0.0184672,,
6,1.25,40.2348,39.8579,153.39,98.7984,98.1306,-0.000867362,0.061238,20.927,157.668,0.0621434,0.0,0.0
12,2.75,39.6732,39.7223,154.912,98.8077,98.0648,-0.000820669,0.0630175,20.9254,157.457,0.0691447,0.0,0.0
18,4.25,39.3575,39.499,150.997,98.819,96.9389,-0.000769927,0.0648632,20.9241,157.437,0.176001,0.0,0.0
24,5.75,39.6377,39.7404,144.558,98.8134,96.8411,-0.000681691,0.0659001,20.9218,157.227,0.184724,0.0,1.0
30,7.25,39.9304,39.9855,131.68,98.817,94.7516,-0.000627767,0.066085,20.9196,156.977,0.38492,0.0,1.0
36,8.75,40.9718,40.5432,129.547,98.819,92.784,-0.000650314,0.0656646,20.917,156.657,0.577383,0.0,1.0
42,10.25,42.0829,41.6785,128.864,98.8287,91.6629,-0.000681212,0.0650386,20.9153,156.296,0.689667,0.0,1.0
48,11.75,43.3248,42.6997,128.555,98.8364,90.2752,-0.000682243,0.0656114,20.9144,155.966,0.830147,0.0,1.0
54,13.25,45.7073,44.2943,130.785,98.8287,89.3165,-0.000653333,0.093386,20.9139,155.616,0.927266,0.0,0.0
60,14.75,47.1525,46.3173,125.183,98.8433,88.4663,-0.000431869,0.159413,20.9081,155.256,1.01625,0.0,0.0
66,16.25,49.3291,47.6874,130.252,98.8396,88.6379,1.52273e-05,0.278455,20.8661,154.855,0.998157,0.0,0.0
72,17.75,50.1891,49.3483,119.078,98.8489,86.9031,0.000616984,0.41452,20.7936,154.555,1.18012,0.0,0.0
78,19.25,52.5762,51.4915,126.541,98.8392,88.6816,0.00146982,0.532667,20.6665,154.145,0.993604,0.0,0.0
84,20.75,53.7675,52.4459,123.217,98.8546,88.625,0.00233687,0.634629,20.5115,153.864,1.00087,0.0,0.0
90,22.25,55.3918,54.44,125.958,98.8445,87.5071,0.00324022,0.70513,20.3634,153.414,1.11624,0.0,0.0
96,23.75,56.8189,55.5349,128.691,98.855,88.3749,0.0039088,0.75088,20.2537,153.154,1.0268,0.0,0.0
102,25.25,58.0096,57.4975,128.866,98.853,88.3877,0.00439569,0.779116,20.1801,152.703,1.02528,0.0,0.0
108,26.75,59.0971,58.3073,128.241,98.861,88.4623,0.00475038,0.796382,20.1252,152.443,1.01831,0.0,0.0
114,28.25,59.8243,59.836,129.707,98.8473,88.033,0.00513199,0.805137,20.0839,152.003,1.06161,0.0,0.0
120,29.75,61.5804,61.2057,124.535,98.8699,87.8134,0.0055144,0.808612,20.056,151.742,1.08659,0.0,0.0
126,31.25,62.1479,61.2931,127.199,98.8526,88.4984,0.00582424,0.807269,20.0401,151.302,1.01379,0.0,0.0
132,32.75,63.4117,63.4103,125.208,98.8691,88.6792,0.00606141,0.80267,20.0321,151.072,0.996625,0.0,0.0
138,34.25,64.4582,64.2497,128.107,98.853,89.3594,0.00618271,0.795751,20.0314,150.601,0.925115,0.0,0.0
144,35.75,64.4744,65.1525,127.29,98.8598,89.4391,0.00618389,0.787826,20.034,150.391,0.917577,0.0,0.0
150,37.25,65.6908,66.2324,129.107,98.859,89.2676,0.00609532,0.780897,20.042,149.971,0.935093,0.0,0.0
156,38.75,66.6158,66.9768,127.606,98.8639,90.2243,0.006006,0.775218,20.0486,149.741,0.837862,0.0,0.0
162,40.25,67.1719,67.973,131.896,98.8433,90.5963,0.00596284,0.767195,20.0571,149.31,0.798256,0.0,0.0
168,41.75,67.879,68.8076,132.798,98.8429,90.5939,0.00597588,0.759431,20.0672,149.08,0.798461,0.0,0.0
174,43.25,68.5495,69.6143,123.914,98.8364,90.2408,0.00598664,0.751006,20.0767,148.71,0.833646,0.0,0.0
180,44.75,69.1156,70.481,132.079,98.8356,90.0488,0.0059488,0.741377,20.0855,148.46,0.853086,0.0,0.0
186,46.25,69.4952,70.9618,126.249,98.8388,90.6015,0.00582395,0.731995,20.097,148.129,0.797317,0.0,0.0
192,47.75,70.4592,71.5297,129.473,98.8214,91.0292,0.00565817,0.722483,20.1081,147.819,0.752556,0.0,0.0
198,49.25,70.444,71.8503,131.374,98.8307,91.8745,0.00550583,0.714558,20.1187,147.549,0.668724,0.0,0.0
204,50.75,71.1248,72.6015,128.021,98.817,91.4813,0.00534612,0.706894,20.1286,147.259,0.706747,0.0,0.0
210,52.25,71.5848,73.3679,131.469,98.8218,91.7827,0.0052274,0.698693,20.1385,146.948,0.677058,0.0,0.0
216,53.75,71.9932,74.0154,126.702,98.8081,92.1767,0.00511851,0.688473,20.1476,146.678,0.636534,0.0,0.0
222,55.25,72.7492,74.3739,131.063,98.8162,92.0845,0.00502003,0.67951,20.1565,146.448,0.646453,0.0,0.0
228,56.75,72.5327,75.0974,135.484,98.7927,92.0753,0.00490313,0.67195,20.1685,146.118,0.645196,0.0,0.0
234,58.25,73.1581,75.2916,128.877,98.7988,92.2577,0.00476725,0.665554,20.1798,145.907,0.627628,0.0,0.0
240,59.75,72.9866,75.6172,127.526,98.7883,92.5852,0.00465738,0.660523,20.189,145.557,0.594189,0.0,0.0
246,61.25,73.7432,76.3622,126.653,98.8089,92.327,0.00459641,0.654111,20.1971,145.367,0.621681,0.0,0.0
252,62.75,73.8781,76.2962,130.677,98.7786,92.0256,0.00452353,0.645036,20.2042,145.017,0.648832,0.0,0.0
258,64.25,73.6797,76.5817,130.773,98.7984,92.681,0.00442279,0.63683,20.2143,144.806,0.585651,0.0,0.0
264,65.75,74.2692,77.2065,125.043,98.7746,92.1703,0.00432267,0.629349,20.2246,144.476,0.634062,0.0,0.0
270,67.25,74.509,77.6767,130.225,98.7839,93.3411,0.00421539,0.622846,20.2338,144.226,0.519268,0.0,0.0
276,68.75,74.5564,78.2842,128.285,98.7879,92.9118,0.00413954,0.617637,20.2414,143.906,0.56188,0.0,0.0
282,70.25,74.9128,77.7783,135.803,98.781,93.008,0.00406216,0.61441,20.2482,143.685,0.551761,0.0,0.0
288,71.75,75.2775,78.4424,133.644,98.7689,93.2205,0.00395767,0.612597,20.2556,143.375,0.529732,0.0,0.0
294,73.25,75.8301,79.2342,129.535,98.7778,92.7684,0.00384742,0.610694,20.2602,143.085,0.575104,0.0,0.0
300,74.75,75.8033,79.31,130.781,98.7705,92.9359,0.00375034,0.608278,20.2626,142.825,0.557896,0.0,0.0
306,76.25,75.298,78.5729,130.887,98.7523,93.3023,0.00367458,0.606074,20.2647,142.544,0.520162,0.0,0.0
312,77.75,75.6649,79.1936,127.776,98.7576,93.5063,0.0036042,0.60248,20.2672,142.274,0.500636,0.0,0.0
318,79.25,76.1602,79.8446,137.223,98.758,93.4975,0.00353454,0.599576,20.2704,141.994,0.501538,0.0,0.0
324,80.75,76.3958,80.0773,129.122,98.7588,93.4449,0.00344997,0.597152,20.274,141.694,0.506759,0.0,0.0
330,82.25,76.3426,80.1752,130.705,98.7523,92.7808,0.00338277,0.594802,20.2776,141.463,0.571515,0.0,0.0
336,83.75,77.0652,80.6765,132.122,98.7584,92.9968,0.00341232,0.590692,20.2805,141.183,0.550767,0.0,0.0
342,85.25,76.9981,81.1934,131.255,98.7661,93.1047,0.00351954,0.585088,20.2839,140.923,0.540863,0.0,0.0
348,86.75,76.7317,80.8432,131.034,98.7576,93.1363,0.00359483,0.580355,20.2888,140.653,0.536959,0.0,0.0
354,88.25,77.3917,81.4992,129.565,98.7487,93.0513,0.00357639,0.578139,20.2944,140.363,0.544499,0.0,0.0
360,89.75,76.6929,80.8663,133.723,98.7552,93.257,0.00342854,0.576647,20.2988,140.182,0.524873,0.0,0.0
366,91.25,77.5838,81.5388,130.526,98.7467,93.3327,0.00327147,0.57531,20.3024,139.842,0.516645,0.0,0.0
372,92.75,77.2363,81.8163,128.59,98.7592,92.9235,0.00315162,0.574057,20.3042,139.642,0.558071,0.0,0.0
378,94.25,77.8704,82.276,131.638,98.7382,93.3772,0.00307591,0.571797,20.3056,139.352,0.511491,0.0,0.0
384,95.75,77.1131,82.2154,129.823,98.7649,92.8622,0.00312214,0.569966,20.3071,139.131,0.564645,0.0,0.0
390,97.25,76.9519,81.8591,132.695,98.7422,92.6842,0.00322848,0.568045,20.309,138.831,0.580121,0.0,0.0
396,98.75,77.7659,82.6117,132.8,98.7608,93.3451,0.00330669,0.565661,20.3118,138.631,0.516738,0.0,0.0
402,100.25,77.7224,82.5462,132.898,98.7438,93.3047,0.00332433,0.563308,20.315,138.351,0.519137,0.0,0.0
408,101.75,77.1688,81.686,134.636,98.754,93.9139,0.00330031,0.561363,20.3177,138.121,0.460441,0.0,0.0
414,103.25,77.9285,82.4429,131.184,98.7398,93.3219,0.00328642,0.559692,20.3206,137.8,0.517071,0.0,0.0
420,104.75,77.9838,83.2175,131.101,98.7645,93.5239,0.00323526,0.557252,20.324,137.62,0.499546,0.0,0.0
426,106.25,77.9749,82.9165,136.036,98.7426,93.7989,0.00317256,0.554316,20.3272,137.34,0.470621,0.0,0.0
432,107.75,77.9457,82.8403,134.34,98.7584,93.457,0.00314273,0.551801,20.3301,137.14,0.505543,0.0,0.0
438,109.25,78.2356,82.9469,135.656,98.7378,94.0931,0.00315067,0.549131,20.333,136.849,0.441478,0.0,0.0
444,110.75,77.9747,82.8312,133.194,98.7519,92.9668,0.00317941,0.546341,20.3355,136.629,0.55313,0.0,0.0
450,112.25,78.5205,83.3949,138.433,98.7402,94.2266,0.00322933,0.543512,20.3389,136.309,0.428716,0.0,0.0
456,113.75,78.0527,82.7757,131.215,98.7564,93.4417,0.00326949,0.541327,20.3423,136.129,0.506849,0.0,0.0
462,115.25,78.6696,83.7144,134.307,98.741,93.5516,0.00323398,0.539367,20.3454,135.829,0.494661,0.0,0.0
468,116.75,78.3379,83.6775,135.914,98.7455,93.8634,0.00315458,0.536465,20.3475,135.638,0.464583,0.0,0.0
474,118.25,78.4452,83.6367,129.049,98.7503,92.7932,0.00307901,0.534277,20.3492,135.388,0.5701,0.0,0.0
480,119.75,78.8055,83.617,136.846,98.7673,94.3256,0.00301251,0.531766,20.3518,135.168,0.421605,0.0,0.0
486,121.25,78.4648,83.7385,133.381,98.7459,93.4686,0.0029342,0.529738,20.3555,134.928,0.503241,0.0,0.0
492,122.75,78.54,83.7227,131.286,98.7495,93.8786,0.00283035,0.528934,20.3583,134.658,0.463471,0.0,0.0
498,124.25,78.7349,83.6037,133.644,98.7612,93.2902,0.00274625,0.526452,20.362,134.447,0.522168,0.0,0.0
504,125.75,78.5564,84.0151,132.51,98.7584,93.6349,0.00272876,0.523043,20.3648,134.227,0.488112,0.0,0.0
510,127.25,78.726,84.1056,129.53,98.7669,94.0334,0.00276169,0.51973,20.3686,133.987,0.449995,0.0,0.0
516,128.75,78.1887,83.2773,135.195,98.7657,93.6049,0.00279609,0.516221,20.3718,133.747,0.491729,0.0,0.0
522,130.25,78.0549,83.563,132.426,98.779,93.6053,0.00279908,0.513355,20.3741,133.547,0.492927,0.0,0.0
528,131.75,78.66,84.0219,134.111,98.7786,93.7083,0.00276362,0.510274,20.3783,133.286,0.482812,0.0,0.0
534,133.25,77.7166,83.1017,136.059,98.7871,92.9948,0.00269944,0.508172,20.3827,133.106,0.553625,0.0,0.0
540,134.75,78.4492,83.9548,132.102,98.7742,93.9187,0.00262701,0.505369,20.3862,132.846,0.461847,0.0,0.0
546,136.25,78.2308,83.4074,132.348,98.7875,93.5387,0.00253833,0.501885,20.3889,132.656,0.500229,0.0,0.0
552,137.75,78.3641,83.7143,130.864,98.7851,94.0105,0.00249704,0.500276,20.3924,132.386,0.453909,0.0,0.0
558,139.25,77.7147,83.1246,126.418,98.8049,94.2346,0.00252866,0.501716,20.3954,132.155,0.433933,0.0,0.0
564,140.75,78.436,83.6657,131.207,98.7923,93.9636,0.0026129,0.503845,20.397,131.905,0.459155,0.0,0.0
570,142.25,78.7592,83.9716,136.526,98.8202,93.8185,0.00268222,0.50484,20.3972,131.685,0.4759,0.0,0.0
576,143.75,78.7594,84.0422,132.057,98.813,94.0366,0.00270134,0.503705,20.3956,131.445,0.453955,0.0,0.0
582,145.25,78.2241,83.383,138.354,98.8255,93.7187,0.00267995,0.50236,20.3944,131.225,0.48614,0.0,0.0
588,146.75,78.2005,83.8057,134.786,98.8311,94.0009,0.00267937,0.499703,20.3951,130.974,0.459119,0.0,0.0
594,148.25,78.3029,84.243,138.865,98.8465,94.255,0.0026839,0.496883,20.3973,130.814,0.435805,0.0,0.0
600,149.75,78.5148,83.8238,137.192,98.8348,95.0603,0.00261638,0.494553,20.4001,130.524,0.356772,0.0,0.0
606,151.25,78.5555,84.0554,131.242,98.8489,93.6217,0.00254015,0.492886,20.404,130.344,0.497801,0.0,0.0
612,152.75,78.3659,83.782,131.108,98.8433,93.4349,0.00252179,0.492947,20.4064,130.104,0.515575,0.0,0.0
618,154.25,78.0871,83.6158,131.877,98.8546,93.3183,0.00259662,0.492844,20.4078,129.923,0.528069,0.0,0.0
624,155.75,78.3569,83.905,131.468,98.8538,93.6193,0.00264233,0.491121,20.4085,129.643,0.498485,0.0,0.0
630,157.25,78.0558,83.6301,134.161,98.8764,93.6217,0.00259248,0.488124,20.4088,129.443,0.500347,0.0,0.0
636,158.75,78.4521,83.9488,133.088,98.8635,93.5628,0.00250862,0.485675,20.411,129.173,0.504917,0.0,0.0
642,160.25,78.7076,84.2177,140.488,98.8651,94.2843,0.0024459,0.484623,20.4147,128.973,0.434684,0.0,0.0
648,161.75,78.6504,84.0621,137.239,98.8857,94.4767,0.00244473,0.48523,20.4175,128.732,0.417916,0.0,0.0
654,163.25,78.4313,84.0279,127.466,98.8829,93.7804,0.00251138,0.48706,20.4187,128.512,0.485426,0.0,0.0
660,164.75,77.3739,83.0773,141.845,98.8901,93.847,0.00253378,0.488079,20.4185,128.312,0.479601,0.0,0.0
666,166.25,78.4169,83.9386,134.109,98.8829,93.7223,0.00249868,0.487139,20.418,128.062,0.491106,0.0,0.0
672,167.75,77.6226,82.9412,138.415,98.9067,93.4257,0.0024461,0.485618,20.418,127.892,0.522358,0.0,0.0
678,169.25,78.0691,83.5025,135.276,98.9002,93.7881,0.00241983,0.483977,20.4187,127.601,0.486292,0.0,0.0
684,170.75,78.3995,84.1824,131.122,98.9192,93.9933,0.00241366,0.482298,20.4192,127.411,0.468024,0.0,0.0
690,172.25,77.8654,83.1551,133.608,98.9148,94.2498,0.00242013,0.481712,20.4202,127.171,0.44264,0.0,0.0
696,173.75,78.7884,84.3676,133.736,98.9273,93.5427,0.00241458,0.480847,20.4222,126.991,0.512796,0.0,0.0
702,175.25,77.8051,83.1625,133.481,98.9253,94.6522,0.0023853,0.479909,20.4232,126.741,0.404575,0.0,0.0
708,176.75,77.8348,83.5587,136.558,98.939,94.3075,0.00235966,0.479499,20.4237,126.51,0.439276,0.0,0.0
714,178.25,78.2781,83.7205,135.766,98.9386,94.5352,0.00236805,0.479669,20.424,126.29,0.417146,0.0,0.0
720,179.75,78.054,83.6768,137.974,98.9601,93.9592,0.00236279,0.479394,20.4242,126.12,0.475126,0.0,0.0
726,181.25,78.656,83.89,129.51,98.9463,94.3007,0.00233786,0.478399,20.4242,125.85,0.440613,0.0,0.0
732,182.75,78.4581,83.7141,133.086,98.9746,93.9299,0.00233889,0.47664,20.4254,125.67,0.479327,0.0,0.0
738,184.25,78.1349,83.5728,133.392,98.9588,94.3769,0.00243303,0.47544,20.4262,125.419,0.434376,0.0,0.0
744,185.75,77.7705,83.4855,133.934,98.977,94.1372,0.00247561,0.476022,20.4275,125.189,0.459359,0.0,0.0
750,187.25,78.6549,83.7951,133.224,98.9673,93.8814,0.00242419,0.476475,20.4282,124.969,0.483385,0.0,0.0
756,188.75,78.2136,83.8057,136.024,98.9875,94.2983,0.00228232,0.476161,20.4288,124.759,0.444662,0.0,0.0
762,190.25,77.8472,83.5813,129.766,98.996,93.9748,0.00213621,0.475867,20.4292,124.539,0.476932,0.0,0.0
768,191.75,77.9801,83.2944,137.893,99.0017,94.427,0.00210941,0.475318,20.4296,124.349,0.433478,0.0,0.0
774,193.25,78.2382,83.5262,133.144,99.0094,94.053,0.00218627,0.473023,20.4307,124.078,0.470548,0.0,0.0
780,194.75,78.5802,83.3445,135.342,99.0259,94.7248,0.00228641,0.471164,20.4319,123.918,0.406869,0.0,0.0
786,196.25,78.6732,83.8472,134.854,99.0292,94.162,0.00234866,0.469688,20.4356,123.698,0.461765,0.0,0.0
792,197.75,78.4494,83.5482,132.651,99.0405,94.9368,0.00236236,0.468762,20.4382,123.428,0.387729,0.0,0.0
798,199.25,78.0098,83.3153,134.824,99.0498,94.3833,0.00236724,0.469037,20.4395,123.248,0.442169,0.0,0.0
804,200.75,78.5438,83.6428,132.3,99.0591,94.4498,0.00239284,0.468433,20.4413,123.027,0.436571,0.0,0.0
810,202.25,78.0656,82.7931,132.462,99.0712,93.4866,0.00241459,0.466986,20.4423,122.787,0.53161,0.0,0.0
816,203.75,78.0097,83.0028,133.828,99.0817,94.639,0.00241164,0.466304,20.4428,122.567,0.420329,0.0,0.0
822,205.25,77.3937,83.0936,132.847,99.1108,94.7204,0.00239228,0.465998,20.4431,122.397,0.415145,0.0,0.0
828,206.75,78.2713,83.3349,132.389,99.116,94.6081,0.00238211,0.466549,20.4432,122.127,0.426493,0.0,0.0
834,208.25,78.0698,83.2242,134.505,99.1447,94.1576,0.00238311,0.467583,20.4433,121.966,0.472882,0.0,0.0
840,209.75,78.3285,83.7208,138.874,99.1609,94.9889,0.00235729,0.468189,20.4429,121.716,0.393836,0.0,0.0
846,211.25,77.4794,82.6955,134.445,99.1932,94.5376,0.00230341,0.468594,20.4413,121.516,0.440461,0.0,0.0
852,212.75,77.9055,83.349,132.87,99.1928,93.9468,0.00226121,0.468316,20.4393,121.256,0.497864,0.0,0.0
858,214.25,78.0983,83.2072,131.738,99.2288,93.9315,0.00229595,0.467165,20.4383,121.126,0.502672,0.0,0.0
864,215.75,78.0103,82.833,132.189,99.2235,94.0434,0.00233289,0.464007,20.4382,120.825,0.491284,0.0,0.0
870,217.25,77.6091,82.7367,130.507,99.2571,94.5893,0.00229774,0.461473,20.4388,120.665,0.441346,0.0,0.0
876,218.75,78.2849,83.1371,132.115,99.2648,94.6695,0.00220885,0.46018,20.4414,120.445,0.434294,0.0,0.0
882,220.25,78.2287,82.4908,135.185,99.3003,94.3175,0.0021311,0.459733,20.4442,120.225,0.471699,0.0,0.0
888,221.75,78.0981,83.1879,132.946,99.2963,94.4526,0.00201641,0.460185,20.4463,119.985,0.458214,0.0,0.0
894,223.25,77.6973,82.5784,130.358,99.3258,94.4282,0.00189194,0.461871,20.4474,119.855,0.463308,0.0,0.0
900,224.75,78.0849,83.069,134.228,99.3391,95.1549,0.00186683,0.463846,20.4471,119.554,0.394295,0.0,0.0
906,226.25,77.9338,82.9178,131.501,99.369,94.6743,0.00196421,0.465596,20.4454,119.414,0.443447,0.0,0.0
912,227.75,78.0162,83.0839,132.691,99.3735,94.2478,0.00213545,0.465976,20.4437,119.144,0.485224,0.0,0.0
918,229.25,78.2905,83.1691,136.522,99.3925,94.6967,0.0022786,0.464647,20.4428,118.974,0.443435,0.0,0.0
924,230.75,77.4536,82.1911,135.139,99.3969,95.4687,0.00234335,0.462333,20.4423,118.714,0.369454,0.0,0.0
930,232.25,77.518,82.3563,136.127,99.4212,94.9577,0.00231188,0.4601,20.4436,118.533,0.420868,0.0,0.0
936,233.75,78.2537,83.0134,132.715,99.4393,95.5617,0.00224948,0.458133,20.4457,118.323,0.364444,0.0,0.0
942,235.25,78.2378,82.974,134.221,99.4377,94.6602,0.00216437,0.456461,20.448,118.083,0.451137,0.0,0.0
948,236.75,78.2926,83.1389,132.122,99.4393,95.2924,0.0021472,0.455495,20.4501,117.893,0.390306,0.0,0.0
954,238.25,77.5801,81.8246,138.596,99.4486,94.5248,0.0022167,0.454793,20.4521,117.673,0.465265,0.0,0.0
960,239.75,77.6373,82.401,133.405,99.4608,95.2956,0.00238239,0.454337,20.4534,117.463,0.391971,0.0,0.0
966,241.25,78.107,82.7948,133.691,99.4632,94.5444,0.00251698,0.45443,20.4541,117.272,0.464701,0.0,0.0
972,242.75,77.5688,82.7699,134.482,99.4773,94.7204,0.00251617,0.453599,20.4545,117.092,0.448967,0.0,0.0
978,244.25,78.1786,82.7401,127.306,99.485,94.8194,0.00238595,0.45289,20.4558,116.832,0.440103,0.0,0.0
984,245.75,77.9673,82.6667,139.434,99.4886,95.3024,0.00222561,0.452145,20.4569,116.682,0.393884,0.0,0.0
990,247.25,77.4436,82.4773,130.284,99.4902,94.6318,0.00208507,0.451546,20.4583,116.402,0.458731,0.0,0.0
996,248.75,77.8731,82.4785,135.868,99.5008,95.1036,0.00203846,0.45096,20.4593,116.241,0.414135,0.0,0.0
1002,250.25,78.0195,82.5384,133.86,99.5,94.6671,0.00205604,0.452383,20.4598,115.991,0.456211,0.0,0.0
1008,251.75,77.7515,82.5638,136.22,99.5214,94.4021,0.00209839,0.454023,20.4591,115.821,0.483862,0.0,0.0
1014,253.25,77.8923,83.1743,130.953,99.5101,94.4218,0.00209062,0.45456,20.4584,115.591,0.480913,0.0,0.0
1020,254.75,78.3841,82.8959,135.31,99.5258,94.6639,0.0020916,0.455014,20.4572,115.401,0.458902,0.0,0.0
1026,256.25,77.9195,83.1207,132.056,99.5278,94.1111,0.00212784,0.455294,20.4565,115.141,0.512743,0.0,0.0
1032,257.75,78.0117,82.0374,132.039,99.5424,94.3256,0.00216276,0.455113,20.4561,114.97,0.493229,0.0,0.0
1038,259.25,78.0819,82.6287,131.698,99.5347,94.5127,0.00218232,0.455844,20.4558,114.71,0.474358,0.0,0.0
1044,260.75,77.8122,82.871,132.377,99.559,95.0238,0.00223219,0.456306,20.4548,114.5,0.427179,0.0,0.0
1050,262.25,78.0959,83.0814,128.717,99.5573,93.9283,0.00227668,0.456811,20.454,114.31,0.533271,0.0,0.0
1056,263.75,78.5249,83.3656,132.76,99.5622,95.1797,0.00229792,0.457318,20.4537,114.14,0.412455,0.0,0.0
1062,265.25,78.2904,82.6084,136.337,99.5634,94.5957,0.00233596,0.457942,20.4533,113.899,0.468959,0.0,0.0
1068,266.75,77.7904,82.3093,133.443,99.5763,94.5504,0.00237036,0.45841,20.4522,113.699,0.474537,0.0,0.0
1074,268.25,78.0287,82.9379,131.657,99.5889,94.239,0.00237248,0.458376,20.4514,113.479,0.50592,0.0,0.0
1080,269.75,78.0331,82.3803,132.734,99.5949,94.1676,0.00237201,0.458851,20.4508,113.239,0.513416,0.0,0.0
1086,271.25,78.7089,83.0784,136.165,99.6034,94.3312,0.0024289,0.460227,20.4504,113.069,0.4983,0.0,0.0
1092,272.75,78.5256,83.2869,132.707,99.6099,94.1572,0.00251746,0.461941,20.4493,112.849,0.515807,0.0,0.0
1098,274.25,77.7274,82.2698,130.133,99.6374,95.0294,0.00259605,0.463677,20.4474,112.648,0.43385,0.0,0.0
1104,275.75,78.1321,82.8066,134.626,99.6406,94.6045,0.00263962,0.464577,20.445,112.408,0.475205,0.0,0.0
1110,277.25,78.3915,82.9929,125.737,99.6588,93.9861,0.00265954,0.463985,20.4431,112.278,0.536973,0.0,0.0
1116,278.75,78.7497,83.2163,135.513,99.6636,94.5031,0.00264224,0.463419,20.442,112.038,0.48715,0.0,0.0
1122,280.25,78.0175,82.5761,133.699,99.6879,93.8494,0.00259218,0.463776,20.4415,111.848,0.552983,0.0,0.0
1128,281.75,78.5369,83.1355,130.951,99.6992,94.3893,0.00248533,0.46459,20.4419,111.637,0.501462,0.0,0.0
1134,283.25,78.091,82.5424,135.126,99.7198,93.8983,0.00238962,0.464088,20.4421,111.437,0.551143,0.0,0.0
1140,284.75,78.6518,82.8879,131.35,99.7093,94.6667,0.00235749,0.462996,20.4427,111.227,0.475505,0.0,0.0
1146,286.25,78.0465,82.63,132.82,99.7453,94.1608,0.00238949,0.462434,20.4436,111.057,0.5279,0.0,0.0
1152,287.75,78.1494,82.6859,135.026,99.7453,93.8706,0.00246,0.46155,20.4441,110.787,0.556181,0.0,0.0
1158,289.25,78.3793,83.2434,129.924,99.7752,93.9324,0.00254191,0.460586,20.445,110.637,0.552905,0.0,0.0
1164,290.75,78.445,82.7674,135.967,99.7812,94.3452,0.00266576,0.459397,20.4459,110.386,0.513279,0.0,0.0
1170,292.25,78.4573,82.7459,130.394,99.8063,94.7284,0.00282121,0.458875,20.4464,110.216,0.478441,0.0,0.0
1176,293.75,78.7464,83.1585,134.492,99.8232,93.5207,0.00292378,0.459545,20.4477,109.956,0.597561,0.0,0.0
1182,295.25,78.158,82.6885,133.232,99.8467,94.4177,0.00290864,0.460489,20.448,109.816,0.512246,0.0,0.0
1188,296.75,78.5107,83.0636,133.293,99.8536,94.2498,0.00282475,0.460794,20.4469,109.586,0.529188,0.0,0.0
1194,298.25,78.7487,83.2694,132.186,99.8831,94.059,0.00272766,0.460807,20.4459,109.406,0.550462,0.0,0.0
1200,299.75,78.8621,83.0923,140.716,99.8948,94.2783,0.00263879,0.459801,20.4453,109.185,0.530204,0.0,0.0
1206,301.25,78.1878,82.757,134.96,99.9166,93.2045,0.00258276,0.45953,20.445,109.035,0.637163,0.0,0.0
1212,302.75,78.1705,82.6277,137.306,99.9404,94.3496,0.00258329,0.459666,20.4448,108.805,0.52746,0.0,0.0
1218,304.25,78.8916,83.3377,132.077,99.9473,94.1328,0.00260518,0.459883,20.445,108.625,0.549172,0.0,0.0
1224,305.75,78.2135,82.7753,130.268,99.9631,94.4222,0.00262014,0.460857,20.4451,108.395,0.522492,0.0,0.0
1230,307.25,78.7803,83.1175,133.401,99.9788,93.7367,0.00259019,0.461253,20.4452,108.194,0.590689,0.0,0.0
1236,308.75,78.5318,82.6971,132.712,99.9982,94.8587,0.00247938,0.461614,20.4446,108.004,0.483454,0.0,0.0
1242,310.25,78.4533,82.8814,131.657,100.006,94.4374,0.00234762,0.462094,20.4439,107.784,0.524902,0.0,0.0
1248,311.75,78.1368,82.7509,129.945,100.033,94.235,0.00230566,0.461534,20.4435,107.604,0.547042,0.0,0.0
1254,313.25,78.0128,82.3954,132.233,100.037,92.6361,0.00237792,0.460886,20.4432,107.414,0.704244,0.0,0.0
1260,314.75,78.0254,82.3563,130.7,100.041,94.1155,0.00252067,0.459331,20.4431,107.234,0.559477,0.0,0.0
1266,316.25,78.5954,82.7946,131.011,100.043,94.2851,0.0027053,0.457797,20.4444,107.013,0.543134,0.0,0.0
1272,317.75,78.2134,83.092,129.608,100.059,93.7656,0.00282061,0.456623,20.4459,106.873,0.595198,0.0,0.0
1278,319.25,78.3652,83.0252,129.963,100.051,93.6293,0.00286242,0.455772,20.4475,106.623,0.607823,0.0,0.0
1284,320.75,77.9674,82.3379,133.98,100.063,94.1107,0.00286535,0.456076,20.449,106.433,0.561908,0.0,0.0
1290,322.25,78.1603,82.6777,134.47,100.044,93.5864,0.00283895,0.457941,20.4498,106.263,0.611391,0.0,0.0
1296,323.75,78.1052,82.4993,131.687,100.07,93.5973,0.00280286,0.458515,20.4496,106.073,0.612663,0.0,0.0
1302,325.25,78.5439,82.8354,132.465,100.058,93.586,0.00278029,0.45863,20.4491,105.862,0.612726,0.0,0.0
1308,326.75,78.1707,82.9611,130.137,100.073,93.6506,0.00276308,0.459794,20.4488,105.692,0.607705,0.0,0.0
1314,328.25,78.4507,82.9023,131.001,100.054,93.7648,0.00278326,0.460597,20.4485,105.482,0.59487,0.0,0.0
1320,329.75,78.7086,83.3482,130.921,100.073,94.0758,0.00283294,0.460516,20.4478,105.312,0.566266,0.0,0.0
1326,331.25,78.8372,83.0203,129.574,100.063,93.8762,0.00289049,0.460977,20.4467,105.052,0.584802,0.0,0.0
1332,332.75,78.6809,83.3058,136.713,100.072,93.0926,0.00294901,0.460223,20.4459,104.912,0.662381,0.0,0.0
1338,334.25,78.3481,83.0475,132.575,100.056,93.8822,0.00296327,0.459754,20.4455,104.711,0.583586,0.0,0.0
1344,335.75,78.3312,82.8545,133.213,100.065,93.568,0.00292542,0.460213,20.4453,104.511,0.615047,0.0,0.0
1350,337.25,78.2869,82.8703,133.096,100.052,93.4822,0.00282236,0.460777,20.4452,104.271,0.622266,0.0,0.0
1356,338.75,78.9559,83.371,133.833,100.058,93.8145,0.0027355,0.460483,20.4452,104.091,0.590347,0.0,0.0
1362,340.25,78.0252,82.4751,133.191,100.045,93.2137,0.0026804,0.46144,20.4443,103.871,0.647996,0.0,0.0
1368,341.75,78.7539,82.9532,131.178,100.043,93.1816,0.00266209,0.462417,20.4436,103.691,0.651,0.0,0.0
1374,343.25,78.4698,83.0754,133.722,100.044,93.2682,0.00266817,0.462684,20.443,103.47,0.642602,0.0,0.0
1380,344.75,78.5347,82.9746,135.656,100.038,93.6522,0.00273217,0.463239,20.4418,103.3,0.604366,0.0,0.0
1386,346.25,78.5019,83.0724,129.233,100.04,93.0521,0.00281155,0.463081,20.4412,103.08,0.663482,0.0,0.0
1392,347.75,78.6502,82.8112,136.559,100.028,92.8165,0.00287081,0.461961,20.4415,102.88,0.68557,0.0,0.0
1398,349.25,78.8906,83.09,131.552,100.032,93.4189,0.00290392,0.461575,20.4421,102.68,0.626698,0.0,0.0
1404,350.75,78.744,82.7216,137.29,100.026,92.5323,0.00291976,0.466283,20.443,102.459,0.713519,0.0,0.0
1410,352.25,78.9308,83.007,132.785,100.032,93.7071,0.00292913,0.471372,20.4416,102.279,0.598476,0.0,0.0
1416,353.75,78.9583,83.3646,134.776,100.018,93.1552,0.0029734,0.474675,20.4374,102.019,0.651271,0.0,0.0
1422,355.25,78.4851,82.9323,133.389,100.024,93.1475,0.0030468,0.475562,20.4324,101.849,0.652575,0.0,0.0
1428,356.75,78.6916,82.8042,129.201,100.015,92.9267,0.00310373,0.476023,20.4287,101.649,0.673548,0.0,0.0
1434,358.25,78.9348,82.7615,135.789,100.023,92.2926,0.00311729,0.476615,20.4267,101.429,0.737024,0.0,0.0
1440,359.75,79.3206,83.4014,138.485,100.013,93.0064,0.0031487,0.475745,20.4256,101.208,0.665501,0.0,0.0
1446,361.25,78.7023,83.1776,131.731,100.02,93.0213,0.00319762,0.475288,20.4253,101.058,0.664669,0.0,0.0
1452,362.75,79.1374,83.4794,129.492,99.9986,92.2521,0.00324207,0.476352,20.4256,100.778,0.738786,0.0,0.0
1458,364.25,79.0453,83.1685,136.574,100.011,92.6112,0.00325808,0.478858,20.4257,100.578,0.704333,0.0,0.0
1464,365.75,79.0626,83.2576,130.075,100.004,92.9395,0.00328255,0.48192,20.4244,100.348,0.671283,0.0,0.0
1470,367.25,78.7412,82.8103,132.053,100.007,92.9066,0.00330852,0.484537,20.4206,100.157,0.674783,0.0,0.0
1476,368.75,79.8099,83.5813,130.865,99.9998,92.5912,0.00335993,0.48799,20.4166,99.9673,0.70528,0.0,0.0
1482,370.25,79.4417,83.8528,135.52,100.017,92.1403,0.00341722,0.490048,20.4129,99.7371,0.751566,0.0,0.0
1488,371.75,79.5203,83.5413,134.465,99.9922,92.4685,0.00342831,0.490478,20.4093,99.4868,0.716721,0.0,0.0
1494,373.25,79.3702,83.6726,131.164,100.006,92.8814,0.00342444,0.491043,20.4076,99.3467,0.677126,0.0,0.0
1500,374.75,79.8308,84.1482,130.207,99.9994,92.7203,0.00341204,0.492577,20.4071,99.0865,0.69248,0.0,0.0
1506,376.25,79.1764,83.523,129.74,99.9982,91.9787,0.00338632,0.494218,20.4062,98.8963,0.76594,0.0,0.0
1512,377.75,79.8871,83.8774,134.018,99.9926,93.4193,0.00334763,0.494993,20.4052,98.6861,0.623031,0.0,0.0
1518,379.25,79.8821,83.7358,135.226,99.9905,93.9452,0.00331441,0.49424,20.4041,98.4559,0.571413,0.0,0.0
1524,380.75,80.0196,83.728,134.145,99.9893,92.477,0.0033152,0.494838,20.4035,98.2758,0.715628,0.0,0.0
1530,382.25,79.7725,84.1194,130.355,99.9825,92.1848,0.00341974,0.497427,20.4032,98.0055,0.743995,0.0,0.0
1536,383.75,80.1058,83.9817,132.916,99.9877,92.4032,0.00359211,0.500115,20.4018,97.8554,0.722791,0.0,0.0
1542,385.25,80.0221,84.3795,132.07,99.9788,92.5283,0.0037592,0.503336,20.3992,97.6152,0.709583,0.0,0.0
1548,386.75,80.4427,84.0457,131.709,99.9841,91.4136,0.00389772,0.507444,20.3957,97.405,0.821116,0.0,0.0
1554,388.25,80.0551,84.3244,135.021,99.9707,91.9723,0.00394238,0.510384,20.3913,97.1648,0.76406,0.0,0.0
1560,389.75,80.4578,83.9023,133.594,99.9813,91.7527,0.00389835,0.512254,20.3869,96.9847,0.786931,0.0,0.0
1566,391.25,80.4384,84.473,132.815,99.9639,91.737,0.0037814,0.512929,20.3831,96.7645,0.7869,0.0,0.0
1572,392.75,80.7621,84.4563,131.38,99.9699,91.1162,0.00363565,0.512373,20.3805,96.5443,0.849678,0.0,0.0
1578,394.25,80.576,85.1731,124.885,99.9554,91.2388,0.00349636,0.511913,20.3791,96.3041,0.836019,0.0,0.0
1584,395.75,80.9124,84.9106,131.682,99.9635,91.1831,0.00340705,0.512927,20.3784,96.1139,0.842357,0.0,0.0
1590,397.25,80.848,84.3882,130.088,99.9627,91.3286,0.00339021,0.51501,20.3778,95.8437,0.827675,0.0,0.0
1596,398.75,81.4408,84.8051,129.724,99.972,90.9061,0.00345429,0.516932,20.3773,95.6635,0.871008,0.0,0.0
1602,400.25,80.6385,85.0373,130.542,99.9542,90.9105,0.00360503,0.517277,20.3757,95.4834,0.868934,0.0,0.0
1608,401.75,80.9022,85.3733,133.471,99.9663,91.3526,0.00373748,0.517821,20.3742,95.3132,0.825595,0.0,0.0
1614,403.25,80.7309,84.499,133.239,99.951,90.367,0.00379268,0.520447,20.3725,95.0029,0.923581,0.0,0.0
1620,404.75,81.1995,85.8206,129.668,99.9534,90.6171,0.00379165,0.523051,20.371,94.8528,0.898479,0.0,0.0
1626,406.25,81.6869,85.8209,132.673,99.9461,91.5038,0.00376164,0.521615,20.3695,94.5926,0.808599,0.0,0.0
1632,407.75,80.3925,84.4539,129.217,99.9425,90.7891,0.00374252,0.521249,20.3677,94.4224,0.880108,0.0,0.0
1638,409.25,81.0991,85.5424,130.79,99.9295,90.5847,0.00373161,0.522826,20.3657,94.1522,0.899576,0.0,0.0
1644,410.75,81.3971,85.8997,131.554,99.9611,90.6921,0.0036987,0.523696,20.3646,93.982,0.891607,0.0,0.0
1650,412.25,81.3357,86.0526,130.658,99.9412,90.1975,0.00365965,0.522876,20.3629,93.7819,0.939899,0.0,0.0
1656,413.75,81.4425,85.6572,130.938,99.9311,90.0363,0.00361002,0.521334,20.362,93.5617,0.955356,0.0,0.0
1662,415.25,81.8558,85.808,128.688,99.9477,90.254,0.00358696,0.521002,20.362,93.3415,0.934752,0.0,0.0
1668,416.75,81.7358,85.7555,132.051,99.9271,89.6287,0.00362345,0.520779,20.3626,93.1813,0.996562,0.0,0.0
1674,418.25,81.5314,85.4025,131.805,99.9295,90.0512,0.00370392,0.520125,20.3629,92.9611,0.953698,0.0,0.0
1680,419.75,81.8366,86.2294,138.452,99.9194,89.3822,0.00376339,0.51895,20.3631,92.761,1.02109,0.0,0.0
1686,421.25,81.5109,85.9475,128.68,99.9328,89.757,0.00384931,0.517114,20.3632,92.5808,0.983978,0.0,0.0
1692,422.75,81.5959,86.1765,137.97,99.9206,90.1658,0.00388741,0.514005,20.3639,92.3906,0.941226,0.0,0.0
1698,424.25,81.6628,85.6193,133.437,99.9126,90.7755,0.00384467,0.510245,20.3659,92.2205,0.878742,0.0,0.0
1704,425.75,81.6034,85.6479,134.076,99.8972,91.0797,0.00372745,0.506192,20.3692,92.0604,0.846677,0.0,0.0
1710,427.25,81.1544,85.4965,135.165,99.9037,91.2617,0.00357033,0.500568,20.3735,91.9002,0.828983,0.0,0.0
1716,428.75,80.5397,85.3203,134.73,99.8855,92.1815,0.0034384,0.494539,20.3771,91.7301,0.735422,0.0,0.0
1722,430.25,80.7474,85.1289,136.998,99.8968,92.3619,0.00338223,0.484743,20.3834,91.62,0.718549,0.0,0.0
1728,431.75,81.0177,85.1983,139.35,99.8992,93.4345,0.00332071,0.472568,20.3904,91.4999,0.61298,0.0,0.0
1734,433.25,80.5439,84.3804,135.378,99.8948,94.1412,0.00321187,0.460722,20.4014,91.3798,0.543536,0.0,0.0
1740,434.75,79.7541,84.5898,138.249,99.8766,95.0062,0.0030277,0.44789,20.4136,91.2396,0.458067,0.0,0.0
1746,436.25,79.4578,83.7221,136.228,99.877,95.6242,0.0028566,0.43356,20.4254,91.2096,0.398688,0.0,0.0
1752,437.75,79.6602,84.1478,138.119,99.8786,97.2019,0.00271414,0.418383,20.44,91.1095,0.248905,0.0,0.0
1758,439.25,79.6392,83.883,140.007,99.881,97.4388,0.00257729,0.401631,20.4582,91.0395,0.226824,0.0,0.0
1764,440.75,77.959,83.1953,142.644,99.8653,98.309,0.00238253,0.380963,20.4761,90.9594,0.143914,0.0,0.0
1770,442.25,76.9126,81.5849,145.967,99.8847,98.2352,0.00211387,0.36184,20.4919,90.9394,0.152571,0.0,0.0
1776,443.75,77.3077,82.2574,141.254,99.8705,98.6493,0.00186369,0.338933,20.511,90.8593,0.112735,0.0,0.0
1782,445.25,76.7897,81.0877,141.402,99.879,98.9727,0.00165854,0.315691,20.536,90.8493,0.0835197,0.0,0.0
1788,446.75,75.3959,80.399,143.128,99.8814,99.0236,0.00146664,0.291234,20.5621,90.7893,0.0790312,0.0,0.0
1794,448.25,75.4723,80.3328,144.097,99.8693,99.1635,0.00124913,0.26574,20.5896,90.7993,0.0649843,0.0,0.0
1800,449.75,74.4794,79.2721,144.771,99.8705,99.0485,0.0010185,0.242138,20.6182,90.7692,0.0757311,0.0,0.0
1806,451.25,74.2079,78.6016,148.256,99.877,99.1367,0.000846655,0.22058,20.6504,90.7392,0.0681701,0.0,0.0
1812,452.75,74.0372,78.2651,139.403,99.8726,99.0809,0.000719836,0.202536,20.68,90.7092,0.0729131,0.0,0.0
1818,454.25,73.1653,77.7508,142.656,99.8653,99.0328,0.000610498,0.188489,20.7068,90.6892,0.0766952,0.0,0.0
1824,455.75,72.4809,76.993,147.278,99.8548,99.0918,0.000515475,0.176593,20.7278,90.6491,0.0702807,0.0,0.0
1830,457.25,72.2153,76.5323,141.246,99.8608,99.0204,0.000412782,0.166772,20.7443,90.6391,0.0774371,0.0,0.0
1836,458.75,71.5719,75.7467,141.656,99.8624,99.0894,0.000298834,0.159314,20.759,90.6391,0.0712074,0.0,0.0
1842,460.25,70.9375,75.2927,143.383,99.8471,99.0304,0.00022913,0.154112,20.7738,90.5791,0.0752491,0.0,0.0
1848,461.75,70.0989,74.9822,145.189,99.8677,99.1262,0.00022608,0.14978,20.7843,90.529,0.0682807,0.0,0.0
1854,463.25,69.7411,74.4191,144.69,99.8536,99.097,0.000292198,0.146406,20.7919,90.529,0.0696878,0.0,0.0
1860,464.75,69.5702,73.5063,142.91,99.8556,99.1647,0.00038095,0.143542,20.7987,90.5591,0.0636122,0.0,0.0
1866,466.25,69.4541,73.2817,143.765,99.8358,99.0581,0.000462635,0.140586,20.8025,90.479,0.0716517,0.0,0.0
1872,467.75,68.8589,73.1266,148.103,99.8608,99.0878,0.000562418,0.138386,20.8056,90.489,0.0712085,0.0,0.0
1878,469.25,68.1788,72.278,144.229,99.837,98.9952,0.000646362,0.136841,20.8083,90.459,0.0775855,0.0,0.0
1884,470.75,67.7389,71.7988,142.662,99.8552,99.1054,0.000703569,0.135407,20.8112,90.479,0.069058,0.0,0.0
1890,472.25,67.2292,71.3041,145.318,99.8471,99.1559,0.000752848,0.134178,20.8128,90.4189,0.0636491,0.0,0.0
1896,473.75,67.1782,71.4891,141.669,99.8548,99.1603,0.000772756,0.133266,20.8156,90.469,0.0639452,0.0,0.0
1902,475.25,66.9617,70.6275,142.581,99.837,99.0393,0.0007357,0.132947,20.8171,90.3789,0.0735058,0.0,0.0
1908,476.75,66.2967,70.0185,143.736,99.8523,99.0276,0.000640669,0.132983,20.8181,90.3889,0.07599,0.0,0.0
1914,478.25,65.8933,69.5655,146.116,99.8402,99.0573,0.000585391,0.132915,20.8187,90.3188,0.072134,0.0,0.0
1920,479.75,65.6325,69.3195,145.754,99.8487,99.1182,0.000599193,0.132488,20.819,90.3489,0.0672789,0.0,0.0
1926,481.25,64.7519,68.4127,149.285,99.8346,99.1234,0.000666926,0.131983,20.8191,90.2988,0.0654994,0.0,0.0
1932,482.75,65.2544,68.9476,148.746,99.8511,98.9571,0.000766366,0.131197,20.8192,90.2888,0.0824081,0.0,0.0
1938,484.25,65.1172,68.2047,148.84,99.8334,99.2032,0.000859742,0.130462,20.8202,90.2288,0.0580178,0.0,0.0
1944,485.75,63.6803,67.0382,147.944,99.839,99.1258,0.000891201,0.12998,20.8215,90.3088,0.0656848,0.0,0.0
1950,487.25,63.6361,67.4449,143.74,99.8305,99.1178,0.000917188,0.129562,20.8225,90.1987,0.0656469,0.0,0.0
1956,488.75,63.6991,66.4762,145.092,99.8321,99.0393,0.000968802,0.12923,20.8238,90.1887,0.0730605,0.0,0.0
1962,490.25,62.9653,66.0904,147.896,99.8224,99.1755,0.00106243,0.128981,20.8253,90.1687,0.0595708,0.0,0.0
1968,491.75,62.7673,65.9398,142.292,99.8176,98.9827,0.00112098,0.128309,20.8264,90.1687,0.0769551,0.0,0.0
1974,493.25,62.0071,64.8776,142.88,99.8224,99.0332,0.00111877,0.12737,20.827,90.1487,0.0727267,0.0,0.0
1980,494.75,61.5985,64.7307,148.506,99.837,99.0016,0.00111395,0.127096,20.8283,90.1087,0.0769909,0.0,0.0
1986,496.25,61.4433,64.903,146.68,99.82,99.2272,0.00116041,0.127443,20.8291,90.1487,0.0545733,0.0,0.0
1992,497.75,61.0453,64.5479,144.723,99.8026,99.1339,0.00126646,0.128238,20.8295,90.1087,0.0616053,0.0,0.0
1998,499.25,60.9314,63.9512,142.295,99.8144,99.091,0.00139432,0.129075,20.829,90.1287,0.0666467,0.0,0.0
2004,500.75,60.6981,63.7386,146.855,99.803,99.0938,0.00156381,0.129735,20.8274,90.0686,0.0653476,0.0,0.0
2010,502.25,60.2861,63.5061,145.785,99.7958,99.1322,0.00168742,0.130444,20.8265,90.0886,0.0611225,0.0,0.0
2016,503.75,60.4868,63.1399,147.85,99.8168,99.285,0.00172715,0.131557,20.8253,90.0286,0.0489484,0.0,0.0
2022,505.25,59.8528,62.8529,147.686,99.8095,99.1543,0.0017772,0.132235,20.8241,90.0586,0.0603478,0.0,0.0
2028,506.75,60.2441,62.6889,149.897,99.7966,99.0765,0.00191685,0.13262,20.8225,89.9785,0.0663485,0.0,0.0
2034,508.25,59.9204,61.8572,147.145,99.8095,99.093,0.00215074,0.132519,20.8217,89.9886,0.0660156,0.0,0.0
2040,509.75,59.2601,62.1345,146.317,99.803,99.2128,0.00233934,0.131763,20.8213,89.9585,0.0543475,0.0,0.0
2046,511.25,59.4764,62.248,144.424,99.8172,99.0781,0.00240486,0.130445,20.8214,89.9886,0.068092,0.0,0.0
2052,512.75,59.2927,61.6222,146.706,99.8026,99.0898,0.00240503,0.129032,20.8223,89.8785,0.0656816,0.0,0.0
2058,514.25,58.2533,60.4552,146.507,99.8099,99.1054,0.00232065,0.127717,20.8234,89.9385,0.0649029,0.0,0.0
2064,515.75,58.7939,61.0944,147.007,99.7921,99.0364,0.00219622,0.126421,20.8246,89.8684,0.0696477,0.0,0.0
2070,517.25,58.1805,60.4858,146.083,99.8043,99.101,0.00209563,0.12523,20.8275,89.8985,0.0647923,0.0,0.0
2076,518.75,58.338,60.5756,149.246,99.7942,99.0505,0.00205918,0.124505,20.8292,89.8184,0.0685354,0.0,0.0
2082,520.25,58.5741,59.8077,144.123,99.7917,99.0829,0.00207888,0.12438,20.831,89.8584,0.0653096,0.0,0.0
2088,521.75,57.7359,60.0593,144.172,99.7756,99.0709,0.00215736,0.124247,20.8319,89.7984,0.0649376,0.0,0.0
2094,523.25,57.6569,59.7554,145.271,99.7768,99.0156,0.00225226,0.12388,20.8324,89.8184,0.0701658,0.0,0.0
2100,524.75,57.5554,59.679,144.7,99.7844,99.1555,0.00234265,0.123696,20.8327,89.7584,0.0579353,0.0,0.0
2106,526.25,57.6615,59.5513,145.358,99.7683,99.1375,0.00244567,0.123791,20.8328,89.7784,0.0581177,0.0,0.0
2112,527.75,57.0842,59.192,146.175,99.763,99.1751,0.00251122,0.123812,20.8329,89.7183,0.0541542,0.0,0.0
2118,529.25,57.2787,59.1217,143.029,99.7655,98.9743,0.00251989,0.12381,20.8331,89.7083,0.0729478,0.0,0.0
2124,530.75,56.7209,58.985,145.975,99.761,99.1118,0.00251282,0.123718,20.8341,89.7083,0.0598215,0.0,0.0
2130,532.25,56.3462,58.5591,148.511,99.7428,99.0413,0.00246964,0.123423,20.8343,89.6883,0.0646752,0.0,0.0
2136,533.75,56.5145,58.5522,148.289,99.7469,99.1719,0.00239902,0.123099,20.8343,89.6883,0.0529652,0.0,0.0
2142,535.25,56.5448,58.4238,145.256,99.7408,99.0705,0.00233207,0.123034,20.8344,89.6483,0.0617822,0.0,0.0
2148,536.75,56.2489,58.587,147.537,99.7315,98.8962,0.00232813,0.123335,20.834,89.6783,0.0770689,0.0,0.0
2154,538.25,56.5699,58.0928,144.428,99.7238,99.0344,0.00237159,0.123848,20.8338,89.6082,0.0635602,0.0,0.0
2160,539.75,56.3706,58.026,145.977,99.7271,99.0633,0.00246138,0.124039,20.8337,89.6483,0.0611876,0.0,0.0
2166,541.25,56.1956,57.738,145.154,99.7137,99.1074,0.0025548,0.123935,20.8346,89.5582,0.0558848,0.0,0.0
2172,542.75,56.0347,57.5051,147.132,99.7178,99.0605,0.00270864,0.12421,20.8353,89.5982,0.0605941,0.0,0.0
2178,544.25,55.4913,57.0661,147.476,99.7028,98.9543,0.00285705,0.124324,20.8355,89.5382,0.0690493,0.0,0.0
2184,545.75,56.1597,57.4212,148.095,99.7113,99.0312,0.00299792,0.124487,20.8357,89.5982,0.0627054,0.0,0.0
2190,547.25,55.594,57.4605,148.788,99.6984,99.0397,0.00303973,0.124601,20.8358,89.5482,0.0607384,0.0,0.0
2196,548.75,54.9737,56.6388,144.581,99.6907,99.0701,0.0030506,0.124413,20.8358,89.5482,0.0572157,0.0,0.0
2202,550.25,55.2376,56.9192,151.705,99.6939,99.0721,0.00313652,0.124378,20.8359,89.4681,0.0573264,0.0,0.0
2208,551.75,55.2154,57.0293,145.261,99.7073,99.095,0.00324671,0.124272,20.8359,89.5382,0.0564396,0.0,0.0
2214,553.25,54.571,56.3485,146.34,99.685,98.9054,0.00333335,0.124047,20.8363,89.4381,0.0719433,0.0,0.0
2220,554.75,54.9454,56.1765,145.002,99.6931,99.1663,0.00338003,0.124069,20.8365,89.4981,0.0485464,0.0,0.0
2226,556.25,54.571,56.3795,147.766,99.6717,98.9928,0.00339592,0.124173,20.8357,89.398,0.0626262,0.0,0.0
2232,557.75,54.6449,56.0985,150.613,99.6774,99.1691,0.00341963,0.124515,20.8351,89.4781,0.0468372,0.0,0.0
2238,559.25,54.3619,55.801,145.547,99.6681,98.9775,0.00349056,0.124879,20.8348,89.398,0.0637022,0.0,0.0
2244,560.75,54.422,55.6858,149.134,99.6665,99.1695,0.00364308,0.124842,20.8345,89.4181,0.0457983,0.0,0.0
2250,562.25,54.2801,55.7384,144.121,99.6636,98.9567,0.00376514,0.124328,20.8341,89.358,0.0652239,0.0,0.0
2256,563.75,53.7145,55.4236,147.922,99.6701,99.1852,0.00381679,0.123686,20.8342,89.378,0.0446875,0.0,0.0
2262,565.25,54.0306,55.8116,151.834,99.6576,98.9118,0.00384525,0.12322,20.8348,89.338,0.0688238,0.0,0.0
2268,566.75,53.8868,55.2026,148.662,99.6543,99.1419,0.00389793,0.123084,20.8352,89.308,0.0472393,0.0,0.0
2274,568.25,54.1913,54.8853,152.229,99.6555,99.0332,0.0039802,0.123221,20.8357,89.298,0.0573937,0.0,0.0
2280,569.75,53.8993,55.0988,152.672,99.6555,99.1042,0.00406544,0.123402,20.8361,89.2879,0.0508321,0.0,0.0
2286,571.25,53.5369,54.7925,149.456,99.6551,98.9759,0.00412525,0.123415,20.8359,89.308,0.062662,0.0,0.0
2292,572.75,53.5667,54.087,145.163,99.6527,99.0709,0.00417347,0.123383,20.8358,89.2379,0.0536493,0.0,0.0
2298,574.25,53.3596,54.7038,148.735,99.6531,99.0609,0.00427643,0.123428,20.8361,89.298,0.0546135,0.0,0.0
2304,575.75,53.8629,54.6956,145.774,99.6523,98.9932,0.00439979,0.123458,20.8363,89.2179,0.0608068,0.0,0.0
2310,577.25,53.4995,54.3676,144.368,99.6648,99.0537,0.00452666,0.123329,20.8364,89.2779,0.0563581,0.0,0.0
2316,578.75,52.9012,54.222,145.848,99.6495,99.1603,0.00464665,0.123361,20.8365,89.1678,0.0450886,0.0,0.0
2322,580.25,52.5357,53.8317,145.201,99.6677,99.1282,0.00475067,0.123587,20.8365,89.2579,0.0497252,0.0,0.0
2328,581.75,53.0444,54.1987,147.723,99.658,98.9659,0.00483944,0.123707,20.8365,89.1578,0.0638487,0.0,0.0
2334,583.25,52.1432,52.9895,148.348,99.6628,98.8922,0.00493484,0.123632,20.8363,89.2079,0.0711261,0.0,0.0
2340,584.75,52.8302,53.9699,148.103,99.6523,98.9595,0.00496597,0.123681,20.8358,89.1178,0.0639235,0.0,0.0
2346,586.25,52.3312,53.6436,145.064,99.6652,99.026,0.00494585,0.123523,20.8361,89.1678,0.0589544,0.0,0.0
2352,587.75,52.1711,53.2947,144.982,99.6612,98.9394,0.00490082,0.123123,20.8367,89.0778,0.0665968,0.0,0.0
2358,589.25,52.4256,53.4254,149.07,99.6697,99.0356,0.0048448,0.122993,20.837,89.1378,0.0584715,0.0,0.0
2364,590.75,51.81,52.7405,146.36,99.6665,99.1046,0.00480282,0.12326,20.8372,89.0177,0.0517988,0.0,0.0
2370,592.25,52.5302,53.2778,147.389,99.683,99.0176,0.00478939,0.123615,20.8372,89.0878,0.0613666,0.0,0.0
2376,593.75,52.4464,53.231,145.917,99.6567,98.9431,0.00482927,0.124036,20.8373,88.9977,0.0658529,0.0,0.0
2382,595.25,52.3645,53.1152,144.906,99.6766,98.941,0.0049354,0.124167,20.8371,89.0477,0.06786,0.0,0.0
2388,596.75,51.7776,52.502,145.306,99.6669,99.218,0.00501763,0.124062,20.8361,88.9576,0.0413554,0.0,0.0
2394,598.25,52.1063,52.3025,149.353,99.6632,99.1427,0.0050549,0.124079,20.8356,88.9777,0.0479814,0.0,0.0
2400,599.75,52.1935,53.2716,147.952,99.6551,99.1339,0.00508544,0.123928,20.8354,88.9276,0.0480542,0.0,0.0
2406,601.25,51.8082,52.5813,144.023,99.6656,99.3242,0.0051109,0.123534,20.8354,88.9276,0.0314401,0.0,0.0
2412,602.75,52.0586,52.9245,149.955,99.664,98.9928,0.00508979,0.123281,20.8363,88.8876,0.061921,0.0,0.0
2418,604.25,51.4899,52.1377,149.672,99.6644,99.1735,0.00508977,0.122868,20.8368,88.8676,0.0452418,0.0,0.0
2424,605.75,51.8774,52.6564,143.585,99.6656,99.0224,0.0051676,0.122417,20.8381,88.8676,0.0593245,0.0,0.0
2430,607.25,51.8651,52.8034,150.171,99.6745,99.0024,0.00530351,0.122546,20.8395,88.8275,0.0619959,0.0,0.0
2436,608.75,52.0155,52.8387,149.379,99.677,99.2761,0.00547924,0.122867,20.8401,88.8476,0.036918,0.0,0.0