File: 01_Data/Basswood_Panel/Cone/Basswood_Panel_Cone_HF50Scan_221212_R2.csv
Names,Time,Stack TC,Smoke TC,Exh Press,Smoke Comp,Smoke Meas,CO Meter,CO2 Meter,O2 Meter,Sample Mass,Ext Coeff,Start Test,Flame Verif
Chan Gain,,500,500,1,1,1,1,1,1,1,1,1.0,1.0
Offset,,0,0,0.136404,0,0,0,0,0,0,0,0.0,0.0
Gain,,1,1,25.011,13.2008,13.1217,1,1,1,1.00087,1.04452,1.0,1.0
Units,sec,C,C,Pa,%,%,%,%,%,g,/m,,
Baseline,,31.8108,32.0555,169,99.9427,99.5011,3.71617e-05,0.0456781,20.9454,-445.601,0.0405811,,
7,1.5,30.3747,30.7641,171.875,99.0607,98.9299,-0.000263907,0.0546996,20.935,150.662,0.0121051,0.0,0.0
14,3.25,29.6301,30.4333,168.747,98.9483,98.654,-0.0002116,0.0547062,20.9336,150.501,0.0272919,0.0,0.0
21,5,29.7947,30.4926,166.33,98.8802,98.841,-0.000110846,0.0538838,20.9329,150.521,0.00363321,0.0,0.0
28,6.75,30.1065,30.72,174.592,98.8718,98.4402,-6.42149e-06,0.0527747,20.9335,150.451,0.0400821,0.0,0.0
35,8.5,30.3158,30.8751,175.581,98.883,98.0217,1.37859e-05,0.0519079,20.934,150.391,0.0801606,0.0,0.0
42,10.25,30.0082,30.3135,168.192,98.9447,97.4891,4.02872e-06,0.051174,20.9358,150.271,0.135788,0.0,0.0
49,12,30.3529,30.8685,168.899,99.0732,96.6254,-2.69335e-06,0.0506321,20.9372,150.261,0.229223,0.0,0.0
56,13.75,30.486,31.0452,159.443,99.2424,98.1342,9.70547e-06,0.0503231,20.9381,149.991,0.102884,0.0,1.0
63,15.5,30.7337,30.9125,152.281,99.435,96.1184,2.99752e-05,0.0506417,20.9398,149.831,0.310817,0.0,1.0
70,17.25,31.7503,31.6602,152.155,99.6247,95.8509,4.63789e-05,0.0511845,20.9406,149.48,0.35382,0.0,1.0
77,19,32.6014,32.5684,150.927,99.8523,96.1228,0.000117874,0.0518554,20.9402,149.23,0.348775,0.0,1.0
84,20.75,33.7711,33.0339,149.855,100.08,95.8766,0.000326141,0.0576175,20.9395,148.96,0.393179,0.0,0.0
91,22.5,34.8087,34.4913,149.423,100.265,94.2051,0.000664285,0.0995231,20.9385,148.7,0.571234,0.0,0.0
98,24.25,36.4886,35.8115,150.156,100.418,93.8283,0.0010984,0.184348,20.9137,148.299,0.621935,0.0,0.0
105,26,37.9221,37.0979,147.486,100.532,93.5043,0.00155925,0.275483,20.8526,148.009,0.663984,0.0,0.0
112,27.75,39.0486,37.9834,145.1,100.61,94.1963,0.00216035,0.353854,20.7572,147.789,0.60355,0.0,0.0
119,29.5,40.0414,40.0876,151.802,100.66,93.6933,0.00265694,0.413427,20.659,147.459,0.657115,0.0,0.0
126,31.25,41.1924,40.5522,149.288,100.623,92.8224,0.00304028,0.452133,20.5728,147.088,0.739348,0.0,0.0
133,33,42.2603,41.884,148.52,100.53,92.9437,0.00329519,0.477469,20.5135,146.778,0.718865,0.0,0.0
140,34.75,43.556,43.0791,148.904,100.432,92.2449,0.00350481,0.49584,20.4731,146.428,0.779084,0.0,0.0
147,36.5,44.2561,44.2398,149.059,100.293,93.0835,0.0037522,0.509269,20.4407,146.168,0.683521,0.0,0.0
154,38.25,44.8378,45.2251,143.639,100.127,93.3722,0.00405407,0.521082,20.4146,145.907,0.640005,0.0,0.0
161,40,45.9683,45.7132,150.572,99.9885,93.3033,0.00429766,0.529124,20.3936,145.497,0.63404,0.0,0.0
168,41.75,46.8037,46.6881,147.75,99.8539,93.7646,0.00450369,0.533998,20.3809,145.197,0.576512,0.0,0.0
175,43.5,47.6187,48.0229,150.214,99.754,93.882,0.00467869,0.537183,20.3713,144.937,0.555881,0.0,0.0
182,45.25,48.3731,48.2814,153.741,99.9369,93.343,0.00479137,0.539688,20.3661,144.676,0.625421,0.0,0.0
189,47,49.0815,49.6244,147.276,100.091,93.4699,0.00487613,0.540196,20.3627,144.346,0.627066,0.0,0.0
196,48.75,49.8458,50.2198,143.021,100.174,93.7518,0.00502117,0.537576,20.3608,143.976,0.607068,0.0,0.0
203,50.5,50.6755,50.544,149.318,100.176,93.8475,0.00506792,0.531326,20.3599,143.695,0.597903,0.0,0.0
210,52.25,50.6298,51.2119,150.875,100.125,94.5735,0.00492129,0.525717,20.3649,143.455,0.522688,0.0,0.0
217,54,51.2042,52.4433,151.292,99.9965,94.8578,0.00461804,0.522267,20.3708,143.165,0.48338,0.0,0.0
224,55.75,51.6817,52.6309,144.017,99.7975,93.6253,0.00432313,0.52143,20.3759,142.815,0.584962,0.0,0.0
231,57.5,52.1782,53.5522,148.613,99.5671,93.9957,0.00408816,0.521686,20.3795,142.564,0.527604,0.0,0.0
238,59.25,52.7473,53.8818,145.863,99.3951,94.3381,0.0039386,0.519857,20.3812,142.314,0.478447,0.0,0.0
245,61,53.2191,53.8977,147.836,99.4458,94.7085,0.00391114,0.514797,20.382,142.054,0.447219,0.0,0.0
252,62.75,53.3347,54.4468,148.878,99.5071,94.9527,0.00393177,0.506431,20.3852,141.744,0.429258,0.0,0.0
259,64.5,54.1972,54.9299,146.844,99.5909,95.3095,0.00386959,0.498998,20.3908,141.443,0.402606,0.0,0.0
266,66.25,54.5021,55.8758,150.326,99.729,95.9334,0.00375695,0.492591,20.4039,141.253,0.355529,0.0,0.0
273,68,54.4226,56.2869,148.434,99.8547,95.955,0.00364772,0.488664,20.4123,140.963,0.365004,0.0,0.0
280,69.75,54.984,56.6225,148.695,99.9498,96.6098,0.00351395,0.484742,20.4181,140.713,0.311419,0.0,0.0
287,71.5,55.3487,57.0531,148.42,100.019,95.5398,0.00344655,0.47924,20.4234,140.393,0.419775,0.0,0.0
294,73.25,55.2036,57.7106,153,100.055,96.4264,0.00340732,0.47328,20.4297,140.122,0.3385,0.0,0.0
301,75,55.7964,57.8493,152.915,100.071,96.4408,0.00328205,0.4681,20.4366,139.922,0.338568,0.0,0.0
308,76.75,56.081,58.0188,149.711,100.022,97.0486,0.00312827,0.463383,20.4427,139.712,0.27646,0.0,0.0
315,78.5,56.3834,58.3755,146.554,99.9357,96.5417,0.0030231,0.459757,20.448,139.422,0.316585,0.0,0.0
322,80.25,56.24,58.525,149.104,99.8358,96.8989,0.00294174,0.45498,20.4519,139.101,0.273583,0.0,0.0
329,82,56.6478,58.7719,151.863,99.7319,96.5349,0.00291614,0.448354,20.4552,138.981,0.298522,0.0,0.0
336,83.75,56.8571,59.5284,151.828,99.5884,96.6246,0.00289479,0.442563,20.4611,138.721,0.276827,0.0,0.0
343,85.5,56.8327,59.1892,145.684,99.4366,96.9497,0.00278848,0.439821,20.4706,138.461,0.232062,0.0,0.0
350,87.25,57.0459,59.5683,155.209,99.2754,96.502,0.00271176,0.438891,20.4762,138.121,0.259609,0.0,0.0
357,89,57.6018,60.059,153.363,99.1264,96.6574,0.00268572,0.438293,20.4788,137.97,0.231102,0.0,0.0
364,90.75,57.0027,60.0885,148.611,99.0059,96.1781,0.00261906,0.437294,20.4801,137.73,0.265511,0.0,0.0
371,92.5,57.9156,60.3592,151.758,98.9092,96.4528,0.00253364,0.434598,20.4817,137.5,0.230427,0.0,0.0
378,94.25,57.687,60.2055,150.065,98.8299,96.6626,0.00251963,0.430778,20.4835,137.18,0.203161,0.0,0.0
385,96,57.882,60.3374,152.648,98.825,96.5897,0.00253286,0.425957,20.4878,136.96,0.209623,0.0,0.0
392,97.75,57.9833,60.8723,148.331,98.8839,96.5865,0.00253701,0.420943,20.4921,136.799,0.215379,0.0,0.0
399,99.5,58.4582,60.9924,149.21,98.9781,96.8544,0.00256538,0.417105,20.4979,136.549,0.198732,0.0,0.0
406,101.25,58.455,60.7363,152.887,99.1151,96.9978,0.00251888,0.413632,20.5027,136.319,0.19785,0.0,0.0
413,103,58.578,61.4693,155.013,99.2738,96.3283,0.00235068,0.411561,20.507,135.979,0.275976,0.0,0.0
420,104.75,58.1628,61.3955,150.513,99.4728,97.2913,0.00212578,0.409637,20.51,135.839,0.203177,0.0,0.0
427,106.5,58.6557,61.9099,148.808,99.69,97.3318,0.00204009,0.407611,20.5134,135.668,0.219348,0.0,0.0
434,108.25,58.5544,61.7837,151.137,99.8918,97.574,0.00210062,0.407062,20.5163,135.418,0.215101,0.0,0.0
441,110,58.8879,62.0595,150.301,100.083,97.6141,0.00222137,0.406423,20.5176,135.088,0.22884,0.0,0.0
448,111.75,58.8448,61.746,150.514,100.256,97.8039,0.00227447,0.404685,20.5195,134.888,0.22685,0.0,0.0
455,113.5,58.6009,62.0048,151.868,100.424,98.117,0.00225203,0.402143,20.5208,134.738,0.212974,0.0,0.0
462,115.25,58.6638,61.8269,152.709,100.531,98.6852,0.00223575,0.399634,20.5231,134.497,0.169799,0.0,0.0
469,117,58.5748,61.7568,146.885,100.601,98.8418,0.00226374,0.39752,20.5261,134.237,0.16166,0.0,0.0
476,118.75,59.1486,62.4933,149.86,100.64,98.656,0.00226764,0.396065,20.5292,133.977,0.182385,0.0,0.0
483,120.5,59.3075,62.2421,157.958,100.628,98.5739,0.00220685,0.393651,20.531,133.777,0.188949,0.0,0.0
490,122.25,58.5247,62.5315,150.653,100.578,98.5371,0.00217733,0.390718,20.5338,133.627,0.187861,0.0,0.0
497,124,59.1419,62.657,158.607,100.489,98.3012,0.00219349,0.388155,20.5371,133.416,0.201667,0.0,0.0
504,125.75,58.9062,61.9306,153.799,100.36,98.7125,0.00222326,0.385373,20.5402,133.076,0.15169,0.0,0.0
511,127.5,59.1874,62.8759,150.188,100.212,98.0574,0.00218569,0.384643,20.5434,132.856,0.199157,0.0,0.0
518,129.25,59.0295,62.7519,153.593,100.066,97.9649,0.002069,0.383481,20.5468,132.716,0.194424,0.0,0.0
525,131,58.9473,62.7419,157.783,99.9357,98.2247,0.00195226,0.382526,20.5486,132.566,0.158226,0.0,0.0
532,132.75,59.1369,62.6181,154.396,99.806,97.8668,0.00193482,0.380896,20.5495,132.245,0.17978,0.0,0.0
539,134.5,59.4472,62.3463,150.976,99.7863,98.1679,0.00197786,0.378118,20.5512,132.025,0.149819,0.0,0.0
546,136.25,59.1722,62.6021,153.926,100.007,98.0902,0.00195112,0.375016,20.5533,131.905,0.177358,0.0,0.0
553,138,59.2643,62.3003,153.461,100.134,98.3733,0.00188746,0.372823,20.556,131.695,0.162497,0.0,0.0
560,139.75,59.1819,62.6999,153.511,100.202,98.7597,0.00182794,0.371692,20.5592,131.465,0.13284,0.0,0.0
567,141.5,59.1412,62.7768,155.959,100.187,98.6636,0.00179573,0.370248,20.5622,131.165,0.14036,0.0,0.0
574,143.25,59.2968,62.6207,150.597,100.113,98.0574,0.00181296,0.369328,20.5641,131.044,0.190091,0.0,0.0
581,145,59.2003,62.8799,156.637,99.9748,98.3669,0.00189554,0.368728,20.5666,130.864,0.148558,0.0,0.0
588,146.75,59.2261,62.8837,156.321,99.7697,98.252,0.00198644,0.367344,20.5682,130.674,0.140457,0.0,0.0
595,148.5,58.8204,63.1264,155.999,99.5111,98.1282,0.00205185,0.365093,20.5688,130.354,0.128221,0.0,0.0
602,150.25,59.2294,62.8002,153.278,99.3798,97.6493,0.00207804,0.362709,20.5696,130.174,0.160948,0.0,0.0
609,152,59.1765,62.9928,152.08,99.441,97.4651,0.00205573,0.36185,20.5729,129.993,0.183892,0.0,0.0
616,153.75,58.8382,62.565,152.958,99.5212,97.6257,0.00200029,0.36026,20.5747,129.803,0.176193,0.0,0.0
623,155.5,58.9544,62.9223,159.646,99.6038,97.8415,0.00201675,0.357607,20.5765,129.623,0.163558,0.0,0.0
630,157.25,58.995,62.5556,147.338,99.7206,98.0946,0.00211997,0.356206,20.5786,129.353,0.15063,0.0,0.0
637,159,58.9448,62.7379,155.34,99.8253,98.1543,0.00216312,0.35538,20.5804,129.213,0.154677,0.0,0.0
644,160.75,59.1168,62.7083,151.689,99.9373,98.314,0.00207883,0.354899,20.5816,129.093,0.150048,0.0,0.0
651,162.5,58.8865,62.568,152.546,99.9969,98.4362,0.00197741,0.353062,20.5822,128.893,0.144138,0.0,0.0
658,164.25,59.23,62.7933,152.577,100.018,98.5924,0.00204121,0.351159,20.5844,128.552,0.131569,0.0,0.0
665,166,58.9718,62.7751,156.173,100.022,98.3981,0.00221125,0.350218,20.586,128.342,0.150005,0.0,0.0
672,167.75,58.5577,62.8597,152.056,100.017,98.6432,0.00231351,0.348514,20.5867,128.282,0.126733,0.0,0.0
679,169.5,59.0294,62.6549,149.668,99.9587,98.2768,0.00227686,0.346179,20.589,128.052,0.155477,0.0,0.0
686,171.25,59.2948,62.5423,150.978,99.891,97.6577,0.00221032,0.34506,20.591,127.772,0.207172,0.0,0.0
693,173,59.2398,62.9282,157.104,99.8044,98.2091,0.00217926,0.344246,20.5936,127.561,0.147635,0.0,0.0
700,174.75,59.5615,62.4223,151.188,99.7093,98.1587,0.00220437,0.344243,20.5949,127.441,0.143611,0.0,0.0
707,176.5,59.3122,62.8654,152.731,99.5889,98.2556,0.00219444,0.344551,20.5955,127.301,0.123494,0.0,0.0
714,178.25,59.0643,62.6633,154.733,99.4793,97.916,0.00209033,0.344381,20.5957,127.081,0.145128,0.0,0.0
721,180,58.9015,63.0678,152.329,99.3479,97.7779,0.00189633,0.344056,20.5959,126.811,0.14596,0.0,0.0
728,181.75,59.3109,62.6892,151.713,99.2307,97.522,0.00169502,0.343197,20.5955,126.601,0.159152,0.0,0.0
735,183.5,59.349,62.6979,149.498,99.1256,97.3714,0.00161606,0.342496,20.5963,126.49,0.163595,0.0,0.0
742,185.25,59.2647,63.1043,156.2,99.0281,97.4355,0.0016732,0.342069,20.5975,126.29,0.148553,0.0,0.0
749,187,58.2537,62.6542,150.688,98.9346,97.379,0.00179813,0.341095,20.5987,126.02,0.145212,0.0,0.0
756,188.75,59.1662,61.9902,158.8,98.8685,97.0751,0.0019436,0.340535,20.5992,125.82,0.167733,0.0,0.0
763,190.5,58.9289,62.8615,151.733,98.8262,97.1956,0.00200897,0.340717,20.5996,125.7,0.152442,0.0,0.0
770,192.25,58.5712,62.1117,146.105,98.796,97.6229,0.00191816,0.340353,20.6001,125.51,0.109451,0.0,0.0
777,194,58.7815,62.873,156.919,98.8009,97.3702,0.00177994,0.340128,20.6004,125.279,0.133645,0.0,0.0
784,195.75,58.8634,62.8196,154.734,98.7964,97.5468,0.00178013,0.340221,20.6,125.019,0.116632,0.0,0.0
791,197.5,58.95,62.6107,147.834,98.8504,97.4283,0.00183629,0.339861,20.5998,124.869,0.132778,0.0,0.0
798,199.25,58.8287,62.3409,151.853,98.8927,97.5204,0.00187143,0.339143,20.5997,124.739,0.12804,0.0,0.0
805,201,58.826,62.7881,151.662,98.96,97.8688,0.00187731,0.337457,20.6004,124.539,0.101597,0.0,0.0
812,202.75,58.9427,62.3375,153.243,99.0184,97.7122,0.0018193,0.336255,20.6008,124.228,0.121674,0.0,0.0
819,204.5,59.2845,62.7245,155.657,99.1199,97.7634,0.00167048,0.335604,20.6009,124.088,0.126258,0.0,0.0
826,206.25,58.9251,62.771,148.46,99.2166,97.7298,0.00158381,0.334483,20.6028,123.968,0.138344,0.0,0.0
833,208,59.1557,62.3901,154.257,99.3121,97.952,0.00157828,0.333594,20.6043,123.788,0.126344,0.0,0.0
840,209.75,59.058,62.2955,151.594,99.4225,98.2508,0.00161559,0.332761,20.6062,123.538,0.108622,0.0,0.0
847,211.5,58.9442,62.27,145.891,99.5216,98.1314,0.00168041,0.332234,20.6072,123.318,0.128886,0.0,0.0
854,213.25,58.7672,62.3812,152.721,99.6565,98.3253,0.00173571,0.331402,20.6087,123.228,0.123224,0.0,0.0
861,215,59.1623,62.5539,155.484,99.7685,98.5435,0.00174942,0.329887,20.61,122.987,0.1132,0.0,0.0
868,216.75,58.6224,62.9199,149.781,99.8684,98.4198,0.00168141,0.328242,20.6106,122.817,0.133883,0.0,0.0
875,218.5,59.1442,61.6056,151.975,99.9575,98.5479,0.0015559,0.327798,20.6117,122.617,0.130126,0.0,0.0
882,220.25,58.7022,61.9372,153.487,100.053,98.4198,0.00144418,0.327992,20.6129,122.417,0.150833,0.0,0.0
889,222,58.5883,62.7228,154.88,100.174,98.5679,0.00142168,0.328121,20.6135,122.307,0.148073,0.0,0.0
896,223.75,58.8643,62.2798,153.194,100.251,99.0521,0.00151853,0.327397,20.6138,122.097,0.110216,0.0,0.0
903,225.5,58.4306,62.7149,148.486,100.331,98.612,0.00160272,0.326958,20.6152,121.856,0.158302,0.0,0.0
910,227.25,58.5732,62.0241,155.396,100.375,99.1325,0.00164962,0.327447,20.6158,121.676,0.114107,0.0,0.0
917,229,58.741,62.2302,151.871,100.431,98.9275,0.0017389,0.326682,20.6161,121.536,0.138186,0.0,0.0
924,230.75,58.7441,61.901,152.83,100.478,99.1357,0.00181698,0.3248,20.6162,121.376,0.123183,0.0,0.0
931,232.5,58.5712,62.2648,151.047,100.521,99.2323,0.00180689,0.323274,20.6171,121.156,0.118198,0.0,0.0
938,234.25,58.9612,62.1944,152,100.543,99.1117,0.00178031,0.322734,20.6184,120.936,0.131353,0.0,0.0
945,236,58.6905,62.1709,160.497,100.576,99.1962,0.00172641,0.322584,20.6205,120.755,0.126592,0.0,0.0
952,237.75,58.873,62.0519,150.463,100.601,99.0685,0.00166019,0.322401,20.6218,120.655,0.140674,0.0,0.0
959,239.5,58.7522,61.9739,156.283,100.614,99.0877,0.00162462,0.322618,20.6226,120.475,0.14007,0.0,0.0
966,241.25,58.7096,61.9784,152.313,100.621,99.1702,0.0016179,0.322946,20.622,120.245,0.133033,0.0,0.0
973,243,58.5671,62.3959,148.793,100.628,99.2795,0.00160265,0.322138,20.6218,119.995,0.123635,0.0,0.0
980,244.75,58.7029,61.9923,151.406,100.645,98.9876,0.00160062,0.321008,20.6215,119.885,0.152158,0.0,0.0
987,246.5,58.5191,61.769,155.922,100.663,99.3552,0.00164885,0.320412,20.6235,119.684,0.119844,0.0,0.0
994,248.25,58.5812,61.9971,148.344,100.646,99.2779,0.00168623,0.320081,20.6247,119.464,0.125396,0.0,0.0
1001,250,58.7604,61.9792,152.45,100.652,99.3224,0.00171304,0.320403,20.6248,119.264,0.121845,0.0,0.0
1008,251.75,58.8299,61.8414,156.366,100.649,99.6091,0.00174587,0.321252,20.6241,119.144,0.0951411,0.0,0.0
1015,253.5,58.6271,61.8343,155.429,100.655,99.197,0.00178656,0.32208,20.6232,118.954,0.133709,0.0,0.0
1022,255.25,58.6832,61.9021,149.441,100.663,99.3552,0.00180281,0.323359,20.6225,118.754,0.119844,0.0,0.0
1029,257,58.6162,61.8675,154.852,100.64,99.0801,0.00173779,0.323626,20.6223,118.483,0.143158,0.0,0.0
1036,258.75,58.8067,61.636,151.503,100.645,99.2082,0.0016771,0.322301,20.6221,118.383,0.131719,0.0,0.0
1043,260.5,58.8247,62.3329,151.881,100.643,99.324,0.00165079,0.321638,20.6221,118.203,0.120891,0.0,0.0
1050,262.25,58.7018,62.0073,153.569,100.647,99.4545,0.00163134,0.321574,20.622,118.043,0.109187,0.0,0.0
1057,264,58.7477,61.9194,147.517,100.631,99.0725,0.00159249,0.322063,20.622,117.833,0.143018,0.0,0.0
1064,265.75,58.5243,62.0549,157.581,100.629,99.1217,0.00155395,0.322933,20.6219,117.623,0.138245,0.0,0.0
1071,267.5,58.1914,61.928,151.748,100.632,99.1329,0.00156963,0.323462,20.6218,117.503,0.137501,0.0,0.0
1078,269.25,58.5783,61.9251,147.064,100.637,98.9403,0.00162511,0.322547,20.6217,117.332,0.155762,0.0,0.0
1085,271,57.7871,62.4297,154.754,100.633,99.2403,0.00162381,0.32094,20.6217,117.162,0.127662,0.0,0.0
1092,272.75,57.9792,62.0896,156.053,100.617,99.2295,0.00154844,0.320371,20.6217,116.862,0.127265,0.0,0.0
1099,274.5,58.5087,62.1774,152.423,100.619,99.2367,0.00149754,0.319711,20.6218,116.692,0.126746,0.0,0.0
1106,276.25,58.3957,61.9853,153.812,100.631,99.2919,0.00150072,0.320402,20.6225,116.592,0.122783,0.0,0.0
1113,278,58.4611,61.7433,157.792,100.627,99.0461,0.00163033,0.321533,20.622,116.392,0.145132,0.0,0.0
1120,279.75,58.8842,61.8559,154.063,100.617,99.0316,0.0017399,0.321706,20.6214,116.171,0.145549,0.0,0.0
1127,281.5,58.965,61.7603,151.594,100.624,99.3184,0.00175242,0.321864,20.6211,115.991,0.119684,0.0,0.0
1134,283.25,58.3288,61.8508,152.122,100.64,99.3356,0.00167723,0.321597,20.6209,115.861,0.119489,0.0,0.0
1141,285,58.7154,61.9622,153.347,100.635,99.4209,0.00150103,0.322002,20.6209,115.631,0.111259,0.0,0.0
1148,286.75,58.6811,61.8413,150.43,100.637,98.8791,0.00130444,0.322256,20.6213,115.401,0.161437,0.0,0.0
1155,288.5,58.8572,62.0568,153.387,100.632,99.2631,0.00121536,0.321631,20.6211,115.251,0.125517,0.0,0.0
1162,290.25,58.792,61.5329,150.647,100.64,99.3187,0.00128839,0.321073,20.6207,115.08,0.121041,0.0,0.0
1169,292,58.4628,62.117,153.148,100.652,99.344,0.00147117,0.321068,20.6212,114.9,0.119888,0.0,0.0
1176,293.75,58.6051,61.9165,158.667,100.65,99.145,0.00162845,0.321248,20.6219,114.75,0.138078,0.0,0.0
1183,295.5,58.7876,61.8122,150.352,100.642,99.4068,0.00167281,0.321471,20.6215,114.54,0.113138,0.0,0.0
1190,297.25,58.6587,61.9113,151.706,100.644,99.0677,0.00165314,0.321262,20.6209,114.37,0.144637,0.0,0.0
1197,299,58.7506,61.4946,155.263,100.661,99.2499,0.00163129,0.321091,20.6206,114.19,0.129341,0.0,0.0
1204,300.75,58.3786,61.6341,150.926,100.65,99.1506,0.00173348,0.320852,20.6209,114.01,0.137561,0.0,0.0
1211,302.5,58.8419,61.7255,152.078,100.641,99.4921,0.00187857,0.320849,20.6218,113.789,0.105206,0.0,0.0
1218,304.25,58.7903,62.0017,150.313,100.629,99.3348,0.00194176,0.321024,20.6223,113.599,0.11861,0.0,0.0
1225,306,58.8327,61.5046,151.716,100.615,99.2058,0.00190007,0.322163,20.6215,113.449,0.129264,0.0,0.0
1232,307.75,58.815,62.2291,153.924,100.614,99.1361,0.00182929,0.322635,20.6209,113.299,0.135591,0.0,0.0
1239,309.5,58.9408,62.0094,148.814,100.589,99.3436,0.0017679,0.323085,20.6206,113.089,0.114128,0.0,0.0
1246,311.25,58.8875,61.9693,149.388,100.548,98.9067,0.00175934,0.323622,20.6194,112.849,0.15084,0.0,0.0
1253,313,59.2909,62.4297,152.113,100.522,99.2755,0.00178418,0.323695,20.619,112.718,0.114316,0.0,0.0
1260,314.75,59.5809,62.0273,151.375,100.499,98.9163,0.00178322,0.323476,20.6189,112.578,0.145398,0.0,0.0
1267,316.5,58.8595,62.0384,150.314,100.447,98.9467,0.00171901,0.323561,20.6188,112.388,0.137876,0.0,0.0
1274,318.25,59.144,61.9876,151.495,100.386,98.6913,0.00166183,0.323931,20.6187,112.198,0.155977,0.0,0.0
1281,320,59.0766,61.9687,149.043,100.319,98.5928,0.00166905,0.324672,20.6179,111.998,0.159058,0.0,0.0
1288,321.75,58.8445,62.5039,156.379,100.256,99.0236,0.00171451,0.324117,20.6177,111.878,0.113324,0.0,0.0
1295,323.5,59.5686,62.1839,156.784,100.201,98.7041,0.00168699,0.322971,20.6182,111.687,0.137895,0.0,0.0
1302,325.25,58.8636,62.1175,151.16,100.125,98.5231,0.00162999,0.322958,20.6185,111.487,0.147821,0.0,0.0
1309,327,59.1389,61.8134,152.625,100.036,98.3413,0.00165012,0.32347,20.6184,111.257,0.156519,0.0,0.0
1316,328.75,59.3793,62.0197,150.56,99.9683,98.5411,0.00173675,0.323578,20.6181,111.077,0.131756,0.0,0.0
1323,330.5,59.3283,61.9732,154.489,99.8821,98.4262,0.00179843,0.324044,20.618,110.927,0.134543,0.0,0.0
1330,332.25,58.8739,61.9013,156.94,99.814,98.1603,0.00181349,0.324183,20.6179,110.737,0.153081,0.0,0.0
1337,334,58.9811,61.9922,154.439,99.717,98.1286,0.00180042,0.324429,20.6179,110.546,0.147118,0.0,0.0
1344,335.75,58.9825,62.1319,152.932,99.6219,98.2996,0.00177529,0.324838,20.618,110.356,0.122426,0.0,0.0
1351,337.5,58.3427,61.5307,152.619,99.5373,97.8547,0.00176819,0.324846,20.618,110.186,0.156204,0.0,0.0
1358,339.25,59.1302,62.0708,153.199,99.4446,97.6561,0.00178107,0.324867,20.618,110.026,0.166287,0.0,0.0
1365,341,58.7674,61.7684,150.963,99.3681,97.7218,0.00170325,0.324457,20.618,109.866,0.153073,0.0,0.0
1372,342.75,59.1993,62.3161,153.005,99.2674,97.6549,0.00160958,0.32392,20.6183,109.656,0.150054,0.0,0.0
1379,344.5,59.2709,61.6631,150.33,99.2037,97.7875,0.00161596,0.32528,20.6194,109.496,0.13175,0.0,0.0
1386,346.25,59.5418,62.2909,155.74,99.1244,97.341,0.00165715,0.326643,20.6196,109.365,0.166347,0.0,0.0
1393,348,59.0187,62.2341,151.467,99.0611,97.4443,0.00165985,0.326792,20.618,109.125,0.15078,0.0,0.0
1400,349.75,59.2513,62.3592,154.398,98.9926,97.4359,0.00166496,0.326707,20.6172,108.945,0.145233,0.0,0.0
1407,351.5,59.374,62.1011,153.967,98.9193,97.0583,0.0016358,0.326773,20.6169,108.715,0.174024,0.0,0.0
1414,353.25,59.7736,62.4475,150.529,98.8891,97.5564,0.00157466,0.327478,20.6167,108.635,0.124319,0.0,0.0
1421,355,59.1025,62.0166,150.965,98.8411,97.1924,0.00157132,0.328455,20.6167,108.415,0.154126,0.0,0.0
1428,356.75,59.2227,62.5055,148.443,98.8053,97.2477,0.0015852,0.329339,20.6157,108.194,0.145595,0.0,0.0
1435,358.5,59.1568,62.2809,150.707,98.7916,96.7852,0.00154902,0.329991,20.614,107.994,0.188004,0.0,0.0
1442,360.25,59.3826,62.4404,154.515,98.7968,97.186,0.00143873,0.330036,20.6132,107.864,0.150622,0.0,0.0
1449,362,58.9886,62.2934,153.681,98.8379,97.1656,0.00129196,0.329806,20.6128,107.664,0.156358,0.0,0.0
1456,363.75,59.6291,61.8578,150.112,98.8774,97.3402,0.0012713,0.329295,20.6126,107.494,0.143567,0.0,0.0
1463,365.5,59.5083,62.3808,154.345,98.9209,97.2865,0.00144093,0.32945,20.6125,107.234,0.152651,0.0,0.0
1470,367.25,59.4207,62.1405,158.279,98.9874,97.2605,0.00172567,0.330355,20.6125,107.093,0.161257,0.0,0.0
1477,369,59.3283,62.7064,149.296,99.0909,97.4279,0.00185569,0.331731,20.6115,106.983,0.15508,0.0,0.0
1484,370.75,59.6536,62.3364,154.544,99.1755,97.1744,0.00185325,0.333297,20.6096,106.763,0.186769,0.0,0.0
1491,372.5,59.1087,62.5823,149.359,99.2597,97.0711,0.00177034,0.334529,20.6086,106.523,0.20429,0.0,0.0
1498,374.25,59.522,62.6398,152.48,99.3641,97.6429,0.00170813,0.335844,20.607,106.393,0.1601,0.0,0.0
1505,376,59.9428,62.4651,152.429,99.4861,97.21,0.00169164,0.336907,20.6051,106.243,0.21206,0.0,0.0
1512,377.75,59.2606,62.5638,148.128,99.6026,97.3494,0.00163769,0.337288,20.6041,106.053,0.209651,0.0,0.0
1519,379.5,59.931,61.8817,150.799,99.7125,97.6629,0.001547,0.337377,20.6027,105.832,0.190299,0.0,0.0
1526,381.25,59.8459,62.3317,148.615,99.7955,97.7775,0.00147591,0.336891,20.6025,105.602,0.187184,0.0,0.0
1533,383,59.5678,62.7811,151.023,99.8628,97.737,0.0015214,0.336786,20.6034,105.442,0.197149,0.0,0.0
1540,384.75,59.9265,62.252,150.883,99.9478,97.88,0.00161401,0.336977,20.6042,105.292,0.191553,0.0,0.0
1547,386.5,59.556,62.4329,148.446,99.9865,98.0802,0.0017172,0.337433,20.6054,105.092,0.176374,0.0,0.0
1554,388.25,59.9609,62.9931,152.51,100,97.6285,0.0017949,0.337687,20.6058,104.872,0.219923,0.0,0.0
1561,390,59.578,62.966,152.058,100.015,98.4562,0.0018297,0.33928,20.6049,104.701,0.143972,0.0,0.0
1568,391.75,59.5121,62.9708,149.797,100.026,97.8872,0.00186429,0.34027,20.6039,104.561,0.198003,0.0,0.0
1575,393.5,60.0333,62.4484,149.437,100.005,97.928,0.00191187,0.340956,20.6029,104.361,0.192261,0.0,0.0
1582,395.25,60.087,62.8399,149.021,99.9353,97.8603,0.0019125,0.342016,20.6013,104.151,0.192245,0.0,0.0
1589,397,60.0918,62.9299,149.336,99.8644,97.5468,0.00183496,0.342468,20.6002,103.961,0.215146,0.0,0.0
1596,398.75,59.7783,62.9855,149.659,99.7661,97.6033,0.00170432,0.343332,20.5987,103.831,0.200821,0.0,0.0
1603,400.5,60.5053,62.7525,149.869,99.6791,97.4487,0.00162193,0.344468,20.5979,103.65,0.207347,0.0,0.0
1610,402.25,60.3628,62.6483,151.683,99.5631,97.4371,0.00163688,0.34568,20.5973,103.47,0.197769,0.0,0.0
1617,404,60.1445,63.0515,155.491,99.4761,97.393,0.00169449,0.345306,20.5966,103.26,0.1939,0.0,0.0
1624,405.75,60.3086,63.0772,149.068,99.4289,97.1115,0.00180015,0.345503,20.5955,103.08,0.21608,0.0,0.0
1631,407.5,60.3743,62.6847,147.699,99.3814,97.2449,0.00193196,0.345254,20.5947,102.91,0.199125,0.0,0.0
1638,409.25,60.2635,63.2542,153.155,99.5361,97.1003,0.00209312,0.345055,20.5943,102.73,0.227007,0.0,0.0
1645,411,60.3287,63.002,151.874,99.75,97.4207,0.00219385,0.345436,20.5941,102.489,0.216499,0.0,0.0
1652,412.75,60.6078,62.7873,152.443,99.9361,97.7274,0.00220029,0.345477,20.594,102.319,0.204775,0.0,0.0
1659,414.5,59.865,63.0677,149.779,100.069,97.5564,0.00215442,0.345627,20.594,102.189,0.233038,0.0,0.0
1666,416.25,60.504,63.4489,151.996,100.174,97.2733,0.00207941,0.346469,20.594,101.999,0.269215,0.0,0.0
1673,418,60.3974,63.2057,148.908,100.205,97.6829,0.00200828,0.348286,20.594,101.809,0.233547,0.0,0.0
1680,419.75,60.8559,63.138,152.603,100.164,98.0834,0.00198051,0.349039,20.5928,101.609,0.192304,0.0,0.0
1687,421.5,60.3904,63.5939,151.524,100.084,97.8139,0.00199669,0.349463,20.5922,101.439,0.210251,0.0,0.0
1694,423.25,60.7257,63.243,151.435,99.9268,97.5652,0.00211614,0.350118,20.5908,101.258,0.219143,0.0,0.0
1701,425,60.4933,63.3266,148.574,99.7415,97.2401,0.00215913,0.350702,20.59,101.088,0.232722,0.0,0.0
1708,426.75,60.2154,62.9813,153.85,99.8427,97.6149,0.00213534,0.351101,20.5887,100.878,0.206757,0.0,0.0
1715,428.5,60.9296,63.504,149.834,99.9559,97.574,0.00207554,0.351284,20.5875,100.648,0.220975,0.0,0.0
1722,430.25,60.3697,63.3881,152.794,100.1,97.4303,0.00200818,0.351968,20.5869,100.538,0.247732,0.0,0.0
1729,432,61.025,63.2762,154.425,100.237,96.8817,0.00199487,0.353374,20.5866,100.348,0.311924,0.0,0.0
1736,433.75,60.8259,63.2637,148.764,100.374,97.403,0.00204269,0.354183,20.5849,100.127,0.275334,0.0,0.0
1743,435.5,60.2804,63.287,153.022,100.484,97.7823,0.00207656,0.354053,20.5834,99.9372,0.249765,0.0,0.0
1750,437.25,60.6845,63.3457,155.709,100.577,97.9841,0.00203847,0.353287,20.5826,99.8271,0.239281,0.0,0.0
1757,439,60.7397,63.8503,144.779,100.621,97.699,0.0019795,0.353247,20.5822,99.647,0.270053,0.0,0.0
1764,440.75,61.0316,63.9216,152.98,100.619,98.2039,0.00194999,0.353966,20.582,99.4068,0.222562,0.0,0.0
1771,442.5,61.0012,64.0205,149.63,100.55,97.3826,0.00195309,0.355923,20.5819,99.1966,0.293237,0.0,0.0
1778,444.25,60.8779,64.2086,145.527,100.45,97.2749,0.00198086,0.357946,20.5818,99.0364,0.29427,0.0,0.0
1785,446,60.7443,64.0942,154.483,100.325,97.2949,0.00199458,0.359083,20.5796,98.8963,0.281022,0.0,0.0
1792,447.75,61.2914,64.0769,149.466,100.14,96.8933,0.00197551,0.360347,20.5774,98.7262,0.301948,0.0,0.0
1799,449.5,60.899,63.9096,148.569,99.9099,96.4836,0.00195202,0.361411,20.5761,98.506,0.319733,0.0,0.0
1806,451.25,61.0298,64.2972,154.515,99.6557,96.4416,0.00188802,0.361683,20.5761,98.2558,0.300385,0.0,0.0
1813,453,61.2398,63.9608,153.315,99.4301,96.4956,0.00182504,0.36133,20.5761,98.1156,0.274485,0.0,0.0
1820,454.75,61.4311,63.9654,150.924,99.2331,95.9606,0.00181877,0.361862,20.5753,97.9055,0.307253,0.0,0.0
1827,456.5,61.256,63.8183,150.471,99.0277,96.0059,0.00185813,0.362978,20.5745,97.7353,0.283943,0.0,0.0
1834,458.25,61.7219,64.2574,149.034,98.8774,95.5722,0.00193987,0.365903,20.5742,97.5051,0.311511,0.0,0.0
1841,460,61.3765,64.4204,153.94,98.815,95.04,0.0019969,0.369145,20.5716,97.335,0.356887,0.0,0.0
1848,461.75,61.6494,64.5976,152.162,98.8101,95.4645,0.00201836,0.37123,20.5677,97.1548,0.315608,0.0,0.0
1855,463.5,61.5217,64.097,159.597,98.8581,95.2847,0.00204328,0.371466,20.5649,96.9947,0.337326,0.0,0.0
1862,465.25,61.1943,64.3747,146.942,99.0031,95.4921,0.00209013,0.371097,20.5635,96.6944,0.330832,0.0,0.0
1869,467,61.4025,64.2966,150.155,99.1312,95.5122,0.0021292,0.371937,20.5629,96.5243,0.340761,0.0,0.0
1876,468.75,61.999,64.5402,147.634,99.3173,95.5558,0.00211401,0.373812,20.5614,96.3741,0.353761,0.0,0.0
1883,470.5,61.1439,64.2815,149.598,99.4966,95.9414,0.00214421,0.374669,20.5597,96.174,0.333383,0.0,0.0
1890,472.25,61.743,64.954,158.391,99.6569,96.247,0.0022396,0.376236,20.5577,95.9437,0.319003,0.0,0.0
1897,474,61.9119,64.4485,152.893,99.7891,96.1749,0.00232904,0.378112,20.5558,95.7035,0.338009,0.0,0.0
1904,475.75,61.75,65.071,152.277,99.9103,96.2762,0.0023616,0.380755,20.5537,95.4934,0.339489,0.0,0.0
1911,477.5,61.9235,65.049,150.701,99.9998,96.4228,0.00239438,0.382972,20.5509,95.3632,0.33375,0.0,0.0
1918,479.25,62.5173,65.0903,150.884,100.026,95.9995,0.00247589,0.384506,20.548,95.1431,0.376458,0.0,0.0
1925,481,62.5972,65.2729,154.684,100.002,95.2326,0.00247691,0.38523,20.5459,94.8928,0.447764,0.0,0.0
1932,482.75,62.401,65.3764,145.692,99.9337,96.1441,0.00236203,0.386799,20.5442,94.6927,0.354217,0.0,0.0
1939,484.5,62.5602,65.4753,144.294,99.8459,95.4613,0.00222398,0.389216,20.5433,94.5025,0.41146,0.0,0.0
1946,486.25,62.269,65.7803,148.812,99.6996,95.0192,0.00208382,0.393634,20.5414,94.3023,0.44056,0.0,0.0
1953,488,62.7869,65.7943,154.439,99.5369,94.9259,0.00203343,0.396645,20.5376,94.0721,0.434593,0.0,0.0
1960,489.75,62.5998,65.3973,147.064,99.4156,94.6892,0.00203358,0.397522,20.5335,93.882,0.446294,0.0,0.0
1967,491.5,63.1632,65.476,148.689,99.3536,94.286,0.00206894,0.397909,20.531,93.6918,0.479678,0.0,0.0
1974,493.25,62.9835,65.6575,147.432,99.5365,94.6452,0.00222315,0.398934,20.5298,93.4816,0.46169,0.0,0.0
1981,495,63.5148,65.9991,150.5,99.8116,95.2759,0.00237254,0.399976,20.5292,93.2514,0.426129,0.0,0.0
1988,496.75,63.4998,65.9635,150.262,100.002,95.1466,0.00239089,0.401518,20.5276,92.9611,0.456014,0.0,0.0
1995,498.5,63.0621,66.1441,143.459,100.141,95.3872,0.00235061,0.404679,20.526,92.801,0.445631,0.0,0.0
2002,500.25,63.5039,66.3889,147.63,100.156,94.9495,0.00237064,0.407765,20.5238,92.6108,0.489133,0.0,0.0
2009,502,63.3449,65.8848,148.157,100.065,94.7017,0.00245989,0.410858,20.5199,92.3806,0.504714,0.0,0.0
2016,503.75,63.7925,66.4953,149.241,99.87,94.7954,0.0025444,0.411337,20.5151,92.1404,0.477818,0.0,0.0
2023,505.5,63.7059,66.7549,154.91,99.7246,95.2699,0.00256723,0.412375,20.5117,91.9302,0.418716,0.0,0.0
2030,507.25,63.9874,66.5007,148.382,99.8729,94.827,0.00247072,0.415215,20.5101,91.7401,0.47502,0.0,0.0
2037,509,63.7685,66.9789,147.438,100.025,94.2604,0.00236821,0.417236,20.5078,91.5399,0.543893,0.0,0.0
2044,510.75,63.9603,66.999,150.818,100.199,94.9003,0.00234235,0.418662,20.5053,91.3197,0.49783,0.0,0.0
2051,512.5,63.86,66.8444,151.333,100.337,95.185,0.00232919,0.419215,20.5038,91.0595,0.482973,0.0,0.0
2058,514.25,64.3026,67.6213,151.69,100.473,95.2294,0.00230003,0.419223,20.503,90.8493,0.491084,0.0,0.0
2065,516,64.2273,66.849,146.29,100.556,94.5611,0.002272,0.41945,20.5026,90.6792,0.563179,0.0,0.0
2072,517.75,64.4112,67.0064,155.087,100.586,94.7101,0.00226708,0.419887,20.5016,90.469,0.551546,0.0,0.0
2079,519.5,64.53,67.1427,148.034,100.554,94.7553,0.00226602,0.420338,20.4996,90.2087,0.544196,0.0,0.0
2086,521.25,64.4971,67.5133,148.199,100.485,95.0328,0.00227762,0.420653,20.498,89.9785,0.511122,0.0,0.0
2093,523,64.6994,67.425,152.125,100.356,94.9872,0.00227637,0.420722,20.4966,89.8284,0.503763,0.0,0.0
2100,524.75,64.7889,67.3971,146.719,100.151,94.0285,0.00230059,0.421008,20.496,89.6082,0.577964,0.0,0.0
2107,526.5,64.6991,67.702,151.437,99.9047,93.8655,0.00238166,0.421408,20.4957,89.398,0.571312,0.0,0.0
2114,528.25,64.7642,67.6527,146.846,99.6465,93.3654,0.00245922,0.422348,20.496,89.1078,0.59655,0.0,0.0
2121,530,64.8125,67.789,148.616,99.4233,92.8929,0.00247126,0.423164,20.4952,88.9677,0.622496,0.0,0.0
2128,531.75,64.5715,68.0016,151.789,99.2198,93.2553,0.00249082,0.423999,20.4945,88.7174,0.568051,0.0,0.0
2135,533.5,64.5361,67.7752,148.463,99.0402,93.0506,0.00252101,0.424457,20.493,88.5573,0.571572,0.0,0.0
2142,535.25,64.9961,68.1368,148.913,98.9072,92.6458,0.00253783,0.422652,20.4923,88.2671,0.599216,0.0,0.0
2149,537,65.037,67.7844,145.444,98.815,92.6442,0.00257222,0.419753,20.4919,88.0769,0.590823,0.0,0.0
2156,538.75,64.8509,67.4604,150.555,98.8033,93.3345,0.00262074,0.417642,20.4935,87.9167,0.521717,0.0,0.0
2163,540.5,64.7119,67.7646,149.095,98.8593,92.6862,0.00269659,0.415852,20.4945,87.7266,0.590774,0.0,0.0
2170,542.25,64.8261,67.7996,152.039,98.9419,93.3374,0.00278702,0.413751,20.496,87.5164,0.534284,0.0,0.0
2177,544,65.056,67.9839,147.409,99.0821,93.2965,0.00287859,0.412201,20.497,87.3362,0.551268,0.0,0.0
2184,545.75,64.7818,67.6541,149.067,99.2678,94.1555,0.00300009,0.41033,20.4982,87.2462,0.484456,0.0,0.0
2191,547.5,65.1062,67.7847,153.057,99.4358,94.1426,0.00311117,0.407267,20.4999,87.066,0.501196,0.0,0.0
2198,549.25,65.0184,68.3718,152.219,99.615,94.4073,0.00319943,0.402914,20.5024,86.8758,0.491975,0.0,0.0
2205,551,64.6966,67.6423,150.371,99.7649,94.8386,0.00318784,0.397466,20.5064,86.6556,0.463987,0.0,0.0
2212,552.75,64.2988,67.6674,152.919,99.9011,94.7325,0.00307337,0.391392,20.5118,86.5355,0.486742,0.0,0.0
2219,554.5,64.0761,67.6576,148.008,99.9828,95.3632,0.00289408,0.38496,20.5185,86.4254,0.433442,0.0,0.0
2226,556.25,64.1684,67.2275,153.183,100.022,95.5558,0.00270037,0.378312,20.526,86.2253,0.418497,0.0,0.0
2233,558,64.0865,67.3335,156.076,100,95.1774,0.00260171,0.371937,20.5322,86.0651,0.452898,0.0,0.0
2240,559.75,64.053,67.4629,148.698,99.9277,95.4945,0.00258195,0.365957,20.5392,85.925,0.415771,0.0,0.0
2247,561.5,63.5136,66.8256,151.632,99.8435,95.2134,0.00259266,0.359649,20.546,85.8249,0.435059,0.0,0.0
2254,563.25,62.9993,66.4583,156.649,99.7226,95.9879,0.00261841,0.351559,20.5532,85.7348,0.349737,0.0,0.0
2261,565,63.0125,66.4952,154.991,99.5538,96.2554,0.00257908,0.342177,20.5595,85.5947,0.308716,0.0,0.0
2268,566.75,62.9444,66.2496,160.083,99.4213,96.4716,0.00236863,0.331847,20.5717,85.4446,0.27595,0.0,0.0
2275,568.5,62.3417,65.4123,162.18,99.3487,96.9954,0.00220119,0.320756,20.5837,85.4346,0.219652,0.0,0.0
2282,570.25,62.2442,65.7248,159.076,99.3987,97.4403,0.00210431,0.308245,20.594,85.3345,0.182329,0.0,0.0
2289,572,61.6413,64.7069,159.082,99.5881,97.9492,0.00202488,0.294553,20.6089,85.2644,0.152032,0.0,0.0
2296,573.75,60.9795,64.4217,156.371,99.8104,97.8892,0.00187917,0.279918,20.6271,85.1643,0.178088,0.0,0.0
2303,575.5,60.5901,63.9518,157.808,99.9732,98.6068,0.00177479,0.263557,20.6421,85.1543,0.126095,0.0,0.0
2310,577.25,60.13,63.4776,159.987,100.079,98.781,0.00176216,0.244204,20.6592,85.1643,0.119628,0.0,0.0
2317,579,59.4955,63.0893,161.147,100.106,98.8979,0.00182003,0.226809,20.6822,85.1243,0.11126,0.0,0.0
2324,580.75,58.9046,62.7254,159.048,100.055,98.9063,0.00184069,0.209479,20.7041,85.0142,0.105798,0.0,0.0
2331,582.5,58.9146,61.8112,158.909,99.9438,98.8747,0.00187317,0.195762,20.7245,84.9642,0.0985401,0.0,0.0
2338,584.25,58.0336,60.9914,163.072,99.7911,98.6616,0.00192592,0.182084,20.7412,85.0042,0.104294,0.0,0.0
2345,586,57.8954,60.9049,162.74,99.6968,98.7693,0.00195349,0.170525,20.7578,84.9742,0.0856376,0.0,0.0
2352,587.75,57.0089,60.1754,161.497,99.7911,98.7721,0.00200628,0.159635,20.7719,84.9141,0.0940373,0.0,0.0
2359,589.5,56.7281,59.8465,162.212,99.9095,99.0148,0.00209716,0.150796,20.7849,84.814,0.0824222,0.0,0.0
2366,591.25,55.471,59.5871,158.833,100.061,99.0256,0.00218896,0.143355,20.7968,84.814,0.0952654,0.0,0.0
2373,593,55.8109,58.7658,161.443,100.221,99.2367,0.00234713,0.138536,20.8079,84.8641,0.0904301,0.0,0.0
2380,594.75,55.1073,58.5046,164.314,100.351,99.3864,0.00259841,0.13436,20.8161,84.8641,0.0884636,0.0,0.0
2387,596.5,54.4178,57.6044,163.02,100.457,99.5174,0.00287839,0.131399,20.8226,84.744,0.0861062,0.0,0.0
2394,598.25,54.4977,57.4839,167.747,100.529,99.6603,0.0030712,0.129077,20.8284,84.6839,0.0795283,0.0,0.0
2401,600,53.7273,56.8105,166.393,100.562,99.5194,0.0031819,0.12643,20.8329,84.774,0.0954707,0.0,0.0
2408,601.75,53.3083,57.124,160.771,100.528,99.5018,0.00326224,0.124093,20.8355,84.744,0.0939725,0.0,0.0
2415,603.5,52.8396,55.8207,169.844,100.436,99.3256,0.00338649,0.122223,20.8386,84.6139,0.10191,0.0,0.0
2422,605.25,52.5413,56.2526,161.947,100.295,99.2803,0.00359398,0.121054,20.841,84.6139,0.0931756,0.0,0.0
2429,607,51.9215,54.7712,159.825,100.126,99.2066,0.00377951,0.119617,20.843,84.6639,0.0845447,0.0,0.0
2436,608.75,52.1353,55.0045,161.35,99.9422,98.8274,0.00383279,0.118149,20.8442,84.6539,0.102773,0.0,0.0
2443,610.5,51.3944,54.412,163.752,99.727,98.6873,0.00381846,0.117045,20.8456,84.6239,0.0960317,0.0,0.0
2450,612.25,50.7857,54.7455,159.476,99.4998,98.4962,0.00383228,0.116437,20.8473,84.5238,0.0928848,0.0,0.0
2457,614,50.8848,53.2909,162.662,99.2795,98.2324,0.00391625,0.115916,20.8482,84.5038,0.0971504,0.0,0.0
2464,615.75,50.4599,53.5325,166.211,99.1223,97.9869,0.00400714,0.115647,20.849,84.5438,0.105563,0.0,0.0
2471,617.5,50.664,52.7167,163.559,98.9701,98.0085,0.00413253,0.11502,20.8502,84.5238,0.0894545,0.0,0.0
2478,619.25,49.7166,53.2008,162.782,98.8685,97.7378,0.00422777,0.114363,20.8508,84.3837,0.105394,0.0,0.0
2485,621,49.8228,52.4199,163.814,98.8275,97.7955,0.00425732,0.113633,20.8513,84.3837,0.0961798,0.0,0.0
2492,622.75,49.2164,52.3741,166.637,98.8222,97.7831,0.00428009,0.113035,20.8524,84.4437,0.0968575,0.0,0.0
2499,624.5,49.0326,51.6413,166.559,98.8786,97.7747,0.00436925,0.112443,20.8526,84.4537,0.102873,0.0,0.0
2506,626.25,48.565,51.142,163.792,98.962,97.894,0.00451205,0.112028,20.8539,84.4037,0.0994218,0.0,0.0
2513,628,48.2899,50.603,161.518,99.08,98.0886,0.00461334,0.111703,20.8545,84.3336,0.0921474,0.0,0.0
2520,629.75,48.229,50.9146,157.295,99.213,98.1254,0.00466771,0.111184,20.8548,84.2736,0.100993,0.0,0.0
2527,631.5,47.4263,49.8938,164.287,99.3818,98.2932,0.00468648,0.11045,20.8559,84.3636,0.100914,0.0,0.0
2534,633.25,47.2012,49.8597,160.992,99.4962,98.3625,0.00473388,0.109749,20.8568,84.3536,0.105001,0.0,0.0
2541,635,47.2523,49.2499,160.08,99.6203,98.5731,0.00479567,0.109584,20.8576,84.2335,0.0968207,0.0,0.0
2548,636.75,46.6101,49.0998,164.113,99.7299,98.6901,0.00480621,0.110049,20.8579,84.2435,0.0960307,0.0,0.0
2555,638.5,46.6749,48.7498,167.187,99.8322,98.7657,0.00478472,0.110902,20.8581,84.3036,0.0984029,0.0,0.0
2562,640.25,46.9612,49.0495,159.185,99.8918,98.8382,0.00485556,0.111841,20.8571,84.2636,0.0971525,0.0,0.0
2569,642,45.9229,48.1558,160.67,99.9599,98.8771,0.00503646,0.111801,20.8565,84.1635,0.0997945,0.0,0.0
2576,643.75,46.1579,48.0622,164.378,99.9913,99.038,0.00521274,0.111518,20.8562,84.1334,0.0877702,0.0,0.0
2583,645.5,46.2937,47.7865,161.44,100.026,98.8979,0.00531096,0.111522,20.8561,84.1735,0.10392,0.0,0.0
2590,647.25,45.829,47.6318,167.176,100.025,98.9223,0.00535316,0.111672,20.856,84.1935,0.101582,0.0,0.0
2597,649,46.0579,47.1704,167.266,100.007,98.8775,0.00544941,0.11161,20.856,84.1635,0.10404,0.0,0.0
2604,650.75,45.0314,46.7843,165.232,99.9897,98.8687,0.00562557,0.11152,20.856,84.0634,0.103306,0.0,0.0
2611,652.5,45.4001,47.0124,164.043,99.9603,99.0072,0.00578301,0.111541,20.856,84.0334,0.0877799,0.0,0.0
2618,654.25,45.3032,46.8327,165.427,99.9389,98.9103,0.00584626,0.11133,20.8569,84.0934,0.0947951,0.0,0.0
2625,656,44.9033,46.2643,162.866,99.8825,98.8086,0.00591473,0.110787,20.8577,84.0634,0.0990501,0.0,0.0
2632,657.75,44.7742,46.4021,163.007,99.8431,98.8618,0.0060288,0.110493,20.8582,83.9833,0.0904895,0.0,0.0
2639,659.5,44.1004,46.3323,164.987,99.7818,98.8759,0.00609135,0.110592,20.8584,83.9533,0.0835695,0.0,0.0
2646,661.25,44.2324,46.27,161.145,99.7367,98.6456,0.00609903,0.110328,20.8585,84.0133,0.100787,0.0,0.0
2653,663,43.9712,45.6075,163.572,99.6972,98.6568,0.00610276,0.109695,20.8586,84.0133,0.0961182,0.0,0.0
2660,664.75,44.1321,45.7964,165.728,99.6449,98.5823,0.00607922,0.109018,20.859,83.9533,0.0982246,0.0,0.0
2667,666.5,43.9547,45.293,162.322,99.58,98.6821,0.00604472,0.108417,20.86,83.8532,0.0829959,0.0,0.0
2674,668.25,43.5727,45.5639,163.804,99.5147,98.4366,0.00611621,0.107903,20.8617,83.8232,0.0998086,0.0,0.0
2681,670,43.6925,44.9494,163.964,99.4902,98.4442,0.00637918,0.107864,20.8625,83.8932,0.096838,0.0,0.0
2688,671.75,43.6086,44.7306,160.306,99.4434,98.4618,0.00662254,0.107847,20.8623,83.8732,0.0908929,0.0,0.0
2695,673.5,43.5087,44.9394,159.867,99.4072,98.2752,0.00669071,0.107871,20.8616,83.7531,0.104934,0.0,0.0
2702,675.25,43.1898,44.4962,165.806,99.3846,98.4001,0.00655771,0.107543,20.8613,83.7231,0.0912131,0.0,0.0
2709,677,42.9628,44.0706,158.227,99.358,98.3785,0.0064442,0.107351,20.8622,83.8032,0.0907751,0.0,0.0
2716,678.75,43.0249,44.4783,163.632,99.3604,98.3957,0.00645064,0.107519,20.8627,83.7931,0.0893939,0.0,0.0
2723,680.5,42.9802,44.1326,165.046,99.331,98.2107,0.00652426,0.108208,20.863,83.6931,0.103925,0.0,0.0
2730,682.25,42.6336,44.0074,162.898,99.3234,98.2356,0.00659464,0.108532,20.8627,83.663,0.100903,0.0,0.0
2737,684,42.9183,43.6579,164.97,99.3117,98.1623,0.00666002,0.108194,20.8608,83.7231,0.106663,0.0,0.0
2744,685.75,42.7911,43.6733,162.765,99.3214,98.2604,0.00670381,0.107656,20.8597,83.7031,0.0984029,0.0,0.0
2751,687.5,42.9068,43.8128,164.92,99.3149,98.3913,0.00665376,0.107517,20.8591,83.673,0.0856063,0.0,0.0
2758,689.25,42.2677,43.4266,164.46,99.2988,98.2123,0.00663596,0.107561,20.8601,83.583,0.100803,0.0,0.0
2765,691,42.0644,43.1507,163.983,99.3214,98.2404,0.0067846,0.107477,20.8605,83.573,0.10027,0.0,0.0
2772,692.75,42.4301,43.5161,157.993,99.302,98.2884,0.00686995,0.107091,20.8607,83.643,0.0940049,0.0,0.0
2779,694.5,42.1596,42.9323,161.658,99.3064,98.2912,0.00684903,0.106969,20.8608,83.623,0.0941519,0.0,0.0
2786,696.25,41.941,43.4537,165.929,99.2956,98.2167,0.0068066,0.107385,20.8609,83.5529,0.100094,0.0,0.0
2793,698,42.1123,42.7677,165.341,99.2952,98.2736,0.00674252,0.107589,20.8609,83.5029,0.0947541,0.0,0.0
2800,699.75,42.0742,42.8381,163.5,99.3177,98.3433,0.00668015,0.107183,20.8617,83.583,0.0903414,0.0,0.0
2807,701.5,42.1149,42.9947,163.867,99.3133,98.2352,0.00664841,0.106933,20.8625,83.573,0.100012,0.0,0.0
2814,703.25,41.1376,42.5711,162.016,99.3157,98.3837,0.00661219,0.106539,20.8627,83.5529,0.0863886,0.0,0.0
2821,705,41.9081,42.6231,163.891,99.3173,98.4114,0.00653115,0.106166,20.8637,83.4428,0.0839646,0.0,0.0
2828,706.75,41.3334,42.0784,164.086,99.3346,98.2504,0.0064761,0.106256,20.8643,83.4428,0.100562,0.0,0.0
2835,708.5,41.4061,42.3904,163.02,99.3359,98.3193,0.00651431,0.105966,20.8646,83.5229,0.0942525,0.0,0.0
2842,710.25,41.364,41.9976,165.17,99.3355,98.2996,0.0066564,0.105476,20.8637,83.4829,0.0960447,0.0,0.0
2849,712,41.4045,42.0678,165.931,99.3234,98.1515,0.00686566,0.105526,20.8631,83.3528,0.10875,0.0,0.0
2856,713.75,40.9974,41.5387,167.182,99.3266,98.3385,0.00707376,0.105918,20.8628,83.3428,0.0916067,0.0,0.0
2863,715.5,41.1509,41.911,165.419,99.3343,98.306,0.00727022,0.106781,20.8627,83.4028,0.0953356,0.0,0.0
2870,717.25,41.0274,41.3621,164.995,99.3524,98.4518,0.00745694,0.10739,20.8627,83.4028,0.0834321,0.0,0.0
2877,719,40.6372,41.7858,168.543,99.3407,98.5807,0.00764088,0.107337,20.8626,83.3628,0.0703631,0.0,0.0
2884,720.75,40.4772,41.5501,162.137,99.3403,98.4678,0.00774143,0.106736,20.8626,83.2627,0.0808276,0.0,0.0
2891,722.5,40.7962,41.3333,164.005,99.3661,98.3329,0.00768519,0.105953,20.8632,83.3327,0.0957702,0.0,0.0
2898,724.25,40.7485,41.8003,162.558,99.3576,98.4806,0.00756312,0.105067,20.8641,83.3428,0.0812325,0.0,0.0
2905,726,40.2796,41.3705,166.439,99.3665,98.2952,0.00747184,0.104699,20.8656,83.3227,0.0993159,0.0,0.0
2912,727.75,40.4824,40.9021,166.912,99.3516,98.4934,0.00742068,0.104588,20.8664,83.2226,0.0794828,0.0,0.0
2919,729.5,40.1094,40.6945,163.907,99.3528,98.5471,0.00744011,0.104206,20.8668,83.2026,0.0746034,0.0,0.0
2926,731.25,40.4401,40.5354,162.44,99.3729,98.3569,0.00746544,0.104208,20.867,83.2827,0.0941638,0.0,0.0
2933,733,40.1222,41.3189,163.554,99.383,98.4834,0.00748565,0.104094,20.8671,83.2627,0.0833119,0.0,0.0
2940,734.75,40.1684,40.6299,164.114,99.3902,98.3581,0.00751179,0.103574,20.8672,83.1726,0.095648,0.0,0.0
2947,736.5,40.0219,40.6637,164.288,99.3906,98.5115,0.00757905,0.103114,20.8672,83.1226,0.08141,0.0,0.0
2954,738.25,40.0154,40.5797,164.845,99.4076,98.6172,0.00763033,0.103094,20.8683,83.1526,0.0731418,0.0,0.0
2961,740,39.7906,40.203,168.116,99.4237,98.634,0.00762349,0.103377,20.8689,83.1526,0.0730648,0.0,0.0
2968,741.75,39.8789,41.0148,161.258,99.441,98.5451,0.00757979,0.103236,20.8683,83.1626,0.0829223,0.0,0.0
2975,743.5,39.6108,40.0622,166.852,99.4382,98.5083,0.00761255,0.103488,20.8677,83.0425,0.0860899,0.0,0.0
2982,745.25,40.2114,40.1667,164.527,99.4696,98.7261,0.00772903,0.103871,20.8675,83.0225,0.0687447,0.0,0.0
2989,747,39.8156,40.2683,159.454,99.5099,98.4818,0.00781448,0.103688,20.8673,83.1025,0.095153,0.0,0.0
2996,748.75,39.5303,39.6092,166.519,99.5341,98.8891,0.00781068,0.103708,20.8673,83.1025,0.0595665,0.0,0.0
3000,749.75,39.6383,39.7008,159.324,99.5518,98.5023,0.00781404,0.103769,20.8678,83.0925,0.0971093,0.0,0.0