File: 01_Data/Basswood_Panel/Cone/Basswood_Panel_Cone_HF25Scan_221212_R4.csv
Names,Time,Stack TC,Smoke TC,Exh Press,Smoke Comp,Smoke Meas,CO Meter,CO2 Meter,O2 Meter,Sample Mass,Ext Coeff,Start Test,Flame Verif
Chan Gain,,500,500,1,1,1,1,1,1,1,1,1.0,1.0
Offset,,0,0,0.136404,0,0,0,0,0,0,0,0.0,0.0
Gain,,1,1,25.011,14.0546,13.8657,1,1,1,1.00087,1.04452,1.0,1.0
Units,sec,C,C,Pa,%,%,%,%,%,g,/m,,
Baseline,,19.837,20.2839,174.971,105.961,106.681,0.000292862,0.0512481,20.9327,-444.626,-0.0621285,,
9,2,18.8762,19.5309,173.742,105.349,105.924,0.000527379,0.0572138,20.9317,157.738,-0.0498971,0.0,0.0
18,4.25,18.8793,19.3093,173.635,105.123,105.591,0.000541382,0.0619589,20.9307,157.698,-0.040725,0.0,0.0
27,6.5,18.6945,19.4405,175.585,104.957,105.608,0.000403854,0.0661008,20.9254,157.708,-0.0566734,0.0,0.0
36,8.75,18.8625,18.8564,181.769,104.822,105.408,0.000224904,0.0671729,20.92,157.678,-0.051019,0.0,0.0
45,11,19.1238,19.2119,172.287,104.728,105.321,0.000177678,0.0670129,20.9179,157.658,-0.0517269,0.0,0.0
54,13.25,19.0305,19.4908,175.703,104.67,105.101,0.00035947,0.066506,20.9171,157.588,-0.0376333,0.0,0.0
63,15.5,19.1156,19.228,173.764,104.65,105.237,0.000471295,0.0654518,20.9174,157.618,-0.0512683,0.0,0.0
72,17.75,19.1073,19.4627,174.222,104.686,105.315,0.000323682,0.0627471,20.9185,157.578,-0.0548525,0.0,0.0
81,20,18.8738,19.2612,174.937,104.734,105.212,0.000197506,0.0593684,20.9236,157.548,-0.0417371,0.0,0.0
90,22.25,18.74,19.3158,180.877,104.822,105.169,0.000223984,0.0567192,20.9272,157.538,-0.030214,0.0,0.0
99,24.5,18.9412,19.2663,173.801,104.92,105.201,0.000310192,0.0553658,20.9301,157.507,-0.0244713,0.0,0.0
108,26.75,19.7226,18.9039,177.471,105.048,105.447,0.000370311,0.0546585,20.9312,157.477,-0.0347027,0.0,0.0
117,29,19.0912,19.3069,172.609,105.167,105.434,0.000397141,0.0543766,20.933,157.377,-0.0232437,0.0,0.0
126,31.25,19.0784,19.8924,182.405,105.311,105.557,0.000387074,0.0545089,20.9324,157.437,-0.0213916,0.0,0.0
135,33.5,19.1166,19.6756,172.024,105.466,105.669,0.000302887,0.0550823,20.9321,157.407,-0.0175836,0.0,0.0
144,35.75,19.0528,19.5996,173.266,105.582,105.738,0.000103758,0.0556542,20.9303,157.377,-0.0135064,0.0,0.0
153,38,18.9418,19.4704,172.445,105.69,105.738,-5.46149e-05,0.0562672,20.9286,157.297,-0.00416845,0.0,0.0
162,40.25,19.2095,19.7668,171.389,105.807,105.9375,1.49339e-05,0.0571324,20.9273,157.347,-0.0112774,0.0,0.0
171,42.5,18.7835,19.7162,174.638,105.887,105.686,0.000202509,0.0581863,20.9268,157.307,0.017394,0.0,0.0
180,44.75,19.626,19.8856,172.892,105.935,105.668,0.000313985,0.0595661,20.9251,157.207,0.0231647,0.0,0.0
189,47,19.2659,19.3555,175.508,105.992,105.662,0.000339295,0.060514,20.9245,157.207,0.0285365,0.0,0.0
198,49.25,19.5216,19.5641,168.106,106.022,105.502,0.000350056,0.0601092,20.9242,157.217,0.0450864,0.0,0.0
207,51.5,19.3156,19.6148,172.496,106.048,105.378,0.000379495,0.0591958,20.9247,157.187,0.058084,0.0,0.0
216,53.75,19.4082,19.1682,180.517,106.042,105.319,0.000480191,0.0584044,20.9262,157.087,0.0626804,0.0,0.0
225,56,19.3892,19.6079,173.231,106.044,105.173,0.000582546,0.0579876,20.9277,157.137,0.0756109,0.0,0.0
234,58.25,19.0012,20.0354,173.274,106.034,105.016,0.000571386,0.0584576,20.9278,157.107,0.0883728,0.0,0.0
243,60.5,19.4807,19.6584,175.234,105.997,104.743,0.000630928,0.0585835,20.9269,157.007,0.109065,0.0,0.0
252,62.75,19.5677,20.1992,171.494,105.971,104.393,0.000587503,0.0580301,20.9265,156.997,0.137429,0.0,0.0
261,65,19.8498,19.8058,176.249,105.942,104.129,0.000425619,0.0573847,20.9264,156.967,0.158111,0.0,0.0
270,67.25,19.6145,19.991,166.802,105.896,103.898,0.000360557,0.0569699,20.9263,156.917,0.174605,0.0,0.0
279,69.5,19.4775,19.7311,174.881,105.838,104.231,0.000369986,0.0567728,20.9263,156.807,0.140197,0.0,0.0
288,71.75,19.4045,20.1728,172.545,105.81,103.805,0.000390887,0.0568244,20.9278,156.827,0.175243,0.0,0.0
297,74,19.859,19.8985,176.301,105.79,103.74,0.000552892,0.0570799,20.9287,156.767,0.179289,0.0,0.0
306,76.25,19.292,19.6033,177.325,105.723,103.619,0.000830333,0.0574081,20.929,156.687,0.184187,0.0,0.0
315,78.5,19.5775,19.9268,174.539,105.707,104.077,0.00104356,0.0576837,20.9292,156.627,0.142379,0.0,0.0
324,80.75,19.7595,20.2954,177.269,105.67,102.881,0.00108585,0.0578879,20.9292,156.627,0.245103,0.0,0.0
333,83,19.307,20.382,171.22,105.626,103.069,0.000997743,0.0583511,20.9292,156.597,0.224479,0.0,0.0
342,85.25,19.591,19.4725,173.484,105.571,102.502,0.000982296,0.0587316,20.9278,156.437,0.270336,0.0,0.0
351,87.5,19.8182,20.1476,179.624,105.558,102.529,0.0010482,0.0593595,20.9273,156.457,0.26676,0.0,0.0
360,89.75,19.8254,20.2899,179.187,105.526,102.727,0.00107592,0.0595431,20.9276,156.387,0.246363,0.0,0.0
369,92,19.7374,20.3325,162.324,105.507,103.581,0.00106102,0.0595605,20.9277,156.176,0.168801,0.0,0.0
378,94.25,20.981,20.3711,157.769,105.489,102.753,0.00115639,0.0597757,20.9279,155.926,0.240782,0.0,1.0
387,96.5,21.9725,22.0998,159.946,105.489,102.061,0.00137897,0.0596263,20.9281,155.586,0.302607,0.0,1.0
396,98.75,23.1953,22.4929,164.573,105.511,101.987,0.001545,0.0673303,20.9279,155.266,0.311271,0.0,1.0
405,101,24.4769,23.7935,157.062,105.587,100.855,0.00172577,0.136391,20.9181,154.885,0.420045,0.0,0.0
414,103.25,25.7093,25.0796,158.125,105.729,100.977,0.00189842,0.233121,20.8429,154.605,0.421406,0.0,0.0
423,105.5,27.257,26.527,153.051,105.811,100.75,0.00209653,0.310056,20.7412,154.265,0.44903,0.0,0.0
432,107.75,28.3238,27.7121,159.91,105.906,101.114,0.00237179,0.363624,20.648,153.934,0.424276,0.0,0.0
441,110,29.1928,28.8647,153.555,106.007,100.54,0.00262079,0.400047,20.5804,153.504,0.485132,0.0,0.0
450,112.25,30.284,29.8044,156.952,106.077,101.87,0.00289529,0.42427,20.5369,153.234,0.370729,0.0,0.0
459,114.5,31.0401,30.953,162.352,106.132,102.633,0.0031165,0.441844,20.5034,152.913,0.30718,0.0,0.0
468,116.75,32.7617,31.8569,155.287,106.192,102.086,0.00317698,0.454593,20.4829,152.493,0.361337,0.0,0.0
477,119,33.4514,33.1666,159.655,106.271,102.841,0.00321736,0.464902,20.4691,152.253,0.300602,0.0,0.0
486,121.25,33.7,33.8019,151.156,106.288,102.339,0.00321986,0.463956,20.4583,151.913,0.34694,0.0,0.0
495,123.5,34.7438,34.4429,158.444,106.336,102.763,0.00313192,0.455352,20.4557,151.652,0.313122,0.0,0.0
504,125.75,34.8769,35.0894,161.654,106.348,103.542,0.00309214,0.449084,20.4637,151.312,0.244962,0.0,0.0
513,128,35.8269,36.1379,160.308,106.372,103.614,0.00304417,0.443121,20.4691,151.052,0.240704,0.0,0.0
522,130.25,35.5698,36.3412,156.559,106.383,104.164,0.00295773,0.432098,20.4764,150.762,0.193187,0.0,0.0
531,132.5,36.5665,37.3643,159.63,106.384,104.009,0.00282172,0.419793,20.4874,150.431,0.206858,0.0,0.0
540,134.75,36.2963,37.248,160.847,106.402,103.818,0.00261233,0.407974,20.5013,150.271,0.225234,0.0,0.0
549,137,37.0482,37.78,159.148,106.4,104.827,0.00251148,0.394259,20.5175,150.001,0.13645,0.0,0.0
558,139.25,37.3787,38.2028,153.123,106.388,104.57,0.00248031,0.382665,20.5313,149.781,0.157893,0.0,0.0
567,141.5,37.5961,38.8541,157.04,106.372,104.357,0.00238899,0.370618,20.5452,149.501,0.175269,0.0,0.0
576,143.75,37.2469,39.0303,162.604,106.358,105.043,0.00219125,0.359919,20.5612,149.31,0.113986,0.0,0.0
585,146,37.5679,38.814,167.589,106.345,104.916,0.00200387,0.350026,20.5759,149.07,0.123958,0.0,0.0
594,148.25,37.4628,39.38,156.525,106.333,105.208,0.00189635,0.341179,20.587,148.87,0.0974227,0.0,0.0
603,150.5,37.5335,39.4283,161.873,106.3,104.856,0.00186166,0.333448,20.598,148.66,0.125326,0.0,0.0
612,152.75,38.3806,39.5825,164.491,106.276,104.946,0.00188363,0.324101,20.6071,148.4,0.115456,0.0,0.0
621,155,38.2966,39.8787,162.552,106.249,105.197,0.00199552,0.31721,20.6169,148.199,0.091172,0.0,0.0
630,157.25,38.0037,39.9857,168.789,106.209,104.701,0.00203539,0.311203,20.6267,147.899,0.13099,0.0,0.0
639,159.5,38.8371,39.9999,164.761,106.198,105.055,0.00195652,0.307315,20.6355,147.759,0.0990858,0.0,0.0
648,161.75,38.2066,40.1222,160.983,106.177,104.857,0.00185147,0.304095,20.6405,147.569,0.114672,0.0,0.0
657,164,38.6976,40.3582,159.535,106.161,105.115,0.00178087,0.302663,20.6434,147.309,0.0907383,0.0,0.0
666,166.25,38.2954,40.3839,156.44,106.128,104.966,0.00171718,0.301017,20.6462,147.048,0.10088,0.0,0.0
675,168.5,38.5412,40.9317,160.128,106.095,104.647,0.00161194,0.298329,20.648,146.898,0.125884,0.0,0.0
684,170.75,38.1547,40.6249,163.059,106.074,104.71,0.00152939,0.296843,20.6507,146.708,0.118587,0.0,0.0
693,173,38.5593,40.8734,161.659,106.03,104.827,0.00149642,0.294285,20.6525,146.368,0.104594,0.0,0.0
702,175.25,38.4751,40.757,162.082,106.033,104.73,0.00154643,0.29261,20.6547,146.278,0.113289,0.0,0.0
711,177.5,38.9312,40.8222,162.323,105.998,104.743,0.0015313,0.290561,20.6572,146.098,0.109102,0.0,0.0
720,179.75,38.4176,40.6326,164.007,105.969,104.886,0.00149114,0.288189,20.6597,145.877,0.0941152,0.0,0.0
729,182,38.7111,40.7231,166.337,105.937,104.781,0.00156248,0.285406,20.6619,145.597,0.100541,0.0,0.0
738,184.25,38.6892,40.7191,159.524,105.924,104.961,0.00157465,0.282403,20.6642,145.497,0.0836799,0.0,0.0
747,186.5,38.7236,40.6329,161.413,105.883,104.641,0.00145136,0.2783,20.6676,145.287,0.108122,0.0,0.0
756,188.75,38.9913,41.0117,163.84,105.845,104.66,0.00144985,0.27379,20.6729,145.067,0.103226,0.0,0.0
765,191,38.7908,40.691,162.917,105.853,104.863,0.00153029,0.271343,20.6789,144.927,0.08613,0.0,0.0
774,193.25,38.4667,40.9184,162.757,105.865,104.715,0.00161587,0.270098,20.6822,144.706,0.100119,0.0,0.0
783,195.5,38.8373,40.8357,160.96,105.87,104.329,0.00156732,0.269349,20.6835,144.556,0.134357,0.0,0.0
792,197.75,38.6875,40.631,159.68,105.892,104.54,0.0013685,0.268229,20.6844,144.276,0.117762,0.0,0.0
801,200,38.2845,41.0923,162.334,105.902,104.792,0.00132064,0.266959,20.6858,144.176,0.0964641,0.0,0.0
810,202.25,38.6755,40.692,158.284,105.923,104.475,0.00142967,0.265176,20.6867,143.986,0.126073,0.0,0.0
819,204.5,38.6856,41.1234,161.512,105.937,104.758,0.00163521,0.263699,20.6894,143.735,0.102541,0.0,0.0
828,206.75,38.9357,40.9204,166,105.956,104.812,0.00175212,0.26397,20.6911,143.545,0.0994737,0.0,0.0
837,209,38.4877,40.3761,164.294,105.977,104.9,0.00164752,0.263848,20.6916,143.385,0.093673,0.0,0.0
846,211.25,38.5616,40.9684,167.177,106.007,104.71,0.00154662,0.262677,20.6921,143.165,0.112731,0.0,0.0
855,213.5,38.9094,40.9032,160.587,106.045,104.903,0.00154554,0.260559,20.694,142.895,0.0991614,0.0,0.0
864,215.75,38.7503,40.3274,166.542,106.096,104.783,0.0015534,0.259017,20.6962,142.815,0.114072,0.0,0.0
873,218,39.0884,39.8368,163.462,106.113,104.898,0.00166051,0.257917,20.6977,142.604,0.105532,0.0,0.0
882,220.25,38.6331,40.7628,158.742,106.146,104.769,0.00170347,0.257264,20.6982,142.464,0.119664,0.0,0.0
891,222.5,38.6549,41.1613,162.779,106.227,104.967,0.00167748,0.256936,20.6999,142.224,0.109281,0.0,0.0
900,224.75,38.1773,40.5994,161.604,106.281,104.934,0.0016463,0.256034,20.7014,142.084,0.116861,0.0,0.0
909,227,38.5416,40.7549,163.091,106.351,105.258,0.00167577,0.254935,20.7029,141.894,0.0945908,0.0,0.0
918,229.25,38.3993,41.0879,164.884,106.407,105.208,0.00176038,0.254322,20.7035,141.634,0.103852,0.0,0.0
927,231.5,38.7795,40.7809,165.259,106.473,105.374,0.00177136,0.25398,20.7053,141.504,0.0950286,0.0,0.0
936,233.75,38.1508,40.4781,166.549,106.525,105.288,0.00177151,0.252535,20.7047,141.333,0.107004,0.0,0.0
945,236,38.5084,40.5862,165.267,106.569,105.087,0.00177568,0.25095,20.7056,141.183,0.128272,0.0,0.0
954,238.25,38.1291,40.5309,165.03,106.607,105.018,0.00178904,0.248673,20.7063,140.913,0.137643,0.0,0.0
963,240.5,38.6322,40.625,166.839,106.647,105.253,0.00178936,0.247723,20.7085,140.803,0.120495,0.0,0.0
972,242.75,38.5578,40.3481,160.473,106.697,105.39,0.00172226,0.247624,20.7109,140.623,0.112878,0.0,0.0
981,245,38.1979,40.5742,161.069,106.713,105.213,0.00159882,0.247182,20.7118,140.343,0.129705,0.0,0.0
990,247.25,38.2165,40.8072,165.551,106.747,105.331,0.00146085,0.24698,20.7122,140.222,0.122338,0.0,0.0
999,249.5,38.0145,40.3436,167.581,106.753,105.492,0.00138417,0.244692,20.713,140.082,0.108876,0.0,0.0
1008,251.75,37.4073,40.1563,161.405,106.771,105.345,0.00152546,0.242221,20.7147,139.962,0.123258,0.0,0.0
1017,254,37.7976,40.0661,164.384,106.746,105.446,0.00168611,0.24145,20.7161,139.692,0.112221,0.0,0.0
1026,256.25,38.2214,40.7094,162.747,106.724,105.507,0.00182127,0.24063,20.7179,139.602,0.105123,0.0,0.0
1035,258.5,37.682,40.0058,162.734,106.686,104.99,0.00197393,0.239626,20.7189,139.392,0.146899,0.0,0.0
1044,260.75,37.8074,40.2427,170.624,106.614,105.18,0.00190774,0.239424,20.7206,139.232,0.124068,0.0,0.0
1053,263,37.4469,39.9823,164.444,106.556,105.142,0.00178695,0.238557,20.7214,139.041,0.122408,0.0,0.0
1062,265.25,37.224,39.975,163.859,106.477,104.842,0.00170605,0.237508,20.7217,138.901,0.141801,0.0,0.0
1071,267.5,38.0108,39.3471,159.496,106.395,104.987,0.00169076,0.236797,20.7227,138.721,0.12211,0.0,0.0
1080,269.75,37.353,39.5702,167.111,106.295,105.032,0.0017428,0.236651,20.7236,138.501,0.10955,0.0,0.0
1089,272,37.3379,39.7309,162.15,106.239,104.907,0.00186692,0.236826,20.7239,138.391,0.115564,0.0,0.0
1098,274.25,37.1261,39.394,166.558,106.158,104.648,0.00195334,0.236565,20.7231,138.221,0.131327,0.0,0.0
1107,276.5,37.3491,39.6735,162.756,106.087,104.75,0.00192706,0.23585,20.7234,138.03,0.116218,0.0,0.0
1116,278.75,37.4719,39.6187,162.952,106.008,104.627,0.00189118,0.235529,20.7241,137.83,0.120213,0.0,0.0
1125,281,37.2545,39.3749,164.471,105.931,104.504,0.00196555,0.235242,20.7255,137.68,0.124254,0.0,0.0
1134,283.25,37.2829,39.7222,172.706,105.864,104.318,0.00213048,0.234376,20.7255,137.53,0.134766,0.0,0.0
1143,285.5,37.3551,39.3396,166.237,105.799,104.495,0.00221147,0.234713,20.7261,137.27,0.113562,0.0,0.0
1152,287.75,37.5753,39.8067,166.215,105.767,104.457,0.00209648,0.236867,20.7257,137.2,0.114191,0.0,0.0
1161,290,37.5057,39.4229,159.44,105.738,104.152,0.00205208,0.237934,20.7229,137.03,0.1385,0.0,0.0
1170,292.25,37.4499,39.3984,164.58,105.742,104.296,0.00216666,0.237623,20.7217,136.839,0.12615,0.0,0.0
1179,294.5,37.4909,39.9729,162.709,105.723,104.264,0.00217951,0.236864,20.7212,136.619,0.127341,0.0,0.0
1188,296.75,36.2887,39.3966,163.308,105.735,104.475,0.00198535,0.235185,20.7231,136.539,0.109845,0.0,0.0
1197,299,36.852,39.2279,162.803,105.752,104.642,0.00191887,0.234057,20.7245,136.339,0.0966835,0.0,0.0
1206,301.25,37.1728,39.0636,159.722,105.772,104.297,0.00196949,0.231917,20.7259,136.079,0.12864,0.0,0.0
1215,303.5,37.1341,39.2619,159.775,105.824,104.373,0.00204314,0.230619,20.728,135.999,0.126483,0.0,0.0
1224,305.75,36.8919,39.1275,168.013,105.877,104.369,0.00208616,0.231742,20.7293,135.829,0.131458,0.0,0.0
1233,308,36.8747,39.3206,166.544,105.932,104.41,0.00207824,0.233463,20.7295,135.648,0.132605,0.0,0.0
1242,310.25,36.5464,39.1116,166.218,106.01,104.656,0.00214563,0.233645,20.7285,135.418,0.117769,0.0,0.0
1251,312.5,36.5015,38.9899,164.636,106.069,104.734,0.00232219,0.23266,20.728,135.318,0.116069,0.0,0.0
1260,314.75,36.8907,39.3008,162.941,106.147,104.865,0.00240589,0.231785,20.7288,135.158,0.111378,0.0,0.0
1269,317,36.4934,39.0653,161.55,106.184,105.023,0.00237998,0.232017,20.7296,134.898,0.100671,0.0,0.0
1278,319.25,36.5329,38.4903,164.931,106.233,105,0.00230566,0.232733,20.7297,134.758,0.106956,0.0,0.0
1287,321.5,36.6826,38.5279,167.947,106.28,104.835,0.00217448,0.232812,20.7286,134.648,0.125399,0.0,0.0
1296,323.75,36.6092,38.656,162.631,106.34,105.12,0.00209826,0.232529,20.7286,134.457,0.10572,0.0,0.0
1305,326,36.7989,38.732,168.704,106.394,104.713,0.00201897,0.232307,20.7271,134.197,0.145888,0.0,0.0
1314,328.25,36.3409,38.585,165.627,106.484,105.157,0.00190159,0.232063,20.7277,134.147,0.114883,0.0,0.0
1323,330.5,36.5449,38.5574,161.489,106.545,105.23,0.00181598,0.232844,20.7281,133.967,0.113856,0.0,0.0
1332,332.75,37.0358,38.3152,164.949,106.591,105.018,0.00173384,0.23362,20.727,133.797,0.136169,0.0,0.0
1341,335,36.6693,38.5086,165.008,106.65,105.511,0.00170578,0.233698,20.7264,133.587,0.0983834,0.0,0.0
1350,337.25,36.5123,38.7934,168.811,106.69,105.686,0.00175601,0.232834,20.7262,133.487,0.0866093,0.0,0.0
1359,339.5,36.434,38.6796,163.454,106.729,105.649,0.00177359,0.232519,20.7262,133.306,0.0931162,0.0,0.0
1368,341.75,36.0995,38.7096,168.834,106.737,105.562,0.00181587,0.232047,20.7274,133.066,0.101452,0.0,0.0
1377,344,36.6855,38.1444,166.422,106.741,105.583,0.00189987,0.231388,20.7276,132.986,0.099948,0.0,0.0
1386,346.25,35.855,38.4785,164.458,106.731,105.646,0.00194973,0.230297,20.7278,132.796,0.0936308,0.0,0.0
1395,348.5,36.284,38.1241,168.302,106.697,105.519,0.00189796,0.229611,20.7297,132.656,0.101665,0.0,0.0
1404,350.75,36.3361,38.0597,165.38,106.642,105.335,0.00186703,0.228345,20.7307,132.396,0.112946,0.0,0.0
1413,353,36.4143,38.2692,166.38,106.56,105.403,0.00190065,0.22773,20.7322,132.305,0.100017,0.0,0.0
1422,355.25,36.0704,38.2512,163.957,106.481,105.331,0.00197421,0.228173,20.7336,132.155,0.0995212,0.0,0.0
1431,357.5,36.317,37.8347,164.614,106.344,105.282,0.00203902,0.229023,20.7339,131.915,0.0920111,0.0,0.0
1440,359.75,36.6955,37.9813,165.848,106.23,105.127,0.00221253,0.228206,20.7329,131.835,0.0955896,0.0,0.0
1449,362,36.032,38.1562,164.194,106.1,104.871,0.00235858,0.226673,20.7334,131.665,0.10675,0.0,0.0
1458,364.25,36.4475,37.6456,169.084,105.996,104.8,0.00242113,0.225206,20.7343,131.485,0.103959,0.0,0.0
1467,366.5,36.3364,37.8602,164.755,105.875,104.776,0.00236078,0.224783,20.7359,131.255,0.0956426,0.0,0.0
1476,368.75,36.1004,37.7065,161.196,105.931,104.635,0.00229068,0.223993,20.7365,131.205,0.11276,0.0,0.0
1485,371,36.0591,37.8416,164.159,106.156,104.798,0.00233356,0.223051,20.7376,131.034,0.117962,0.0,0.0
1494,373.25,36.0461,37.4254,167.934,106.279,105.141,0.00232525,0.221877,20.7388,130.844,0.0986633,0.0,0.0
1503,375.5,35.808,37.6278,166.38,106.368,105.498,0.00222374,0.221319,20.7389,130.704,0.0752447,0.0,0.0
1512,377.75,36.0507,37.5629,169.142,106.386,105.257,0.00227465,0.22086,20.74,130.554,0.0977674,0.0,0.0
1521,380,36.0884,37.8036,168.744,106.342,105.054,0.00238068,0.220238,20.7406,130.414,0.11166,0.0,0.0
1530,382.25,35.6681,38.1095,165.034,106.216,105.058,0.00247645,0.220286,20.7409,130.164,0.100456,0.0,0.0
1539,384.5,36.0539,37.59,164.035,106.06,105.269,0.00254153,0.219933,20.741,130.084,0.0686558,0.0,0.0
1548,386.75,35.9444,37.6106,167.744,105.834,104.701,0.00260103,0.219584,20.7416,129.913,0.0986309,0.0,0.0
1557,389,36.1204,37.7176,165.567,105.544,104.495,0.0026619,0.21908,20.7427,129.743,0.0915461,0.0,0.0
1566,391.25,35.9295,37.636,162.295,105.483,104.495,0.00250703,0.219446,20.7431,129.523,0.0862198,0.0,0.0
1575,393.5,35.7784,37.4492,162.292,105.551,104.489,0.00232131,0.219396,20.7432,129.463,0.092661,0.0,0.0
1584,395.75,35.7553,37.3307,164.859,105.621,104.694,0.00225824,0.21875,20.743,129.313,0.0807485,0.0,0.0
1593,398,35.7102,37.3319,165.726,105.711,104.898,0.00231094,0.219035,20.743,129.063,0.0706904,0.0,0.0
1602,400.25,35.7122,36.9199,170.797,105.783,104.69,0.0023471,0.219701,20.7427,129.003,0.0951367,0.0,0.0
1611,402.5,35.522,37.2889,165,105.86,104.472,0.00240201,0.219667,20.7414,128.862,0.120987,0.0,0.0
1620,404.75,35.3285,36.8802,166.818,105.929,104.868,0.00250131,0.219097,20.7409,128.682,0.0922544,0.0,0.0
1629,407,35.2083,37.4879,169.35,106.001,105.259,0.00256214,0.218387,20.7415,128.502,0.0643877,0.0,0.0
1638,409.25,35.4154,37.3049,167.899,106.045,105.232,0.00256586,0.218106,20.7424,128.372,0.0705636,0.0,0.0
1647,411.5,35.5959,37.1087,171.178,106.032,104.897,0.00247498,0.21855,20.744,128.182,0.0986038,0.0,0.0
1656,413.75,35.5574,36.6952,165.887,105.986,105.292,0.00240753,0.218224,20.7443,127.982,0.0601807,0.0,0.0
1665,416,35.2436,37.087,167.29,105.93,105.229,0.00231561,0.217762,20.7449,127.872,0.0608469,0.0,0.0
1674,418.25,35.2972,36.9254,164.196,105.839,105.037,0.00225433,0.218604,20.7463,127.742,0.0696845,0.0,0.0
1683,420.5,35.523,37.1389,164.317,105.712,104.768,0.00234147,0.219044,20.7464,127.601,0.0821191,0.0,0.0
1692,422.75,35.2138,37.2351,167.658,105.571,104.924,0.00237886,0.218758,20.7461,127.351,0.0563462,0.0,0.0
1701,425,35.4682,36.8288,163.872,105.429,104.595,0.0024251,0.218303,20.7464,127.241,0.0727722,0.0,0.0
1710,427.25,35.2796,36.8631,167.886,105.274,104.349,0.0025975,0.218366,20.7475,127.081,0.0809423,0.0,0.0
1719,429.5,35.0886,37.0489,167.882,105.106,104.346,0.00269762,0.218627,20.7479,126.871,0.066445,0.0,0.0
1728,431.75,35.2482,36.8899,169.063,104.981,104.07,0.00256346,0.218892,20.747,126.781,0.0798531,0.0,0.0
1737,434,35.2856,36.875,167.944,104.856,103.977,0.00244506,0.218313,20.7469,126.651,0.0771533,0.0,0.0
1746,436.25,35.0176,36.8447,164.42,104.749,103.751,0.00250807,0.218487,20.7477,126.48,0.0877496,0.0,0.0
1755,438.5,35.1691,36.6974,165.454,104.68,103.795,0.00258989,0.218649,20.7476,126.24,0.0777837,0.0,0.0
1764,440.75,35.2199,36.9259,163.659,104.644,104.07,0.00260575,0.218118,20.746,126.14,0.0503824,0.0,0.0
1773,443,35.1831,36.874,168.458,104.658,104.09,0.00257043,0.217652,20.7453,125.98,0.0498338,0.0,0.0
1782,445.25,35.1797,36.8888,167.663,104.691,103.972,0.00242655,0.217703,20.7463,125.8,0.0631219,0.0,0.0
1791,447.5,35.3224,36.4513,166.767,104.792,104.275,0.00223117,0.21756,20.7468,125.69,0.0453538,0.0,0.0
1800,449.75,35.4191,36.8694,163.669,104.927,104.091,0.00220437,0.217429,20.747,125.53,0.0733097,0.0,0.0
1809,452,35.1614,37.0379,163.36,105.079,104.258,0.00228727,0.217461,20.7471,125.379,0.0719324,0.0,0.0
1818,454.25,35.046,36.8092,162.742,105.23,104.277,0.00245008,0.217845,20.7471,125.109,0.0834147,0.0,0.0
1827,456.5,35.3181,36.8433,166.135,105.406,104.66,0.00260969,0.218534,20.7471,125.069,0.0650895,0.0,0.0
1836,458.75,35.288,36.8192,166.255,105.594,104.527,0.00269573,0.219116,20.7459,124.909,0.093008,0.0,0.0
1845,461,35.2644,36.7627,161.666,105.789,105.08,0.00265095,0.219322,20.7453,124.729,0.0615749,0.0,0.0
1854,463.25,35.3826,36.7045,163.339,105.983,104.714,0.00245639,0.218923,20.745,124.519,0.110433,0.0,0.0
1863,465.5,35.0244,36.8682,161.786,106.184,105.46,0.00226116,0.21895,20.7449,124.399,0.062688,0.0,0.0
1872,467.75,35.4216,36.6926,168.205,106.353,105.196,0.00219189,0.219031,20.7449,124.278,0.100229,0.0,0.0
1881,470,34.8917,36.5933,170.434,106.483,105.72,0.00222789,0.219653,20.7444,124.018,0.0659028,0.0,0.0
1890,472.25,35.2784,36.7483,165.46,106.61,105.581,0.00231585,0.221026,20.7433,123.938,0.0888942,0.0,0.0
1899,474.5,35.6369,36.5729,165.32,106.7,105.663,0.00235175,0.22173,20.7428,123.798,0.0894382,0.0,0.0
1908,476.75,34.5991,37.1609,161.792,106.731,106.212,0.00239038,0.221785,20.7426,123.598,0.0447321,0.0,0.0
1917,479,35.1885,36.7853,165.829,106.747,105.916,0.00236598,0.221232,20.7426,123.418,0.0716095,0.0,0.0
1926,481.25,35.4585,36.6831,165.636,106.731,106.113,0.00227569,0.22174,20.7426,123.308,0.0532779,0.0,0.0
1935,483.5,34.3288,36.4275,170.765,106.672,105.853,0.00226011,0.223087,20.7421,123.158,0.0706199,0.0,0.0
1944,485.75,35.1334,36.5362,166.075,106.585,105.944,0.00228651,0.224048,20.741,122.897,0.0552671,0.0,0.0
1953,488,35.0977,36.2913,159.597,106.488,105.43,0.00227531,0.223449,20.7394,122.797,0.091465,0.0,0.0
1962,490.25,35.304,36.7814,162.494,106.367,105.837,0.00234481,0.22241,20.7387,122.647,0.0457809,0.0,0.0
1971,492.5,34.9249,36.6778,170.575,106.224,105.498,0.00244653,0.222514,20.7398,122.477,0.0628214,0.0,0.0
1980,494.75,35.6765,36.6768,167.31,106.078,105.292,0.00241878,0.224227,20.7403,122.227,0.0681853,0.0,0.0
1989,497,35.0216,36.6025,165.244,105.963,105.309,0.0023033,0.225876,20.7384,122.177,0.0567793,0.0,0.0
1998,499.25,35.186,36.7921,162.969,105.868,105.26,0.00225015,0.22674,20.7369,121.996,0.0527762,0.0,0.0
2007,501.5,35.3307,36.8857,166.429,105.983,105.454,0.00225651,0.227087,20.7349,121.826,0.0458298,0.0,0.0
2016,503.75,35.741,36.2524,166.135,106.198,105.556,0.00215174,0.227761,20.7342,121.726,0.0555309,0.0,0.0
2025,506,35.5657,36.4554,165.264,106.327,105.755,0.00215036,0.228779,20.7339,121.556,0.0494156,0.0,0.0
2034,508.25,35.1757,36.8221,162.321,106.394,105.644,0.00228674,0.229961,20.7337,121.386,0.064827,0.0,0.0
2043,510.5,35.3669,36.5153,161.889,106.418,105.616,0.00238343,0.23076,20.7321,121.126,0.069355,0.0,0.0
2052,512.75,35.8074,35.951,168.873,106.337,105.608,0.0024477,0.230878,20.7306,121.056,0.063033,0.0,0.0
2061,515,35.0912,37.0424,173.832,106.219,105.668,0.00236153,0.231394,20.7301,120.855,0.0476891,0.0,0.0
2070,517.25,35.1618,37.1772,167.928,105.991,105.547,0.00220339,0.232688,20.7291,120.625,0.0384115,0.0,0.0
2079,519.5,35.7335,37.137,163.192,105.702,104.994,0.00206171,0.234114,20.728,120.515,0.0615239,0.0,0.0
2088,521.75,35.7607,36.6577,165.993,105.519,104.671,0.00202738,0.234209,20.7263,120.395,0.0739641,0.0,0.0
2097,524,35.6753,36.3123,165.542,105.569,105.193,0.00206677,0.234154,20.7256,120.235,0.0326885,0.0,0.0
2106,526.25,35.1907,36.7936,168.341,105.63,104.91,0.00203471,0.235336,20.7253,119.955,0.0626262,0.0,0.0
2115,528.5,35.5799,36.5757,165.105,105.748,105.11,0.0019456,0.237029,20.7249,119.885,0.0554994,0.0,0.0
2124,530.75,35.7609,36.8611,161.372,105.838,105.32,0.00197117,0.238678,20.7236,119.684,0.0449494,0.0,0.0
2133,533,35.8249,37.1805,166.129,105.91,105.394,0.00205467,0.239916,20.7223,119.574,0.0447821,0.0,0.0
2142,535.25,35.6072,37.2259,162.502,105.988,104.993,0.00199777,0.24055,20.721,119.354,0.0864362,0.0,0.0
2151,537.5,35.7822,37.0031,161.336,106.018,105.488,0.00193516,0.240199,20.7204,119.194,0.0458917,0.0,0.0
2160,539.75,35.6952,37.0718,167.257,105.989,105.324,0.00189616,0.240514,20.7199,119.054,0.0576423,0.0,0.0
2169,542,35.8227,37.3888,164.444,105.878,105.32,0.00168277,0.24073,20.7196,118.824,0.0484019,0.0,0.0
2178,544.25,35.962,37.3681,165.233,105.72,105.136,0.0014968,0.241314,20.7185,118.704,0.0507962,0.0,0.0
2187,546.5,35.8105,37.1287,162.908,105.519,105.054,0.0013913,0.242749,20.7181,118.563,0.040541,0.0,0.0
2196,548.75,35.7239,37.1542,166.203,105.295,105.047,0.00132403,0.242965,20.7167,118.363,0.0215576,0.0,0.0
2205,551,35.744,37.5342,166.45,105.042,104.359,0.00132881,0.241899,20.7166,118.143,0.0597575,0.0,0.0
2214,553.25,36.2856,37.6062,165.984,104.846,104.161,0.00146116,0.241493,20.7173,118.093,0.0600841,0.0,0.0
2223,555.5,36.1956,37.6492,163.968,104.675,104.178,0.00159442,0.242634,20.7174,117.903,0.0435918,0.0,0.0
2232,557.75,36.3501,37.6826,166.673,104.591,103.695,0.00153983,0.243684,20.7173,117.613,0.0787919,0.0,0.0
2241,560,36.0415,37.5282,164.814,104.611,104.138,0.00142684,0.245138,20.7168,117.523,0.0415316,0.0,0.0
2250,562.25,36.4465,37.6862,163.086,104.735,103.986,0.00132565,0.247369,20.7156,117.382,0.0657955,0.0,0.0
2259,564.5,36.4027,38.0128,165.245,104.952,104.327,0.00120306,0.248599,20.7122,117.182,0.0546851,0.0,0.0
2268,566.75,36.7384,38.1227,165.033,105.218,104.334,0.00116506,0.248241,20.71,116.952,0.0773147,0.0,0.0
2277,569,36.4379,37.5523,166.196,105.571,105.046,0.00117972,0.24857,20.7102,116.832,0.0456733,0.0,0.0
2286,571.25,36.9012,37.5255,167.954,105.883,105.624,0.00116653,0.249408,20.7102,116.682,0.0224173,0.0,0.0
2295,573.5,36.3771,38.2021,164.134,106.161,105.663,0.00118167,0.250118,20.7091,116.512,0.0430972,0.0,0.0
2304,575.75,36.101,38.3382,160.271,106.423,105.667,0.00128573,0.251102,20.7084,116.362,0.0652836,0.0,0.0
2313,578,37.122,37.994,168.344,106.62,106.03,0.00135283,0.251471,20.7083,116.171,0.0508267,0.0,0.0
2322,580.25,36.2056,38.1124,158.594,106.741,105.765,0.00139676,0.252566,20.7078,115.971,0.0840977,0.0,0.0
2331,582.5,37.0943,38.5675,166.956,106.731,105.97,0.00136181,0.254379,20.7069,115.701,0.0655265,0.0,0.0
2340,584.75,36.908,38.1425,160.669,106.689,106.082,0.00134347,0.255825,20.7064,115.601,0.0522636,0.0,0.0
2349,587,36.8344,38.6894,161.697,106.592,105.935,0.0013728,0.255978,20.7043,115.441,0.0565883,0.0,0.0
2358,589.25,37.3998,38.6817,161.737,106.445,105.466,0.00125817,0.25739,20.7032,115.231,0.0846853,0.0,0.0
2367,591.5,37.7536,38.2789,168.431,106.292,105.731,0.00114428,0.259592,20.7023,115,0.0485127,0.0,0.0
2376,593.75,37.2063,38.6539,164.998,106.115,105.518,0.00118905,0.261288,20.7,114.87,0.0516923,0.0,0.0
2385,596,37.2056,38.9186,164.078,105.989,105.208,0.00121886,0.262127,20.6972,114.71,0.0677711,0.0,0.0
2394,598.25,37.3201,38.8435,159.443,105.871,105.135,0.00123066,0.262319,20.6957,114.44,0.0638725,0.0,0.0
2403,600.5,37.2114,39.1615,166.206,106.011,105.513,0.00128569,0.263368,20.6951,114.39,0.0431298,0.0,0.0
2412,602.75,37.8131,39.3583,156.261,106.231,105.259,0.0011626,0.265388,20.6949,114.19,0.0842384,0.0,0.0
2421,605,38.2694,39.364,164.356,106.347,105.332,0.001114,0.266322,20.6922,113.99,0.087887,0.0,0.0
2430,607.25,38.4394,38.869,164.321,106.407,105.613,0.00130842,0.268391,20.6913,113.749,0.0686514,0.0,0.0
2439,609.5,37.9871,39.2623,160.228,106.429,105.343,0.00154418,0.270324,20.6891,113.619,0.0939487,0.0,0.0
2448,611.75,37.9572,39.9566,166.148,106.381,105.681,0.00161439,0.272142,20.687,113.399,0.0604541,0.0,0.0
2457,614,38.5503,39.573,163.591,106.29,105.478,0.00165231,0.27369,20.6846,113.169,0.0702081,0.0,0.0
2466,616.25,37.9705,39.6387,158.833,106.191,105.247,0.00164226,0.274888,20.6826,113.029,0.081829,0.0,0.0
2475,618.5,38.3456,40.2818,161.643,106.031,105.179,0.00159355,0.275943,20.6812,112.879,0.0739468,0.0,0.0
2484,620.75,38.5112,39.8063,164.546,105.867,104.812,0.00157629,0.277082,20.6796,112.648,0.0918294,0.0,0.0
2493,623,38.4987,40.1457,161.853,105.652,104.495,0.00161495,0.278203,20.6785,112.378,0.100849,0.0,0.0
2502,625.25,38.7492,40.11,160.562,105.563,104.286,0.00169832,0.279782,20.6762,112.278,0.111495,0.0,0.0
2511,627.5,38.5862,40.8704,164.733,105.571,104.602,0.00164866,0.281363,20.6744,112.108,0.0844721,0.0,0.0
2520,629.75,39.5359,40.5741,159.116,105.589,104.361,0.00151215,0.281663,20.6732,111.788,0.107186,0.0,0.0
2529,632,39.2999,40.3905,163.111,105.642,104.685,0.00141633,0.283315,20.6728,111.627,0.0833498,0.0,0.0
2538,634.25,38.6681,41.2096,161.076,105.683,104.542,0.00131541,0.286289,20.6706,111.447,0.0994845,0.0,0.0
2547,636.5,39.0709,40.7365,161.183,105.732,104.47,0.0013076,0.288027,20.6661,111.277,0.109992,0.0,0.0
2556,638.75,39.4165,40.9878,166.512,105.753,104.681,0.00143594,0.290301,20.6633,110.957,0.093313,0.0,0.0
2565,641,39.3261,40.9869,165.181,105.803,104.624,0.00164558,0.292929,20.6613,110.857,0.102698,0.0,0.0
2574,643.25,39.5898,41.21,164.579,105.828,104.789,0.0016826,0.295717,20.6578,110.647,0.0904117,0.0,0.0
2583,645.5,39.6456,41.3803,166.825,105.851,104.643,0.00170936,0.297438,20.6556,110.446,0.105227,0.0,0.0
2592,647.75,39.7661,41.7669,163.485,105.875,104.23,0.00182457,0.299345,20.6531,110.236,0.143465,0.0,0.0
2601,650,40.151,41.4774,160.225,105.905,104.493,0.00191242,0.300416,20.6527,110.036,0.122955,0.0,0.0
2610,652.25,40.2192,41.6005,166.147,105.896,104.661,0.00176284,0.302063,20.6514,109.806,0.107457,0.0,0.0
2619,654.5,40.4469,41.9038,159.661,105.903,104.258,0.00151993,0.302451,20.6494,109.516,0.143459,0.0,0.0
2628,656.75,40.5245,41.6288,162.133,105.93,104.032,0.00147437,0.303444,20.6487,109.385,0.16564,0.0,0.0
2637,659,40.5758,41.9567,158.741,105.933,104.189,0.00156967,0.306696,20.6484,109.165,0.152121,0.0,0.0
2646,661.25,40.8096,42.6897,159.322,105.924,104.317,0.00164961,0.310316,20.6459,108.905,0.140073,0.0,0.0
2655,663.5,40.9275,42.4642,156.94,105.923,104.254,0.00163652,0.311591,20.6408,108.625,0.145463,0.0,0.0
2664,665.75,40.4489,42.7592,160.51,105.934,103.763,0.00161196,0.311497,20.6388,108.515,0.189707,0.0,0.0
2673,668,40.6198,42.3813,165.184,105.94,104.218,0.00168278,0.313929,20.638,108.275,0.15011,0.0,0.0
2682,670.25,41.3058,42.5075,159.832,105.92,104.377,0.00181396,0.315782,20.6364,107.934,0.1345,0.0,0.0
2691,672.5,41.1035,42.9371,165.102,105.922,103.841,0.00193293,0.316296,20.6342,107.794,0.181796,0.0,0.0
2700,674.75,41.3335,43.3286,159.424,105.91,104.368,0.00197563,0.319741,20.6326,107.584,0.134354,0.0,0.0
2709,677,41.5272,43.1671,161.999,105.927,103.771,0.00200297,0.323364,20.6294,107.364,0.188478,0.0,0.0
2718,679.25,41.1786,43.4622,160.18,105.907,103.803,0.00187085,0.325444,20.625,107.053,0.183858,0.0,0.0
2727,681.5,41.9315,43.4401,162.145,105.902,103.771,0.00159164,0.327743,20.6215,106.903,0.186176,0.0,0.0
2736,683.75,41.9288,43.1299,157.865,105.902,103.846,0.00142497,0.329373,20.6187,106.663,0.17964,0.0,0.0
2745,686,41.6065,43.5754,160.587,105.881,103.519,0.00155147,0.330895,20.6166,106.403,0.20669,0.0,0.0
2754,688.25,41.9068,44.4695,155.321,105.874,102.915,0.00182064,0.334315,20.6139,106.183,0.259736,0.0,0.0
2763,690.5,42.4343,44.8106,158.087,105.86,103.421,0.00193906,0.339206,20.6098,105.993,0.213527,0.0,0.0
2772,692.75,42.5639,44.33,160.324,105.846,102.556,0.00181247,0.342058,20.6042,105.732,0.289288,0.0,0.0
2781,695,42.728,44.8263,159.272,105.804,103.471,0.0016769,0.343085,20.6007,105.382,0.204315,0.0,0.0
2790,697.25,42.9257,44.9242,154.009,105.784,101.926,0.00160581,0.344694,20.5995,105.182,0.340404,0.0,0.0
2799,699.5,43.0883,45.3121,155.672,105.761,102.48,0.00165496,0.348564,20.5979,104.942,0.28874,0.0,0.0
2808,701.75,43.8212,45.2622,158.255,105.728,102.303,0.00186809,0.352338,20.5957,104.601,0.301745,0.0,0.0
2817,704,43.7704,45.2738,160.407,105.718,103.165,0.00203199,0.354458,20.5917,104.411,0.224015,0.0,0.0
2826,706.25,43.6711,45.6966,162.725,105.697,102.147,0.00221436,0.355494,20.5875,104.181,0.3131,0.0,0.0
2835,708.5,43.8194,45.9781,159.616,105.673,102.779,0.00243541,0.355991,20.5859,103.991,0.25445,0.0,0.0
2844,710.75,44.1078,46.1149,152.71,105.632,102.589,0.00248531,0.35711,20.5853,103.59,0.267869,0.0,0.0
2853,713,44.0094,46.2,157.511,105.62,102.798,0.002499,0.360701,20.5836,103.42,0.248139,0.0,0.0
2862,715.25,44.7209,46.2928,157.273,105.599,102.254,0.00253781,0.363108,20.5793,103.13,0.294947,0.0,0.0
2871,717.5,44.7692,46.4993,161.037,105.587,101.519,0.00241348,0.36694,20.5762,102.91,0.360003,0.0,0.0
2880,719.75,44.9558,46.8475,162.151,105.563,101.809,0.00220205,0.372226,20.572,102.61,0.331719,0.0,0.0
2889,722,44.8236,47.0458,161.175,105.565,101.747,0.00209109,0.374071,20.5663,102.359,0.337544,0.0,0.0
2898,724.25,44.775,46.7777,161.201,105.644,101.883,0.00208041,0.375155,20.5635,102.119,0.332166,0.0,0.0
2907,726.5,45.3176,47.656,157.923,105.763,101.775,0.00207784,0.375944,20.5602,101.749,0.352174,0.0,0.0
2916,728.75,45.5329,47.1676,155.499,105.879,102.782,0.00210601,0.376382,20.5587,101.549,0.272056,0.0,0.0
2925,731,45.5248,47.5565,160.609,105.977,102.48,0.00229651,0.37839,20.5582,101.298,0.30745,0.0,0.0
2934,733.25,45.9346,47.7495,152.094,106.073,102.255,0.00251362,0.378937,20.5563,101.068,0.335865,0.0,0.0
2943,735.5,45.9658,47.9864,154.034,106.188,101.706,0.00256922,0.380291,20.5544,100.678,0.395134,0.0,0.0
2952,737.75,45.9505,48.2967,150.162,106.265,102.273,0.00242442,0.383052,20.5532,100.488,0.350892,0.0,0.0
2961,740,46.0271,48.4427,159.492,106.323,102.58,0.00242232,0.383334,20.5519,100.217,0.328328,0.0,0.0
2970,742.25,46.3866,48.4791,157.723,106.367,102.855,0.00264295,0.384446,20.5488,99.8672,0.307638,0.0,0.0
2979,744.5,46.3618,48.697,159.838,106.414,102.905,0.00273053,0.38585,20.5469,99.7471,0.307179,0.0,0.0
2988,746.75,46.7926,48.7292,158.821,106.46,102.111,0.00265488,0.38599,20.5442,99.4668,0.382159,0.0,0.0
2997,749,46.8534,49.0429,153.559,106.442,101.891,0.00252722,0.383891,20.5441,99.1465,0.400336,0.0,0.0
3006,751.25,46.2311,49.1554,160.383,106.415,102.288,0.00239676,0.38277,20.5444,98.7862,0.362462,0.0,0.0
3015,753.5,46.5288,48.7361,155.863,106.396,101.996,0.00232049,0.38272,20.5455,98.6661,0.386954,0.0,0.0
3024,755.75,46.9478,49.1534,158.408,106.346,102.214,0.00237297,0.384649,20.5449,98.4259,0.363075,0.0,0.0
3033,758,47.1494,49.5055,156.634,106.27,101.867,0.00244364,0.384227,20.5433,98.1857,0.387763,0.0,0.0
3042,760.25,47.4433,49.4012,157.507,106.182,101.554,0.00240638,0.383723,20.5435,97.9355,0.408312,0.0,0.0
3051,762.5,47.4802,49.5326,155.05,106.09,101.299,0.00236179,0.382718,20.5448,97.6853,0.423401,0.0,0.0
3060,764.75,47.1332,49.0988,159.088,105.976,101.16,0.00245455,0.380754,20.5461,97.375,0.426181,0.0,0.0
3069,767,47.5904,49.4046,152.709,105.857,101.445,0.00260479,0.377523,20.547,97.0347,0.389994,0.0,0.0
3078,769.25,47.9247,49.2727,161.079,105.911,101.243,0.00263534,0.374962,20.5514,96.8746,0.412995,0.0,0.0
3087,771.5,46.7329,49.7463,164.268,105.962,100.855,0.00264355,0.37537,20.5543,96.6243,0.452554,0.0,0.0
3096,773.75,47.4294,49.9713,159.095,106.017,101.036,0.00263194,0.377149,20.5538,96.3641,0.440976,0.0,0.0
3105,776,47.4891,50.0458,157.153,106.104,100.875,0.00260562,0.37894,20.5512,96.0438,0.463054,0.0,0.0
3114,778.25,47.5219,49.876,158.111,106.172,101.565,0.00254179,0.378823,20.55,95.8537,0.406468,0.0,0.0
3123,780.5,47.4554,49.5685,160.69,106.258,101.191,0.00250292,0.377858,20.55,95.6335,0.447601,0.0,0.0
3132,782.75,47.32,50.2687,160.625,106.31,101.844,0.00244417,0.376162,20.5509,95.3132,0.393182,0.0,0.0
3141,785,47.4047,49.8654,161.294,106.404,102.025,0.00236828,0.37331,20.5513,95.1731,0.385109,0.0,0.0
3150,787.25,47.0792,49.6744,160.644,106.475,102.315,0.00236892,0.371108,20.5541,94.9529,0.365131,0.0,0.0
3159,789.5,47.6127,49.9578,163.419,106.529,102.574,0.00248969,0.367453,20.5586,94.7527,0.346618,0.0,0.0
3168,791.75,47.2998,50.0104,151.574,106.6,102.146,0.00260945,0.362058,20.5614,94.4725,0.391035,0.0,0.0
3177,794,47.1986,49.6921,168.19,106.667,102.599,0.0025394,0.355169,20.5671,94.3824,0.35626,0.0,0.0
3186,796.25,46.7464,49.1811,158.958,106.697,102.642,0.00244012,0.347464,20.5746,94.2223,0.354948,0.0,0.0
3195,798.5,46.884,49.3456,159.832,106.715,102.498,0.00242851,0.338377,20.5826,94.0221,0.369385,0.0,0.0
3204,800.75,45.922,48.7058,163.231,106.743,103.255,0.00232131,0.326482,20.5949,93.8519,0.30443,0.0,0.0
3213,803,45.8719,48.6061,162.7,106.754,103.221,0.00220938,0.31501,20.6099,93.7018,0.308391,0.0,0.0
3222,805.25,45.6647,48.2942,164.572,106.752,103.868,0.00218664,0.30305,20.6206,93.5617,0.250919,0.0,0.0
3231,807.5,45.0604,48.15,165.861,106.726,104.195,0.00225112,0.29047,20.6318,93.3815,0.219938,0.0,0.0
3240,809.75,44.9652,47.8832,165.722,106.705,104.065,0.0023517,0.278717,20.644,93.3315,0.229527,0.0,0.0
3249,812,44.4715,47.5477,164.397,106.668,104.296,0.00243335,0.266504,20.6583,93.2514,0.206077,0.0,0.0
3258,814.25,44.0343,47.1929,166.968,106.612,105.017,0.00252534,0.254681,20.6724,93.0712,0.138123,0.0,0.0
3267,816.5,43.313,46.2718,165.683,106.541,104.234,0.00262248,0.243107,20.6879,93.0612,0.200594,0.0,0.0
3276,818.75,43.0739,45.7025,164.099,106.46,104.567,0.00264662,0.232522,20.701,92.9812,0.16432,0.0,0.0
3285,821,43.032,45.1061,166.159,106.361,104.554,0.00261028,0.220545,20.713,92.8811,0.157012,0.0,0.0
3294,823.25,42.259,45.1832,165.479,106.24,104.754,0.00262538,0.208364,20.7265,92.7209,0.129137,0.0,0.0
3303,825.5,41.2756,44.5828,170,106.145,103.891,0.00282721,0.197726,20.7405,92.751,0.196626,0.0,0.0
3312,827.75,41.164,43.9645,167.334,106.02,104.328,0.00304843,0.186836,20.7532,92.7209,0.147414,0.0,0.0
3321,830,40.1909,43.5508,170.95,105.882,104.503,0.00319754,0.175812,20.7664,92.6409,0.120172,0.0,0.0
3330,832.25,39.9558,42.5049,171.033,105.763,104.856,0.00337257,0.166502,20.778,92.5508,0.0789587,0.0,0.0
3339,834.5,39.6989,41.9601,172.271,105.637,104.72,0.00373023,0.157051,20.789,92.5608,0.0799051,0.0,0.0
3348,836.75,39.1536,41.6628,168.592,105.509,105.151,0.00414612,0.149781,20.8008,92.5208,0.0311625,0.0,0.0
3357,839,38.0868,41.1401,175.254,105.386,105.216,0.00453531,0.143073,20.8114,92.3706,0.0148634,0.0,0.0
3366,841.25,37.6754,40.8519,170.827,105.287,104.88,0.0048385,0.136633,20.8193,92.4207,0.0355135,0.0,0.0
3375,843.5,37.1981,40.2836,170.977,105.193,104.866,0.00502924,0.130899,20.8267,92.4107,0.0285169,0.0,0.0
3384,845.75,37.447,39.6143,170.301,105.087,104.874,0.00521966,0.125777,20.8336,92.3506,0.0185822,0.0,0.0
3393,848,36.9439,38.7663,171.393,104.984,104.839,0.00547782,0.121191,20.8405,92.2005,0.0126352,0.0,0.0
3402,850.25,36.2395,38.1967,172.157,104.912,104.602,0.00575026,0.117466,20.8458,92.2906,0.0271895,0.0,0.0
3411,852.5,35.1301,38.3481,174.44,104.854,104.704,0.00592566,0.114879,20.8522,92.2605,0.0131282,0.0,0.0
3420,854.75,34.9013,37.2133,174.94,104.763,104.606,0.00610693,0.1116,20.8557,92.1605,0.0137368,0.0,0.0
3429,857,35.0085,37.0446,170.166,104.724,104.732,0.0062752,0.108744,20.8586,92.1304,-0.000679408,0.0,0.0
3438,859.25,34.4928,36.8451,169.906,104.688,104.609,0.00637782,0.10697,20.8622,92.1504,0.00690918,0.0,0.0
3447,861.5,34.3857,36.5186,174.742,104.638,104.402,0.00640984,0.105806,20.8648,92.1104,0.0206585,0.0,0.0
3456,863.75,34.1279,35.7515,173.242,104.605,104.617,0.00641234,0.105243,20.866,91.9903,-0.00107976,0.0,0.0
3465,866,33.7068,35.1396,174.9,104.599,104.511,0.00644803,0.10489,20.8677,92.0604,0.00773863,0.0,0.0
3474,868.25,33.1392,34.9529,168.147,104.593,104.48,0.00654806,0.104538,20.8683,92.0203,0.00992104,0.0,0.0
3483,870.5,32.9724,34.7698,174.26,104.578,104.437,0.00660716,0.103755,20.8686,91.9803,0.0124291,0.0,0.0
3492,872.75,32.0733,34.7527,171.217,104.59,104.409,0.00662779,0.102529,20.8701,91.9202,0.0158938,0.0,0.0
3501,875,32.0219,34.3092,175.625,104.618,104.484,0.00670034,0.101424,20.8706,91.9603,0.0117288,0.0,0.0
3510,877.25,31.8164,33.7417,172.317,104.639,104.286,0.00671942,0.100217,20.8722,91.9102,0.0310264,0.0,0.0
3519,879.5,31.7382,32.9787,173.532,104.665,104.565,0.00665104,0.0999047,20.8729,91.8001,0.00870005,0.0,0.0
3528,881.75,31.4989,32.5222,171.924,104.719,104.674,0.0065102,0.0995095,20.8744,91.8602,0.0039804,0.0,0.0
3537,884,31.4088,32.1622,171.237,104.768,104.948,0.00650347,0.0999089,20.8752,91.8302,-0.0156752,0.0,0.0
3546,886.25,30.6185,32.5954,176.778,104.828,104.636,0.00668734,0.100484,20.8748,91.7701,0.0167301,0.0,0.0
3555,888.5,30.3296,32.4721,173.948,104.896,104.893,0.00679564,0.101573,20.874,91.7601,0.000262137,0.0,0.0
3564,890.75,29.8234,31.5806,175.663,104.975,104.857,0.00681385,0.104011,20.8732,91.7401,0.0102593,0.0,0.0
3573,893,29.9146,31.2878,169.325,105.051,105.084,0.00682497,0.106304,20.8697,91.7301,-0.0029512,0.0,0.0
3582,895.25,29.5847,31.0981,172.466,105.113,105.083,0.00682339,0.107727,20.8677,91.6,0.00261994,0.0,0.0
3591,897.5,29.6225,30.855,170.381,105.19,105.242,0.00674789,0.10743,20.8669,91.65,-0.0045531,0.0,0.0
3600,899.75,29.4478,30.7481,178.02,105.259,105.087,0.0066783,0.106063,20.8666,91.65,0.0149899,0.0,0.0
3609,902,28.0442,29.6209,172.656,105.353,105.089,0.00675455,0.104514,20.8671,91.63,0.0229414,0.0,0.0
3618,904.25,28.5872,29.5047,171.219,105.42,105.317,0.00698367,0.102479,20.8693,91.5299,0.00896957,0.0,0.0
3627,906.5,28.187,29.3365,169.034,105.498,105.462,0.00714846,0.100842,20.8725,91.5699,0.00313314,0.0,0.0
3636,908.75,27.9399,28.6819,176.556,105.573,105.809,0.00724739,0.0998718,20.8744,91.5599,-0.0204463,0.0,0.0
3645,911,27.6232,28.7446,175.19,105.648,105.756,0.00726088,0.0994125,20.8765,91.4498,-0.00939056,0.0,0.0
3654,913.25,27.638,28.4766,170.609,105.724,105.693,0.00727692,0.0985695,20.8774,91.4899,0.00273023,0.0,0.0
3663,915.5,27.5458,28.1346,172.711,105.794,105.911,0.00723351,0.0975899,20.8778,91.4498,-0.0100854,0.0,0.0
3672,917.75,27.5105,28.1279,172.422,105.834,105.873,0.0070836,0.0971128,20.8785,91.4398,-0.00340956,0.0,0.0
3681,920,27.3712,28.1874,173.129,105.874,106.13,0.00707613,0.0965693,20.8796,91.3097,-0.0221586,0.0,0.0
3690,922.25,26.9808,27.9223,174.58,105.914,105.918,0.00719899,0.0959424,20.88,91.3597,-0.00038612,0.0,0.0
3699,924.5,26.1505,27.3422,169.926,105.948,106.075,0.00738079,0.0947988,20.8802,91.3497,-0.0109887,0.0,0.0
3708,926.75,26.5845,27.6664,176.163,105.957,106.212,0.00745455,0.0939354,20.881,91.2897,-0.0220075,0.0,0.0
3717,929,26.4235,26.8982,175.334,105.983,106.052,0.00736395,0.0931942,20.882,91.2997,-0.00597385,0.0,0.0
3726,931.25,26.4174,27.0204,176.25,105.992,106.227,0.00725582,0.0921184,20.8826,91.2897,-0.0202821,0.0,0.0
3735,933.5,25.9238,26.462,173.4,105.999,106.117,0.00708684,0.0915791,20.8849,91.2496,-0.0101931,0.0,0.0
3744,935.75,26.3306,26.9276,178.481,105.995,106.128,0.00677818,0.0909552,20.8863,91.1496,-0.0115136,0.0,0.0
3753,938,25.8901,26.145,172.736,105.997,106.12,0.00658132,0.0910905,20.8869,91.2296,-0.0105977,0.0,0.0
3762,940.25,25.698,26.2983,169.234,105.997,106.174,0.00651425,0.0912879,20.8871,91.2196,-0.0153098,0.0,0.0
3771,942.5,25.5065,25.9697,176.777,105.982,106.18,0.00659968,0.0914676,20.8869,91.1296,-0.0171196,0.0,0.0
3780,944.75,26.1293,25.8156,174.406,105.958,106.124,0.0068302,0.0916844,20.8857,91.1095,-0.0143378,0.0,0.0
3789,947,25.6386,26.1017,178.458,105.959,106.171,0.00701449,0.0917697,20.8852,91.1596,-0.0183546,0.0,0.0
3798,949.25,25.5502,25.9259,176.65,105.952,106.04,0.00703456,0.0915315,20.885,91.1195,-0.00762055,0.0,0.0
3807,951.5,25.2182,26.0134,174.257,105.888,105.982,0.00686643,0.0913366,20.8849,91.0195,-0.0081021,0.0,0.0
3816,953.75,25.3315,25.6756,169.098,105.869,106.028,0.00659528,0.0909814,20.8851,91.0595,-0.0137585,0.0,0.0
3825,956,25.6635,25.4598,172.519,105.878,105.993,0.00641399,0.0906005,20.8855,91.0495,-0.0099061,0.0,0.0
3834,958.25,24.6065,25.3025,175.973,105.836,105.86,0.00638431,0.090601,20.8867,91.0295,-0.00212577,0.0,0.0
3843,960.5,24.8495,25.0065,173.668,105.819,105.909,0.00650105,0.09057,20.8875,90.9694,-0.00782224,0.0,0.0
3852,962.75,24.7078,24.9207,170.115,105.79,105.919,0.00645006,0.0906404,20.8883,90.9994,-0.011115,0.0,0.0
3861,965,24.7868,25.202,173.623,105.773,105.706,0.0062906,0.0903492,20.8896,90.9294,0.00586571,0.0,0.0
3870,967.25,25.0174,25.354,178.587,105.712,105.786,0.00621496,0.0899142,20.8901,90.8693,-0.00641487,0.0,0.0
3879,969.5,24.6448,24.7536,173.187,105.699,105.584,0.00618074,0.0904768,20.8893,90.8993,0.00996905,0.0,0.0
3888,971.75,24.7327,24.8626,177.241,105.67,105.769,0.00616095,0.0909332,20.8885,90.8793,-0.00863015,0.0,0.0
3897,974,24.7996,24.4311,169.775,105.648,105.428,0.00617463,0.0906418,20.8885,90.8693,0.0190291,0.0,0.0
3906,976.25,24.3472,24.4061,173.476,105.6,105.822,0.00615586,0.0898178,20.8881,90.7792,-0.0192006,0.0,0.0
3915,978.5,24.4668,24.4501,175.849,105.582,105.557,0.00601867,0.0892033,20.8878,90.8493,0.00212637,0.0,0.0
3924,980.75,24.5883,24.2756,174.96,105.579,105.919,0.00600042,0.0891224,20.8883,90.8093,-0.0294475,0.0,0.0
3933,983,24.0015,24.3793,173.368,105.537,105.801,0.0061328,0.0890929,20.8885,90.7092,-0.0229513,0.0,0.0
3942,985.25,23.465,24.2223,173.659,105.528,105.622,0.00626813,0.0889129,20.8893,90.7192,-0.00814638,0.0,0.0
3951,987.5,23.328,23.9839,176.882,105.517,105.597,0.0062684,0.0891285,20.8897,90.6992,-0.00694774,0.0,0.0
3960,989.75,23.9784,24.0147,170.804,105.508,105.773,0.00617479,0.0893405,20.8899,90.7192,-0.0229546,0.0,0.0
3969,992,24.2176,24.1451,172.623,105.515,105.698,0.0060817,0.0891166,20.8899,90.6491,-0.0159056,0.0,0.0
3978,994.25,23.4469,23.9322,171.671,105.675,105.772,0.00601398,0.0887937,20.8899,90.7192,-0.00840329,0.0,0.0
3987,996.5,23.7978,23.9368,174.029,105.784,105.986,0.00585083,0.088666,20.8898,90.6491,-0.0174906,0.0,0.0
3996,998.75,23.1679,23.4128,176.228,105.882,106.197,0.00580868,0.0886586,20.8896,90.6391,-0.0271861,0.0,0.0
4005,1001,23.445,23.7867,174.926,105.978,106.155,0.00593709,0.0882784,20.8896,90.5691,-0.0152972,0.0,0.0
4014,1003.25,23.3332,23.3453,172.347,106.072,106.377,0.00605772,0.0880783,20.8895,90.6191,-0.0262988,0.0,0.0
4023,1005.5,23.5612,23.3692,178.407,106.167,106.384,0.00600176,0.0881863,20.8895,90.5691,-0.01866,0.0,0.0
4032,1007.75,23.4172,23.5775,175.123,106.228,106.335,0.0058347,0.0883291,20.8895,90.499,-0.0091768,0.0,0.0
4041,1010,23.3861,23.3891,179.968,106.297,106.463,0.00573496,0.0890639,20.8895,90.489,-0.0143378,0.0,0.0
4050,1012.25,23.4625,23.3325,176.456,106.338,106.495,0.0057709,0.0895911,20.8891,90.519,-0.0135195,0.0,0.0
4059,1014.5,23.2438,23.3769,174.614,106.372,106.56,0.00579817,0.0897041,20.8879,90.489,-0.016242,0.0,0.0
4068,1016.75,22.9391,23.107,173.371,106.398,106.661,0.00579372,0.089607,20.8889,90.3889,-0.0226081,0.0,0.0
4076,1018.75,23.3553,23.3674,178.766,106.397,106.689,0.00574933,0.0892263,20.8894,90.3689,-0.0251169,0.0,0.0