File: 01_Data/Basswood_Panel/Cone/Basswood_Panel_Cone_HF50Scan_221219_R3.csv
Names,Time,Stack TC,Smoke TC,Exh Press,Smoke Comp,Smoke Meas,CO Meter,CO2 Meter,O2 Meter,Sample Mass,Ext Coeff,Start Test,Flame Verif
Chan Gain,,500,500,1,1,1,1,1,1,1,1,1.0,1.0
Offset,,0,0,0.136404,0,0,0,0,0,0,0,0.0,0.0
Gain,,1,1,25.011,13.2727,13.2115,1,1,1,1.00087,1.04452,1.0,1.0
Units,sec,C,C,Pa,%,%,%,%,%,g,/m,,
Baseline,,32.662,32.7343,168.795,100.157,100.299,-0.000204308,0.0470207,20.943,-445.73,-0.0129471,,
8,1.75,30.3713,30.9546,171.701,100.325,100.894,0.000122459,0.0521085,20.9409,165.625,-0.0518824,0.0,0.0
16,3.75,29.628,30.5154,172.492,100.363,100.629,0.000205542,0.054281,20.9387,165.555,-0.0242079,0.0,0.0
24,5.75,30.483,30.6198,170.473,100.408,100.601,0.000237962,0.0552775,20.9365,165.474,-0.0175343,0.0,0.0
32,7.75,30.2487,31.0454,168.639,100.439,100.703,0.00013659,0.0553454,20.9342,165.404,-0.024048,0.0,0.0
40,9.75,30.2668,31.1057,166.277,100.474,99.9529,-2.75378e-05,0.0553697,20.9329,165.344,0.0476163,0.0,0.0
48,11.75,30.3436,31.1223,167.341,100.503,99.3755,-5.94925e-05,0.0549122,20.9327,165.284,0.103355,0.0,0.0
56,13.75,30.7152,31.2231,166.485,100.528,99.0699,-7.69501e-05,0.0542254,20.9335,165.214,0.133827,0.0,0.0
64,15.75,30.6368,31.002,162.134,100.537,99.2804,-0.000214971,0.0533492,20.9344,165.094,0.115269,0.0,0.0
72,17.75,30.4663,31.6564,156.207,100.545,98.8865,-0.000243262,0.0524047,20.9359,164.854,0.152359,0.0,1.0
80,19.75,31.7612,32.2627,149.571,100.57,97.031,-0.000118714,0.0518162,20.9366,164.564,0.328201,0.0,1.0
88,21.75,33.2286,32.5133,147.176,100.562,97.2991,7.97098e-05,0.0519052,20.9373,164.203,0.30218,0.0,1.0
96,23.75,34.2996,33.9042,151.325,100.552,97.3108,0.000327584,0.0606629,20.9366,163.923,0.30023,0.0,0.0
104,25.75,35.8101,35.4497,152.175,100.532,95.2086,0.000646175,0.124215,20.933,163.593,0.49849,0.0,0.0
112,27.75,37.461,36.8441,146.499,100.499,95.0566,0.00102727,0.2313,20.8848,163.283,0.510102,0.0,0.0
120,29.75,38.7176,38.3148,148.983,100.456,94.8938,0.00151608,0.324026,20.8007,162.962,0.521901,0.0,0.0
128,31.75,39.984,39.2999,144.82,100.4,95.0437,0.00219392,0.3909,20.6989,162.612,0.502368,0.0,0.0
136,33.75,40.9198,40.421,153.409,100.326,94.2446,0.00275416,0.433034,20.5934,162.272,0.572962,0.0,0.0
144,35.75,42.4349,42.4275,143.198,100.263,93.4169,0.00311085,0.459009,20.5217,161.931,0.64798,0.0,0.0
152,37.75,43.1623,43.2425,148.708,100.191,93.854,0.00338161,0.476829,20.4805,161.601,0.598622,0.0,0.0
160,39.75,44.5383,44.3469,147.818,100.114,94.3402,0.00365515,0.490888,20.4531,161.241,0.544309,0.0,0.0
168,41.75,45.2611,45.2448,146.67,100.065,93.5512,0.00391528,0.500227,20.428,160.89,0.616777,0.0,0.0
176,43.75,46.2779,46.2853,143.856,100.02,93.6673,0.00411278,0.506997,20.4127,160.55,0.60122,0.0,0.0
184,45.75,47.2803,47.4121,149.257,99.969,94.5188,0.00427796,0.512823,20.4015,160.23,0.513661,0.0,0.0
192,47.75,48.2047,48.2565,148.864,99.918,94.3164,0.0043508,0.516485,20.3921,159.84,0.528623,0.0,0.0
200,49.75,48.858,49.0459,149.915,99.9743,93.8842,0.00434959,0.518624,20.3858,159.529,0.57587,0.0,0.0
208,51.75,49.6301,50.1549,144.97,100.113,94.9337,0.00438913,0.518494,20.3831,159.169,0.486738,0.0,0.0
216,53.75,50.1623,50.9352,141.795,100.275,94.2995,0.00443868,0.518696,20.3815,158.829,0.56297,0.0,0.0
224,55.75,50.9225,51.5902,148.534,100.425,95.1236,0.00436095,0.52109,20.38,158.528,0.496967,0.0,0.0
232,57.75,51.6269,52.6338,145.168,100.536,95.707,0.00423985,0.522174,20.3783,158.208,0.451063,0.0,0.0
240,59.75,52.4406,53.4042,146.893,100.635,94.9389,0.00411643,0.523029,20.3768,157.888,0.533892,0.0,0.0
248,61.75,52.6407,53.6367,149.044,100.698,95.6312,0.00397076,0.516905,20.3767,157.528,0.473003,0.0,0.0
256,63.75,53.2526,54.4695,147.958,100.732,95.605,0.00381365,0.507591,20.379,157.177,0.47861,0.0,0.0
264,65.75,53.2922,54.6903,145.33,100.706,95.9086,0.00368182,0.498821,20.3879,156.857,0.447202,0.0,0.0
272,67.75,52.8717,54.251,148.331,100.657,96.3622,0.0036252,0.491994,20.3993,156.577,0.399511,0.0,0.0
280,69.75,54.8142,56.4336,145.064,100.562,96.2182,0.00357843,0.486466,20.4109,156.226,0.404576,0.0,0.0
288,71.75,54.6126,56.0966,149.836,100.411,96.602,0.00346817,0.481758,20.4184,155.946,0.354322,0.0,0.0
296,73.75,55.3493,57.117,152.496,100.264,96.1686,0.00335866,0.477947,20.4238,155.636,0.382097,0.0,0.0
304,75.75,55.4292,57.3544,152.817,100.343,96.2053,0.00331864,0.473307,20.4292,155.346,0.385854,0.0,0.0
312,77.75,55.5648,57.5944,151.892,100.439,96.4307,0.0033159,0.467951,20.4341,155.045,0.373175,0.0,0.0
320,79.75,55.9825,58.0956,144.289,100.562,96.3186,0.00329455,0.461125,20.44,154.775,0.39502,0.0,0.0
328,81.75,56.2842,58.4809,148.238,100.706,96.5218,0.00323979,0.453992,20.4476,154.475,0.388803,0.0,0.0
336,83.75,56.421,58.7337,146.81,100.789,97.3673,0.00320139,0.449772,20.4557,154.175,0.316447,0.0,0.0
344,85.75,56.7284,59.1452,156.946,100.9,97.5939,0.00310305,0.446043,20.4618,153.904,0.30527,0.0,0.0
352,87.75,57.2565,59.7375,147.971,100.989,97.2161,0.00298043,0.442243,20.4662,153.654,0.348894,0.0,0.0
360,89.75,57.5508,59.9211,155.126,101.067,97.7168,0.00290729,0.440026,20.471,153.374,0.308836,0.0,0.0
368,91.75,57.592,60.1594,154.062,101.112,97.8346,0.00287391,0.439333,20.4754,153.124,0.301879,0.0,0.0
376,93.75,57.9991,60.6674,148.996,101.151,97.4935,0.00287962,0.436802,20.4773,152.893,0.337402,0.0,0.0
384,95.75,57.4727,60.2561,150.487,101.15,98.0531,0.00292531,0.433129,20.4791,152.623,0.284923,0.0,0.0
392,97.75,57.9924,60.9077,150.002,101.121,98.0543,0.00299065,0.430117,20.484,152.323,0.282168,0.0,0.0
400,99.75,58.3294,61.0751,144.731,101.055,97.7019,0.00299647,0.426128,20.4879,152.043,0.30917,0.0,0.0
408,101.75,58.5187,61.7125,149.615,100.952,97.5471,0.00293974,0.423929,20.4905,151.742,0.314405,0.0,0.0
416,103.75,58.521,61.4414,155.441,100.823,98.166,0.00299311,0.422863,20.4948,151.502,0.244722,0.0,0.0
424,105.75,58.7235,61.6615,152.227,100.695,98.0866,0.00307445,0.42185,20.4966,151.242,0.240463,0.0,0.0
432,107.75,58.5131,61.6895,153.325,100.514,97.8378,0.00313356,0.419377,20.4977,151.012,0.24724,0.0,0.0
440,109.75,59.1731,62.2576,150.339,100.322,97.4016,0.00295954,0.414648,20.4999,150.722,0.270704,0.0,0.0
448,111.75,59.161,62.197,150.501,100.138,97.7318,0.00267265,0.410345,20.505,150.501,0.222883,0.0,0.0
456,113.75,58.4968,61.9025,148.508,99.9653,96.6702,0.00251673,0.407883,20.5101,150.221,0.307114,0.0,0.0
464,115.75,58.8171,62.2781,149.578,99.7871,97.4749,0.00250829,0.406055,20.5137,149.981,0.214805,0.0,0.0
472,117.75,58.6697,62.0251,151.567,99.6502,96.8726,0.00258103,0.403745,20.5162,149.711,0.259021,0.0,0.0
480,119.75,58.888,62.321,155.974,99.5145,97.2177,0.00261038,0.399828,20.5184,149.44,0.213951,0.0,0.0
488,121.75,58.8096,62.4719,150.017,99.4262,96.9573,0.00251922,0.394639,20.5233,149.2,0.230398,0.0,0.0
496,123.75,59.1598,62.5792,150.749,99.3663,97.2504,0.00236451,0.390957,20.5288,148.96,0.197214,0.0,0.0
504,125.75,59.1558,62.5429,155.442,99.3323,96.4537,0.00222928,0.388402,20.5346,148.69,0.269446,0.0,0.0
512,127.75,58.9933,62.6407,154.125,99.3416,96.7871,0.00219686,0.387449,20.5385,148.43,0.238686,0.0,0.0
520,129.75,58.4408,61.98,153.463,99.3533,97.1842,0.00218495,0.386988,20.5402,148.169,0.202251,0.0,0.0
528,131.75,58.7946,62.5687,152.039,99.4108,97.4572,0.00214432,0.38423,20.5407,147.899,0.181856,0.0,0.0
536,133.75,59.0502,62.7843,155.193,99.4817,97.5173,0.00208331,0.379785,20.5438,147.639,0.18274,0.0,0.0
544,135.75,58.9583,62.7351,153.844,99.5801,97.6023,0.00201312,0.377149,20.5481,147.349,0.183812,0.0,0.0
552,137.75,59.0071,62.7824,152.545,99.7065,97.6209,0.0020099,0.374758,20.552,147.098,0.193691,0.0,0.0
560,139.75,59.3106,63.0722,152.784,99.8288,98.0874,0.00213827,0.373401,20.555,146.858,0.161247,0.0,0.0
568,141.75,58.8247,62.6942,154.693,99.9633,98.3152,0.00225839,0.370847,20.5572,146.618,0.152327,0.0,0.0
576,143.75,59.3665,63.059,154.371,100.086,98.4833,0.00228199,0.368587,20.5603,146.388,0.147914,0.0,0.0
584,145.75,59.0917,62.7846,152.739,100.217,98.0559,0.00224714,0.367126,20.5625,146.178,0.199768,0.0,0.0
592,147.75,58.9676,62.6268,152.682,100.319,98.9078,0.00217727,0.366384,20.5648,145.897,0.129834,0.0,0.0
600,149.75,59.2437,63.0568,150.71,100.407,98.7921,0.0021144,0.365514,20.5658,145.667,0.148584,0.0,0.0
608,151.75,59.0672,62.8584,148.066,100.478,98.8659,0.00206549,0.363076,20.5662,145.477,0.14821,0.0,0.0
616,153.75,59.3199,62.8537,156.881,100.523,99.1945,0.00196556,0.359346,20.569,145.227,0.12187,0.0,0.0
624,155.75,59.069,62.991,150.555,100.548,99.1671,0.00183161,0.356348,20.5732,144.997,0.126691,0.0,0.0
632,157.75,58.7272,62.6174,154.422,100.553,98.7272,0.00174013,0.353553,20.5765,144.776,0.167866,0.0,0.0
640,159.75,58.9923,62.813,150.927,100.506,98.9429,0.00174107,0.349874,20.5803,144.536,0.143586,0.0,0.0
648,161.75,59.016,62.8353,154.642,100.434,99.0417,0.00172605,0.34743,20.5843,144.336,0.127868,0.0,0.0
656,163.75,58.9539,62.6204,155.436,100.342,98.603,0.00173918,0.345975,20.5873,144.106,0.160185,0.0,0.0
664,165.75,58.7869,62.4654,153.982,100.215,98.7309,0.00178447,0.344183,20.5888,143.886,0.136695,0.0,0.0
672,167.75,58.8891,62.3042,152.381,100.093,98.9078,0.00180019,0.341962,20.5923,143.715,0.109094,0.0,0.0
680,169.75,59.0423,62.5221,151.968,100.003,98.3325,0.00178254,0.339901,20.5946,143.525,0.154349,0.0,0.0
688,171.75,58.8574,62.7357,154.889,99.9127,98.547,0.00179037,0.33879,20.5976,143.325,0.126105,0.0,0.0
696,173.75,58.675,62.4375,156.696,99.9046,98.7397,0.00187565,0.337065,20.5992,143.105,0.107461,0.0,0.0
704,175.75,58.6522,62.5998,154.033,100.106,98.9611,0.00203736,0.334035,20.6007,142.905,0.105425,0.0,0.0
712,177.75,58.549,62.3602,152.367,100.343,99.1248,0.00213443,0.329519,20.6027,142.685,0.111944,0.0,0.0
720,179.75,58.4101,62.2156,150.414,100.518,99.2304,0.00208154,0.32654,20.606,142.464,0.118112,0.0,0.0
728,181.75,58.5011,62.3212,153.965,100.639,99.657,0.00196727,0.327367,20.6093,142.234,0.0898795,0.0,0.0
736,183.75,58.8321,62.3931,152.216,100.688,99.4078,0.00188437,0.327877,20.6107,142.054,0.117204,0.0,0.0
744,185.75,58.643,62.0396,153.669,100.666,99.0836,0.00182925,0.326591,20.6114,141.784,0.14514,0.0,0.0
752,187.75,59.0749,62.3019,147.496,100.571,99.257,0.00184284,0.326647,20.6116,141.604,0.120491,0.0,0.0
760,189.75,58.2752,62.1381,154.492,100.413,99.1748,0.00189158,0.326486,20.6119,141.403,0.11372,0.0,0.0
768,191.75,58.4239,62.5819,151.927,100.238,98.8695,0.00195468,0.325461,20.6128,141.173,0.125981,0.0,0.0
776,193.75,58.0528,61.685,153.686,100.356,98.9724,0.00201949,0.324089,20.614,140.973,0.127226,0.0,0.0
784,195.75,58.5564,62.294,154.823,100.479,99.1977,0.00204603,0.323768,20.6146,140.713,0.11762,0.0,0.0
792,197.75,57.7889,61.4509,153.915,100.625,99.4271,0.00198327,0.324429,20.6149,140.533,0.109742,0.0,0.0
800,199.75,58.0047,61.8827,157.797,100.784,99.4908,0.00194441,0.324308,20.6156,140.322,0.118357,0.0,0.0
808,201.75,57.6914,61.6592,155.358,100.925,99.5239,0.00185219,0.323004,20.6168,140.092,0.128118,0.0,0.0
816,203.75,58.0243,61.9464,154.657,101.048,99.9602,0.00172624,0.321494,20.6173,139.902,0.0992165,0.0,0.0
824,205.75,58.115,62.0282,157.608,101.108,99.9311,0.00166217,0.32027,20.6185,139.662,0.107275,0.0,0.0
832,207.75,58.313,62.007,150.594,101.107,99.9138,0.0016698,0.318714,20.6203,139.432,0.108791,0.0,0.0
840,209.75,57.9566,61.7599,153.095,101.044,99.8505,0.00171477,0.318275,20.6215,139.222,0.10887,0.0,0.0
848,211.75,58.0403,61.4819,154.21,100.908,99.9763,0.00174519,0.317976,20.6224,138.981,0.0850208,0.0,0.0
856,213.75,57.8881,61.6724,155.15,100.711,99.6574,0.00173492,0.317554,20.6237,138.731,0.0963301,0.0,0.0
864,215.75,57.8586,61.6164,149.324,100.472,99.5546,0.00164943,0.317662,20.6242,138.521,0.0840198,0.0,0.0
872,217.75,58.1929,61.9723,153.291,100.188,99.0715,0.00154505,0.317827,20.6245,138.291,0.102689,0.0,0.0
880,219.75,57.8206,61.4888,149.56,99.9329,98.6365,0.00146213,0.316555,20.6246,138.121,0.119644,0.0,0.0
888,221.75,58.1345,61.423,155.799,99.6693,98.6075,0.00144571,0.315217,20.6245,137.93,0.0981327,0.0,0.0
896,223.75,58.1985,61.5016,154.035,99.4679,98.3047,0.00151246,0.314648,20.6254,137.69,0.107785,0.0,0.0
904,225.75,58.25,61.7823,149.693,99.3541,98.0829,0.00155859,0.316574,20.626,137.49,0.117987,0.0,0.0
912,227.75,58.0633,61.5415,152.97,99.3278,98.1277,0.0016243,0.319235,20.6258,137.27,0.111379,0.0,0.0
920,229.75,58.1372,61.9813,150.414,99.395,98.1934,0.00172249,0.318781,20.6236,137.05,0.111445,0.0,0.0
928,231.75,58.2658,61.419,148.256,99.5465,98.4478,0.00167429,0.318539,20.6226,136.839,0.10169,0.0,0.0
936,233.75,58.3516,61.4238,159.402,99.7567,98.4168,0.0014291,0.318107,20.6227,136.639,0.123908,0.0,0.0
944,235.75,58.0552,61.2631,153.545,99.9965,98.7933,0.00117296,0.316694,20.6235,136.429,0.110915,0.0,0.0
952,237.75,58.1381,61.4854,151.21,100.213,99.1227,0.00108514,0.315299,20.6239,136.219,0.10025,0.0,0.0
960,239.75,57.9435,61.5513,152.992,100.389,99.3913,0.00119555,0.314142,20.6243,136.029,0.0914856,0.0,0.0
968,241.75,57.7993,61.2159,153.575,100.515,99.4457,0.00139756,0.313439,20.6256,135.849,0.0980333,0.0,0.0
976,243.75,57.4418,61.3219,151.787,100.558,99.6287,0.00159166,0.313125,20.6272,135.668,0.0850966,0.0,0.0
984,245.75,57.7223,61.4318,156.204,100.526,99.5332,0.0017177,0.313153,20.6292,135.518,0.0909351,0.0,0.0
992,247.75,58.2285,61.1936,157.666,100.428,99.3235,0.00170681,0.312187,20.6301,135.308,0.101317,0.0,0.0
1000,249.75,57.8556,61.124,153.641,100.274,99.0437,0.00169163,0.311554,20.6313,135.098,0.113074,0.0,0.0
1008,251.75,58.0013,61.1915,148.337,100.07,99.0453,0.00175608,0.311148,20.6323,134.878,0.0942892,0.0,0.0
1016,253.75,58.0706,61.4856,154.716,99.9354,98.7393,0.00187769,0.312067,20.6327,134.648,0.110322,0.0,0.0
1024,255.75,58.1864,61.4969,155.908,99.8613,98.8272,0.00194439,0.314252,20.6317,134.447,0.0953702,0.0,0.0
1032,257.75,57.8162,61.211,149.485,100.104,98.9627,0.00188892,0.315094,20.6299,134.247,0.10509,0.0,0.0
1040,259.75,57.8357,61.1437,153.135,100.385,99.3985,0.00173452,0.314802,20.6291,134.057,0.090483,0.0,0.0
1048,261.75,57.8682,61.2703,151.565,100.576,99.5207,0.00161629,0.314448,20.6287,133.847,0.0966629,0.0,0.0
1056,263.75,57.5997,61.0579,154.717,100.638,99.4654,0.00168819,0.313592,20.6286,133.647,0.107357,0.0,0.0
1064,265.75,57.8797,61.242,151.602,100.606,99.3562,0.001801,0.31332,20.6287,133.467,0.11455,0.0,0.0
1072,267.75,58.3545,61.2563,152.92,100.421,99.1594,0.00176565,0.313209,20.6299,133.226,0.115801,0.0,0.0
1080,269.75,58.0361,61.2925,154.346,100.234,99.1127,0.00167865,0.312307,20.6304,133.016,0.103071,0.0,0.0
1088,271.75,58.1415,61.2918,153.99,100.391,99.2473,0.00167101,0.312004,20.6306,132.796,0.105022,0.0,0.0
1096,273.75,58.0729,61.241,154.185,100.604,99.5864,0.00174308,0.313374,20.6307,132.606,0.0931594,0.0,0.0
1104,275.75,57.7742,60.9236,149.401,100.795,99.7731,0.00174383,0.31357,20.6307,132.376,0.0933962,0.0,0.0
1112,277.75,57.9117,60.9874,154.054,100.971,99.8682,0.00171935,0.312811,20.6307,132.215,0.100665,0.0,0.0
1120,279.75,57.7455,60.8905,152.239,101.082,100.083,0.00174763,0.312463,20.6307,132.015,0.0909621,0.0,0.0
1128,281.75,58.0607,61.1745,151.987,101.082,100.1,0.00168284,0.31277,20.6307,131.795,0.0894501,0.0,0.0
1136,283.75,57.8532,61.148,148.366,101.001,100.05,0.00155133,0.312894,20.6307,131.565,0.0866807,0.0,0.0
1144,285.75,58.0267,60.7274,150.912,100.83,99.836,0.00152537,0.31281,20.6307,131.335,0.0907891,0.0,0.0
1152,287.75,57.9861,61.3234,152.791,100.581,99.5654,0.00165305,0.313178,20.6307,131.124,0.0929486,0.0,0.0
1160,289.75,57.8843,61.0703,156.6,100.255,99.2695,0.00167999,0.312773,20.6307,130.864,0.0904712,0.0,0.0
1168,291.75,58.1676,61.0607,152.854,99.9459,98.9167,0.00166851,0.312204,20.6304,130.694,0.0948395,0.0,0.0
1176,293.75,57.6919,60.5753,157.069,99.6595,98.7865,0.00162661,0.312721,20.6302,130.484,0.0806197,0.0,0.0
1184,295.75,57.9182,61.207,154.992,99.4607,98.3648,0.00155913,0.313132,20.6294,130.294,0.101517,0.0,0.0
1192,297.75,57.818,61.0261,147.064,99.3501,98.2857,0.0015409,0.31238,20.6285,130.064,0.098687,0.0,0.0
1200,299.75,57.911,60.9734,152.529,99.3452,98.037,0.00154038,0.31081,20.6289,129.863,0.121459,0.0,0.0
1208,301.75,57.8146,60.9933,149.019,99.4311,98.4857,0.00151172,0.310538,20.63,129.653,0.0875322,0.0,0.0
1216,303.75,57.9952,61.3383,153.419,99.5955,98.5309,0.00148668,0.31208,20.6314,129.453,0.0984731,0.0,0.0
1224,305.75,57.938,61.3191,150.707,99.7932,98.7079,0.00150378,0.312854,20.631,129.263,0.100195,0.0,0.0
1232,307.75,58.389,61.2775,152.893,99.9933,98.9232,0.0015874,0.314002,20.6305,129.043,0.0985855,0.0,0.0
1240,309.75,58.0192,61.1183,156.362,100.185,99.1602,0.00165333,0.31409,20.6291,128.832,0.0941919,0.0,0.0
1248,311.75,57.8731,61.0635,149.018,100.327,99.1937,0.00166767,0.313549,20.6286,128.652,0.104131,0.0,0.0
1256,313.75,57.5524,61.3019,151.832,100.459,99.3703,0.00161772,0.313103,20.6295,128.452,0.0998486,0.0,0.0
1264,315.75,57.9191,61.4681,154.039,100.522,99.5497,0.00156634,0.312731,20.6298,128.242,0.0890813,0.0,0.0
1272,317.75,58.5964,61.0775,154.697,100.562,99.4735,0.0015646,0.313005,20.6303,128.112,0.0997146,0.0,0.0
1280,319.75,58.5545,61.2634,151.887,100.549,99.5574,0.00161916,0.313697,20.6307,127.912,0.0908129,0.0,0.0
1288,321.75,58.4674,61.5953,152.091,100.505,99.4138,0.0016809,0.313187,20.6308,127.731,0.100007,0.0,0.0
1296,323.75,58.2045,61.0653,156.25,100.442,99.4804,0.00159848,0.313018,20.6309,127.511,0.0881899,0.0,0.0
1304,325.75,58.5913,61.0429,150.62,100.367,99.5025,0.00140171,0.313741,20.6309,127.341,0.0792727,0.0,0.0
1312,327.75,58.4888,61.5785,155.141,100.263,99.2538,0.00129784,0.313599,20.6297,127.131,0.0927377,0.0,0.0
1320,329.75,58.1701,61.1956,155.115,100.155,99.305,0.00130974,0.313516,20.6286,126.951,0.0781237,0.0,0.0
1328,331.75,58.3626,61.2716,153.539,100.052,99.03,0.00135322,0.313629,20.6281,126.731,0.094113,0.0,0.0
1336,333.75,58.2498,61.231,155.174,99.9585,98.951,0.00151126,0.313214,20.628,126.54,0.0928167,0.0,0.0
1344,335.75,58.1103,61.2005,155.636,99.8993,99.0357,0.00168983,0.312903,20.6279,126.31,0.0795575,0.0,0.0
1352,337.75,58.3353,61.2547,150.153,99.843,98.9651,0.00182375,0.311975,20.6293,126.13,0.0809228,0.0,0.0
1360,339.75,58.3741,61.0214,146.744,99.8523,98.88,0.00179953,0.310993,20.6312,125.94,0.0896567,0.0,0.0
1368,341.75,58.0986,61.0903,149.951,99.9795,99.1316,0.00165688,0.310558,20.6322,125.75,0.0780371,0.0,0.0
1376,343.75,58.1704,61.1092,150.892,100.074,99.205,0.00151627,0.310559,20.6338,125.55,0.0799397,0.0,0.0
1384,345.75,58.2562,61.0596,151.759,100.159,99.2905,0.00153926,0.310959,20.6346,125.349,0.0797957,0.0,0.0
1392,347.75,58.1684,61.16,156.35,100.267,99.1989,0.00153452,0.311534,20.6349,125.189,0.0981338,0.0,0.0
1400,349.75,58.1816,61.1674,153.548,100.339,99.3767,0.0014184,0.311756,20.634,124.939,0.0882754,0.0,0.0
1408,351.75,58.5561,61.4723,152.289,100.409,99.4082,0.00127457,0.311252,20.6329,124.749,0.09181,0.0,0.0
1416,353.75,58.2844,61.2303,156.91,100.447,99.4751,0.00122582,0.311696,20.6324,124.559,0.0890791,0.0,0.0
1424,355.75,57.9663,60.7273,155.988,100.496,99.6203,0.00117361,0.312103,20.6322,124.349,0.0802267,0.0,0.0
1432,357.75,58.0167,60.8497,150.113,100.536,99.7049,0.00111786,0.311512,20.6321,124.118,0.0760247,0.0,0.0
1440,359.75,58.0563,61.0421,155.019,100.544,99.6049,0.00119023,0.312155,20.6316,123.908,0.0859926,0.0,0.0
1448,361.75,58.1971,60.7859,151.287,100.567,99.5771,0.00132991,0.312921,20.6306,123.688,0.0906193,0.0,0.0
1456,363.75,58.2772,61.2128,157.013,100.57,99.6695,0.00144466,0.313152,20.6301,123.468,0.082459,0.0,0.0
1464,365.75,58.1293,61.2929,159.623,100.575,99.6497,0.00147452,0.313492,20.6293,123.248,0.0847189,0.0,0.0
1472,367.75,58.1483,61.2031,159.179,100.573,99.5654,0.00144054,0.313821,20.6282,123.047,0.0922847,0.0,0.0
1480,369.75,57.9947,61.0891,151.541,100.569,99.4739,0.00140395,0.313741,20.6278,122.877,0.100304,0.0,0.0
1488,371.75,58.2812,61.3256,149.188,100.565,99.5735,0.00139697,0.314977,20.6276,122.677,0.0908053,0.0,0.0
1496,373.75,58.0131,61.0311,153.263,100.56,99.6352,0.0014968,0.316082,20.6275,122.467,0.0846875,0.0,0.0
1504,375.75,58.1129,61.2794,155.069,100.558,99.6134,0.00161575,0.316903,20.6267,122.297,0.0864686,0.0,0.0
1512,377.75,57.7373,61.1833,154.523,100.557,99.5799,0.0016067,0.318302,20.6252,122.057,0.0894371,0.0,0.0
1520,379.75,58.0281,60.892,154.08,100.547,99.5791,0.00153055,0.319395,20.6236,121.866,0.0886627,0.0,0.0
1528,381.75,57.9675,60.5048,152.193,100.55,99.5429,0.00147727,0.320418,20.6218,121.666,0.0922231,0.0,0.0
1536,383.75,58.1916,61.2655,150.267,100.559,99.6695,0.00146352,0.321166,20.6214,121.456,0.0814252,0.0,0.0
1544,385.75,58.9705,61.1763,148.85,100.57,99.3703,0.00136072,0.320496,20.6201,121.266,0.110002,0.0,0.0
1552,387.75,58.988,61.4908,154.354,100.565,99.5723,0.0012655,0.319878,20.6196,121.096,0.0908789,0.0,0.0
1560,389.75,58.6168,61.2714,147.945,100.554,99.5993,0.00133277,0.322555,20.6207,120.866,0.0873969,0.0,0.0
1568,391.75,58.7326,61.8279,153.019,100.565,99.5021,0.00154454,0.325032,20.6212,120.685,0.0973362,0.0,0.0
1576,393.75,59.2159,61.5303,150.081,100.564,99.6505,0.00173829,0.325853,20.6178,120.485,0.0836474,0.0,0.0
1584,395.75,58.5686,61.8331,157.581,100.579,99.5695,0.00182387,0.327278,20.615,120.315,0.0924674,0.0,0.0
1592,397.75,58.6503,61.6193,151.307,100.595,99.5424,0.00179651,0.328595,20.6135,120.105,0.0963927,0.0,0.0
1600,399.75,59.3502,61.707,154.475,100.588,99.4659,0.00173002,0.32978,20.6128,119.905,0.102819,0.0,0.0
1608,401.75,58.7303,61.4258,146.406,100.574,99.4848,0.00168647,0.329881,20.6118,119.725,0.0997827,0.0,0.0
1616,403.75,58.985,61.7389,149.016,100.579,99.3872,0.00165921,0.330168,20.6113,119.484,0.109216,0.0,0.0
1624,405.75,58.5539,61.3758,146.412,100.557,99.3259,0.00168959,0.331499,20.6108,119.304,0.112875,0.0,0.0
1632,407.75,58.7857,61.54,157.704,100.551,99.2268,0.00168357,0.334043,20.6094,119.084,0.121475,0.0,0.0
1640,409.75,59.2495,61.9372,152.255,100.525,99.0893,0.0015901,0.335609,20.6054,118.904,0.131779,0.0,0.0
1648,411.75,58.9832,61.8607,148.889,100.501,99.2215,0.00154873,0.337088,20.6031,118.664,0.117381,0.0,0.0
1656,413.75,58.6792,61.4292,151.801,100.482,99.3062,0.00162918,0.338165,20.6019,118.443,0.107829,0.0,0.0
1664,415.75,59.4383,62.0258,156.211,100.436,99.13,0.00160814,0.340197,20.6001,118.213,0.119889,0.0,0.0
1672,417.75,59.4303,62.0546,152.827,100.389,99.336,0.00152146,0.340552,20.5972,118.033,0.0966154,0.0,0.0
1680,419.75,59.7493,62.5041,152.7,100.325,99.0856,0.00153569,0.341733,20.5957,117.803,0.113896,0.0,0.0
1688,421.75,59.7245,62.3499,150.352,100.257,99.0816,0.00161337,0.344147,20.5935,117.583,0.108088,0.0,0.0
1696,423.75,59.6625,62.3218,155.98,100.195,98.9127,0.00165096,0.346885,20.5908,117.382,0.117984,0.0,0.0
1704,425.75,60.0216,62.5277,151.588,100.134,98.9357,0.00165497,0.348854,20.5885,117.112,0.110336,0.0,0.0
1712,427.75,59.7483,62.1769,151.07,100.097,98.7651,0.00170387,0.350734,20.5875,116.882,0.12277,0.0,0.0
1720,429.75,59.5782,62.217,149.017,100.038,98.4462,0.00181979,0.352279,20.5873,116.632,0.146989,0.0,0.0
1728,431.75,59.8359,62.6625,152.246,99.9743,98.5736,0.00190712,0.353083,20.5865,116.442,0.129275,0.0,0.0
1736,433.75,59.9531,62.4886,155.978,99.8949,98.2974,0.0018324,0.353725,20.5851,116.261,0.147704,0.0,0.0
1744,435.75,60.3148,62.5533,152.002,99.8078,98.3269,0.00177364,0.355118,20.5833,116.021,0.13697,0.0,0.0
1752,437.75,59.7754,62.8812,146.438,99.8163,98.1466,0.00177515,0.35669,20.5821,115.801,0.15456,0.0,0.0
1760,439.75,60.5128,62.5146,155.826,99.8378,98.0075,0.00178613,0.359059,20.5816,115.591,0.169525,0.0,0.0
1768,441.75,60.0019,62.5374,147.336,99.8702,97.8467,0.00173788,0.359493,20.5788,115.391,0.18755,0.0,0.0
1776,443.75,60.2388,63.0224,150.359,99.9123,98.3789,0.00161444,0.359819,20.5765,115.151,0.141713,0.0,0.0
1784,445.75,60.4162,63.1791,151.629,99.9783,97.935,0.00151898,0.361185,20.5753,114.9,0.189202,0.0,0.0
1792,447.75,60.791,63.1892,148.872,100.032,98.2458,0.00155549,0.363072,20.5747,114.68,0.165064,0.0,0.0
1800,449.75,61.0328,62.9799,150.726,100.097,98.3382,0.00162411,0.365606,20.572,114.45,0.162392,0.0,0.0
1808,451.75,60.9777,63.0938,154.555,100.156,98.1309,0.00166105,0.367308,20.5691,114.27,0.18717,0.0,0.0
1816,453.75,61.2215,63.6062,150.918,100.216,98.1079,0.00171952,0.368516,20.566,114.03,0.194798,0.0,0.0
1824,455.75,61.0447,63.6674,150.136,100.267,98.2765,0.00185729,0.370983,20.5629,113.829,0.183738,0.0,0.0
1832,457.75,61.0172,63.6062,152.679,100.333,98.3369,0.00200845,0.374493,20.5601,113.579,0.184132,0.0,0.0
1840,459.75,61.1265,63.7228,146.985,100.374,98.4051,0.00210021,0.376864,20.5568,113.369,0.181558,0.0,0.0
1848,461.75,61.1411,63.9679,153.4,100.418,98.2406,0.00214,0.37715,20.5546,113.149,0.20088,0.0,0.0
1856,463.75,61.4125,63.8998,150.452,100.466,97.7886,0.00220704,0.377648,20.553,112.959,0.24749,0.0,0.0
1864,465.75,61.008,64.4473,152.965,100.494,97.9491,0.00221878,0.37888,20.5517,112.738,0.234979,0.0,0.0
1872,467.75,61.2014,63.6169,148.773,100.524,97.6975,0.00213822,0.381433,20.5508,112.478,0.261275,0.0,0.0
1880,469.75,61.6379,64.0134,151.014,100.547,97.8576,0.00209147,0.382863,20.5475,112.208,0.248381,0.0,0.0
1888,471.75,60.9825,63.5977,149.588,100.544,98.1769,0.00210278,0.38268,20.5453,111.998,0.21831,0.0,0.0
1896,473.75,61.4725,64.1741,148.61,100.557,97.739,0.00206487,0.381801,20.5444,111.748,0.260446,0.0,0.0
1904,475.75,61.4202,64.2318,146.257,100.553,97.7753,0.00196709,0.381523,20.5448,111.547,0.256638,0.0,0.0
1912,477.75,61.9815,64.574,151.468,100.53,97.6128,0.00192992,0.384603,20.5459,111.307,0.26981,0.0,0.0
1920,479.75,61.7045,64.416,150.346,100.511,97.7108,0.00205344,0.387353,20.5445,111.087,0.258919,0.0,0.0
1928,481.75,61.5256,64.3594,148.846,100.475,97.1415,0.00208228,0.390491,20.5419,110.827,0.309173,0.0,0.0
1936,483.75,62.4611,65.2676,151.25,100.44,97.4197,0.00203479,0.393998,20.5394,110.577,0.279719,0.0,0.0
1944,485.75,62.3331,65.084,151.959,100.391,97.6656,0.00203708,0.395641,20.535,110.376,0.252145,0.0,0.0
1952,487.75,62.359,65.1641,148.94,100.34,97.3237,0.00208185,0.396732,20.5324,110.116,0.279692,0.0,0.0
1960,489.75,62.1818,65.1193,153.466,100.286,97.0637,0.00222007,0.398761,20.5304,109.866,0.299212,0.0,0.0
1968,491.75,62.1108,64.9574,150.844,100.217,96.9601,0.00240495,0.402289,20.5278,109.586,0.302705,0.0,0.0
1976,493.75,62.825,65.6606,147.603,100.13,96.8746,0.00250439,0.403837,20.5245,109.375,0.302821,0.0,0.0
1984,495.75,62.8793,65.5123,151.803,100.053,96.5041,0.00249158,0.406708,20.5213,109.125,0.330924,0.0,0.0
1992,497.75,62.8832,65.7246,147.514,99.9799,96.5968,0.00246475,0.408404,20.5195,108.845,0.315408,0.0,0.0
2000,499.75,63.0095,65.6542,151.009,99.8892,96.2835,0.00243786,0.408989,20.516,108.565,0.336852,0.0,0.0
2008,501.75,63.0406,66.0434,144.958,99.8017,95.9606,0.00248743,0.41196,20.5131,108.325,0.359607,0.0,0.0
2016,503.75,63.2431,66.1209,148.115,99.7158,95.882,0.00256851,0.415676,20.5098,108.064,0.35923,0.0,0.0
2024,505.75,63.1356,66.2102,147.741,99.6243,95.9912,0.00259357,0.418022,20.5051,107.794,0.340381,0.0,0.0
2032,507.75,63.735,66.2911,146.934,99.5441,95.1562,0.00255136,0.420039,20.5005,107.514,0.413051,0.0,0.0
2040,509.75,63.9685,66.8121,146.107,99.4752,95.9029,0.00264379,0.420719,20.4975,107.284,0.335093,0.0,0.0
2048,511.75,63.856,66.6542,151.309,99.4169,95.6981,0.00286026,0.421886,20.4949,107.023,0.349307,0.0,0.0
2056,513.75,63.5648,66.6186,147.303,99.3687,95.3631,0.00296295,0.424572,20.4925,106.773,0.376999,0.0,0.0
2064,515.75,64.3064,67.0558,148.726,99.3383,95.3139,0.00294769,0.426273,20.4907,106.513,0.378924,0.0,0.0
2072,517.75,64.2803,67.2059,148.111,99.3371,94.9728,0.00289922,0.42692,20.4883,106.253,0.41166,0.0,0.0
2080,519.75,64.5693,67.3054,150.013,99.3412,94.9099,0.00280266,0.429028,20.4856,105.973,0.418104,0.0,0.0
2088,521.75,64.6838,67.4653,147.877,99.3683,95.2796,0.00269305,0.432611,20.4851,105.742,0.384984,0.0,0.0
2096,523.75,64.5073,67.6103,147.823,99.4206,94.4813,0.00263889,0.435382,20.484,105.482,0.466893,0.0,0.0
2104,525.75,64.2964,67.2748,152.78,99.4712,95.249,0.00260914,0.437013,20.4803,105.242,0.397412,0.0,0.0
2112,527.75,64.9792,68.2256,153.172,99.5477,94.5551,0.00263777,0.437196,20.4782,104.992,0.471453,0.0,0.0
2120,529.75,65.4104,67.8745,152.216,99.6296,94.7982,0.00273805,0.437369,20.4768,104.721,0.455453,0.0,0.0
2128,531.75,64.9503,68.028,152.047,99.7478,95.5106,0.00284139,0.438179,20.475,104.491,0.397724,0.0,0.0
2136,533.75,65.2308,68.1894,153.396,99.8851,94.928,0.00288288,0.437937,20.4741,104.241,0.466389,0.0,0.0
2144,535.75,65.7052,68.6166,148.079,100.027,95.1228,0.00292663,0.438539,20.4729,104.001,0.46057,0.0,0.0
2152,537.75,65.3029,68.5432,150.075,100.185,95.3836,0.00300528,0.440053,20.4732,103.741,0.449973,0.0,0.0
2160,539.75,65.1451,68.2726,148.684,100.329,95.4135,0.00300718,0.442226,20.4726,103.46,0.460249,0.0,0.0
2168,541.75,65.3946,68.6275,145.867,100.469,94.5567,0.00291666,0.44274,20.4704,103.2,0.555723,0.0,0.0
2176,543.75,65.4487,68.4423,147.937,100.608,95.2296,0.00277626,0.442468,20.4687,102.94,0.503373,0.0,0.0
2184,545.75,65.5435,68.5987,148.811,100.732,95.5784,0.0025991,0.44224,20.4685,102.71,0.481196,0.0,0.0
2192,547.75,64.7572,67.9171,149.059,100.842,95.6356,0.00256572,0.441649,20.4685,102.439,0.485726,0.0,0.0
2200,549.75,65.6789,68.9365,146.274,100.938,95.9803,0.00262378,0.4415,20.4681,102.229,0.461441,0.0,0.0
2208,551.75,66.0497,69.005,147.16,101.007,95.7485,0.00272513,0.441096,20.4678,101.959,0.489846,0.0,0.0
2216,553.75,65.8381,69.0076,148.303,101.051,96.3388,0.00283429,0.438506,20.4683,101.689,0.43754,0.0,0.0
2224,555.75,66.1336,69.1681,152.613,101.088,96.4662,0.00289237,0.436332,20.4708,101.449,0.428773,0.0,0.0
2232,557.75,66.0409,69.2588,148.479,101.123,96.7093,0.00289724,0.433305,20.4732,101.188,0.408904,0.0,0.0
2240,559.75,66.1985,69.3356,148.565,101.122,96.1416,0.00297339,0.432434,20.4763,100.988,0.462772,0.0,0.0
2248,561.75,66.3259,69.479,145.646,101.09,96.5831,0.0030572,0.431824,20.4784,100.708,0.417893,0.0,0.0
2256,563.75,66.1261,69.3512,148.524,101.062,96.34,0.00305606,0.429655,20.4793,100.468,0.438454,0.0,0.0
2264,565.75,65.2003,68.4026,149.543,101.016,96.0686,0.00298374,0.426259,20.4808,100.197,0.460109,0.0,0.0
2272,567.75,66.6717,69.7836,150.649,100.965,95.3945,0.00291957,0.425975,20.4826,99.9573,0.519962,0.0,0.0
2280,569.75,65.7988,68.9493,149.796,100.896,95.8175,0.00287974,0.425743,20.4842,99.707,0.473215,0.0,0.0
2288,571.75,66.2468,69.3912,149.273,100.808,95.6481,0.00280764,0.423415,20.4854,99.4768,0.481437,0.0,0.0
2296,573.75,65.8998,69.1119,147.948,100.733,95.9936,0.00276895,0.421931,20.4872,99.1866,0.441584,0.0,0.0
2304,575.75,65.8099,68.8841,146.099,100.645,95.1732,0.00276734,0.420155,20.4894,98.9464,0.512236,0.0,0.0
2312,577.75,66.0944,69.45,147.947,100.553,95.3135,0.00273452,0.418174,20.4903,98.7362,0.490326,0.0,0.0
2320,579.75,65.7029,68.9913,148.961,100.463,94.8418,0.00276108,0.417368,20.4919,98.4359,0.527552,0.0,0.0
2328,581.75,65.6161,68.9574,145.998,100.385,94.6777,0.00285185,0.415996,20.4941,98.2257,0.536286,0.0,0.0
2336,583.75,65.778,68.8523,150.227,100.291,94.8994,0.00287808,0.414155,20.4949,97.9855,0.506344,0.0,0.0
2344,585.75,66.0774,69.3862,154.798,100.248,94.878,0.00290241,0.412452,20.4965,97.7653,0.50441,0.0,0.0
2352,587.75,65.6664,69.0869,145.993,100.2,94.4781,0.00294898,0.411889,20.4985,97.5051,0.538783,0.0,0.0
2360,589.75,65.5195,68.7771,154.76,100.342,94.8712,0.00297988,0.409826,20.4995,97.2649,0.513656,0.0,0.0
2368,591.75,65.5316,68.8861,153.989,100.45,94.8458,0.00289292,0.408095,20.5008,97.0247,0.525979,0.0,0.0
2376,593.75,65.3332,68.5044,150.439,100.536,94.9139,0.00270903,0.406177,20.5038,96.8345,0.527229,0.0,0.0
2384,595.75,65.6321,68.859,147.668,100.602,94.1781,0.00260266,0.404512,20.5065,96.6344,0.604552,0.0,0.0
2392,597.75,65.5438,69.1009,152.935,100.624,94.9865,0.00259474,0.402616,20.5092,96.4242,0.52827,0.0,0.0
2400,599.75,65.6016,68.8564,160.332,100.644,95.1582,0.00266439,0.399435,20.5108,96.204,0.513561,0.0,0.0
2408,601.75,65.4916,68.6188,151.307,100.602,94.7647,0.00270804,0.396352,20.5134,96.0138,0.547693,0.0,0.0
2416,603.75,65.6373,68.5781,149.152,100.54,94.7821,0.00261241,0.392373,20.5171,95.8337,0.540371,0.0,0.0
2424,605.75,65.0809,68.4959,150.775,100.454,94.7309,0.00252139,0.38731,20.521,95.6635,0.537457,0.0,0.0
2432,607.75,65.4389,68.5442,149.195,100.337,94.9014,0.00250661,0.382653,20.5262,95.4733,0.510293,0.0,0.0
2440,609.75,65.2775,68.4929,148.218,100.18,94.4511,0.00247986,0.377421,20.5312,95.2732,0.539588,0.0,0.0
2448,611.75,64.9881,68.3151,152.474,100.047,94.6006,0.0024456,0.369687,20.5355,95.123,0.512893,0.0,0.0
2456,613.75,64.5879,67.8947,154.931,99.9232,94.8317,0.00242225,0.362711,20.5401,94.9829,0.479187,0.0,0.0
2464,615.75,64.4368,67.7202,158.346,99.8645,94.778,0.00236028,0.355018,20.5471,94.8228,0.478981,0.0,0.0
2472,617.75,64.0453,67.1939,149.043,99.9159,95.0708,0.00234094,0.348056,20.5575,94.6526,0.455446,0.0,0.0
2480,619.75,63.4173,66.9553,153.107,99.9759,95.5445,0.0023175,0.341176,20.567,94.5025,0.415398,0.0,0.0
2488,621.75,63.4939,67.1201,149.766,100.044,95.5276,0.00226247,0.333227,20.5739,94.3624,0.42322,0.0,0.0
2496,623.75,63.0827,66.5742,160.47,100.128,95.8533,0.00221551,0.324372,20.5816,94.2323,0.399778,0.0,0.0
2504,625.75,63.0848,66.3797,153.381,100.227,96.1767,0.00217133,0.314726,20.5925,94.1222,0.377997,0.0,0.0
2512,627.75,62.0538,65.4245,157.11,100.324,96.6408,0.00212331,0.303166,20.6037,94.0321,0.342738,0.0,0.0
2520,629.75,62.1609,65.4875,159.484,100.392,96.7855,0.00204376,0.290948,20.6163,93.932,0.335201,0.0,0.0
2528,631.75,61.7902,65.2008,158.341,100.457,97.556,0.00196048,0.281127,20.6309,93.8319,0.268537,0.0,0.0
2536,633.75,60.8371,64.3911,163.349,100.517,97.7297,0.00194875,0.269801,20.6418,93.7518,0.257661,0.0,0.0
2544,635.75,60.6758,64.0538,162.08,100.539,98.5196,0.00199476,0.258925,20.6515,93.7218,0.185939,0.0,0.0
2552,637.75,60.1535,63.5644,163.768,100.56,98.47,0.00203348,0.245332,20.6653,93.6517,0.192434,0.0,0.0
2560,639.75,59.0247,62.7587,162.376,100.567,99.0578,0.00210355,0.231182,20.6789,93.6117,0.138527,0.0,0.0
2568,641.75,59.1415,62.3964,158.497,100.551,99.405,0.0022163,0.216225,20.6965,93.5717,0.105034,0.0,0.0
2576,643.75,58.432,61.7905,159.474,100.531,99.5541,0.00226278,0.202212,20.7132,93.5316,0.0894491,0.0,0.0
2584,645.75,57.8459,61.2157,159.543,100.482,99.6033,0.00232405,0.188185,20.7317,93.4716,0.0804919,0.0,0.0
2592,647.75,56.6967,60.0987,158.693,100.429,99.6634,0.00240627,0.175344,20.7473,93.4015,0.0701279,0.0,0.0
2600,649.75,55.8568,59.0603,162.41,100.346,99.5832,0.00246744,0.164286,20.7633,93.3415,0.0699273,0.0,0.0
2608,651.75,56.0353,59.3045,161.958,100.246,99.5457,0.00256009,0.155282,20.779,93.2914,0.064276,0.0,0.0
2616,653.75,55.6103,58.6847,160.342,100.148,99.4138,0.0027682,0.148036,20.7914,93.2414,0.0674545,0.0,0.0
2624,655.75,54.5476,57.7558,164.181,100.005,99.361,0.00289364,0.14177,20.8009,93.1914,0.0591595,0.0,0.0
2632,657.75,54.8028,57.5458,166.135,99.8965,99.2316,0.00295087,0.136792,20.8099,93.1613,0.0611876,0.0,0.0
2640,659.75,54.0953,57.1632,162.612,99.7661,99.0244,0.00298612,0.133244,20.8168,93.1213,0.0683717,0.0,0.0
2648,661.75,53.3779,56.2437,161.187,99.6478,98.8881,0.00299657,0.130147,20.8219,93.1013,0.0701214,0.0,0.0
2656,663.75,53.0464,55.9318,161.029,99.5405,98.8953,0.00307046,0.128035,20.8264,93.0612,0.0595741,0.0,0.0
2664,665.75,52.7314,55.5938,163.341,99.4558,98.795,0.00326595,0.126256,20.8301,93.0112,0.0610845,0.0,0.0
2672,667.75,53.0088,55.4891,168.228,99.3776,98.8131,0.00345414,0.124773,20.8326,92.9812,0.0521963,0.0,0.0
2680,669.75,52.4371,54.9079,163.715,99.3347,98.697,0.00360465,0.123592,20.835,92.9411,0.0590109,0.0,0.0
2688,671.75,51.5605,54.6577,160.615,99.3205,98.6788,0.00371876,0.121999,20.8368,92.9311,0.0593864,0.0,0.0
2696,673.75,51.1086,53.7361,166.367,99.3367,98.7216,0.0038065,0.120378,20.8387,92.8911,0.056915,0.0,0.0
2704,675.75,50.6719,53.4845,165.742,99.3825,98.9377,0.00385966,0.119246,20.8408,92.8711,0.0410999,0.0,0.0
2712,677.75,50.4231,52.8274,162.901,99.4586,98.6494,0.00383302,0.118303,20.8428,92.8511,0.0748536,0.0,0.0
2720,679.75,50.241,52.6973,157.847,99.5643,98.8236,0.00372344,0.117408,20.8449,92.841,0.0684249,0.0,0.0
2728,681.75,50.1748,52.2224,167.944,99.6814,99.0812,0.00354266,0.116144,20.8464,92.831,0.0553344,0.0,0.0
2736,683.75,50.013,52.2704,163.882,99.826,99.1381,0.00344124,0.115223,20.8487,92.841,0.0633617,0.0,0.0
2744,685.75,49.1428,51.8223,159.435,99.9702,99.3251,0.00366523,0.115298,20.8502,92.8511,0.0593136,0.0,0.0
2752,687.75,49.0084,51.5966,160.109,100.129,99.407,0.00395741,0.115766,20.8504,92.841,0.0663453,0.0,0.0
2760,689.75,48.4867,50.6562,164.768,100.302,99.6259,0.00407607,0.115271,20.8496,92.841,0.0620013,0.0,0.0
2768,691.75,48.2213,50.1458,162.969,100.47,99.7969,0.00400947,0.114173,20.8502,92.801,0.0615608,0.0,0.0
2776,693.75,48.0531,50.4804,164.184,100.628,99.911,0.00390707,0.113882,20.8516,92.791,0.0655601,0.0,0.0
2784,695.75,48.3904,50.4832,161.683,100.775,100.098,0.00384641,0.113482,20.8527,92.771,0.0617984,0.0,0.0
2792,697.75,48.1792,50.231,163.334,100.899,100.191,0.0038118,0.113068,20.8532,92.7209,0.0645027,0.0,0.0
2800,699.75,46.7297,48.6133,169.373,101.001,100.467,0.00380233,0.113107,20.8534,92.7109,0.0485812,0.0,0.0
2808,701.75,47.3774,48.9273,160.51,101.08,100.671,0.00395842,0.113116,20.8535,92.6709,0.0371573,0.0,0.0
2816,703.75,47.1677,49.0211,164.761,101.117,100.426,0.00418511,0.112743,20.8536,92.6509,0.0628355,0.0,0.0
2824,705.75,46.5873,48.3423,162.525,101.118,100.656,0.00439544,0.1126,20.8536,92.6409,0.0419284,0.0,0.0
2832,707.75,46.295,48.0237,165.816,101.081,100.41,0.00455062,0.112899,20.8539,92.6208,0.06104,0.0,0.0
2840,709.75,46.1411,47.8241,168.727,101.028,100.746,0.00465678,0.112726,20.8541,92.6108,0.0256332,0.0,0.0
2848,711.75,46.1776,47.8205,163.603,100.945,100.147,0.00471416,0.111844,20.8542,92.5908,0.0727148,0.0,0.0
2856,713.75,45.8491,47.2821,163.952,100.845,100.311,0.00476479,0.111127,20.8548,92.5708,0.0487018,0.0,0.0
2864,715.75,45.1451,46.647,162.586,100.737,100.29,0.00488587,0.110927,20.8558,92.5108,0.0407117,0.0,0.0
2872,717.75,45.4798,46.8984,160.408,100.62,99.944,0.00508416,0.11036,20.8565,92.5007,0.0617908,0.0,0.0
2880,719.75,45.0144,46.4037,164.547,100.475,99.9009,0.0052878,0.109505,20.8578,92.4707,0.052496,0.0,0.0
2888,721.75,45.8381,47.1971,164.987,100.359,99.784,0.00541005,0.10891,20.8594,92.4307,0.0526556,0.0,0.0
2896,723.75,44.4295,45.8597,163.103,100.259,99.79,0.0054281,0.108518,20.8604,92.4007,0.0429624,0.0,0.0
2904,725.75,44.79,46.0048,165.901,100.282,99.5485,0.00535454,0.108367,20.8608,92.3606,0.0672366,0.0,0.0
2912,727.75,44.4455,45.3981,160.851,100.45,99.8819,0.00534891,0.108517,20.861,92.3006,0.0519443,0.0,0.0
2920,729.75,44.4449,45.6556,163.056,100.575,99.9021,0.00538042,0.109146,20.8608,92.2605,0.0615044,0.0,0.0
2928,731.75,44.3364,45.4701,163.494,100.645,100.269,0.00538095,0.109414,20.8598,92.2305,0.034223,0.0,0.0
2936,733.75,44.0328,45.0377,163.368,100.652,99.9924,0.00527268,0.108803,20.8585,92.2105,0.060197,0.0,0.0
2944,735.75,43.8273,45.0208,164.253,100.626,99.9835,0.00520893,0.108542,20.858,92.1805,0.0586484,0.0,0.0
2952,737.75,43.7722,44.752,166.923,100.522,99.9448,0.00521163,0.108498,20.8578,92.1705,0.0527871,0.0,0.0
2960,739.75,43.862,44.867,167.295,100.372,99.8227,0.00521702,0.108543,20.8588,92.1204,0.0502857,0.0,0.0
2968,741.75,43.62,44.3625,166.854,100.163,99.5207,0.00524478,0.109754,20.8587,92.1104,0.0589099,0.0,0.0
2976,743.75,42.971,43.8056,160.191,99.9783,99.3594,0.00529012,0.110809,20.8581,92.1204,0.0568955,0.0,0.0
2984,745.75,42.4297,43.2914,160.116,99.8556,99.3034,0.00528323,0.111232,20.857,92.0804,0.0508104,0.0,0.0
2992,747.75,42.3993,43.4675,161.552,99.9269,99.3715,0.005318,0.111713,20.8565,92.0403,0.0510645,0.0,0.0
3000,749.75,42.7018,43.201,165.939,99.9998,99.5953,0.00538495,0.111721,20.8559,92.0203,0.0371388,0.0,0.0
3008,751.75,42.7874,42.7711,166.707,100.094,99.6759,0.00544765,0.111449,20.8555,92.0203,0.0383289,0.0,0.0
3016,753.75,42.6333,43.3003,161.254,100.223,99.7364,0.00547355,0.110642,20.8554,92.0003,0.0445549,0.0,0.0
3024,755.75,42.1374,43.0811,164.2,100.333,100.033,0.00530814,0.109836,20.8561,91.9903,0.0274378,0.0,0.0
3032,757.75,41.989,42.4885,162.123,100.423,99.9896,0.00512816,0.109196,20.8577,91.9803,0.0396721,0.0,0.0
3040,759.75,41.9499,42.7303,166.544,100.495,100.031,0.00503234,0.108405,20.859,92.0103,0.0424438,0.0,0.0
3048,761.75,41.9867,42.5011,166.84,100.562,99.9993,0.00508129,0.108323,20.86,92.0103,0.0513795,0.0,0.0
3056,763.75,41.8917,42.6305,163.975,100.554,100.028,0.00524951,0.108035,20.8604,92.0203,0.0480184,0.0,0.0
3064,765.75,41.2416,41.9689,164.873,100.515,100.263,0.00537947,0.107496,20.8606,92.0103,0.0230427,0.0,0.0
3072,767.75,41.3866,42.0336,164.222,100.491,100.138,0.00543456,0.107155,20.8607,91.9803,0.0322194,0.0,0.0
3080,769.75,41.1491,41.5879,164.861,100.389,99.9473,0.0054033,0.107193,20.8606,91.9703,0.0403735,0.0,0.0
3088,771.75,41.0857,41.6406,164.264,100.286,99.8013,0.00530497,0.106633,20.8602,91.9503,0.044406,0.0,0.0
3096,773.75,40.9994,42.1506,165.115,100.154,99.7086,0.00511654,0.106155,20.86,91.9102,0.0408498,0.0,0.0
3104,775.75,40.9487,41.6538,160.752,99.9994,99.5711,0.00504464,0.106385,20.8607,91.8702,0.0393273,0.0,0.0
3112,777.75,40.5465,41.0733,164.619,99.8268,99.4667,0.00523029,0.106609,20.8623,91.8702,0.0331173,0.0,0.0
3120,779.75,40.721,41.3341,163.546,99.6693,99.3772,0.0055208,0.106513,20.863,91.8502,0.0268922,0.0,0.0
3128,781.75,40.6354,41.3824,172.777,99.5222,99.157,0.00582309,0.106051,20.8633,91.8302,0.0336854,0.0,0.0
3136,783.75,40.7979,41.5061,163.911,99.4112,98.9897,0.00596155,0.10616,20.8634,91.8402,0.0389358,0.0,0.0
3144,785.75,40.8644,41.3465,165.247,99.3371,98.947,0.00607035,0.106012,20.8634,91.8001,0.0360575,0.0,0.0
3152,787.75,40.5962,41.193,163.802,99.3221,98.8929,0.00616797,0.105718,20.8635,91.7701,0.0396797,0.0,0.0
3160,789.75,40.3486,40.9603,166.923,99.3796,98.9808,0.0062696,0.105568,20.8635,91.7701,0.036844,0.0,0.0
3168,791.75,40.6434,40.7863,162.164,99.4635,99.0909,0.00636757,0.10561,20.8635,91.7301,0.0343873,0.0,0.0
3176,793.75,40.566,40.6449,163.398,99.6125,99.159,0.00638607,0.105763,20.8635,91.69,0.041811,0.0,0.0
3184,795.75,39.9572,41.0678,164.936,99.8143,99.4195,0.00632949,0.105748,20.8635,91.67,0.036311,0.0,0.0
3192,797.75,40.1981,40.6938,169.903,100.04,99.8598,0.00639158,0.10545,20.8635,91.64,0.016512,0.0,0.0
3200,799.75,40.0955,40.5243,166.583,100.294,99.9085,0.0065367,0.104734,20.8631,91.61,0.0352687,0.0,0.0
3208,801.75,40.2938,40.3995,168.406,100.533,100.099,0.00654427,0.104304,20.8635,91.5699,0.0396003,0.0,0.0
3216,803.75,39.9188,40.449,163.301,100.754,100.346,0.00652428,0.103997,20.8639,91.5199,0.0372139,0.0,0.0
3224,805.75,39.9537,40.2024,165.213,100.923,100.592,0.00653879,0.103818,20.8652,91.4899,0.0301697,0.0,0.0
3232,807.75,39.9084,40.2748,164.558,101.043,100.85,0.0065373,0.104057,20.8657,91.4398,0.0174638,0.0,0.0
3240,809.75,39.6918,40.2518,165.468,101.114,100.742,0.00657486,0.104523,20.8655,91.4198,0.0338214,0.0,0.0
3248,811.75,39.4734,39.8131,160.278,101.132,100.848,0.00669112,0.104599,20.8649,91.3798,0.0257247,0.0,0.0
3256,813.75,39.4015,39.8842,166.815,101.082,101.048,0.00676797,0.10415,20.8648,91.3798,0.0030578,0.0,0.0
3264,815.75,39.2245,39.9873,162.401,100.997,100.683,0.0068062,0.103806,20.8654,91.3898,0.0285267,0.0,0.0
3272,817.75,39.814,39.7053,164.629,100.858,100.326,0.00671033,0.103877,20.8657,91.3898,0.0484801,0.0,0.0
3280,819.75,38.7087,39.4403,167.034,100.694,100.432,0.00654219,0.104221,20.8651,91.3597,0.0238859,0.0,0.0
3288,821.75,39.2328,39.3357,161.763,100.521,100.407,0.00641952,0.104016,20.8648,91.3698,0.0103793,0.0,0.0
3296,823.75,38.9568,39.1878,165.8,100.381,100.035,0.00641915,0.103894,20.8646,91.3197,0.0316175,0.0,0.0
3304,825.75,38.9612,39.1818,172.128,100.253,99.8856,0.00651008,0.103801,20.8645,91.2997,0.0336745,0.0,0.0
3312,827.75,39.1206,39.2458,165.455,100.43,100.267,0.00656905,0.103801,20.8655,91.2797,0.0148437,0.0,0.0
3320,829.75,39.2252,39.0181,167.084,100.615,100.238,0.00660484,0.103558,20.8662,91.2496,0.0344428,0.0,0.0
3328,831.75,38.598,39.2478,164.097,100.701,100.46,0.00673971,0.103349,20.8665,91.2196,0.0219749,0.0,0.0
3336,833.75,39.2298,39.2223,160.344,100.698,100.698,0.00701419,0.103254,20.8663,91.2597,-2.73064e-05,0.0,0.0
3344,835.75,39.2069,39.3156,164.774,100.597,100.228,0.0072161,0.103045,20.8661,91.2797,0.033705,0.0,0.0
3352,837.75,38.6186,38.9958,162.482,100.41,100.196,0.00716175,0.102709,20.8668,91.2597,0.0195927,0.0,0.0
3360,839.75,38.9,38.818,160.309,100.127,99.8021,0.00691221,0.102867,20.8676,91.2597,0.0297756,0.0,0.0
3368,841.75,38.5135,39.2455,164.805,99.888,99.4949,0.00680178,0.103292,20.868,91.2196,0.0361293,0.0,0.0
3376,843.75,38.633,39.1369,164.299,99.952,99.6973,0.00689274,0.103813,20.8677,91.1896,0.0233783,0.0,0.0
3384,845.75,38.7087,38.5551,163.159,100.051,99.6686,0.00711392,0.104251,20.8671,91.1796,0.0351022,0.0,0.0
3392,847.75,38.5081,38.945,170.033,100.167,99.9884,0.0072684,0.104539,20.8667,91.1696,0.0163594,0.0,0.0
3400,849.75,38.5147,38.7786,165.635,100.323,100.118,0.00735634,0.104713,20.8654,91.1696,0.0187981,0.0,0.0
3408,851.75,38.7445,38.7803,169.781,100.428,100.225,0.00743635,0.104551,20.8649,91.1195,0.0184907,0.0,0.0
3416,853.75,38.5844,38.6023,163.911,100.501,100.362,0.00746337,0.104504,20.8647,91.1496,0.0126909,0.0,0.0
3424,855.75,38.4383,38.7663,162.64,100.536,100.419,0.00735229,0.104099,20.8646,91.0895,0.0106782,0.0,0.0
3432,857.75,38.2221,38.835,165.252,100.529,100.493,0.00720532,0.103833,20.8653,91.0895,0.00328382,0.0,0.0
3440,859.75,37.9195,37.8971,163.617,100.487,100.177,0.00715626,0.103844,20.8662,91.0995,0.028309,0.0,0.0
3448,861.75,38.4989,38.472,167.67,100.418,100.246,0.00720363,0.104036,20.8665,91.0595,0.0156877,0.0,0.0
3449,862,38.3888,38.45,167.831,100.402,100.02,0.00722089,0.104053,20.8665,90.9294,0.0348693,0.0,0.0