File: 01_Data/Basswood_Panel/Cone/Basswood_Panel_Cone_HF50Scan_221212_R1.csv
Names,Time,Stack TC,Smoke TC,Exh Press,Smoke Comp,Smoke Meas,CO Meter,CO2 Meter,O2 Meter,Sample Mass,Ext Coeff,Start Test,Flame Verif
Chan Gain,,500,500,1,1,1,1,1,1,1,1,1.0,1.0
Offset,,0,0,0.136404,0,0,0,0,0,0,0,0.0,0.0
Gain,,1,1,25.011,13.2008,13.1217,1,1,1,1.00087,1.04452,1.0,1.0
Units,sec,C,C,Pa,%,%,%,%,%,g,/m,,
Baseline,,28.9997,29.7589,169.785,99.3834,99.2846,4.68862e-05,0.0445397,20.9467,-445.34,0.00912222,,
7,1.5,29.3565,29.8455,168.019,99.6517,98.9716,0.000262766,0.0515087,20.9363,159.489,0.0627498,0.0,0.0
14,3.25,29.2283,29.7248,167.635,99.5437,98.8943,0.000140645,0.0499512,20.938,159.429,0.0599745,0.0,0.0
21,5,28.8091,29.769,169.79,99.6871,98.7629,8.35752e-05,0.0489336,20.9393,159.389,0.0853422,0.0,0.0
28,6.75,29.1959,30.2955,173.652,99.8519,98.6356,0.000142275,0.0484544,20.9405,159.269,0.112296,0.0,0.0
35,8.5,29.163,30.0308,167.451,100.038,98.3937,0.000214518,0.0484709,20.9411,159.259,0.151853,0.0,0.0
42,10.25,29.5913,30.0259,164.116,100.198,98.1246,0.000162614,0.0486984,20.9414,159.239,0.19162,0.0,0.0
49,12,29.2478,30.3006,172.542,100.321,97.4803,0.000134592,0.048731,20.9415,159.169,0.263211,0.0,0.0
56,13.75,29.5397,30.2539,171.017,100.375,97.3438,0.000155753,0.048672,20.9416,159.019,0.280983,0.0,0.0
63,15.5,29.0805,30.1212,157.615,100.384,97.5937,0.0002079,0.0487318,20.9416,158.829,0.258266,0.0,1.0
70,17.25,30.1091,30.539,151.809,100.326,96.8556,0.000189494,0.0487862,20.9416,158.608,0.322557,0.0,1.0
77,19,31.112,31.0864,149.656,100.186,95.4985,9.93524e-05,0.048969,20.9416,158.398,0.439072,0.0,1.0
84,20.75,32.066,31.9521,149.78,100.007,95.0528,6.26896e-06,0.0504595,20.9435,157.978,0.465485,0.0,1.0
91,22.5,33.964,33.2809,145.249,99.8084,94.5074,0.000137256,0.0727217,20.9441,157.648,0.500033,0.0,1.0
98,24.25,34.9166,34.113,149.456,99.5828,93.5532,0.000578958,0.134133,20.9334,157.417,0.572284,0.0,0.0
105,26,36.0596,35.8578,145.463,99.3878,92.9673,0.00117756,0.222951,20.8813,157.147,0.611883,0.0,0.0
112,27.75,36.5972,36.6883,147.911,99.1783,91.8317,0.00184103,0.303144,20.7916,156.777,0.705166,0.0,0.0
119,29.5,39.0562,38.5046,144.578,99.0051,91.2254,0.00257251,0.377153,20.7059,156.397,0.749839,0.0,0.0
126,31.25,39.9025,39.5032,145.06,98.8444,92.0223,0.00321462,0.431362,20.6119,156.086,0.655263,0.0,0.0
133,33,40.9431,40.702,147.452,98.7461,90.6988,0.00365426,0.468282,20.5323,155.856,0.778877,0.0,0.0
140,34.75,41.6898,42.3886,141.431,98.6756,92.0587,0.00396387,0.495319,20.4783,155.526,0.635974,0.0,0.0
147,36.5,43.0855,42.8003,148.354,98.6526,91.772,0.00422407,0.516042,20.4391,155.125,0.662423,0.0,0.0
154,38.25,43.9771,43.937,147.567,98.6474,91.0068,0.00444905,0.530085,20.4072,154.775,0.738659,0.0,0.0
161,40,44.8458,44.7301,147.631,98.6869,92.3427,0.00461887,0.537975,20.3838,154.565,0.608806,0.0,0.0
168,41.75,45.763,46.0891,140.991,98.7505,91.5334,0.00472609,0.543886,20.3718,154.225,0.695369,0.0,0.0
175,43.5,46.1628,47.0961,149.595,98.8323,92.6506,0.00477193,0.547121,20.3641,153.864,0.591796,0.0,0.0
182,45.25,47.2844,47.6561,146.055,98.9209,92.9169,0.00480904,0.547294,20.357,153.544,0.573712,0.0,0.0
189,47,48.1937,48.6716,149.26,99.0305,92.2113,0.00487636,0.546792,20.3539,153.334,0.653699,0.0,0.0
196,48.75,48.5355,49.1374,146.613,99.1348,93.4042,0.00491764,0.545542,20.3531,153.044,0.545574,0.0,0.0
203,50.5,49.6407,50.0664,147.934,99.2202,93.9168,0.00489918,0.543657,20.3537,152.703,0.503321,0.0,0.0
210,52.25,49.5271,50.1906,147.835,99.304,93.2749,0.00480041,0.540626,20.3551,152.353,0.573896,0.0,0.0
217,54,50.1348,50.6267,148.463,99.3983,93.6909,0.00467458,0.536886,20.3576,152.093,0.541811,0.0,0.0
224,55.75,51.2018,52.259,151.016,99.4893,94.4658,0.00455781,0.530911,20.3604,151.863,0.474734,0.0,0.0
231,57.5,51.8587,52.6055,151.844,99.5748,94.4862,0.00442248,0.524792,20.3657,151.592,0.480615,0.0,0.0
238,59.25,52.5283,53.3133,144.836,99.642,95.221,0.00432839,0.519752,20.3746,151.282,0.415824,0.0,0.0
245,61,52.8254,54.1543,151.165,99.7029,95.3624,0.00430651,0.515003,20.3812,150.962,0.407825,0.0,0.0
252,62.75,52.9667,54.2865,145.481,99.7697,95.332,0.00431991,0.511216,20.3858,150.772,0.416892,0.0,0.0
259,64.5,53.6285,54.5751,149.653,99.8132,95.4577,0.00429276,0.506068,20.392,150.501,0.40881,0.0,0.0
266,66.25,53.4336,55.7185,147.205,99.835,95.0012,0.00422379,0.501406,20.3962,150.221,0.454729,0.0,0.0
273,68,53.7134,56.285,151.993,99.8455,95.7837,0.00405635,0.495569,20.4038,149.851,0.380534,0.0,0.0
280,69.75,54.7921,56.1904,144.046,99.8668,96.1661,0.00388057,0.48911,20.4117,149.621,0.345984,0.0,0.0
287,71.5,55.1262,56.5875,149.192,99.8858,96.2237,0.00368874,0.483452,20.4189,149.4,0.342229,0.0,0.0
294,73.25,54.958,57.4692,148.3,99.893,96.3791,0.0035865,0.478996,20.4268,149.13,0.328112,0.0,0.0
301,75,55.984,56.9795,142.555,99.8817,95.9174,0.00354265,0.476914,20.4335,148.77,0.371076,0.0,0.0
308,76.75,55.4562,57.712,151.715,99.8882,96.8396,0.00349813,0.474399,20.4382,148.56,0.283993,0.0,0.0
315,78.5,55.8753,58.2456,158.936,99.8878,96.816,0.0034665,0.470656,20.4406,148.39,0.286191,0.0,0.0
322,80.25,55.9477,58.5636,147.409,99.8644,96.299,0.00340539,0.467051,20.4455,148.109,0.333104,0.0,0.0
329,82,55.9611,58.821,149.2,99.8568,96.486,0.00330617,0.462495,20.4501,147.759,0.314625,0.0,0.0
336,83.75,56.4336,58.9458,149.196,99.8273,96.8416,0.00321669,0.457608,20.454,147.529,0.278222,0.0,0.0
343,85.5,56.5574,59.3624,150.594,99.8358,96.613,0.00312843,0.452131,20.4591,147.379,0.300657,0.0,0.0
350,87.25,56.6279,59.4339,149.594,99.8314,96.86,0.00308837,0.448155,20.4648,147.098,0.276849,0.0,0.0
357,89,57.0743,59.6699,153.208,99.804,97.1716,0.00308481,0.444874,20.4707,146.848,0.244911,0.0,0.0
364,90.75,56.4815,59.9112,150.441,99.777,97.0034,0.00311241,0.441191,20.4741,146.528,0.258305,0.0,0.0
371,92.5,56.86,60.3996,146.997,99.7613,97.3798,0.00310372,0.437449,20.4766,146.298,0.221377,0.0,0.0
378,94.25,57.2737,59.9936,145.959,99.754,97.0543,0.00301989,0.434251,20.4815,146.138,0.251394,0.0,0.0
385,96,57.7653,60.3953,154.073,99.7496,97.3846,0.00289073,0.431247,20.4869,145.927,0.219851,0.0,0.0
392,97.75,57.5109,61.0454,152.545,99.7182,96.782,0.00278246,0.428578,20.4905,145.597,0.273843,0.0,0.0
399,99.5,58.2273,60.9479,147.545,99.692,97.4299,0.00270128,0.42593,20.494,145.357,0.210302,0.0,0.0
406,101.25,57.8528,61.4206,152.52,99.6871,97.4511,0.00265326,0.423449,20.4973,145.197,0.207863,0.0,0.0
413,103,57.94,61.243,150.924,99.6819,97.7246,0.00261201,0.421408,20.5007,144.977,0.181702,0.0,0.0
420,104.75,58.3493,61.4417,145.709,99.669,97.767,0.00252662,0.419119,20.5033,144.736,0.176538,0.0,0.0
427,106.5,58.384,61.3088,158.816,99.6682,97.5003,0.00242447,0.416688,20.5056,144.386,0.201492,0.0,0.0
434,108.25,58.4736,61.8906,151.129,99.6525,97.7566,0.00237452,0.413742,20.5084,144.196,0.175995,0.0,0.0
441,110,58.6703,61.6284,145.961,99.6549,97.6709,0.00240927,0.410762,20.5114,144.046,0.184252,0.0,0.0
448,111.75,58.5019,61.6778,153.578,99.6279,97.7262,0.00249177,0.407825,20.5143,143.866,0.176588,0.0,0.0
455,113.5,58.573,61.4401,146.749,99.6038,96.9385,0.0025487,0.404658,20.5183,143.425,0.248513,0.0,0.0
462,115.25,58.2382,61.7848,151.855,99.5905,97.4399,0.00249314,0.401257,20.5242,143.235,0.200025,0.0,0.0
469,117,58.2963,62.0808,151.152,99.6106,97.6113,0.00236295,0.398359,20.5289,143.145,0.185776,0.0,0.0
476,118.75,58.1929,61.7686,149.393,99.6122,97.4295,0.00218309,0.396342,20.5327,142.945,0.203006,0.0,0.0
483,120.5,58.5481,61.8489,153.984,99.6082,97.4671,0.00203926,0.393805,20.5353,142.665,0.199096,0.0,0.0
490,122.25,58.64,62.0993,151.236,99.5812,97.8179,0.00199747,0.389083,20.5367,142.394,0.163696,0.0,0.0
497,124,58.3042,61.8577,151.95,99.5989,97.6413,0.00204067,0.38575,20.5403,142.284,0.181883,0.0,0.0
504,125.75,59.1946,62.3919,149.715,99.5824,97.4227,0.0021253,0.385969,20.5439,142.024,0.200902,0.0,0.0
511,127.5,59.04,62.3594,149.005,99.5792,97.4603,0.00213553,0.386808,20.5452,141.784,0.197067,0.0,0.0
518,129.25,58.546,62.6227,152.383,99.5735,97.3526,0.00210766,0.38675,20.5458,141.524,0.20668,0.0,0.0
525,131,59.0402,62.0728,152.523,99.5627,97.7366,0.00208979,0.386286,20.5469,141.333,0.169608,0.0,0.0
532,132.75,58.7719,62.6116,150.714,99.5921,97.6233,0.00201414,0.384966,20.5479,141.193,0.182944,0.0,0.0
539,134.5,58.8434,62.5346,149.782,99.5884,97.7742,0.00192218,0.382448,20.5495,140.933,0.168453,0.0,0.0
546,136.25,58.9919,62.6594,155.683,99.605,97.4819,0.00181482,0.37875,20.5509,140.703,0.197406,0.0,0.0
553,138,58.9847,62.6228,153.051,99.6054,97.4387,0.00174929,0.375693,20.5545,140.463,0.201509,0.0,0.0
560,139.75,59.0342,62.8676,150.088,99.6078,98.1274,0.00175019,0.372015,20.5592,140.312,0.137194,0.0,0.0
567,141.5,58.8899,62.7542,152.194,99.632,97.5176,0.00176524,0.369738,20.5634,140.112,0.196539,0.0,0.0
574,143.25,58.7814,62.6782,148.865,99.6368,98.0041,0.00175246,0.368171,20.5664,139.922,0.151384,0.0,0.0
581,145,58.9123,62.6916,153.361,99.6162,97.6874,0.00173128,0.366384,20.5684,139.612,0.179156,0.0,0.0
588,146.75,58.9,62.7658,151.211,99.6469,97.7951,0.00176042,0.364464,20.57,139.412,0.171874,0.0,0.0
595,148.5,58.2276,62.5028,150.246,99.6747,98.0085,0.00186216,0.362598,20.5716,139.232,0.154454,0.0,0.0
602,150.25,58.5808,62.7892,149.073,99.6823,97.9669,0.00201281,0.360374,20.5741,139.061,0.159053,0.0,0.0
609,152,58.7608,61.8345,155.076,99.6855,98.1987,0.00216196,0.358595,20.5768,138.771,0.13769,0.0,0.0
616,153.75,58.6949,62.6888,154.298,99.7186,97.8419,0.00225267,0.356044,20.579,138.581,0.174077,0.0,0.0
623,155.5,58.795,62.627,151.338,99.7415,97.9725,0.00226622,0.353945,20.5822,138.461,0.16397,0.0,0.0
630,157.25,58.7549,62.324,148.93,99.7572,98.0097,0.00219775,0.351658,20.5846,138.261,0.16193,0.0,0.0
637,159,58.2644,62.6392,150.336,99.7701,98.3681,0.00213841,0.350406,20.5871,138.01,0.129671,0.0,0.0
644,160.75,58.1345,62.1889,150.065,99.7826,98.051,0.00213701,0.350451,20.5896,137.76,0.160406,0.0,0.0
651,162.5,58.7938,62.6907,154.054,99.8072,97.713,0.00208594,0.350339,20.5907,137.6,0.1943,0.0,0.0
658,164.25,58.6639,62.2375,155.684,99.8427,98.1186,0.00204012,0.349141,20.5912,137.43,0.159594,0.0,0.0
665,166,58.615,63.0161,150.879,99.8394,98.097,0.00203226,0.347699,20.5917,137.21,0.161319,0.0,0.0
672,167.75,58.6907,62.8259,155.284,99.8366,98.2732,0.00195818,0.346632,20.5929,136.95,0.144617,0.0,0.0
679,169.5,58.4195,62.4816,150.626,99.8523,98.1511,0.00188063,0.346134,20.5938,136.729,0.157454,0.0,0.0
686,171.25,57.8931,62.5509,155.924,99.8793,98.2207,0.00179893,0.344787,20.5951,136.649,0.153427,0.0,0.0
693,173,58.4646,62.1973,155.962,99.8894,98.2436,0.00173615,0.34359,20.597,136.459,0.152223,0.0,0.0
700,174.75,58.7824,62.5472,151.619,99.8954,98.3549,0.00169842,0.341996,20.5991,136.189,0.142401,0.0,0.0
707,176.5,58.483,62.4524,152.992,99.8878,98.0942,0.00169732,0.339924,20.6007,136.019,0.166016,0.0,0.0
714,178.25,59.0321,61.7447,150.788,99.9115,98.3156,0.00170626,0.33858,20.602,135.829,0.147535,0.0,0.0
721,180,58.5095,62.4361,153.384,99.9244,98.0642,0.0017241,0.337997,20.6036,135.658,0.172182,0.0,0.0
728,181.75,58.1116,62.7662,154.335,99.9184,98.4278,0.00174223,0.337774,20.6049,135.428,0.13772,0.0,0.0
735,183.5,58.2116,62.268,150.987,99.9091,98.4274,0.00179369,0.337877,20.6059,135.158,0.136907,0.0,0.0
742,185.25,58.0527,62.1327,155.26,99.9123,98.479,0.00183544,0.337674,20.6064,134.998,0.132396,0.0,0.0
749,187,58.3722,62.4697,153.055,99.9035,98.5947,0.00185643,0.3369,20.6066,134.838,0.120822,0.0,0.0
756,188.75,58.37,62.3234,156.01,99.8946,98.0161,0.0018934,0.335626,20.6077,134.628,0.17394,0.0,0.0
763,190.5,58.1886,62.2551,148.753,99.8745,97.9585,0.00192907,0.334308,20.6089,134.397,0.177485,0.0,0.0
770,192.25,58.5925,61.8508,151.859,99.8612,98.2424,0.00187104,0.33351,20.6102,134.197,0.149748,0.0,0.0
777,194,58.6034,62.3435,153.748,99.8467,98.6188,0.00173509,0.332748,20.6104,134.067,0.113377,0.0,0.0
784,195.75,58.3723,61.8155,150.233,99.8209,98.2628,0.00160862,0.332071,20.6105,133.857,0.144146,0.0,0.0
791,197.5,58.441,61.958,151.944,99.7971,98.3425,0.00155062,0.331745,20.6114,133.657,0.134537,0.0,0.0
798,199.25,58.3274,61.7443,150.658,99.752,98.1907,0.00151298,0.33137,20.6124,133.396,0.144544,0.0,0.0
805,201,57.8301,62.3809,152.937,99.727,98.2964,0.00149598,0.330551,20.6139,133.316,0.13239,0.0,0.0
812,202.75,58.3632,61.9553,148.788,99.7137,98.2432,0.00156033,0.329937,20.6146,133.086,0.136135,0.0,0.0
819,204.5,58.1581,62.4351,149.377,99.6783,97.9629,0.00166612,0.330196,20.6157,132.916,0.159057,0.0,0.0
826,206.25,58.1863,61.8681,149.686,99.6303,97.9016,0.00167912,0.329925,20.6163,132.616,0.160381,0.0,0.0
833,208,58.1713,61.3242,156.208,99.5735,97.5116,0.00163578,0.329057,20.6177,132.466,0.191731,0.0,0.0
840,209.75,58.0489,61.781,154.736,99.5316,97.9228,0.00168105,0.329227,20.6185,132.336,0.149313,0.0,0.0
847,211.5,58.0018,61.9132,155.643,99.4797,97.7526,0.00181711,0.32951,20.6182,132.135,0.160466,0.0,0.0
854,213.25,58.0291,61.7948,152.729,99.4152,97.8399,0.00191689,0.329079,20.6175,131.885,0.146348,0.0,0.0
861,215,57.8565,61.4372,154.673,99.3649,97.6777,0.00186003,0.328447,20.6172,131.665,0.156907,0.0,0.0
868,216.75,58.0318,61.5992,156.259,99.3064,97.8059,0.00176891,0.32766,20.6181,131.565,0.139506,0.0,0.0
875,218.5,58.1311,61.844,149.504,99.2448,97.4815,0.00174091,0.327721,20.6196,131.375,0.164254,0.0,0.0
882,220.25,58.5099,61.7711,155.376,99.1848,97.5652,0.00181481,0.327641,20.6206,131.185,0.150848,0.0,0.0
889,222,58.1799,61.6664,152.983,99.1167,97.4875,0.00198413,0.327025,20.6211,130.924,0.151855,0.0,0.0
896,223.75,58.1,61.2307,155.133,99.0498,97.5784,0.0021271,0.326682,20.6213,130.734,0.137131,0.0,0.0
903,225.5,57.9276,61.5713,150.385,99.0015,97.2793,0.00216074,0.325992,20.6214,130.634,0.160789,0.0,0.0
910,227.25,57.6711,61.5253,151.787,98.9398,97.3818,0.0020434,0.325603,20.6211,130.434,0.145433,0.0,0.0
917,229,58.3023,61.2402,153.238,98.8774,97.1436,0.00181936,0.325036,20.621,130.164,0.162093,0.0,0.0
924,230.75,57.8349,61.0736,151.874,98.8134,96.9441,0.00162065,0.325471,20.6209,129.983,0.174985,0.0,0.0
931,232.5,58.2514,61.9023,151.19,98.794,97.2497,0.0015307,0.326738,20.6209,129.903,0.144359,0.0,0.0
938,234.25,58.2182,61.1638,153.438,98.7634,97.164,0.0014984,0.327259,20.6198,129.693,0.149597,0.0,0.0
945,236,58.1656,61.5418,159.213,98.7283,97.1051,0.00152696,0.327062,20.6191,129.503,0.151896,0.0,0.0
952,237.75,57.7798,61.3695,155.118,98.705,96.9794,0.00163958,0.326963,20.6188,129.233,0.161601,0.0,0.0
959,239.5,56.8197,60.7149,150.92,98.7026,96.9273,0.00171243,0.326517,20.6187,129.043,0.166296,0.0,0.0
966,241.25,57.9604,61.8352,153.937,98.7227,97.0843,0.00168525,0.325233,20.6186,128.923,0.153338,0.0,0.0
973,243,57.8369,61.6825,155.213,98.7288,97.3025,0.00162563,0.324408,20.6192,128.722,0.133326,0.0,0.0
980,244.75,57.8104,61.5881,151.081,98.7578,97.2204,0.00163362,0.324025,20.6205,128.472,0.143751,0.0,0.0
987,246.5,57.7781,60.8654,156.395,98.7936,97.0494,0.0016477,0.323737,20.6219,128.262,0.163205,0.0,0.0
994,248.25,58.2157,61.1597,150.167,98.8581,97.5372,0.00166344,0.323494,20.6225,128.182,0.12325,0.0,0.0
1001,250,58.3386,61.1282,151.413,98.9241,97.4094,0.00172322,0.323791,20.6229,128.002,0.141378,0.0,0.0
1008,251.75,57.9409,61.2938,155.192,98.9902,97.0426,0.00186085,0.324908,20.623,127.721,0.182062,0.0,0.0
1015,253.5,58.6069,61.6741,151.629,99.0631,97.3214,0.00194048,0.325371,20.6227,127.531,0.162532,0.0,0.0
1022,255.25,58.1567,61.4918,151.367,99.1485,97.3362,0.0019162,0.325181,20.6217,127.411,0.169034,0.0,0.0
1029,257,57.6753,61.2327,153.215,99.2472,97.689,0.0017899,0.325288,20.6209,127.211,0.145001,0.0,0.0
1036,258.75,57.7839,61.5516,150.619,99.3423,97.8635,0.00169472,0.325002,20.6204,127.051,0.137413,0.0,0.0
1043,260.5,57.9305,61.1481,155.183,99.4217,97.7026,0.00168187,0.324733,20.6202,126.781,0.159815,0.0,0.0
1050,262.25,57.8263,61.6145,155.057,99.4994,97.8167,0.00172974,0.324148,20.6201,126.591,0.156281,0.0,0.0
1057,264,57.7167,60.9959,156.536,99.5969,97.87,0.00175564,0.32335,20.621,126.47,0.160266,0.0,0.0
1064,265.75,58.2726,61.5165,155.712,99.6851,98.0778,0.0016874,0.323454,20.6217,126.28,0.148943,0.0,0.0
1071,267.5,57.6173,61.5173,150.613,99.7673,98.0494,0.00160865,0.324515,20.622,126.05,0.159149,0.0,0.0
1078,269.25,58.0209,61.8295,151.445,99.8604,98.254,0.00156666,0.325524,20.6222,125.86,0.148591,0.0,0.0
1085,271,58.1594,61.4093,149.445,99.9442,98.4033,0.00154394,0.326009,20.6212,125.71,0.142358,0.0,0.0
1092,272.75,58.0977,61.3566,151.653,100.042,98.4866,0.00154242,0.325281,20.6206,125.55,0.143575,0.0,0.0
1099,274.5,57.7127,61.604,149.624,100.12,98.3533,0.00164893,0.325003,20.6216,125.339,0.163145,0.0,0.0
1106,276.25,58.2458,61.0223,155.292,100.188,98.7269,0.00179766,0.325753,20.6217,125.089,0.134597,0.0,0.0
1113,278,57.9558,61.7938,151.313,100.259,98.0962,0.00192713,0.326494,20.6212,124.909,0.199836,0.0,0.0
1120,279.75,57.8797,61.3269,144.917,100.323,98.5363,0.00191299,0.326384,20.6206,124.779,0.164638,0.0,0.0
1127,281.5,58.0992,61.2448,152.109,100.379,97.9777,0.00180911,0.325744,20.6203,124.569,0.221879,0.0,0.0
1134,283.25,58.0308,61.1881,155.546,100.428,98.4698,0.00169272,0.32608,20.6202,124.299,0.18042,0.0,0.0
1141,285,57.9493,61.3905,150.043,100.454,98.5919,0.00164273,0.326829,20.6201,124.118,0.17145,0.0,0.0
1148,286.75,57.9917,61.3799,145.967,100.483,98.6244,0.00160956,0.326779,20.6201,123.998,0.171045,0.0,0.0
1155,288.5,57.8669,61.4655,155.903,100.511,98.7581,0.00160255,0.326622,20.6201,123.788,0.161162,0.0,0.0
1162,290.25,57.8375,61.4052,152.88,100.492,98.7225,0.00158475,0.32666,20.6201,123.598,0.162744,0.0,0.0
1169,292,57.9491,61.2167,154.344,100.485,98.8823,0.00150902,0.326503,20.6201,123.358,0.147302,0.0,0.0
1176,293.75,57.5214,61.6178,151.101,100.482,98.8979,0.001444,0.326611,20.6201,123.228,0.145634,0.0,0.0
1183,295.5,58.3342,60.7386,153.689,100.469,98.7033,0.00144492,0.3273,20.6188,123.027,0.162506,0.0,0.0
1190,297.25,57.6651,60.7696,153.405,100.424,98.5187,0.00150534,0.327834,20.6182,122.837,0.175471,0.0,0.0
1197,299,58.1934,61.2699,157.923,100.364,98.3877,0.00160502,0.328145,20.6175,122.557,0.182216,0.0,0.0
1204,300.75,58.2658,61.4421,153.809,100.312,98.5099,0.00168248,0.328158,20.6171,122.397,0.166103,0.0,0.0
1211,302.5,58.1394,61.3556,150.971,100.27,98.7165,0.00168994,0.32824,20.6169,122.277,0.143114,0.0,0.0
1218,304.25,57.7272,61.3318,153.783,100.204,98.1783,0.00166747,0.328801,20.6168,122.097,0.187127,0.0,0.0
1225,306,58.0274,61.2599,150.025,100.13,98.3849,0.00168898,0.32924,20.6167,121.826,0.161084,0.0,0.0
1232,307.75,58.3925,61.4334,150.315,100.059,98.4686,0.00178756,0.329228,20.617,121.656,0.146802,0.0,0.0
1239,309.5,58.2262,61.7377,153.576,99.9849,98.0666,0.00191464,0.328616,20.6173,121.516,0.177499,0.0,0.0
1246,311.25,58.5307,61.3585,147.076,99.9188,97.9933,0.00196898,0.327868,20.6174,121.346,0.178291,0.0,0.0
1253,313,58.0815,61.0521,154.896,99.8471,97.725,0.00189124,0.328324,20.6175,121.156,0.196833,0.0,0.0
1260,314.75,58.2215,61.4185,148.766,99.7641,97.8339,0.00176504,0.329377,20.6175,120.896,0.179008,0.0,0.0
1267,316.5,57.9057,61.4807,156.905,99.7041,98.1407,0.00169564,0.329719,20.6163,120.715,0.144812,0.0,0.0
1274,318.25,58.2675,61.1514,148.061,99.6747,97.8135,0.0016775,0.32936,20.6157,120.595,0.172703,0.0,0.0
1281,320,57.9531,61.1442,154.05,99.6175,97.5532,0.00165449,0.329327,20.6155,120.385,0.191858,0.0,0.0
1288,321.75,58.0382,61.2969,150.831,99.6678,97.4903,0.00159489,0.329531,20.6157,120.185,0.202396,0.0,0.0
1295,323.5,58.2556,61.5538,152.797,99.7758,97.6906,0.0015623,0.330007,20.6158,119.965,0.193518,0.0,0.0
1302,325.25,58.3923,61.201,150.681,99.8769,97.9637,0.00155301,0.330513,20.6158,119.815,0.17722,0.0,0.0
1309,327,58.4532,61.5102,154.814,99.949,97.5244,0.00152687,0.331037,20.6148,119.624,0.225011,0.0,0.0
1316,328.75,57.8268,61.5544,155.269,99.98,97.5216,0.0014889,0.330885,20.6141,119.404,0.228118,0.0,0.0
1323,330.5,58.0766,61.2764,154.968,100.02,98.1571,0.00147157,0.330765,20.6138,119.184,0.172259,0.0,0.0
1330,332.25,58.3905,60.8918,151.603,100.046,98.3789,0.00148148,0.331106,20.6137,119.044,0.153934,0.0,0.0
1337,334,58.3851,61.7215,153.352,100.068,97.874,0.00154457,0.331337,20.6136,118.884,0.203114,0.0,0.0
1344,335.75,58.4393,61.5302,153.09,100.034,98.2992,0.00163639,0.331023,20.6136,118.764,0.160327,0.0,0.0
1351,337.5,58.2969,61.9198,155.604,99.9865,98.3265,0.00173314,0.331,20.6136,118.453,0.153397,0.0,0.0
1358,339.25,58.3589,61.66,155.494,99.9087,97.6169,0.00180952,0.331396,20.6138,118.273,0.212631,0.0,0.0
1365,341,58.4814,61.4737,157.797,99.8209,97.7747,0.00184009,0.331764,20.6135,118.113,0.189776,0.0,0.0
1372,342.75,58.5336,61.4288,151.672,99.7004,97.6765,0.0017985,0.332212,20.6128,117.943,0.187911,0.0,0.0
1379,344.5,58.6143,61.6168,152.093,99.5695,97.9332,0.0017059,0.333166,20.612,117.743,0.151826,0.0,0.0
1386,346.25,58.6445,61.6321,152.658,99.4313,97.4767,0.00164581,0.333171,20.6104,117.543,0.181909,0.0,0.0
1393,348,58.4396,61.1249,153.103,99.3351,97.3746,0.00162802,0.332839,20.6096,117.392,0.182636,0.0,0.0
1400,349.75,59.049,61.4574,148.4,99.2484,97.2024,0.00157957,0.331841,20.6103,117.242,0.19086,0.0,0.0
1407,351.5,58.6398,61.548,152.933,99.2791,97.2513,0.0014727,0.331859,20.6121,117.012,0.189082,0.0,0.0
1414,353.25,58.3751,61.8553,153.421,99.3193,97.506,0.00137758,0.332435,20.6133,116.782,0.168836,0.0,0.0
1421,355,58.529,61.4786,153.537,99.3564,97.2909,0.00142104,0.332009,20.6129,116.602,0.192485,0.0,0.0
1428,356.75,58.7821,61.8241,153.619,99.416,97.4311,0.00159106,0.332319,20.6125,116.472,0.184791,0.0,0.0
1435,358.5,58.4208,61.3806,152.619,99.4845,97.5628,0.00177058,0.333639,20.6123,116.292,0.17872,0.0,0.0
1442,360.25,58.7001,61.3762,157.323,99.5554,97.405,0.00186918,0.335066,20.6116,116.061,0.200077,0.0,0.0
1449,362,58.6562,61.4102,151.507,99.6183,97.6829,0.00189746,0.33478,20.6098,115.851,0.179755,0.0,0.0
1456,363.75,58.6343,61.8161,150.433,99.698,97.3165,0.00191154,0.334288,20.6086,115.711,0.221521,0.0,0.0
1463,365.5,58.6351,61.711,148.888,99.7673,98.1146,0.00190877,0.334123,20.608,115.501,0.153052,0.0,0.0
1470,367.25,58.8064,61.6059,151.68,99.8132,97.5668,0.0018368,0.333815,20.6082,115.341,0.20857,0.0,0.0
1477,369,58.8656,61.4813,151.955,99.8596,97.8411,0.00174761,0.334455,20.6087,115.11,0.187098,0.0,0.0
1484,370.75,58.6097,61.3166,155.905,99.8882,97.4439,0.00168746,0.335231,20.6077,114.94,0.226998,0.0,0.0
1491,372.5,58.2892,61.5636,153.841,99.9196,97.9557,0.00165929,0.335493,20.6062,114.77,0.181885,0.0,0.0
1498,374.25,58.2786,61.6677,152.653,99.9289,97.6065,0.00164993,0.33607,20.6054,114.61,0.215455,0.0,0.0
1505,376,58.4629,61.8737,149.685,99.9119,97.5981,0.00170495,0.336123,20.6051,114.37,0.214694,0.0,0.0
1512,377.75,58.4775,61.9576,153.606,99.8938,97.7038,0.0017597,0.335149,20.6049,114.2,0.203111,0.0,0.0
1519,379.5,58.7877,61.8869,153.57,99.8729,97.7678,0.00173022,0.33516,20.6048,114.05,0.195184,0.0,0.0
1526,381.25,59.0047,61.46,148.247,99.8294,97.2645,0.00167199,0.336212,20.605,113.879,0.238485,0.0,0.0
1533,383,58.6297,61.8377,152.488,99.7597,97.7126,0.00163908,0.336958,20.6053,113.679,0.189972,0.0,0.0
1540,384.75,59.1019,61.7203,157.949,99.673,97.518,0.00162903,0.337359,20.6045,113.459,0.200281,0.0,0.0
1547,386.5,59.4668,60.8811,152.534,99.6021,97.1668,0.00167778,0.337793,20.6039,113.279,0.226817,0.0,0.0
1554,388.25,58.8035,61.8379,153.612,99.5208,97.4219,0.0017601,0.337954,20.6036,113.139,0.195306,0.0,0.0
1561,390,59.1494,61.7205,158.35,99.447,97.1464,0.00183786,0.337724,20.6046,112.959,0.214463,0.0,0.0
1568,391.75,58.7946,62.2773,154.117,99.3391,97.4691,0.00199709,0.337887,20.6055,112.688,0.17412,0.0,0.0
1575,393.5,59.0348,62.0881,153.448,99.2247,96.995,0.00213993,0.338152,20.6059,112.518,0.208239,0.0,0.0
1582,395.25,59.1424,62.0325,151.47,99.1497,96.5044,0.00215858,0.338918,20.6061,112.398,0.247774,0.0,0.0
1589,397,59.0914,61.5495,153.21,99.047,96.3242,0.00205701,0.339059,20.6054,112.228,0.2554,0.0,0.0
1596,398.75,58.5709,61.8436,153.629,98.9552,96.782,0.00192125,0.339401,20.6046,111.988,0.203466,0.0,0.0
1603,400.5,59.1915,61.9333,153.554,98.8649,96.7199,0.00179882,0.338787,20.6043,111.798,0.200984,0.0,0.0
1610,402.25,58.9801,61.9129,148.626,98.8073,96.5365,0.00169025,0.337662,20.6047,111.627,0.213033,0.0,0.0
1617,404,59.3357,61.8464,156.667,98.7557,96.613,0.00164292,0.337741,20.6055,111.447,0.200994,0.0,0.0
1624,405.75,59.2292,61.6138,155.468,98.7187,95.9899,0.00171251,0.338938,20.605,111.287,0.256839,0.0,0.0
1631,407.5,59.2829,62.2523,152.595,98.6953,96.6362,0.00181185,0.340114,20.6038,111.057,0.193183,0.0,0.0
1638,409.25,58.9267,62.2463,149.698,98.6897,96.1873,0.00192144,0.340505,20.6027,110.897,0.235321,0.0,0.0
1645,411,59.3599,62.0868,152.722,98.7094,96.4468,0.00201981,0.340228,20.6021,110.767,0.212468,0.0,0.0
1652,412.75,59.575,62.027,154.981,98.7404,96.263,0.00203484,0.340799,20.6019,110.587,0.232826,0.0,0.0
1659,414.5,59.5183,61.6836,152.808,98.7763,96.1256,0.00200124,0.341526,20.6013,110.356,0.249235,0.0,0.0
1666,416.25,59.6519,62.2301,158.478,98.8279,96.4696,0.00199791,0.342316,20.601,110.176,0.221288,0.0,0.0
1673,418,59.2363,62.2748,152.116,98.9133,96.456,0.00208475,0.342386,20.6007,110.026,0.230496,0.0,0.0
1680,419.75,59.3835,61.9179,154.095,99.0083,96.599,0.00219647,0.342667,20.5995,109.846,0.225729,0.0,0.0
1687,421.5,59.0695,62.258,149.985,99.1002,96.088,0.00220214,0.343073,20.599,109.646,0.282819,0.0,0.0
1694,423.25,59.3396,62.0517,155.703,99.1965,96.476,0.00215893,0.342896,20.5987,109.416,0.254791,0.0,0.0
1701,425,59.1342,62.0521,153.27,99.3121,96.3543,0.00216686,0.342796,20.5986,109.265,0.277033,0.0,0.0
1708,426.75,59.4875,62.2216,151.083,99.4406,96.0231,0.00213988,0.342489,20.5985,109.135,0.320427,0.0,0.0
1715,428.5,59.6367,62.0665,151.414,99.5611,96.6318,0.00205071,0.343465,20.5985,108.905,0.273623,0.0,0.0
1722,430.25,59.1644,61.8763,156.352,99.6606,96.9085,0.00196459,0.345638,20.5979,108.725,0.256576,0.0,0.0
1729,432,59.8649,62.1153,156.02,99.7701,96.6154,0.00194266,0.346582,20.5957,108.535,0.294401,0.0,0.0
1736,433.75,59.7272,62.6433,149.61,99.9003,97.4495,0.00200778,0.346106,20.5936,108.415,0.227579,0.0,0.0
1743,435.5,59.6948,62.1334,153.025,100.003,96.9057,0.00212347,0.346101,20.592,108.214,0.288269,0.0,0.0
1750,437.25,59.3578,62.1345,147.463,100.127,97.2941,0.00212252,0.346477,20.5919,108.024,0.263014,0.0,0.0
1757,439,59.92,62.7037,154.205,100.196,97.1375,0.00204589,0.346477,20.5918,107.794,0.284037,0.0,0.0
1764,440.75,59.51,62.5835,150.335,100.287,97.3522,0.00196629,0.34642,20.5918,107.624,0.272172,0.0,0.0
1771,442.5,60.0424,62.012,155.255,100.371,97.0931,0.00191894,0.347017,20.5918,107.454,0.304205,0.0,0.0
1778,444.25,59.8314,62.7664,151.295,100.412,97.1844,0.00193962,0.347721,20.5918,107.284,0.299343,0.0,0.0
1785,446,60.0489,62.2845,154.409,100.447,97.6217,0.00199678,0.348366,20.5907,107.083,0.261442,0.0,0.0
1792,447.75,59.8834,62.6362,150.211,100.476,97.0679,0.00198549,0.349494,20.5901,106.893,0.316179,0.0,0.0
1799,449.5,60.0522,62.0894,152.466,100.505,97.19,0.00194294,0.350799,20.5885,106.753,0.307265,0.0,0.0
1806,451.25,59.8062,62.8574,156.09,100.513,97.2849,0.00192787,0.35127,20.5878,106.553,0.299131,0.0,0.0
1813,453,60.7232,61.8475,151.902,100.481,96.8793,0.00191752,0.351476,20.5863,106.303,0.334441,0.0,0.0
1820,454.75,59.8543,62.7291,152.192,100.45,96.6366,0.00190563,0.35217,20.5855,106.143,0.354627,0.0,0.0
1827,456.5,59.7477,62.6753,151.381,100.432,97.2421,0.00195048,0.353188,20.5847,106.023,0.295746,0.0,0.0
1834,458.25,59.8575,62.7337,151.809,100.377,96.8721,0.00197984,0.354547,20.5836,105.822,0.325639,0.0,0.0
1841,460,60.1814,62.2786,151.274,100.299,96.5525,0.00186895,0.355574,20.5826,105.622,0.348777,0.0,0.0
1848,461.75,60.1638,62.5739,152.355,100.237,96.2333,0.00180502,0.356329,20.5814,105.422,0.373445,0.0,0.0
1855,463.5,60.0692,62.9143,147.847,100.162,96.7055,0.0019249,0.356945,20.5803,105.232,0.321788,0.0,0.0
1862,465.25,60.1098,63.4838,151.727,100.093,96.7059,0.00221518,0.35878,20.5791,105.062,0.315446,0.0,0.0
1869,467,60.5893,62.914,148.498,100.015,96.3939,0.00244675,0.360741,20.578,104.882,0.337892,0.0,0.0
1876,468.75,60.6451,63.2474,152.48,99.9285,96.3026,0.00248278,0.361417,20.5754,104.641,0.338636,0.0,0.0
1883,470.5,60.4502,63.0569,152.791,99.8495,96.1653,0.00241752,0.361848,20.5731,104.451,0.344471,0.0,0.0
1890,472.25,60.011,63.2188,157.514,99.7899,95.6903,0.00227883,0.362863,20.5716,104.301,0.384361,0.0,0.0
1897,474,60.4326,63.7549,151.245,99.7355,95.9222,0.0021872,0.363827,20.5702,104.101,0.357192,0.0,0.0
1904,475.75,60.5811,62.9674,150.272,99.6775,95.8633,0.00220188,0.365235,20.5691,103.921,0.357486,0.0,0.0
1911,477.5,60.4663,63.1875,150.507,99.6291,95.2707,0.00226863,0.367593,20.5681,103.62,0.409862,0.0,0.0
1918,479.25,61.1991,63.3941,152.676,99.6376,94.8198,0.00237381,0.369284,20.5661,103.48,0.454107,0.0,0.0
1925,481,60.9033,63.407,148.182,99.7504,95.7012,0.00243357,0.370675,20.5649,103.32,0.379699,0.0,0.0
1932,482.75,61.2481,63.4505,155.104,99.8439,95.7164,0.00239499,0.372204,20.5632,103.12,0.386824,0.0,0.0
1939,484.5,61.262,63.4555,154.226,99.895,95.6447,0.0022394,0.37396,20.5612,102.86,0.398382,0.0,0.0
1946,486.25,61.1099,63.4754,151.134,99.9542,94.8594,0.00215868,0.374412,20.5601,102.69,0.479348,0.0,0.0
1953,488,61.4347,64.0173,150.462,100.008,95.6988,0.00221122,0.374498,20.5595,102.54,0.403545,0.0,0.0
1960,489.75,61.1004,63.9636,153.025,100.044,95.8958,0.00235964,0.376191,20.5591,102.349,0.388023,0.0,0.0
1967,491.5,61.2675,64.0544,147.416,100.066,95.762,0.00246065,0.377662,20.5582,102.109,0.402839,0.0,0.0
1974,493.25,61.6944,64.3208,151.331,100.071,95.4237,0.00242196,0.379525,20.5561,101.899,0.435752,0.0,0.0
1981,495,61.6138,64.3122,151.607,100.082,95.7392,0.00231317,0.3815,20.5539,101.709,0.406462,0.0,0.0
1988,496.75,61.6915,64.4853,154.841,100.078,95.559,0.00228379,0.383249,20.5507,101.509,0.423391,0.0,0.0
1995,498.5,61.4497,64.1848,148.359,100.047,94.9724,0.0022976,0.38495,20.5489,101.298,0.476901,0.0,0.0
2002,500.25,61.7248,64.7021,156.604,100.024,95.1337,0.00241084,0.386081,20.5469,101.058,0.459279,0.0,0.0
2009,502,61.3403,64.5454,153.076,99.9655,95.0108,0.00261837,0.387822,20.5459,100.868,0.465774,0.0,0.0
2016,503.75,61.2191,64.4372,149.782,99.9409,94.8246,0.00280138,0.388397,20.5442,100.718,0.481496,0.0,0.0
2023,505.5,61.3025,64.2137,148.982,99.8854,95.1942,0.00283763,0.389135,20.5418,100.478,0.440754,0.0,0.0
2030,507.25,61.9954,64.5818,150.949,99.8201,95.0873,0.00273099,0.389667,20.541,100.227,0.445062,0.0,0.0
2037,509,61.7287,64.7925,151.018,99.744,93.9769,0.00262449,0.38992,20.5405,100.017,0.545699,0.0,0.0
2044,510.75,62.0517,64.9317,147.392,99.6706,94.7537,0.00260281,0.391379,20.5402,99.9072,0.463531,0.0,0.0
2051,512.5,62.3579,65.3347,148.779,99.584,93.9797,0.00266455,0.393779,20.5397,99.637,0.530722,0.0,0.0
2058,514.25,62.2539,65.2998,157.026,99.501,94.5591,0.00277902,0.395457,20.537,99.4268,0.466764,0.0,0.0
2065,516,61.9783,65.008,150.336,99.4148,94.2379,0.0028446,0.395777,20.5338,99.1766,0.489994,0.0,0.0
2072,517.75,62.466,65.3311,150.958,99.3705,94.4374,0.00285476,0.395996,20.5313,99.0164,0.466541,0.0,0.0
2079,519.5,62.3306,65.4526,152.442,99.323,94.2456,0.00284503,0.396082,20.5298,98.8463,0.480786,0.0,0.0
2086,521.25,62.7666,65.3849,151.972,99.2783,93.902,0.00288925,0.397082,20.5292,98.6261,0.510122,0.0,0.0
2093,523,62.8236,65.5373,152.904,99.2577,93.6,0.0029788,0.397826,20.528,98.3659,0.537735,0.0,0.0
2100,524.75,62.7829,65.7829,151.331,99.275,94.4117,0.00305375,0.39787,20.527,98.1357,0.46022,0.0,0.0
2107,526.5,63.1341,65.5144,148.7,99.2883,93.6149,0.00305607,0.39847,20.5267,97.9555,0.539111,0.0,0.0
2114,528.25,62.8536,65.4453,151.951,99.304,93.0606,0.00292594,0.399524,20.5267,97.7854,0.594965,0.0,0.0
2121,530,63.0824,66.0998,151.169,99.3189,93.413,0.00278998,0.399995,20.5268,97.5351,0.56171,0.0,0.0
2128,531.75,62.372,65.7156,143.294,99.3133,93.0458,0.00270735,0.400559,20.5268,97.2949,0.597279,0.0,0.0
2135,533.5,62.858,65.9063,153.307,99.3508,93.5344,0.00272524,0.401576,20.5268,97.1548,0.552752,0.0,0.0
2142,535.25,62.8638,65.8475,148.798,99.3548,92.8392,0.00279482,0.401472,20.5262,96.9646,0.621475,0.0,0.0
2149,537,62.3555,65.9897,149.174,99.3532,92.979,0.0028349,0.400568,20.5253,96.7745,0.607544,0.0,0.0
2156,538.75,63.2937,66.2624,146.322,99.3479,93.1832,0.00286199,0.400403,20.5249,96.5042,0.586959,0.0,0.0
2163,540.5,62.9114,65.7349,149.137,99.3572,93.4675,0.00290409,0.40122,20.5242,96.284,0.559899,0.0,0.0
2170,542.25,62.8268,65.7737,148.768,99.3645,92.651,0.00295155,0.401948,20.5239,96.1239,0.640962,0.0,0.0
2177,544,63.9612,66.1589,149.713,99.3697,93.1896,0.00293283,0.402876,20.5227,95.9337,0.588335,0.0,0.0
2184,545.75,63.3732,66.4182,149.879,99.3649,93.5752,0.00285413,0.402989,20.521,95.6735,0.550053,0.0,0.0
2191,547.5,63.0221,66.9244,150.354,99.3484,92.7383,0.00278488,0.402449,20.52,95.4834,0.630846,0.0,0.0
2198,549.25,63.2177,66.7251,156.781,99.3588,93.2597,0.0028122,0.401679,20.5195,95.3332,0.580445,0.0,0.0
2205,551,64.1184,66.0431,153.312,99.3608,93.1532,0.00295926,0.39997,20.5202,95.1631,0.591101,0.0,0.0
2212,552.75,63.1581,66.4995,151.526,99.3516,92.7912,0.00305847,0.397438,20.5208,94.9829,0.625922,0.0,0.0
2219,554.5,63.3984,66.0015,155.947,99.3314,93.1964,0.00302503,0.39422,20.5229,94.7327,0.584136,0.0,0.0
2226,556.25,63.2826,66.8412,150.811,99.3306,92.4848,0.00289483,0.391739,20.5252,94.6026,0.654289,0.0,0.0
2233,558,63.0845,66.0577,147.645,99.325,93.1219,0.00276078,0.389379,20.5284,94.4124,0.590867,0.0,0.0
2240,559.75,63.1887,66.0253,153.513,99.3121,93.407,0.00267288,0.38696,20.532,94.2323,0.561668,0.0,0.0
2247,561.5,63.1564,66.796,153.47,99.2976,93.8659,0.00265831,0.383663,20.5346,94.0621,0.515424,0.0,0.0
2254,563.25,63.4304,65.8412,153.206,99.2815,94.1623,0.00270389,0.379893,20.5372,93.8719,0.485058,0.0,0.0
2261,565,63.0125,65.6686,157.343,99.2758,94.3417,0.00278654,0.375359,20.5403,93.8019,0.467098,0.0,0.0
2268,566.75,62.9571,66.2989,155.927,99.296,95.1133,0.00284886,0.369799,20.5448,93.6217,0.394318,0.0,0.0
2275,568.5,62.0491,66.0977,156.35,99.3588,95.4148,0.00288029,0.363801,20.5499,93.5016,0.371115,0.0,0.0
2282,570.25,62.6357,65.022,159.628,99.4108,95.6843,0.002859,0.356998,20.5559,93.3315,0.350062,0.0,0.0
2289,572,62.0699,65.6812,155.485,99.4837,95.8185,0.00280043,0.347805,20.5624,93.3014,0.343945,0.0,0.0
2296,573.75,61.2196,65.3908,157.215,99.58,95.7112,0.00277473,0.336468,20.5694,93.2414,0.363075,0.0,0.0
2303,575.5,61.4659,64.4007,155.735,99.6602,96.7135,0.00270809,0.323125,20.5812,93.1413,0.274996,0.0,0.0
2310,577.25,61.1009,64.3196,154.764,99.744,96.794,0.00245698,0.308511,20.5947,93.0012,0.275075,0.0,0.0
2317,579,60.5261,63.7776,157.557,99.8237,97.4487,0.00224074,0.295702,20.6109,92.9311,0.220631,0.0,0.0
2324,580.75,60.2716,63.3121,158.019,99.9075,97.6882,0.00203322,0.280492,20.6293,92.9211,0.205831,0.0,0.0
2331,582.5,59.6654,63.2221,159.543,99.974,98.2748,0.00192751,0.26284,20.6459,92.8911,0.157067,0.0,0.0
2338,584.25,59.7064,62.0334,165.081,100.023,98.9868,0.00188393,0.245407,20.664,92.811,0.0953918,0.0,0.0
2345,586,58.7974,61.9777,160.255,100.052,99.0697,0.00192994,0.22691,20.6827,92.741,0.0903781,0.0,0.0
2352,587.75,58.3974,61.95,158.792,100.082,99.3256,0.00204668,0.209291,20.7051,92.781,0.0694742,0.0,0.0
2359,589.5,58.4516,60.6887,159.896,100.096,99.3179,0.00218168,0.193584,20.7257,92.761,0.0714664,0.0,0.0
2366,591.25,57.0903,60.5933,160.059,100.105,99.1902,0.00231576,0.178767,20.7443,92.6709,0.0841063,0.0,0.0
2373,593,56.3909,60.2612,163.213,100.08,99.332,0.00237521,0.165643,20.7641,92.5808,0.0687718,0.0,0.0
2380,594.75,55.8154,59.3261,159.861,100.072,99.2098,0.00237274,0.155766,20.7807,92.5808,0.0792706,0.0,0.0
2387,596.5,55.4072,59.3852,161.076,100.04,99.2034,0.002351,0.146875,20.7925,92.6609,0.0769475,0.0,0.0
2394,598.25,54.9897,58.971,162.105,99.9925,99.0917,0.00235443,0.140015,20.8026,92.6409,0.0829179,0.0,0.0
2401,600,54.7442,58.1407,159.983,99.916,99.1357,0.00245965,0.134432,20.8136,92.4907,0.0718295,0.0,0.0
2408,601.75,54.1755,57.6535,159.952,99.8467,98.9487,0.00264595,0.130053,20.8232,92.4707,0.0827718,0.0,0.0
2415,603.5,53.4504,56.7273,163.359,99.7572,98.9175,0.0028751,0.126536,20.8299,92.5408,0.0774544,0.0,0.0
2422,605.25,53.3103,56.4572,161.108,99.6638,98.9267,0.00309572,0.123978,20.8354,92.5308,0.068014,0.0,0.0
2429,607,52.9992,56.0715,165.125,99.6489,99.0525,0.00323338,0.122426,20.8392,92.4107,0.0550044,0.0,0.0
2436,608.75,52.5813,55.7308,162.854,99.6771,99.0076,0.00328856,0.121672,20.842,92.3706,0.0617464,0.0,0.0
2443,610.5,51.9467,55.255,159.928,99.7379,99.0853,0.00335566,0.121472,20.8436,92.4307,0.0601492,0.0,0.0
2450,612.25,51.815,54.9245,159.326,99.7859,98.972,0.00347197,0.121734,20.8443,92.4407,0.0750378,0.0,0.0
2457,614,51.5781,54.1543,163.178,99.839,99.2487,0.00364504,0.122117,20.8447,92.3906,0.0543388,0.0,0.0
2464,615.75,51.2949,54.1035,162.928,99.8982,99.2423,0.00383925,0.122286,20.8438,92.2505,0.0603641,0.0,0.0
2471,617.5,50.6808,53.111,163.856,99.9579,99.2575,0.00392552,0.121921,20.8433,92.2605,0.0644257,0.0,0.0
2478,619.25,50.9766,52.9403,162.137,100.037,99.3664,0.0039443,0.120704,20.8436,92.3106,0.0616129,0.0,0.0
2485,621,50.2886,53.1697,158.834,100.112,99.217,0.00394475,0.119458,20.8453,92.3006,0.0822923,0.0,0.0
2492,622.75,49.7795,52.7736,158.995,100.173,99.2331,0.00396119,0.117761,20.8472,92.2005,0.0863788,0.0,0.0
2499,624.5,49.6485,52.6738,165.649,100.255,99.7068,0.00398179,0.116408,20.8493,92.1304,0.0502194,0.0,0.0
2506,626.25,49.3558,51.9551,165.085,100.338,99.4645,0.00402829,0.115486,20.852,92.2005,0.0801281,0.0,0.0
2513,628,49.4636,51.2638,159.505,100.391,99.6147,0.00411854,0.115105,20.8535,92.1905,0.0711239,0.0,0.0
2520,629.75,48.5847,51.0284,163.366,100.443,99.7552,0.00420966,0.114961,20.8543,92.2105,0.0629104,0.0,0.0
2527,631.5,48.0171,50.4093,162.005,100.468,99.7016,0.00423203,0.114603,20.8546,92.0504,0.0701907,0.0,0.0
2534,633.25,47.6216,50.2849,163.437,100.501,99.8085,0.00418026,0.114155,20.8548,92.0203,0.0633833,0.0,0.0
2541,635,47.5181,50.2469,162.51,100.513,99.7272,0.00412256,0.113603,20.8549,92.1104,0.0718761,0.0,0.0
2548,636.75,47.8304,49.8389,159.66,100.517,99.6563,0.00410273,0.113562,20.8549,92.0904,0.0787584,0.0,0.0
2555,638.5,47.6041,49.5686,163.675,100.483,99.8125,0.00413489,0.113881,20.8549,91.9703,0.0613634,0.0,0.0
2562,640.25,46.8396,48.6837,165.197,100.43,99.6796,0.00426672,0.114022,20.8549,91.9503,0.0687609,0.0,0.0
2569,642,46.6202,48.9198,162.884,100.397,99.6147,0.00445562,0.114044,20.8551,92.0103,0.0716756,0.0,0.0
2576,643.75,46.6434,48.6047,162.41,100.307,99.4801,0.00466795,0.113876,20.8552,91.9903,0.0758568,0.0,0.0
2583,645.5,46.5256,48.4144,167.103,100.191,99.5038,0.0047857,0.113069,20.8557,91.9102,0.0630764,0.0,0.0
2590,647.25,46.3008,48.0052,163.898,100.088,99.3792,0.00476269,0.112038,20.857,91.8302,0.0650786,0.0,0.0
2597,649,46.2347,48.2441,161.762,99.9607,99.3035,0.00471993,0.111037,20.8592,91.9202,0.0604346,0.0,0.0
2604,650.75,45.5206,47.3971,166.492,99.8201,99.1001,0.0047273,0.110213,20.8608,91.9102,0.0663268,0.0,0.0
2611,652.5,45.8897,47.7664,161.76,99.6553,98.8586,0.00469707,0.109393,20.8616,91.8902,0.0735427,0.0,0.0
2618,654.25,45.6286,47.1059,161.159,99.4982,98.986,0.00462735,0.108792,20.863,91.7601,0.0472903,0.0,0.0
2625,656,45.2212,46.9018,161.992,99.3536,98.5984,0.00457211,0.10829,20.8639,91.7401,0.0699143,0.0,0.0
2632,657.75,44.9939,46.8702,160.463,99.2194,98.3024,0.00454249,0.108082,20.865,91.8402,0.085076,0.0,0.0
2639,659.5,44.8217,46.3307,161.996,99.0563,98.3317,0.00457977,0.108519,20.866,91.8001,0.0672713,0.0,0.0
2646,661.25,44.4034,46.27,161.428,98.9217,98.1579,0.00465941,0.108991,20.8652,91.7301,0.0710253,0.0,0.0
2653,663,44.2855,46.2472,164.394,98.8109,98.0389,0.00480095,0.109031,20.8637,91.68,0.0718663,0.0,0.0
2660,664.75,44.0343,46.1418,166.668,98.7618,98.2664,0.00494404,0.108735,20.8624,91.7001,0.0460754,0.0,0.0
2667,666.5,44.1361,46.1204,162.947,98.7034,97.8607,0.00515897,0.108697,20.8621,91.7401,0.0785558,0.0,0.0
2674,668.25,44.0119,45.2564,164.692,98.6905,98.0449,0.00537705,0.108312,20.8624,91.69,0.0601286,0.0,0.0
2681,670,43.5497,45.4178,162.883,98.701,98.1254,0.00549013,0.108066,20.8625,91.5699,0.053583,0.0,0.0
2688,671.75,44.0804,44.9987,162.202,98.7513,98.1435,0.00553833,0.107646,20.8632,91.5299,0.0565731,0.0,0.0
2695,673.5,43.9527,45.1515,166.24,98.848,98.1046,0.00553548,0.107101,20.8641,91.64,0.0691664,0.0,0.0
2702,675.25,43.0721,44.7849,166.68,98.9568,98.2031,0.00548384,0.107221,20.8646,91.61,0.0700487,0.0,0.0
2709,677,43.3596,44.5842,163.299,99.0696,98.3869,0.00545971,0.107459,20.8648,91.4899,0.0633541,0.0,0.0
2716,678.75,43.6171,44.8578,163.493,99.2073,98.5211,0.00550858,0.107505,20.8649,91.4698,0.0636025,0.0,0.0
2723,680.5,42.9913,44.608,160.036,99.3705,98.7013,0.00559821,0.107444,20.8649,91.5699,0.0619156,0.0,0.0
2730,682.25,42.9781,44.1274,163.467,99.4817,98.8202,0.00568239,0.107318,20.8649,91.5499,0.061129,0.0,0.0
2737,684,43.0996,44.2918,166.558,99.5973,98.8254,0.00575215,0.107041,20.865,91.4398,0.0712887,0.0,0.0
2744,685.75,42.0945,43.7904,170.428,99.7017,99.0016,0.00576582,0.106853,20.864,91.3798,0.0645613,0.0,0.0
2751,687.5,42.6177,43.6069,167.573,99.7987,99.0424,0.00569414,0.106635,20.8633,91.4298,0.0696997,0.0,0.0
2758,689.25,42.4074,43.1367,163.868,99.87,99.2799,0.00562587,0.106052,20.8639,91.4698,0.054303,0.0,0.0
2765,691,42.8644,43.31,161.284,99.9071,99.1265,0.00563582,0.105948,20.8643,91.4598,0.0718674,0.0,0.0
2772,692.75,42.1593,43.0701,169.314,99.8995,99.1385,0.00565493,0.106164,20.8656,91.3497,0.0700552,0.0,0.0
2779,694.5,42.148,43.7078,166.03,99.9095,99.1458,0.00559665,0.106687,20.8663,91.3397,0.0703132,0.0,0.0
2786,696.25,41.7566,42.9292,163.813,99.8435,99.0937,0.00549629,0.106697,20.8666,91.3898,0.0690634,0.0,0.0
2793,698,41.5734,42.8472,164.355,99.7693,98.9952,0.00550502,0.105873,20.867,91.3698,0.0713721,0.0,0.0
2800,699.75,41.8887,42.8621,163.536,99.6622,99.1257,0.00559825,0.105283,20.8682,91.3097,0.0494503,0.0,0.0
2807,701.5,42.1448,42.7556,164.656,99.5445,98.7926,0.00561428,0.105074,20.8687,91.2697,0.0694775,0.0,0.0
2814,703.25,41.7479,42.3961,164.448,99.4221,98.7497,0.00555264,0.104997,20.8685,91.3097,0.0621727,0.0,0.0
2821,705,41.377,42.6957,159.779,99.3629,98.4085,0.00554056,0.104982,20.8681,91.3397,0.0884247,0.0,0.0
2828,706.75,41.227,42.4239,163.078,99.2948,98.5039,0.00560788,0.104877,20.8687,91.2897,0.073275,0.0,0.0
2835,708.5,41.3734,42.0586,166.996,99.2339,98.4582,0.00566076,0.104953,20.8691,91.1796,0.0719064,0.0,0.0
2842,710.25,41.184,42.2739,164.467,99.3923,98.5115,0.00568968,0.10521,20.8696,91.1596,0.0815583,0.0,0.0
2849,712,41.1496,41.7191,161.311,99.5981,98.7529,0.00577298,0.105533,20.8691,91.2496,0.0780848,0.0,0.0
2856,713.75,41.1203,41.8088,167.807,99.783,99.0845,0.00589165,0.10583,20.8685,91.2296,0.0643682,0.0,0.0
2863,715.5,40.951,41.7735,164.557,99.9313,99.3123,0.00596884,0.105659,20.8682,91.1296,0.0569259,0.0,0.0
2870,717.25,40.9291,41.7919,161.71,100.012,99.2727,0.00602324,0.105293,20.8681,91.1095,0.0679684,0.0,0.0
2877,719,40.9171,41.8912,163.099,100.048,99.5398,0.00607622,0.104858,20.868,91.1896,0.0466709,0.0,0.0
2884,720.75,40.7356,41.8394,169.924,100.038,99.209,0.00607097,0.104508,20.868,91.1596,0.0762088,0.0,0.0
2891,722.5,40.7455,41.7556,162.858,99.9796,99.4397,0.00595093,0.10407,20.8679,91.0795,0.0496165,0.0,0.0
2898,724.25,40.789,41.4614,165.158,99.8394,99.0873,0.00582374,0.103896,20.8679,91.0094,0.0692867,0.0,0.0
2905,726,40.4586,41.0985,162.438,99.6972,99.0268,0.00586298,0.103883,20.8679,91.0595,0.061819,0.0,0.0
2912,727.75,40.5443,41.6363,164.778,99.6199,98.7757,0.00600562,0.103758,20.8679,91.0895,0.0779689,0.0,0.0
2919,729.5,40.5719,41.4631,164.502,99.7069,98.9632,0.00622456,0.103881,20.8679,91.0595,0.0686016,0.0,0.0
2926,731.25,40.4083,41.31,164.92,99.8004,99.2983,0.00648486,0.104064,20.8679,90.9494,0.0462058,0.0,0.0
2933,733,40.7307,41.1533,161.527,99.9083,99.3996,0.00664942,0.104127,20.8684,90.9394,0.0467687,0.0,0.0
2940,734.75,40.3021,41.0997,160.38,100.03,99.362,0.0066475,0.104285,20.8689,91.0495,0.0613536,0.0,0.0
2947,736.5,40.7058,41.0227,160.673,100.146,99.4012,0.00655561,0.104604,20.8691,91.0195,0.0683934,0.0,0.0
2954,738.25,40.6688,41.1034,167.314,100.248,99.4529,0.00644781,0.105195,20.8698,90.9694,0.0729175,0.0,0.0
2961,740,40.0621,40.6471,163.916,100.337,99.6243,0.00638273,0.105672,20.87,90.9094,0.0652738,0.0,0.0
2968,741.75,40.3968,40.7525,161.398,100.405,99.4661,0.0063337,0.105745,20.8708,90.9294,0.0860856,0.0,0.0
2975,743.5,40.0494,40.5464,163.109,100.47,99.7332,0.00628586,0.105983,20.8712,90.9794,0.0674317,0.0,0.0
2982,745.25,40.0672,40.606,163.555,100.484,99.8209,0.0062536,0.106414,20.8714,90.9594,0.0606277,0.0,0.0
2989,747,39.796,40.3007,166.396,100.462,99.8249,0.00623558,0.106436,20.8715,90.8093,0.0583119,0.0,0.0
2996,748.75,39.9846,40.403,166.014,100.411,99.8305,0.00617652,0.106199,20.8715,90.8093,0.0530944,0.0,0.0
2999,749.5,39.933,40.7518,162.837,100.39,99.4565,0.00614482,0.105952,20.8715,90.8793,0.0856106,0.0,0.0