File: 01_Data/Basswood_Panel/Cone/Basswood_Panel_Cone_HF25Scan_221212_R3.csv
Names,Time,Stack TC,Smoke TC,Exh Press,Smoke Comp,Smoke Meas,CO Meter,CO2 Meter,O2 Meter,Sample Mass,Ext Coeff,Start Test,Flame Verif
Chan Gain,,500,500,1,1,1,1,1,1,1,1,1.0,1.0
Offset,,0,0,0.136389,0,0,0,0,0,0,0,0.0,0.0
Gain,,1,1,25.011,14.2696,296.664,1,1,1,1.0009,1.04656,1.0,1.0
Units,sec,C,C,Pa,%,%,%,%,%,g,/m,,
Baseline,,21.8294,22.4432,162.486,106.183,108.79,0.000530139,0.0621582,20.9623,-445.043,-0.222628,,
9,2,19.8408,21.0383,161.868,107.011,109.855,0.000351519,0.0658637,20.9589,158.722,-0.240784,0.0,0.0
18,4.25,20.2379,20.4474,158.97,107.118,110.57,0.000300443,0.0645464,20.9601,158.712,-0.291136,0.0,0.0
27,6.5,20.0689,20.4909,163.733,107.208,109.293,0.000189329,0.062839,20.9624,158.682,-0.176847,0.0,0.0
36,8.75,20.0445,20.4877,163.638,107.273,109.692,7.86323e-05,0.0613876,20.9646,158.642,-0.204655,0.0,0.0
45,11,19.9569,20.4457,164.182,107.314,109.665,5.96531e-05,0.0604868,20.966,158.572,-0.19888,0.0,0.0
54,13.25,20.463,20.938,161.236,107.36,110.045,6.71491e-05,0.0598348,20.9676,158.602,-0.226744,0.0,0.0
63,15.5,20.2377,21.0237,161.624,107.381,109.348,5.51364e-05,0.0596044,20.9686,158.562,-0.166617,0.0,0.0
72,17.75,20.1916,21.0763,160.643,107.368,110.054,7.70235e-05,0.0594354,20.9689,158.532,-0.22683,0.0,0.0
81,20,20.2411,20.8087,160.12,107.352,109.556,8.55993e-05,0.0586924,20.9691,158.502,-0.18654,0.0,0.0
90,22.25,20.428,20.8604,161.402,107.342,109.755,9.61084e-05,0.0577369,20.9708,158.512,-0.204108,0.0,0.0
99,24.5,20.4222,20.8699,160.643,107.291,109.031,0.000211478,0.0569445,20.9727,158.492,-0.147648,0.0,0.0
108,26.75,20.4339,21.0818,162.692,107.225,110.624,0.000310396,0.0562863,20.9733,158.412,-0.286543,0.0,0.0
117,29,20.0331,20.7161,160.643,107.174,109.818,0.000320823,0.0558389,20.9736,158.422,-0.223758,0.0,0.0
126,31.25,20.71,20.5841,161.514,107.11,109.402,0.000284038,0.0555936,20.9748,158.412,-0.194362,0.0,0.0
135,33.5,20.1673,20.9337,160.278,107.037,108.578,0.000320621,0.0552537,20.976,158.392,-0.131278,0.0,0.0
144,35.75,20.6087,21.0366,161.117,106.951,109.637,0.000421892,0.0550948,20.9765,158.322,-0.227765,0.0,0.0
153,38,20.2076,21.0998,161.007,106.893,109.674,0.000545883,0.0552201,20.9759,158.342,-0.235769,0.0,0.0
162,40.25,20.0478,21.1935,158.392,106.817,108.406,0.000623958,0.0554474,20.975,158.312,-0.135603,0.0,0.0
171,42.5,20.3015,20.9191,163.93,106.715,109.366,0.000587617,0.0556141,20.9745,158.212,-0.225276,0.0,0.0
180,44.75,20.0054,20.8372,162.979,106.659,109.04,0.000476794,0.0558597,20.9731,158.252,-0.202711,0.0,0.0
189,47,20.6836,21.0933,163.017,106.577,108.795,0.000313257,0.0561788,20.9725,158.232,-0.189156,0.0,0.0
198,49.25,20.6277,21.3983,165.36,106.497,109.674,0.000272936,0.0565989,20.9723,158.202,-0.269867,0.0,0.0
207,51.5,20.6839,20.9555,158.9,106.452,108.415,0.000432371,0.0570815,20.9722,158.122,-0.167787,0.0,0.0
216,53.75,20.0475,20.9157,159.824,106.612,108.433,0.000539592,0.0576095,20.9722,158.142,-0.155473,0.0,0.0
225,56,20.7504,21.0888,160.098,106.77,109.266,0.000580907,0.0580028,20.9704,158.112,-0.212194,0.0,0.0
234,58.25,20.871,20.7527,163.942,106.846,108.451,0.000500603,0.0586058,20.9696,158.022,-0.13689,0.0,0.0
243,60.5,20.0388,21.1922,166.375,106.945,109.076,0.000485319,0.0592289,20.9694,158.032,-0.181129,0.0,0.0
252,62.75,20.3881,21.4501,161.519,106.966,108.56,0.000554858,0.0595756,20.9693,158.012,-0.135761,0.0,0.0
261,65,20.6202,21.3666,164.516,106.957,108.171,0.000620635,0.0597602,20.9692,157.982,-0.103566,0.0,0.0
270,67.25,20.3897,21.3137,164.829,106.904,108.986,0.000714269,0.0598524,20.9692,157.891,-0.17702,0.0,0.0
279,69.5,20.2055,21.1933,161.976,106.818,108.442,0.000697261,0.0601097,20.9692,157.891,-0.138556,0.0,0.0
288,71.75,20.6479,21.1774,163.306,106.689,107.691,0.000758708,0.0605891,20.9678,157.851,-0.0858433,0.0,0.0
297,74,20.4706,21.4491,161.775,106.491,107.917,0.000878581,0.0612908,20.9672,157.781,-0.122108,0.0,0.0
306,76.25,20.9598,21.4118,161.448,106.262,107.836,0.000941161,0.0616001,20.967,157.741,-0.134942,0.0,0.0
315,78.5,20.9398,21.319,156.726,106.048,107.039,0.000945242,0.0616273,20.9665,157.731,-0.0853556,0.0,0.0
324,80.75,20.8797,21.0512,164.73,106.091,107.265,0.00114501,0.0614895,20.9661,157.691,-0.101091,0.0,0.0
333,83,20.5848,21.4874,166.1,106.16,107.021,0.00138916,0.0615395,20.9656,157.581,-0.0741198,0.0,0.0
342,85.25,20.9139,21.7207,164.673,106.25,107.111,0.00139258,0.0615619,20.9655,157.601,-0.0741281,0.0,0.0
351,87.5,20.8505,21.4178,162.377,106.334,106.849,0.00121231,0.0615409,20.9667,157.571,-0.0443764,0.0,0.0
360,89.75,21.2739,21.5211,160.684,106.416,106.695,0.00114128,0.0616634,20.9673,157.491,-0.0240027,0.0,0.0
369,92,20.8571,21.2682,162.331,106.525,106.713,0.00127413,0.0619173,20.9681,157.441,-0.0161728,0.0,0.0
378,94.25,20.7415,21.6743,163.49,106.606,107.89,0.00142953,0.0621645,20.9683,157.401,-0.109929,0.0,0.0
387,96.5,20.5807,21.4407,161.175,106.669,107.093,0.00157768,0.0624042,20.9685,157.371,-0.0364885,0.0,0.0
396,98.75,20.4493,21.4067,160.64,106.688,107.356,0.00168526,0.0624612,20.9679,157.251,-0.0572809,0.0,0.0
405,101,21.1397,21.8403,161.489,106.677,107.012,0.00175883,0.0625449,20.9672,157.251,-0.0287511,0.0,0.0
414,103.25,20.8754,21.6914,161.479,106.632,107.6,0.00186798,0.0627004,20.967,157.191,-0.0829572,0.0,0.0
423,105.5,20.9279,21.7908,162.741,106.547,106.514,0.00199826,0.0632435,20.9669,157.121,0.00281541,0.0,0.0
432,107.75,21.126,21.7735,162.177,106.421,106.07,0.00209099,0.0637509,20.9669,157.031,0.0303189,0.0,0.0
441,110,20.9082,22.1107,157.383,106.308,106.197,0.0021985,0.0639839,20.9657,157.021,0.00962112,0.0,0.0
450,112.25,20.9249,22.1334,162.435,106.169,107.519,0.00234736,0.069882,20.9618,156.941,-0.115981,0.0,0.0
459,114.5,21.0508,22.0197,154.645,105.994,114.97,0.00253133,0.107813,20.9012,156.66,-0.746246,0.0,1.0
468,116.75,22.4308,22.6929,147.976,105.848,116.925,0.0027314,0.208515,20.7732,156.43,-0.913727,0.0,1.0
477,119,23.8858,23.4274,136.937,105.704,119.795,0.00302259,0.314268,20.6698,156.06,-1.14881,0.0,1.0
486,121.25,25.7462,25.4351,143.508,105.566,118.763,0.00322288,0.394265,20.5879,155.75,-1.08145,0.0,0.0
495,123.5,27.757,27.4962,141.045,105.45,118.374,0.00330277,0.445138,20.5369,155.359,-1.06135,0.0,0.0
504,125.75,29.2316,29.5927,140.02,105.386,117.541,0.00328649,0.47637,20.5001,155.079,-1.00213,0.0,0.0
513,128,31.1156,31.1562,141.878,105.331,119.451,0.00327473,0.497722,20.4722,154.749,-1.15492,0.0,0.0
522,130.25,32.6502,32.6592,141.628,105.319,119.85,0.00331253,0.512346,20.4533,154.368,-1.18654,0.0,0.0
531,132.5,34.5349,34.2698,142.777,105.353,117.378,0.00335994,0.520437,20.4434,154.028,-0.992282,0.0,0.0
540,134.75,35.33,36.0586,139.626,105.43,119.705,0.00339894,0.528696,20.4338,153.658,-1.16573,0.0,0.0
549,137,36.9714,37.315,141.883,105.526,119.958,0.0035115,0.534825,20.429,153.287,-1.17677,0.0,0.0
558,139.25,38.3716,39.0653,141,105.66,119.515,0.00352576,0.531007,20.4355,152.877,-1.13114,0.0,0.0
567,141.5,39.3333,40.2023,142.053,105.833,118.582,0.00338336,0.517371,20.4497,152.627,-1.04418,0.0,0.0
576,143.75,40.2771,41.5457,146.005,106.01,119.651,0.00320952,0.499471,20.4679,152.316,-1.11119,0.0,0.0
585,146,40.7901,42.0983,141.911,106.198,118.627,0.00303852,0.48168,20.4881,151.956,-1.01612,0.0,0.0
594,148.25,41.2486,43.28,145.37,106.415,118.673,0.0027604,0.464253,20.5072,151.706,-1.00086,0.0,0.0
603,150.5,41.9803,44.0196,143.847,106.604,119.343,0.00256818,0.449359,20.5273,151.416,-1.03629,0.0,0.0
612,152.75,43.1785,44.3446,147.039,106.803,119.379,0.00247839,0.436347,20.5447,151.135,-1.02191,0.0,0.0
621,155,43.2341,45.0993,149.838,106.96,120.574,0.00244187,0.424275,20.5575,150.795,-1.09989,0.0,0.0
630,157.25,43.6156,45.8095,144.057,107.098,120.646,0.00241815,0.412345,20.5724,150.585,-1.09353,0.0,0.0
639,159.5,43.7336,46.2506,144.853,107.209,119.605,0.00242781,0.401216,20.5868,150.315,-1.00448,0.0,0.0
648,161.75,44.1107,46.6892,144.669,107.293,120.085,0.00257066,0.391593,20.5968,150.074,-1.03404,0.0,0.0
657,164,44.5163,46.9785,146.104,107.363,121.344,0.0025755,0.385233,20.6019,149.824,-1.12379,0.0,0.0
666,166.25,44.6429,47.1966,150.79,107.38,122.285,0.00241126,0.380605,20.6077,149.584,-1.1933,0.0,0.0
675,168.5,44.7529,47.6412,145.951,107.376,121.063,0.00212497,0.376003,20.6112,149.324,-1.10138,0.0,0.0
684,170.75,44.8375,47.7893,147.4,107.325,121.38,0.00197064,0.369217,20.618,149.054,-1.12973,0.0,0.0
693,173,44.9167,48.0106,147.497,107.28,121.905,0.00191341,0.361944,20.6269,148.853,-1.17327,0.0,0.0
702,175.25,44.7944,48.3445,151.64,107.185,121.371,0.00192032,0.3555,20.6332,148.613,-1.14101,0.0,0.0
711,177.5,45.1331,48.3493,153.767,107.082,121.126,0.00196004,0.349953,20.6397,148.363,-1.13135,0.0,0.0
720,179.75,45.05,48.5472,145.734,106.958,120.728,0.00191148,0.344252,20.6467,148.063,-1.11175,0.0,0.0
729,182,44.9347,48.6369,149.042,106.846,119.786,0.00182286,0.339972,20.6511,147.923,-1.04952,0.0,0.0
738,184.25,44.9376,48.6931,150.957,106.729,120.882,0.00178794,0.336834,20.6543,147.702,-1.14317,0.0,0.0
747,186.5,44.8836,48.8642,147.565,106.61,120.619,0.0017864,0.334084,20.6571,147.402,-1.1334,0.0,0.0
756,188.75,45.0763,48.6656,144.579,106.527,119.986,0.0017935,0.332458,20.6596,147.232,-1.09216,0.0,0.0
765,191,44.8413,48.9536,148.976,106.474,119.94,0.00175857,0.330557,20.6618,147.032,-1.09332,0.0,0.0
774,193.25,45.0017,49.0115,143.845,106.685,121.316,0.00176297,0.327397,20.6651,146.832,-1.17989,0.0,0.0
783,195.5,45.2954,48.4135,152.064,106.824,120.348,0.00179302,0.323486,20.669,146.531,-1.09427,0.0,0.0
792,197.75,44.1725,49.3229,152.357,106.938,119.479,0.00179135,0.320987,20.6711,146.391,-1.01797,0.0,0.0
801,200,44.8683,48.8223,146.827,106.992,121.036,0.00176199,0.318602,20.6752,146.171,-1.13225,0.0,0.0
810,202.25,44.7755,48.6158,148.577,106.997,118.618,0.0016612,0.315925,20.6786,145.961,-0.946601,0.0,0.0
819,204.5,44.5969,48.6701,144.815,106.95,120.502,0.00155867,0.313308,20.6805,145.741,-1.0952,0.0,0.0
828,206.75,45.1127,48.3867,146.687,106.876,120.121,0.0015639,0.311188,20.6817,145.57,-1.07254,0.0,0.0
837,209,44.6648,48.7082,151.859,106.74,119.614,0.00161521,0.310915,20.6826,145.33,-1.04542,0.0,0.0
846,211.25,44.1601,49.0014,151.37,106.539,122.339,0.00168788,0.309302,20.6851,145.1,-1.26951,0.0,0.0
855,213.5,43.7426,48.8408,151.405,106.33,119.913,0.00180253,0.306054,20.6882,144.94,-1.10368,0.0,0.0
864,215.75,44.3701,48.2529,148.363,106.055,120.683,0.0019197,0.303917,20.6911,144.73,-1.18619,0.0,0.0
873,218,44.4938,48.1706,147.121,106.09,120.628,0.00195667,0.302742,20.6935,144.55,-1.17897,0.0,0.0
882,220.25,44.26,48.4318,147.207,106.154,121.09,0.00189593,0.301152,20.6953,144.279,-1.20851,0.0,0.0
891,222.5,43.8954,48.631,145.619,106.24,119.044,0.00192655,0.299222,20.6981,144.149,-1.04468,0.0,0.0
900,224.75,44.2203,48.4323,150.738,106.318,119.976,0.00192898,0.296938,20.6998,143.959,-1.10954,0.0,0.0
909,227,44.1655,47.9764,147.653,106.378,120.33,0.00176684,0.295268,20.7015,143.689,-1.13137,0.0,0.0
918,229.25,43.7285,48.0605,147.449,106.456,121.579,0.00161507,0.294352,20.7035,143.549,-1.2194,0.0,0.0
927,231.5,44.1696,47.5911,147.168,106.546,119.497,0.00167461,0.293542,20.7043,143.368,-1.05307,0.0,0.0
936,233.75,43.6724,48.172,148.068,106.615,121.172,0.00189168,0.292794,20.7052,143.178,-1.17496,0.0,0.0
945,236,44.029,47.7501,148.545,106.654,121.28,0.00202531,0.291737,20.7063,142.898,-1.17978,0.0,0.0
954,238.25,43.6804,47.8734,148.955,106.674,121.072,0.0019849,0.291487,20.7068,142.788,-1.16228,0.0,0.0
963,240.5,43.7058,47.9594,149.6,106.668,121.181,0.00206284,0.290826,20.7074,142.588,-1.17104,0.0,0.0
972,242.75,43.7945,47.7902,152.029,106.635,121.271,0.00215773,0.288796,20.7101,142.398,-1.1807,0.0,0.0
981,245,43.4686,47.668,151.961,106.607,120.004,0.00196262,0.287205,20.7116,142.197,-1.08672,0.0,0.0
990,247.25,43.4833,47.5526,152.115,106.521,120.094,0.00174123,0.286214,20.7136,142.007,-1.10107,0.0,0.0
999,249.5,43.4229,47.6197,149.835,106.434,120.61,0.00173163,0.284261,20.7157,141.847,-1.14787,0.0,0.0
1008,251.75,43.1881,47.5456,156.428,106.308,120.339,0.00183143,0.281654,20.7178,141.587,-1.13804,0.0,0.0
1017,254,43.3209,47.5565,150.712,106.201,119.469,0.0018839,0.279563,20.7196,141.477,-1.08079,0.0,0.0
1026,256.25,42.8535,47.2832,155.952,106.068,119.904,0.00190624,0.277555,20.7224,141.297,-1.12557,0.0,0.0
1035,258.5,42.6821,47.1435,151.37,105.919,119.134,0.00203687,0.275415,20.7248,141.076,-1.07943,0.0,0.0
1044,260.75,42.6065,47.0505,149.119,105.8,119.189,0.00205364,0.274783,20.7258,140.826,-1.09389,0.0,0.0
1053,263,42.6394,46.8861,147.864,105.674,119.741,0.00191947,0.273755,20.7274,140.716,-1.14726,0.0,0.0
1062,265.25,42.7719,46.6418,145.327,105.568,118.89,0.00177844,0.272352,20.7287,140.516,-1.09101,0.0,0.0
1071,267.5,42.7809,46.6048,153.206,105.451,118.501,0.00179096,0.270399,20.7312,140.276,-1.07106,0.0,0.0
1080,269.75,42.4964,46.5777,151.145,105.389,119.08,0.00180852,0.268525,20.7326,140.176,-1.12126,0.0,0.0
1089,272,42.449,46.1969,151.48,105.335,118.202,0.00177645,0.267138,20.7342,139.995,-1.05801,0.0,0.0
1098,274.25,42.2917,46.1656,148.419,105.308,117.704,0.00172519,0.266327,20.7351,139.815,-1.02161,0.0,0.0
1107,276.5,42.152,46.1513,150.56,105.279,118.32,0.00162336,0.266308,20.7355,139.585,-1.07201,0.0,0.0
1116,278.75,42.2503,45.9853,152.372,105.302,118.646,0.00166831,0.26576,20.7361,139.465,-1.09529,0.0,0.0
1125,281,42.2282,45.3265,151.192,105.353,120.284,0.0018975,0.265085,20.7373,139.295,-1.21681,0.0,0.0
1134,283.25,42.0347,45.6414,156.415,105.413,118.926,0.00198085,0.263519,20.7378,139.085,-1.10734,0.0,0.0
1143,285.5,41.7489,45.4331,145.602,105.503,120.221,0.00182883,0.262446,20.7387,138.955,-1.19885,0.0,0.0
1152,287.75,41.4075,45.833,153.955,105.633,118.492,0.00169672,0.261816,20.7397,138.784,-1.05456,0.0,0.0
1161,290,42.0548,45.5991,150.58,105.762,119.488,0.00175475,0.260637,20.7411,138.574,-1.1202,0.0,0.0
1170,292.25,41.6905,45.6869,153.207,105.93,119.297,0.00190051,0.260025,20.7426,138.364,-1.09096,0.0,0.0
1179,294.5,41.6744,45.3755,151.786,106.082,119.433,0.00204224,0.25913,20.7432,138.264,-1.08832,0.0,0.0
1188,296.75,41.0447,44.6631,149.296,106.248,119.144,0.00218561,0.259711,20.7434,138.064,-1.05164,0.0,0.0
1197,299,41.4525,45.3176,150.499,106.395,120.936,0.00228766,0.259456,20.7435,137.854,-1.17603,0.0,0.0
1206,301.25,41.6068,45.1984,152.968,106.572,120.284,0.00224233,0.258707,20.7433,137.693,-1.11117,0.0,0.0
1215,303.5,41.3535,44.971,154.483,106.744,120.158,0.0022118,0.258689,20.7437,137.573,-1.08665,0.0,0.0
1224,305.75,41.2174,45.0758,148.458,106.871,120.791,0.0021917,0.257406,20.7445,137.403,-1.12405,0.0,0.0
1233,308,41.2777,44.8094,150.525,106.993,121.117,0.00214855,0.257065,20.7447,137.153,-1.13828,0.0,0.0
1242,310.25,41.1094,44.7707,148.37,107.115,121.588,0.00218376,0.256197,20.7469,137.073,-1.16344,0.0,0.0
1251,312.5,41.0805,44.7667,152.163,107.208,121.534,0.00221864,0.254421,20.7482,136.893,-1.15143,0.0,0.0
1260,314.75,41.0517,44.3836,151.499,107.276,120.9,0.00221829,0.253933,20.7487,136.662,-1.09754,0.0,0.0
1269,317,41.0472,44.4712,148.298,107.332,121.425,0.00218522,0.253142,20.7489,136.502,-1.13256,0.0,0.0
1278,319.25,41.0003,44.2105,149.201,107.358,121.479,0.00209404,0.253355,20.749,136.362,-1.13447,0.0,0.0
1287,321.5,41.093,44.2733,146.507,107.379,120.438,0.00204674,0.253799,20.749,136.192,-1.05362,0.0,0.0
1296,323.75,41.0544,44.1888,148.4,107.363,120.972,0.00201878,0.253527,20.749,135.942,-1.09562,0.0,0.0
1305,326,40.6174,44.494,150.438,107.351,120.013,0.00192637,0.254285,20.7481,135.872,-1.02351,0.0,0.0
1314,328.25,40.9987,44.2313,150.569,107.316,120.547,0.0017136,0.254054,20.748,135.722,-1.06734,0.0,0.0
1323,330.5,40.6371,44.3919,151.134,107.233,120.601,0.00166981,0.25334,20.7486,135.531,-1.07855,0.0,0.0
1332,332.75,40.1421,44.3306,148.61,107.155,121.534,0.00174387,0.253456,20.7496,135.351,-1.15594,0.0,0.0
1341,335,40.7064,44.0972,151.614,107.075,121.135,0.00183204,0.253684,20.7503,135.191,-1.13267,0.0,0.0
1350,337.25,40.3908,43.989,151.402,106.981,119.913,0.00177904,0.253603,20.7505,135.011,-1.0476,0.0,0.0
1359,339.5,40.5099,44.1983,151.533,106.865,119.841,0.001595,0.252628,20.7517,134.811,-1.05204,0.0,0.0
1368,341.75,40.6393,43.8669,154.42,106.78,120.746,0.00154215,0.252167,20.7525,134.701,-1.12839,0.0,0.0
1377,344,40.2528,43.921,148.138,106.68,118.446,0.00163681,0.25081,20.7528,134.521,-0.960481,0.0,0.0
1386,346.25,40.548,43.8219,150.362,106.605,119.949,0.00178548,0.249691,20.7536,134.36,-1.08275,0.0,0.0
1395,348.5,40.6238,43.5617,155.621,106.526,119.804,0.00185796,0.250442,20.7532,134.13,-1.07845,0.0,0.0
1404,350.75,40.6753,43.5477,156.59,106.466,119.614,0.00179888,0.250516,20.7543,134.04,-1.06901,0.0,0.0
1413,353,40.6169,43.6396,152.476,106.588,118.637,0.00180239,0.250135,20.7549,133.88,-0.983191,0.0,0.0
1422,355.25,40.4863,43.3561,152.846,106.725,120.203,0.0019261,0.248757,20.7548,133.65,-1.09179,0.0,0.0
1431,357.5,40.5777,43.4801,149.838,106.838,119.777,0.00212591,0.246938,20.7559,133.55,-1.04946,0.0,0.0
1440,359.75,40.5765,43.4448,154.289,106.931,119.786,0.00224718,0.246792,20.7559,133.38,-1.04223,0.0,0.0
1449,362,40.1781,43.6297,153.706,106.98,120.375,0.00216905,0.247318,20.7549,133.219,-1.08296,0.0,0.0
1458,364.25,39.7341,43.8735,152.674,106.996,120.031,0.00196535,0.247807,20.7545,132.999,-1.05534,0.0,0.0
1467,366.5,39.8422,43.8728,148.94,106.996,120.999,0.00185528,0.24901,20.7544,132.899,-1.12913,0.0,0.0
1476,368.75,40.4379,43.4313,149.691,106.936,119.542,0.00180976,0.248998,20.7543,132.739,-1.02303,0.0,0.0
1485,371,40.1486,43.2527,155.996,106.842,119.451,0.00180408,0.247999,20.7557,132.569,-1.02411,0.0,0.0
1494,373.25,40.264,43.1776,149.935,106.726,119.343,0.00189796,0.247597,20.7563,132.399,-1.02575,0.0,0.0
1503,375.5,40.0957,43.026,143.86,106.575,119.804,0.00197473,0.247425,20.7565,132.238,-1.07421,0.0,0.0
1512,377.75,39.8857,43.3041,155.703,106.377,119.542,0.00197185,0.246906,20.7569,132.048,-1.07115,0.0,0.0
1521,380,39.9726,43.1084,152.178,106.136,119.813,0.00202841,0.246422,20.7578,131.808,-1.11276,0.0,0.0
1530,382.25,40.3803,42.5444,153.133,106.083,119.424,0.00219745,0.24612,20.7581,131.748,-1.08748,0.0,0.0
1539,384.5,40.0512,43.0649,156.786,106.106,119.017,0.00220022,0.245857,20.7582,131.578,-1.05411,0.0,0.0
1548,386.75,40.1114,42.9748,151.662,106.127,119.768,0.00197677,0.246282,20.757,131.358,-1.11008,0.0,0.0
1557,389,40.0073,42.8665,152.014,106.194,119.026,0.00185999,0.246721,20.7564,131.198,-1.0472,0.0,0.0
1566,391.25,40.0088,42.8873,151.126,106.267,119.098,0.00185011,0.24768,20.7561,131.067,-1.04654,0.0,0.0
1575,393.5,39.7991,42.8358,148.726,106.32,118.836,0.00175499,0.247165,20.756,130.897,-1.02165,0.0,0.0
1584,395.75,40.1963,42.612,152.492,106.366,118.899,0.0015312,0.246691,20.756,130.657,-1.02256,0.0,0.0
1593,398,40.0826,42.8107,152.746,106.436,120.782,0.00135377,0.246557,20.7556,130.567,-1.16084,0.0,0.0
1602,400.25,39.9687,42.7417,149.812,106.477,120.23,0.0012759,0.246162,20.7553,130.417,-1.11524,0.0,0.0
1611,402.5,39.6011,43.0143,151.35,106.534,119.886,0.001335,0.245633,20.7559,130.267,-1.08402,0.0,0.0
1620,404.75,39.7922,43.1009,152.266,106.595,119.832,0.00156301,0.245298,20.7574,130.047,-1.0746,0.0,0.0
1629,407,39.7072,42.6355,151.264,106.619,119.406,0.00165663,0.245125,20.7569,129.916,-1.03981,0.0,0.0
1638,409.25,39.7574,42.7257,152.809,106.643,120.076,0.00161076,0.245619,20.7568,129.766,-1.08915,0.0,0.0
1647,411.5,39.8948,42.6933,147.967,106.632,120.139,0.00162721,0.245356,20.7568,129.556,-1.09489,0.0,0.0
1656,413.75,39.7122,42.5379,154.834,106.637,119.551,0.001727,0.245237,20.7583,129.446,-1.04944,0.0,0.0
1665,416,39.878,42.4595,149.684,106.614,120.855,0.00176706,0.24447,20.7588,129.266,-1.151,0.0,0.0
1674,418.25,39.7578,42.3482,150.422,106.585,118.99,0.00172099,0.24517,20.759,129.116,-1.0107,0.0,0.0
1683,420.5,39.8649,42.5177,151.267,106.516,120.275,0.00163353,0.246372,20.7577,128.885,-1.11528,0.0,0.0
1692,422.75,39.6595,42.3661,148.737,106.46,119.967,0.00161744,0.246255,20.7572,128.795,-1.09664,0.0,0.0
1701,425,39.6265,42.6546,154.675,106.379,120.139,0.00171931,0.245702,20.7565,128.635,-1.11674,0.0,0.0
1710,427.25,39.5803,42.5193,149.484,106.285,119.433,0.001876,0.245492,20.7562,128.455,-1.07074,0.0,0.0
1719,429.5,39.7183,42.7655,149.39,106.216,118.745,0.00205958,0.245634,20.7561,128.295,-1.02364,0.0,0.0
1728,431.75,39.8671,42.4232,152.345,106.099,119.705,0.00225158,0.245959,20.756,128.175,-1.10763,0.0,0.0
1737,434,39.828,42.6444,149.764,105.989,119.451,0.00230385,0.246318,20.756,128.015,-1.09774,0.0,0.0
1746,436.25,39.627,42.4336,155.09,105.865,120.094,0.00228385,0.244918,20.7573,127.754,-1.15777,0.0,0.0
1755,438.5,39.4695,42.2675,150.989,105.769,120.221,0.00229252,0.244944,20.7579,127.654,-1.17573,0.0,0.0
1764,440.75,39.4518,42.3897,149.522,105.689,120.61,0.00226851,0.244842,20.7581,127.494,-1.21236,0.0,0.0
1773,443,39.6092,42.3429,152.843,105.574,119.116,0.00219745,0.244738,20.757,127.324,-1.10798,0.0,0.0
1782,445.25,39.45,42.5218,147.951,105.494,119.017,0.00216273,0.246127,20.7551,127.144,-1.10727,0.0,0.0
1791,447.5,39.4551,42.5089,152.701,105.415,119.497,0.00215939,0.246633,20.7547,127.034,-1.15103,0.0,0.0
1800,449.75,39.7455,42.3287,156.81,105.355,118.048,0.00218653,0.246184,20.7563,126.864,-1.04434,0.0,0.0
1809,452,39.7514,42.1472,151.949,105.292,117.903,0.00218641,0.24581,20.7569,126.623,-1.03853,0.0,0.0
1818,454.25,39.8322,42.1043,150.044,105.265,118.41,0.00210099,0.245648,20.7571,126.523,-1.08028,0.0,0.0
1827,456.5,39.3741,42.4728,155.126,105.249,118.139,0.00212101,0.245601,20.7572,126.373,-1.06057,0.0,0.0
1836,458.75,39.3922,42.2246,152.66,105.241,119.605,0.00214074,0.245658,20.7572,126.233,-1.1746,0.0,0.0
1845,461,39.2339,42.2375,153.12,105.241,117.876,0.00201552,0.24584,20.7573,125.983,-1.0409,0.0,0.0
1854,463.25,39.7249,42.3841,150.941,105.269,118.6,0.00192852,0.245274,20.7573,125.893,-1.09467,0.0,0.0
1863,465.5,39.7027,42.4006,146.768,105.294,118.944,0.00197695,0.245169,20.7573,125.753,-1.11909,0.0,0.0
1872,467.75,39.6432,42.408,160.556,105.331,117.414,0.00202193,0.244991,20.7573,125.522,-0.997011,0.0,0.0
1881,470,39.5558,42.3551,150.213,105.394,119.623,0.00200929,0.244248,20.7572,125.382,-1.16266,0.0,0.0
1890,472.25,39.8159,42.1118,153.554,105.459,118.139,0.00196853,0.243955,20.7568,125.262,-1.04228,0.0,0.0
1899,474.5,39.5347,42.1928,153.601,105.524,119.279,0.00200513,0.244608,20.7567,125.122,-1.12489,0.0,0.0
1908,476.75,39.7404,41.9071,149.562,105.597,118.944,0.00213088,0.243793,20.7567,124.872,-1.09271,0.0,0.0
1917,479,39.5989,41.9756,147.421,105.706,120.963,0.00217618,0.244056,20.7566,124.812,-1.23776,0.0,0.0
1926,481.25,39.5523,42.2549,153.12,105.799,118.238,0.00210902,0.244253,20.7566,124.642,-1.02045,0.0,0.0
1935,483.5,39.581,41.9325,159.016,105.893,119.116,0.00204616,0.243923,20.7566,124.472,-1.08023,0.0,0.0
1944,485.75,39.5973,42.1764,151.088,106.01,119.958,0.00203933,0.244507,20.7566,124.281,-1.13478,0.0,0.0
1953,488,39.5863,42.0639,152.367,106.126,121.072,0.00211658,0.245186,20.7566,124.151,-1.20954,0.0,0.0
1962,490.25,39.4434,42.0525,149.282,106.26,119.307,0.00218026,0.245071,20.7566,123.981,-1.06317,0.0,0.0
1971,492.5,39.3084,42.3209,155.381,106.356,120.791,0.00214902,0.244239,20.7571,123.801,-1.16841,0.0,0.0
1980,494.75,39.5463,42.2846,150.187,106.478,120.592,0.002105,0.243191,20.7586,123.701,-1.1427,0.0,0.0
1989,497,39.8447,42.0989,157.625,106.594,121.063,0.00196225,0.242574,20.7592,123.551,-1.16853,0.0,0.0
1998,499.25,39.7393,41.8405,151.985,106.689,120.194,0.00182217,0.242477,20.7588,123.371,-1.09417,0.0,0.0
2007,501.5,39.321,42.0166,151.269,106.784,120.483,0.00179269,0.244321,20.7566,123.14,-1.10807,0.0,0.0
2016,503.75,39.5935,41.8245,153.715,106.868,121.298,0.00186475,0.245709,20.7551,123.1,-1.16276,0.0,0.0
2025,506,39.5325,41.9213,151.344,106.954,121.172,0.0019912,0.246163,20.7533,122.92,-1.14576,0.0,0.0
2034,508.25,39.5018,41.9397,153.594,107.035,120.23,0.00202387,0.24671,20.7523,122.68,-1.06719,0.0,0.0
2043,510.5,39.8011,42.1076,148.098,107.115,121.199,0.00199936,0.247192,20.752,122.56,-1.134,0.0,0.0
2052,512.75,39.7954,41.6526,155.754,107.188,120.637,0.00196159,0.246753,20.7523,122.41,-1.08519,0.0,0.0
2061,515,39.335,41.9817,151.366,107.238,121.289,0.00188816,0.246893,20.7525,122.28,-1.13033,0.0,0.0
2070,517.25,39.9068,41.8277,148.057,107.27,121.208,0.00190309,0.248248,20.7523,122.049,-1.12144,0.0,0.0
2079,519.5,40.0061,41.3659,148.095,107.316,122.756,0.00195281,0.249228,20.7509,121.939,-1.23401,0.0,0.0
2088,521.75,39.3616,42.0736,150.977,107.344,120.583,0.00190836,0.249272,20.7516,121.779,-1.06763,0.0,0.0
2097,524,39.8422,42.1128,144.325,107.355,122.629,0.00186655,0.248318,20.7515,121.609,-1.22121,0.0,0.0
2106,526.25,39.6376,41.8938,150.225,107.356,122.068,0.00191705,0.247826,20.7513,121.479,-1.17902,0.0,0.0
2115,528.5,39.4265,42.5801,150.57,107.356,120.52,0.00192062,0.247739,20.7512,121.349,-1.0618,0.0,0.0
2124,530.75,39.8156,42.2366,147.345,107.346,121.561,0.00187597,0.248958,20.7504,121.149,-1.14163,0.0,0.0
2133,533,39.6485,42.3464,151.831,107.331,121.018,0.0018062,0.250095,20.7494,120.908,-1.10178,0.0,0.0
2142,535.25,39.8664,42.2411,151.025,107.326,120.637,0.00178461,0.249662,20.7504,120.858,-1.07337,0.0,0.0
2151,537.5,39.9616,42.1874,148.16,107.29,120.719,0.00189359,0.249757,20.7514,120.688,-1.08259,0.0,0.0
2160,539.75,39.7528,42.5591,147.482,107.242,122.321,0.00199495,0.251219,20.7508,120.508,-1.20779,0.0,0.0
2169,542,39.4332,42.4053,151.409,107.211,121.262,0.00191308,0.251979,20.7505,120.298,-1.13063,0.0,0.0
2178,544.25,39.95,42.4941,152.699,107.167,121.878,0.00172523,0.25218,20.7504,120.198,-1.18084,0.0,0.0
2187,546.5,39.981,42.2797,156.028,107.122,121.706,0.00167969,0.251878,20.7503,120.058,-1.17172,0.0,0.0
2196,548.75,39.7933,42.6024,151.589,107.059,120.194,0.00167918,0.251325,20.7503,119.807,-1.06241,0.0,0.0
2205,551,39.9827,42.0089,149.835,107.02,121.072,0.00156799,0.251478,20.7503,119.737,-1.13261,0.0,0.0
2214,553.25,39.9203,42.8391,153.846,106.955,121.624,0.00148713,0.25169,20.7498,119.567,-1.17995,0.0,0.0
2223,555.5,39.5538,42.1891,153.454,106.892,121.932,0.00160058,0.253637,20.7469,119.397,-1.20854,0.0,0.0
2232,557.75,40.3696,42.2243,150.344,106.838,120.818,0.00174939,0.254848,20.7456,119.187,-1.12899,0.0,0.0
2241,560,40.3171,42.3623,149.272,106.78,120.194,0.00185929,0.255414,20.7451,119.067,-1.08638,0.0,0.0
2250,562.25,39.9307,42.1354,148.023,106.73,121.57,0.00190843,0.255892,20.7449,118.887,-1.19512,0.0,0.0
2259,564.5,40.5622,42.2515,148.742,106.668,120.194,0.00181136,0.255569,20.7447,118.726,-1.09597,0.0,0.0
2268,566.75,39.844,42.5801,146.204,106.626,120.737,0.00160362,0.254732,20.745,118.596,-1.141,0.0,0.0
2277,569,40.2464,43.0471,150.29,106.592,120.927,0.00152185,0.254409,20.7462,118.446,-1.15833,0.0,0.0
2286,571.25,40.4916,42.309,152.712,106.549,120.076,0.00160562,0.25474,20.747,118.266,-1.09725,0.0,0.0
2295,573.5,40.3338,42.5559,150.394,106.509,120.999,0.00187013,0.255022,20.7474,118.056,-1.17103,0.0,0.0
2304,575.75,40.3222,42.8655,157.2,106.489,121.353,0.00204251,0.256125,20.746,117.936,-1.19947,0.0,0.0
2313,578,40.4704,42.3309,150.941,106.456,120.728,0.0020297,0.256673,20.7447,117.796,-1.15491,0.0,0.0
2322,580.25,40.7553,42.3358,153.137,106.482,119.542,0.00193115,0.258202,20.7436,117.595,-1.0621,0.0,0.0
2331,582.5,40.1342,43.2412,149.757,106.575,120.094,0.00175411,0.25857,20.7418,117.455,-1.09635,0.0,0.0
2340,584.75,40.6757,42.9135,151.111,106.649,120.855,0.00158143,0.258478,20.741,117.325,-1.14796,0.0,0.0
2349,587,40.3175,42.5811,150.125,106.72,120.855,0.00140596,0.258309,20.741,117.145,-1.14181,0.0,0.0
2358,589.25,40.4177,42.9905,149.61,106.76,121.362,0.0013764,0.258354,20.741,116.905,-1.1768,0.0,0.0
2367,591.5,40.5259,43.2308,148.868,106.828,121.099,0.00139277,0.25906,20.741,116.815,-1.15108,0.0,0.0
2376,593.75,40.7114,42.7113,150.246,106.861,120.764,0.00155262,0.259707,20.7398,116.655,-1.12284,0.0,0.0
2385,596,40.4848,42.9683,150.113,106.885,119.424,0.00174742,0.259942,20.7391,116.454,-1.01832,0.0,0.0
2394,598.25,40.8224,42.9452,152.291,106.927,121.624,0.00190377,0.26034,20.7389,116.354,-1.18231,0.0,0.0
2403,600.5,40.6922,43.5631,151.18,106.946,120.873,0.0019132,0.261548,20.7388,116.194,-1.12377,0.0,0.0
2412,602.75,40.7254,43.5828,149.207,106.978,122.167,0.00175781,0.262591,20.7381,116.024,-1.21885,0.0,0.0
2421,605,40.5341,43.4218,148.893,106.987,121.298,0.00166431,0.263003,20.737,115.784,-1.15252,0.0,0.0
2430,607.25,40.6206,43.9581,155.91,107.014,121.651,0.00173031,0.263216,20.7366,115.704,-1.17688,0.0,0.0
2439,609.5,41.0702,43.0427,156.384,107.006,121.235,0.00179397,0.263589,20.7356,115.554,-1.14611,0.0,0.0
2448,611.75,40.4136,43.8156,147.041,107.001,120.818,0.001668,0.264042,20.7338,115.383,-1.11497,0.0,0.0
2457,614,40.7286,43.4776,151.009,106.986,120.972,0.00140408,0.264538,20.7328,115.193,-1.12793,0.0,0.0
2466,616.25,41.2127,43.3529,154.007,106.969,121.488,0.00120092,0.264372,20.7318,115.053,-1.16843,0.0,0.0
2475,618.5,41.5012,43.4953,151.978,106.942,121.425,0.00127646,0.267049,20.7293,114.883,-1.16595,0.0,0.0
2484,620.75,40.5183,43.9274,148.59,106.884,121.153,0.00148464,0.269526,20.7278,114.643,-1.15041,0.0,0.0
2493,623,41.1,43.9209,149.246,106.842,121.443,0.00159689,0.271716,20.7262,114.543,-1.17596,0.0,0.0
2502,625.25,40.9888,43.514,152.512,106.783,122.892,0.00168135,0.272426,20.7255,114.352,-1.28991,0.0,0.0
2511,627.5,41.5578,43.488,149.726,106.707,121.651,0.00174318,0.271812,20.7252,114.182,-1.2033,0.0,0.0
2520,629.75,41.0267,43.7152,149.609,106.615,121.208,0.00164963,0.272018,20.7237,113.952,-1.1777,0.0,0.0
2529,632,40.9276,44.2272,148.261,106.529,120.791,0.00150369,0.272977,20.7236,113.832,-1.1535,0.0,0.0
2538,634.25,41.4414,44.2481,150.085,106.412,121.452,0.00148442,0.274626,20.7235,113.692,-1.21365,0.0,0.0
2547,636.5,41.504,43.9051,151.663,106.278,122.729,0.00154044,0.277145,20.7215,113.402,-1.32126,0.0,0.0
2556,638.75,42.1232,43.6113,144.124,106.155,120.945,0.00140258,0.278057,20.7197,113.332,-1.19748,0.0,0.0
2565,641,41.3472,44.4526,147.952,106.109,119.832,0.00133012,0.279019,20.7191,113.161,-1.11652,0.0,0.0
2574,643.25,41.9349,43.7828,149.846,106.112,120.022,0.0014212,0.279734,20.7182,112.981,-1.13085,0.0,0.0
2583,645.5,41.8222,44.2227,147.737,106.132,120.628,0.00158164,0.280927,20.7157,112.721,-1.17535,0.0,0.0
2592,647.75,41.5909,44.6823,149.767,106.163,122.222,0.00168692,0.282848,20.7139,112.651,-1.29315,0.0,0.0
2601,650,42.0997,45.1127,149.941,106.18,120.33,0.00165604,0.284244,20.7126,112.461,-1.14848,0.0,0.0
2610,652.25,42.0577,44.6493,147.381,106.206,121.968,0.00171259,0.285969,20.7104,112.261,-1.27036,0.0,0.0
2619,654.5,42.4222,44.4237,147.533,106.255,120.846,0.00176873,0.288139,20.7083,112.1,-1.18122,0.0,0.0
2628,656.75,42.4725,44.9223,151.203,106.3,120.999,0.00166677,0.289735,20.7061,111.92,-1.18907,0.0,0.0
2637,659,42.2208,44.6947,147.239,106.335,121.244,0.00154348,0.29195,20.7038,111.74,-1.20451,0.0,0.0
2646,661.25,42.2436,44.9547,145.241,106.366,121.217,0.00154558,0.293904,20.702,111.48,-1.19983,0.0,0.0
2655,663.5,42.3505,45.2353,152.871,106.4,120.773,0.00161924,0.29635,20.6989,111.37,-1.16324,0.0,0.0
2664,665.75,42.2731,45.2527,148.047,106.426,121.57,0.00169891,0.298688,20.696,111.2,-1.22134,0.0,0.0
2673,668,42.9599,45.0051,146.748,106.455,121.226,0.00169046,0.301436,20.6933,110.979,-1.19285,0.0,0.0
2682,670.25,42.763,45.5994,145.954,106.472,121.045,0.00165011,0.304084,20.6903,110.769,-1.17762,0.0,0.0
2691,672.5,43.0909,45.4399,148.241,106.497,121.19,0.00167764,0.305983,20.6887,110.599,-1.18646,0.0,0.0
2700,674.75,43.4771,45.5675,150.873,106.535,120.565,0.00172493,0.308327,20.6857,110.429,-1.13575,0.0,0.0
2709,677,43.3383,46.1689,148.264,106.557,122.819,0.00178365,0.310105,20.6836,110.159,-1.30391,0.0,0.0
2718,679.25,43.5144,46.1742,149.896,106.584,122.158,0.00182515,0.312286,20.6828,110.039,-1.25209,0.0,0.0
2727,681.5,43.5167,46.3247,148.326,106.595,122.158,0.00173593,0.314743,20.6808,109.848,-1.25111,0.0,0.0
2736,683.75,43.8744,46.2384,149.795,106.596,123.027,0.00169596,0.316725,20.6783,109.638,-1.31608,0.0,0.0
2745,686,43.7736,46.5485,148.437,106.613,122.195,0.00166965,0.319684,20.6748,109.408,-1.25229,0.0,0.0
2754,688.25,43.835,46.5901,146.143,106.599,122.674,0.00168026,0.321614,20.6725,109.248,-1.28943,0.0,0.0
2763,690.5,44.668,46.3859,148.445,106.596,122.683,0.00173912,0.323535,20.6695,109.028,-1.29041,0.0,0.0
2772,692.75,44.3449,47.0148,144.095,106.574,124.603,0.00188228,0.325963,20.6677,108.797,-1.43484,0.0,0.0
2781,695,44.5244,47.0724,150.699,106.553,121.679,0.00197429,0.327549,20.6665,108.597,-1.21862,0.0,0.0
2790,697.25,44.2384,47.6241,146.111,106.543,123.29,0.00202343,0.330636,20.6635,108.407,-1.34023,0.0,0.0
2799,699.5,44.8908,47.3015,147.461,106.52,121.697,0.0020175,0.333355,20.6611,108.197,-1.2228,0.0,0.0
2808,701.75,44.859,47.7441,148.861,106.486,121.633,0.0020673,0.334494,20.6605,107.927,-1.22098,0.0,0.0
2817,704,45.1898,47.9216,146.35,106.472,121.181,0.00226958,0.336512,20.6571,107.767,-1.18795,0.0,0.0
2826,706.25,45.4988,48.2167,146.837,106.449,121.679,0.0023037,0.339926,20.6533,107.546,-1.22759,0.0,0.0
2835,708.5,45.7307,48.4244,150.167,106.419,122.892,0.00217014,0.343895,20.6489,107.256,-1.32126,0.0,0.0
2844,710.75,45.5195,48.5971,151.185,106.396,122.448,0.00211533,0.346969,20.6451,107.126,-1.29001,0.0,0.0
2853,713,46.0809,48.5979,145.964,106.358,122.946,0.00219449,0.349868,20.6416,106.856,-1.33054,0.0,0.0
2862,715.25,46.1023,49.3827,146.492,106.332,123.236,0.00233936,0.351683,20.6404,106.646,-1.3544,0.0,0.0
2871,717.5,46.144,49.4392,150.09,106.262,121.579,0.00244149,0.352565,20.6399,106.355,-1.2362,0.0,0.0
2880,719.75,45.8888,49.9981,150.158,106.224,122.231,0.00240062,0.353404,20.6381,106.195,-1.28852,0.0,0.0
2889,722,46.6334,49.3032,145.715,106.165,122.575,0.00235953,0.356573,20.6328,105.975,-1.31948,0.0,0.0
2898,724.25,46.5506,49.9583,146.965,106.106,121.805,0.00237093,0.362047,20.6282,105.725,-1.26679,0.0,0.0
2907,726.5,46.6151,50.4799,148.835,106.048,122.439,0.00230293,0.363818,20.6237,105.505,-1.3194,0.0,0.0
2916,728.75,46.9274,50.4233,139.967,105.996,123.824,0.00224052,0.365663,20.6193,105.244,-1.42721,0.0,0.0
2925,731,46.9777,50.1834,146.978,105.928,122.358,0.00226911,0.368603,20.6161,105.014,-1.32367,0.0,0.0
2934,733.25,47.475,51.1646,142.148,105.844,121.679,0.00229996,0.370239,20.6135,104.704,-1.27987,0.0,0.0
2943,735.5,47.5891,50.8526,141.525,105.782,123.127,0.00234417,0.372397,20.611,104.574,-1.39395,0.0,0.0
2952,737.75,48.0931,50.8368,144.246,105.704,121.733,0.00230885,0.373713,20.61,104.303,-1.29613,0.0,0.0
2961,740,48.4857,50.991,143.683,105.626,121.443,0.0022638,0.374805,20.6092,104.053,-1.28099,0.0,0.0
2970,742.25,49.0222,51.1912,144.232,105.545,123,0.00242872,0.376779,20.607,103.773,-1.40504,0.0,0.0
2979,744.5,48.736,51.5955,144.406,105.485,122.756,0.00265067,0.379047,20.6042,103.583,-1.39201,0.0,0.0
2988,746.75,48.6239,52.0552,151.201,105.415,121.289,0.00269579,0.380448,20.6031,103.343,-1.28776,0.0,0.0
2997,749,48.9885,52.2816,144.418,105.34,122.186,0.00263219,0.380338,20.6012,103.022,-1.36184,0.0,0.0
3006,751.25,49.1902,52.3116,144.654,105.298,122.53,0.00266307,0.382274,20.597,102.882,-1.39134,0.0,0.0
3015,753.5,48.9589,52.6419,141.776,105.255,122.52,0.00272838,0.385807,20.5936,102.602,-1.39442,0.0,0.0
3024,755.75,49.5792,52.7236,142.896,105.221,120.855,0.00262108,0.387636,20.5911,102.382,-1.27174,0.0,0.0
3033,758,49.5796,52.9764,146.385,105.192,122.231,0.0025061,0.388987,20.5899,101.971,-1.37819,0.0,0.0
3042,760.25,49.8697,53.0268,150.627,105.177,121.497,0.00260074,0.387688,20.5894,101.921,-1.32424,0.0,0.0
3051,762.5,49.6083,53.0445,150.143,105.199,121.543,0.00286176,0.387226,20.5892,101.611,-1.32572,0.0,0.0
3060,764.75,49.9046,53.581,147.578,105.159,121.199,0.00295671,0.386835,20.5887,101.401,-1.3032,0.0,0.0
3069,767,49.6283,53.3319,147.178,105.177,122.186,0.00291405,0.388209,20.5872,101.171,-1.37612,0.0,0.0
3078,769.25,50.3296,53.288,148.82,105.204,120.918,0.00279669,0.39092,20.5852,100.94,-1.278,0.0,0.0
3087,771.5,50.5322,53.6008,152.086,105.257,123.815,0.00267669,0.396825,20.5807,100.65,-1.49076,0.0,0.0
3096,773.75,50.4274,53.7235,143.718,105.3,120.99,0.00252368,0.398467,20.5785,100.33,-1.27514,0.0,0.0
3105,776,50.3324,54.2143,151.821,105.346,122.674,0.00253326,0.400053,20.5769,100.15,-1.39797,0.0,0.0
3114,778.25,51.1299,53.9246,143.12,105.441,122.892,0.00270667,0.402052,20.5744,99.8795,-1.40602,0.0,0.0
3123,780.5,50.7623,54.8806,147.637,105.497,124.358,0.00288291,0.403944,20.5718,99.5992,-1.51005,0.0,0.0
3132,782.75,51.3043,54.5426,142.272,105.603,122.367,0.00296821,0.405569,20.5699,99.349,-1.35254,0.0,0.0
3141,785,51.0975,54.9378,141.533,105.701,123.1,0.00290161,0.40852,20.5672,99.1288,-1.39896,0.0,0.0
3150,787.25,52.0936,55.0814,139.663,105.795,121.878,0.00281036,0.41016,20.5653,98.8586,-1.29915,0.0,0.0
3159,789.5,51.7742,55.6395,141.52,105.891,123.915,0.00287629,0.41218,20.5624,98.5183,-1.44301,0.0,0.0
3168,791.75,52.243,55.4545,140.556,105.994,122.05,0.00301911,0.415915,20.5577,98.3381,-1.29484,0.0,0.0
3177,794,52.3116,55.6924,145.55,106.097,123.643,0.0032036,0.418627,20.5535,98.0779,-1.40502,0.0,0.0
3186,796.25,52.3898,56.2081,150.261,106.209,122.584,0.00333253,0.421202,20.548,97.8377,-1.31636,0.0,0.0
3195,798.5,52.4071,56.2386,140.357,106.311,122.638,0.00337502,0.425452,20.5424,97.5474,-1.31159,0.0,0.0
3204,800.75,52.6977,56.6023,147.822,106.421,121.606,0.00342392,0.427501,20.54,97.2772,-1.22453,0.0,0.0
3213,803,53.2041,56.1929,143.425,106.505,122.792,0.00337375,0.42847,20.5384,97.0269,-1.30638,0.0,0.0
3222,805.25,53.1446,56.8052,146.877,106.575,124.213,0.00339569,0.430309,20.5371,96.6866,-1.40596,0.0,0.0
3231,807.5,53.2897,56.981,142.796,106.664,123.009,0.00342289,0.430965,20.537,96.4865,-1.30888,0.0,0.0
3240,809.75,53.4354,57.1823,143.524,106.688,122.883,0.00331472,0.429574,20.537,96.2462,-1.29739,0.0,0.0
3249,812,53.6799,57.4867,144.325,106.724,121.271,0.00324709,0.429191,20.5376,95.946,-1.1731,0.0,0.0
3258,814.25,53.8648,57.203,143.637,106.764,123.851,0.00313066,0.425954,20.5413,95.6457,-1.36289,0.0,0.0
3267,816.5,53.9015,57.4458,145.088,106.782,123.489,0.00300278,0.421218,20.5441,95.4655,-1.33451,0.0,0.0
3276,818.75,54.1847,57.5665,143.186,106.814,121.353,0.00308345,0.416724,20.5493,95.1953,-1.17155,0.0,0.0
3285,821,53.6274,57.9775,143.618,106.793,121.814,0.00317626,0.412056,20.5559,94.845,-1.20817,0.0,0.0
3294,823.25,53.7112,57.8359,141.399,106.804,122.195,0.00305279,0.406215,20.5634,94.6948,-1.23581,0.0,0.0
3303,825.5,53.6272,57.6564,143.009,106.824,123.362,0.00291977,0.39823,20.571,94.4947,-1.32145,0.0,0.0
3312,827.75,53.5435,58.0837,143.137,106.803,122.765,0.00281698,0.388298,20.5837,94.2845,-1.27867,0.0,0.0
3321,830,53.637,57.6972,151.177,106.797,123.951,0.00279066,0.378422,20.5947,93.9942,-1.36742,0.0,0.0
3330,832.25,53.9242,57.1961,145.471,106.778,121.597,0.00274894,0.366869,20.6076,93.8741,-1.19309,0.0,0.0
3339,834.5,53.5001,57.9506,146.462,106.753,120.972,0.00251152,0.355563,20.6232,93.6839,-1.14794,0.0,0.0
3348,836.75,52.9469,57.1735,142.158,106.716,120.764,0.00231208,0.342457,20.6364,93.4738,-1.13527,0.0,0.0
3357,839,52.6757,57.2991,149.659,106.668,122.312,0.0022093,0.330419,20.6469,93.3036,-1.25641,0.0,0.0
3366,841.25,52.0175,57.0092,146.459,106.622,121.787,0.00226163,0.316953,20.6623,93.1435,-1.22085,0.0,0.0
3375,843.5,52.4179,56.4321,148.352,106.573,118.166,0.00236253,0.303617,20.6783,93.0334,-0.947927,0.0,0.0
3384,845.75,51.9024,55.8705,152.075,106.504,119.868,0.00241773,0.291863,20.6922,92.8232,-1.08522,0.0,0.0
3393,848,51.4526,55.4159,152.738,106.439,120.855,0.00240829,0.279308,20.7079,92.7731,-1.16605,0.0,0.0
3402,850.25,50.8624,55.0865,147.868,106.366,120.248,0.00232103,0.266992,20.7194,92.663,-1.12613,0.0,0.0
3411,852.5,50.2294,54.4065,154.3,106.282,118.727,0.00218718,0.256018,20.7323,92.5329,-1.01652,0.0,0.0
3420,854.75,49.9217,53.8827,149.061,106.194,119.542,0.0021018,0.244836,20.7464,92.4128,-1.08691,0.0,0.0
3429,857,48.8839,53.6341,147.53,106.109,120.076,0.0021716,0.235031,20.7584,92.2927,-1.13522,0.0,0.0
3438,859.25,48.1938,53.4198,149.338,106.025,119.56,0.00250827,0.225985,20.7689,92.1926,-1.10296,0.0,0.0
3447,861.5,48.0083,52.671,152.471,105.9,118.184,0.00293164,0.216386,20.778,92.0225,-1.00755,0.0,0.0
3456,863.75,47.7318,51.5802,152.317,105.797,118.157,0.00337968,0.208188,20.7866,92.0225,-1.01435,0.0,0.0
3465,866,47.3531,51.1405,151.725,105.696,116.563,0.00373234,0.199668,20.7961,91.9324,-0.89844,0.0,0.0
3474,868.25,46.298,50.6139,157.352,105.596,119.424,0.00397981,0.191663,20.806,91.8723,-1.1297,0.0,0.0
3483,870.5,45.5873,49.9799,154.935,105.495,118.582,0.00425914,0.184249,20.8139,91.7422,-1.07362,0.0,0.0
3492,872.75,45.0824,49.4037,153.449,105.403,117.939,0.00465812,0.176474,20.8219,91.8023,-1.03168,0.0,0.0
3501,875,44.3969,48.5561,155.038,105.316,117.713,0.00492536,0.169158,20.8306,91.7022,-1.02163,0.0,0.0
3510,877.25,44.0773,47.8677,156.608,105.239,117.26,0.00497785,0.163245,20.8374,91.5821,-0.992982,0.0,0.0
3519,879.5,43.5634,47.2783,154.065,105.194,116.391,0.00503462,0.158245,20.8438,91.6021,-0.92856,0.0,0.0
3528,881.75,42.7763,47.1292,153.63,105.176,117.813,0.00514476,0.153101,20.8493,91.532,-1.04159,0.0,0.0
3537,884,42.2053,46.3986,152.937,105.173,117.487,0.00523603,0.148042,20.8535,91.482,-1.01646,0.0,0.0
3546,886.25,41.8419,45.7591,157.739,105.17,118.175,0.00534404,0.14451,20.8584,91.3519,-1.0703,0.0,0.0
3555,888.5,41.1986,45.0703,160.298,105.23,118.492,0.00546515,0.141654,20.8627,91.3819,-1.08964,0.0,0.0
3564,890.75,40.6328,44.4454,157.129,105.297,116.636,0.00562412,0.138574,20.8667,91.3519,-0.938892,0.0,0.0
3573,893,40.5087,43.4201,155.139,105.382,117.93,0.00570155,0.135854,20.8703,91.2418,-1.03279,0.0,0.0
3582,895.25,39.8728,42.9537,156.564,105.51,117.795,0.00557298,0.133659,20.8742,91.2317,-1.01107,0.0,0.0
3591,897.5,39.1956,42.6739,157.755,105.64,115.902,0.00548006,0.131472,20.8778,91.2317,-0.851122,0.0,0.0
3600,899.75,38.7216,42.347,155.291,105.777,117.541,0.00553944,0.129163,20.8803,91.2017,-0.968095,0.0,0.0
3609,902,38.3924,41.5174,154.107,105.915,117.46,0.00574126,0.127052,20.8814,91.0916,-0.949793,0.0,0.0
3618,904.25,37.7647,41.0448,157.371,106.063,116.835,0.00578013,0.124887,20.8842,91.1617,-0.887978,0.0,0.0
3627,906.5,37.3228,40.7976,156.764,106.207,117.912,0.00576883,0.123756,20.8865,91.0916,-0.959851,0.0,0.0
3636,908.75,37.3066,40.1426,154.885,106.324,117.469,0.00587923,0.122424,20.8877,91.0416,-0.915127,0.0,0.0
3645,911,36.499,39.3486,155.962,106.439,118.003,0.00604942,0.12082,20.8891,90.9915,-0.946855,0.0,0.0
3654,913.25,36.4072,39.0575,155.3,106.519,118.274,0.00616871,0.119661,20.8898,91.0216,-0.961053,0.0,0.0
3663,915.5,36.1339,38.6641,158.753,106.58,117.84,0.00623734,0.11899,20.8913,91.0116,-0.92197,0.0,0.0
3672,917.75,35.6453,38.378,154.123,106.578,117.831,0.00623758,0.118552,20.8921,90.8814,-0.921452,0.0,0.0
3681,920,35.5908,38.3297,153.581,106.582,118.51,0.00627337,0.118028,20.8928,90.9015,-0.973828,0.0,0.0
3690,922.25,35.2859,37.5447,163.064,106.546,117.939,0.00639232,0.117401,20.8942,90.8714,-0.932652,0.0,0.0
3699,924.5,35.0547,37.2751,163.225,106.47,116.744,0.00656059,0.115512,20.897,90.8314,-0.845723,0.0,0.0
3708,926.75,34.8497,36.9316,160.678,106.414,117.061,0.00667709,0.112959,20.8994,90.7413,-0.875452,0.0,0.0
3717,929,34.8565,36.2299,160.469,106.33,116.672,0.00676767,0.111463,20.9016,90.7613,-0.852087,0.0,0.0
3726,931.25,34.4779,36.2376,161.634,106.254,116.536,0.00675871,0.110676,20.9025,90.7313,-0.847939,0.0,0.0
3735,933.5,33.9068,35.7437,157.193,106.175,116.835,0.00665171,0.110096,20.9027,90.6312,-0.878333,0.0,0.0
3744,935.75,32.9446,35.9833,162.328,106.129,115.703,0.00668441,0.109379,20.9029,90.6913,-0.79297,0.0,0.0
3753,938,32.8564,35.5152,161.367,106.094,116.047,0.00672899,0.109212,20.903,90.6412,-0.823202,0.0,0.0
3762,940.25,32.7001,34.9583,160.102,106.368,116.545,0.00665843,0.109173,20.903,90.6312,-0.838876,0.0,0.0
3771,942.5,32.626,34.537,157.048,106.623,115.785,0.00662912,0.109349,20.903,90.5311,-0.756777,0.0,0.0
3780,944.75,32.2676,34.2002,158.395,106.819,116.772,0.00665801,0.109825,20.9038,90.6212,-0.817794,0.0,0.0
3789,947,31.9276,33.7181,158.979,106.948,115.921,0.00673182,0.108927,20.9048,90.5712,-0.73961,0.0,0.0
3798,949.25,31.7552,34.0874,158.928,106.994,116.907,0.00683957,0.107734,20.9051,90.4811,-0.813469,0.0,0.0
3807,951.5,31.3581,32.758,156.876,106.983,116.672,0.00701329,0.106974,20.9059,90.4611,-0.795863,0.0,0.0
3816,953.75,30.8126,32.5266,155.892,106.897,116.726,0.00724247,0.105949,20.907,90.4811,-0.807576,0.0,0.0
3825,956,30.7952,32.3189,155.956,106.73,117.632,0.0074068,0.105428,20.9076,90.451,-0.892876,0.0,0.0
3834,958.25,30.101,31.609,155.368,106.448,115.676,0.00736541,0.105434,20.9079,90.361,-0.763206,0.0,0.0
3843,960.5,30.4066,31.9893,156.304,106.524,115.676,0.00734739,0.105211,20.909,90.421,-0.756712,0.0,0.0
3852,962.75,30.4243,31.3661,159.005,106.662,116.699,0.00738449,0.104893,20.9099,90.351,-0.825581,0.0,0.0
3861,965,29.8538,31.1025,159.228,106.824,116.292,0.00733826,0.104835,20.9105,90.3309,-0.779581,0.0,0.0
3870,967.25,29.5994,31.407,156.641,106.993,117.84,0.00715442,0.104839,20.911,90.2809,-0.886479,0.0,0.0
3879,969.5,29.5428,30.6356,158.104,107.148,116.835,0.00696412,0.104159,20.912,90.3209,-0.794525,0.0,0.0
3888,971.75,29.451,31.1658,158.269,107.261,116.572,0.00687593,0.103988,20.9116,90.3009,-0.764213,0.0,0.0
3897,974,29.0183,29.8003,159.562,107.325,117.496,0.00687411,0.103967,20.9114,90.1908,-0.831211,0.0,0.0
3906,976.25,29.0875,30.5956,158.911,107.346,116.862,0.00690093,0.104084,20.9114,90.2309,-0.779772,0.0,0.0
3915,978.5,28.98,30.389,160.032,107.314,117.46,0.00686143,0.104268,20.9112,90.2309,-0.829312,0.0,0.0
3924,980.75,28.623,29.9153,163.115,107.188,116.219,0.00671007,0.104242,20.9107,90.2008,-0.742666,0.0,0.0
3933,983,29.0476,29.8418,158.791,106.997,116.174,0.00654626,0.103655,20.9106,90.1007,-0.755403,0.0,0.0
3942,985.25,28.6254,29.4424,160.287,106.758,117.079,0.00645232,0.103489,20.9105,90.1508,-0.847241,0.0,0.0
3951,987.5,28.3332,28.8119,159.797,106.46,115.83,0.00645459,0.103756,20.9105,90.1107,-0.774437,0.0,0.0
3960,989.75,28.1446,29.1892,159.065,106.161,115.314,0.00656505,0.103832,20.9107,90.0307,-0.759242,0.0,0.0
3969,992,28.3922,29.1658,157.883,105.875,115.359,0.00667049,0.103631,20.912,90.0407,-0.787619,0.0,0.0
3978,994.25,28.3986,28.9074,161.594,105.604,114.952,0.0067151,0.103417,20.9125,90.0407,-0.778619,0.0,0.0
3987,996.5,27.8768,28.5244,157.483,105.401,115.16,0.00668305,0.103922,20.9113,90.0307,-0.812892,0.0,0.0
3996,998.75,28.039,28.5765,159.339,105.254,114.608,0.00653074,0.104362,20.9108,89.9406,-0.781628,0.0,0.0
4005,1001,27.1898,28.3328,159.998,105.236,115.214,0.0064106,0.104043,20.9106,89.9706,-0.831645,0.0,0.0
4014,1003.25,27.6213,28.6814,158.571,105.289,113.929,0.00633492,0.103908,20.9105,89.9806,-0.724,0.0,0.0
4023,1005.5,26.986,27.7031,156.557,105.405,115.83,0.00630622,0.104447,20.9105,89.9506,-0.865842,0.0,0.0
4032,1007.75,27.5499,28.2066,158.413,105.626,115.404,0.00636169,0.104434,20.9105,89.9206,-0.812845,0.0,0.0
4041,1010,27.3285,27.6133,156.585,105.865,114.816,0.00639043,0.10412,20.9105,89.9106,-0.745119,0.0,0.0
4050,1012.25,27.3009,27.5601,161.266,106.124,115.196,0.00623618,0.103799,20.9105,89.8805,-0.753031,0.0,0.0
4059,1014.5,27.2453,27.7335,158.594,106.318,116.563,0.00601762,0.103812,20.911,89.8005,-0.844625,0.0,0.0
4068,1016.75,27.2793,27.3547,158.625,106.502,114.97,0.00595279,0.104059,20.9107,89.8605,-0.702336,0.0,0.0
4077,1019,27.1412,27.7018,155.841,106.617,115.595,0.00609387,0.104133,20.9112,89.8205,-0.742215,0.0,0.0
4086,1021.25,26.7921,27.7355,156.615,106.614,116.147,0.00612731,0.103878,20.9113,89.8005,-0.786196,0.0,0.0
4095,1023.5,27.0273,27.5864,157.414,106.547,115.386,0.00605326,0.104143,20.9107,89.7204,-0.731664,0.0,0.0
4104,1025.75,26.7463,27.4518,162.458,106.423,114.879,0.00604387,0.104181,20.911,89.7604,-0.7019,0.0,0.0
4113,1028,26.7702,27.6293,158.437,106.306,115.748,0.00606147,0.103976,20.9107,89.7404,-0.781204,0.0,0.0
4122,1030.25,26.4436,27.2487,159.33,106.162,114.97,0.0060544,0.103821,20.9111,89.6303,-0.731699,0.0,0.0
4131,1032.5,26.8766,26.9264,157.852,106.07,115.006,0.00600206,0.103526,20.9112,89.6904,-0.742539,0.0,0.0
4140,1034.75,26.4667,27.2236,159.704,106.322,115.45,0.0060129,0.103431,20.9112,89.6804,-0.756086,0.0,0.0
4149,1037,26.5339,26.8762,160.636,106.715,115.305,0.00610851,0.103472,20.9113,89.6603,-0.710707,0.0,0.0
4158,1039.25,26.2634,27.0581,153.659,106.934,116.192,0.00612961,0.103377,20.9115,89.5903,-0.762253,0.0,0.0
4167,1041.5,26.419,26.992,161.146,106.978,115.35,0.00600474,0.103351,20.9119,89.6403,-0.691711,0.0,0.0
4176,1043.75,26.254,26.8738,160.728,106.871,115.495,0.00593962,0.103287,20.912,89.6103,-0.71243,0.0,0.0
4185,1046,25.8091,26.5393,157.741,106.625,117.441,0.00598467,0.10321,20.9121,89.5202,-0.886984,0.0,0.0
4194,1048.25,26.1625,26.2153,158.093,106.507,116.219,0.00603722,0.103202,20.9121,89.5803,-0.801185,0.0,0.0
4203,1050.5,25.826,27.0583,156.932,106.686,115.341,0.00604004,0.102996,20.9121,89.5502,-0.716064,0.0,0.0
4212,1052.75,25.8108,26.7989,161.309,106.905,115.088,0.00606862,0.10298,20.9121,89.5202,-0.677072,0.0,0.0
4221,1055,25.8862,26.5892,161.961,107.104,116.572,0.0060777,0.103136,20.911,89.4602,-0.777678,0.0,0.0
4230,1057.25,26.0005,26.2902,158.95,107.269,116.455,0.00606922,0.103051,20.9103,89.5202,-0.754306,0.0,0.0
4239,1059.5,26.2064,25.9574,161.081,107.364,117.134,,0.102921,,89.4902,-0.79952,0.0,0.0
4248,1061.75,25.6184,25.955,164.915,107.322,115.106,,,,89.4602,-0.642799,0.0,0.0
4257,1064,25.7635,26.4138,157.152,107.175,115.966,,,,89.4702,-0.723665,0.0,0.0
4266,1066.25,25.2672,25.9102,160.265,106.903,115.133,,,,89.4301,-0.68087,0.0,0.0
4275,1068.5,26.0059,26.6862,161.729,106.567,115.739,,,,89.4301,-0.758025,0.0,0.0
4277,1069,25.6859,26.3167,158.653,106.48,115.54,,,,89.4101,-0.749719,0.0,0.0