File: 01_Data/Basswood_Panel/Cone/Basswood_Panel_Cone_HF75Scan_221219_R3.csv
Names,Time,Stack TC,Smoke TC,Exh Press,Smoke Comp,Smoke Meas,CO Meter,CO2 Meter,O2 Meter,Sample Mass,Ext Coeff,Start Test,Flame Verif
Chan Gain,,500,500,1,1,1,1,1,1,1,1,1.0,1.0
Offset,,0,0,0.136803,0,0,0,0,0,0,0,0.0,0.0
Gain,,1,1,25.011,13.2421,13.1342,1,1,1,1.00087,1.04452,1.0,1.0
Units,sec,C,C,Pa,%,%,%,%,%,g,/m,,
Baseline,,43.834,43.873,151.733,99.6978,99.5685,-0.000907733,0.058009,20.9239,-445.683,0.0118962,,
6,1.25,42.2118,41.9664,150.367,99.618,99.398,-0.000943385,0.0656754,20.9157,164.544,0.0202542,0.0,0.0
12,2.75,41.7812,41.9522,151.623,99.6264,99.1699,-0.00095348,0.0671144,20.9137,164.594,0.0420817,0.0,0.0
18,4.25,41.8294,41.3339,151.761,99.6228,98.6052,-0.00103083,0.0681081,20.9118,164.464,0.0940752,0.0,0.0
24,5.75,41.5972,42.0807,145.941,99.622,98.6104,-0.00109695,0.0683792,20.9099,164.333,0.0935173,0.0,0.0
30,7.25,41.8072,42.0243,136.812,99.6204,97.6861,-0.00110424,0.068164,20.9087,164.113,0.179656,0.0,1.0
36,8.75,42.3121,42.208,131.506,99.6309,95.9649,-0.00107986,0.0680134,20.9081,163.873,0.343495,0.0,1.0
42,10.25,43.4494,42.9783,130.062,99.6402,94.9384,-0.00106214,0.0682354,20.908,163.573,0.442888,0.0,1.0
48,11.75,44.4965,43.7143,125.527,99.6297,93.7981,-0.00104408,0.0687364,20.909,163.283,0.552642,0.0,1.0
54,13.25,46.0863,44.9075,129.119,99.6329,93.1439,-0.000973403,0.0741235,20.9089,162.962,0.617063,0.0,0.0
60,14.75,47.4487,46.7763,120.825,99.6228,91.5038,-0.000742665,0.106634,20.9075,162.602,0.778913,0.0,0.0
66,16.25,49.2106,47.7978,126.087,99.6369,91.2292,-0.000396852,0.187959,20.8987,162.312,0.807749,0.0,0.0
72,17.75,50.7377,49.8732,126.172,99.6268,91.1422,0.000116702,0.291168,20.8644,161.911,0.815559,0.0,0.0
78,19.25,52.2387,51.3249,126.905,99.6309,89.7293,0.000800467,0.417911,20.7838,161.621,0.959082,0.0,0.0
84,20.75,54.0372,52.7525,132.418,99.6394,90.7061,0.00143807,0.521387,20.6661,161.211,0.860657,0.0,0.0
90,22.25,55.3533,54.4426,120.453,99.6349,90.066,0.0021147,0.600129,20.5357,160.951,0.925138,0.0,0.0
96,23.75,56.7425,56.1712,124.325,99.622,90.4696,0.00284568,0.654304,20.4175,160.51,0.882977,0.0,0.0
102,25.25,57.887,56.8716,128.946,99.6438,90.371,0.00363448,0.695152,20.3226,160.24,0.894976,0.0,0.0
108,26.75,59.5984,58.5982,127.54,99.6329,88.9477,0.00424961,0.729003,20.2439,159.789,1.03943,0.0,0.0
114,28.25,60.6,60.0163,129.183,99.6357,90.0824,0.00471994,0.75226,20.183,159.579,0.92354,0.0,0.0
120,29.75,61.6812,61.3006,128.661,99.6236,90.1041,0.00518638,0.766136,20.1355,159.129,0.920224,0.0,0.0
126,31.25,62.7525,62.4279,125.427,99.6349,90.5193,0.00557413,0.774549,20.1037,158.889,0.879135,0.0,0.0
132,32.75,63.6351,63.6821,122.312,99.6184,91.028,0.005902,0.778939,20.0834,158.418,0.82627,0.0,0.0
138,34.25,64.602,64.7767,124.792,99.6337,90.4764,0.00611428,0.77786,20.07,158.188,0.883365,0.0,0.0
144,35.75,65.3875,66.0421,129.356,99.6066,92.212,0.00621451,0.77345,20.0637,157.808,0.70678,0.0,0.0
150,37.25,66.4977,67.0773,126.663,99.6192,90.8677,0.00616432,0.769154,20.062,157.548,0.842496,0.0,0.0
156,38.75,67.4519,67.8993,126.614,99.6054,90.337,0.00602232,0.764865,20.0647,157.147,0.8949,0.0,0.0
162,40.25,68.2858,68.6731,127.867,99.6062,90.6857,0.00583972,0.760356,20.068,156.897,0.859674,0.0,0.0
168,41.75,68.6973,69.2723,127.661,99.6014,90.4107,0.00572268,0.754187,20.0727,156.517,0.887051,0.0,0.0
174,43.25,69.4741,70.2251,131.008,99.5933,91.0248,0.00570949,0.745388,20.0773,156.206,0.824287,0.0,0.0
180,44.75,69.8329,71.2702,126.976,99.6034,91.3723,0.0057367,0.73487,20.0848,155.886,0.790303,0.0,0.0
186,46.25,70.3748,71.8457,134.22,99.5994,92.0453,0.00574684,0.724998,20.0938,155.586,0.722694,0.0,0.0
192,47.75,71.0527,72.2186,128.122,99.5949,91.5831,0.00569097,0.71531,20.1051,155.296,0.768405,0.0,0.0
198,49.25,71.7455,73.0638,132.488,99.5901,91.1138,0.00556378,0.706544,20.1181,154.945,0.815038,0.0,0.0
204,50.75,72.1903,73.5481,129.412,99.5848,91.6962,0.00534233,0.699338,20.1311,154.755,0.756174,0.0,0.0
210,52.25,72.5775,73.8224,132.819,99.5945,91.9142,0.00516462,0.692646,20.1405,154.365,0.735305,0.0,0.0
216,53.75,72.7991,74.7757,127.11,99.5889,92.1691,0.00504776,0.686397,20.1485,154.175,0.709407,0.0,0.0
222,55.25,72.8153,74.8712,132.329,99.5771,92.4397,0.00502276,0.680105,20.1564,153.804,0.681473,0.0,0.0
228,56.75,73.0686,75.8782,132.57,99.5856,93.0942,0.00504229,0.673266,20.1634,153.624,0.617604,0.0,0.0
234,58.25,74.0906,76.1274,124.356,99.5715,92.9231,0.00498707,0.665094,20.1714,153.214,0.633163,0.0,0.0
240,59.75,73.8165,76.1568,130.983,99.5775,92.5275,0.00485657,0.655497,20.1792,153.044,0.672812,0.0,0.0
246,61.25,74.2548,77.1422,135.155,99.5654,93.6842,0.00470036,0.64567,20.1895,152.663,0.557858,0.0,0.0
252,62.75,74.8416,77.3874,129.791,99.5751,93.057,0.00461645,0.639912,20.2014,152.453,0.620306,0.0,0.0
258,64.25,74.8057,78.1053,131.823,99.5674,92.497,0.00456581,0.636944,20.2143,152.073,0.6749,0.0,0.0
264,65.75,75.4261,78.0614,126.56,99.5715,93.5656,0.00448928,0.631869,20.2227,151.893,0.570026,0.0,0.0
270,67.25,75.3143,78.6345,129.933,99.559,92.701,0.00438115,0.623516,20.2276,151.532,0.653932,0.0,0.0
276,68.75,75.5743,78.9752,126.67,99.5731,92.6233,0.00427001,0.616016,20.2349,151.352,0.662923,0.0,0.0
282,70.25,76.1199,79.276,129.636,99.5634,92.9612,0.00416991,0.609012,20.244,151.022,0.628666,0.0,0.0
288,71.75,75.8988,79.338,130.403,99.5771,93.7075,0.00409808,0.603206,20.2527,150.802,0.556663,0.0,0.0
294,73.25,76.3024,79.9177,132.565,99.565,93.7909,0.00405828,0.598436,20.2615,150.471,0.5474,0.0,0.0
300,74.75,76.8028,80.1176,124.407,99.5735,93.449,0.00400018,0.593761,20.2687,150.281,0.581641,0.0,0.0
306,76.25,76.8067,80.1582,133.301,99.5715,94.1472,0.00387488,0.589015,20.2732,149.921,0.513249,0.0,0.0
312,77.75,77.0014,80.4703,137.29,99.5796,93.5468,0.00369133,0.586401,20.2802,149.691,0.572614,0.0,0.0
318,79.25,76.9712,80.5238,128.869,99.5707,92.8565,0.00355591,0.586152,20.2862,149.42,0.639652,0.0,0.0
324,80.75,77.491,81.1523,131.725,99.58,93.879,0.00348934,0.585812,20.2893,149.13,0.540164,0.0,0.0
330,82.25,77.3103,80.9775,130.546,99.5642,94.0057,0.00347542,0.582411,20.2904,148.85,0.526361,0.0,0.0
336,83.75,77.109,81.6417,130.9,99.5654,93.863,0.00346464,0.577596,20.2911,148.62,0.540391,0.0,0.0
342,85.25,78.0775,81.7744,130.01,99.5739,94.041,0.00339028,0.574148,20.2945,148.37,0.523815,0.0,0.0
348,86.75,77.7099,81.8702,132.564,99.5743,94.2819,0.00323135,0.571914,20.3001,148.059,0.500412,0.0,0.0
354,88.25,77.3576,82.2925,133.202,99.5792,94.322,0.00307123,0.569958,20.3044,147.899,0.496964,0.0,0.0
360,89.75,77.9573,82.3071,131.532,99.5703,94.5176,0.00301364,0.567228,20.3073,147.609,0.477164,0.0,0.0
366,91.25,78.1292,82.1445,129.768,99.5771,93.6353,0.00306529,0.562785,20.3098,147.379,0.563721,0.0,0.0
372,92.75,78.5596,82.0014,133.969,99.5654,94.6975,0.00317095,0.558575,20.3123,147.058,0.459288,0.0,0.0
378,94.25,77.7065,82.5774,131.735,99.5804,94.534,0.00326396,0.556249,20.3174,146.908,0.476502,0.0,0.0
384,95.75,78.6246,82.6153,136.752,99.5618,94.2614,0.00322554,0.554926,20.3214,146.618,0.501246,0.0,0.0
390,97.25,78.3087,83.2693,131.774,99.5727,94.4558,0.00317665,0.552995,20.3237,146.408,0.483374,0.0,0.0
396,98.75,78.576,82.5624,131.786,99.5658,94.3777,0.0031713,0.550687,20.3271,146.108,0.490325,0.0,0.0
402,100.25,78.5965,83.5001,132.459,99.5674,94.744,0.00316942,0.548108,20.3304,145.907,0.454977,0.0,0.0
408,101.75,79.139,83.064,134.372,99.5509,94.5817,0.00315917,0.545106,20.3334,145.627,0.469165,0.0,0.0
414,103.25,78.5613,83.368,136.64,99.5614,94.2137,0.00313272,0.542486,20.3355,145.447,0.505847,0.0,0.0
420,104.75,78.7608,83.324,133.573,99.5557,94.564,0.00305779,0.537631,20.3377,145.137,0.47132,0.0,0.0
426,106.25,78.8059,83.4499,132.393,99.5703,94.3171,0.00295376,0.534053,20.3424,144.927,0.496613,0.0,0.0
432,107.75,78.9403,83.6592,131.239,99.5501,93.9953,0.00281252,0.530684,20.349,144.686,0.526074,0.0,0.0
438,109.25,78.7327,83.5909,131.893,99.5618,94.5504,0.002728,0.527293,20.3535,144.476,0.473198,0.0,0.0
444,110.75,79.1581,83.4881,135.098,99.5541,94.5933,0.00280057,0.525196,20.3571,144.196,0.468336,0.0,0.0
450,112.25,78.6775,83.8615,132.721,99.565,94.4117,0.00291904,0.524095,20.3615,143.976,0.486945,0.0,0.0
456,113.75,78.9335,83.5776,131.714,99.5501,94.3865,0.00299343,0.522552,20.3638,143.705,0.48802,0.0,0.0
462,115.25,78.6602,84.0866,129.7,99.5602,94.7653,0.00301592,0.521067,20.3651,143.485,0.452254,0.0,0.0
468,116.75,78.8826,83.8585,126.859,99.5493,94.7845,0.0030462,0.520396,20.366,143.215,0.449389,0.0,0.0
474,118.25,78.7921,83.7092,134.897,99.5577,94.8823,0.00307546,0.519784,20.3679,143.035,0.440721,0.0,0.0
480,119.75,78.8857,83.7455,132.396,99.5533,95.1068,0.0030313,0.517992,20.3697,142.765,0.418661,0.0,0.0
486,121.25,79.3427,83.8007,133.711,99.5581,95.2042,0.00295966,0.51648,20.3714,142.534,0.409729,0.0,0.0
492,122.75,79.106,83.9984,129.931,99.5585,94.2394,0.00288266,0.515069,20.3732,142.294,0.503093,0.0,0.0
498,124.25,79.2869,83.9004,133.792,99.5561,94.5107,0.00283561,0.512585,20.3753,142.074,0.476523,0.0,0.0
504,125.75,79.004,84.0459,135.384,99.5691,95.8964,0.00281241,0.50985,20.3766,141.854,0.344355,0.0,0.0
510,127.25,79.4752,84.1153,131.491,99.5529,94.9244,0.00278656,0.507425,20.3787,141.594,0.436211,0.0,0.0
516,128.75,79.4861,83.9148,130.037,99.5618,95.1921,0.0027174,0.505785,20.382,141.423,0.411221,0.0,0.0
522,130.25,79.2376,83.9377,131.45,99.5541,94.5761,0.00262551,0.504313,20.3842,141.143,0.470006,0.0,0.0
528,131.75,79.4418,84.1671,132.135,99.5513,94.6787,0.00257379,0.502354,20.3867,140.923,0.45981,0.0,0.0
534,133.25,79.1615,83.9587,135.266,99.5501,94.7003,0.00258398,0.49963,20.3901,140.643,0.457604,0.0,0.0
540,134.75,79.3766,84.4629,129.381,99.5561,94.6037,0.00260671,0.497129,20.3936,140.473,0.467513,0.0,0.0
546,136.25,79.3009,84.631,133.524,99.5517,94.7087,0.002558,0.496076,20.3968,140.182,0.456939,0.0,0.0
552,137.75,78.8666,84.1657,131.759,99.5573,95.405,0.00236317,0.494974,20.3996,140.022,0.390349,0.0,0.0
558,139.25,79.5434,84.298,132.419,99.5367,95.1893,0.0021919,0.491888,20.4011,139.772,0.409186,0.0,0.0
564,140.75,79.5053,84.6593,130.31,99.5553,95.4218,0.00214894,0.4896,20.4038,139.612,0.388546,0.0,0.0
570,142.25,79.6499,84.321,132.887,99.5383,95.1485,0.00216552,0.48844,20.4065,139.312,0.413271,0.0,0.0
576,143.75,79.2902,84.6363,131.759,99.5553,95.2859,0.00218076,0.487467,20.408,139.141,0.401603,0.0,0.0
582,145.25,79.8726,84.563,131.422,99.5327,95.6483,0.00216999,0.486868,20.4088,138.851,0.364744,0.0,0.0
588,146.75,79.1766,84.5814,132.446,99.5501,95.5753,0.00212327,0.486064,20.4092,138.681,0.373335,0.0,0.0
594,148.25,79.16,84.4121,136.328,99.5375,95.4519,0.00202987,0.484249,20.4105,138.451,0.384025,0.0,0.0
600,149.75,79.5406,84.4891,131.82,99.5387,94.8322,0.00194255,0.482433,20.4112,138.231,0.443813,0.0,0.0
606,151.25,79.4285,84.5502,130.315,99.5262,94.7733,0.00185431,0.480504,20.4135,137.98,0.448354,0.0,0.0
612,152.75,79.5821,84.4836,133.289,99.5412,95.1408,0.00186081,0.478373,20.4166,137.76,0.414264,0.0,0.0
618,154.25,79.4917,84.3888,131.203,99.5303,95.0599,0.00195217,0.477484,20.4192,137.47,0.421061,0.0,0.0
624,155.75,79.3087,84.4978,128.369,99.548,94.6715,0.00208823,0.477133,20.4216,137.32,0.460211,0.0,0.0
630,157.25,79.2598,84.5692,135.166,99.54,95.245,0.0021806,0.475897,20.4227,137.11,0.404122,0.0,0.0
636,158.75,79.4099,84.301,138.203,99.5581,95.7605,0.00219097,0.475224,20.4239,136.839,0.356342,0.0,0.0
642,160.25,79.3151,84.3177,127.978,99.5836,94.9821,0.00216529,0.47513,20.425,136.669,0.433469,0.0,0.0
648,161.75,79.5745,84.0973,132.066,99.5889,95.3368,0.00216675,0.474445,20.4255,136.429,0.399797,0.0,0.0
654,163.25,79.1026,84.2459,132.764,99.6058,94.8691,0.00219877,0.472752,20.4258,136.279,0.446422,0.0,0.0
660,164.75,79.0799,83.5879,137.906,99.6175,95.8611,0.0022803,0.470857,20.426,135.979,0.352188,0.0,0.0
666,166.25,79.1163,84.2171,132.424,99.6333,95.1978,0.00231628,0.46943,20.4284,135.829,0.417262,0.0,0.0
672,167.75,78.8868,84.3925,131.774,99.6273,95.5741,0.00225232,0.468204,20.4307,135.568,0.380551,0.0,0.0
678,169.25,79.052,84.5242,131.429,99.658,95.7236,0.00214118,0.467714,20.4327,135.398,0.369053,0.0,0.0
684,170.75,78.5685,84.8375,131.435,99.6273,95.4166,0.0020786,0.466761,20.4344,135.138,0.395666,0.0,0.0
690,172.25,78.8365,84.0677,132.965,99.6495,96.2776,0.00209237,0.465533,20.4353,134.978,0.315404,0.0,0.0
696,173.75,78.9242,84.4388,134.121,99.6309,95.5365,0.00209099,0.464257,20.4365,134.738,0.384498,0.0,0.0
702,175.25,78.8186,84.5622,132.735,99.6551,95.3541,0.00203026,0.462379,20.4377,134.547,0.404236,0.0,0.0
708,176.75,78.856,84.2179,134.116,99.6313,95.2767,0.00195723,0.461276,20.4392,134.267,0.409479,0.0,0.0
714,178.25,79.395,83.6269,130.658,99.6281,95.5044,0.00195811,0.460993,20.4406,134.117,0.387314,0.0,0.0
720,179.75,79.2817,83.9994,131.475,99.6273,95.1761,0.00202723,0.459986,20.4418,133.857,0.418789,0.0,0.0
726,181.25,79.0861,83.9549,136.565,99.6313,96.0904,0.00207784,0.458304,20.4424,133.677,0.331562,0.0,0.0
732,182.75,79.3077,83.428,137.895,99.6151,95.7866,0.00209378,0.456156,20.4447,133.416,0.359093,0.0,0.0
738,184.25,79.3689,83.3058,138.211,99.6127,95.8254,0.0021241,0.453114,20.4464,133.256,0.355151,0.0,0.0
744,185.75,78.8162,83.8991,140.544,99.6022,95.7084,0.00216352,0.450657,20.449,133.026,0.365383,0.0,0.0
750,187.25,78.949,83.8485,129.958,99.6196,96.3044,0.00213715,0.450711,20.4517,132.836,0.310099,0.0,0.0
756,188.75,78.065,83.5778,130.001,99.6091,95.4984,0.00205408,0.451816,20.4531,132.596,0.386143,0.0,0.0
762,190.25,78.8801,83.5931,134.147,99.605,96.4343,0.00199022,0.452453,20.4538,132.406,0.296412,0.0,0.0
768,191.75,78.2762,84.2071,132.211,99.5945,95.2306,0.00196797,0.452204,20.4542,132.185,0.41053,0.0,0.0
774,193.25,78.3339,84.196,128.417,99.5941,95.5092,0.0019571,0.451994,20.4544,131.955,0.38373,0.0,0.0
780,194.75,78.2974,83.9686,129.846,99.584,96.0126,0.00192136,0.451923,20.4546,131.725,0.334632,0.0,0.0
786,196.25,78.5809,82.8302,132.633,99.5868,95.528,0.00189458,0.451628,20.4547,131.495,0.381254,0.0,0.0
792,197.75,78.6606,83.4161,131.673,99.5864,95.7613,0.00189903,0.451004,20.455,131.365,0.358869,0.0,0.0
798,199.25,78.7714,83.731,132.456,99.5638,95.4523,0.00190178,0.449889,20.4552,131.144,0.386403,0.0,0.0
804,200.75,78.4005,83.2881,130.316,99.5642,96.5686,0.00190357,0.448549,20.4562,130.964,0.279908,0.0,0.0
810,202.25,78.8215,84.1349,135.188,99.5452,95.8343,0.00190888,0.448417,20.4575,130.754,0.348098,0.0,0.0
816,203.75,78.6229,83.7497,132.165,99.5525,95.803,0.0018877,0.448613,20.4585,130.574,0.351757,0.0,0.0
822,205.25,79.1399,83.0414,129.436,99.5577,95.8828,0.00185814,0.448284,20.4592,130.324,0.344616,0.0,0.0
828,206.75,78.8599,83.3704,134.954,99.567,95.617,0.00186165,0.44784,20.4595,130.184,0.370901,0.0,0.0
834,208.25,78.7936,83.6167,137.045,99.5606,94.9529,0.00187443,0.447925,20.4595,129.933,0.434172,0.0,0.0
840,209.75,78.498,83.4338,135.67,99.5808,95.4034,0.00186903,0.447119,20.4593,129.773,0.39266,0.0,0.0
846,211.25,78.7375,83.5077,133.431,99.586,95.3849,0.00183701,0.446744,20.4603,129.513,0.394915,0.0,0.0
852,212.75,78.6697,83.2578,138.158,99.603,95.9433,0.00178467,0.446615,20.4608,129.303,0.342999,0.0,0.0
858,214.25,78.7558,83.1458,132.652,99.5913,95.8623,0.00174286,0.444893,20.4611,129.073,0.349655,0.0,0.0
864,215.75,78.3797,83.3888,132.28,99.5953,95.5212,0.0017873,0.442667,20.4622,128.903,0.382688,0.0,0.0
870,217.25,78.1056,83.6062,137.572,99.5779,95.708,0.00187623,0.441307,20.4641,128.642,0.363191,0.0,0.0
876,218.75,78.6764,83.1837,130.406,99.5767,96.1317,0.00199075,0.440921,20.4661,128.492,0.322609,0.0,0.0
882,220.25,78.4224,83.549,135.413,99.5723,96.1445,0.00204274,0.442148,20.4667,128.242,0.320977,0.0,0.0
888,221.75,78.0726,83.789,131.409,99.565,95.9513,0.00202756,0.444397,20.4668,128.072,0.338739,0.0,0.0
894,223.25,78.382,82.9449,135.699,99.5557,96.6948,0.00200693,0.446696,20.4653,127.832,0.267156,0.0,0.0
900,224.75,78.8682,83.085,128.546,99.5513,95.7689,0.0020106,0.449185,20.4623,127.631,0.354905,0.0,0.0
906,226.25,78.6875,83.556,136.906,99.5464,95.3841,0.00202546,0.450971,20.4601,127.371,0.391346,0.0,0.0
912,227.75,78.3379,82.8394,133.898,99.5501,96.0263,0.00203413,0.450913,20.4579,127.191,0.330207,0.0,0.0
918,229.25,78.5567,83.0566,131.825,99.5262,95.7264,0.00201653,0.449571,20.4567,127.011,0.356665,0.0,0.0
924,230.75,78.3487,83.5045,133.353,99.529,95.9309,0.0020396,0.448463,20.457,126.781,0.33738,0.0,0.0
930,232.25,78.4613,83.4661,136.518,99.5274,95.304,0.00213163,0.448132,20.4579,126.56,0.397303,0.0,0.0
936,233.75,78.7458,83.0214,133.021,99.527,95.6335,0.0022057,0.447528,20.4589,126.37,0.365643,0.0,0.0
942,235.25,78.5188,82.9852,136.001,99.5307,95.5998,0.00217156,0.447103,20.4594,126.17,0.369205,0.0,0.0
948,236.75,78.4223,83.4594,133.125,99.5234,96.1641,0.00208424,0.447016,20.4603,125.93,0.314605,0.0,0.0
954,238.25,78.4749,83.6294,131.897,99.5319,95.4098,0.0020179,0.446824,20.4611,125.76,0.387544,0.0,0.0
960,239.75,78.4074,82.9177,123.848,99.529,94.9985,0.00199415,0.446933,20.4616,125.5,0.426862,0.0,0.0
966,241.25,78.4823,83.5165,128.17,99.5331,95.5741,0.00204862,0.448338,20.4619,125.339,0.371888,0.0,0.0
972,242.75,78.8452,83.3526,135.059,99.5307,95.9092,0.00210173,0.449399,20.461,125.059,0.339596,0.0,0.0
978,244.25,78.2071,83.7416,133.847,99.5497,95.4411,0.00210874,0.449305,20.4604,124.899,0.386179,0.0,0.0
984,245.75,78.8175,83.5437,135.391,99.5266,95.0695,0.00209032,0.449055,20.4594,124.699,0.4198,0.0,0.0
990,247.25,79.2346,83.1287,131.129,99.5428,95.8836,0.00208467,0.449246,20.4589,124.529,0.343163,0.0,0.0
996,248.75,78.8418,83.3404,136.778,99.5303,95.0739,0.00208029,0.449562,20.4586,124.268,0.419709,0.0,0.0
1002,250.25,78.6451,83.5326,132.992,99.5367,95.882,0.0020446,0.449545,20.4584,124.108,0.342759,0.0,0.0
1008,251.75,78.8482,83.1913,132.438,99.5359,95.9637,0.00198613,0.449192,20.4584,123.858,0.334874,0.0,0.0
1014,253.25,78.7571,83.3013,132.256,99.5404,95.3797,0.00197023,0.449761,20.4583,123.698,0.391212,0.0,0.0
1020,254.75,78.6768,83.4998,132.935,99.527,95.5713,0.00199642,0.44976,20.4583,123.458,0.371598,0.0,0.0
1026,256.25,78.8688,83.2075,135.555,99.5549,94.6723,0.00200823,0.44888,20.4583,123.278,0.460765,0.0,0.0
1032,257.75,78.6745,83.3492,132.536,99.5294,95.8022,0.00196538,0.448634,20.4583,123.017,0.349713,0.0,0.0
1038,259.25,79.1443,82.6554,134.54,99.5404,95.2851,0.00193506,0.449326,20.4583,122.877,0.400304,0.0,0.0
1044,260.75,79.075,83.2964,134.075,99.5226,95.5777,0.00194046,0.450195,20.4583,122.637,0.370574,0.0,0.0
1050,262.25,78.7521,83.4944,135.014,99.5294,95.0222,0.00194814,0.450937,20.4577,122.437,0.424619,0.0,0.0
1056,263.75,79.07,83.3427,130.735,99.5198,94.9865,0.00196151,0.452115,20.4566,122.197,0.427166,0.0,0.0
1062,265.25,78.8709,82.9953,132.951,99.5161,94.8959,0.00198318,0.452568,20.4556,122.007,0.435573,0.0,0.0
1068,266.75,78.7259,82.9268,129.911,99.5185,95.601,0.0019587,0.451895,20.4546,121.776,0.367974,0.0,0.0
1074,268.25,79.1703,82.8677,138.449,99.5189,95.4851,0.00192178,0.451457,20.4539,121.576,0.379119,0.0,0.0
1080,269.75,79.0326,83.3023,134.802,99.5121,95.1372,0.00186994,0.451911,20.4545,121.366,0.411934,0.0,0.0
1086,271.25,78.8587,83.3705,134.346,99.5254,94.8037,0.00184449,0.452585,20.4547,121.136,0.445335,0.0,0.0
1092,272.75,78.7567,83.2993,136.249,99.5185,95.5421,0.00190956,0.453105,20.4546,120.956,0.373622,0.0,0.0
1098,274.25,78.6793,82.9432,128.437,99.521,95.2442,0.00200486,0.45278,20.4545,120.725,0.402451,0.0,0.0
1104,275.75,78.9406,83.5963,130.965,99.5202,95.0162,0.0020585,0.45213,20.4545,120.555,0.424342,0.0,0.0
1110,277.25,79.02,83.6684,131.207,99.5157,95.4246,0.00206682,0.453171,20.4537,120.295,0.384631,0.0,0.0
1116,278.75,79.2146,83.5095,128.591,99.5274,94.9296,0.0020496,0.454275,20.453,120.135,0.433365,0.0,0.0
1122,280.25,79.202,83.3324,134.753,99.5133,95.2635,0.00199597,0.454903,20.4517,119.895,0.399893,0.0,0.0
1128,281.75,78.8848,83.4333,129.606,99.5282,95.0575,0.00193016,0.455574,20.4508,119.704,0.421107,0.0,0.0
1134,283.25,78.9146,83.4221,131.323,99.5105,95.1112,0.00187494,0.456619,20.4508,119.474,0.414294,0.0,0.0
1140,284.75,79.1689,83.4887,132.053,99.5226,94.6438,0.00186924,0.457501,20.4501,119.284,0.460544,0.0,0.0
1146,286.25,78.8662,83.5865,133.878,99.5181,95.1469,0.00191046,0.457729,20.4484,119.064,0.411565,0.0,0.0
1152,287.75,79.292,83.5253,131.188,99.5335,94.8326,0.00196818,0.457591,20.4474,118.864,0.443291,0.0,0.0
1158,289.25,78.4502,84.0114,130.427,99.5121,94.6162,0.00205581,0.457584,20.4467,118.664,0.462255,0.0,0.0
1164,290.75,79.1605,83.5112,133.231,99.5218,94.5657,0.00217194,0.458116,20.4456,118.443,0.46804,0.0,0.0
1170,292.25,79.3272,83.5297,135.422,99.506,94.9332,0.0022431,0.45872,20.4451,118.223,0.431044,0.0,0.0
1176,293.75,78.9856,84.0041,132.939,99.5234,94.8751,0.00226815,0.458749,20.4448,118.063,0.438257,0.0,0.0
1182,295.25,79.4227,83.1027,130.149,99.5137,94.9609,0.00225385,0.459054,20.4446,117.843,0.429083,0.0,0.0
1188,296.75,78.8316,83.7398,132.452,99.5222,94.9873,0.00220847,0.4601,20.4445,117.623,0.427313,0.0,0.0
1194,298.25,79.1076,83.4626,131.99,99.5113,95.1789,0.00218308,0.46052,20.4441,117.402,0.407845,0.0,0.0
1200,299.75,79.0705,83.8277,131.772,99.5202,95.2302,0.00218291,0.460425,20.4432,117.212,0.403725,0.0,0.0
1206,301.25,78.7169,83.4859,137.797,99.521,94.6947,0.00221729,0.460014,20.4427,117.022,0.455469,0.0,0.0
1212,302.75,79.106,83.643,132.587,99.521,95.4924,0.00228385,0.459359,20.4425,116.792,0.378613,0.0,0.0
1218,304.25,79.3317,83.8116,127.998,99.525,94.9076,0.00235255,0.458508,20.4427,116.592,0.435271,0.0,0.0
1224,305.75,79.5914,83.4374,129.939,99.5234,94.3893,0.0023441,0.458518,20.4435,116.392,0.485292,0.0,0.0
1230,307.25,79.4338,83.6701,131.029,99.5242,94.837,0.00223857,0.459304,20.444,116.171,0.442008,0.0,0.0
1236,308.75,79.4984,83.4427,135.87,99.5193,94.2991,0.00214691,0.460209,20.4437,115.981,0.493679,0.0,0.0
1242,310.25,78.9675,83.33,133.878,99.5278,95.0827,0.00208706,0.460888,20.4424,115.741,0.418635,0.0,0.0
1248,311.75,79.1395,83.7808,132.214,99.5254,94.5993,0.00205747,0.46163,20.4412,115.511,0.465112,0.0,0.0
1254,313.25,79.3937,83.332,130.016,99.5294,94.7108,0.00206836,0.462696,20.4413,115.371,0.454699,0.0,0.0
1260,314.75,78.8162,83.3532,136.217,99.5189,94.2201,0.00209105,0.462649,20.4414,115.161,0.501317,0.0,0.0
1266,316.25,79.3623,83.7659,136.043,99.5428,94.9637,0.002116,0.461692,20.4414,114.96,0.43149,0.0,0.0
1272,317.75,79.4854,83.9214,129.386,99.5286,94.035,0.00214659,0.46153,20.4413,114.74,0.520235,0.0,0.0
1278,319.25,79.5336,83.2973,131.699,99.5424,94.0887,0.00217258,0.461607,20.4423,114.52,0.516268,0.0,0.0
1284,320.75,79.3133,83.984,134.075,99.5416,95.1132,0.00222687,0.462518,20.4423,114.31,0.416965,0.0,0.0
1290,322.25,79.8298,83.5364,132.524,99.5484,94.8567,0.00231621,0.462609,20.4418,114.15,0.442344,0.0,0.0
1296,323.75,79.3647,84.0047,135.059,99.5343,94.6526,0.00233302,0.463184,20.4415,113.929,0.46077,0.0,0.0
1302,325.25,79.7189,83.7456,134.122,99.5581,94.9617,0.00225705,0.464223,20.4404,113.759,0.433098,0.0,0.0
1308,326.75,79.4328,84.139,134.418,99.5408,94.2442,0.00217579,0.464699,20.4394,113.519,0.500987,0.0,0.0
1314,328.25,79.9333,83.7002,134.582,99.5553,94.8747,0.00216719,0.464259,20.4388,113.369,0.441233,0.0,0.0
1320,329.75,79.6156,83.111,135.375,99.5541,95.338,0.00223228,0.464617,20.4379,113.129,0.396483,0.0,0.0
1326,331.25,80.0435,83.7372,135.166,99.5703,94.0314,0.00229962,0.465307,20.4369,112.979,0.524418,0.0,0.0
1332,332.75,79.4201,84.2832,128.196,99.5529,93.8301,0.00232694,0.464756,20.4374,112.738,0.542446,0.0,0.0
1338,334.25,79.4562,84.3429,125.612,99.5662,94.7059,0.00235091,0.464188,20.4378,112.568,0.458549,0.0,0.0
1344,335.75,79.7772,83.7965,131.432,99.5569,94.6943,0.00237178,0.46461,20.438,112.318,0.458818,0.0,0.0
1350,337.25,79.4629,83.4925,137.808,99.5719,94.9617,0.00235505,0.464745,20.4381,112.168,0.434361,0.0,0.0
1356,338.75,80.3161,83.7633,127.701,99.5682,93.946,0.00230232,0.464661,20.4381,111.958,0.532555,0.0,0.0
1362,340.25,79.9018,84.1017,129.27,99.5771,94.3805,0.00228607,0.46554,20.4377,111.758,0.491096,0.0,0.0
1368,341.75,79.4156,84.041,136.378,99.5735,94.5103,0.00233296,0.466336,20.4368,111.547,0.478161,0.0,0.0
1374,343.25,80.1265,83.8202,135.975,99.5788,95.0979,0.00241624,0.465836,20.4363,111.357,0.421855,0.0,0.0
1380,344.75,79.4383,84.529,134.559,99.5808,94.4322,0.00245732,0.465269,20.4361,111.137,0.486411,0.0,0.0
1386,346.25,79.9166,84.3676,130.951,99.5767,94.0943,0.00250482,0.464381,20.436,110.937,0.518884,0.0,0.0
1392,347.75,80.2171,83.9182,132.452,99.5816,94.4787,0.00257624,0.46437,20.4359,110.727,0.481976,0.0,0.0
1398,349.25,80.4166,83.9035,129.765,99.5792,94.8743,0.00265234,0.465202,20.4359,110.546,0.443465,0.0,0.0
1404,350.75,79.576,84.3482,134.756,99.5836,94.5079,0.0026819,0.464921,20.4359,110.346,0.479325,0.0,0.0
1410,352.25,79.8558,84.176,133.703,99.5755,93.7604,0.00266755,0.464404,20.4359,110.136,0.551342,0.0,0.0
1416,353.75,79.6476,84.3994,132.647,99.5893,93.9772,0.00264732,0.46375,20.4365,109.966,0.531441,0.0,0.0
1422,355.25,80.1194,84.1272,131.74,99.5755,94.1071,0.00263863,0.462314,20.4373,109.716,0.517524,0.0,0.0
1428,356.75,80.2144,83.7275,133.117,99.5949,94.0061,0.00261303,0.462266,20.4377,109.576,0.529147,0.0,0.0
1434,358.25,80.1504,83.894,135.881,99.5864,94.2454,0.00257015,0.464381,20.4379,109.355,0.505073,0.0,0.0
1440,359.75,79.9032,84.5113,136.623,99.5897,94.1135,0.00247509,0.466043,20.4383,109.175,0.5182,0.0,0.0
1446,361.25,80.1227,83.9837,134.291,99.5804,93.6911,0.00241313,0.466263,20.4379,108.925,0.558567,0.0,0.0
1452,362.75,79.8151,84.2632,134.123,99.5905,94.1608,0.00241422,0.466362,20.4363,108.795,0.513672,0.0,0.0
1458,364.25,79.988,84.0559,139.209,99.5852,93.6682,0.00245926,0.466916,20.4353,108.565,0.561248,0.0,0.0
1464,365.75,79.6821,83.4535,132.538,99.6006,94.1063,0.00250075,0.467402,20.4348,108.405,0.519907,0.0,0.0
1470,367.25,80.1666,84.1847,132.957,99.5889,93.76,0.00250488,0.466008,20.4334,108.184,0.552608,0.0,0.0
1476,368.75,79.3409,83.9679,133.155,99.6159,94.3412,0.00250427,0.463882,20.4323,107.984,0.498478,0.0,0.0
1482,370.25,80.1937,84.1414,134.137,99.5852,94.2262,0.00253335,0.462507,20.4332,107.764,0.506832,0.0,0.0
1488,371.75,79.8095,84.4204,134.686,99.6026,93.9961,0.00255738,0.462752,20.4352,107.594,0.53083,0.0,0.0
1494,373.25,80.0098,83.8708,133.534,99.5905,93.5147,0.00266053,0.463892,20.4365,107.404,0.576761,0.0,0.0
1500,374.75,80.1666,83.941,133.433,99.599,93.5311,0.0027323,0.465447,20.4372,107.194,0.575931,0.0,0.0
1506,376.25,79.8614,83.5434,127.516,99.5893,94.322,0.0026907,0.467994,20.4364,106.983,0.497894,0.0,0.0
1512,377.75,79.8602,84.4697,129.553,99.5965,93.8241,0.00256369,0.469969,20.4346,106.823,0.54705,0.0,0.0
1518,379.25,80.3326,84.2245,133.312,99.5905,93.6774,0.00249261,0.470535,20.4327,106.563,0.560829,0.0,0.0
1524,380.75,80.2675,84.5074,131.311,99.6014,93.4474,0.00248957,0.471252,20.4312,106.363,0.584365,0.0,0.0
1530,382.25,80.4601,84.4417,132.978,99.6022,93.7207,0.00251326,0.47159,20.4299,106.133,0.557675,0.0,0.0
1536,383.75,79.9791,84.5108,136.009,99.603,93.8097,0.00254665,0.471574,20.4287,105.922,0.549054,0.0,0.0
1542,385.25,80.519,84.2569,130.037,99.6123,92.806,0.00258368,0.471919,20.4273,105.732,0.648466,0.0,0.0
1548,386.75,80.3803,84.5262,137.325,99.6087,92.4337,0.00260227,0.471733,20.4265,105.542,0.684968,0.0,0.0
1554,388.25,80.1038,84.7472,134.042,99.6192,93.3944,0.00261942,0.471584,20.4264,105.352,0.591189,0.0,0.0
1560,389.75,80.6799,84.092,131.88,99.6095,93.489,0.00265825,0.472006,20.4264,105.122,0.581021,0.0,0.0
1566,391.25,80.5055,84.565,130.221,99.6212,93.1788,0.00274384,0.472085,20.4272,104.922,0.612555,0.0,0.0
1572,392.75,80.4865,84.1026,135.453,99.6123,93.3223,0.00286305,0.473822,20.4279,104.741,0.597638,0.0,0.0
1578,394.25,80.3752,84.6358,130.055,99.6349,92.7126,0.00301199,0.476502,20.4273,104.541,0.659772,0.0,0.0
1584,395.75,80.3994,84.7525,131.916,99.6192,93.2241,0.00311979,0.477654,20.4261,104.291,0.607916,0.0,0.0
1590,397.25,80.4861,84.8275,131.902,99.6301,93.0529,0.00317653,0.477263,20.4242,104.171,0.625757,0.0,0.0
1596,398.75,80.6171,84.2979,136.409,99.626,93.5896,0.00319638,0.477041,20.4223,103.931,0.572691,0.0,0.0
1602,400.25,80.3293,84.8438,136.015,99.6317,92.5675,0.00317105,0.478053,20.4206,103.761,0.673826,0.0,0.0
1608,401.75,80.6352,84.7316,131.925,99.6264,92.7652,0.00305899,0.4794,20.4197,103.51,0.653804,0.0,0.0
1614,403.25,80.5507,83.7237,136.706,99.6378,92.873,0.00290401,0.480555,20.4192,103.3,0.644202,0.0,0.0
1620,404.75,80.6534,84.9568,130.803,99.6264,92.2774,0.00282385,0.481043,20.4186,103.07,0.702112,0.0,0.0
1626,406.25,80.983,84.3792,132.881,99.6418,92.5908,0.00286031,0.481959,20.4184,102.93,0.672455,0.0,0.0
1632,407.75,80.5639,84.3477,130.702,99.6438,93.3504,0.00295163,0.483882,20.4181,102.65,0.597782,0.0,0.0
1638,409.25,80.7525,84.705,132.245,99.6446,91.9643,0.00301235,0.485818,20.4172,102.469,0.73492,0.0,0.0
1644,410.75,80.5752,85.1164,128.846,99.6361,92.8012,0.00302265,0.486837,20.4142,102.249,0.651133,0.0,0.0
1650,412.25,81.0406,85.1812,129.466,99.6345,92.3383,0.00305568,0.487204,20.4126,102.069,0.696808,0.0,0.0
1656,413.75,80.8122,85.4594,131.451,99.6317,92.4281,0.00312556,0.488049,20.4117,101.819,0.687643,0.0,0.0
1662,415.25,80.8255,85.6033,129.872,99.645,92.1868,0.0032051,0.490844,20.4108,101.639,0.71282,0.0,0.0
1668,416.75,81.2716,84.8265,130.935,99.6365,92.2028,0.00321637,0.493222,20.4089,101.409,0.710446,0.0,0.0
1674,418.25,80.7844,85.6033,127.376,99.6365,91.8188,0.00315034,0.494785,20.4057,101.238,0.748685,0.0,0.0
1680,419.75,81.4081,85.0777,132.472,99.6309,92.7619,0.00306036,0.495617,20.4025,101.018,0.65453,0.0,0.0
1686,421.25,81.3713,85.2802,131.029,99.6341,92.7539,0.00299443,0.496545,20.3999,100.818,0.655619,0.0,0.0
1692,422.75,81.2897,85.4365,132.836,99.6289,91.7138,0.00290763,0.497201,20.3983,100.608,0.758464,0.0,0.0
1698,424.25,81.3504,85.3533,135.45,99.6325,92.6245,0.00285513,0.496775,20.3966,100.378,0.668267,0.0,0.0
1704,425.75,81.1768,85.3264,132.089,99.6495,91.3114,0.00286238,0.496179,20.3957,100.197,0.800651,0.0,0.0
1710,427.25,81.2083,85.7442,132.568,99.6353,92.3375,0.00288427,0.497208,20.3952,99.9773,0.696962,0.0,0.0
1716,428.75,81.4127,85.5214,135.649,99.6539,92.4204,0.00301589,0.498727,20.3952,99.8271,0.690442,0.0,0.0
1722,430.25,81.3884,85.5029,135.748,99.6442,93.0177,0.00314609,0.500094,20.3946,99.5969,0.630532,0.0,0.0
1728,431.75,81.3101,85.6772,133.956,99.6563,91.8356,0.00320367,0.501353,20.3929,99.4168,0.748826,0.0,0.0
1734,433.25,81.671,85.8196,128.714,99.6418,91.8256,0.00315771,0.501561,20.3908,99.1966,0.748488,0.0,0.0
1740,434.75,81.5359,85.7123,131.787,99.6636,92.0597,0.00310354,0.501668,20.3896,99.0064,0.727167,0.0,0.0
1746,436.25,81.6554,85.5544,132.351,99.6442,90.8103,0.00307827,0.502103,20.389,98.7462,0.850581,0.0,0.0
1752,437.75,81.3546,85.8495,129.449,99.6636,92.8313,0.00307266,0.502586,20.3887,98.5861,0.650693,0.0,0.0
1758,439.25,81.6335,85.2918,134.798,99.662,92.7832,0.00306361,0.502236,20.3885,98.3959,0.655293,0.0,0.0
1764,440.75,81.2882,86.2339,128.607,99.6778,91.7988,0.00307014,0.501837,20.3885,98.1957,0.754475,0.0,0.0
1770,442.25,82.1086,85.8977,132.464,99.662,92.1531,0.00307057,0.500719,20.3884,97.9855,0.717728,0.0,0.0
1776,443.75,81.5152,85.8927,131.175,99.6846,92.109,0.00308486,0.498841,20.3884,97.8154,0.724193,0.0,0.0
1782,445.25,81.7066,85.8405,124.473,99.6778,91.4549,0.00311638,0.49691,20.3884,97.5852,0.788865,0.0,0.0
1788,446.75,81.4555,85.852,131.071,99.6939,92.3996,0.00312362,0.49515,20.3916,97.405,0.696186,0.0,0.0
1794,448.25,81.6498,86.0936,137.119,99.677,92.881,0.00306373,0.493476,20.3939,97.1848,0.647014,0.0,0.0
1800,449.75,81.6741,85.9154,132.545,99.6891,92.0593,0.00297539,0.49241,20.3956,97.0147,0.729547,0.0,0.0
1806,451.25,81.0113,85.775,134.232,99.6939,92.7339,0.00292309,0.492057,20.3961,96.7845,0.663097,0.0,0.0
1812,452.75,81.9049,86.3357,128.702,99.6923,92.3034,0.00288211,0.491623,20.396,96.6043,0.705581,0.0,0.0
1818,454.25,81.7674,85.7398,138.547,99.7065,93.2686,0.00280428,0.491144,20.396,96.3641,0.611571,0.0,0.0
1824,455.75,82.1032,85.6529,131.47,99.7032,92.4974,0.00270884,0.48987,20.3959,96.194,0.687348,0.0,0.0
1830,457.25,81.6643,86.2255,128.647,99.6955,92.4345,0.00260815,0.488123,20.3967,96.0438,0.692877,0.0,0.0
1836,458.75,81.5541,85.986,136.255,99.704,93.7339,0.00257826,0.48721,20.3988,95.7836,0.565745,0.0,0.0
1842,460.25,81.9869,85.5776,130.553,99.7133,92.3647,0.00259706,0.485349,20.4007,95.6335,0.701427,0.0,0.0
1848,461.75,81.8722,85.573,131.462,99.7101,92.198,0.00264836,0.482584,20.4018,95.4233,0.717686,0.0,0.0
1854,463.25,81.8762,85.3024,131.159,99.7254,91.2128,0.00265874,0.480912,20.4033,95.2331,0.817533,0.0,0.0
1860,464.75,81.4013,85.7655,134.14,99.7113,92.3723,0.00259912,0.480165,20.4049,95.033,0.700486,0.0,0.0
1866,466.25,80.9619,85.445,129.42,99.7331,92.0709,0.00246698,0.477777,20.4072,94.9129,0.732438,0.0,0.0
1872,467.75,81.6558,85.2639,135.542,99.7299,92.0954,0.00233733,0.474304,20.4084,94.7227,0.729709,0.0,0.0
1878,469.25,81.3305,85.3627,137.704,99.738,92.2525,0.00226045,0.471085,20.4103,94.5826,0.714832,0.0,0.0
1884,470.75,81.0099,85.3565,134.66,99.7307,92.9996,0.00224211,0.468226,20.4139,94.3223,0.640258,0.0,0.0
1890,472.25,81.2102,85.6888,131.983,99.7521,92.1683,0.0022365,0.46503,20.4173,94.1922,0.724494,0.0,0.0
1896,473.75,81.2983,85.7212,134.23,99.7412,93.0646,0.00222195,0.462132,20.4201,93.982,0.634827,0.0,0.0
1902,475.25,81.4194,85.3387,133.778,99.7606,92.5788,0.00219596,0.460232,20.426,93.8519,0.684563,0.0,0.0
1908,476.75,80.5521,85.2332,133.721,99.7457,92.5319,0.00216354,0.45798,20.4298,93.6317,0.687831,0.0,0.0
1914,478.25,81.1308,84.6095,127.86,99.7723,93.178,0.00214133,0.455335,20.4328,93.4716,0.626524,0.0,0.0
1920,479.75,81.4826,84.9158,133.606,99.7626,93.2389,0.00213687,0.453085,20.4362,93.2614,0.619644,0.0,0.0
1926,481.25,80.8759,84.9929,133.871,99.7723,92.495,0.00214438,0.451025,20.4387,93.1313,0.693934,0.0,0.0
1932,482.75,80.3447,85.3467,130.123,99.78,93.3067,0.00215139,0.447223,20.4405,92.9511,0.614586,0.0,0.0
1938,484.25,80.6929,84.9933,132.549,99.7752,93.5432,0.00209077,0.443296,20.4438,92.831,0.590947,0.0,0.0
1944,485.75,80.595,84.8101,135.913,99.7776,93.2746,0.00199078,0.439165,20.447,92.6509,0.617513,0.0,0.0
1950,487.25,80.5451,84.7337,138.012,99.7966,93.2574,0.00189095,0.434243,20.451,92.5308,0.620951,0.0,0.0
1956,488.75,80.215,84.6867,135.401,99.797,93.2405,0.00183916,0.429176,20.4558,92.3406,0.622641,0.0,0.0
1962,490.25,80.5141,84.18,137.017,99.799,93.3039,0.00181405,0.42449,20.4605,92.2405,0.616605,0.0,0.0
1968,491.75,79.5967,84.3923,142.07,99.7929,94.2442,0.00176281,0.419228,20.4655,92.1004,0.52417,0.0,0.0
1974,493.25,79.96,83.8047,133.547,99.8026,94.3773,0.00170711,0.413933,20.471,91.9903,0.512132,0.0,0.0
1980,494.75,79.3265,83.8738,136.326,99.803,94.1247,0.00169964,0.408119,20.4776,91.8602,0.536717,0.0,0.0
1986,496.25,79.4127,83.2644,132.568,99.8026,94.3817,0.00174587,0.403199,20.4833,91.7201,0.511704,0.0,0.0
1992,497.75,79.5028,83.2019,134.637,99.8071,94.4963,0.00177129,0.396191,20.4879,91.63,0.500989,0.0,0.0
1998,499.25,78.6913,83.3086,140.038,99.8055,94.3212,0.00170345,0.389588,20.4915,91.4999,0.517842,0.0,0.0
2004,500.75,78.2463,82.8193,141.606,99.8127,95.2739,0.0016313,0.382697,20.4998,91.4098,0.42642,0.0,0.0
2010,502.25,77.9408,81.9297,137.808,99.8111,95.4022,0.00160025,0.375585,20.5084,91.3197,0.413946,0.0,0.0
2016,503.75,77.8024,82.0948,139.575,99.8285,95.8138,0.00157552,0.368152,20.516,91.2496,0.376091,0.0,0.0
2022,505.25,77.3281,81.7055,140.463,99.8127,96.4519,0.00158185,0.359492,20.5232,91.1195,0.313824,0.0,0.0
2028,506.75,77.0429,81.2366,135.736,99.8342,96.2315,0.00162705,0.348602,20.5309,91.0595,0.336756,0.0,0.0
2034,508.25,77.2106,81.0713,141.649,99.8115,97.0195,0.00168566,0.338005,20.5424,90.9794,0.259955,0.0,0.0
2040,509.75,75.7751,80.4657,147.141,99.8342,97.1923,0.00170933,0.327427,20.5553,90.9494,0.245732,0.0,0.0
2046,511.25,75.9364,79.7144,147.179,99.8204,97.7839,0.001667,0.314995,20.5664,90.8893,0.188868,0.0,0.0
2052,512.75,75.6518,79.3901,141.299,99.8479,98.2063,0.00156521,0.300728,20.5773,90.8893,0.151889,0.0,0.0
2058,514.25,74.795,79.5159,143.583,99.8277,98.0236,0.00145643,0.285841,20.5928,90.7792,0.167102,0.0,0.0
2064,515.75,74.4611,78.6348,139.744,99.8511,98.5699,0.00135574,0.270618,20.6098,90.7993,0.11833,0.0,0.0
2070,517.25,73.8146,78.082,144.042,99.8378,98.7839,0.00124525,0.255053,20.6258,90.7092,0.0972314,0.0,0.0
2076,518.75,73.3184,77.6561,144.025,99.8572,98.9034,0.00114947,0.240174,20.6414,90.7392,0.087939,0.0,0.0
2082,520.25,72.8865,76.9499,145.05,99.8507,98.9996,0.00107312,0.224254,20.6596,90.6591,0.0784378,0.0,0.0
2088,521.75,72.2874,76.6529,142.851,99.8681,99.0637,0.00100549,0.208825,20.6784,90.6892,0.0740996,0.0,0.0
2094,523.25,71.8313,75.6645,142.888,99.8451,99.0757,0.000983483,0.195466,20.6996,90.6091,0.0708736,0.0,0.0
2100,524.75,71.2548,75.3226,143.886,99.8475,99.0517,0.00105238,0.184159,20.7185,90.6091,0.0733205,0.0,0.0
2106,526.25,70.8566,74.8012,144.701,99.8507,99.0958,0.00118604,0.174371,20.7336,90.5591,0.0695393,0.0,0.0
2112,527.75,70.2913,74.6583,148.556,99.8503,99.1579,0.00133984,0.165921,20.7482,90.5591,0.0637597,0.0,0.0
2118,529.25,69.7264,73.771,143.103,99.8519,99.1651,0.00142527,0.158517,20.7624,90.509,0.0632413,0.0,0.0
2124,530.75,69.6813,73.3051,144.851,99.8487,99.1415,0.00143433,0.152657,20.7746,90.509,0.0651296,0.0,0.0
2130,532.25,68.8492,72.8412,145.054,99.8471,99.232,0.00138348,0.148214,20.7824,90.459,0.0566143,0.0,0.0
2136,533.75,68.5906,72.1736,141.816,99.8495,99.1515,0.00133866,0.144965,20.7891,90.4189,0.0642782,0.0,0.0
2142,535.25,68.3202,71.6863,147.267,99.8544,99.1527,0.00132409,0.142301,20.7947,90.4089,0.0646123,0.0,0.0
2148,536.75,67.6705,71.4533,143.778,99.8467,99.0409,0.0013669,0.140151,20.8,90.3789,0.074248,0.0,0.0
2154,538.25,67.0712,70.9863,145.935,99.854,99.2168,0.00140206,0.138523,20.8041,90.3288,0.0586506,0.0,0.0
2160,539.75,67.4893,70.0154,144.658,99.8511,99.2341,0.00139809,0.137274,20.8069,90.2988,0.0567989,0.0,0.0
2166,541.25,66.4059,69.7788,143.177,99.8645,99.3014,0.00132975,0.136478,20.8099,90.3689,0.0518074,0.0,0.0
2172,542.75,65.9615,69.7276,143.11,99.8588,99.1391,0.00129151,0.135655,20.8121,90.3188,0.0662791,0.0,0.0
2178,544.25,65.7066,68.6792,148.447,99.8794,99.0954,0.00132127,0.134809,20.8139,90.3088,0.0722088,0.0,0.0
2184,545.75,65.4385,68.6799,145.712,99.8701,99.1202,0.00135149,0.133857,20.8148,90.2988,0.069059,0.0,0.0
2190,547.25,64.9868,68.4133,146.025,99.877,99.0385,0.00137164,0.132683,20.8159,90.2988,0.0772508,0.0,0.0
2196,548.75,63.9081,67.348,141.391,99.8713,99.1627,0.00141382,0.13175,20.8179,90.2988,0.0652435,0.0,0.0
2202,550.25,63.8713,67.1472,148.189,99.8794,99.0697,0.00146337,0.131395,20.819,90.3188,0.0745806,0.0,0.0
2208,551.75,63.7886,66.5994,148.76,99.8734,99.1467,0.00154155,0.130495,20.8197,90.2788,0.0669102,0.0,0.0
2214,553.25,63.5125,66.4395,143.575,99.8835,99.3274,0.00158266,0.129595,20.821,90.2788,0.0511471,0.0,0.0
2220,554.75,62.9048,66.2857,148.49,99.8742,99.2405,0.00158172,0.129226,20.8219,90.1987,0.0583206,0.0,0.0
2226,556.25,63.2136,65.6843,142.679,99.879,99.107,0.00155552,0.128599,20.8227,90.1787,0.0710968,0.0,0.0
2232,557.75,62.7625,65.1426,145.838,99.8726,99.3094,0.00152106,0.128198,20.8239,90.1387,0.0518096,0.0,0.0
2238,559.25,62.1537,65.2505,144.278,99.877,99.2802,0.00153565,0.128314,20.8244,90.1487,0.0549175,0.0,0.0
2244,560.75,62.2804,65.0777,147.28,99.8806,99.1519,0.00163952,0.128432,20.8248,90.0886,0.0670956,0.0,0.0
2250,562.25,62.0051,64.0436,145.413,99.8915,99.2958,0.00180601,0.129281,20.8249,90.1087,0.0548089,0.0,0.0
2256,563.75,61.5673,64.1156,146.164,99.879,99.1082,0.00192543,0.130676,20.8239,90.0586,0.0709863,0.0,0.0
2262,565.25,61.2695,63.699,142.288,99.8936,99.1683,0.0019746,0.13165,20.8234,90.0686,0.0667638,0.0,0.0
2268,566.75,60.7016,63.8658,147.065,99.8915,99.4317,0.0019625,0.131907,20.8224,90.0286,0.0422796,0.0,0.0
2274,568.25,60.7906,63.1764,149.445,99.9008,99.3483,0.00194445,0.131214,20.8209,89.9986,0.050818,0.0,0.0
2280,569.75,60.652,63.1378,144.257,99.8972,99.317,0.00198193,0.130599,20.8202,89.9785,0.053368,0.0,0.0
2286,571.25,60.5174,62.8064,145.515,99.9037,99.1503,0.00208675,0.129699,20.8198,89.9685,0.0693571,0.0,0.0
2292,572.75,59.8551,62.6677,150.188,99.9045,99.2425,0.0021614,0.129111,20.8196,89.9385,0.0609163,0.0,0.0
2298,574.25,60.1377,62.2655,147.825,99.9033,99.3062,0.00219483,0.128291,20.8205,89.9485,0.0549218,0.0,0.0
2304,575.75,59.8925,62.0689,146.139,99.9166,99.388,0.00220762,0.127398,20.8215,89.9285,0.048604,0.0,0.0
2310,577.25,59.5768,61.6826,141.652,99.9206,99.2108,0.00225657,0.127363,20.8235,89.8985,0.0653226,0.0,0.0
2316,578.75,59.6234,61.5944,144.468,99.9315,99.2136,0.00234796,0.127655,20.8244,89.9085,0.0660633,0.0,0.0
2322,580.25,59.0166,60.6306,146.478,99.9267,99.2032,0.00241292,0.127834,20.8249,89.8684,0.0665806,0.0,0.0
2328,581.75,59.0508,61.3382,148.457,99.934,99.3307,0.00243627,0.127774,20.8244,89.8985,0.0554842,0.0,0.0
2334,583.25,58.4906,60.7873,145.043,99.9235,99.39,0.0024936,0.127481,20.8238,89.8484,0.0490494,0.0,0.0
2340,584.75,58.2988,60.4012,145.437,99.9469,99.3098,0.00258582,0.12714,20.8241,89.8785,0.058592,0.0,0.0
2346,586.25,58.8109,60.4371,144.769,99.9219,99.1222,0.00268573,0.126979,20.8248,89.7984,0.0736185,0.0,0.0
2352,587.75,58.305,60.74,147.317,99.9425,99.3976,0.00275948,0.126791,20.8251,89.8484,0.0500891,0.0,0.0
2358,589.25,58.2799,60.1254,152.841,99.9421,99.3751,0.0027971,0.126573,20.8253,89.7584,0.0521213,0.0,0.0
2364,590.75,58.2571,59.8793,144.685,99.955,99.4036,0.00279275,0.126301,20.826,89.7984,0.0506833,0.0,0.0
2370,592.25,57.9039,59.4587,144.616,99.936,99.2729,0.00278459,0.126205,20.8263,89.7183,0.0609945,0.0,0.0
2376,593.75,57.2126,59.8016,144.41,99.9602,99.2108,0.00279227,0.126042,20.8268,89.7684,0.0689528,0.0,0.0
2382,595.25,58.1506,59.117,145.69,99.9513,99.3266,0.00285114,0.125917,20.8277,89.6883,0.0574458,0.0,0.0
2388,596.75,57.4769,59.0099,141.238,99.9611,99.1848,0.00290181,0.125986,20.8284,89.7283,0.0714339,0.0,0.0
2394,598.25,57.6246,58.8721,149.604,99.9558,99.2705,0.00289596,0.126004,20.8287,89.6683,0.0630319,0.0,0.0
2400,599.75,56.9704,58.8773,143.368,99.9623,99.4485,0.00283973,0.12595,20.8289,89.6783,0.0472132,0.0,0.0
2406,601.25,57.1221,58.214,153.125,99.9542,99.1371,0.00274869,0.125518,20.829,89.6583,0.0752111,0.0,0.0
2412,602.75,56.8599,58.024,146.847,99.9619,99.325,0.00266693,0.124941,20.829,89.6483,0.0585572,0.0,0.0
2418,604.25,56.5322,57.8436,148.614,99.9643,99.1591,0.00261717,0.124997,20.829,89.5982,0.0740996,0.0,0.0
2424,605.75,56.2059,57.8677,145.277,99.974,99.4064,0.0026277,0.125466,20.8298,89.5982,0.0521659,0.0,0.0
2430,607.25,56.4185,57.8918,149.535,99.9639,99.3279,0.00273303,0.1258,20.8306,89.5382,0.0584834,0.0,0.0
2436,608.75,56.2619,57.622,141.362,99.9663,99.23,0.00289849,0.125635,20.83,89.5181,0.0677321,0.0,0.0
2442,610.25,56.0915,57.5017,144.882,99.9619,99.2834,0.00306811,0.125031,20.8296,89.5181,0.0624038,0.0,0.0
2448,611.75,56.356,57.3099,149.143,99.9728,99.2858,0.00319105,0.125097,20.8293,89.4681,0.0631816,0.0,0.0
2454,613.25,55.7962,57.0903,144.182,99.976,99.3727,0.00321413,0.12666,20.8292,89.4881,0.0554549,0.0,0.0
2460,614.75,55.1428,56.6167,146.167,99.9667,99.2958,0.0031897,0.127921,20.8289,89.4281,0.0617008,0.0,0.0
2466,616.25,55.6821,57.2,145.983,99.9764,99.5659,0.00323038,0.128639,20.8273,89.4481,0.0376958,0.0,0.0
2472,617.75,55.4464,56.8497,146.059,99.9635,99.3944,0.00334548,0.128687,20.826,89.398,0.0523114,0.0,0.0
2478,619.25,55.1258,56.3659,143.6,99.9736,99.3002,0.00345552,0.127973,20.8253,89.4281,0.0619243,0.0,0.0
2484,620.75,55.1125,56.5661,144.065,99.9627,99.4593,0.00351947,0.126963,20.8249,89.368,0.0462536,0.0,0.0
2490,622.25,55.0973,56.2093,148.989,99.9538,99.4212,0.00353952,0.126318,20.8253,89.398,0.0489462,0.0,0.0
2496,623.75,54.9055,55.9881,148.772,99.9449,99.4104,0.00355482,0.12596,20.826,89.348,0.0491287,0.0,0.0
2502,625.25,54.8048,55.7962,148.89,99.959,99.3996,0.00356615,0.125698,20.827,89.388,0.051423,0.0,0.0
2508,626.75,54.4931,56.1858,149.622,99.9412,99.3282,0.00355871,0.12538,20.828,89.318,0.0563723,0.0,0.0
2514,628.25,54.9721,55.7631,145.499,99.9493,99.5355,0.00355394,0.125121,20.8285,89.378,0.0380178,0.0,0.0
2520,629.75,54.879,55.4197,148.407,99.9315,99.3347,0.00356834,0.124674,20.8294,89.308,0.0548914,0.0,0.0
2526,631.25,55.0872,55.5541,149.375,99.9417,99.4677,0.00359081,0.124313,20.8307,89.348,0.0435516,0.0,0.0
2532,632.75,54.3835,55.2249,149.394,99.9243,99.2958,0.00359746,0.124014,20.8314,89.308,0.0578116,0.0,0.0
2538,634.25,54.2504,55.2392,147.55,99.932,99.23,0.00361311,0.123902,20.8318,89.328,0.064583,0.0,0.0
2544,635.75,54.27,55.2941,150.562,99.9146,99.4838,0.00365545,0.123998,20.8321,89.2679,0.0395916,0.0,0.0
2550,637.25,54.399,54.9501,145.9,99.9142,99.4665,0.00372357,0.124235,20.8324,89.2879,0.0411423,0.0,0.0
2556,638.75,53.3844,54.2009,146.451,99.9105,99.297,0.00380545,0.124263,20.8325,89.2179,0.0564406,0.0,0.0
2562,640.25,53.6421,54.8861,142.92,99.921,99.4409,0.00388326,0.124361,20.8326,89.2779,0.0441364,0.0,0.0
2568,641.75,53.7517,54.6316,147.905,99.8952,99.2834,0.00394257,0.125008,20.8323,89.2079,0.0562898,0.0,0.0
2574,643.25,53.5934,54.693,147.26,99.894,99.2417,0.00397621,0.125731,20.8321,89.2179,0.0600266,0.0,0.0
2580,644.75,53.2532,54.7553,147.388,99.894,99.4942,0.00399223,0.125882,20.8319,89.1879,0.0367418,0.0,0.0
2586,646.25,52.9089,53.8141,147.409,99.8734,99.3719,0.00400937,0.125577,20.8319,89.1778,0.0461167,0.0,0.0
2592,647.75,53.6136,54.4671,150.017,99.8754,99.2541,0.00401133,0.125484,20.8312,89.1678,0.0571734,0.0,0.0
2598,649.25,53.6064,54.3553,145.928,99.8721,99.2962,0.00396211,0.125617,20.8304,89.1478,0.0529934,0.0,0.0
2604,650.75,52.7958,53.3856,143.093,99.8766,99.3435,0.00384624,0.125544,20.83,89.1278,0.0490375,0.0,0.0
2610,652.25,52.8424,54.3537,141.173,99.8677,99.2946,0.00379666,0.124969,20.8298,89.0778,0.0527328,0.0,0.0
2616,653.75,53.5517,53.8687,147.663,99.8596,99.2545,0.00385462,0.124473,20.8296,89.1078,0.0556916,0.0,0.0
2622,655.25,52.9251,53.9175,152.626,99.8584,99.3006,0.00396338,0.124415,20.8307,89.0778,0.0513263,0.0,0.0
2628,656.75,52.7967,53.9882,150.821,99.8673,99.2004,0.00406799,0.124524,20.8312,89.0677,0.0613916,0.0,0.0
2634,658.25,52.8445,53.5878,150.116,99.8406,99.4397,0.00417453,0.124563,20.8315,89.0277,0.0368691,0.0,0.0
2640,659.75,52.7228,53.6077,147.671,99.8503,99.4216,0.00431993,0.124749,20.8318,89.0878,0.0394219,0.0,0.0
2646,661.25,52.8335,53.792,148.543,99.8382,99.1591,0.00446298,0.124736,20.8319,89.0177,0.0625351,0.0,0.0
2652,662.75,52.6334,53.7292,149.489,99.8523,99.2834,0.00454194,0.124548,20.8319,89.0377,0.0523592,0.0,0.0
2658,664.25,52.877,53.2015,149.291,99.8386,99.2132,0.0045478,0.124788,20.8329,88.9777,0.0575739,0.0,0.0
2664,665.75,52.4825,53.1301,146.645,99.8398,99.2906,0.00458282,0.125034,20.8336,89.0077,0.0505442,0.0,0.0
2668,666.75,52.5586,53.01,146.081,99.8487,99.1932,0.00462024,0.12514,20.8338,88.9576,0.0603521,0.0,0.0