File: 01_Data/Basswood_Panel/Cone/Basswood_Panel_Cone_HF25Scan_221212_R2.csv
Names,Time,Stack TC,Smoke TC,Exh Press,Smoke Comp,Smoke Meas,CO Meter,CO2 Meter,O2 Meter,Sample Mass,Ext Coeff,Start Test,Flame Verif
Chan Gain,,500,500,1,1,1,1,1,1,1,1,1.0,1.0
Offset,,0,0,0.136389,0,0,0,0,0,0,0,0.0,0.0
Gain,,1,1,25.011,14.2696,296.664,1,1,1,1.0009,1.04656,1.0,1.0
Units,sec,C,C,Pa,%,%,%,%,%,g,/m,,
Baseline,,22.0762,23.0146,162.403,106.693,110.286,0.000814245,0.0659424,20.9556,-443.306,-0.304026,,
9,2,20.1454,20.8922,161.195,105.654,109.158,0.000811141,0.0717928,20.9479,159.883,-0.299495,0.0,0.0
18,4.25,20.0808,21.0613,160.911,105.649,108.687,0.000723963,0.0708689,20.9488,159.793,-0.26027,0.0,0.0
27,6.5,20.4104,20.9021,158.99,105.631,109.402,0.000647148,0.0701479,20.9493,159.803,-0.322036,0.0,0.0
36,8.75,19.7774,20.8583,158.948,105.611,109.321,0.000619197,0.0691616,20.9511,159.773,-0.316937,0.0,0.0
45,11,20.1267,20.8113,159.143,105.6,108.632,0.000648761,0.0682861,20.9531,159.743,-0.259882,0.0,0.0
54,13.25,20.4208,20.9125,164.076,105.605,109.013,0.000602212,0.0674791,20.9538,159.733,-0.291544,0.0,0.0
63,15.5,20.1479,21.0207,164.415,105.601,108.578,0.000498705,0.0667517,20.9541,159.693,-0.255252,0.0,0.0
72,17.75,20.335,21.2531,164.322,105.587,108.678,0.000462633,0.0663767,20.9542,159.633,-0.26488,0.0,0.0
81,20,19.9473,21.4286,164.882,105.589,107.763,0.000551459,0.0661435,20.9543,159.653,-0.187084,0.0,0.0
90,22.25,20.1604,21.1743,164.802,105.6,108.741,0.000593159,0.0661803,20.9543,159.623,-0.269096,0.0,0.0
99,24.5,20.1132,20.8873,161.826,105.606,108.297,0.000605924,0.0659235,20.9554,159.593,-0.231,0.0,0.0
108,26.75,20.0811,21.5878,161.823,105.616,109.321,0.000752817,0.0658136,20.9571,159.533,-0.316483,0.0,0.0
117,29,20.5894,20.9855,161.973,105.617,108.37,0.000840456,0.0659176,20.9577,159.553,-0.236191,0.0,0.0
126,31.25,20.0491,20.846,158.02,105.604,108.451,0.000792959,0.0663123,20.9579,159.503,-0.244227,0.0,0.0
135,33.5,20.7192,20.9256,163.365,105.607,108.551,0.000640146,0.066514,20.9579,159.453,-0.252426,0.0,0.0
144,35.75,20.6286,20.7803,158.408,105.602,109.42,0.000551292,0.0666182,20.9579,159.443,-0.326053,0.0,0.0
153,38,20.627,20.6649,164.183,105.608,108.334,0.000518103,0.0669363,20.9579,159.463,-0.233956,0.0,0.0
162,40.25,20.1764,21.0688,161.62,105.606,108.47,0.000492831,0.0668293,20.9579,159.433,-0.245608,0.0,0.0
171,42.5,20.3703,21.4219,162.227,105.605,108.307,0.000562683,0.0665314,20.9579,159.353,-0.231919,0.0,0.0
180,44.75,20.6507,21.1166,164.331,105.631,108.687,0.000692395,0.0663786,20.9579,159.353,-0.261822,0.0,0.0
189,47,20.4791,21.3501,165.958,105.65,108.814,0.000865907,0.0663266,20.9579,159.343,-0.270819,0.0,0.0
198,49.25,20.3869,21.3688,159.946,105.623,108.515,0.000906247,0.0663231,20.9579,159.303,-0.248,0.0,0.0
207,51.5,20.5141,21.4169,162.092,105.648,108.225,0.000842064,0.0664877,20.9583,159.233,-0.221225,0.0,0.0
216,53.75,20.6367,21.4878,158.618,105.69,108.451,0.000899019,0.0667677,20.9585,159.253,-0.236772,0.0,0.0
225,56,20.6017,21.3512,162.407,105.712,108.18,0.00103471,0.0672592,20.9586,159.233,-0.211823,0.0,0.0
234,58.25,20.3496,21.4164,160.649,105.715,108.053,0.00113363,0.0672861,20.9586,159.133,-0.200834,0.0,0.0
243,60.5,20.8485,21.1778,160.634,105.764,108.008,0.00116021,0.0674615,20.9586,159.163,-0.192752,0.0,0.0
252,62.75,20.5336,21.3682,163.453,105.804,108.008,0.00107084,0.0675843,20.9586,159.123,-0.189275,0.0,0.0
261,65,20.6957,21.3041,161.742,105.832,107.111,0.00098528,0.0676038,20.9586,159.063,-0.11032,0.0,0.0
270,67.25,20.6089,21.0808,161.521,105.87,107.917,0.00095723,0.0677705,20.9586,158.972,-0.175798,0.0,0.0
279,69.5,20.4752,21.4448,160.846,105.957,107.003,0.000991881,0.0679934,20.9586,158.992,-0.0901315,0.0,0.0
288,71.75,20.5576,21.3042,164.512,105.972,108.37,0.00112449,0.0682608,20.9586,158.952,-0.205394,0.0,0.0
297,74,20.9334,21.4007,164.578,106.014,107.926,0.00129683,0.0683743,20.9583,158.822,-0.164078,0.0,0.0
306,76.25,20.4862,21.7105,165.642,106.105,107.546,0.00142357,0.0684724,20.9573,158.852,-0.123837,0.0,0.0
315,78.5,21.0454,21.9569,161.412,106.172,107.492,0.00150624,0.0688688,20.9563,158.812,-0.113436,0.0,0.0
324,80.75,20.6724,21.5873,163.998,106.239,107.953,0.00154596,0.0695364,20.9559,158.732,-0.14695,0.0,0.0
333,83,21.0236,21.8517,162.556,106.298,107.428,0.00154303,0.0697806,20.9557,158.672,-0.0971454,0.0,0.0
342,85.25,20.854,21.7703,160.272,106.35,107.981,0.00156797,0.0696701,20.9557,158.682,-0.139707,0.0,0.0
351,87.5,21.0994,21.7259,163.146,106.394,107.528,0.00157951,0.0695821,20.9556,158.622,-0.0973063,0.0,0.0
360,89.75,20.8562,21.4054,163.403,106.43,107.501,0.00165859,0.0695659,20.9556,158.472,-0.0918695,0.0,0.0
369,92,21.0241,22.2221,159.061,106.501,108.361,0.00199153,0.0704349,20.9547,158.502,-0.158943,0.0,0.0
378,94.25,21.1906,22.2081,161.177,106.542,106.659,0.00232454,0.0722396,20.953,158.452,-0.0100349,0.0,0.0
387,96.5,21.0733,21.962,153.688,106.587,114.888,0.00250416,0.0866786,20.9435,158.292,-0.688547,0.0,1.0
396,98.75,21.3473,22.5556,148.737,106.609,117.632,0.0025666,0.142987,20.8653,157.972,-0.90322,0.0,1.0
405,101,22.6552,22.9794,142.153,106.663,118.546,0.00272183,0.246869,20.7371,157.721,-0.969696,0.0,1.0
414,103.25,24.3728,24.2065,139.698,106.719,119.062,0.00297394,0.336749,20.6483,157.431,-1.00478,0.0,1.0
423,105.5,26.0345,25.8669,141.323,106.76,118.283,0.00315983,0.396984,20.5848,157.051,-0.941024,0.0,1.0
432,107.75,27.825,27.929,144.492,106.804,121.543,0.00329483,0.436088,20.5397,156.78,-1.18678,0.0,0.0
441,110,29.4463,29.4794,140.125,106.878,119.008,0.00343228,0.462111,20.5127,156.46,-0.986887,0.0,0.0
450,112.25,31.0225,31.3606,145.675,106.921,117.958,0.00361799,0.477365,20.4953,156.1,-0.901849,0.0,0.0
459,114.5,32.439,32.6985,145.171,106.953,119.026,0.0037375,0.48784,20.4832,155.73,-0.981852,0.0,0.0
468,116.75,33.7553,34.3127,143.015,106.993,118.12,0.00378232,0.495018,20.4754,155.449,-0.908356,0.0,0.0
477,119,35.2016,35.7104,142.165,107.033,119.786,0.00370963,0.499761,20.4716,155.119,-1.03345,0.0,0.0
486,121.25,36.0879,37.3733,142.403,107.039,119.995,0.00355953,0.501529,20.4695,154.729,-1.0489,0.0,0.0
495,123.5,37.4511,38.4319,138.358,107.072,121.045,0.00342131,0.500983,20.4713,154.478,-1.12606,0.0,0.0
504,125.75,38.6369,39.5527,140.512,107.099,118.51,0.00344531,0.49678,20.4762,154.148,-0.92945,0.0,0.0
513,128,39.4411,40.5916,141.029,107.131,119.596,0.00352087,0.492293,20.4799,153.798,-1.0105,0.0,0.0
522,130.25,40.271,42.1379,142.668,107.155,121.787,0.00352766,0.488586,20.4829,153.417,-1.17503,0.0,0.0
531,132.5,41.0092,43.1054,145.282,107.185,121.398,0.00342459,0.483616,20.4896,153.157,-1.14306,0.0,0.0
540,134.75,41.9797,43.4635,145.989,107.205,121.135,0.00330241,0.473486,20.5036,152.847,-1.12155,0.0,0.0
549,137,42.7132,44.3151,146.369,107.211,122.077,0.00327829,0.462061,20.5136,152.567,-1.19207,0.0,0.0
558,139.25,42.9784,45.2894,142.815,107.258,121.851,0.00324482,0.45141,20.5275,152.296,-1.17101,0.0,0.0
567,141.5,43.4938,45.8276,147.341,107.281,121.208,0.00310259,0.438165,20.542,152.026,-1.12047,0.0,0.0
576,143.75,44.0607,46.2897,145.857,107.293,121.325,0.00292186,0.42449,20.5578,151.736,-1.12841,0.0,0.0
585,146,43.7028,47.1228,148.41,107.298,123.018,0.00283001,0.412618,20.5703,151.436,-1.25515,0.0,0.0
594,148.25,44.2388,47.2278,149.135,107.312,121.289,0.00283576,0.402901,20.582,151.215,-1.124,0.0,0.0
603,150.5,44.4612,47.6511,146.285,107.316,121.905,0.00288373,0.3947,20.5909,150.955,-1.17018,0.0,0.0
612,152.75,45.152,47.7049,142.862,107.346,122.43,0.00285212,0.387424,20.5987,150.675,-1.20703,0.0,0.0
621,155,44.9926,47.9324,146.315,107.323,123.507,0.00271081,0.380839,20.6065,150.365,-1.28944,0.0,0.0
630,157.25,44.6695,48.5279,146.828,107.334,122.602,0.00249652,0.375684,20.6118,150.235,-1.221,0.0,0.0
639,159.5,45.2634,48.777,146.994,107.332,120.692,0.00221835,0.371624,20.6163,149.964,-1.07695,0.0,0.0
648,161.75,45.3667,49.0177,150.344,107.305,120.918,0.00204135,0.367701,20.6207,149.694,-1.09649,0.0,0.0
657,164,45.4914,49.3551,145.156,107.302,123.752,0.00196228,0.362578,20.6278,149.504,-1.30941,0.0,0.0
666,166.25,45.3152,48.9263,148.076,107.299,121.651,0.00197359,0.357964,20.6333,149.294,-1.15252,0.0,0.0
675,168.5,45.6156,49.4183,146.086,107.27,122.412,0.0021024,0.354702,20.6383,149.054,-1.21216,0.0,0.0
684,170.75,45.231,49.5763,150.241,107.233,122.023,0.00220333,0.35056,20.645,148.713,-1.18608,0.0,0.0
693,173,45.7342,49.4789,150.667,107.194,122.077,0.00232895,0.346655,20.6484,148.573,-1.19352,0.0,0.0
702,175.25,45.5983,49.5815,149.603,107.152,120.71,0.00249489,0.342474,20.6536,148.373,-1.09379,0.0,0.0
711,177.5,45.2669,49.6209,152.862,107.104,120.32,0.00252583,0.338436,20.658,148.133,-1.06821,0.0,0.0
720,179.75,45.3205,50.0412,147.825,107.071,121.153,0.00253671,0.335233,20.6612,147.913,-1.13437,0.0,0.0
729,182,45.2025,49.7268,143.67,107.013,122.095,0.00247517,0.332833,20.664,147.712,-1.21045,0.0,0.0
738,184.25,45.4545,49.9454,148.217,106.953,122.249,0.00231275,0.330346,20.6674,147.482,-1.22713,0.0,0.0
747,186.5,45.2596,49.6004,147.705,106.874,121.407,0.00217021,0.326682,20.6724,147.172,-1.17046,0.0,0.0
756,188.75,45.0724,49.6741,149.28,106.811,120.818,0.0021048,0.323067,20.6768,147.062,-1.13127,0.0,0.0
765,191,44.8962,49.6479,149.433,106.741,120.837,0.00208124,0.318784,20.681,146.852,-1.13864,0.0,0.0
774,193.25,44.6719,49.5631,152.398,106.649,121.606,0.00206844,0.315018,20.6848,146.621,-1.20483,0.0,0.0
783,195.5,44.6159,50.015,149.073,106.585,121.851,0.00202482,0.311558,20.6879,146.361,-1.22885,0.0,0.0
792,197.75,45.1806,49.2299,148.761,106.519,121.135,0.00198533,0.307886,20.6912,146.211,-1.18047,0.0,0.0
801,200,44.7657,49.3507,151.027,106.463,122.457,0.00190884,0.304639,20.6951,146.021,-1.28491,0.0,0.0
810,202.25,44.7021,49.1527,149.706,106.401,120.945,0.0018966,0.302078,20.6976,145.731,-1.17623,0.0,0.0
819,204.5,44.6113,49.3566,145.969,106.518,121.217,0.00191246,0.301716,20.6978,145.63,-1.18668,0.0,0.0
828,206.75,44.4647,49.3643,149.682,106.646,120.909,0.00192923,0.301577,20.6973,145.4,-1.15231,0.0,0.0
837,209,44.7295,48.952,149.679,106.755,120.447,0.00201564,0.300879,20.6983,145.2,-1.10782,0.0,0.0
846,211.25,44.5083,48.9121,153.549,106.826,119.85,0.0020216,0.299155,20.7013,144.95,-1.0561,0.0,0.0
855,213.5,44.5229,48.7935,147.35,106.894,120.266,0.00190126,0.297377,20.7021,144.81,-1.08211,0.0,0.0
864,215.75,44.3392,48.8768,147.812,106.934,121.072,0.00171116,0.29567,20.7038,144.59,-1.13997,0.0,0.0
873,218,44.3205,48.4585,144.891,106.932,122.186,0.00160056,0.294557,20.7049,144.359,-1.22413,0.0,0.0
882,220.25,44.4745,48.1916,153.333,106.929,121.371,0.00158987,0.293074,20.7063,144.239,-1.16304,0.0,0.0
891,222.5,44.3789,48.342,154.11,106.913,120.465,0.00166089,0.292187,20.7069,144.029,-1.09565,0.0,0.0
900,224.75,43.8688,48.3305,147.687,106.846,121.905,0.00181211,0.291586,20.7073,143.789,-1.21043,0.0,0.0
909,227,43.722,48.3713,149.764,106.775,120.212,0.00207518,0.290222,20.7087,143.549,-1.08814,0.0,0.0
918,229.25,43.5586,48.4853,145.976,106.675,121.217,0.00230557,0.289876,20.7092,143.439,-1.17322,0.0,0.0
927,231.5,43.942,48.0457,150.425,106.548,121.959,0.00240156,0.29013,20.7094,143.268,-1.24014,0.0,0.0
936,233.75,43.5564,48.1722,144.712,106.436,122.24,0.00235921,0.289379,20.7105,142.988,-1.27097,0.0,0.0
945,236,43.7825,47.5175,147.587,106.261,120.619,0.00215708,0.287725,20.7127,142.838,-1.16348,0.0,0.0
954,238.25,43.1846,48.3481,148.31,106.11,120.357,0.00205032,0.285602,20.715,142.668,-1.15654,0.0,0.0
963,240.5,43.5995,47.9708,147.804,106.004,119.705,0.00213829,0.283736,20.7165,142.498,-1.11592,0.0,0.0
972,242.75,42.9839,48.2696,151.006,106.036,121.126,0.00228242,0.282659,20.7192,142.207,-1.22146,0.0,0.0
981,245,43.4207,47.763,150.11,106.08,119.442,0.00234483,0.280687,20.7224,142.107,-1.08913,0.0,0.0
990,247.25,43.7738,47.1284,146.341,106.122,118.781,0.002238,0.279081,20.724,141.957,-1.03461,0.0,0.0
999,249.5,43.2354,47.282,148.651,106.167,120.782,0.00212485,0.277662,20.7246,141.747,-1.18405,0.0,0.0
1008,251.75,43.1389,47.3073,147.979,106.207,119.46,0.00205769,0.277168,20.7248,141.537,-1.0796,0.0,0.0
1017,254,42.9185,47.3425,149.99,106.271,119.976,0.00195902,0.277586,20.7245,141.387,-1.1136,0.0,0.0
1026,256.25,43.0116,47.4871,150.342,106.325,121.986,0.00192156,0.277603,20.7244,141.207,-1.26146,0.0,0.0
1035,258.5,42.8175,47.015,154.832,106.342,121.841,0.0020391,0.277785,20.725,140.936,-1.24908,0.0,0.0
1044,260.75,42.5979,46.9678,146.335,106.409,122.566,0.00209121,0.277291,20.7257,140.806,-1.2977,0.0,0.0
1053,263,42.9489,46.6078,151.057,106.468,121.887,0.00213617,0.276864,20.727,140.636,-1.2416,0.0,0.0
1062,265.25,42.9478,46.7611,145.557,106.528,120.782,0.00221757,0.275844,20.7275,140.456,-1.15288,0.0,0.0
1071,267.5,42.1405,47.0603,150.371,106.547,121.054,0.00221655,0.275153,20.7276,140.166,-1.17189,0.0,0.0
1080,269.75,42.3861,46.6014,151.799,106.595,121.09,0.00215269,0.275739,20.7277,140.076,-1.17051,0.0,0.0
1089,272,43.2013,46.6226,151.136,106.619,120.302,0.00208342,0.275823,20.7277,139.875,-1.10846,0.0,0.0
1098,274.25,42.6843,46.4658,150.028,106.627,122.484,0.00212716,0.275422,20.7277,139.625,-1.2728,0.0,0.0
1107,276.5,42.7391,46.5782,149.983,106.624,119.469,0.00223137,0.27547,20.7277,139.525,-1.04431,0.0,0.0
1116,278.75,42.5044,46.3517,146.469,106.61,121.389,0.00224914,0.274619,20.7286,139.335,-1.19182,0.0,0.0
1125,281,42.0117,46.6789,149.773,106.582,121.362,0.00226299,0.273718,20.7291,139.145,-1.19213,0.0,0.0
1134,283.25,42.3898,46.5711,149.631,106.534,120.13,0.0023221,0.273097,20.7293,138.894,-1.10272,0.0,0.0
1143,285.5,42.3959,46.2124,147.813,106.506,121.054,0.00249948,0.272731,20.7294,138.774,-1.17538,0.0,0.0
1152,287.75,42.1658,46.7406,151.707,106.469,120.456,0.0026328,0.272896,20.7294,138.604,-1.13315,0.0,0.0
1161,290,42.1764,46.3212,151.045,106.39,120.637,0.00266168,0.272107,20.7294,138.324,-1.15377,0.0,0.0
1170,292.25,42.0534,46.2758,147.465,106.317,121.606,0.00247872,0.271734,20.7294,138.224,-1.23351,0.0,0.0
1179,294.5,42.4403,45.8029,146.898,106.224,120.067,0.00222142,0.270746,20.7294,138.044,-1.12463,0.0,0.0
1188,296.75,41.8285,46.6492,148.798,106.126,120.13,0.00209625,0.269385,20.7306,137.884,-1.13794,0.0,0.0
1197,299,42.3385,45.6598,151.672,106.039,120.945,0.00195459,0.26845,20.7313,137.613,-1.20746,0.0,0.0
1206,301.25,42.1799,45.7552,145.88,105.947,119.895,0.00193732,0.268818,20.7316,137.533,-1.13543,0.0,0.0
1215,303.5,42.0706,45.6166,146.01,105.857,120.04,0.00211688,0.269268,20.7321,137.363,-1.15426,0.0,0.0
1224,305.75,42.0183,45.953,147.327,105.765,119.56,0.00223543,0.269428,20.7323,137.133,-1.1255,0.0,0.0
1233,308,41.5605,45.8231,151.636,105.691,120.393,0.00226038,0.269349,20.7323,136.983,-1.19566,0.0,0.0
1242,310.25,41.8398,45.6268,155.833,105.629,118.763,0.00220002,0.268708,20.7324,136.823,-1.07592,0.0,0.0
1251,312.5,42.3073,45.4136,148.826,105.547,119.089,0.00213759,0.268685,20.7324,136.632,-1.10824,0.0,0.0
1260,314.75,41.9756,45.5768,152.011,105.459,119.107,0.00214548,0.268493,20.7328,136.392,-1.11725,0.0,0.0
1269,317,41.8516,45.192,153.078,105.421,119.75,0.00214074,0.267655,20.734,136.302,-1.17,0.0,0.0
1278,319.25,42.3591,45.2205,155.158,105.379,118.7,0.00207277,0.266721,20.7344,136.122,-1.09281,0.0,0.0
1287,321.5,41.7381,45.3816,149.404,105.316,118.084,0.00203558,0.266095,20.735,135.922,-1.0505,0.0,0.0
1296,323.75,42.0777,44.815,149.757,105.296,120.701,0.00212736,0.264686,20.7363,135.732,-1.25344,0.0,0.0
1305,326,41.6443,45.2047,153.64,105.254,119.705,0.00241702,0.263379,20.7371,135.591,-1.1811,0.0,0.0
1314,328.25,42.1218,45.2329,151.803,105.248,119.877,0.00256397,0.262485,20.7391,135.431,-1.19481,0.0,0.0
1323,330.5,41.448,44.813,156.018,105.223,120.103,0.00237443,0.261005,20.7405,135.181,-1.21429,0.0,0.0
1332,332.75,41.4753,44.9682,149.973,105.259,120.646,0.00214707,0.260856,20.7411,135.101,-1.25253,0.0,0.0
1341,335,41.3936,45.0826,156.503,105.288,118.528,0.00215131,0.260707,20.7413,134.901,-1.08743,0.0,0.0
1350,337.25,41.7533,44.9679,151.399,105.34,120.827,0.00224928,0.260894,20.7418,134.751,-1.25924,0.0,0.0
1359,339.5,41.4339,44.9016,151.062,105.385,119.786,0.00223166,0.259919,20.7421,134.501,-1.17588,0.0,0.0
1368,341.75,41.2857,44.6366,151.256,105.475,120.42,0.00230215,0.259247,20.7422,134.4,-1.21655,0.0,0.0
1377,344,41.8326,44.5512,149.238,105.565,120.049,0.00240185,0.259201,20.7423,134.2,-1.18036,0.0,0.0
1386,346.25,41.3815,44.7321,152.371,105.649,119.343,0.00241391,0.258658,20.7442,134.02,-1.11886,0.0,0.0
1395,348.5,41.4052,44.5687,148.764,105.784,119.614,0.00232606,0.257266,20.7462,133.87,-1.12804,0.0,0.0
1404,350.75,41.4437,44.4497,149.735,105.912,119.18,0.00223989,0.257118,20.7471,133.7,-1.08349,0.0,0.0
1413,353,41.2246,44.4806,151.901,106.038,121.054,0.00227663,0.257092,20.7474,133.51,-1.21586,0.0,0.0
1422,355.25,40.8373,44.8991,147.352,106.166,121.986,0.00236448,0.257356,20.7469,133.299,-1.27519,0.0,0.0
1431,357.5,41.096,44.2424,150.712,106.312,120.348,0.00244922,0.257558,20.7462,133.209,-1.13843,0.0,0.0
1440,359.75,41.2071,44.1691,156.626,106.465,120.719,0.00238241,0.25678,20.7471,133.029,-1.15351,0.0,0.0
1449,362,41.1599,43.9319,149.061,106.604,120.601,0.00222056,0.25578,20.7488,132.839,-1.13258,0.0,0.0
1458,364.25,40.3321,44.2218,154.186,106.747,120.945,0.00214946,0.255103,20.7506,132.629,-1.1464,0.0,0.0
1467,366.5,40.4656,43.8855,149.329,106.861,121.262,0.00226625,0.254102,20.7516,132.549,-1.16062,0.0,0.0
1476,368.75,41.1966,44.0473,152.731,106.986,120.701,0.00245926,0.253934,20.752,132.359,-1.10733,0.0,0.0
1485,371,41.0701,44.1008,151.336,107.068,121.371,0.00250868,0.253936,20.7514,132.098,-1.15109,0.0,0.0
1494,373.25,41.1551,43.7162,150.206,107.15,121.425,0.00248647,0.253276,20.7514,132.008,-1.14818,0.0,0.0
1503,375.5,40.9132,44.1952,152.186,107.243,122.24,0.00244809,0.251773,20.7527,131.838,-1.20163,0.0,0.0
1512,377.75,40.993,44.1501,152.009,107.283,121.977,0.0023487,0.251972,20.7535,131.668,-1.17846,0.0,0.0
1521,380,40.4156,43.9798,154.939,107.316,122.674,0.0022741,0.252148,20.7533,131.468,-1.22795,0.0,0.0
1530,382.25,41.2321,44.0233,151.341,107.344,122.837,0.00217437,0.252347,20.7523,131.348,-1.23775,0.0,0.0
1539,384.5,40.7135,44.1016,150.554,107.345,121.751,0.00199146,0.251809,20.7519,131.178,-1.15609,0.0,0.0
1548,386.75,41.0573,44.281,149.947,107.307,122.475,0.00191575,0.250804,20.7531,130.947,-1.21378,0.0,0.0
1557,389,40.6684,43.4192,147.777,107.275,121.742,0.00197888,0.250509,20.7536,130.857,-1.1614,0.0,0.0
1566,391.25,40.9717,43.8823,149.481,107.219,121.688,0.00214149,0.250691,20.7538,130.667,-1.16211,0.0,0.0
1575,393.5,40.8464,43.836,151.707,107.146,121.153,0.00223053,0.250781,20.7539,130.507,-1.12792,0.0,0.0
1584,395.75,41.0638,43.7276,150.456,107.036,121.624,0.0022436,0.250019,20.7559,130.257,-1.173,0.0,0.0
1593,398,40.3456,44.115,153.061,106.975,120.357,0.00232765,0.248942,20.757,130.177,-1.08202,0.0,0.0
1602,400.25,40.2766,43.8735,152.071,106.851,122.502,0.00244499,0.248254,20.7576,130.006,-1.25486,0.0,0.0
1611,402.5,41.1235,43.5865,149.929,106.743,120.601,0.00234831,0.248743,20.7578,129.766,-1.12059,0.0,0.0
1620,404.75,39.7751,43.6365,152.999,106.632,121.108,0.00222727,0.248845,20.7588,129.646,-1.16866,0.0,0.0
1629,407,40.7793,43.3322,155.009,106.552,119.678,0.00224751,0.248207,20.7597,129.496,-1.06648,0.0,0.0
1638,409.25,40.2087,43.8492,156.841,106.482,120.429,0.00219852,0.247532,20.76,129.336,-1.12999,0.0,0.0
1647,411.5,40.2143,43.4582,150.702,106.425,119.75,0.00213263,0.246919,20.7597,129.076,-1.08296,0.0,0.0
1656,413.75,40.4292,43.6873,158.676,106.616,121.018,0.00220277,0.247494,20.7582,129.016,-1.16318,0.0,0.0
1665,416,40.328,43.197,153.549,106.753,119.958,0.00237367,0.24787,20.7578,128.825,-1.07071,0.0,0.0
1674,418.25,40.283,43.6039,153.565,106.851,119.813,0.00257538,0.24722,20.7591,128.655,-1.05119,0.0,0.0
1683,420.5,40.3879,43.236,154.158,106.929,120.511,0.00275851,0.24647,20.76,128.505,-1.09776,0.0,0.0
1692,422.75,40.1098,43.5159,152.653,106.969,120.655,0.00275885,0.247387,20.7607,128.305,-1.10527,0.0,0.0
1701,425,39.9464,43.7364,155.789,106.981,120.393,0.00254207,0.248627,20.7595,128.155,-1.08426,0.0,0.0
1710,427.25,40.5491,43.2958,149.268,106.933,120.71,0.00230671,0.248953,20.7591,127.945,-1.11254,0.0,0.0
1719,429.5,40.2293,42.9664,148.954,106.894,121.162,0.00216908,0.249578,20.7589,127.845,-1.15027,0.0,0.0
1728,431.75,40.3445,43.3591,149.035,106.801,120.556,0.00210769,0.249506,20.7574,127.664,-1.1122,0.0,0.0
1737,434,40.8165,43.6858,151.779,106.676,120.483,0.00217606,0.249803,20.7568,127.484,-1.11743,0.0,0.0
1746,436.25,39.5925,43.5485,150.073,106.517,120.465,0.00227325,0.25072,20.7552,127.264,-1.12967,0.0,0.0
1755,438.5,40.0359,43.4066,148.354,106.345,122.665,0.00211293,0.250914,20.7545,127.164,-1.31069,0.0,0.0
1764,440.75,40.2246,43.467,153.635,106.124,119.813,0.00194931,0.251325,20.7544,126.994,-1.11385,0.0,0.0
1773,443,40.2395,43.5977,149.236,106.047,120.574,0.00201326,0.251438,20.7549,126.744,-1.17857,0.0,0.0
1782,445.25,41.108,43.5265,153.335,106.078,120.357,0.00222764,0.251612,20.7552,126.653,-1.15937,0.0,0.0
1791,447.5,40.3758,42.6099,147.382,106.121,120.882,0.00234539,0.252061,20.7554,126.493,-1.19561,0.0,0.0
1800,449.75,40.906,43.3829,151.341,106.174,119.587,0.00242125,0.252532,20.7554,126.343,-1.09212,0.0,0.0
1809,452,39.6273,43.6619,149.534,106.237,120.32,0.00234563,0.252372,20.7553,126.063,-1.14282,0.0,0.0
1818,454.25,41.1362,43.314,150.857,106.313,118.854,0.00209026,0.252119,20.7549,125.983,-1.02369,0.0,0.0
1827,456.5,40.6745,43.1162,156.811,106.345,120.683,0.00190707,0.251811,20.7558,125.843,-1.16112,0.0,0.0
1836,458.75,40.8074,43.4242,149.148,106.383,120.094,0.00195047,0.251802,20.7565,125.663,-1.1129,0.0,0.0
1845,461,40.3428,43.2831,152.285,106.422,119.949,0.0019682,0.251973,20.7556,125.492,-1.09848,0.0,0.0
1854,463.25,40.4124,43.4076,151.711,106.51,120.52,0.00195907,0.252758,20.755,125.332,-1.13444,0.0,0.0
1863,465.5,40.5252,43.5543,147.214,106.556,121.624,0.00191522,0.253347,20.7541,125.182,-1.21422,0.0,0.0
1872,467.75,40.5461,43.3387,151.235,106.578,120.972,0.00188645,0.254457,20.7523,124.902,-1.16297,0.0,0.0
1881,470,40.7213,43.3843,149.542,106.606,121.651,0.00181427,0.254813,20.7515,124.832,-1.21199,0.0,0.0
1890,472.25,40.2719,43.3874,151.341,106.617,119.886,0.00181628,0.254443,20.7512,124.642,-1.07681,0.0,0.0
1899,474.5,39.9454,43.242,151.408,106.591,122.077,0.00189739,0.253895,20.751,124.442,-1.24528,0.0,0.0
1908,476.75,39.9369,43.8769,151.57,106.576,121.407,0.0020303,0.253744,20.751,124.261,-1.19608,0.0,0.0
1917,479,40.5919,43.114,150.963,106.544,121.733,0.00207982,0.254468,20.751,124.121,-1.22343,0.0,0.0
1926,481.25,40.2799,43.3689,152.208,106.484,122.131,0.00211302,0.254456,20.7507,123.991,-1.2586,0.0,0.0
1935,483.5,40.6935,43.0162,158.055,106.409,121.615,0.0021503,0.255749,20.7495,123.721,-1.22623,0.0,0.0
1944,485.75,41.0579,43.4572,149.29,106.342,121.172,0.00215555,0.25685,20.7475,123.631,-1.19846,0.0,0.0
1953,488,40.7342,43.1996,151.329,106.25,119.813,0.00215648,0.256874,20.7478,123.461,-1.10297,0.0,0.0
1962,490.25,40.6695,43.1766,150.475,106.15,120.474,0.00220484,0.256866,20.7473,123.3,-1.16209,0.0,0.0
1971,492.5,40.6476,43.3539,151.124,106.045,119.596,0.00216791,0.257592,20.7465,123.09,-1.10401,0.0,0.0
1980,494.75,40.8823,43.386,151.558,105.937,120.438,0.00208231,0.257538,20.7461,122.97,-1.17773,0.0,0.0
1989,497,40.9307,43.5501,151.014,105.839,120.284,0.0019782,0.257468,20.7466,122.79,-1.17456,0.0,0.0
1998,499.25,40.8532,43.3897,147.755,105.715,120.076,0.00187373,0.257406,20.7462,122.55,-1.16935,0.0,0.0
2007,501.5,41.1259,43.5265,150.803,105.629,119.777,0.00187586,0.257841,20.746,122.45,-1.15397,0.0,0.0
2016,503.75,40.754,43.573,154.54,105.542,119.623,0.00192571,0.257935,20.746,122.3,-1.14977,0.0,0.0
2025,506,40.5563,43.4883,147.539,105.45,120.529,0.00192053,0.258119,20.746,122.129,-1.22699,0.0,0.0
2034,508.25,40.8946,43.642,150.866,105.365,119.641,0.0018153,0.258447,20.7447,121.839,-1.16652,0.0,0.0
2043,510.5,40.6001,43.4075,152.225,105.336,119.406,0.00186827,0.259805,20.7436,121.789,-1.15098,0.0,0.0
2052,512.75,41.0554,43.4339,152.814,105.265,119.27,0.0019366,0.260502,20.7423,121.619,-1.14668,0.0,0.0
2061,515,40.6318,43.6621,151.594,105.221,121.995,0.0018815,0.2614,20.7415,121.359,-1.35799,0.0,0.0
2070,517.25,40.5737,43.6487,150.609,105.203,118.99,0.00183355,0.262299,20.7399,121.269,-1.13049,0.0,0.0
2079,519.5,41.056,42.9931,152.964,105.211,119.895,0.00187056,0.26249,20.7391,121.109,-1.19943,0.0,0.0
2088,521.75,40.8603,43.4888,146.086,105.244,120.637,0.00185855,0.263352,20.7375,120.958,-1.25317,0.0,0.0
2097,524,40.8681,43.6155,149.944,105.25,120.818,0.00178849,0.264206,20.737,120.708,-1.26641,0.0,0.0
2106,526.25,41.1432,43.5051,148.905,105.314,119.605,0.00173231,0.264003,20.7368,120.648,-1.16818,0.0,0.0
2115,528.5,40.7178,43.4447,152.903,105.378,119.868,0.00173131,0.263582,20.7382,120.478,-1.18277,0.0,0.0
2124,530.75,41.1203,43.5447,154.965,105.454,119.931,0.00164784,0.263306,20.7391,120.318,-1.18102,0.0,0.0
2133,533,41.034,43.3575,148.113,105.555,119.868,0.00153337,0.264168,20.7382,120.108,-1.16734,0.0,0.0
2142,535.25,40.999,43.6288,147.677,105.672,120.167,0.0015221,0.264947,20.7364,119.937,-1.18001,0.0,0.0
2151,537.5,40.8679,43.5825,152.476,105.796,120.547,0.00155807,0.265324,20.7355,119.777,-1.19828,0.0,0.0
2160,539.75,40.7174,43.6658,149.154,105.913,120.746,0.00163892,0.265436,20.7361,119.557,-1.20327,0.0,0.0
2169,542,40.8702,43.677,150.892,106.087,120.99,0.00177428,0.265446,20.7351,119.497,-1.20675,0.0,0.0
2178,544.25,41.2187,43.7321,150.931,106.198,120.61,0.00179197,0.266539,20.7332,119.327,-1.16825,0.0,0.0
2187,546.5,41.0848,43.6668,149.055,106.336,120.284,0.00171185,0.268293,20.7323,119.117,-1.13152,0.0,0.0
2196,548.75,41.1947,43.8549,150.291,106.473,121.597,0.00170366,0.269,20.7308,118.856,-1.2193,0.0,0.0
2205,551,41.0265,43.7928,153.702,106.626,121.579,0.00171375,0.269753,20.7288,118.746,-1.2048,0.0,0.0
2214,553.25,41.4938,43.6026,147.085,106.774,123.408,0.00172164,0.270864,20.7278,118.596,-1.32916,0.0,0.0
2223,555.5,41.4371,43.9069,148.896,106.872,120.683,0.00170224,0.270889,20.7275,118.326,-1.11571,0.0,0.0
2232,557.75,41.0561,43.7749,150.39,106.992,122.982,0.00177939,0.271495,20.7276,118.246,-1.27871,0.0,0.0
2241,560,41.5871,43.6957,147.72,107.094,122.901,0.00190116,0.272128,20.7264,118.086,-1.26381,0.0,0.0
2250,562.25,41.4124,43.9714,150.096,107.155,123.055,0.0018255,0.272185,20.726,117.916,-1.27015,0.0,0.0
2259,564.5,41.3871,44.3189,147.549,107.233,122.023,0.00167318,0.272737,20.7258,117.695,-1.18612,0.0,0.0
2268,566.75,41.5929,44.0892,148.261,107.279,123.245,0.00162092,0.274062,20.7245,117.585,-1.27366,0.0,0.0
2277,569,41.4847,44.3673,150.432,107.3,122.502,0.00172889,0.275637,20.7236,117.425,-1.21637,0.0,0.0
2286,571.25,41.8782,43.9492,150.093,107.304,122.656,0.00184333,0.277276,20.7209,117.145,-1.2276,0.0,0.0
2295,573.5,41.3036,44.4406,151.987,107.324,122.348,0.00190588,0.278981,20.7196,117.075,-1.20282,0.0,0.0
2304,575.75,41.4967,44.2931,146.662,107.316,122.982,0.00194829,0.280107,20.718,116.885,-1.25092,0.0,0.0
2313,578,41.7879,44.5243,148.007,107.312,122.738,0.00202363,0.281352,20.717,116.715,-1.23299,0.0,0.0
2322,580.25,41.8257,44.5263,154.27,107.276,123.706,0.00204,0.28264,20.7158,116.474,-1.30825,0.0,0.0
2331,582.5,42.0218,44.5528,145.369,107.244,124.014,0.00197565,0.283327,20.7148,116.354,-1.33383,0.0,0.0
2340,584.75,42.3513,44.4526,152.797,107.198,122.204,0.00178362,0.283884,20.7144,116.194,-1.20271,0.0,0.0
2349,587,41.9433,44.5531,146.471,107.119,123.444,0.00173216,0.284222,20.7142,115.984,-1.30221,0.0,0.0
2358,589.25,42.0363,44.879,153.038,107.061,124.232,0.00179216,0.286209,20.7129,115.844,-1.36553,0.0,0.0
2367,591.5,41.7479,44.7412,147.146,106.993,124.014,0.00176767,0.288309,20.711,115.674,-1.35536,0.0,0.0
2376,593.75,42.6345,44.863,149,106.904,122.176,0.00166851,0.289624,20.7091,115.493,-1.22588,0.0,0.0
2385,596,42.3258,45.0195,153.389,106.825,122.774,0.00159198,0.290078,20.7071,115.203,-1.27744,0.0,0.0
2394,598.25,42.0757,45.3709,148.621,106.75,122.53,0.00154867,0.29158,20.7043,115.113,-1.26566,0.0,0.0
2403,600.5,42.679,45.0781,145.868,106.682,123.752,0.00150277,0.29363,20.7032,114.953,-1.36258,0.0,0.0
2412,602.75,42.6354,45.1592,146.585,106.598,123.19,0.00146133,0.295761,20.7014,114.733,-1.32805,0.0,0.0
2421,605,42.6098,45.2954,147.657,106.54,124.512,0.00146347,0.297184,20.7002,114.493,-1.43109,0.0,0.0
2430,607.25,42.7051,45.4661,149.654,106.498,123.924,0.00168508,0.298105,20.6998,114.372,-1.39116,0.0,0.0
2439,609.5,43.1426,45.744,151.132,106.44,122.792,0.00176369,0.299387,20.698,114.182,-1.31197,0.0,0.0
2448,611.75,42.9945,45.519,147.958,106.49,123.516,0.00169242,0.300668,20.6961,113.922,-1.36165,0.0,0.0
2457,614,43.4868,45.6559,147.633,106.608,123.236,0.00169194,0.301523,20.6953,113.832,-1.33056,0.0,0.0
2466,616.25,43.3554,46.1269,149.322,106.723,123.507,0.00170948,0.302851,20.6946,113.622,-1.34091,0.0,0.0
2475,618.5,43.4809,45.9571,148.456,106.791,122.865,0.00166478,0.304579,20.6927,113.462,-1.28713,0.0,0.0
2484,620.75,43.6136,46.2511,148.649,106.845,122.738,0.00158832,0.30646,20.6899,113.261,-1.27309,0.0,0.0
2493,623,43.4293,46.263,151.659,106.889,122.584,0.00165084,0.307725,20.6881,113.051,-1.25771,0.0,0.0
2502,625.25,43.4216,46.7281,144.918,106.937,124.032,0.00177213,0.30852,20.6878,112.911,-1.36149,0.0,0.0
2511,627.5,44.0021,46.5899,146.366,106.968,125.191,0.00176735,0.309607,20.6865,112.621,-1.44417,0.0,0.0
2520,629.75,43.7593,46.7464,145.067,106.985,124.322,0.00171373,0.311339,20.6845,112.481,-1.37875,0.0,0.0
2529,632,43.8611,46.9339,143.928,106.99,124.548,0.00171954,0.313135,20.684,112.291,-1.395,0.0,0.0
2538,634.25,43.4653,47.2903,148.67,106.999,124.322,0.00169534,0.314526,20.6827,112.12,-1.3776,0.0,0.0
2547,636.5,44.099,46.9475,145.178,106.964,124.331,0.00169105,0.31622,20.6801,111.86,-1.38122,0.0,0.0
2556,638.75,44.2223,47.026,149.654,106.927,122.828,0.00179842,0.317822,20.6783,111.74,-1.27275,0.0,0.0
2565,641,44.8332,46.6739,146.538,106.884,124.331,0.00197684,0.319584,20.6755,111.54,-1.38813,0.0,0.0
2574,643.25,44.4237,47.1601,145.263,106.819,125.309,0.00219051,0.322027,20.6712,111.25,-1.46562,0.0,0.0
2583,645.5,44.3491,47.3748,143.342,106.751,124.558,0.00233347,0.325378,20.6674,111.13,-1.41625,0.0,0.0
2592,647.75,44.7848,47.3753,143.873,106.683,124.829,0.00235218,0.327979,20.6654,110.939,-1.44205,0.0,0.0
2601,650,44.8186,47.8329,151.773,106.584,123.254,0.00229724,0.330204,20.6629,110.739,-1.33404,0.0,0.0
2610,652.25,45.0774,47.7267,146.03,106.471,125.771,0.00209939,0.331276,20.662,110.469,-1.52934,0.0,0.0
2619,654.5,45.1431,47.8975,143.989,106.359,123.571,0.00194245,0.332482,20.6612,110.339,-1.37695,0.0,0.0
2628,656.75,45.5525,47.8366,146.004,106.224,123.815,0.00196567,0.335438,20.6571,110.119,-1.40683,0.0,0.0
2637,659,45.638,48.3499,144.208,106.068,123.127,0.00208002,0.339221,20.6529,109.918,-1.36912,0.0,0.0
2646,661.25,45.5079,48.6686,144.635,106.085,124.684,0.00213491,0.342213,20.6498,109.678,-1.48306,0.0,0.0
2655,663.5,45.8831,48.6937,146.541,106.102,124.005,0.00209835,0.344116,20.6474,109.448,-1.43138,0.0,0.0
2664,665.75,45.579,49.3656,146.989,106.12,121.054,0.0020814,0.345335,20.6457,109.248,-1.2087,0.0,0.0
2673,668,46.0724,49.2896,143.792,106.143,125.2,0.00207901,0.347629,20.6413,108.918,-1.51593,0.0,0.0
2682,670.25,46.2877,49.3505,146.497,106.179,123.815,0.00209617,0.350437,20.6379,108.818,-1.41067,0.0,0.0
2691,672.5,46.6164,49.017,149.739,106.197,124.44,0.00208205,0.351952,20.6356,108.567,-1.45529,0.0,0.0
2700,674.75,46.465,49.2476,144.886,106.22,123.869,0.00211327,0.351908,20.6344,108.347,-1.41112,0.0,0.0
2709,677,46.8848,49.9671,148.861,106.266,122.819,0.00223572,0.354325,20.6313,108.087,-1.32904,0.0,0.0
2718,679.25,46.7377,49.8158,144.51,106.318,122.412,0.00235794,0.358396,20.628,107.957,-1.29399,0.0,0.0
2727,681.5,46.8521,49.9905,144.989,106.357,123.607,0.00235911,0.363047,20.6224,107.696,-1.37987,0.0,0.0
2736,683.75,47.5273,50.2474,148.798,106.362,124.576,0.00230296,0.366099,20.6193,107.376,-1.45112,0.0,0.0
2745,686,47.8668,50.0096,147.42,106.42,123.471,0.0024157,0.366719,20.6182,107.266,-1.36433,0.0,0.0
2754,688.25,47.8278,50.636,144.45,106.442,123.761,0.00256858,0.368211,20.6165,107.016,-1.38396,0.0,0.0
2763,690.5,47.6436,51.2,141.768,106.467,124.241,0.00272995,0.370131,20.6143,106.796,-1.41727,0.0,0.0
2772,692.75,48.106,51.094,142.036,106.494,124.286,0.00263534,0.371722,20.6134,106.485,-1.41836,0.0,0.0
2781,695,48.0401,51.371,146.665,106.535,124.232,0.00227135,0.373484,20.6119,106.335,-1.41075,0.0,0.0
2790,697.25,48.6227,51.8282,149.709,106.556,124.15,0.00220056,0.374813,20.6098,106.125,-1.40292,0.0,0.0
2799,699.5,48.4923,51.8651,145.887,106.565,123.706,0.00234487,0.37729,20.6071,105.815,-1.36931,0.0,0.0
2808,701.75,48.6157,51.9867,143.411,106.575,126.866,0.00236036,0.380601,20.6036,105.605,-1.59998,0.0,0.0
2817,704,48.7372,52.0223,145.614,106.591,124.467,0.00229455,0.382616,20.6003,105.374,-1.42333,0.0,0.0
2826,706.25,48.6847,52.5354,144.177,106.576,124.603,0.00226732,0.384747,20.5979,105.094,-1.43465,0.0,0.0
2835,708.5,49.4538,52.4273,147.12,106.553,123.027,0.00220485,0.387003,20.5947,104.764,-1.31983,0.0,0.0
2844,710.75,49.5236,52.5575,145.658,106.554,124.15,0.00222987,0.388671,20.5919,104.614,-1.40315,0.0,0.0
2853,713,49.1985,53.4552,145.634,106.509,124.548,0.00240741,0.390261,20.5896,104.394,-1.43642,0.0,0.0
2862,715.25,49.6566,52.9869,145.901,106.461,122.439,0.00253331,0.393167,20.5858,104.063,-1.28374,0.0,0.0
2871,717.5,50.0963,53.0642,142.535,106.43,124.838,0.00264014,0.394639,20.5836,103.853,-1.46455,0.0,0.0
2880,719.75,50.354,53.1207,143.756,106.384,124.385,0.00279388,0.395367,20.5812,103.653,-1.43518,0.0,0.0
2889,722,50.1977,53.4782,144.088,106.353,124.666,0.00291136,0.398169,20.5776,103.413,-1.45854,0.0,0.0
2898,724.25,50.6062,53.7103,143.918,106.253,124.467,0.00280596,0.40036,20.5757,103.062,-1.45251,0.0,0.0
2907,726.5,50.4024,54.3846,142.641,106.2,123.752,0.00266269,0.402763,20.5737,102.902,-1.4042,0.0,0.0
2916,728.75,51.173,53.8409,143.203,106.14,121.941,0.00266807,0.404246,20.5715,102.602,-1.274,0.0,0.0
2925,731,50.7254,54.4163,144.711,106.058,122.448,0.00271268,0.404568,20.5707,102.372,-1.31918,0.0,0.0
2934,733.25,51.0273,54.3562,143.88,105.981,122.692,0.00274223,0.405031,20.5704,102.031,-1.34424,0.0,0.0
2943,735.5,51.2896,54.5959,152.149,105.898,121.398,0.00275062,0.404256,20.5717,101.861,-1.25398,0.0,0.0
2952,737.75,51.7498,54.5155,146.622,105.819,123.815,0.00283998,0.402692,20.5718,101.611,-1.44186,0.0,0.0
2961,740,51.1624,54.9467,145.388,105.734,123.326,0.00298341,0.403892,20.5713,101.261,-1.41287,0.0,0.0
2970,742.25,51.3358,55.4588,141.916,105.67,123.915,0.00299218,0.405396,20.5711,101.101,-1.46217,0.0,0.0
2979,744.5,51.6586,55.178,148.152,105.597,122.855,0.00298946,0.404705,20.5692,100.86,-1.38968,0.0,0.0
2988,746.75,51.6894,55.396,143.39,105.521,123.435,0.00312717,0.406515,20.5681,100.59,-1.4395,0.0,0.0
2997,749,51.917,55.6437,141.391,105.46,123.888,0.00315819,0.406211,20.5681,100.26,-1.47841,0.0,0.0
3006,751.25,52.1048,55.7868,148.205,105.388,121.144,0.00293726,0.407486,20.5671,100.08,-1.27915,0.0,0.0
3015,753.5,52.0204,55.6024,141.264,105.334,123.172,0.00268924,0.409655,20.5664,99.8294,-1.43626,0.0,0.0
3024,755.75,52.1497,55.7697,149.606,105.268,120.846,0.00267714,0.409607,20.5661,99.4992,-1.26691,0.0,0.0
3033,758,52.7656,55.4237,145.908,105.221,121.688,0.00280704,0.409018,20.5661,99.289,-1.3348,0.0,0.0
3042,760.25,52.3162,55.7576,139.738,105.198,122.113,0.00291067,0.410917,20.566,99.0387,-1.36878,0.0,0.0
3051,762.5,52.2804,56.161,145.887,105.177,119.044,0.00292812,0.41148,20.5654,98.7585,-1.137,0.0,0.0
3060,764.75,52.4559,56.1269,143.051,105.148,122.032,0.00290495,0.411144,20.5651,98.3882,-1.36702,0.0,0.0
3069,767,53.0856,56.9718,143.134,105.15,120.755,0.00296752,0.412473,20.5625,98.208,-1.27033,0.0,0.0
3078,769.25,52.7866,56.7972,141.125,105.159,121.226,0.00318486,0.414361,20.5602,97.9678,-1.30525,0.0,0.0
3087,771.5,52.8399,56.927,142.383,105.171,121.851,0.00349416,0.41578,20.5595,97.7276,-1.35138,0.0,0.0
3096,773.75,52.9499,56.611,144.114,105.2,122.602,0.00359258,0.415262,20.5592,97.4573,-1.40535,0.0,0.0
3105,776,52.9023,56.8933,143.322,105.229,121.045,0.00348597,0.414937,20.5591,97.2271,-1.28541,0.0,0.0
3114,778.25,53.6097,57.3211,142.032,105.265,123.426,0.00329626,0.413477,20.5615,96.9369,-1.46117,0.0,0.0
3123,780.5,53.3518,57.1606,143.599,105.296,123.027,0.00311093,0.408836,20.5667,96.6466,-1.4288,0.0,0.0
3132,782.75,53.334,57.8146,143.201,105.36,121.932,0.00293464,0.402078,20.5749,96.4464,-1.34111,0.0,0.0
3141,785,53.6359,56.8819,141.823,105.42,122.213,0.00279945,0.393935,20.583,96.2562,-1.35698,0.0,0.0
3150,787.25,53.6454,57.3921,149.07,105.483,120.9,0.00278867,0.388476,20.5877,96.036,-1.2523,0.0,0.0
3159,789.5,53.5661,56.7532,147.117,105.57,121.244,0.00277074,0.383378,20.5935,95.7358,-1.27085,0.0,0.0
3168,791.75,53.6429,57.6545,142.696,105.67,120.538,0.00265415,0.378114,20.598,95.5456,-1.20855,0.0,0.0
3177,794,53.1896,57.4261,143.463,105.771,121.552,0.00250316,0.3708,20.6077,95.3554,-1.27668,0.0,0.0
3186,796.25,52.8061,57.3924,144.441,105.853,121.325,0.00234618,0.362536,20.6158,95.0652,-1.25239,0.0,0.0
3195,798.5,53.0482,56.8299,141.692,105.963,121.099,0.00209102,0.35398,20.6255,94.9551,-1.22578,0.0,0.0
3204,800.75,52.1316,57.1188,144.856,106.083,120.909,0.0018968,0.34426,20.6373,94.7849,-1.20095,0.0,0.0
3213,803,52.946,56.915,149.584,106.19,122.611,0.00181594,0.334722,20.647,94.5847,-1.32005,0.0,0.0
3222,805.25,52.589,55.9591,150.115,106.291,122.032,0.00184694,0.326172,20.6552,94.3345,-1.26783,0.0,0.0
3231,807.5,51.5058,55.6284,142.513,106.429,121.199,0.00192031,0.316543,20.6663,94.2645,-1.19304,0.0,0.0
3240,809.75,51.7875,55.5719,152.975,106.512,123.399,0.00200045,0.30642,20.6785,94.1243,-1.35098,0.0,0.0
3249,812,50.8343,55.7604,147.375,106.601,121.851,0.00206715,0.295802,20.6874,93.9742,-1.22746,0.0,0.0
3258,814.25,50.9389,54.7119,152.653,106.718,120.293,0.00211049,0.287303,20.698,93.8341,-1.0993,0.0,0.0
3267,816.5,50.3701,54.6473,149.069,106.804,121.706,0.00215182,0.276592,20.7111,93.714,-1.19901,0.0,0.0
3276,818.75,49.6382,54.1755,150.261,106.886,121.615,0.00222879,0.265386,20.7221,93.5939,-1.18514,0.0,0.0
3285,821,49.7209,53.6989,156.277,106.969,120.71,0.00219986,0.254377,20.7354,93.3937,-1.10944,0.0,0.0
3294,823.25,49.0522,52.7381,152.304,107.041,121.47,0.00214718,0.24177,20.749,93.3937,-1.16093,0.0,0.0
3303,825.5,48.4121,52.4362,150.438,107.086,120.049,0.00223668,0.231569,20.7599,93.3336,-1.04903,0.0,0.0
3312,827.75,47.8614,51.5901,154.689,107.118,120.574,0.00234329,0.2215,20.7721,93.2235,-1.08633,0.0,0.0
3321,830,47.3723,51.2028,155.4,107.151,118.79,0.00246156,0.210218,20.7827,93.1335,-0.946687,0.0,0.0
3330,832.25,46.4957,50.6388,157.746,107.185,118.917,0.00264644,0.201327,20.7935,93.0634,-0.953567,0.0,0.0
3339,834.5,45.6737,50.4508,160.574,107.21,118.827,0.00291581,0.192213,20.8033,93.0133,-0.944449,0.0,0.0
3348,836.75,45.5604,49.6413,155.648,107.206,118.41,0.00333817,0.183614,20.8145,92.8432,-0.912591,0.0,0.0
3357,839,44.5911,48.5831,150.638,107.231,118.637,0.00386562,0.174995,20.8252,92.8832,-0.927922,0.0,0.0
3366,841.25,44.0489,48.1921,152.111,107.233,118.519,0.00434993,0.167334,20.8341,92.8332,-0.918661,0.0,0.0
3375,843.5,43.59,47.4931,155.049,107.225,118.428,0.00461073,0.161385,20.841,92.7431,-0.912354,0.0,0.0
3384,845.75,42.9951,47.1016,156.889,107.229,120.61,0.00480601,0.156481,20.8464,92.613,-1.07961,0.0,0.0
3393,848,42.1055,46.2905,152.836,107.233,119.587,0.00488058,0.152532,20.853,92.663,-1.00108,0.0,0.0
3402,850.25,41.2986,45.717,153.557,107.233,119.732,0.0048373,0.147791,20.8604,92.623,-1.01215,0.0,0.0
3411,852.5,41.3895,44.866,153.943,107.203,118.664,0.00493004,0.143309,20.8655,92.4829,-0.932447,0.0,0.0
3420,854.75,40.7179,44.1604,154.865,107.203,119.288,0.00525973,0.13972,20.8698,92.5229,-0.980649,0.0,0.0
3429,857,40.231,43.3543,154.706,107.183,118.953,0.00558453,0.136519,20.8723,92.4829,-0.956511,0.0,0.0
3438,859.25,39.6258,43.2487,158.68,107.167,118.6,0.00580907,0.133699,20.8741,92.4628,-0.930601,0.0,0.0
3447,861.5,39.0074,42.821,154.486,107.119,118.374,0.00605249,0.131025,20.8758,92.3227,-0.91717,0.0,0.0
3456,863.75,38.7705,41.746,156.195,107.079,118.084,0.00642618,0.129064,20.8783,92.3928,-0.898108,0.0,0.0
3465,866,38.0821,41.5848,158.227,107.04,117.713,0.00684361,0.126798,20.8821,92.3728,-0.872528,0.0,0.0
3474,868.25,37.8372,41.0831,154.451,106.983,117.731,0.00731652,0.124398,20.884,92.3127,-0.878834,0.0,0.0
3483,870.5,37.2341,40.5309,158.142,106.942,117.894,0.00763281,0.122204,20.8874,92.2827,-0.895045,0.0,0.0
3492,872.75,36.8534,39.8815,155.693,106.875,117.061,0.00780396,0.120604,20.8889,92.2427,-0.835716,0.0,0.0
3501,875,36.1499,39.4797,157.319,106.802,117.07,0.00795832,0.119351,20.8908,92.2026,-0.842712,0.0,0.0
3510,877.25,36.0372,38.9004,158.216,106.712,118.274,0.00814545,0.118397,20.8916,92.0925,-0.944404,0.0,0.0
3519,879.5,35.558,38.315,162.425,106.613,117.74,0.00823086,0.117498,20.892,92.1726,-0.911358,0.0,0.0
3528,881.75,35.043,38.3179,153.672,106.506,117.921,0.00819288,0.117226,20.8922,92.1726,-0.934732,0.0,0.0
3537,884,34.8086,37.333,155.401,106.379,115.45,0.0080792,0.116789,20.8923,92.0925,-0.751237,0.0,0.0
3546,886.25,34.2029,37.4249,157.957,106.255,116.735,0.00804293,0.115655,20.8943,92.0625,-0.863579,0.0,0.0
3555,888.5,34.4274,36.9886,157.565,106.139,116.672,0.00792231,0.114305,20.8955,92.0525,-0.868607,0.0,0.0
3564,890.75,33.8198,36.7322,157.998,105.99,115.748,0.00778736,0.113705,20.8969,92.0024,-0.808584,0.0,0.0
3573,893,33.4507,36.1308,158.181,105.859,116.391,0.00773491,0.113329,20.8979,91.8923,-0.87071,0.0,0.0
3582,895.25,33.3748,35.7889,157.015,105.747,115.441,0.00763418,0.112985,20.8986,91.9624,-0.805171,0.0,0.0
3591,897.5,33.1014,34.9099,157.57,105.62,115.613,0.00744188,0.112543,20.8991,91.9324,-0.829886,0.0,0.0
3600,899.75,33.0115,34.9309,163.751,105.501,114.499,0.00726779,0.112393,20.8993,91.8823,-0.751411,0.0,0.0
3609,902,32.4506,34.729,155.895,105.389,115.54,0.0071811,0.112903,20.8986,91.8023,-0.844217,0.0,0.0
3618,904.25,32.3883,34.2175,159.121,105.296,115.386,0.00711357,0.113098,20.8983,91.8823,-0.840062,0.0,0.0
3627,906.5,32.3619,33.9545,156.134,105.238,114.49,0.00719371,0.112565,20.8974,91.9023,-0.773601,0.0,0.0
3636,908.75,31.7122,33.2472,161.673,105.175,116.355,0.00743769,0.112459,20.8982,91.7422,-0.927375,0.0,0.0
3645,911,31.8608,33.5471,158.27,105.16,114.418,0.00787381,0.112617,20.8983,91.7922,-0.774556,0.0,0.0
3654,913.25,30.4948,32.356,157.389,105.162,115.495,0.00828177,0.112491,20.8988,91.7822,-0.860442,0.0,0.0
3663,915.5,30.514,32.4222,153.911,105.184,115.549,0.00848814,0.111557,20.899,91.7322,-0.862781,0.0,0.0
3672,917.75,30.5119,32.0357,153.884,105.229,115.377,0.00849223,0.110372,20.9,91.6021,-0.845191,0.0,0.0
3681,920,30.7295,32.2624,155.485,105.312,115.712,0.00839769,0.109875,20.9014,91.6521,-0.86459,0.0,0.0
3690,922.25,30.5167,31.6878,161.842,105.412,115.35,0.00813755,0.109115,20.9028,91.6521,-0.827087,0.0,0.0
3699,924.5,30.5322,31.5686,159.296,105.525,114.68,0.00771671,0.108365,20.9037,91.532,-0.763757,0.0,0.0
3708,926.75,29.8037,31.2403,159.468,105.682,114.608,0.00749349,0.10775,20.9044,91.542,-0.744367,0.0,0.0
3717,929,29.8949,31.4844,159.22,105.819,115.921,0.00731344,0.107434,20.9037,91.572,-0.837015,0.0,0.0
3726,931.25,30.1909,30.831,155.375,105.97,116.002,0.00726083,0.107794,20.9033,91.572,-0.830365,0.0,0.0
3735,933.5,29.6828,30.7501,157.653,106.084,116.889,0.00725423,0.108068,20.9032,91.4419,-0.890436,0.0,0.0
3744,935.75,29.6342,30.6082,158.176,106.227,116.446,0.00739813,0.108028,20.9032,91.512,-0.843175,0.0,0.0
3753,938,29.348,30.0067,155.131,106.343,115.459,0.00756849,0.108038,20.9031,91.482,-0.755039,0.0,0.0
3762,940.25,29.3316,30.8154,160.738,106.43,115.857,0.00758385,0.108269,20.9031,91.4419,-0.779143,0.0,0.0
3771,942.5,28.8048,30.3795,155.466,106.515,116.934,0.00756219,0.108342,20.9031,91.3519,-0.856757,0.0,0.0
3780,944.75,29.3184,29.9981,156.961,106.569,116.265,0.00764232,0.108215,20.9031,91.3619,-0.799394,0.0,0.0
3789,947,28.784,30.3512,159.094,106.587,116.138,0.00771214,0.107926,20.9031,91.3719,-0.787804,0.0,0.0
3798,949.25,28.6571,29.7777,158.334,106.56,115.377,0.00775555,0.108267,20.9031,91.2818,-0.729818,0.0,0.0
3807,951.5,28.7671,29.8969,163.407,106.526,116.12,0.00768396,0.10895,20.9024,91.3318,-0.791663,0.0,0.0
3816,953.75,28.951,29.5031,160.248,106.461,117.224,0.00755057,0.109133,20.9026,91.2918,-0.884129,0.0,0.0
3825,956,27.6543,29.2603,157.203,106.388,116.4,0.00753179,0.109195,20.9027,91.2718,-0.825729,0.0,0.0
3834,958.25,28.2394,29.0838,160.085,106.326,116.265,0.00759803,0.109334,20.9028,91.1617,-0.82035,0.0,0.0
3843,960.5,28.1653,29.4265,161.763,106.247,115.35,0.00755002,0.109215,20.9028,91.2317,-0.754709,0.0,0.0
3852,962.75,28.2701,29.1657,157.268,106.165,114.454,0.00735631,0.109313,20.903,91.1817,-0.690174,0.0,0.0
3861,965,28.1162,29.0149,160.965,106.103,115.033,0.00715719,0.109063,20.9043,91.0716,-0.741843,0.0,0.0
3870,967.25,28.0479,28.754,154.962,106.087,115.739,0.00707443,0.10833,20.9048,91.1317,-0.799459,0.0,0.0
3879,969.5,27.9595,29.2211,160.201,106.347,114.644,0.00693394,0.108377,20.9055,91.0916,-0.689685,0.0,0.0
3888,971.75,27.9637,28.6488,159.703,106.6,115.73,0.00675267,0.108424,20.9071,91.1116,-0.754456,0.0,0.0
3897,974,27.7791,28.3333,159.403,106.79,115.839,0.00668722,0.107494,20.9076,91.0216,-0.746734,0.0,0.0
3906,976.25,27.8985,28.4768,161.989,106.931,116.301,0.00681042,0.107292,20.9067,91.0616,-0.771132,0.0,0.0
3915,978.5,27.6182,28.6062,159.054,107.005,116.536,0.00688311,0.107481,20.9052,91.0616,-0.783303,0.0,0.0
3924,980.75,27.6638,28.6502,157.089,106.979,116.4,0.00681347,0.107518,20.9038,91.0116,-0.774878,0.0,0.0
3933,983,27.4944,28.2672,163.178,106.888,116.953,0.00667465,0.107763,20.9037,90.9715,-0.826069,0.0,0.0
3942,985.25,27.2746,28.3984,163.11,106.721,115.015,0.00662645,0.107458,20.9047,90.9815,-0.687088,0.0,0.0
3951,987.5,26.9073,27.7677,156.254,106.457,115.821,0.00664369,0.107167,20.905,90.9215,-0.773944,0.0,0.0
3960,989.75,27.5474,27.796,159.15,106.517,116.02,0.00667,0.10704,20.9052,90.8114,-0.784537,0.0,0.0
3969,992,27.4778,27.9418,157.639,106.671,117.514,0.00678839,0.106903,20.9052,90.9015,-0.888708,0.0,0.0
3978,994.25,27.1751,28.1861,156.09,106.835,116.21,0.0069371,0.106712,20.9052,90.8914,-0.772174,0.0,0.0
3987,996.5,27.13,27.8141,161.142,106.997,116.047,0.00698159,0.106663,20.9053,90.8314,-0.745419,0.0,0.0
3996,998.75,26.6478,27.9786,159.483,107.162,117.659,0.00687319,0.106487,20.9058,90.7914,-0.857839,0.0,0.0
4005,1001,26.8367,27.3522,159.307,107.267,116.726,0.00666954,0.106234,20.906,90.8214,-0.775804,0.0,0.0
4014,1003.25,27.0813,27.3873,159.714,107.334,117.632,0.00647597,0.106669,20.9061,90.7813,-0.84107,0.0,0.0
4023,1005.5,26.7175,27.0613,158.707,107.329,116.79,0.00632767,0.10695,20.9061,90.6913,-0.775533,0.0,0.0
4032,1007.75,26.2575,27.3507,158.595,107.236,116.618,0.00621049,0.107156,20.9061,90.7713,-0.76994,0.0,0.0
4041,1010,26.7705,27.0796,154.455,107.065,115.812,0.00615642,0.107184,20.9061,90.7413,-0.720952,0.0,0.0
4050,1012.25,26.4723,27.4011,160.265,106.838,116.011,0.00618294,0.106924,20.9079,90.7213,-0.756239,0.0,0.0
4059,1014.5,26.6805,27.3574,154.042,106.558,116.228,0.00622513,0.106687,20.9088,90.6412,-0.797435,0.0,0.0
4068,1016.75,26.5122,27.2103,160.401,106.225,115.893,0.00634123,0.106509,20.9083,90.6712,-0.799683,0.0,0.0
4077,1019,26.8142,27.1775,158.85,105.901,114.046,0.00642777,0.106412,20.9079,90.6512,-0.680248,0.0,0.0
4086,1021.25,26.8335,26.7506,164.413,105.598,114.753,,0.106204,,90.5511,-0.763266,0.0,0.0
4095,1023.5,25.9257,26.5923,162.084,105.373,114.11,,,,90.6012,-0.731254,0.0,0.0
4104,1025.75,25.7809,27.1264,159.879,105.255,114.354,,,,90.6112,-0.761186,0.0,0.0
4113,1028,26.5658,26.9654,158.411,105.205,114.517,,,,90.6012,-0.778628,0.0,0.0
4122,1030.25,26.466,26.935,156.695,105.292,113.793,,,,90.5211,-0.712823,0.0,0.0
4125,1031,26.1787,26.4924,160.708,105.316,113.159,,,,90.5411,-0.659464,0.0,0.0