File: 01_Data/Basswood_Panel/Cone/Basswood_Panel_Cone_HF75Scan_221219_R1.csv
Names,Time,Stack TC,Smoke TC,Exh Press,Smoke Comp,Smoke Meas,CO Meter,CO2 Meter,O2 Meter,Sample Mass,Ext Coeff,Start Test,Flame Verif
Chan Gain,,500,500,1,1,1,1,1,1,1,1,1.0,1.0
Offset,,0,0,0.136803,0,0,0,0,0,0,0,0.0,0.0
Gain,,1,1,25.011,13.2421,13.1342,1,1,1,1.00087,1.04452,1.0,1.0
Units,sec,C,C,Pa,%,%,%,%,%,g,/m,,
Baseline,,30.1565,30.9791,156.827,99.8912,99.8054,-0.000644235,0.0528706,20.9335,-445.028,0.00789526,,
6,1.25,30.6333,31.4197,157.438,99.4086,99.1363,-0.000873957,0.059741,20.9239,161.501,0.0251387,0.0,0.0
12,2.75,30.8663,31.6046,161.931,99.5004,98.8565,-0.000790749,0.0608542,20.9237,161.501,0.0594851,0.0,0.0
18,4.25,30.5631,31.7157,158.797,99.5699,97.2728,-0.000745298,0.0621678,20.9232,161.341,0.213852,0.0,0.0
24,5.75,30.1882,31.1951,144.297,99.6665,97.9193,-0.000709595,0.0629887,20.9211,161.231,0.162039,0.0,0.0
30,7.25,30.5986,31.7706,145.701,99.7254,95.9393,-0.000645035,0.0629177,20.9197,160.88,0.354638,0.0,1.0
36,8.75,31.5346,32.3099,132.236,99.8087,94.324,-0.000593199,0.0623557,20.9189,160.69,0.517865,0.0,1.0
42,10.25,32.887,33.1522,134.551,99.8875,92.9576,-0.000567848,0.0619776,20.9186,160.26,0.658798,0.0,1.0
48,11.75,34.1987,34.3408,134.171,99.974,92.2397,-0.000565649,0.0629123,20.9183,160,0.737761,0.0,1.0
54,13.25,35.5579,34.4151,134.14,100.033,91.2244,-0.000560437,0.0756834,20.9179,159.579,0.844579,0.0,1.0
60,14.75,37.7596,37.533,132.822,100.121,90.0836,-0.000450917,0.135594,20.9159,159.309,0.967905,0.0,0.0
66,16.25,39.0069,38.3652,128.975,100.158,89.3345,-0.000159424,0.247176,20.8859,158.839,1.04782,0.0,0.0
72,17.75,41.5282,40.4963,126.91,100.238,89.5646,0.000553225,0.369702,20.8103,158.608,1.03161,0.0,0.0
78,19.25,42.4711,41.9749,130.065,100.284,89.5073,0.00141467,0.494109,20.6849,158.148,1.04161,0.0,0.0
84,20.75,44.0247,43.1582,126.199,100.339,90.7482,0.00245906,0.586868,20.5346,157.878,0.920508,0.0,0.0
90,22.25,45.7894,45.5642,128.595,100.381,88.8535,0.00327752,0.653741,20.4184,157.457,1.11767,0.0,0.0
96,23.75,46.6335,46.6986,132.195,100.469,88.8331,0.0039891,0.700819,20.3112,157.157,1.12782,0.0,0.0
102,25.25,48.3454,48.0097,129.001,100.504,89.567,0.00457226,0.731038,20.2311,156.747,1.0556,0.0,0.0
108,26.75,49.6344,49.6742,124.138,100.572,89.3157,0.00489946,0.75095,20.1688,156.427,1.08753,0.0,0.0
114,28.25,50.892,51.2375,124.976,100.624,90.0696,0.00513436,0.764395,20.1269,156.026,1.0153,0.0,0.0
120,29.75,52.2955,52.3176,130.848,100.661,90.2468,0.00535281,0.771395,20.1006,155.736,1.0006,0.0,0.0
126,31.25,53.2396,53.3679,129.422,100.704,90.4873,0.00551919,0.774102,20.0862,155.386,0.980191,0.0,0.0
132,32.75,53.8555,54.4774,121.598,100.754,90.4849,0.00565573,0.775492,20.0753,155.135,0.984919,0.0,0.0
138,34.25,54.4715,55.6749,131.554,100.798,90.5049,0.00572598,0.773912,20.07,154.715,0.986968,0.0,0.0
144,35.75,56.0517,56.2534,128.869,100.829,91.7627,0.00584517,0.769243,20.0678,154.385,0.863265,0.0,0.0
150,37.25,56.2385,57.2865,133.789,100.869,91.0953,0.0059938,0.762946,20.0695,154.155,0.93378,0.0,0.0
156,38.75,57.0233,57.8208,134.834,100.888,92.1703,0.0061156,0.75601,20.073,153.744,0.828012,0.0,0.0
162,40.25,57.9522,59.461,133.676,100.922,92.3675,0.00618912,0.745752,20.0791,153.554,0.811585,0.0,0.0
168,41.75,57.7987,59.2999,129.123,100.93,92.9331,0.00613805,0.735098,20.0887,153.144,0.756314,0.0,0.0
174,43.25,59.7546,60.7304,129.44,100.966,92.0998,0.0059824,0.724251,20.1015,152.954,0.842145,0.0,0.0
180,44.75,59.24,60.5993,136.471,100.955,92.2132,0.00581865,0.714324,20.1126,152.563,0.829876,0.0,0.0
186,46.25,60.4206,62.2542,131.377,100.972,91.5675,0.00569214,0.707114,20.1231,152.353,0.895766,0.0,0.0
192,47.75,61.2038,62.9854,131.407,100.959,92.0004,0.00559361,0.699205,20.1364,151.983,0.851415,0.0,0.0
198,49.25,61.4851,63.3768,130.329,100.95,92.1359,0.00553344,0.690276,20.1469,151.772,0.837053,0.0,0.0
204,50.75,61.7253,64.1806,137.66,100.907,93.0481,0.00547401,0.680976,20.1592,151.362,0.742962,0.0,0.0
210,52.25,61.8795,63.9438,133.919,100.896,92.2601,0.00541526,0.67059,20.17,151.172,0.819862,0.0,0.0
216,53.75,62.4134,64.9857,132.928,100.844,93.6494,0.00537636,0.660087,20.1807,150.762,0.678222,0.0,0.0
222,55.25,63.2928,65.6414,129.945,100.815,93.544,0.00535863,0.652478,20.1911,150.621,0.685825,0.0,0.0
228,56.75,63.4116,66.1696,134.91,100.76,93.552,0.0053502,0.643524,20.2042,150.241,0.680043,0.0,0.0
234,58.25,63.7724,66.4612,135.999,100.734,92.7167,0.00533489,0.635891,20.216,150.061,0.759906,0.0,0.0
240,59.75,64.3155,67.0964,135.643,100.687,93.1736,0.00524993,0.630966,20.2256,149.711,0.710596,0.0,0.0
246,61.25,64.0587,67.3664,133.889,100.636,93.1844,0.00512495,0.626194,20.2341,149.48,0.704897,0.0,0.0
252,62.75,64.8317,67.737,128.195,100.581,93.3083,0.00499057,0.619688,20.2409,149.15,0.687649,0.0,0.0
258,64.25,64.8938,68.5164,135.932,100.541,93.5119,0.00486363,0.611694,20.2479,148.92,0.66403,0.0,0.0
264,65.75,64.9817,68.7392,135.791,100.488,93.9672,0.00474265,0.603229,20.2541,148.65,0.614771,0.0,0.0
270,67.25,65.4742,68.8251,139.054,100.461,93.9348,0.00459087,0.595781,20.2631,148.37,0.615432,0.0,0.0
276,68.75,65.8428,69.286,132.497,100.414,94.3151,0.00447327,0.590191,20.2715,148.119,0.574091,0.0,0.0
282,70.25,65.908,69.2909,140.69,100.364,94.2755,0.00439929,0.584989,20.2801,147.849,0.573409,0.0,0.0
288,71.75,65.6123,69.8534,137.013,100.336,94.4214,0.00438823,0.580519,20.2885,147.629,0.556695,0.0,0.0
294,73.25,66.2334,70.1588,137.094,100.294,94.7124,0.00437632,0.575209,20.2959,147.349,0.524661,0.0,0.0
300,74.75,66.8101,69.9272,132.063,100.264,94.5705,0.00433433,0.571632,20.3005,147.148,0.535628,0.0,0.0
306,76.25,66.6278,70.6776,134.337,100.225,94.1769,0.00422532,0.566655,20.3075,146.838,0.570297,0.0,0.0
312,77.75,67.2586,70.8506,137.161,100.203,94.431,0.00406074,0.560725,20.3122,146.658,0.543612,0.0,0.0
318,79.25,66.8109,70.648,140.531,100.162,94.906,0.00387334,0.555291,20.3193,146.288,0.493908,0.0,0.0
324,80.75,66.4472,70.5936,132.4,100.14,94.1985,0.00376932,0.550579,20.3259,146.178,0.560394,0.0,0.0
330,82.25,67.2784,71.6374,134.858,100.11,93.964,0.00382419,0.546627,20.3328,145.837,0.580492,0.0,0.0
336,83.75,67.3626,71.2478,132.579,100.098,93.5997,0.00393185,0.542546,20.3383,145.657,0.61498,0.0,0.0
342,85.25,67.3347,71.3637,131.061,100.092,93.6766,0.00401875,0.538559,20.3444,145.337,0.606932,0.0,0.0
348,86.75,67.4752,71.9822,134.334,100.181,94.7697,0.00405842,0.534339,20.3492,145.167,0.508775,0.0,0.0
354,88.25,67.8194,71.6605,132.945,100.225,93.6285,0.00402904,0.530201,20.3544,144.826,0.623764,0.0,0.0
360,89.75,67.6801,72.2105,134.632,100.308,94.3905,0.00393574,0.526331,20.3601,144.676,0.557106,0.0,0.0
366,91.25,67.6059,71.677,132.805,100.36,94.7645,0.00381269,0.523739,20.3658,144.346,0.525638,0.0,0.0
372,92.75,67.9932,72.3431,134.746,100.426,95.3136,0.00371265,0.52046,20.3699,144.206,0.478746,0.0,0.0
378,94.25,67.6759,72.9043,133.553,100.465,95.3565,0.00365802,0.517447,20.3725,143.866,0.4782,0.0,0.0
384,95.75,68.4734,72.6941,138.832,100.497,94.8723,0.00363318,0.515226,20.376,143.725,0.527717,0.0,0.0
390,97.25,68.6826,73.1056,138.698,100.52,95.1164,0.00358135,0.51334,20.3795,143.425,0.506236,0.0,0.0
396,98.75,68.1512,72.8778,136.046,100.565,94.7813,0.00348912,0.511398,20.3821,143.235,0.542734,0.0,0.0
402,100.25,68.2488,72.8786,137.704,100.567,95.9529,0.00339163,0.508229,20.3842,142.945,0.430353,0.0,0.0
408,101.75,68.5122,73.1493,134.46,100.59,95.019,0.00333749,0.504085,20.3853,142.755,0.522067,0.0,0.0
414,103.25,68.6139,73.078,135.556,100.589,95.6739,0.00333124,0.500306,20.39,142.454,0.459056,0.0,0.0
420,104.75,68.1676,73.1377,133.949,100.587,95.5144,0.00331135,0.495637,20.3945,142.254,0.474088,0.0,0.0
426,106.25,67.8691,72.8244,134.324,100.585,95.0218,0.003206,0.492036,20.4009,142.054,0.521282,0.0,0.0
432,107.75,68.4456,73.3701,135.448,100.58,95.4495,0.00308714,0.490139,20.406,141.794,0.479731,0.0,0.0
438,109.25,68.2642,73.3574,133.225,100.562,95.894,0.00299476,0.487598,20.4092,141.584,0.435502,0.0,0.0
444,110.75,67.9983,73.0811,133.547,100.539,95.4206,0.00296988,0.483778,20.4115,141.373,0.478781,0.0,0.0
450,112.25,68.5057,73.6942,140.726,100.528,94.7116,0.0029513,0.481277,20.414,141.183,0.546054,0.0,0.0
456,113.75,68.4593,73.6801,138.054,100.494,95.69,0.0029429,0.480298,20.4173,140.893,0.448792,0.0,0.0
462,115.25,68.4917,73.5922,136.629,100.482,95.4178,0.00291267,0.479743,20.4195,140.723,0.473782,0.0,0.0
468,116.75,68.5599,73.8099,143.61,100.453,95.7994,0.00285038,0.477478,20.4225,140.463,0.434597,0.0,0.0
474,118.25,68.8358,73.684,134.343,100.425,95.7216,0.00280813,0.474557,20.4245,140.312,0.439531,0.0,0.0
480,119.75,68.5757,73.7436,136.87,100.379,95.4294,0.00278918,0.472743,20.428,140.032,0.463303,0.0,0.0
486,121.25,68.5934,73.7086,136.366,100.357,95.4743,0.00277372,0.472259,20.4311,139.872,0.457002,0.0,0.0
492,122.75,68.5827,74.1495,134.875,100.312,95.3044,0.00265912,0.470631,20.4327,139.592,0.469229,0.0,0.0
498,124.25,68.766,73.9207,137.033,100.286,95.2362,0.00251651,0.467957,20.4347,139.432,0.473382,0.0,0.0
504,125.75,68.8895,74.0075,132.954,100.254,95.4687,0.00239086,0.4657,20.4365,139.131,0.448164,0.0,0.0
510,127.25,68.645,74.0666,135.394,100.209,95.2956,0.00233266,0.464522,20.4393,138.971,0.460622,0.0,0.0
516,128.75,68.9797,74.5243,135.589,100.152,94.6342,0.00234628,0.463329,20.4422,138.681,0.519259,0.0,0.0
522,130.25,68.6396,73.8676,141.386,100.116,95.3288,0.00243191,0.461143,20.444,138.541,0.448922,0.0,0.0
528,131.75,68.3283,74.3967,135.854,100.048,95.4334,0.00250515,0.459384,20.4454,138.271,0.43262,0.0,0.0
534,133.25,68.852,74.2867,132.773,100.009,95.4691,0.00254108,0.458235,20.4484,138.091,0.425643,0.0,0.0
540,134.75,68.2799,73.8131,135.34,99.9328,95.4242,0.00257743,0.456458,20.4506,137.85,0.422989,0.0,0.0
546,136.25,68.9098,74.2213,131.972,99.8875,94.8747,0.00263709,0.454348,20.4517,137.66,0.471754,0.0,0.0
552,137.75,68.6057,74.4731,137.281,99.803,94.8021,0.00268827,0.452082,20.4532,137.41,0.471014,0.0,0.0
558,139.25,68.5212,74.261,140.622,99.7384,94.9701,0.00271026,0.450267,20.4557,137.24,0.448858,0.0,0.0
564,140.75,68.7374,74.2792,137.9,99.7283,94.9869,0.00268104,0.44883,20.4582,137,0.446306,0.0,0.0
570,142.25,69.1486,74.2563,134.429,99.7319,94.4185,0.00263027,0.448154,20.4601,136.799,0.501631,0.0,0.0
576,143.75,69.1812,74.1715,136.615,99.7388,94.9304,0.00261994,0.447808,20.4618,136.569,0.452725,0.0,0.0
582,145.25,69.013,74.1045,137.157,99.7412,94.5857,0.00264896,0.446807,20.4627,136.349,0.486278,0.0,0.0
588,146.75,68.1498,73.5904,132.595,99.7562,94.7825,0.00266282,0.444653,20.4636,136.159,0.468607,0.0,0.0
594,148.25,69.2068,74.618,135.364,99.7586,94.5176,0.00262466,0.443025,20.4655,135.949,0.494477,0.0,0.0
600,149.75,69.2815,74.2175,134.93,99.7808,95.2807,0.00257589,0.442252,20.4676,135.758,0.422834,0.0,0.0
606,151.25,69.2533,74.0808,134.823,99.8006,95.1396,0.00253547,0.441975,20.469,135.508,0.43823,0.0,0.0
612,152.75,69.2989,74.1719,138.656,99.7978,95.1994,0.00252501,0.441274,20.4697,135.358,0.432221,0.0,0.0
618,154.25,68.1789,74.0008,135.955,99.8212,95.1741,0.00255529,0.440715,20.4712,135.118,0.436804,0.0,0.0
624,155.75,68.8006,74.1899,138.214,99.8394,94.7011,0.00261602,0.440493,20.4719,134.938,0.484119,0.0,0.0
630,157.25,69.169,74.0347,135.415,99.8536,95.3188,0.00266472,0.440219,20.4723,134.718,0.42585,0.0,0.0
636,158.75,68.6608,74.3419,141.257,99.8903,95.0258,0.0026049,0.439331,20.4726,134.527,0.457432,0.0,0.0
642,160.25,69.3787,74.6784,139.367,99.9029,95.809,0.00245676,0.437917,20.4727,134.287,0.383372,0.0,0.0
648,161.75,68.77,74.7752,138.542,99.9356,95.8327,0.00232403,0.437013,20.4736,134.117,0.384114,0.0,0.0
654,163.25,69.2994,74.6329,140.419,99.9465,95.3781,0.00225705,0.436631,20.4755,133.847,0.428674,0.0,0.0
660,164.75,69.3347,74.3309,138.06,99.9809,95.2258,0.00225188,0.435921,20.4768,133.737,0.446466,0.0,0.0
666,166.25,68.909,74.7308,139.68,99.9869,95.3813,0.00225992,0.434664,20.4781,133.467,0.43207,0.0,0.0
672,167.75,69.2555,74.3016,134.688,100.027,95.8162,0.00222595,0.433574,20.4793,133.286,0.394055,0.0,0.0
678,169.25,69.3386,74.8026,138.741,100.026,95.6006,0.00218285,0.433005,20.4805,133.046,0.414624,0.0,0.0
684,170.75,69.7016,74.6376,141.59,100.052,95.5629,0.0021656,0.432159,20.4816,132.876,0.420605,0.0,0.0
690,172.25,69.4678,74.4684,132.186,100.048,95.3396,0.00217802,0.431353,20.483,132.636,0.441629,0.0,0.0
696,173.75,69.0694,74.6565,138.943,100.079,95.7385,0.00221779,0.430443,20.484,132.476,0.406305,0.0,0.0
702,175.25,69.4083,74.5247,136.99,100.078,95.5645,0.0022596,0.429407,20.4846,132.215,0.422857,0.0,0.0
708,176.75,69.0159,74.5092,135.161,100.115,94.8607,0.00228177,0.429488,20.486,132.065,0.493918,0.0,0.0
714,178.25,69.2645,74.8121,132.157,100.136,95.0559,0.00226451,0.429204,20.4867,131.845,0.477044,0.0,0.0
720,179.75,69.2275,74.5521,137.019,100.139,95.6924,0.00224558,0.428772,20.4871,131.625,0.416191,0.0,0.0
726,181.25,68.6605,73.5907,137.303,100.151,95.5773,0.00223483,0.428568,20.4873,131.425,0.428322,0.0,0.0
732,182.75,69.2944,74.4621,134.372,100.162,94.7055,0.00225196,0.427987,20.4874,131.205,0.513277,0.0,0.0
738,184.25,69.6335,74.7132,135.088,100.172,95.1368,0.00228613,0.426629,20.4877,131.034,0.472533,0.0,0.0
744,185.75,68.4962,74.0145,144.203,100.173,95.7192,0.00231603,0.426023,20.4893,130.824,0.416725,0.0,0.0
750,187.25,69.715,74.4985,138.772,100.182,95.5709,0.00233456,0.425226,20.4906,130.654,0.431709,0.0,0.0
756,188.75,69.3498,74.7228,139.407,100.182,95.4006,0.00235288,0.42464,20.4919,130.414,0.448092,0.0,0.0
762,190.25,69.1616,74.4379,137.932,100.193,95.6375,0.00238923,0.424667,20.4931,130.264,0.426404,0.0,0.0
768,191.75,69.3226,74.3979,138.151,100.177,95.9609,0.00241453,0.42396,20.4937,130.013,0.393989,0.0,0.0
774,193.25,68.903,73.7408,133.288,100.196,95.6735,0.00239097,0.422159,20.494,129.843,0.423207,0.0,0.0
780,194.75,69.6322,74.4172,133.759,100.173,95.5537,0.00229943,0.421029,20.495,129.633,0.432584,0.0,0.0
786,196.25,69.553,74.6752,140.305,100.189,95.991,0.00220565,0.420429,20.4969,129.453,0.392153,0.0,0.0
792,197.75,69.3951,74.3209,134.518,100.171,95.6226,0.00215071,0.42101,20.4979,129.233,0.425754,0.0,0.0
798,199.25,69.6713,74.3023,136.568,100.177,95.9505,0.00210908,0.421988,20.4984,129.093,0.394984,0.0,0.0
804,200.75,69.2234,74.4689,137.149,100.163,95.1641,0.0020587,0.422288,20.4976,128.812,0.469059,0.0,0.0
810,202.25,69.4343,74.561,140.196,100.177,96.5569,0.00202429,0.422478,20.4972,128.682,0.337218,0.0,0.0
816,203.75,69.4089,74.1748,140.073,100.155,95.1877,0.00199392,0.422435,20.4969,128.422,0.466116,0.0,0.0
822,205.25,69.2298,74.138,137.884,100.173,95.0559,0.00196195,0.422836,20.4968,128.282,0.480408,0.0,0.0
828,206.75,69.6442,74.7533,136.21,100.146,95.9914,0.00193381,0.423271,20.4966,128.032,0.388197,0.0,0.0
834,208.25,69.7536,74.5181,140.785,100.152,95.7926,0.0019376,0.4227,20.4962,127.882,0.407784,0.0,0.0
840,209.75,69.6516,74.2518,137.696,100.135,95.696,0.00203452,0.421509,20.4959,127.621,0.415438,0.0,0.0
846,211.25,69.2052,74.6751,140.083,100.138,95.6723,0.00214906,0.42023,20.4963,127.431,0.417999,0.0,0.0
852,212.75,69.5986,74.6402,140.403,100.124,96.1377,0.00225848,0.419722,20.4971,127.201,0.372283,0.0,0.0
858,214.25,69.4755,74.7709,134.643,100.12,95.4511,0.00222609,0.420851,20.4975,127.021,0.437586,0.0,0.0
864,215.75,69.4766,74.6839,139.3,100.11,95.9994,0.0021529,0.421991,20.4977,126.781,0.384177,0.0,0.0
870,217.25,69.7086,74.2956,140.937,100.103,96.0158,0.00216149,0.422539,20.4978,126.611,0.381943,0.0,0.0
876,218.75,69.477,73.8836,135.095,100.091,95.7773,0.00222235,0.42297,20.4979,126.41,0.403657,0.0,0.0
882,220.25,69.3902,74.8424,133.68,100.09,95.8363,0.00227273,0.423454,20.497,126.19,0.397948,0.0,0.0
888,221.75,69.4024,74.444,135.499,100.074,95.5344,0.00228706,0.423781,20.4964,126,0.425333,0.0,0.0
894,223.25,69.7241,74.6528,133.868,100.062,95.7052,0.00228339,0.423615,20.496,125.79,0.40786,0.0,0.0
900,224.75,68.8234,74.3504,131.442,100.061,95.4294,0.00229612,0.423575,20.4959,125.61,0.434264,0.0,0.0
906,226.25,69.7045,74.4572,132.179,100.027,95.5533,0.00230541,0.424136,20.4958,125.379,0.419271,0.0,0.0
912,227.75,69.8893,74.9426,137.855,100.023,95.7453,0.00224947,0.424138,20.4957,125.219,0.400509,0.0,0.0
918,229.25,69.3882,75.2628,137.9,100.017,95.4507,0.00219301,0.423025,20.4957,124.989,0.428152,0.0,0.0
924,230.75,69.9714,74.4147,137.898,100.007,95.8599,0.00212847,0.421655,20.4962,124.799,0.388064,0.0,0.0
930,232.25,69.8863,74.8413,135.895,99.9744,95.6403,0.00205835,0.42173,20.4966,124.599,0.406083,0.0,0.0
936,233.75,70.2743,74.5328,140.465,99.9776,96.5165,0.00203075,0.422731,20.4967,124.399,0.32282,0.0,0.0
942,235.25,70.3738,75.3948,130.79,99.9493,95.4198,0.00205662,0.423874,20.4968,124.168,0.424931,0.0,0.0
948,236.75,69.7008,74.6529,137.357,99.9526,95.9545,0.00207492,0.424764,20.4959,124.018,0.374026,0.0,0.0
954,238.25,70.4034,75.219,133.519,99.9307,96.1361,0.00208907,0.425287,20.4953,123.768,0.354704,0.0,0.0
960,239.75,70.1993,75.3038,140.49,99.9202,95.8082,0.00209305,0.424968,20.4941,123.628,0.385043,0.0,0.0
966,241.25,70.1171,74.7759,136.255,99.8891,95.7497,0.00209611,0.425074,20.4933,123.428,0.387787,0.0,0.0
972,242.75,70.3776,74.9689,133.82,99.8855,95.3124,0.00210638,0.424998,20.4928,123.258,0.429395,0.0,0.0
978,244.25,70.3837,75.302,138.812,99.8463,96.2647,0.00210339,0.424449,20.4926,123.027,0.334703,0.0,0.0
984,245.75,70.5098,75.0087,136.811,99.8402,95.597,0.00206771,0.423963,20.4925,122.867,0.397926,0.0,0.0
990,247.25,69.5781,74.41,133.883,99.816,95.7272,0.00196134,0.424352,20.4924,122.647,0.383224,0.0,0.0
996,248.75,70.6051,75.0703,133.186,99.8063,95.4459,0.00184083,0.424689,20.4924,122.487,0.409306,0.0,0.0
1002,250.25,70.2265,75.3545,138.73,99.7824,95.6807,0.00175244,0.425081,20.4924,122.227,0.384597,0.0,0.0
1008,251.75,70.5121,75.209,136.508,99.7812,95.6868,0.00170463,0.425226,20.4924,122.067,0.383909,0.0,0.0
1014,253.25,69.841,75.3533,137.943,99.757,95.7589,0.00174255,0.425171,20.4931,121.866,0.374777,0.0,0.0
1020,254.75,70.4949,75.2886,136.823,99.7473,95.5866,0.00182197,0.425503,20.4937,121.636,0.390391,0.0,0.0
1026,256.25,70.5416,74.9086,138.901,99.7222,96.1549,0.00187498,0.425884,20.4937,121.486,0.333769,0.0,0.0
1032,257.75,70.5044,75.257,137.212,99.704,95.7401,0.00191296,0.425066,20.4935,121.256,0.371716,0.0,0.0
1038,259.25,71.0031,74.9521,142.335,99.702,95.5689,0.00192872,0.424469,20.4939,121.086,0.387923,0.0,0.0
1044,260.75,70.4587,74.896,137.902,99.6725,95.2042,0.00193884,0.424871,20.494,120.855,0.420248,0.0,0.0
1050,262.25,70.9274,75.0391,139.633,99.6673,96.0996,0.00194106,0.425432,20.4941,120.695,0.333991,0.0,0.0
1056,263.75,70.423,74.9953,131.485,99.643,94.8963,0.00195401,0.42606,20.4933,120.455,0.447211,0.0,0.0
1062,265.25,70.947,75.7231,136.422,99.6475,95.409,0.00196724,0.426255,20.4926,120.275,0.398254,0.0,0.0
1068,266.75,70.2767,75.4415,133.606,99.6301,96.4211,0.00191989,0.425719,20.4923,120.035,0.299974,0.0,0.0
1074,268.25,70.7124,75.9518,136.933,99.626,95.6375,0.00177392,0.425494,20.4921,119.885,0.374371,0.0,0.0
1080,269.75,70.6688,75.568,144.805,99.6074,95.9906,0.00167923,0.425999,20.4921,119.634,0.338891,0.0,0.0
1086,271.25,70.5042,75.7481,135.961,99.6095,95.0418,0.00169029,0.426856,20.492,119.474,0.430088,0.0,0.0
1092,272.75,71.0013,75.5705,135.255,99.5796,95.4711,0.00184166,0.427694,20.491,119.264,0.386045,0.0,0.0
1098,274.25,71.2236,75.6668,136.976,99.5872,95.8415,0.00198586,0.427932,20.4904,119.064,0.351276,0.0,0.0
1104,275.75,71.2161,75.6079,132.712,99.5646,94.922,0.00205969,0.428092,20.49,118.834,0.437522,0.0,0.0
1110,277.25,70.6669,75.9445,138.962,99.584,95.9277,0.00197037,0.429089,20.4894,118.684,0.342744,0.0,0.0
1116,278.75,70.7529,75.6345,135.492,99.5594,95.3232,0.00187264,0.429399,20.4885,118.413,0.398391,0.0,0.0
1122,280.25,71.0164,75.9142,135.618,99.5569,95.1841,0.00183151,0.428683,20.4879,118.273,0.411547,0.0,0.0
1128,281.75,71.1528,75.596,134.908,99.5383,95.4831,0.00181602,0.42787,20.4877,118.043,0.381098,0.0,0.0
1134,283.25,70.7319,75.1326,135.831,99.54,95.3705,0.00179981,0.428099,20.4875,117.913,0.392061,0.0,0.0
1140,284.75,71.1664,76.1551,132.96,99.5343,94.7336,0.00181662,0.429048,20.4874,117.653,0.452936,0.0,0.0
1146,286.25,71.364,76.1547,132.099,99.5412,95.2398,0.00187239,0.429875,20.4874,117.493,0.404735,0.0,0.0
1152,287.75,70.7238,75.538,137.501,99.5303,95.6787,0.00193433,0.430799,20.4874,117.282,0.361603,0.0,0.0
1158,289.25,71.4548,75.7279,137.173,99.5359,95.4583,0.00199329,0.432008,20.4864,117.072,0.38326,0.0,0.0
1164,290.75,71.7235,75.4026,137.86,99.5335,95.6178,0.00204956,0.433062,20.4852,116.912,0.367736,0.0,0.0
1170,292.25,71.7146,76.344,136.281,99.5299,95.9144,0.00209071,0.433463,20.4838,116.722,0.339024,0.0,0.0
1176,293.75,70.5804,75.0896,136.568,99.527,95.7056,0.00210412,0.433131,20.4822,116.482,0.358734,0.0,0.0
1182,295.25,71.3709,76.0282,136.376,99.5165,95.231,0.00209997,0.433151,20.482,116.241,0.403314,0.0,0.0
1188,296.75,71.6945,76.236,129.678,99.5064,94.9537,0.00213421,0.433519,20.4824,116.121,0.42911,0.0,0.0
1194,298.25,71.486,76.1139,137.842,99.4777,95.0474,0.00220949,0.433788,20.4825,115.931,0.417421,0.0,0.0
1200,299.75,71.6365,75.8597,136.96,99.4854,94.914,0.00231107,0.434156,20.4829,115.771,0.431005,0.0,0.0
1206,301.25,71.7849,76.1269,135.207,99.443,94.924,0.00230223,0.435333,20.4824,115.491,0.426128,0.0,0.0
1212,302.75,71.7667,76.4284,137.837,99.4333,95.4952,0.00219082,0.436626,20.4813,115.361,0.370268,0.0,0.0
1218,304.25,71.6444,76.6155,136.022,99.403,95.2551,0.00208694,0.437068,20.4805,115.161,0.390538,0.0,0.0
1224,305.75,71.8333,76.5184,134.711,99.3969,94.8879,0.00201878,0.43696,20.4789,114.98,0.425365,0.0,0.0
1230,307.25,71.8756,76.2894,135.034,99.3577,94.8486,0.0020204,0.437206,20.4781,114.73,0.425546,0.0,0.0
1236,308.75,71.5965,76.3652,140.159,99.3533,94.9204,0.00203112,0.438064,20.4776,114.57,0.418206,0.0,0.0
1242,310.25,71.6453,76.4023,138.503,99.3258,94.9621,0.00204499,0.438397,20.4774,114.32,0.411649,0.0,0.0
1248,311.75,72.1196,76.3164,139.814,99.331,94.6382,0.00207487,0.437627,20.4762,114.18,0.443435,0.0,0.0
1254,313.25,72.0903,76.4631,141.668,99.285,95.0607,0.00207886,0.437609,20.4756,113.929,0.398374,0.0,0.0
1260,314.75,72.1589,76.2369,137.024,99.291,94.8583,0.00205472,0.437782,20.4752,113.779,0.418465,0.0,0.0
1266,316.25,71.9832,76.3824,132.169,99.2599,94.8057,0.00204124,0.438048,20.475,113.539,0.420666,0.0,0.0
1272,317.75,72.1579,76.5087,134.994,99.2631,94.9757,0.00206999,0.438717,20.4749,113.399,0.404553,0.0,0.0
1278,319.25,71.4233,75.8401,134.42,99.2454,94.9384,0.00215591,0.438977,20.4748,113.159,0.406509,0.0,0.0
1284,320.75,71.9328,76.178,132.176,99.2385,95.0454,0.00225594,0.440435,20.4742,112.959,0.395553,0.0,0.0
1290,322.25,71.7041,76.0461,133.57,99.2187,94.271,0.00230845,0.44194,20.4726,112.738,0.468682,0.0,0.0
1296,323.75,72.2536,76.798,131.936,99.207,94.2747,0.00230126,0.442502,20.4709,112.588,0.467249,0.0,0.0
1302,325.25,72.3162,76.7345,129.749,99.2086,95.0599,0.00225355,0.443398,20.4695,112.388,0.3914,0.0,0.0
1308,326.75,72.0952,76.2759,135.004,99.1912,94.3737,0.00224981,0.443432,20.4688,112.188,0.456176,0.0,0.0
1314,328.25,72.5059,76.9462,136.547,99.1714,94.5083,0.00226449,0.443633,20.4684,111.978,0.441281,0.0,0.0
1320,329.75,72.6846,76.6336,139.132,99.1653,94.4586,0.00219407,0.444134,20.4672,111.768,0.445541,0.0,0.0
1326,331.25,72.8846,76.8278,135.517,99.1613,93.9953,0.00199968,0.444842,20.4668,111.597,0.490223,0.0,0.0
1332,332.75,72.861,77.1268,132.079,99.1496,94.55,0.00187201,0.44638,20.4667,111.387,0.435224,0.0,0.0
1338,334.25,72.8464,77.099,134.691,99.1484,93.9179,0.001856,0.447778,20.4658,111.177,0.496573,0.0,0.0
1344,335.75,72.5649,77.0565,132.477,99.1318,94.2863,0.00188081,0.448547,20.4646,110.977,0.459175,0.0,0.0
1350,337.25,72.6895,77.2677,133.134,99.1354,94.3929,0.00190177,0.449575,20.4633,110.797,0.449156,0.0,0.0
1356,338.75,72.5038,77.676,136.035,99.1168,94.4675,0.00193321,0.450592,20.4619,110.536,0.440203,0.0,0.0
1362,340.25,73.0299,77.7284,135.248,99.1185,93.8197,0.0019441,0.451123,20.4607,110.376,0.503393,0.0,0.0
1368,341.75,72.9611,77.1609,132.915,99.1007,93.9247,0.00193561,0.450802,20.4598,110.126,0.491499,0.0,0.0
1374,343.25,73.1074,77.4715,131.442,99.1071,93.8839,0.00194076,0.450879,20.4593,109.976,0.496086,0.0,0.0
1380,344.75,72.8974,77.7733,133.846,99.0829,93.6686,0.00196161,0.451747,20.4584,109.716,0.514876,0.0,0.0
1386,346.25,73.2316,77.9712,143.655,99.11,94.1785,0.00196631,0.453915,20.4584,109.576,0.467641,0.0,0.0
1392,347.75,73.2391,77.6472,132.806,99.0716,93.3351,0.00191534,0.455277,20.4579,109.335,0.546508,0.0,0.0
1398,349.25,73.3621,78.0241,135.657,99.0744,93.6718,0.00187103,0.456573,20.4552,109.185,0.513777,0.0,0.0
1404,350.75,73.5822,77.7088,134.923,99.0486,93.2273,0.00190197,0.457414,20.4539,108.935,0.554968,0.0,0.0
1410,352.25,73.7531,77.8475,136.593,99.0611,93.5929,0.00201299,0.458307,20.4526,108.795,0.52027,0.0,0.0
1416,353.75,73.6422,77.829,130.551,99.0413,93.4389,0.00217496,0.459407,20.4517,108.565,0.533519,0.0,0.0
1422,355.25,73.6451,77.804,133.73,99.0453,92.895,0.00236816,0.45997,20.4504,108.385,0.587384,0.0,0.0
1428,356.75,73.5426,77.9258,133.583,99.0057,92.6649,0.00252903,0.459874,20.4494,108.124,0.606441,0.0,0.0
1434,358.25,73.808,77.9801,131.038,99.0304,92.7984,0.00260992,0.460115,20.4489,107.994,0.595534,0.0,0.0
1440,359.75,73.4344,78.2122,135.138,99.0049,92.2938,0.00261483,0.462667,20.4487,107.764,0.64314,0.0,0.0
1446,361.25,72.9834,77.4546,131.5,99.0017,92.8493,0.0025616,0.465024,20.4478,107.594,0.587853,0.0,0.0
1452,362.75,73.756,78.2391,133.957,98.9843,93.1022,0.00252215,0.467411,20.4442,107.354,0.561321,0.0,0.0
1458,364.25,74.1094,78.2713,136.871,98.9762,92.0008,0.00250644,0.469618,20.4399,107.184,0.669618,0.0,0.0
1464,365.75,73.1457,77.6478,133.792,98.9528,92.5603,0.00253583,0.470601,20.4372,106.983,0.61189,0.0,0.0
1470,367.25,74.2302,78.4904,131.871,98.9621,92.9784,0.00260907,0.470414,20.4349,106.783,0.57146,0.0,0.0
1476,368.75,74.4469,78.5664,130.165,98.9459,92.1166,0.00266558,0.471819,20.4339,106.603,0.655283,0.0,0.0
1482,370.25,74.3228,78.605,136.059,98.939,92.9664,0.00264349,0.473054,20.4325,106.373,0.570513,0.0,0.0
1488,371.75,74.2926,78.3138,131.102,98.9447,92.1647,0.00255579,0.473956,20.4306,106.223,0.650388,0.0,0.0
1494,373.25,74.07,78.8098,138.585,98.9225,91.8697,0.00245357,0.475132,20.4294,106.003,0.677703,0.0,0.0
1500,374.75,74.1367,79.3988,135.329,98.933,92.1908,0.00246501,0.476719,20.428,105.852,0.646712,0.0,0.0
1506,376.25,74.4285,78.9249,131.358,98.9164,91.911,0.00259804,0.477307,20.426,105.602,0.673025,0.0,0.0
1512,377.75,74.3234,79.2217,136.978,98.9196,92.6116,0.00270254,0.477664,20.424,105.402,0.603745,0.0,0.0
1518,379.25,74.9461,79.0041,135.939,98.9164,92.0505,0.00276292,0.477614,20.4227,105.182,0.659131,0.0,0.0
1524,380.75,74.3088,78.6645,135.215,98.9071,91.8196,0.00278623,0.477096,20.422,104.982,0.68128,0.0,0.0
1530,382.25,74.8904,79.2946,131.139,98.8922,91.4428,0.00274996,0.477568,20.4216,104.771,0.71757,0.0,0.0
1536,383.75,75.094,79.0699,131.187,98.899,91.7907,0.00264765,0.478086,20.4214,104.601,0.683411,0.0,0.0
1542,385.25,74.873,79.0689,136.586,98.8845,92.3158,0.00254621,0.478858,20.4213,104.351,0.6298,0.0,0.0
1548,386.75,75.3127,79.2373,133.202,98.8841,91.5835,0.00243951,0.479641,20.4206,104.181,0.702734,0.0,0.0
1554,388.25,75.3877,79.3593,136.894,98.8707,91.9555,0.00239799,0.479898,20.4198,103.921,0.664361,0.0,0.0
1560,389.75,75.3889,79.7977,139.905,98.8776,91.7727,0.00243443,0.479823,20.4194,103.771,0.683228,0.0,0.0
1566,391.25,75.4776,79.9832,135.326,98.859,92.6541,0.00250589,0.479493,20.4193,103.49,0.593925,0.0,0.0
1572,392.75,75.2747,79.7554,137.842,98.8667,91.4476,0.00260921,0.479903,20.4194,103.3,0.714729,0.0,0.0
1578,394.25,75.1336,79.5643,133.099,98.8404,91.6288,0.00269451,0.480454,20.4195,103.09,0.69416,0.0,0.0
1584,395.75,75.6739,79.6089,132.814,98.8505,91.1085,0.00264731,0.481628,20.4189,102.91,0.747269,0.0,0.0
1590,397.25,75.6637,79.8232,135.762,98.8433,91.416,0.00254124,0.483122,20.4179,102.67,0.715729,0.0,0.0
1596,398.75,75.5259,79.7851,136.594,98.8388,91.317,0.00243487,0.483471,20.4158,102.479,0.725246,0.0,0.0
1602,400.25,75.6182,79.8041,136.687,98.8404,92.327,0.00233657,0.483941,20.4143,102.279,0.624604,0.0,0.0
1608,401.75,75.9737,80.3739,133.766,98.8344,90.652,0.00228296,0.485608,20.4135,102.069,0.791798,0.0,0.0
1614,403.25,75.9006,80.383,133.205,98.8267,91.6813,0.00226848,0.48733,20.4123,101.859,0.687637,0.0,0.0
1620,404.75,75.8861,80.0985,133.566,98.8376,90.7979,0.00230341,0.488638,20.4104,101.679,0.777364,0.0,0.0
1626,406.25,75.8153,80.0599,130.139,98.834,91.21,0.00235526,0.489796,20.4089,101.459,0.73554,0.0,0.0
1632,407.75,76.3243,80.5237,133.378,98.8174,90.8989,0.0024315,0.491214,20.4074,101.268,0.765303,0.0,0.0
1638,409.25,76.016,80.7053,127.289,98.8263,90.6676,0.00254022,0.492368,20.4057,101.068,0.789469,0.0,0.0
1644,410.75,76.447,80.8167,136.191,98.8101,90.7065,0.00262714,0.494269,20.404,100.848,0.784042,0.0,0.0
1650,412.25,76.1482,80.5867,129.7,98.8226,90.2315,0.00270162,0.495699,20.4026,100.688,0.833308,0.0,0.0
1656,413.75,75.9753,80.3579,132.868,98.8117,90.0997,0.00275523,0.496424,20.4016,100.418,0.845697,0.0,0.0
1662,415.25,76.5205,80.7552,129.374,98.8226,89.8247,0.00279431,0.498173,20.4004,100.227,0.874713,0.0,0.0
1668,416.75,76.5538,80.7929,132.631,98.8125,90.8508,0.00282558,0.500154,20.398,100.027,0.769702,0.0,0.0
1674,418.25,76.5026,80.5392,134.162,98.8121,90.4768,0.00285015,0.501321,20.3946,99.8472,0.807459,0.0,0.0
1680,419.75,76.8062,80.7857,131.822,98.8041,89.5882,0.00285653,0.503446,20.3921,99.5869,0.897145,0.0,0.0
1686,421.25,76.5848,81.1218,131.848,98.8125,89.2014,0.00283073,0.506081,20.3909,99.4068,0.937576,0.0,0.0
1692,422.75,76.6357,81.5204,131.519,98.7923,91.2023,0.00280759,0.50804,20.3889,99.1365,0.732446,0.0,0.0
1698,424.25,76.1626,80.6996,131.842,98.813,89.6103,0.00281268,0.50873,20.3862,98.9564,0.895715,0.0,0.0
1704,425.75,77.1151,81.3076,134.217,98.7883,90.2832,0.00288969,0.508358,20.3836,98.7062,0.824874,0.0,0.0
1710,427.25,77.0266,81.1736,135.362,98.8037,89.1048,0.00298412,0.508839,20.3824,98.516,0.946679,0.0,0.0
1716,428.75,76.6321,80.9141,129.136,98.8081,89.1397,0.00310834,0.510987,20.3812,98.2458,0.943507,0.0,0.0
1722,430.25,77.4511,81.72,129.778,98.8121,90.272,0.00319276,0.512458,20.3798,98.0556,0.828225,0.0,0.0
1728,431.75,77.7237,81.7374,137.315,98.7992,90.24,0.00318451,0.512309,20.3782,97.8054,0.830281,0.0,0.0
1734,433.25,77.6808,81.8252,131.184,98.8146,89.7473,0.00309576,0.512651,20.3766,97.6252,0.88186,0.0,0.0
1740,434.75,77.6681,82.1881,129.767,98.7976,89.3044,0.00296433,0.513823,20.3755,97.355,0.925614,0.0,0.0
1746,436.25,77.6757,81.9697,133.179,98.8041,89.6632,0.00287778,0.514887,20.3749,97.1448,0.889482,0.0,0.0
1752,437.75,77.8335,82.201,133.333,98.8024,89.48,0.00293356,0.515971,20.3734,96.8846,0.90807,0.0,0.0
1758,439.25,77.9817,82.2173,132.814,98.8101,89.0174,0.00307035,0.517698,20.3717,96.6644,0.956268,0.0,0.0
1764,440.75,78.0382,82.3398,135.004,98.7956,89.4002,0.00316183,0.519073,20.3705,96.5042,0.915604,0.0,0.0
1770,442.25,77.7699,82.3355,132.421,98.8053,89.2235,0.00311175,0.520397,20.368,96.274,0.934637,0.0,0.0
1776,443.75,78.179,82.5923,128.268,98.8061,88.8154,0.00301615,0.521273,20.3664,96.0739,0.976711,0.0,0.0
1782,445.25,78.1272,82.4128,134.027,98.8089,87.538,0.00289926,0.521211,20.3646,95.8337,1.10971,0.0,0.0
1788,446.75,78.2565,82.7095,129.597,98.8154,89.6556,0.00279715,0.521374,20.3635,95.6535,0.89131,0.0,0.0
1794,448.25,77.7694,82.6829,139.617,98.8033,89.2351,0.00276371,0.521475,20.3629,95.4333,0.933257,0.0,0.0
1800,449.75,78.3929,82.5509,137.293,98.8085,88.7329,0.00279788,0.520996,20.3626,95.2932,0.985458,0.0,0.0
1806,451.25,78.5064,83.0417,132.92,98.8142,88.9405,0.00288173,0.520766,20.3615,95.0229,0.964568,0.0,0.0
1812,452.75,78.302,82.7227,130.102,98.8105,88.0466,0.00296014,0.52088,20.3607,94.8728,1.05678,0.0,0.0
1818,454.25,78.8252,82.5417,132.014,98.8049,89.4247,0.00297372,0.520013,20.3604,94.6426,0.913961,0.0,0.0
1824,455.75,78.5172,83.0056,133.803,98.8121,89.1293,0.00295256,0.517784,20.3602,94.4825,0.944953,0.0,0.0
1830,457.25,78.455,82.4413,132.619,98.8008,88.781,0.00297124,0.514564,20.3603,94.2623,0.97978,0.0,0.0
1836,458.75,78.7303,82.8151,132.314,98.8089,88.9092,0.00303181,0.512257,20.3617,94.1222,0.967301,0.0,0.0
1842,460.25,78.2738,82.8207,131.709,98.7988,88.9461,0.00305517,0.511768,20.3648,93.892,0.962566,0.0,0.0
1848,461.75,78.2101,82.8274,141.712,98.8065,89.2171,0.00298453,0.511148,20.3682,93.7418,0.935409,0.0,0.0
1854,463.25,77.5851,82.0805,134.841,98.796,88.8964,0.00287344,0.50919,20.3703,93.5216,0.967424,0.0,0.0
1860,464.75,78.0793,82.7039,135.627,98.8134,90.0287,0.00283504,0.506504,20.3714,93.4015,0.853065,0.0,0.0
1866,466.25,77.923,82.5592,133.698,98.7988,89.9117,0.00288675,0.501067,20.3733,93.2114,0.863636,0.0,0.0
1872,467.75,77.5945,81.7054,140.979,98.8085,90.7987,0.00294168,0.494561,20.3769,93.0813,0.774585,0.0,0.0
1878,469.25,77.6575,82.2127,139.312,98.7948,90.8296,0.00296521,0.487015,20.3829,92.9011,0.770197,0.0,0.0
1884,470.75,77.4975,81.812,137.319,98.8125,90.7494,0.00296528,0.476748,20.3896,92.811,0.779936,0.0,0.0
1890,472.25,77.5983,81.7074,139.779,98.8045,91.9114,0.00293192,0.466707,20.3981,92.6509,0.662611,0.0,0.0
1896,473.75,77.353,81.8435,139.032,98.7996,92.6641,0.00283024,0.456301,20.4098,92.5708,0.587427,0.0,0.0
1902,475.25,77.0796,81.837,139.866,98.7911,92.6778,0.00259003,0.440608,20.4228,92.4007,0.585293,0.0,0.0
1908,476.75,76.064,81.0967,142.336,98.8045,93.3123,0.00239841,0.428947,20.4309,92.3406,0.524013,0.0,0.0
1914,478.25,76.1963,81.1439,138.5,98.794,94.6458,0.00218748,0.412422,20.4429,92.2205,0.393022,0.0,0.0
1920,479.75,75.7501,80.2148,138.574,98.7996,94.7168,0.00205886,0.395645,20.4591,92.1304,0.386682,0.0,0.0
1926,481.25,75.312,79.7735,141.912,98.802,95.4783,0.00193861,0.376905,20.4811,92.0704,0.313531,0.0,0.0
1932,482.75,75.2624,79.7592,143.299,98.7875,95.7834,0.00176439,0.357998,20.4977,91.9803,0.282957,0.0,0.0
1938,484.25,74.238,79.2023,143.211,98.7956,96.5814,0.0015591,0.340433,20.5153,91.9503,0.207683,0.0,0.0
1944,485.75,73.4666,78.4423,143.269,98.7871,97.5005,0.00140965,0.323446,20.5323,91.8902,0.120116,0.0,0.0
1950,487.25,73.1374,77.9606,146.443,98.7956,97.7835,0.00133075,0.3023,20.5579,91.8702,0.0943487,0.0,0.0
1956,488.75,72.8521,77.3467,146.832,98.7883,97.935,0.00131891,0.281582,20.5847,91.8001,0.0794882,0.0,0.0
1962,490.25,71.9003,76.6983,144.695,98.7984,98.0119,0.00130558,0.261261,20.6093,91.7901,0.0732274,0.0,0.0
1968,491.75,71.3705,75.9721,146.499,98.8016,97.9534,0.0012652,0.242133,20.6373,91.7201,0.0789998,0.0,0.0
1974,493.25,70.6994,76.0327,145.424,98.8045,97.9907,0.00120582,0.222664,20.6648,91.7501,0.0757755,0.0,0.0
1980,494.75,69.3231,74.5964,150.039,98.7936,97.9294,0.0011035,0.207707,20.6862,91.67,0.0805006,0.0,0.0
1986,496.25,69.8179,74.5062,141.631,98.7948,98.0436,0.000961397,0.191831,20.7108,91.67,0.0699306,0.0,0.0
1992,497.75,69.1515,74.0657,147.434,98.7863,97.9995,0.000927835,0.179226,20.7299,91.65,0.0732653,0.0,0.0
1998,499.25,68.6964,73.8204,144.793,98.8028,98.064,0.000977721,0.168722,20.7458,91.67,0.0687707,0.0,0.0
2004,500.75,68.1908,72.6874,146.485,98.7923,97.8697,0.0010732,0.160624,20.7607,91.6,0.0859774,0.0,0.0
2010,502.25,66.2468,71.2222,149.874,98.8004,97.9843,0.00112846,0.154623,20.7744,91.63,0.0760009,0.0,0.0
2016,503.75,67.491,71.7401,143.744,98.8041,97.949,0.00113819,0.150424,20.785,91.5499,0.0796376,0.0,0.0
2022,505.25,66.61,70.9622,152.58,98.8016,97.9703,0.00115856,0.14737,20.7919,91.59,0.0774252,0.0,0.0
2028,506.75,65.918,69.9844,145.003,98.7903,97.9141,0.00122144,0.144656,20.797,91.5099,0.0816254,0.0,0.0
2034,508.25,66.4698,70.3792,145.406,98.8016,97.9077,0.00132262,0.142026,20.8022,91.5599,0.0832751,0.0,0.0
2040,509.75,65.3916,69.4908,144.129,98.7818,97.9867,0.00138216,0.140069,20.8054,91.4799,0.0740519,0.0,0.0
2046,511.25,65.3021,69.3193,142.809,98.8113,97.8841,0.00141336,0.138315,20.8092,91.5099,0.0863875,0.0,0.0
2052,512.75,64.9815,69.1603,149.281,98.7895,97.8861,0.00144228,0.136954,20.8117,91.4498,0.0841767,0.0,0.0
2058,514.25,64.5936,68.711,147.185,98.7923,97.9246,0.00146145,0.135933,20.8137,91.4598,0.0808384,0.0,0.0
2064,515.75,63.7688,68.1217,149.086,98.7875,97.9406,0.00146339,0.135105,20.816,91.4198,0.0788872,0.0,0.0
2070,517.25,63.1812,67.3189,149.735,98.7944,98.0107,0.0014501,0.134045,20.8181,91.4198,0.0729651,0.0,0.0
2076,518.75,62.7317,66.7144,148.382,98.798,97.9987,0.00141591,0.133107,20.82,91.3898,0.0744268,0.0,0.0
2082,520.25,62.969,66.7871,145.932,98.7879,97.9394,0.00138722,0.131962,20.8213,91.3798,0.0790377,0.0,0.0
2088,521.75,62.0388,66.2687,150.703,98.7923,97.9282,0.00138965,0.130576,20.822,91.3798,0.0805006,0.0,0.0
2094,523.25,61.8351,65.622,146.235,98.7895,97.931,0.00143291,0.129463,20.8233,91.3397,0.0799755,0.0,0.0
2100,524.75,61.9122,65.2675,151.661,98.8028,97.8692,0.00144483,0.128473,20.8244,91.3597,0.0869891,0.0,0.0
2106,526.25,61.6648,65.2728,144.552,98.7879,97.9354,0.00140538,0.127556,20.8264,91.2997,0.0794124,0.0,0.0
2112,527.75,60.9247,64.9313,146.498,98.7927,97.8801,0.00134966,0.126984,20.828,91.3397,0.0850392,0.0,0.0
2118,529.25,61.0899,64.8555,148.324,98.7839,97.9546,0.00131655,0.126516,20.8288,91.2597,0.0772378,0.0,0.0
2124,530.75,60.7866,64.4146,146.745,98.7952,97.828,0.00132385,0.126277,20.8298,91.2997,0.0901424,0.0,0.0
2130,532.25,59.8992,62.952,148.25,98.7851,97.854,0.00137101,0.126537,20.8304,91.2196,0.0867662,0.0,0.0
2136,533.75,59.7854,63.3748,147.795,98.798,98.0356,0.0014264,0.12696,20.8307,91.2697,0.0709798,0.0,0.0
2142,535.25,59.1893,63.1467,148.104,98.7843,97.9835,0.00142745,0.127318,20.8308,91.1796,0.0745763,0.0,0.0
2148,536.75,58.9344,62.3972,147.358,98.7968,98.0115,0.00135935,0.127584,20.8309,91.2296,0.0731147,0.0,0.0
2154,538.25,59.2691,62.1233,144.263,98.7883,98.0512,0.00125488,0.127602,20.8309,91.1596,0.0686189,0.0,0.0
2160,539.75,58.4616,61.9039,149.181,98.8016,97.9911,0.00121814,0.127382,20.831,91.2096,0.0754765,0.0,0.0
2166,541.25,58.059,61.2226,148.739,98.7891,97.9666,0.00121657,0.126865,20.831,91.1195,0.0766009,0.0,0.0
2172,542.75,57.7915,60.8408,146.764,98.8113,98.1386,0.00123214,0.126406,20.831,91.1496,0.0625936,0.0,0.0
2178,544.25,57.9367,60.9446,147.555,98.7903,97.939,0.00133912,0.126384,20.831,91.0595,0.0793009,0.0,0.0
2184,545.75,57.5924,60.4259,145.786,98.802,98.1386,0.00155205,0.12625,20.831,91.1095,0.0617322,0.0,0.0
2190,547.25,57.0709,60.3517,145.632,98.7847,98.0821,0.00185789,0.125982,20.8314,91.0195,0.0653985,0.0,0.0
2196,548.75,57.0003,60.1666,149.846,98.8061,98.0949,0.00206688,0.125707,20.8323,91.0295,0.0661869,0.0,0.0
2202,550.25,56.9974,59.3244,145.682,98.7923,98.0765,0.00215727,0.125253,20.8328,90.9894,0.0666348,0.0,0.0
2208,551.75,56.9956,59.6577,151.68,98.794,98.0677,0.00219452,0.124661,20.833,90.9794,0.0676085,0.0,0.0
2214,553.25,56.3172,59.0419,145.636,98.7883,97.933,0.00221432,0.124064,20.8332,90.9094,0.0796755,0.0,0.0
2220,554.75,56.1495,58.4435,150.047,98.7988,98.042,0.00215809,0.123567,20.8332,90.9094,0.0704552,0.0,0.0
2226,556.25,56.2482,58.723,147.3,98.8008,97.8841,0.00208575,0.123458,20.8333,90.8893,0.0854136,0.0,0.0
2232,557.75,54.8393,58.2253,143.665,98.7992,98.1566,0.00208286,0.123254,20.8342,90.8593,0.0597857,0.0,0.0
2238,559.25,55.739,58.5982,147.45,98.8037,98.0416,0.00219791,0.122885,20.8349,90.8393,0.0709429,0.0,0.0
2244,560.75,55.3302,58.3135,146.08,98.8089,98.0172,0.00229828,0.122338,20.8352,90.8093,0.073715,0.0,0.0
2250,562.25,55.7459,57.4312,146.905,98.8,97.9222,0.00232266,0.122265,20.8354,90.8293,0.0817748,0.0,0.0
2256,563.75,55.0135,57.5897,148.383,98.7932,97.933,0.00228165,0.121931,20.8363,90.7792,0.080126,0.0,0.0
2262,565.25,55.1478,57.6386,147.157,98.8073,98.1819,0.00226427,0.121526,20.837,90.8193,0.0581784,0.0,0.0
2268,566.75,55.1232,57.0077,146.126,98.8033,98.0829,0.00230616,0.121254,20.8374,90.7292,0.0670479,0.0,0.0
2274,568.25,54.8621,57.1295,147.168,98.8134,98.0492,0.00241063,0.121067,20.8377,90.7792,0.0711304,0.0,0.0
2280,569.75,54.0945,56.4488,150.618,98.8016,98.1418,0.00253484,0.120991,20.8378,90.6992,0.0613948,0.0,0.0
2286,571.25,54.4657,56.7173,150.032,98.821,98.0103,0.00263738,0.120789,20.8378,90.7392,0.0754755,0.0,0.0
2292,572.75,54.3471,56.1896,148.001,98.8105,98.0412,0.00272305,0.120778,20.8379,90.6691,0.071617,0.0,0.0
2298,574.25,53.8792,56.3037,149.26,98.8255,97.848,0.00281786,0.120953,20.8381,90.7192,0.0910768,0.0,0.0
2304,575.75,54.1677,56.162,145.609,98.8077,97.9715,0.00293957,0.121205,20.8391,90.6291,0.0778747,0.0,0.0
2310,577.25,53.7092,55.5376,143.166,98.8307,98.1667,0.00303569,0.121331,20.8392,90.6892,0.0617735,0.0,0.0
2316,578.75,53.7657,55.4703,147.673,98.817,98.1017,0.0030633,0.12162,20.8389,90.6191,0.0665621,0.0,0.0
2322,580.25,53.9152,55.312,146.446,98.8271,98.1282,0.00300369,0.122064,20.8387,90.6591,0.0650276,0.0,0.0
2328,581.75,53.6274,55.3366,145.024,98.8259,98.2124,0.00293468,0.122348,20.8386,90.5691,0.0570594,0.0,0.0
2334,583.25,53.4423,55.0191,145.434,98.8315,97.9703,0.00292354,0.122378,20.8386,90.5991,0.0801985,0.0,0.0
2340,584.75,53.4697,55.0288,148.926,98.8158,98.0644,0.00293194,0.122116,20.8386,90.529,0.0699328,0.0,0.0
2346,586.25,52.5058,54.9939,149.007,98.8267,98.1995,0.00293196,0.12166,20.8386,90.5691,0.0583315,0.0,0.0
2352,587.75,52.7428,54.9036,148.687,98.8247,98.054,0.00293945,0.121665,20.8395,90.489,0.0717298,0.0,0.0
2358,589.25,52.5254,54.3166,146.614,98.8081,97.9931,0.00300793,0.122013,20.8401,90.499,0.0758882,0.0,0.0
2364,590.75,52.5907,54.5558,147.847,98.8206,98.0889,0.00308107,0.12225,20.8405,90.459,0.0680974,0.0,0.0
2370,592.25,52.6379,54.4511,147.031,98.8247,98.0272,0.00322886,0.122163,20.8406,90.469,0.0742394,0.0,0.0
2376,593.75,51.892,54.0007,145.588,98.8255,98.1354,0.00341353,0.121968,20.8407,90.459,0.0642055,0.0,0.0
2382,595.25,52.2634,54.0903,148.483,98.8251,97.9602,0.00364417,0.121851,20.8408,90.4189,0.0805352,0.0,0.0
2388,596.75,51.4078,53.2673,146.973,98.8202,98.1647,0.00381236,0.122043,20.8408,90.4189,0.0609858,0.0,0.0
2394,598.25,52.5585,53.9002,148.605,98.8323,98.2793,0.0038071,0.121919,20.8408,90.3989,0.0514164,0.0,0.0
2400,599.75,52.3104,53.3914,148.78,98.8295,98.1903,0.00372467,0.121739,20.8407,90.4289,0.0594536,0.0,0.0
2406,601.25,51.9574,53.559,148.48,98.8182,98.3029,0.00368893,0.121906,20.8403,90.3689,0.047901,0.0,0.0
2412,602.75,51.4824,53.083,144.419,98.8453,98.0693,0.00380618,0.122496,20.8401,90.4289,0.0722174,0.0,0.0
2418,604.25,50.8035,52.5751,148.25,98.8239,98.0404,0.00400943,0.122641,20.84,90.3589,0.0729283,0.0,0.0
2424,605.75,51.4765,53.0077,149.927,98.8352,98.0244,0.00416605,0.122491,20.8409,90.3989,0.0754755,0.0,0.0
2430,607.25,51.5341,53.2216,155.688,98.8283,97.9919,0.00431458,0.122274,20.8415,90.2988,0.0778747,0.0,0.0
2436,608.75,51.7143,52.9092,151.829,98.8299,98.1799,0.00444526,0.122139,20.8418,90.3689,0.0604639,0.0,0.0
2442,610.25,51.3539,52.7349,151.655,98.8214,98.1534,0.004551,0.122038,20.8419,90.2688,0.0621456,0.0,0.0
2448,611.75,51.6281,52.8068,145.498,98.8235,98.1093,0.00463342,0.121822,20.842,90.3288,0.0664494,0.0,0.0
2454,613.25,50.8528,52.2195,145.584,98.8166,98.1442,0.00468217,0.121533,20.8421,90.2488,0.0625578,0.0,0.0
2460,614.75,50.4098,52.5719,149.602,98.8263,98.0705,0.00469635,0.121521,20.8421,90.2888,0.0703446,0.0,0.0
2466,616.25,51.2183,52.0994,144.796,98.8012,98.1466,0.00471018,0.121568,20.8421,90.21875,0.0609088,0.0,0.0
2472,617.75,51.0129,52.1611,149.837,98.8186,98.125,0.00474627,0.121688,20.8421,90.2688,0.0645418,0.0,0.0
2478,619.25,51.1634,52.2214,148.557,98.8105,98.2701,0.00477519,0.121594,20.8421,90.1787,0.050252,0.0,0.0
2484,620.75,50.8651,51.8422,148.336,98.8069,98.0075,0.00478138,0.121258,20.8421,90.2288,0.0744268,0.0,0.0
2490,622.25,50.6613,51.8687,148.472,98.7968,98.0588,0.00479731,0.121048,20.8421,90.1487,0.0686948,0.0,0.0
2496,623.75,50.7397,51.7287,149.046,98.8057,98.02,0.00481773,0.121247,20.8424,90.1987,0.0731526,0.0,0.0
2502,625.25,50.2739,51.6351,151.393,98.7932,98.0548,0.00486497,0.121366,20.8433,90.1187,0.0687317,0.0,0.0
2508,626.75,50.3298,51.7175,146.862,98.7899,97.9318,0.00496749,0.121052,20.8441,90.1287,0.0799376,0.0,0.0
2514,628.25,50.3472,51.5357,150.516,98.8053,98.1326,0.00511889,0.120842,20.8446,90.0786,0.0625936,0.0,0.0
2520,629.75,49.6922,51.327,150.57,98.7984,98.1715,0.00527148,0.121069,20.8449,90.0786,0.0583261,0.0,0.0
2526,631.25,50.3643,51.2354,149.017,98.802,98.0961,0.00541556,0.121361,20.8451,90.0686,0.0657,0.0,0.0
2532,632.75,49.1668,50.8176,147.569,98.7891,98.1655,0.00550596,0.121182,20.8452,90.0486,0.0580254,0.0,0.0
2538,634.25,49.804,51.1906,147.481,98.7984,98.1438,0.00553809,0.121027,20.8452,90.0386,0.0609077,0.0,0.0
2544,635.75,49.7134,50.0664,150.898,98.7927,98.127,0.00554802,0.121228,20.8453,89.9785,0.0619557,0.0,0.0
2550,637.25,50.1725,50.8001,149.897,98.8028,98.1735,0.00554661,0.121521,20.844,90.0486,0.0585518,0.0,0.0
2556,638.75,49.3209,51.0549,148.443,98.7927,98.2043,0.00557289,0.121668,20.8431,89.9886,0.0547351,0.0,0.0
2562,640.25,49.8283,50.7381,149.109,98.8093,98.0733,0.00566263,0.121571,20.8427,90.0286,0.0685083,0.0,0.0
2568,641.75,50.0478,50.6843,149.226,98.7944,98.0163,0.00576546,0.121446,20.8424,89.9485,0.0724407,0.0,0.0
2574,643.25,48.6355,49.6859,150.799,98.8146,98.1831,0.00584127,0.121204,20.8423,90.0086,0.0587406,0.0,0.0
2580,644.75,49.628,50.5306,146.313,98.8073,98.1398,0.00590736,0.120963,20.8422,89.9585,0.0621065,0.0,0.0
2586,646.25,49.3526,50.4399,148.405,98.8105,98.3474,0.00595214,0.120928,20.8422,89.9886,0.0430428,0.0,0.0
2592,647.75,49.3562,50.2663,149.104,98.7948,98.2003,0.00594768,0.121097,20.843,89.9085,0.0552964,0.0,0.0
2598,649.25,49.1611,50.3018,148.922,98.8105,98.2629,0.00595084,0.121147,20.8447,89.9886,0.0509255,0.0,0.0
2604,650.75,49.4337,50.0528,152.942,98.7988,98.1783,0.00598447,0.120924,20.8457,89.8785,0.057728,0.0,0.0
2610,652.25,48.9384,49.6433,152.803,98.8174,98.0685,0.00599545,0.120495,20.8462,89.9385,0.0697073,0.0,0.0
2616,653.75,49.5164,50.0394,150.455,98.8004,98.0957,0.00597998,0.120254,20.8464,89.8484,0.0655872,0.0,0.0
2622,655.25,48.7579,49.3994,149.337,98.8093,98.1298,0.00601765,0.120452,20.8466,89.9185,0.0632293,0.0,0.0
2628,656.75,48.9551,49.7723,148.608,98.8,98.0168,0.00617585,0.120646,20.8467,89.8084,0.0729272,0.0,0.0
2629,657,49.2942,49.9133,147.173,98.8089,98.2556,0.00620203,0.12067,20.8467,89.8384,0.0514479,0.0,0.0