File: 01_Data/Countertop_Plastic_Laminate/Cone/Countertop_Plastic_Laminate_Cone_HF75Scan_220504_R1.csv
Names,Time,Stack TC,Smoke TC,Exh Press,Smoke Comp,Smoke Meas,CO Meter,CO2 Meter,O2 Meter,Sample Mass,Ext Coeff,Start Test,Flame Verif
Chan Gain,,500,500,1,1,1,1,1,1,1,1,1.0,1.0
Offset,,0,0,0.138628,0,0,0,0,0,0,0,0.0,0.0
Gain,,1,1,25.011,13.1256,14.6231,1,1,1,1.001,0.958019,1.0,1.0
Units,sec,C,C,Pa,%,%,%,%,%,g,/m,,
Baseline,,47.6666,49.573,129.748,98.1625,101.56,0.00033567,0.042439,21.0037,-446.626,-0.285846,,
28,6.75,44.1738,46.3144,128.012,98.3232,101.869,0.000150223,0.0468694,20.9968,741.423,-0.297755,0.0,0.0
56,13.75,46.1985,47.3404,118.682,98.3753,104.782,0.0021549,0.0941966,20.8211,740.772,-0.530184,0.0,1.0
84,20.75,47.1683,48.5615,126.632,98.4382,89.8936,0.00813914,0.125823,20.8867,739.951,0.763077,0.0,0.0
112,27.75,51.0374,51.2713,117.22,98.5175,103.837,0.00694767,0.213264,20.6263,739.081,-0.441897,0.0,0.0
140,34.75,56.2298,56.3065,114.508,98.6012,103.046,0.0040562,0.313508,20.5527,738.059,-0.370515,0.0,0.0
168,41.75,60.403,61.0375,120.619,98.6797,98.045,0.00531885,0.372834,20.5421,737.048,0.0542322,0.0,0.0
196,48.75,61.559,63.2198,119.03,98.7619,100.46,0.00421056,0.339169,20.6819,736.328,-0.143279,0.0,0.0
224,55.75,61.2324,63.8139,123.81,98.8135,102.977,0.00298291,0.289812,20.7674,735.857,-0.34687,0.0,0.0
252,62.75,61.1943,63.4318,121.011,98.8135,101.574,0.00279463,0.246975,20.811,735.417,-0.231547,0.0,0.0
280,69.75,60.4129,63.2028,121.313,98.838,103.384,0.0028646,0.224776,20.8185,734.976,-0.377904,0.0,0.0
308,76.75,60.5932,62.9034,121.618,98.8732,101.73,0.00327833,0.219012,20.8047,734.496,-0.23935,0.0,0.0
336,83.75,60.7308,63.4674,124.689,98.9165,97.326,0.00408758,0.222866,20.7822,733.935,0.136217,0.0,0.0
364,90.75,60.8532,64.2587,122.762,98.9437,95.1242,0.00507267,0.235827,20.7531,733.475,0.330835,0.0,0.0
392,97.75,61.6098,64.3953,121.561,98.9729,96.2532,0.00560928,0.252683,20.7238,732.744,0.23416,0.0,0.0
420,104.75,62.432,65.1683,120.798,99.0322,95.2964,0.00600913,0.270122,20.6993,732.104,0.323145,0.0,0.0
448,111.75,63.1633,66.3983,124.933,99.0763,96.2537,0.00651631,0.287997,20.6851,731.333,0.242892,0.0,0.0
476,118.75,64.6411,67.807,118.004,99.1524,95.4919,0.00750729,0.309159,20.6567,730.652,0.316118,0.0,0.0
504,125.75,65.3049,68.9824,118.12,99.2165,96.0765,0.00844587,0.329163,20.6375,729.731,0.270258,0.0,0.0
532,132.75,66.5985,69.4867,114.817,99.2698,97.0114,0.00837496,0.349347,20.6192,728.9,0.193388,0.0,0.0
560,139.75,67.8018,71.1866,117.324,99.3266,96.7026,0.00877833,0.364924,20.6078,727.969,0.224995,0.0,0.0
588,146.75,69.3739,72.1972,117.474,99.3615,97.0726,0.00975831,0.37684,20.6034,727.109,0.195855,0.0,0.0
616,153.75,70.2774,73.7647,117.701,99.3679,98.4225,0.0100649,0.385466,20.5972,726.087,0.0803365,0.0,0.0
644,160.75,71.2226,74.5598,118.203,99.3731,99.2418,0.00988278,0.387171,20.6024,725.197,0.0111076,0.0,0.0
672,167.75,72.1435,75.2252,121.444,99.3791,99.4279,0.010099,0.386985,20.6032,724.216,-0.00412691,0.0,0.0
700,174.75,71.6031,76.0283,115.486,99.3927,100.67,0.00940861,0.387724,20.6045,723.195,-0.107332,0.0,0.0
728,181.75,72.8689,76.6322,115.054,99.3715,98.7398,0.00985876,0.385117,20.6092,722.214,0.0535932,0.0,0.0
756,188.75,73.1304,77.4655,117.639,99.3687,100.116,0.00929226,0.378717,20.621,721.243,-0.0629683,0.0,0.0
784,195.75,73.3927,78.172,118.124,99.3671,100.223,0.00873812,0.372279,20.6291,720.282,-0.0720517,0.0,0.0
812,202.75,74.1042,77.7762,116.286,99.3343,101.851,0.00753915,0.363573,20.6353,719.341,-0.210275,0.0,0.0
840,209.75,73.8789,78.2446,115.983,99.3142,101.663,0.00715471,0.358862,20.6435,718.44,-0.196454,0.0,0.0
868,216.75,74.3545,78.4562,113.94,99.2786,102.09,0.00705831,0.352804,20.6529,717.599,-0.2347,0.0,0.0
896,223.75,74.2822,78.8795,114.653,99.2185,102.742,0.00558491,0.346634,20.658,716.718,-0.293286,0.0,0.0
924,230.75,74.2549,78.7056,115.169,99.1372,102.949,0.0049904,0.34153,20.6605,715.917,-0.317095,0.0,0.0
952,237.75,74.1792,78.6167,120.765,99.0627,102.911,0.00428349,0.33635,20.6658,715.066,-0.320279,0.0,0.0
980,244.75,73.8375,78.5053,121.327,98.9437,102.924,0.00358639,0.330279,20.6715,714.216,-0.331434,0.0,0.0
1008,251.75,73.9598,79.0998,115.079,98.8952,103.196,0.00356944,0.328657,20.6724,713.425,-0.357749,0.0,0.0
1036,258.75,73.9311,78.6414,117.06,98.8127,102.651,0.00352953,0.324726,20.6768,712.644,-0.320274,0.0,0.0
1064,265.75,74.6087,78.8951,118.754,98.7895,103.061,0.0030209,0.324074,20.6743,711.933,-0.355758,0.0,0.0
1092,272.75,74.07,78.5617,117.249,98.7558,103.235,0.00292196,0.322564,20.6744,711.132,-0.372801,0.0,0.0
1120,279.75,74.4204,78.6804,119.57,98.7907,104.075,0.00288756,0.319282,20.6806,710.452,-0.437927,0.0,0.0
1148,286.75,73.8706,79.0428,112.79,98.9505,102.952,0.00273417,0.317571,20.6797,709.751,-0.333151,0.0,0.0
1176,293.75,74.4613,78.9941,115.575,99.1324,104.239,0.00252232,0.314802,20.6828,709.09,-0.42209,0.0,0.0
1204,300.75,74.2581,78.9727,113.001,99.2794,103.831,0.00260213,0.312132,20.6878,708.44,-0.376724,0.0,0.0
1232,307.75,74.9045,79.3008,118.486,99.3939,104.51,0.00251997,0.311051,20.6911,707.699,-0.421827,0.0,0.0
1260,314.75,74.0532,78.2811,121.927,99.4733,104.607,0.00233684,0.307869,20.695,706.968,-0.422907,0.0,0.0
1288,321.75,74.2481,79.0185,120.413,99.5117,104.807,0.00213983,0.307083,20.6953,706.268,-0.435669,0.0,0.0
1316,328.75,73.9007,78.5128,116.778,99.5381,104.917,0.00239473,0.306247,20.6966,705.607,-0.442306,0.0,0.0
1344,335.75,74.3451,78.5802,113.522,99.5389,104.802,0.00227454,0.303725,20.7014,704.976,-0.432976,0.0,0.0
1372,342.75,73.7139,78.4624,120.621,99.5257,105.408,0.00173273,0.299367,20.7049,704.296,-0.482546,0.0,0.0
1400,349.75,73.9296,78.2719,117.158,99.5033,104.619,0.00245254,0.296785,20.7054,703.685,-0.421302,0.0,0.0
1428,356.75,74.1401,78.5982,116.675,99.4656,106.067,0.00212711,0.295298,20.7057,703.074,-0.540043,0.0,0.0
1456,363.75,73.6172,78.1869,117.891,99.4096,104.965,0.00189237,0.291841,20.7115,702.434,-0.456957,0.0,0.0
1484,370.75,73.5208,77.9189,116.223,99.3391,104.513,0.00208748,0.287462,20.7171,701.853,-0.426683,0.0,0.0
1512,377.75,73.2546,77.6968,119.367,99.2493,105.33,0.00172934,0.286175,20.7192,701.213,-0.499723,0.0,0.0
1540,384.75,73.3152,78.036,120.653,99.1668,104.59,0.00191356,0.284202,20.7228,700.562,-0.447436,0.0,0.0
1568,391.75,73.2089,77.1746,119.664,99.0947,105.122,0.00182577,0.27956,20.7263,699.901,-0.496181,0.0,0.0
1596,398.75,73.4388,77.334,118.976,99.1332,104.593,0.00184246,0.27739,20.7289,699.311,-0.450503,0.0,0.0
1624,405.75,73.3411,77.4255,118.435,99.1456,105.074,0.00174803,0.274902,20.7323,698.77,-0.48805,0.0,0.0
1652,412.75,72.7085,76.7213,118.919,99.1808,105.772,0.00155843,0.271747,20.7362,698.19,-0.5407,0.0,0.0
1680,419.75,72.8309,76.933,118.529,99.2125,105.589,0.00173252,0.26946,20.7397,697.609,-0.523469,0.0,0.0
1708,426.75,72.5557,76.9483,118.819,99.2517,105.828,0.00150958,0.265772,20.745,697.048,-0.539161,0.0,0.0
1736,433.75,72.3603,76.3923,120.115,99.3054,105.415,0.00141943,0.261634,20.7493,696.508,-0.501739,0.0,0.0
1764,440.75,72.0308,76.0204,121.497,99.3531,105.634,0.00136533,0.25854,20.7529,695.937,-0.515155,0.0,0.0
1792,447.75,71.645,76.2067,116.476,99.4064,106.248,0.00139201,0.256378,20.7523,695.467,-0.559324,0.0,0.0
1820,454.75,71.7563,75.7724,116.828,99.4424,105.304,0.00153865,0.254391,20.7559,694.886,-0.481291,0.0,0.0
1848,461.75,71.7587,75.7719,122.979,99.4744,106.833,0.00171352,0.250838,20.7621,694.306,-0.599752,0.0,0.0
1876,468.75,71.2378,75.9215,124.087,99.5353,105.724,0.00159488,0.247307,20.7657,693.765,-0.506921,0.0,0.0
1904,475.75,71.3513,75.1741,120.146,99.6191,105.813,0.00149092,0.244182,20.7694,693.265,-0.506948,0.0,0.0
1932,482.75,70.8286,75.1136,119.079,99.6904,106.1,0.00140775,0.241314,20.7716,692.764,-0.523658,0.0,0.0
1960,489.75,71.1293,74.6794,118.231,99.7552,106.854,0.00140517,0.23889,20.7762,692.224,-0.577715,0.0,0.0
1988,496.75,71.0864,74.6746,122.116,99.8197,106.099,0.00141078,0.236074,20.7784,691.753,-0.512689,0.0,0.0
2016,503.75,70.8506,74.8262,118.41,99.8662,106.195,0.0011259,0.234239,20.7803,691.182,-0.516408,0.0,0.0
2044,510.75,70.3993,74.447,115.555,99.9071,106.455,0.00139679,0.231668,20.7827,690.702,-0.533464,0.0,0.0
2072,517.75,70.9023,74.0022,119.493,99.9499,107.037,0.00151678,0.229905,20.7845,690.222,-0.575707,0.0,0.0
2100,524.75,70.704,73.9112,121.073,99.9591,105.568,0.00128995,0.22735,20.7872,689.781,-0.458829,0.0,0.0
2128,531.75,69.9793,73.8968,119.773,99.9699,107.504,0.00120523,0.225236,20.7928,689.251,-0.610627,0.0,0.0
2156,538.75,70.0174,73.0988,118.738,99.9884,106.619,0.00136044,0.222064,20.7976,688.71,-0.539581,0.0,0.0
2184,545.75,69.4899,72.7829,119.016,99.9727,106.112,0.00119981,0.220566,20.7988,688.19,-0.500876,0.0,0.0
2212,552.75,68.9202,72.5582,120.563,99.9403,107.653,0.00123262,0.219334,20.7979,687.749,-0.624728,0.0,0.0
2240,559.75,69.2434,72.6011,121.365,99.883,105.152,0.000977106,0.216973,20.8011,687.198,-0.431984,0.0,0.0
2268,566.75,69.1621,72.2982,116.206,99.7793,105.96,0.00092295,0.215051,20.8018,686.798,-0.50506,0.0,0.0
2296,573.75,68.261,72.1989,117.651,99.6643,105.929,0.00100047,0.214597,20.8013,686.288,-0.51227,0.0,0.0
2324,580.75,68.6439,72.1105,117.413,99.5369,107.184,0.00124913,0.213735,20.8042,685.887,-0.622021,0.0,0.0
2352,587.75,68.579,72.1586,126.149,99.4032,107.169,0.00128991,0.212623,20.8036,685.437,-0.63217,0.0,0.0
2380,594.75,68.2138,71.9125,124.588,99.2481,104.86,0.000881764,0.213564,20.8023,684.936,-0.46225,0.0,0.0
2408,601.75,68.5402,71.6386,119.724,99.0799,105.321,0.000704547,0.212336,20.8072,684.476,-0.513334,0.0,0.0
2436,608.75,68.4765,71.5515,123.286,98.9289,105.742,0.00104553,0.211872,20.8079,683.935,-0.559664,0.0,0.0
2464,615.75,67.8634,71.4656,123.01,98.7639,105.334,0.00172331,0.212039,20.8058,683.445,-0.541215,0.0,0.0
2492,622.75,68.1692,70.9773,120.708,98.6341,105.489,0.00134195,0.211,20.8055,682.984,-0.564612,0.0,0.0
2520,629.75,68.208,71.4695,119.251,98.5179,105.708,0.00144848,0.211532,20.8063,682.534,-0.591987,0.0,0.0
2548,636.75,68.0524,71.2862,121.365,98.3981,105.449,0.00127049,0.210993,20.8065,682.003,-0.581608,0.0,0.0
2576,643.75,68.0774,71.5356,120.393,98.3232,105.776,0.00116669,0.210405,20.8066,681.563,-0.613965,0.0,0.0
2604,650.75,68.0995,71.1381,119.95,98.2824,103.974,0.00124158,0.210452,20.8044,681.112,-0.47313,0.0,0.0
2632,657.75,67.9631,70.9504,119.082,98.2768,104.489,0.00116391,0.210499,20.805,680.632,-0.515059,0.0,0.0
2660,664.75,68.0281,71.0124,122.149,98.276,104.017,0.00118013,0.210082,20.8074,680.212,-0.477141,0.0,0.0
2688,671.75,67.9901,70.8482,116.914,98.3084,105.321,0.00119769,0.209599,20.8069,679.711,-0.579061,0.0,0.0
2716,678.75,67.4941,70.9235,121.432,98.3477,104.845,0.00113905,0.20945,20.807,679.19,-0.537627,0.0,0.0
2744,685.75,67.8601,71.1483,122.982,98.3949,105.458,0.00100975,0.209016,20.8078,678.68,-0.582557,0.0,0.0
2772,692.75,67.3618,70.7502,120.903,98.4442,104.659,0.00118989,0.209038,20.8098,678.229,-0.514417,0.0,0.0
2800,699.75,68.4259,71.0592,122.669,98.4967,105.105,0.00134637,0.209068,20.8119,677.709,-0.545696,0.0,0.0
2828,706.75,67.0953,70.481,122.257,98.5195,105.689,0.00110354,0.206901,20.8135,677.259,-0.590289,0.0,0.0
2856,713.75,67.8161,70.1269,122.078,98.5672,105.153,0.00130562,0.208486,20.8117,676.838,-0.543571,0.0,0.0
2884,720.75,67.7076,70.494,122.696,98.5936,104.61,0.00115885,0.208345,20.8136,676.348,-0.497801,0.0,0.0
2912,727.75,67.3122,70.3395,118.885,98.6257,105.655,0.00100481,0.207832,20.813,675.927,-0.578578,0.0,0.0
2940,734.75,67.8839,70.5411,122.013,98.6841,105.167,0.00117227,0.20716,20.8145,675.437,-0.53471,0.0,0.0
2968,741.75,67.1705,70.3007,117.02,98.7675,105.487,0.00118178,0.207777,20.8133,674.956,-0.553147,0.0,0.0
2996,748.75,67.7402,70.3241,122.192,98.8147,106.134,0.00115714,0.207528,20.8132,674.476,-0.600484,0.0,0.0
3024,755.75,67.1974,70.2895,119.748,98.87,105.624,0.00161253,0.207114,20.8146,674.025,-0.555335,0.0,0.0
3052,762.75,68.0493,71.041,120.649,98.9149,105.89,0.00124785,0.206663,20.8178,673.525,-0.572621,0.0,0.0
3080,769.75,67.6319,70.8791,121.244,98.9882,105.927,0.000866604,0.205559,20.8199,673.034,-0.569334,0.0,0.0
3108,776.75,67.2388,70.4556,123.312,99.0575,106.628,0.00101535,0.205088,20.8197,672.574,-0.618925,0.0,0.0
3136,783.75,67.2374,70.2736,119.972,99.1184,105.696,0.00116254,0.204658,20.8149,672.103,-0.539966,0.0,0.0
3164,790.75,66.9923,69.9097,121.704,99.1949,105.111,0.00112324,0.205103,20.8145,671.693,-0.486801,0.0,0.0
3192,797.75,67.1391,70.4321,121.475,99.2489,106.318,0.000980963,0.204439,20.8175,671.203,-0.578183,0.0,0.0
3220,804.75,66.8087,69.8715,118.519,99.2846,105.436,0.000913425,0.204453,20.8172,670.792,-0.505173,0.0,0.0
3248,811.75,66.8294,70.0097,120.828,99.3367,106.643,0.0010327,0.204225,20.8184,670.292,-0.596398,0.0,0.0
3276,818.75,67.294,69.928,117.901,99.3611,106.2,0.00120741,0.204133,20.8185,669.861,-0.559409,0.0,0.0
3304,825.75,66.8995,69.8991,119.431,99.3959,105.121,0.0010098,0.204646,20.8178,669.341,-0.47064,0.0,0.0
3332,832.75,66.8239,69.8163,117.004,99.4148,107.005,0.00115235,0.203939,20.8188,668.89,-0.618336,0.0,0.0
3360,839.75,67.211,70.1458,118.871,99.4288,105.814,0.000992923,0.204165,20.8181,668.42,-0.523049,0.0,0.0
3388,846.75,67.3108,69.8449,119.985,99.4564,106.18,0.00109822,0.203304,20.8196,667.989,-0.549726,0.0,0.0
3416,853.75,67.2206,69.7238,125.535,99.4805,106.66,0.00114879,0.203028,20.8182,667.539,-0.585649,0.0,0.0
3444,860.75,66.7507,69.9516,123.154,99.4929,106.384,0.00116479,0.20353,20.8188,667.058,-0.562773,0.0,0.0
3472,867.75,66.3692,69.9182,120.094,99.4937,106.435,0.0011847,0.203039,20.8202,666.578,-0.566723,0.0,0.0
3500,874.75,66.8993,69.8197,117.609,99.4881,106.888,0.00120346,0.202734,20.8195,666.117,-0.602919,0.0,0.0
3528,881.75,66.9435,69.6525,120.574,99.4837,106.516,0.00120079,0.203658,20.8185,665.727,-0.573978,0.0,0.0
3556,888.75,66.8036,69.6139,124.012,99.45,105.597,0.00126276,0.202577,20.8213,665.257,-0.504048,0.0,0.0
3584,895.75,66.6739,69.4961,122.56,99.4184,105.789,0.00117004,0.201566,20.822,664.776,-0.521944,0.0,0.0
3612,902.75,66.4978,69.5446,121.527,99.3727,106.201,0.000974724,0.203841,20.8181,664.296,-0.558462,0.0,0.0
3640,909.75,66.9108,69.8942,119.519,99.3282,106.698,0.00115372,0.203347,20.8209,663.815,-0.60147,0.0,0.0
3668,916.75,66.2577,69.6835,121.547,99.293,107.049,0.0012103,0.201909,20.8229,663.385,-0.632033,0.0,0.0
3696,923.75,66.5318,69.8605,120.553,99.2413,106.45,0.000875903,0.201834,20.8209,662.924,-0.589297,0.0,0.0
3724,930.75,66.43,69.3551,122.598,99.1901,105.396,0.00113984,0.202123,20.82,662.454,-0.510012,0.0,0.0
3752,937.75,66.1884,69.6715,121.656,99.1324,105.795,0.0012375,0.201354,20.8199,661.983,-0.546651,0.0,0.0
3780,944.75,66.2578,69.0304,123.279,99.0651,106.59,0.00125533,0.201532,20.8193,661.553,-0.61522,0.0,0.0
3808,951.75,65.6492,69.1534,119.806,98.9802,106.432,0.00124659,0.20053,20.8233,661.132,-0.609962,0.0,0.0
3836,958.75,66.8546,69.4081,123.794,98.9185,105.312,0.00124752,0.200841,20.8195,660.702,-0.526325,0.0,0.0
3864,965.75,66.8535,68.8197,121.024,98.8904,105.72,0.00106058,0.200852,20.8221,660.201,-0.561193,0.0,0.0
3892,972.75,66.4824,69.6673,120.583,98.8464,105.246,0.00131434,0.200377,20.8236,659.841,-0.527216,0.0,0.0
3920,979.75,66.0515,68.8902,121.985,98.8191,105.79,0.00119608,0.199335,20.8228,659.311,-0.572857,0.0,0.0
3948,986.75,65.8527,69.292,119.518,98.8027,105.564,0.00119287,0.200489,20.8214,658.8,-0.556226,0.0,0.0
3976,993.75,66.4053,69.2027,119.357,98.8884,106.404,0.000847559,0.199854,20.8223,658.41,-0.615569,0.0,0.0
4004,1000.75,66.2049,69.0978,123.064,98.9325,105.778,0.00121436,0.200376,20.8234,657.939,-0.56223,0.0,0.0
4032,1007.75,66.1793,68.3896,121.645,98.9417,105.653,0.00131432,0.199724,20.8247,657.459,-0.551514,0.0,0.0
4060,1014.75,66.1425,68.8652,119.863,98.9994,105.681,0.00129383,0.200627,20.8213,657.038,-0.548817,0.0,0.0
4088,1021.75,66.3013,68.9813,125.58,99.0699,105.539,0.00121102,0.198739,20.8248,656.598,-0.531542,0.0,0.0
4116,1028.75,65.9678,69.0122,120.314,99.17,106.628,0.00125968,0.197199,20.8263,656.187,-0.609346,0.0,0.0
4144,1035.75,66.1265,68.7904,119.64,99.2798,106.474,0.00124757,0.200456,20.823,655.727,-0.587909,0.0,0.0
4172,1042.75,66.1456,68.6187,124.196,99.3599,106.161,0.00112135,0.198689,20.8273,655.327,-0.556403,0.0,0.0
4200,1049.75,66.348,68.7608,120.767,99.4336,106.485,0.00108088,0.198867,20.824,654.776,-0.575779,0.0,0.0
4228,1056.75,66.2191,69.1194,122.187,99.4989,106.692,0.00111432,0.19911,20.8247,654.346,-0.586588,0.0,0.0
4256,1063.75,66.2573,68.7523,116.908,99.5478,106.084,0.000995487,0.197871,20.824,653.865,-0.534451,0.0,0.0
4284,1070.75,65.8056,69.1127,122.118,99.5582,106.742,0.0010502,0.198738,20.8258,653.475,-0.585484,0.0,0.0
4312,1077.75,65.8112,69.23,120.97,99.5662,107.267,0.00150516,0.198933,20.8257,652.984,-0.626094,0.0,0.0
4340,1084.75,66.01,68.7815,122.609,99.5758,105.873,0.00123884,0.197723,20.8276,652.544,-0.515311,0.0,0.0
4368,1091.75,66.6803,69.2515,118.636,99.5894,106.448,0.00103688,0.199743,20.8242,652.113,-0.559697,0.0,0.0
4396,1098.75,66.6932,69.1705,120.713,99.5946,106.493,0.000988797,0.199245,20.8257,651.733,-0.56278,0.0,0.0
4424,1105.75,66.0413,69.2252,119.116,99.6239,106.434,0.00105657,0.198852,20.8279,651.303,-0.555698,0.0,0.0
4452,1112.75,66.2651,69.2066,118.303,99.6343,107.474,0.000968721,0.198761,20.8271,650.802,-0.636554,0.0,0.0
4480,1119.75,65.9176,68.1047,124.35,99.5822,106.067,0.00105603,0.198038,20.8301,650.402,-0.530129,0.0,0.0
4508,1126.75,66.3996,69.0371,121.914,99.5037,106.168,0.00142568,0.198639,20.8265,649.931,-0.544815,0.0,0.0
4536,1133.75,66.2738,68.8658,123.779,99.4128,106.158,0.00141622,0.199529,20.8238,649.461,-0.551685,0.0,0.0
4564,1140.75,66.1287,69.016,118.584,99.3339,105.582,0.00124192,0.199696,20.8247,649.01,-0.512627,0.0,0.0
4592,1147.75,66.4193,68.9115,121.291,99.2557,106.089,0.00125249,0.200085,20.8224,648.55,-0.559527,0.0,0.0
4620,1154.75,66.1258,68.8824,120.167,99.1929,106.593,0.00109034,0.200264,20.8234,648.099,-0.604633,0.0,0.0
4648,1161.75,65.8808,68.9855,120.812,99.166,106.661,0.000869486,0.199415,20.8255,647.679,-0.612324,0.0,0.0
4676,1168.75,66.0676,68.8095,119.984,99.2001,106.812,0.0010575,0.200492,20.8261,647.258,-0.621314,0.0,0.0
4704,1175.75,65.9275,68.9705,121.849,99.2437,106.726,0.00122506,0.199524,20.8263,646.838,-0.610837,0.0,0.0
4732,1182.75,65.7831,68.5561,118.699,99.2818,106.717,0.00125045,0.199639,20.8266,646.358,-0.606878,0.0,0.0
4760,1189.75,66.4417,68.8502,119.512,99.3343,106.463,0.00108829,0.201114,20.8233,645.937,-0.582419,0.0,0.0
4788,1196.75,66.0902,69.409,120.793,99.3843,106.474,0.00117719,0.201067,20.8231,645.517,-0.579064,0.0,0.0
4816,1203.75,65.6648,68.7623,122.346,99.4556,106.505,0.00129668,0.201205,20.8208,644.996,-0.575467,0.0,0.0
4844,1210.75,66.1388,69.23,124.283,99.5117,106.815,0.00147427,0.20098,20.8231,644.566,-0.595167,0.0,0.0
4872,1217.75,66.3308,69.3133,121.197,99.6271,107.039,0.00113193,0.20204,20.8195,644.035,-0.603072,0.0,0.0
4900,1224.75,66.0155,69.2639,119.811,99.6972,107.167,0.00114688,0.203073,20.8186,643.625,-0.607175,0.0,0.0
4928,1231.75,66.0523,69.1407,123.533,99.7504,106.368,0.00114003,0.20334,20.8187,643.154,-0.539777,0.0,0.0
4956,1238.75,65.7076,68.877,116.685,99.8037,106.376,0.00133245,0.204859,20.8179,642.714,-0.535924,0.0,0.0
4984,1245.75,66.1234,69.3188,121.386,99.8498,107.399,0.00113181,0.204118,20.8184,642.253,-0.612499,0.0,0.0
5012,1252.75,66.3518,68.9834,119.428,99.9247,107.431,0.0010165,0.206247,20.8186,641.883,-0.60871,0.0,0.0
5040,1259.75,66.4095,69.3919,119.609,99.9788,107.556,0.00107254,0.206376,20.8187,641.393,-0.613932,0.0,0.0
5068,1266.75,66.2891,68.8107,119.463,100.018,107.968,0.00133015,0.207286,20.8154,640.962,-0.642754,0.0,0.0
5096,1273.75,66.3585,69.4085,120.349,100.042,106.716,0.00125791,0.209368,20.8119,640.472,-0.542701,0.0,0.0
5124,1280.75,66.6293,69.3722,120.908,100.072,106.729,0.00122186,0.209164,20.8111,639.991,-0.54123,0.0,0.0
5152,1287.75,66.6983,69.6114,120.405,100.067,107.578,0.00104482,0.211134,20.8096,639.501,-0.608238,0.0,0.0
5180,1294.75,66.8023,69.7007,122.437,100.07,107.146,0.00107614,0.212261,20.8092,639.06,-0.574121,0.0,0.0
5208,1301.75,67.1662,69.6724,122.895,100.03,107.467,0.000883644,0.213925,20.8056,638.57,-0.602682,0.0,0.0
5236,1308.75,67.0324,69.6312,117.412,99.9948,107.556,0.000961667,0.215266,20.8039,638.049,-0.612551,0.0,0.0
5264,1315.75,66.7392,69.1355,122.574,99.9868,106.554,0.00121596,0.214891,20.8046,637.589,-0.534614,0.0,0.0
5292,1322.75,66.7735,69.6234,120.918,99.9479,106.958,0.00125906,0.216274,20.802,637.128,-0.569672,0.0,0.0
5320,1329.75,67.3141,69.8716,123.543,99.8566,107.486,0.00146386,0.218972,20.8016,636.678,-0.618732,0.0,0.0
5348,1336.75,67.3746,70.5367,118.514,99.7548,106.352,0.00119516,0.218991,20.7988,636.237,-0.538171,0.0,0.0
5376,1343.75,67.385,69.7971,120.43,99.6118,106.809,0.00163173,0.219459,20.7979,635.707,-0.586222,0.0,0.0
5404,1350.75,66.9463,70.5167,120.95,99.4628,106.214,0.00122531,0.221395,20.7941,635.186,-0.551903,0.0,0.0
5432,1357.75,67.46,70.3667,119.186,99.2978,106.37,0.0013509,0.222404,20.7936,634.676,-0.578137,0.0,0.0
5460,1364.75,67.3885,70.5256,122.415,99.1616,106.436,0.00104716,0.223497,20.7922,634.175,-0.594888,0.0,0.0
5488,1371.75,67.9358,70.4841,118.943,99.0787,105.631,0.0010272,0.224389,20.7908,633.615,-0.538148,0.0,0.0
5516,1378.75,67.4095,70.4923,119.386,98.9701,105.887,0.00126701,0.225451,20.788,633.144,-0.567714,0.0,0.0
5544,1385.75,67.7522,70.735,120.526,98.8592,106.051,0.00141261,0.228583,20.7891,632.654,-0.590128,0.0,0.0
5572,1392.75,67.5483,70.4637,121.071,98.7939,107.037,0.00108142,0.229898,20.7893,632.223,-0.673436,0.0,0.0
5600,1399.75,68.3348,71.1132,121.777,98.7206,105.431,0.00119815,0.230645,20.7909,631.683,-0.552691,0.0,0.0
5628,1406.75,68.2578,71.2417,120.705,98.6889,106.313,0.000892956,0.230168,20.7906,631.212,-0.625345,0.0,0.0
5656,1413.75,67.9201,71.6583,114.943,98.6161,105.154,0.00124541,0.234795,20.7813,630.642,-0.539477,0.0,0.0
5684,1420.75,68.5241,72.0227,115.28,98.568,105.108,0.00133997,0.235127,20.7836,630.111,-0.539899,0.0,0.0
5712,1427.75,68.1801,71.6321,121.015,98.5363,104.512,0.00126066,0.237338,20.7814,629.601,-0.494758,0.0,0.0
5740,1434.75,68.5874,71.9877,118.319,98.5119,105.027,0.00105581,0.239269,20.7794,629.04,-0.53815,0.0,0.0
5768,1441.75,69.0839,72.0012,119.671,98.4879,105.727,0.00133251,0.240829,20.7768,628.51,-0.59604,0.0,0.0
5796,1448.75,69.1733,71.9468,121.133,98.4718,105.471,0.00123375,0.242614,20.7762,627.999,-0.577058,0.0,0.0
5824,1455.75,69.116,71.6254,118.355,98.4871,105.675,0.00111463,0.244118,20.7749,627.469,-0.591957,0.0,0.0
5852,1462.75,69.3278,72.4299,119.744,98.469,105.24,0.00125132,0.247623,20.7692,626.938,-0.558822,0.0,0.0
5880,1469.75,69.6498,72.9835,119.19,98.4763,106.048,0.00122113,0.248259,20.7703,626.418,-0.622531,0.0,0.0
5908,1476.75,69.8561,73.128,122.745,98.5027,105.912,0.00101721,0.249039,20.7679,625.877,-0.609483,0.0,0.0
5936,1483.75,69.7108,72.8317,121.818,98.5103,105.235,0.00114498,0.251657,20.7631,625.327,-0.554911,0.0,0.0
5964,1490.75,69.7809,72.9164,117.813,98.4807,105.386,0.0016489,0.254158,20.7596,624.756,-0.569547,0.0,0.0
5992,1497.75,69.8331,73.1783,117.172,98.471,104.813,0.00162334,0.255386,20.7587,624.125,-0.524551,0.0,0.0
6020,1504.75,70.0648,73.3028,118.255,98.4654,105.887,0.00129298,0.257076,20.752,623.585,-0.610643,0.0,0.0
6048,1511.75,70.6735,73.5225,122.455,98.431,105.681,0.00155543,0.261041,20.7487,623.034,-0.597205,0.0,0.0
6076,1518.75,70.5236,73.6426,118.348,98.4262,106.369,0.00177391,0.259576,20.7509,622.404,-0.652193,0.0,0.0
6104,1525.75,70.5068,73.8326,117.361,98.419,104.307,0.00165128,0.263324,20.747,621.923,-0.488287,0.0,0.0
6132,1532.75,70.8542,74.2986,116.656,98.4226,105.308,0.00153199,0.263913,20.7484,621.302,-0.56824,0.0,0.0
6160,1539.75,70.7763,74.2749,119.69,98.4178,106.357,0.00126136,0.264723,20.7479,620.732,-0.651995,0.0,0.0
6188,1546.75,71.0257,74.3659,120.205,98.4134,105.943,0.00128479,0.265963,20.7443,620.201,-0.619585,0.0,0.0
6216,1553.75,71.5723,74.5647,118.216,98.4158,105.587,0.00150289,0.267179,20.7429,619.661,-0.591049,0.0,0.0
6244,1560.75,71.4305,75.2163,117.944,98.3921,105.593,0.00156049,0.268008,20.7412,619.1,-0.593564,0.0,0.0
6272,1567.75,71.705,75.0185,114.034,98.3817,105.204,0.00143915,0.267253,20.7431,618.54,-0.563427,0.0,0.0
6300,1574.75,71.578,75.3756,117.846,98.3729,105.796,0.00117975,0.26619,20.7436,617.889,-0.611316,0.0,0.0
6328,1581.75,71.2584,75.4608,119.037,98.3765,104.878,0.0013056,0.264756,20.7442,617.349,-0.537773,0.0,0.0
6356,1588.75,71.6961,75.6388,119.461,98.3809,105.468,0.00148422,0.26559,20.7437,616.798,-0.584537,0.0,0.0
6384,1595.75,72.1502,75.1408,119.509,98.3989,105.132,0.00171234,0.262352,20.7479,616.247,-0.55625,0.0,0.0
6412,1602.75,71.5223,75.1922,119.187,98.3973,106.03,0.00134119,0.263796,20.7473,615.667,-0.627818,0.0,0.0
6440,1609.75,72.0563,75.4152,117.085,98.4318,106.353,0.00128274,0.259996,20.7515,615.156,-0.65048,0.0,0.0
6468,1616.75,71.7217,75.264,116.716,98.4538,105.873,0.00143487,0.259414,20.7524,614.646,-0.610572,0.0,0.0
6496,1623.75,71.2737,75.0288,117.183,98.4971,106.069,0.00141884,0.258237,20.7557,614.115,-0.622381,0.0,0.0
6524,1630.75,71.5779,75.1392,121.794,98.5347,106.45,0.001587,0.256314,20.7572,613.635,-0.64931,0.0,0.0
6552,1637.75,71.4484,75.5202,116.527,98.6052,106.357,0.00133424,0.254303,20.7577,613.074,-0.635933,0.0,0.0
6580,1644.75,71.5662,75.0469,122.967,98.6857,104.949,0.0014519,0.251881,20.7592,612.524,-0.517118,0.0,0.0
6608,1651.75,71.1834,74.6584,121.158,98.7362,106.219,0.00114618,0.251534,20.7609,611.953,-0.613874,0.0,0.0
6636,1658.75,71.4325,74.642,118.55,98.8175,106.757,0.00129891,0.250374,20.7604,611.463,-0.649463,0.0,0.0
6664,1665.75,71.4962,74.8831,117.974,98.8484,105.752,0.0011545,0.251516,20.7598,610.942,-0.567321,0.0,0.0
6692,1672.75,71.3194,75.2021,120.382,98.896,107.356,0.00121565,0.253263,20.7553,610.452,-0.689801,0.0,0.0
6720,1679.75,71.6132,74.9033,118.796,98.9053,105.876,0.00150063,0.252849,20.7544,609.911,-0.57234,0.0,0.0
6748,1686.75,70.9927,74.7421,119.915,98.9493,106.141,0.00138655,0.254075,20.7543,609.391,-0.589575,0.0,0.0
6776,1693.75,71.7473,75.0094,115.314,98.9918,106.805,0.00122895,0.257365,20.7508,608.89,-0.638416,0.0,0.0
6804,1700.75,71.3876,75.0694,119.381,99.0198,106.594,0.00104072,0.258264,20.7507,608.37,-0.619377,0.0,0.0
6832,1707.75,71.7795,74.8276,123.581,99.039,107.005,0.00128445,0.261033,20.7485,607.839,-0.650157,0.0,0.0
6860,1714.75,71.9235,75.4026,121.357,99.0434,106.551,0.00161809,0.263876,20.744,607.238,-0.613993,0.0,0.0
6888,1721.75,71.9259,74.9196,119.722,99.0459,106.526,0.00155881,0.26723,20.7396,606.678,-0.611818,0.0,0.0
6916,1728.75,71.9859,75.2538,118.024,99.0643,107.333,0.00129778,0.268393,20.7417,606.097,-0.673665,0.0,0.0
6944,1735.75,72.3209,75.3775,118.916,99.0955,106.031,0.00145881,0.270523,20.7364,605.497,-0.568471,0.0,0.0
6972,1742.75,72.5576,76.0057,119.728,99.0963,105.514,0.00152429,0.272433,20.7351,604.866,-0.527346,0.0,0.0
7000,1749.75,72.513,75.901,122.178,99.0963,106.922,0.000869015,0.275005,20.73,604.315,-0.63874,0.0,0.0
7028,1756.75,72.4189,75.7027,117.339,99.1043,106.322,0.00125255,0.275555,20.7314,603.775,-0.590789,0.0,0.0
7056,1763.75,72.3574,76.3144,119.306,99.1556,106.455,0.00148421,0.277824,20.7288,603.174,-0.596946,0.0,0.0
7084,1770.75,72.4533,76.2944,120.111,99.2041,105.949,0.00146571,0.277905,20.728,602.604,-0.552796,0.0,0.0
7112,1777.75,72.8671,76.3298,119.787,99.2509,106.929,0.00135716,0.277813,20.7286,602.033,-0.6262,0.0,0.0
7140,1784.75,72.5961,76.421,118.526,99.3098,107.1,0.00123342,0.280645,20.7246,601.503,-0.634603,0.0,0.0
7168,1791.75,73.1796,76.4808,118.513,99.3659,106.798,0.00140413,0.278889,20.7278,600.892,-0.606189,0.0,0.0
7196,1798.75,73.2302,76.7675,120.621,99.4212,107.365,0.00156865,0.279348,20.7271,600.271,-0.64596,0.0,0.0
7224,1805.75,72.9387,76.8441,116.905,99.4484,107.256,0.00151872,0.279529,20.7278,599.701,-0.63513,0.0,0.0
7252,1812.75,73.1264,76.6696,117.248,99.4873,107.067,0.00166938,0.279447,20.727,599.11,-0.617079,0.0,0.0
7280,1819.75,72.8174,76.9165,119.432,99.5133,107.147,0.00160163,0.277699,20.7292,598.48,-0.621113,0.0,0.0
7308,1826.75,73.2428,76.8021,115.128,99.5249,107.096,0.00153019,0.276479,20.7294,598.029,-0.616105,0.0,0.0
7336,1833.75,73.279,76.7444,118.37,99.5365,107.452,0.00130764,0.276213,20.7294,597.398,-0.643023,0.0,0.0
7364,1840.75,73.9309,77.0003,115.704,99.5462,106.554,0.00135165,0.277431,20.7278,596.928,-0.571693,0.0,0.0
7392,1847.75,73.5974,77.4411,117.605,99.5646,106.458,0.00153493,0.275265,20.7303,596.438,-0.562603,0.0,0.0
7420,1854.75,73.2932,76.6076,116.168,99.5798,106.531,0.00149864,0.27584,20.7305,595.827,-0.567024,0.0,0.0
7448,1861.75,73.6186,76.7365,114.935,99.5922,107.678,0.00134564,0.275038,20.7312,595.286,-0.656,0.0,0.0
7476,1868.75,73.1232,77.253,117.054,99.6018,106.953,0.00125095,0.272452,20.7332,594.626,-0.598401,0.0,0.0
7504,1875.75,73.126,76.3745,116.452,99.5914,107.046,0.001296,0.273509,20.7284,594.125,-0.606604,0.0,0.0
7532,1882.75,73.2322,76.5876,117.271,99.5894,107.204,0.00134941,0.272776,20.7297,593.555,-0.619132,0.0,0.0
7560,1889.75,72.9535,76.4308,115.8,99.5998,107.653,0.0013239,0.272396,20.7345,593.084,-0.653406,0.0,0.0
7588,1896.75,73.1898,76.4382,116.934,99.6162,107.189,0.00145311,0.271451,20.737,592.484,-0.615748,0.0,0.0
7616,1903.75,73.1404,76.5091,117.401,99.6199,107.253,0.00170687,0.270265,20.74,591.933,-0.620445,0.0,0.0
7644,1910.75,73.1375,76.6807,117.353,99.6263,107.413,0.00140513,0.269019,20.7377,591.383,-0.632448,0.0,0.0
7672,1917.75,73.111,76.6205,118.587,99.6102,107.438,0.00135792,0.271769,20.7355,590.892,-0.63572,0.0,0.0
7700,1924.75,73.3702,76.6099,121.062,99.6154,107.338,0.00123243,0.268831,20.7401,590.442,-0.627458,0.0,0.0
7728,1931.75,73.0162,76.514,113.054,99.611,107.451,0.00156428,0.270332,20.7373,589.861,-0.636699,0.0,0.0
7756,1938.75,73.3684,76.8514,117.876,99.6114,107.275,0.00172487,0.270548,20.7364,589.32,-0.622833,0.0,0.0
7784,1945.75,73.2491,76.2131,116.732,99.6002,107.564,0.00141374,0.26826,20.7405,588.75,-0.646402,0.0,0.0
7812,1952.75,73.2473,76.223,118.168,99.591,107.223,0.00156711,0.270063,20.7349,588.229,-0.620501,0.0,0.0
7840,1959.75,73.2692,76.3285,118.435,99.585,106.654,0.00119472,0.270473,20.7358,587.719,-0.576329,0.0,0.0
7868,1966.75,72.7804,76.5657,119.436,99.5806,107.196,0.00152564,0.271103,20.734,587.178,-0.619316,0.0,0.0
7896,1973.75,73.1802,76.7703,119.59,99.5718,107.448,0.00152267,0.269658,20.7354,586.668,-0.639768,0.0,0.0
7924,1980.75,73.0792,76.0989,119.836,99.5706,106.587,0.00136073,0.270326,20.7359,586.157,-0.57227,0.0,0.0
7952,1987.75,72.5158,76.486,113.516,99.567,107.256,0.0014632,0.27239,20.7332,585.617,-0.625151,0.0,0.0
7980,1994.75,72.8469,76.5794,120.617,99.551,107.262,0.00125144,0.271402,20.7348,585.126,-0.626924,0.0,0.0
8008,2001.75,73.2381,76.3824,118.593,99.5301,106.279,0.00129061,0.271736,20.7359,584.536,-0.551373,0.0,0.0
8036,2008.75,73.1074,76.1212,118.246,99.4985,106.826,0.00124516,0.272044,20.7357,584.025,-0.597161,0.0,0.0
8064,2015.75,73.0591,76.5993,116.165,99.4124,107.435,0.00132401,0.272005,20.7357,583.354,-0.652186,0.0,0.0
8092,2022.75,72.9451,76.7568,122.279,99.3543,106.648,0.00162712,0.272299,20.7336,582.884,-0.595295,0.0,0.0
8120,2029.75,73.7144,76.2691,119.74,99.2814,106.913,0.00130352,0.27422,20.7316,582.364,-0.622325,0.0,0.0
8148,2036.75,72.7212,76.5533,120.43,99.1893,106.369,0.00130298,0.273477,20.7348,581.803,-0.587293,0.0,0.0
8176,2043.75,73.0098,76.3888,118.055,99.0799,106.568,0.00110652,0.272751,20.7343,581.222,-0.612238,0.0,0.0
8204,2050.75,73.3793,76.7186,120.086,99.0334,106.125,0.00139061,0.275895,20.7305,580.662,-0.581233,0.0,0.0
8232,2057.75,73.1197,76.6952,118.269,98.995,106.061,0.00129395,0.2771,20.7313,580.161,-0.579371,0.0,0.0
8260,2064.75,73.409,76.4755,118.058,98.9673,106.958,0.00156946,0.27688,20.7303,579.651,-0.652492,0.0,0.0
8288,2071.75,73.1912,77.0599,119.978,98.9922,107.461,0.00175622,0.277512,20.7303,579.1,-0.689806,0.0,0.0
8316,2078.75,73.6605,76.7445,118.106,98.9834,105.128,0.0017731,0.28085,20.7235,578.54,-0.506094,0.0,0.0
8344,2085.75,73.6282,77.054,113.669,98.9661,106.562,0.00157878,0.280847,20.7237,577.979,-0.62147,0.0,0.0
8372,2092.75,72.8096,76.9424,119.254,98.9333,106.27,0.00165339,0.279197,20.7247,577.398,-0.601142,0.0,0.0
8400,2099.75,73.8763,77.1421,119.705,98.9157,106.57,0.0014854,0.281917,20.7233,576.798,-0.62639,0.0,0.0
8428,2106.75,73.8309,76.8504,118.841,98.9369,105.835,0.00142432,0.283621,20.7215,576.277,-0.566428,0.0,0.0
8456,2113.75,73.8568,77.3954,121.032,99.0162,106.054,0.00150727,0.283849,20.7227,575.707,-0.577003,0.0,0.0
8484,2120.75,74.3628,76.4877,117.913,99.0879,106.255,0.00151871,0.283755,20.7232,575.146,-0.586853,0.0,0.0
8512,2127.75,73.9363,77.2154,121.299,99.2033,105.816,0.00140737,0.284654,20.7223,574.546,-0.542273,0.0,0.0
8540,2134.75,74.2626,77.3729,116.459,99.2814,105.769,0.00160647,0.286262,20.7159,574.065,-0.531973,0.0,0.0
8568,2141.75,73.7313,77.2156,119.822,99.3703,107.076,0.00143621,0.284516,20.72,573.505,-0.627665,0.0,0.0
8596,2148.75,74.1329,77.3899,119.65,99.4052,107.007,0.0015402,0.285327,20.7226,572.924,-0.619253,0.0,0.0
8624,2155.75,74.3124,76.9139,116.574,99.4148,107.175,0.00151492,0.286984,20.7191,572.353,-0.631643,0.0,0.0
8652,2162.75,73.9067,77.6271,118.82,99.438,106.797,0.00153739,0.286434,20.7176,571.743,-0.600024,0.0,0.0
8680,2169.75,74.311,77.1969,116.854,99.4676,107.721,0.0016337,0.288513,20.7179,571.112,-0.669895,0.0,0.0
8708,2176.75,73.9707,77.5328,116.065,99.4941,107.299,0.00178726,0.288217,20.7168,570.602,-0.634628,0.0,0.0
8736,2183.75,74.0374,77.4088,120.682,99.5101,106.702,0.00169951,0.288422,20.7179,569.981,-0.586379,0.0,0.0
8764,2190.75,73.7311,77.3459,117.64,99.4861,106.856,0.00153733,0.289145,20.7164,569.451,-0.600562,0.0,0.0
8792,2197.75,74.0181,77.2268,116.534,99.4728,107.099,0.00114745,0.286769,20.719,568.89,-0.620749,0.0,0.0
8820,2204.75,74.0472,77.7177,119.197,99.4404,106.663,0.00152615,0.28916,20.7177,568.359,-0.589244,0.0,0.0
8848,2211.75,74.4847,77.8897,116.978,99.4504,106.34,0.00135452,0.2879,20.7188,567.789,-0.562903,0.0,0.0
8876,2218.75,74.0282,77.6225,116.794,99.4464,106.453,0.00154254,0.287894,20.7181,567.208,-0.57216,0.0,0.0
8904,2225.75,74.0462,77.9792,122.521,99.422,106.095,0.00123051,0.286268,20.721,566.698,-0.545889,0.0,0.0
8932,2232.75,74.5938,77.9607,119.729,99.3627,105.793,0.0012967,0.289616,20.7173,566.087,-0.527007,0.0,0.0
8960,2239.75,74.5571,78.0795,117.931,99.2814,106.019,0.00135964,0.288338,20.7186,565.497,-0.551805,0.0,0.0
8988,2246.75,74.9109,77.8994,122.292,99.2361,105.86,0.00141129,0.290138,20.717,564.936,-0.542999,0.0,0.0
9016,2253.75,74.7946,77.9782,113.902,99.2565,106.975,0.00146413,0.289046,20.7165,564.345,-0.629302,0.0,0.0
9044,2260.75,74.8554,78.1254,116.14,99.2766,106.407,0.00147308,0.289445,20.717,563.755,-0.58293,0.0,0.0
9072,2267.75,74.4049,78.1384,118.13,99.3102,106.497,0.00153727,0.285756,20.7203,563.214,-0.587128,0.0,0.0
9100,2274.75,74.9093,78.4154,120.735,99.3535,107.238,0.00169089,0.288443,20.7197,562.694,-0.641792,0.0,0.0
9128,2281.75,74.458,77.7047,116.509,99.3683,106.71,0.00131211,0.285578,20.7225,562.073,-0.599031,0.0,0.0
9156,2288.75,74.7263,77.9817,117.255,99.3647,106.971,0.00177065,0.285237,20.7214,561.643,-0.619834,0.0,0.0
9184,2295.75,74.2946,78.1161,121.029,99.404,105.674,0.00142628,0.284176,20.7226,561.072,-0.514048,0.0,0.0
9212,2302.75,74.222,78.0582,117.626,99.3867,106.123,0.00138569,0.282529,20.7221,560.512,-0.551095,0.0,0.0
9240,2309.75,74.205,78.0221,117.006,99.3407,106.432,0.00125779,0.280729,20.7265,559.921,-0.579445,0.0,0.0
9268,2316.75,74.5242,77.6814,117.919,99.3198,106.336,0.00137341,0.27828,20.7286,559.36,-0.573593,0.0,0.0
9296,2323.75,73.7476,77.2114,118.998,99.299,106.424,0.00142199,0.28053,20.7257,558.85,-0.5823,0.0,0.0
9324,2330.75,73.8367,77.3577,117.061,99.2393,106.096,0.00162092,0.279666,20.7268,558.289,-0.561448,0.0,0.0
9352,2337.75,74.3705,77.3152,119.218,99.2045,106.424,0.00156226,0.27798,20.727,557.779,-0.590304,0.0,0.0
9380,2344.75,73.7033,77.4721,120.355,99.184,106.664,0.00173739,0.277785,20.7268,557.218,-0.610972,0.0,0.0
9408,2351.75,73.9708,77.3701,117.336,99.164,105.826,0.00150043,0.277289,20.7278,556.638,-0.54645,0.0,0.0
9436,2358.75,74.0975,77.6595,119.762,99.1196,105.579,0.00160351,0.277246,20.7286,556.187,-0.530564,0.0,0.0
9464,2365.75,73.8146,77.5203,119.143,99.0975,105.942,0.00167329,0.279189,20.7259,555.627,-0.561295,0.0,0.0
9492,2372.75,73.3025,76.7517,121.919,99.0675,105.298,0.00196065,0.276551,20.7288,555.156,-0.512572,0.0,0.0
9520,2379.75,74.0448,76.966,117.694,99.0354,106.011,0.00150661,0.276132,20.7284,554.636,-0.571977,0.0,0.0
9548,2386.75,73.5846,77.0308,118.629,98.9898,105.748,0.00166571,0.276404,20.7264,554.115,-0.554989,0.0,0.0
9576,2393.75,73.9907,77.0967,118.693,98.9557,105.618,0.00165537,0.271558,20.7322,553.555,-0.547519,0.0,0.0
9604,2400.75,73.556,77.3997,123.284,98.9121,105.137,0.00123599,0.267806,20.7359,553.104,-0.512934,0.0,0.0
9632,2407.75,73.2627,76.3849,121.345,98.9365,105.504,0.00161057,0.261731,20.7398,552.624,-0.540128,0.0,0.0
9660,2414.75,72.9696,76.611,117.092,98.9389,105.983,0.00147577,0.256013,20.7462,552.223,-0.577943,0.0,0.0
9688,2421.75,72.8164,76.2203,123.466,98.9681,105.197,0.00144369,0.248263,20.7572,551.803,-0.51295,0.0,0.0
9716,2428.75,72.318,75.8614,117.482,98.985,105.578,0.00146417,0.239067,20.7697,551.372,-0.541911,0.0,0.0
9744,2435.75,71.9527,75.546,121.041,98.9762,105.981,0.00136856,0.229533,20.782,551.042,-0.574674,0.0,0.0
9772,2442.75,71.5167,75.1146,121.047,98.9766,105.542,0.00131412,0.217729,20.7972,550.712,-0.539747,0.0,0.0
9800,2449.75,71.1563,74.379,121.837,98.9637,106.236,0.00150403,0.203942,20.8097,550.471,-0.595873,0.0,0.0
9828,2456.75,70.0555,73.6424,119.843,98.9405,105.901,0.00144302,0.186445,20.8322,550.141,-0.571364,0.0,0.0
9856,2463.75,69.1629,72.7284,123.484,98.9473,105.822,0.00118317,0.170131,20.849,549.891,-0.564516,0.0,0.0
9884,2470.75,68.3091,71.7416,123.524,99.0454,106.763,0.00149754,0.155694,20.8636,549.751,-0.63056,0.0,0.0
9912,2477.75,67.6719,70.989,121.493,99.1344,107.143,0.00119567,0.147023,20.8721,549.571,-0.652893,0.0,0.0
9940,2484.75,66.9464,69.9148,124.315,99.2033,105.533,0.00124603,0.140287,20.8791,549.471,-0.519774,0.0,0.0
9968,2491.75,66.2306,69.4255,122.127,99.2581,106.54,0.00157804,0.134075,20.886,549.25,-0.594951,0.0,0.0
9996,2498.75,64.8096,68.5505,127.245,99.3607,107.252,0.00198623,0.129198,20.8911,549.14,-0.642266,0.0,0.0
10024,2505.75,64.6365,67.5803,126.693,99.4636,106.067,0.00192327,0.124967,20.8972,549.09,-0.540176,0.0,0.0
10052,2512.75,64.2149,67.6085,125.293,99.561,107.03,0.00227104,0.122612,20.9001,548.99,-0.607913,0.0,0.0
10080,2519.75,63.5845,66.2767,123.156,99.6199,107.491,0.00194955,0.119928,20.9012,548.86,-0.639097,0.0,0.0
10108,2526.75,63.3113,66.1727,123.559,99.6711,106.931,0.00194298,0.118919,20.9037,548.77,-0.590873,0.0,0.0
10136,2533.75,62.8573,65.6368,121.174,99.6972,106.529,0.00212647,0.116675,20.9075,548.65,-0.556984,0.0,0.0
10164,2540.75,62.3032,65.2407,125.215,99.6876,107.279,0.00248444,0.115411,20.9077,548.53,-0.616799,0.0,0.0
10192,2547.75,62.15,64.854,126.809,99.6647,107.461,0.00229874,0.114328,20.9109,548.369,-0.632906,0.0,0.0
10220,2554.75,62.1349,64.0172,127.001,99.6575,107.389,0.00259175,0.113574,20.9092,548.269,-0.627927,0.0,0.0
10248,2561.75,61.2152,63.5805,123.252,99.6551,106.64,0.00269562,0.11243,20.9111,548.249,-0.569256,0.0,0.0
10276,2568.75,61.114,63.5985,128.108,99.6271,107.637,0.00283128,0.112115,20.9113,548.119,-0.649854,0.0,0.0
10304,2575.75,61.0057,62.9007,123.523,99.6279,107.052,0.00259055,0.111426,20.9135,548.039,-0.60402,0.0,0.0
10332,2582.75,60.9361,62.7694,124.42,99.613,107.251,0.00258695,0.111415,20.9135,547.979,-0.620845,0.0,0.0
10360,2589.75,60.4726,62.418,126.877,99.6038,107.42,0.00283918,0.111012,20.9146,547.869,-0.634899,0.0,0.0
10388,2596.75,60.3474,62.7577,123.299,99.611,107.831,0.00303716,0.1105,20.9132,547.849,-0.666348,0.0,0.0
10416,2603.75,60.175,62.2443,122.044,99.6415,107.28,0.00298875,0.110388,20.913,547.749,-0.620753,0.0,0.0
10444,2610.75,60.0968,62.5118,121.422,99.6403,107.65,0.00274287,0.109671,20.914,547.649,-0.649785,0.0,0.0
10472,2617.75,60.0384,61.8914,127.737,99.6551,107.355,0.00272774,0.109411,20.9146,547.539,-0.625476,0.0,0.0
10500,2624.75,59.452,62.0648,123.116,99.6711,105.996,0.00305404,0.109018,20.9158,547.438,-0.517075,0.0,0.0
10528,2631.75,59.7985,61.7738,126.331,99.6655,106.046,0.00320842,0.108422,20.9169,547.348,-0.521474,0.0,0.0
10556,2638.75,59.6012,61.6974,124.573,99.686,107.141,0.00311573,0.10756,20.9184,547.268,-0.606056,0.0,0.0
10584,2645.75,59.4347,61.0778,124.7,99.6888,108.012,0.00281473,0.107011,20.92,547.188,-0.673903,0.0,0.0
10612,2652.75,58.9746,60.9803,122.402,99.7016,107.57,0.00307128,0.106437,20.9201,547.148,-0.638379,0.0,0.0
10640,2659.75,59.3,61.1169,124.704,99.7036,107.429,0.00337737,0.106514,20.9183,547.108,-0.627116,0.0,0.0
10668,2666.75,59.086,60.9222,120.567,99.6972,106.722,0.00312749,0.106499,20.9185,547.078,-0.572213,0.0,0.0
10696,2673.75,58.6941,60.9988,121.449,99.6763,107.453,0.00289408,0.105299,20.9224,546.958,-0.631298,0.0,0.0
10724,2680.75,59.1551,60.7617,125.558,99.6447,107.675,0.00328219,0.106744,20.9168,546.898,-0.651329,0.0,0.0
10752,2687.75,58.5452,60.8649,119.838,99.6223,106.66,0.00328208,0.106686,20.9182,546.788,-0.573643,0.0,0.0
10780,2694.75,58.5379,60.301,127.58,99.551,106.995,0.00320894,0.106497,20.9185,546.718,-0.606025,0.0,0.0
10808,2701.75,58.3394,60.2411,124.68,99.4769,107.764,0.00323944,0.105985,20.9207,546.618,-0.672459,0.0,0.0
10836,2708.75,58.5731,60.3657,125.755,99.4168,106.205,0.00353667,0.105286,20.9212,546.548,-0.555055,0.0,0.0
10864,2715.75,58.6194,60.4472,124.091,99.3955,107.398,0.00351394,0.104378,20.9237,546.498,-0.650711,0.0,0.0
10892,2722.75,58.2961,59.756,123.128,99.3559,107.172,0.00350133,0.105199,20.9211,546.407,-0.636411,0.0,0.0
10920,2729.75,58.521,60.206,121.93,99.3218,107.533,0.00332202,0.104704,20.9189,546.357,-0.667519,0.0,0.0
10948,2736.75,58.5605,60.2941,124.438,99.3391,106.081,0.00375406,0.105038,20.9188,546.357,-0.551803,0.0,0.0
10976,2743.75,58.3029,60.078,125.481,99.3859,106.969,0.00335198,0.105026,20.9201,546.257,-0.617934,0.0,0.0
11004,2750.75,58.4576,60.3445,128.814,99.3875,106.688,0.00345784,0.104994,20.9208,546.137,-0.595647,0.0,0.0
11032,2757.75,57.9188,60.0711,122.108,99.3927,107.141,0.00344382,0.104911,20.9218,546.107,-0.63081,0.0,0.0
11060,2764.75,58.0585,60.193,127.051,99.3975,106.726,0.00361678,0.103897,20.9228,545.977,-0.597788,0.0,0.0
11088,2771.75,57.9135,59.9642,125.26,99.43,106.645,0.00341636,0.103327,20.9239,545.957,-0.588683,0.0,0.0
11116,2778.75,58.4132,60.2985,128.379,99.4588,107.505,0.00317866,0.104536,20.9223,545.827,-0.653773,0.0,0.0
11144,2785.75,58.2813,59.8737,126.529,99.468,106.7,0.00333534,0.104457,20.9236,545.747,-0.589791,0.0,0.0
11172,2792.75,58.01,59.9296,125.682,99.4716,106.801,0.00345865,0.103855,20.9237,545.677,-0.597462,0.0,0.0
11200,2799.75,57.6316,60.2273,122.89,99.5225,107.604,0.00339284,0.104307,20.9205,545.647,-0.656099,0.0,0.0
11228,2806.75,57.6264,59.2208,123.578,99.5634,107.209,0.00359446,0.103845,20.9221,545.597,-0.621714,0.0,0.0
11256,2813.75,57.4633,59.7824,125.047,99.579,107.214,0.00373014,0.103738,20.9222,545.537,-0.620815,0.0,0.0
11284,2820.75,58.0102,59.5454,124.864,99.6146,107.12,0.00373966,0.102853,20.923,545.447,-0.610459,0.0,0.0
11312,2827.75,57.6132,59.3106,121.739,99.5998,106.782,0.00397666,0.102567,20.9229,545.366,-0.585164,0.0,0.0
11340,2834.75,57.0214,59.3013,122.988,99.565,107.429,0.00376618,0.102517,20.9211,545.276,-0.638876,0.0,0.0
11368,2841.75,57.5656,59.5254,124.984,99.5706,106.928,0.00371731,0.101853,20.9247,545.236,-0.599109,0.0,0.0
11396,2848.75,57.3326,59.4208,127.002,99.553,106.76,0.00381772,0.10179,20.9248,545.106,-0.587363,0.0,0.0
11424,2855.75,57.399,59.1925,123.536,99.5305,106.456,0.0039585,0.101591,20.9251,545.036,-0.565301,0.0,0.0
11452,2862.75,57.4611,59.5888,125.052,99.5233,106.507,0.00372789,0.101556,20.9254,545.006,-0.56996,0.0,0.0
11480,2869.75,57.2787,59.4023,126.863,99.4877,106.108,0.0038804,0.100629,20.927,544.916,-0.541433,0.0,0.0
11508,2876.75,57.3245,59.0474,125.065,99.4725,107.849,0.00388611,0.100527,20.929,544.886,-0.679475,0.0,0.0
11536,2883.75,57.0943,59.1268,127.877,99.4624,107.064,0.00379571,0.101032,20.9301,544.886,-0.618932,0.0,0.0
11564,2890.75,57.3226,59.5361,123.411,99.472,107.309,0.00339237,0.100426,20.9289,544.796,-0.637328,0.0,0.0
11592,2897.75,56.3317,59.2137,124.407,99.4636,106.596,0.00355683,0.100149,20.9278,544.756,-0.582005,0.0,0.0
11620,2904.75,57.5115,58.9544,124.245,99.4785,106.472,0.00381081,0.10128,20.927,544.626,-0.570932,0.0,0.0
11648,2911.75,57.1045,58.7862,126.251,99.472,106.507,0.00368399,0.100353,20.9269,544.576,-0.574256,0.0,0.0
11676,2918.75,57.1949,59.2979,127.227,99.4632,105.9,0.00378547,0.100736,20.9262,544.496,-0.526941,0.0,0.0
11704,2925.75,56.689,59.1755,124.874,99.418,107.684,0.0036606,0.101024,20.9244,544.405,-0.671168,0.0,0.0
11732,2932.75,56.6701,58.7367,119.69,99.3871,107.109,0.00365607,0.100806,20.9242,544.375,-0.628834,0.0,0.0
11760,2939.75,56.5529,58.5872,122.293,99.3511,107.635,0.00388894,0.100708,20.9266,544.275,-0.672992,0.0,0.0
11788,2946.75,56.4897,58.7731,124.164,99.2778,106.933,0.0038441,0.100856,20.9266,544.265,-0.624243,0.0,0.0
11816,2953.75,56.2983,58.828,127.295,99.2469,107.13,0.00368788,0.100935,20.9268,544.215,-0.642342,0.0,0.0
11844,2960.75,56.9966,58.5059,125.287,99.2233,107.97,0.00364822,0.101192,20.9263,544.155,-0.709969,0.0,0.0
11872,2967.75,56.589,58.7691,127.192,99.1712,106.509,0.00394301,0.100949,20.9277,544.145,-0.599884,0.0,0.0
11900,2974.75,56.4396,58.7554,126.34,99.1288,106.74,0.00373286,0.100699,20.9271,544.045,-0.621667,0.0,0.0
11928,2981.75,56.6738,58.6092,126.922,99.0923,106.892,0.00394657,0.100288,20.9262,543.945,-0.63673,0.0,0.0
11956,2988.75,56.4188,58.4826,125.017,99.0354,106.544,0.00373098,0.100045,20.9279,543.905,-0.61418,0.0,0.0
11984,2995.75,56.1757,58.2943,128.542,98.9453,105.61,0.00380867,0.101135,20.9261,543.845,-0.547835,0.0,0.0
12012,3002.75,55.9845,58.233,125.504,98.9193,106.963,0.00395039,0.101025,20.9256,543.765,-0.656995,0.0,0.0
12040,3009.75,56.3353,57.7257,123.766,98.9197,106.402,0.00338618,0.100802,20.9282,543.685,-0.612737,0.0,0.0
12068,3016.75,56.1171,58.4717,124.013,98.9353,107.714,0.00364202,0.100132,20.9284,543.625,-0.714435,0.0,0.0
12096,3023.75,56.2886,58.861,124.308,98.9481,107.416,0.00375915,0.100171,20.9285,543.615,-0.690057,0.0,0.0
12124,3030.75,56.3589,58.2431,124.974,98.9701,106.782,0.00372119,0.0998189,20.9288,543.535,-0.638427,0.0,0.0
12152,3037.75,56.2969,58.548,126.643,98.9753,106.924,0.00372661,0.100806,20.9269,543.535,-0.649182,0.0,0.0
12180,3044.75,56.1889,58.6199,129.891,98.9818,106.139,0.00367554,0.100681,20.9258,543.484,-0.586679,0.0,0.0
12208,3051.75,55.7735,58.1991,129.7,98.9669,106.644,0.00392637,0.101151,20.9273,543.354,-0.62784,0.0,0.0
12236,3058.75,56.2554,58.5066,126.454,98.9597,107.012,0.00383664,0.101717,20.926,543.304,-0.657414,0.0,0.0
12264,3065.75,56.2388,58.3499,125.766,98.9473,105.72,0.00367576,0.101442,20.9279,543.164,-0.556396,0.0,0.0
12292,3072.75,56.1027,58.5514,125.367,98.9581,106.495,0.00363503,0.10084,20.9267,543.114,-0.616834,0.0,0.0
12320,3079.75,56.0427,58.3796,129.421,98.9493,105.91,0.00377759,0.100118,20.9254,543.094,-0.571324,0.0,0.0
12348,3086.75,56.0931,58.0571,128.664,98.9673,106.971,0.00386958,0.0998694,20.9259,542.964,-0.653544,0.0,0.0
12376,3093.75,56.226,58.3078,124.829,98.9966,107.397,0.0038237,0.0996554,20.9279,542.974,-0.68444,0.0,0.0
12404,3100.75,55.6852,58.5411,125.529,99.0022,105.637,0.0035013,0.099883,20.9297,542.924,-0.5451,0.0,0.0
12432,3107.75,55.7158,58.3727,130.288,99.009,107.2,0.00361266,0.0998997,20.9298,542.904,-0.668007,0.0,0.0
12460,3114.75,55.6366,58.3497,125.264,99.0186,106.976,0.00375334,0.0992079,20.9298,542.834,-0.649541,0.0,0.0
12488,3121.75,56.2906,57.9463,123.174,99.0026,106.577,0.00388559,0.0992681,20.9298,542.794,-0.619536,0.0,0.0
12516,3128.75,56.1834,58.1679,127.069,99.0126,106.381,0.00379948,0.099612,20.9298,542.694,-0.60319,0.0,0.0
12544,3135.75,56.3763,57.6487,126.174,98.9862,106.785,0.00362932,0.0994518,20.9298,542.624,-0.637278,0.0,0.0
12572,3142.75,55.5731,58.2157,127.202,98.9814,106.04,0.00366209,0.0998915,20.9293,542.544,-0.578901,0.0,0.0
12600,3149.75,55.7034,58.409,125.342,98.9665,107.886,0.00361868,0.0986097,20.9304,542.513,-0.72521,0.0,0.0
12628,3156.75,55.8153,58.3601,128.019,98.9497,105.776,0.00359244,0.0992585,20.9291,542.413,-0.56059,0.0,0.0
12656,3163.75,56.025,58.4297,122.356,98.9281,106.902,0.00351972,0.10084,20.927,542.383,-0.651441,0.0,0.0
12684,3170.75,54.2657,56.439,124.18,98.9882,105.643,0.00366177,0.0992967,20.9296,542.333,-0.546752,0.0,0.0
12712,3177.75,54.2531,56.6992,123.939,99.0635,106.917,0.00373938,0.0985766,20.9298,542.223,-0.641106,0.0,0.0
12740,3184.75,54.3488,57.1162,126.812,99.1416,106.408,0.00373362,0.0996956,20.9284,542.293,-0.594435,0.0,0.0
12768,3191.75,54.5848,56.5164,126.41,99.2001,106.912,0.0035589,0.100416,20.9281,542.153,-0.629176,0.0,0.0
12796,3198.75,54.2592,56.511,123.045,99.2465,107.281,0.00380627,0.0998792,20.9294,542.103,-0.6542,0.0,0.0
12824,3205.75,54.7736,57.2191,124.916,99.2622,107.277,0.00348962,0.0986266,20.9304,541.963,-0.652527,0.0,0.0
12852,3212.75,53.9563,56.45,124.342,99.3186,106.467,0.00368334,0.0980962,20.9303,541.943,-0.584092,0.0,0.0
12880,3219.75,54.5841,56.2562,125.987,99.3783,106.444,0.0037885,0.0974524,20.9318,541.853,-0.577176,0.0,0.0
12908,3226.75,54.0906,56.6181,126.86,99.4056,106.913,0.00403288,0.0976805,20.9312,541.803,-0.611821,0.0,0.0
12936,3233.75,54.3053,56.3904,125.466,99.4412,107.517,0.00400243,0.0969163,20.932,541.803,-0.656203,0.0,0.0
12964,3240.75,53.9691,56.5411,125.718,99.4925,107.293,0.00366134,0.0967303,20.9336,541.723,-0.634309,0.0,0.0
12992,3247.75,54.7539,56.784,126.51,99.5413,107.858,0.00386986,0.0972566,20.9328,541.703,-0.674352,0.0,0.0
13020,3254.75,54.4566,56.1805,125.813,99.559,108.244,0.00403709,0.0981474,20.9306,541.653,-0.702886,0.0,0.0
13048,3261.75,54.0179,57.1231,125.384,99.6094,108.054,0.00400065,0.0983222,20.9313,541.613,-0.683855,0.0,0.0
13076,3268.75,54.266,56.1862,125.5,99.6295,106.37,0.00397069,0.0985624,20.9302,541.583,-0.550185,0.0,0.0
13104,3275.75,54.452,56.9422,126.807,99.6495,107.166,,0.0988429,,541.503,-0.611124,0.0,0.0
13132,3282.75,53.77,56.0916,124.722,99.6775,108.163,,,,541.422,-0.686576,0.0,0.0
13146,3286.25,54.2047,55.8079,129.031,99.7072,107.391,,,,541.443,-0.623845,0.0,0.0