File: 01_Data/Countertop_Plastic_Laminate/Cone/Countertop_Plastic_Laminate_Cone_HF50Scan_220415_R2.csv
Names,Time,Stack TC,Smoke TC,Exh Press,Smoke Comp,Smoke Meas,CO Meter,CO2 Meter,O2 Meter,Sample Mass,Ext Coeff,Start Test,Flame Verif
Chan Gain,,500,500,1,1,1,1,1,1,1,1,1.0,1.0
Offset,,0,0,0.134921,0,0,0,0,0,0,0,0.0,0.0
Gain,,1,1,25.011,13.0391,14.631,1,1,1,1.0009,1.01612,1.0,1.0
Units,sec,C,C,Pa,%,%,%,%,%,g,/m,,
Baseline,,34.7095,35.9152,132.398,98.8062,102.56,0.000589498,0.0587168,21.0073,-477.635,-0.33229,,
32,7.75,32.1011,33.0698,133.633,99.3162,102.598,0.000516624,0.0648681,20.998,726.113,-0.289764,0.0,0.0
64,15.75,32.2549,32.7011,130.31,99.2943,102.446,0.000461251,0.0685591,20.9961,726.053,-0.278529,0.0,0.0
96,23.75,32.8847,33.6142,122.625,99.2792,105.946,0.00223174,0.0921036,20.9026,725.502,-0.57933,0.0,1.0
128,31.75,34.0384,34.7605,130.27,99.2729,99.7408,0.00213719,0.107053,20.956,725.302,-0.0419147,0.0,1.0
160,39.75,36.5485,36.3436,116.056,99.2486,107.144,0.0061863,0.169446,20.6988,724.251,-0.682301,0.0,0.0
192,47.75,43.0255,42.9987,123.937,99.2494,103.687,0.00340656,0.264711,20.7007,723.47,-0.389838,0.0,0.0
224,55.75,45.092,45.432,123.274,99.1996,104.059,0.00296325,0.276217,20.7171,722.65,-0.426299,0.0,0.0
256,63.75,47.0188,47.2961,126.317,99.1599,103.523,0.00342757,0.276037,20.7713,722.019,-0.383823,0.0,0.0
288,71.75,46.3347,48.5776,131.4,99.1348,103.797,0.0035575,0.234933,20.8484,721.609,-0.40965,0.0,0.0
320,79.75,45.9299,47.8148,129.296,99.1033,103.004,0.00392642,0.201061,20.8816,721.328,-0.344081,0.0,0.0
352,87.75,44.6639,46.2599,125.134,99.0986,103.26,0.00468866,0.173572,20.9108,721.038,-0.366661,0.0,0.0
384,95.75,43.6599,45.3746,133.312,99.0699,103.445,0.00495995,0.154335,20.9246,720.838,-0.385219,0.0,0.0
416,103.75,42.0885,44.8874,129.197,99.0624,102.774,0.00535045,0.141913,20.9297,720.618,-0.327886,0.0,0.0
448,111.75,41.7112,44.2568,128.616,99.0524,102.827,0.00534868,0.136635,20.9298,720.378,-0.33335,0.0,0.0
480,119.75,40.5572,43.8608,129.416,99.0584,103.244,0.00580279,0.134565,20.9275,720.137,-0.36885,0.0,0.0
512,127.75,40.8478,43.3656,128.675,99.0779,102.532,0.00599758,0.138932,20.9149,719.887,-0.305439,0.0,0.0
544,135.75,41.2575,43.4994,125.484,99.0779,99.3671,0.00567176,0.15289,20.8874,719.527,-0.0259785,0.0,0.0
576,143.75,41.7678,44.0951,125.202,99.0568,99.1608,0.00549016,0.171014,20.8589,719.106,-0.00935273,0.0,0.0
608,151.75,42.3317,45.6102,127.042,99.0468,100.259,0.00550306,0.190338,20.8303,718.566,-0.108438,0.0,0.0
640,159.75,44.2112,46.2147,124.15,99.0325,98.9867,0.00557119,0.210719,20.8065,717.985,0.00412919,0.0,0.0
672,167.75,44.9786,47.3443,123.122,99.013,97.0149,0.006104,0.228761,20.787,717.365,0.181714,0.0,0.0
704,175.75,46.184,48.0512,122.584,98.9967,95.7794,0.00627823,0.245245,20.7707,716.714,0.294485,0.0,0.0
736,183.75,47.2792,49.6038,125.346,98.9816,97.8195,0.00670705,0.258602,20.76,716.044,0.105267,0.0,0.0
768,191.75,48.9455,49.7125,124.596,98.9677,96.4103,0.00716755,0.268444,20.7528,715.353,0.233349,0.0,0.0
800,199.75,49.1432,51.8521,126.788,98.9856,98.2196,0.00772802,0.275922,20.7499,714.712,0.0692437,0.0,0.0
832,207.75,50.5168,51.5979,121.905,98.9442,97.7253,0.00758167,0.281636,20.7456,713.982,0.110485,0.0,0.0
864,215.75,50.8999,52.6073,120.916,98.9295,99.2849,0.0078384,0.286219,20.7414,713.251,-0.031969,0.0,0.0
896,223.75,51.2565,53.938,123.044,98.8435,100.199,0.00789448,0.290352,20.741,712.49,-0.121395,0.0,0.0
928,231.75,52.1917,54.305,123.29,98.7711,98.6348,0.00793724,0.291271,20.7406,711.73,0.0123065,0.0,0.0
960,239.75,52.5943,55.1689,125.055,98.6979,100.24,0.007568,0.292706,20.7401,710.939,-0.138231,0.0,0.0
992,247.75,53.5021,55.1979,118.552,98.6278,99.7988,0.00731704,0.290559,20.7456,710.198,-0.105204,0.0,0.0
1024,255.75,53.4163,56.1519,120.443,98.5228,101.412,0.00726185,0.286742,20.7536,709.418,-0.257672,0.0,0.0
1056,263.75,53.5118,55.9981,118.935,98.4321,100.548,0.00721813,0.283242,20.7575,708.757,-0.189541,0.0,0.0
1088,271.75,53.4103,56.4924,127.031,98.3274,102.028,0.00671349,0.28045,20.7568,708.016,-0.329319,0.0,0.0
1120,279.75,53.341,56.6694,122.298,98.2458,102.38,0.00689062,0.278206,20.7596,707.316,-0.367401,0.0,0.0
1152,287.75,54.1536,56.4267,121.454,98.1714,100.195,0.00671165,0.275818,20.7601,706.565,-0.181891,0.0,0.0
1184,295.75,53.5148,56.8796,123.67,98.1141,101.824,0.00690714,0.274272,20.7625,705.844,-0.330791,0.0,0.0
1216,303.75,53.9293,56.9116,123.295,98.0596,102.408,0.00744582,0.272166,20.7648,705.064,-0.386762,0.0,0.0
1248,311.75,53.9323,57.6692,121.01,98.0389,101.503,0.00695606,0.270581,20.7664,704.313,-0.309479,0.0,0.0
1280,319.75,53.8677,57.4781,123.831,98.0286,102.574,0.00670682,0.267375,20.7713,703.582,-0.404029,0.0,0.0
1312,327.75,54.3187,57.4258,125.06,98.029,103.493,0.00687059,0.263717,20.7767,702.812,-0.483447,0.0,0.0
1344,335.75,54.4301,56.7943,120.916,98.0329,101.774,0.0067133,0.261034,20.7805,702.111,-0.333829,0.0,0.0
1376,343.75,54.2309,56.924,120.374,98.0628,102.846,0.00687943,0.258344,20.7839,701.401,-0.424515,0.0,0.0
1408,351.75,53.7271,57.1875,124.416,98.0799,102.035,0.00661298,0.255364,20.7883,700.73,-0.352408,0.0,0.0
1440,359.75,54.4555,56.979,125.57,98.1189,102.186,0.00636505,0.252639,20.7913,700.019,-0.361999,0.0,0.0
1472,367.75,53.7096,56.9033,122.682,98.1901,103.908,0.00584677,0.249871,20.7944,699.319,-0.504497,0.0,0.0
1504,375.75,53.0095,57.2804,123.139,98.2562,102.599,0.00629824,0.247074,20.7977,698.658,-0.38549,0.0,0.0
1536,383.75,53.572,56.7291,122.345,98.329,103.671,0.00634258,0.244646,20.7968,697.897,-0.471539,0.0,0.0
1568,391.75,53.2194,56.7207,120.684,98.3986,102.662,0.00652408,0.242937,20.7983,697.177,-0.378083,0.0,0.0
1600,399.75,53.7482,56.3612,126.016,98.4762,103.872,0.0061288,0.241044,20.7991,696.466,-0.475499,0.0,0.0
1632,407.75,53.6796,56.8572,123.32,98.5323,102.971,0.00595458,0.239535,20.7997,695.815,-0.392727,0.0,0.0
1664,415.75,54.0014,55.7898,126.372,98.5777,102.844,0.00595485,0.237863,20.8018,695.175,-0.377603,0.0,0.0
1696,423.75,53.3653,56.2811,123.473,98.627,104.021,0.00604997,0.236057,20.8028,694.594,-0.474647,0.0,0.0
1728,431.75,53.6032,56.1353,121.326,98.7062,103.601,0.00566354,0.234106,20.8052,693.954,-0.43138,0.0,0.0
1760,439.75,52.5132,56.6028,125.272,98.7584,104.527,0.00568835,0.232259,20.8086,693.333,-0.506031,0.0,0.0
1792,447.75,53.6426,55.3118,123.504,98.8252,102.831,0.00556454,0.230544,20.8099,692.703,-0.354206,0.0,0.0
1824,455.75,53.0219,56.1905,128.116,98.8686,104.24,0.00557488,0.22939,20.8116,692.102,-0.471573,0.0,0.0
1856,463.75,53.2937,55.8073,122.606,98.9307,104.399,0.00562087,0.227862,20.8137,691.432,-0.479521,0.0,0.0
1888,471.75,53.2605,55.681,124.242,98.9939,104.431,0.00585308,0.227007,20.814,690.821,-0.476567,0.0,0.0
1920,479.75,53.2144,55.784,122.909,99.0823,105.376,0.00549326,0.225656,20.8142,690.24,-0.548894,0.0,0.0
1952,487.75,53.501,55.3843,130.563,99.1507,104.945,0.00522074,0.223812,20.8162,689.7,-0.506256,0.0,0.0
1984,495.75,52.234,56.1505,122.188,99.2108,104.577,0.00513789,0.222852,20.8153,689.19,-0.469553,0.0,0.0
2016,503.75,53.497,55.196,126.821,99.2394,104.939,0.00526599,0.220601,20.8181,688.599,-0.497714,0.0,0.0
2048,511.75,52.1456,55.6656,121.697,99.2331,105.599,0.00474334,0.218228,20.8226,688.048,-0.554202,0.0,0.0
2080,519.75,53.3048,54.4476,122.593,99.1702,104.352,0.00465253,0.216148,20.8264,687.518,-0.453961,0.0,0.0
2112,527.75,52.7646,54.9735,121.416,99.0958,104.293,0.00481433,0.213517,20.8304,686.977,-0.455654,0.0,0.0
2144,535.75,52.4625,55.2001,125.891,99.0194,104.543,0.00459648,0.21071,20.8339,686.407,-0.483835,0.0,0.0
2176,543.75,52.2514,54.6795,124.365,98.9207,105.375,0.00461426,0.208972,20.8365,685.877,-0.563401,0.0,0.0
2208,551.75,51.7474,54.7016,125.537,98.8292,103.344,0.00432267,0.20726,20.8369,685.346,-0.398129,0.0,0.0
2240,559.75,51.2898,54.4456,123.37,98.7667,104.025,0.00473912,0.205383,20.8421,684.876,-0.462339,0.0,0.0
2272,567.75,52.1474,53.7725,124.075,98.7058,103.955,0.00486726,0.203065,20.8428,684.355,-0.461865,0.0,0.0
2304,575.75,51.3805,54.213,123.841,98.6577,103.806,0.00446764,0.201973,20.8447,683.885,-0.45338,0.0,0.0
2336,583.75,50.4065,54.2994,122.876,98.6048,103.924,0.00449135,0.200124,20.8474,683.384,-0.468316,0.0,0.0
2368,591.75,51.2244,54.0999,125.006,98.5729,105.331,0.00434733,0.198486,20.848,682.904,-0.591055,0.0,0.0
2400,599.75,51.1407,53.4641,126.269,98.5303,104.783,0.00454897,0.196709,20.8482,682.393,-0.548385,0.0,0.0
2432,607.75,51.1027,53.85,123.602,98.5455,102.971,0.0045708,0.195118,20.8516,681.903,-0.391578,0.0,0.0
2464,615.75,50.9553,53.248,126.92,98.6374,103.238,0.00430262,0.193328,20.8556,681.412,-0.40635,0.0,0.0
2496,623.75,51.0706,53.3379,126.093,98.7333,103.783,0.00418227,0.191203,20.8576,680.962,-0.444558,0.0,0.0
2528,631.75,50.5596,52.7525,126.897,98.8487,103.104,0.00446473,0.189354,20.859,680.502,-0.375667,0.0,0.0
2560,639.75,50.1459,52.9541,127.426,98.9541,104.653,0.00485746,0.187177,20.8612,680.081,-0.499071,0.0,0.0
2592,647.75,49.9858,53.0291,125.894,99.0799,104.169,0.00448904,0.185873,20.8633,679.661,-0.446471,0.0,0.0
2624,655.75,50.2207,52.2648,124.821,99.1603,104.579,0.00393042,0.184754,20.8636,679.19,-0.474208,0.0,0.0
2656,663.75,50.1405,52.4241,123.985,99.2136,105.305,0.00419708,0.183141,20.8628,678.77,-0.531119,0.0,0.0
2688,671.75,49.7903,52.132,125.482,99.2514,105.138,0.0044726,0.182877,20.8633,678.33,-0.513541,0.0,0.0
2720,679.75,50.1077,52.121,125.481,99.2641,104.252,0.00443049,0.180783,20.867,677.829,-0.436978,0.0,0.0
2752,687.75,49.7786,52.0066,126.423,99.2685,105.245,0.00447158,0.178995,20.8724,677.409,-0.521084,0.0,0.0
2784,695.75,49.4404,51.7621,124.934,99.2645,104.93,0.00434535,0.177493,20.8747,676.979,-0.494704,0.0,0.0
2816,703.75,48.9713,51.8055,123.018,99.2518,105.402,0.00446374,0.175784,20.8743,676.568,-0.535886,0.0,0.0
2848,711.75,49.305,51.5173,127.691,99.2227,104.134,0.00426117,0.17434,20.8737,676.158,-0.43061,0.0,0.0
2880,719.75,49.3569,51.1864,123.509,99.1829,104.665,0.00402519,0.173314,20.8745,675.767,-0.47955,0.0,0.0
2912,727.75,48.9466,51.1285,126.217,99.1336,103.582,0.00423259,0.17241,20.8776,675.337,-0.391296,0.0,0.0
2944,735.75,48.9832,51.0469,123.669,99.0687,104.496,0.00472941,0.170779,20.8793,674.957,-0.475434,0.0,0.0
2976,743.75,49.1113,50.6525,125.94,98.9895,104.634,0.00420584,0.170132,20.8798,674.536,-0.494245,0.0,0.0
3008,751.75,48.8127,50.7759,124.03,98.9108,104.325,0.00438851,0.169155,20.882,674.076,-0.474984,0.0,0.0
3040,759.75,48.6784,50.5663,126.029,98.8698,105.13,0.00474176,0.168035,20.8828,673.666,-0.547195,0.0,0.0
3072,767.75,48.4913,50.3736,127.555,98.8264,104.741,0.00471567,0.167682,20.8816,673.245,-0.51811,0.0,0.0
3104,775.75,48.5474,50.6989,122.385,98.8383,103.864,0.00437288,0.166126,20.886,672.845,-0.442094,0.0,0.0
3136,783.75,48.3764,50.3091,129.387,98.8491,103.541,0.00458785,0.165343,20.8849,672.495,-0.413302,0.0,0.0
3168,791.75,48.1909,49.8751,131.432,98.8825,104.196,0.00449547,0.164479,20.8839,672.094,-0.466498,0.0,0.0
3200,799.75,47.9429,50.1473,124.837,98.8829,104.052,0.00446308,0.163877,20.8839,671.694,-0.454155,0.0,0.0
3232,807.75,47.9925,49.8799,125.989,98.8857,103.893,0.00446283,0.162858,20.8856,671.313,-0.440315,0.0,0.0
3264,815.75,47.668,49.8846,123.921,98.902,103.462,0.00430807,0.162121,20.8873,670.913,-0.401801,0.0,0.0
3296,823.75,47.9229,49.5528,124.499,98.9299,103.373,0.00443417,0.1618,20.8874,670.503,-0.391595,0.0,0.0
3328,831.75,47.8178,49.2968,127.461,98.943,104.229,0.00432346,0.161637,20.8855,670.082,-0.46395,0.0,0.0
3360,839.75,47.5841,49.1345,126.149,98.982,103.75,0.00446534,0.161049,20.8872,669.692,-0.419372,0.0,0.0
3392,847.75,47.7387,48.8147,124.105,99.0337,103.983,0.00450701,0.160259,20.8913,669.292,-0.434717,0.0,0.0
3424,855.75,47.6861,49.2126,124.56,99.0854,104.225,0.00462998,0.159333,20.8923,668.901,-0.450783,0.0,0.0
3456,863.75,47.3841,49.3642,127.176,99.1563,104.147,0.0044998,0.158015,20.8948,668.591,-0.437728,0.0,0.0
3488,871.75,47.298,48.982,130.475,99.1921,104.498,0.00451647,0.157698,20.8926,668.221,-0.464495,0.0,0.0
3520,879.75,47.0125,49.2139,124.051,99.2486,104.333,0.0043324,0.157055,20.8926,667.82,-0.445278,0.0,0.0
3552,887.75,46.6419,49.4956,127.949,99.286,103.637,0.0042545,0.156211,20.893,667.47,-0.382251,0.0,0.0
3584,895.75,47.1318,49.4293,122.861,99.3011,104.49,0.00450309,0.155434,20.8949,667.07,-0.453979,0.0,0.0
3616,903.75,46.8034,48.6051,125.633,99.3135,103.972,0.00440084,0.154272,20.8961,666.639,-0.408618,0.0,0.0
3648,911.75,47.0639,48.7246,126.616,99.3337,104.427,0.0043714,0.153948,20.8976,666.299,-0.445679,0.0,0.0
3680,919.75,46.7267,48.7183,130.85,99.3441,103.854,0.00439416,0.153835,20.8979,665.919,-0.395719,0.0,0.0
3712,927.75,46.8727,48.7959,127.642,99.3835,105.065,0.00476461,0.15363,20.8961,665.548,-0.49555,0.0,0.0
3744,935.75,46.5119,48.3423,122.434,99.3871,103.697,0.00442895,0.153896,20.8946,665.198,-0.378365,0.0,0.0
3776,943.75,45.8472,48.7606,128.336,99.4304,104.051,0.00464318,0.152708,20.8972,664.858,-0.404897,0.0,0.0
3808,951.75,46.6464,48.5759,129.467,99.4448,103.693,0.00462291,0.151502,20.8991,664.477,-0.372847,0.0,0.0
3840,959.75,46.2531,48.1223,127.54,99.4702,104.116,0.00471615,0.150896,20.9001,664.107,-0.406875,0.0,0.0
3872,967.75,46.6943,47.7268,126.536,99.5303,104.794,0.00489823,0.149941,20.9049,663.757,-0.459368,0.0,0.0
3904,975.75,45.9993,47.998,122.59,99.5518,104.15,0.00491009,0.149581,20.9041,663.366,-0.402473,0.0,0.0
3936,983.75,45.9509,48.3307,126.996,99.5721,105.656,0.00436787,0.148938,20.9037,662.956,-0.528624,0.0,0.0
3968,991.75,46.0607,48.0562,127.969,99.5972,105.664,0.00465375,0.149102,20.9039,662.626,-0.52702,0.0,0.0
4000,999.75,46.471,47.6327,129.806,99.6278,104.677,0.00443252,0.149014,20.9032,662.255,-0.440686,0.0,0.0
4032,1007.75,45.501,47.8444,128.58,99.6521,103.546,0.00438798,0.148492,20.9013,661.935,-0.341647,0.0,0.0
4064,1015.75,46.1784,47.9425,126.148,99.6823,104.289,0.00478418,0.14836,20.9023,661.605,-0.402671,0.0,0.0
4096,1023.75,46.3724,47.6692,126.809,99.7154,104.811,0.00447555,0.147498,20.903,661.234,-0.444256,0.0,0.0
4128,1031.75,45.6616,47.2988,130.528,99.7209,105.037,0.00459214,0.147213,20.9053,660.884,-0.462951,0.0,0.0
4160,1039.75,45.5507,47.1317,127.006,99.7269,105.439,0.00451914,0.147037,20.9056,660.504,-0.496453,0.0,0.0
4192,1047.75,45.6545,47.7783,128.192,99.7173,103.879,0.00434569,0.147087,20.9048,660.103,-0.364478,0.0,0.0
4224,1055.75,46.1143,47.3402,127.436,99.715,104.392,0.00454501,0.147521,20.9046,659.753,-0.408526,0.0,0.0
4256,1063.75,45.1314,47.4428,126.53,99.6963,104.71,0.00451637,0.146945,20.9042,659.403,-0.437377,0.0,0.0
4288,1071.75,45.733,46.8494,127.126,99.6756,103.397,0.00463525,0.146455,20.9061,659.032,-0.326701,0.0,0.0
4320,1079.75,45.2583,46.9807,129.636,99.6505,104.678,0.0045806,0.146012,20.905,658.722,-0.438695,0.0,0.0
4352,1087.75,45.4516,47.1767,131.655,99.6222,104.993,0.00432092,0.146158,20.9046,658.392,-0.468062,0.0,0.0
4384,1095.75,45.2704,47.1011,125.873,99.5904,104.38,0.00452954,0.146147,20.904,658.042,-0.418675,0.0,0.0
4416,1103.75,45.3518,47.1423,125.281,99.5299,105.178,0.00461439,0.14642,20.9046,657.681,-0.492004,0.0,0.0
4448,1111.75,45.8562,46.9443,126.358,99.4782,105.745,0.00438792,0.146834,20.9048,657.351,-0.544527,0.0,0.0
4480,1119.75,45.7751,46.8232,127.593,99.391,103.817,0.00460307,0.146557,20.9028,657.001,-0.388326,0.0,0.0
4512,1127.75,45.5331,47.4391,123.55,99.3043,104.792,0.00423446,0.147114,20.8989,656.6,-0.479442,0.0,0.0
4544,1135.75,45.4415,47.1265,127.312,99.2215,103.848,0.00460893,0.147709,20.8995,656.21,-0.406185,0.0,0.0
4576,1143.75,45.5048,47.0399,126.159,99.1654,103.848,0.00449979,0.147167,20.9012,655.9,-0.411227,0.0,0.0
4608,1151.75,45.3718,47.2127,128.343,99.1201,104.769,0.00431676,0.146137,20.9036,655.569,-0.494019,0.0,0.0
4640,1159.75,45.2786,46.9193,125.43,99.0317,104.217,0.00424639,0.145507,20.9052,655.279,-0.454929,0.0,0.0
4672,1167.75,45.1921,47.4055,127.182,98.9478,104.118,0.00410311,0.145687,20.9044,654.899,-0.453969,0.0,0.0
4704,1175.75,45.524,47.0279,128.729,98.8224,103.217,0.00422266,0.145792,20.905,654.548,-0.387795,0.0,0.0
4736,1183.75,45.1982,47.0422,123.722,98.7373,103.447,0.00428306,0.14543,20.9056,654.238,-0.415353,0.0,0.0
4768,1191.75,44.984,47.1297,123.926,98.6644,103.342,0.00451671,0.14524,20.9069,653.888,-0.412883,0.0,0.0
4800,1199.75,45.1611,47.2633,128.46,98.5964,102.66,0.00414197,0.145381,20.9061,653.487,-0.359954,0.0,0.0
4832,1207.75,44.9122,46.9615,123.673,98.5506,104.314,0.00433303,0.145826,20.9062,653.137,-0.506579,0.0,0.0
4864,1215.75,45.7536,46.65625,126.011,98.4937,102.822,0.00411815,0.145318,20.9041,652.797,-0.383301,0.0,0.0
4896,1223.75,45.0676,47.222,125.03,98.4726,104.092,0.00440433,0.146287,20.9021,652.436,-0.494692,0.0,0.0
4928,1231.75,45.7886,46.3024,128.382,98.4384,104.246,0.00423979,0.146333,20.9018,652.136,-0.510895,0.0,0.0
4960,1239.75,45.3124,46.8031,127.165,98.409,102.778,0.00396821,0.146258,20.9018,651.806,-0.387219,0.0,0.0
4992,1247.75,45.3098,46.7899,125.016,98.3927,103.846,0.00400472,0.146652,20.9018,651.476,-0.480844,0.0,0.0
5024,1255.75,44.8639,46.9529,126.195,98.3672,102.359,0.00414379,0.147641,20.9012,651.155,-0.354532,0.0,0.0
5056,1263.75,45.4129,46.8381,126.388,98.3346,103.657,0.00415608,0.147317,20.9034,650.805,-0.469844,0.0,0.0
5088,1271.75,44.7932,46.9047,129.121,98.2765,103.728,0.00436033,0.147091,20.9035,650.455,-0.481214,0.0,0.0
5120,1279.75,45.2609,47.2069,125.293,98.2307,103.125,0.00372283,0.146815,20.9053,650.064,-0.433417,0.0,0.0
5152,1287.75,45.4238,46.9809,126.982,98.1885,104.45,0.00398322,0.146231,20.9065,649.694,-0.551058,0.0,0.0
5184,1295.75,45.217,46.9362,130.533,98.1324,102.652,0.00410726,0.145895,20.9065,649.364,-0.401377,0.0,0.0
5216,1303.75,44.6866,46.7936,128.293,98.1253,103.141,0.00408724,0.145788,20.9065,649.033,-0.444341,0.0,0.0
5248,1311.75,45.8409,46.1794,124.728,98.1018,102.29,0.00389542,0.145643,20.9029,648.743,-0.372624,0.0,0.0
5280,1319.75,44.8852,46.7056,132.708,98.0922,103.7,0.00363056,0.14597,20.9062,648.393,-0.495522,0.0,0.0
5312,1327.75,44.9325,46.741,131.524,98.0894,103.162,0.00376715,0.14539,20.9056,648.073,-0.449409,0.0,0.0
5344,1335.75,44.8388,47.1162,130.787,98.0831,101.953,0.00371242,0.145068,20.904,647.732,-0.344938,0.0,0.0
5376,1343.75,45.2483,46.8071,126.875,98.0735,103.235,0.00390518,0.145354,20.9019,647.372,-0.45718,0.0,0.0
5408,1351.75,44.6537,47.025,126.159,98.0711,102.845,0.00384182,0.145329,20.9039,647.002,-0.423639,0.0,0.0
5440,1359.75,45.3302,46.9928,126.848,98.0755,103.875,0.00374145,0.145828,20.9061,646.641,-0.512072,0.0,0.0
5472,1367.75,44.7354,46.737,128.307,98.0811,103.497,0.00362667,0.145702,20.9062,646.321,-0.479055,0.0,0.0
5504,1375.75,45.2799,46.4054,126.72,98.0879,102.923,0.00376375,0.145922,20.9031,645.991,-0.42889,0.0,0.0
5536,1383.75,44.8441,46.8768,128.12,98.0918,102.936,0.00377279,0.145673,20.9012,645.69,-0.429611,0.0,0.0
5568,1391.75,45.4174,46.8781,124.803,98.0783,102.993,0.00346019,0.145458,20.9012,645.35,-0.435787,0.0,0.0
5600,1399.75,45.114,46.2395,128.026,98.0859,103.326,0.00348677,0.145561,20.904,645.03,-0.463881,0.0,0.0
5632,1407.75,44.8165,46.7439,127.767,98.0887,102.42,0.00330315,0.145596,20.9047,644.71,-0.385132,0.0,0.0
5664,1415.75,45.2236,46.4189,127.108,98.0779,102.589,0.0036821,0.145832,20.9039,644.369,-0.400862,0.0,0.0
5696,1423.75,45.2148,47.2647,126.084,98.068,103.164,0.00358472,0.146278,20.9005,643.969,-0.451515,0.0,0.0
5728,1431.75,45.2386,46.753,126.341,98.0711,102.193,0.00361596,0.146424,20.9011,643.659,-0.366961,0.0,0.0
5760,1439.75,44.4307,46.9491,126.486,98.0723,104.138,0.00366817,0.145681,20.902,643.318,-0.5349,0.0,0.0
5792,1447.75,44.9301,46.4581,127.899,98.0887,102.192,0.00374398,0.145926,20.9051,642.998,-0.365292,0.0,0.0
5824,1455.75,44.9453,46.5698,131.297,98.0871,102.8,0.00356518,0.14624,20.9045,642.668,-0.418323,0.0,0.0
5856,1463.75,44.7685,46.4689,126.001,98.097,102.785,0.00316198,0.146584,20.9032,642.397,-0.41614,0.0,0.0
5888,1471.75,45.2749,46.6393,123.959,98.0938,102.457,0.00289088,0.147036,20.9027,642.057,-0.387886,0.0,0.0
5920,1479.75,45.0078,46.9571,124.972,98.1089,102.173,0.00327726,0.146789,20.9037,641.717,-0.361812,0.0,0.0
5952,1487.75,44.6729,46.8631,125.867,98.1034,103.027,0.00310026,0.147146,20.9034,641.366,-0.436485,0.0,0.0
5984,1495.75,44.9674,47.2597,129.262,98.0962,102.55,0.00355579,0.147798,20.9015,641.006,-0.395784,0.0,0.0
6016,1503.75,45.3733,46.6072,130.102,98.1042,102.964,0.0031534,0.147453,20.9001,640.676,-0.430964,0.0,0.0
6048,1511.75,45.291,46.9761,129.032,98.1288,103.009,0.00335362,0.14828,20.8989,640.336,-0.432626,0.0,0.0
6080,1519.75,44.9167,46.9614,128.975,98.1519,104.233,0.00359191,0.14907,20.8985,640.005,-0.535844,0.0,0.0
6112,1527.75,45.2389,47.2505,126.964,98.1846,102.268,0.00320691,0.148768,20.8985,639.715,-0.363161,0.0,0.0
6144,1535.75,45.1734,46.8349,131.372,98.2152,102.819,0.00317795,0.149093,20.898,639.375,-0.408312,0.0,0.0
6176,1543.75,45.1771,46.8638,128.995,98.2797,103.102,0.00276121,0.149039,20.8975,639.064,-0.42697,0.0,0.0
6208,1551.75,45.4075,46.72,126.417,98.3374,102.925,0.00316264,0.149659,20.8975,638.734,-0.406439,0.0,0.0
6240,1559.75,45.4147,47.0626,127.907,98.3799,103.696,0.00300965,0.150718,20.8969,638.374,-0.469072,0.0,0.0
6272,1567.75,45.3939,47.0523,126.237,98.4412,102.94,0.00318807,0.150469,20.8965,638.013,-0.398307,0.0,0.0
6304,1575.75,45.1812,47.6051,127.256,98.4842,102.96,0.00307161,0.151474,20.8947,637.653,-0.396118,0.0,0.0
6336,1583.75,46.1837,47.037,123.154,98.5009,103.532,0.0031204,0.151895,20.8964,637.303,-0.444022,0.0,0.0
6368,1591.75,45.4968,47.3982,131.177,98.5077,103.557,0.0027917,0.152689,20.895,636.973,-0.445563,0.0,0.0
6400,1599.75,46.1209,47.6048,127.465,98.563,103.229,0.00260617,0.152814,20.8958,636.662,-0.412268,0.0,0.0
6432,1607.75,45.792,47.3415,124.295,98.5805,103.432,0.0026749,0.153331,20.8938,636.382,-0.428209,0.0,0.0
6464,1615.75,45.7872,47.3648,127.38,98.6024,103.337,0.00276609,0.153964,20.8917,636.022,-0.418069,0.0,0.0
6496,1623.75,45.5086,47.3404,127.41,98.6326,103.34,0.00275556,0.154348,20.8911,635.661,-0.415567,0.0,0.0
6528,1631.75,45.6507,47.6454,127.308,98.7015,103.423,0.00273085,0.155311,20.8911,635.321,-0.416508,0.0,0.0
6560,1639.75,45.9342,47.9033,126.758,98.7496,103.326,0.00270507,0.155596,20.8911,634.971,-0.403769,0.0,0.0
6592,1647.75,46.0995,47.4425,128.777,98.8065,103.161,0.00288435,0.15631,20.8907,634.59,-0.384448,0.0,0.0
6624,1655.75,45.7759,47.5123,128.804,98.8646,102.905,0.00283375,0.157346,20.8888,634.25,-0.356999,0.0,0.0
6656,1663.75,46.1409,48.3127,126.59,98.904,104.518,0.00241189,0.158016,20.8888,633.91,-0.492134,0.0,0.0
6688,1671.75,46.0934,47.9407,125.313,98.9462,105.371,0.00275378,0.158813,20.8878,633.529,-0.560729,0.0,0.0
6720,1679.75,46.2593,48.1582,131.665,98.9852,103.414,0.00260399,0.15933,20.8853,633.239,-0.390154,0.0,0.0
6752,1687.75,46.058,48.0817,130.109,99.0094,104.522,0.0026909,0.160467,20.8849,632.889,-0.482979,0.0,0.0
6784,1695.75,46.3194,48.1915,123.457,99.0337,104.833,0.00251536,0.161341,20.8834,632.519,-0.507256,0.0,0.0
6816,1703.75,46.1129,48.2107,126.066,99.0484,103.614,0.00211165,0.162097,20.8841,632.158,-0.401683,0.0,0.0
6848,1711.75,46.5888,48.1774,124.705,99.0325,104.48,0.00248953,0.163005,20.8824,631.768,-0.477321,0.0,0.0
6880,1719.75,45.9792,48.049,126.069,99.015,104.587,0.00260195,0.164214,20.8815,631.378,-0.487997,0.0,0.0
6912,1727.75,46.815,48.175,124.181,99.0082,104.096,0.00251005,0.164934,20.8806,630.987,-0.446611,0.0,0.0
6944,1735.75,46.9494,48.9821,123.436,98.9856,103.691,0.00236657,0.165634,20.8803,630.627,-0.413908,0.0,0.0
6976,1743.75,46.7317,48.0503,128.994,98.9621,103.551,0.002092,0.166154,20.8797,630.257,-0.404001,0.0,0.0
7008,1751.75,46.2314,48.6297,126.746,98.9537,104.306,0.00231558,0.167384,20.8802,629.926,-0.469509,0.0,0.0
7040,1759.75,47.1606,49.1678,125.031,98.9016,104.964,0.00225565,0.168216,20.878,629.536,-0.530309,0.0,0.0
7072,1767.75,46.6899,48.8681,124.795,98.8897,104.56,0.00226293,0.16977,20.8766,629.146,-0.496966,0.0,0.0
7104,1775.75,46.8512,48.5387,127.04,98.8865,102.835,0.0023027,0.170695,20.874,628.775,-0.348991,0.0,0.0
7136,1783.75,47.1072,49.0213,129.152,98.8666,104.061,0.0023491,0.170926,20.8759,628.405,-0.45639,0.0,0.0
7168,1791.75,47.1004,49.0632,124.94,98.8562,104.157,0.00234683,0.172004,20.8754,627.974,-0.46558,0.0,0.0
7200,1799.75,47.2064,49.6356,124.615,98.8403,105.097,0.00205812,0.173666,20.8726,627.544,-0.547086,0.0,0.0
7232,1807.75,47.6597,49.8705,130.944,98.8531,104.391,0.00258825,0.174886,20.8708,627.134,-0.485829,0.0,0.0
7264,1815.75,47.4572,49.2981,128.832,98.8789,103.786,0.0024882,0.175781,20.8706,626.743,-0.431689,0.0,0.0
7296,1823.75,47.4504,49.4942,125.846,98.8992,104.674,0.00231535,0.17682,20.8711,626.373,-0.505806,0.0,0.0
7328,1831.75,47.9562,49.4128,122.424,98.9187,104.938,0.00208121,0.177689,20.8698,625.993,-0.526491,0.0,0.0
7360,1839.75,47.7788,49.8103,125.278,98.9486,104.757,0.00191536,0.179181,20.8663,625.582,-0.508429,0.0,0.0
7392,1847.75,47.9079,49.6001,127.862,98.9907,104.371,0.00192772,0.180642,20.8645,625.182,-0.471783,0.0,0.0
7424,1855.75,47.7384,50.0586,126.154,99.0182,105.089,0.00195577,0.182364,20.8623,624.742,-0.530417,0.0,0.0
7456,1863.75,48.2514,49.8099,126.049,99.0361,103.986,0.0021753,0.183481,20.8611,624.311,-0.434732,0.0,0.0
7488,1871.75,48.0161,50.5489,125.721,99.0568,104.133,0.00224454,0.184832,20.8605,623.861,-0.445491,0.0,0.0
7520,1879.75,48.538,50.5964,124.193,99.0787,105.448,0.0019854,0.186085,20.8593,623.39,-0.555369,0.0,0.0
7552,1887.75,48.7703,50.6581,124.487,99.1022,104.521,0.00155051,0.187062,20.8579,623,-0.474521,0.0,0.0
7584,1895.75,48.6276,50.2374,126.993,99.1236,104.137,0.00208872,0.188856,20.8552,622.57,-0.439821,0.0,0.0
7616,1903.75,48.9121,50.5675,122.972,99.1455,104.879,0.00212349,0.19074,20.8529,622.139,-0.501069,0.0,0.0
7648,1911.75,49.3299,50.7776,126.43,99.169,104.1,0.00209119,0.192115,20.8507,621.689,-0.432494,0.0,0.0
7680,1919.75,48.4325,51.2483,125.368,99.1989,104.933,0.00218834,0.193529,20.851,621.238,-0.500866,0.0,0.0
7712,1927.75,48.6528,51.2983,126.024,99.2199,104.259,0.00200471,0.195014,20.8506,620.788,-0.441593,0.0,0.0
7744,1935.75,49.497,50.9165,125.314,99.2315,105.427,0.00181989,0.196862,20.848,620.318,-0.53986,0.0,0.0
7776,1943.75,49.3111,51.4985,127.781,99.2351,104.259,0.00197839,0.199137,20.8473,619.777,-0.440235,0.0,0.0
7808,1951.75,49.2668,51.3181,127.42,99.243,105.484,0.00158676,0.200037,20.8462,619.317,-0.54358,0.0,0.0
7840,1959.75,49.2335,51.4343,125.879,99.2402,104.862,0.00163805,0.201913,20.8441,618.806,-0.491155,0.0,0.0
7872,1967.75,49.9453,51.6823,126.946,99.2601,105.209,0.00184373,0.203036,20.841,618.346,-0.518809,0.0,0.0
7904,1975.75,50.4199,52.5998,121.642,99.2581,105.21,0.00188795,0.20529,20.8396,617.935,-0.519025,0.0,0.0
7936,1983.75,50.5332,52.4824,123.559,99.2565,104.456,0.00228088,0.207123,20.8365,617.435,-0.455124,0.0,0.0
7968,1991.75,50.8774,52.5527,121.119,99.2617,105.423,0.00184559,0.209101,20.8347,616.965,-0.536804,0.0,0.0
8000,1999.75,50.7552,53.2079,121.918,99.2581,105.102,0.00200573,0.210752,20.8337,616.434,-0.509942,0.0,0.0
8032,2007.75,50.8173,52.7602,124.533,99.2402,105.433,0.00188949,0.213256,20.8297,615.924,-0.539527,0.0,0.0
8064,2015.75,50.788,53.2229,124.941,99.2183,105.274,0.00176091,0.214453,20.8268,615.363,-0.528083,0.0,0.0
8096,2023.75,51.1028,53.6658,122.683,99.2239,105.477,0.00166379,0.215923,20.8276,614.813,-0.54469,0.0,0.0
8128,2031.75,51.2583,53.4134,125.872,99.2064,104.819,0.00171474,0.218964,20.8263,614.302,-0.490549,0.0,0.0
8160,2039.75,51.3524,53.782,120.677,99.1945,105.278,0.00193385,0.221124,20.8233,613.752,-0.53053,0.0,0.0
8192,2047.75,51.3044,54.5106,126.723,99.1945,105.293,0.00180279,0.22355,20.8162,613.261,-0.531815,0.0,0.0
8224,2055.75,51.6888,54.1032,125.599,99.2088,104.947,0.00186659,0.225512,20.8137,612.721,-0.501149,0.0,0.0
8256,2063.75,52.0487,54.0356,124.6,99.2299,104.907,0.0018686,0.227785,20.8114,612.19,-0.495916,0.0,0.0
8288,2071.75,52.3477,54.2768,121.283,99.2454,105.006,0.0018902,0.230036,20.8111,611.66,-0.502941,0.0,0.0
8320,2079.75,52.3193,55.5634,122.891,99.2577,104.517,0.00174332,0.232708,20.8067,611.059,-0.460234,0.0,0.0
8352,2087.75,52.872,55.1119,122.759,99.282,104.87,0.0016129,0.23504,20.8043,610.459,-0.488048,0.0,0.0
8384,2095.75,52.992,55.0619,119.739,99.2737,106.362,0.00176805,0.23769,20.8015,609.858,-0.614697,0.0,0.0
8416,2103.75,53.4833,55.5114,127.05,99.278,104.312,0.00199138,0.241144,20.798,609.258,-0.440879,0.0,0.0
8448,2111.75,53.4949,55.8179,122.003,99.286,105.554,0.00153298,0.243804,20.7917,608.697,-0.545679,0.0,0.0
8480,2119.75,54.0372,56.1591,119.024,99.2943,105.152,0.0016461,0.246068,20.7905,608.107,-0.510931,0.0,0.0
8512,2127.75,53.6599,56.2745,123.68,99.2932,106.51,0.00168708,0.249641,20.7858,607.536,-0.625397,0.0,0.0
8544,2135.75,54.0482,56.8408,124.101,99.2955,105.814,0.00187328,0.252447,20.7828,606.946,-0.566739,0.0,0.0
8576,2143.75,54.4468,57.2462,118.043,99.2983,104.573,0.00174703,0.255172,20.7793,606.325,-0.461349,0.0,0.0
8608,2151.75,55.2179,57.1909,123.167,99.2892,104.886,0.00176294,0.257666,20.7771,605.694,-0.488809,0.0,0.0
8640,2159.75,55.9101,57.4714,120.958,99.2816,106.371,0.00173697,0.260121,20.7741,605.074,-0.614768,0.0,0.0
8672,2167.75,55.285,58.0522,126.879,99.278,105.395,0.00168014,0.262387,20.7727,604.373,-0.532923,0.0,0.0
8704,2175.75,55.9549,58.5399,122.478,99.2677,105.176,0.00194604,0.264963,20.7677,603.743,-0.515292,0.0,0.0
8736,2183.75,56.0693,58.8589,121.655,99.2749,105.294,0.00209136,0.26726,20.7665,603.072,-0.524671,0.0,0.0
8768,2191.75,56.1503,59.0414,121.512,99.2398,105.949,0.00183935,0.26937,20.7628,602.442,-0.583093,0.0,0.0
8800,2199.75,56.6032,59.2964,122.79,99.2203,105.322,0.00177233,0.271581,20.7579,601.871,-0.531911,0.0,0.0
8832,2207.75,56.7147,59.5371,119.858,99.1877,106.646,0.00208709,0.274088,20.7545,601.21,-0.646258,0.0,0.0
8864,2215.75,57.0073,59.5836,120.99,99.1479,105.471,0.0017669,0.274879,20.752,600.54,-0.551031,0.0,0.0
8896,2223.75,57.3077,60.0087,124.45,99.1141,105.821,0.00218518,0.277324,20.7491,599.859,-0.583606,0.0,0.0
8928,2231.75,57.5229,60.8549,121.866,99.1205,106.312,0.00195443,0.278962,20.7493,599.239,-0.624271,0.0,0.0
8960,2239.75,57.6198,60.5573,126.253,99.1296,104.965,0.00186995,0.280398,20.7507,598.508,-0.509859,0.0,0.0
8992,2247.75,57.6495,61.0342,117.078,99.1193,104.683,0.00195243,0.28113,20.7525,597.787,-0.486756,0.0,0.0
9024,2255.75,58.4021,60.784,119.578,99.1344,106.711,0.0017151,0.282647,20.7479,597.077,-0.65646,0.0,0.0
9056,2263.75,58.2477,61.0077,123.238,99.1678,105.932,0.00191017,0.283483,20.7445,596.416,-0.588136,0.0,0.0
9088,2271.75,58.5778,61.4595,123.521,99.1801,105.497,0.00187778,0.284925,20.7417,595.816,-0.55036,0.0,0.0
9120,2279.75,58.8689,61.5635,118.936,99.1567,105.661,0.00218645,0.285769,20.7414,595.175,-0.566304,0.0,0.0
9152,2287.75,58.9496,61.8309,117.234,99.1344,105.677,0.00175622,0.286663,20.7409,594.514,-0.569663,0.0,0.0
9184,2295.75,59.225,62.1031,119.239,99.1006,106.07,0.00178911,0.286755,20.7378,593.814,-0.605784,0.0,0.0
9216,2303.75,59.5769,61.9796,124.428,99.0771,105.546,0.00219685,0.287142,20.7381,593.143,-0.563738,0.0,0.0
9248,2311.75,58.6438,61.7417,118.346,99.0687,105.276,0.00229281,0.287749,20.7372,592.372,-0.541647,0.0,0.0
9280,2319.75,59.1004,62.0006,122.012,99.0799,105.165,0.00198241,0.288656,20.7355,591.722,-0.531302,0.0,0.0
9312,2327.75,59.5336,62.201,122.839,99.0906,106.28,0.00210013,0.288919,20.732,591.011,-0.624334,0.0,0.0
9344,2335.75,59.2991,62.1682,121.603,99.091,105.306,0.00197439,0.286909,20.7362,590.381,-0.542213,0.0,0.0
9376,2343.75,59.2656,62.1921,118.737,99.1129,105.671,0.00194895,0.286035,20.7361,589.77,-0.571068,0.0,0.0
9408,2351.75,59.3275,62.5656,119.743,99.1463,105.17,0.00162994,0.282973,20.7409,589.11,-0.525704,0.0,0.0
9440,2359.75,59.304,62.5069,121.03,99.1829,105.37,0.00191594,0.28168,20.7441,588.509,-0.539389,0.0,0.0
9472,2367.75,58.9346,62.5349,121.239,99.2156,104.875,0.00182938,0.27842,20.7482,587.868,-0.494472,0.0,0.0
9504,2375.75,59.1761,62.4631,119.552,99.249,105.406,0.00213474,0.275484,20.7516,587.248,-0.536476,0.0,0.0
9536,2383.75,59.3894,62.0452,120.514,99.2709,105.44,0.00203632,0.272286,20.7553,586.597,-0.537379,0.0,0.0
9568,2391.75,58.9863,61.8147,124.025,99.2864,105.663,0.00199842,0.270221,20.7561,585.937,-0.554839,0.0,0.0
9600,2399.75,58.4599,61.5493,122.902,99.294,105.435,0.00202327,0.266139,20.7603,585.396,-0.534893,0.0,0.0
9632,2407.75,58.3188,61.3392,122.455,99.2991,105.795,0.00186362,0.263614,20.7632,584.846,-0.5648,0.0,0.0
9664,2415.75,58.7245,61.3825,121.323,99.2856,105.594,0.0018212,0.260457,20.7644,584.275,-0.549108,0.0,0.0
9696,2423.75,58.3543,60.7347,121.27,99.2625,104.739,0.00217062,0.257523,20.766,583.775,-0.478711,0.0,0.0
9728,2431.75,57.5944,60.4731,119.17,99.2203,105.213,0.00222948,0.253855,20.7702,583.224,-0.522723,0.0,0.0
9760,2439.75,57.4649,60.5673,124.466,99.165,105.826,0.00176258,0.251228,20.774,582.724,-0.57944,0.0,0.0
9792,2447.75,57.2026,59.9846,124.476,99.0894,105.648,0.00179951,0.248427,20.7794,582.203,-0.571221,0.0,0.0
9824,2455.75,57.0871,60.327,129.392,99.0246,104.448,0.00172276,0.24514,20.7825,581.663,-0.475257,0.0,0.0
9856,2463.75,56.6702,58.8228,124.413,98.9279,103.571,0.00197958,0.241867,20.7827,581.122,-0.408852,0.0,0.0
9888,2471.75,56.0772,59.9606,121.52,98.8093,104.164,0.00230408,0.240763,20.7826,580.642,-0.470388,0.0,0.0
9920,2479.75,56.7559,59.3663,125.215,98.6835,103.769,0.00210328,0.23749,20.7882,580.141,-0.447861,0.0,0.0
9952,2487.75,55.8774,58.9087,122.625,98.565,104.685,0.00189037,0.234874,20.7945,579.681,-0.536932,0.0,0.0
9984,2495.75,55.5864,58.4931,122.254,98.4535,104.293,0.0023944,0.232383,20.799,579.241,-0.51361,0.0,0.0
10016,2503.75,55.3046,58.1938,121.942,98.3636,104.712,0.0024896,0.230557,20.8022,578.78,-0.557478,0.0,0.0
10048,2511.75,55.1835,57.8918,124.345,98.2502,103.593,0.00254494,0.229535,20.801,578.33,-0.472001,0.0,0.0
10080,2519.75,55.1951,57.7265,123.124,98.1834,104.576,0.00209312,0.227492,20.8031,577.829,-0.562265,0.0,0.0
10112,2527.75,55.4574,57.5834,124.131,98.1296,104.062,0.00221085,0.225374,20.8075,577.409,-0.523156,0.0,0.0
10144,2535.75,55.0712,57.4837,122.464,98.1269,104.563,0.00233475,0.224783,20.8079,576.879,-0.566254,0.0,0.0
10176,2543.75,55.0756,57.373,124.153,98.1109,104.026,0.00264109,0.223212,20.8076,576.378,-0.521832,0.0,0.0
10208,2551.75,54.6248,56.8711,124.737,98.1193,105.051,0.00219324,0.223059,20.8079,575.928,-0.608446,0.0,0.0
10240,2559.75,54.9853,56.3998,125.236,98.1153,104.455,0.00213957,0.222545,20.8064,575.517,-0.558049,0.0,0.0
10272,2567.75,54.776,57.1432,119.559,98.1161,104.369,0.00228165,0.221909,20.8095,575.117,-0.550658,0.0,0.0
10304,2575.75,54.7933,57.0351,122.387,98.1332,105.34,0.00235305,0.22021,20.8091,574.707,-0.631659,0.0,0.0
10336,2583.75,54.6717,57.2291,124.316,98.1253,105.039,0.00242799,0.220107,20.8112,574.266,-0.606881,0.0,0.0
10368,2591.75,54.7774,56.5593,121.1,98.1261,103.651,0.0026227,0.218804,20.8122,573.856,-0.488226,0.0,0.0
10400,2599.75,54.2561,56.329,125.037,98.1249,103.278,0.002404,0.216492,20.8178,573.405,-0.456178,0.0,0.0
10432,2607.75,54.6963,56.2984,123.696,98.1189,103.758,0.002652,0.21541,20.8185,572.975,-0.498049,0.0,0.0
10464,2615.75,53.68,56.1488,121.823,98.1265,104.783,0.00238761,0.215821,20.8185,572.505,-0.584997,0.0,0.0
10496,2623.75,54.1317,56.4835,128.663,98.1575,103.645,0.00259328,0.215678,20.8208,572.094,-0.484833,0.0,0.0
10528,2631.75,53.1757,56.1791,126.002,98.1881,103.918,0.00250333,0.215206,20.8209,571.634,-0.505559,0.0,0.0
10560,2639.75,53.8106,56.3692,125.077,98.2411,103.74,0.00265019,0.21454,20.8209,571.233,-0.485462,0.0,0.0
10592,2647.75,53.4471,55.7938,123.374,98.2908,104.081,0.00245109,0.215398,20.8157,570.883,-0.510212,0.0,0.0
10624,2655.75,53.5868,55.7549,124.192,98.364,104.085,0.00261455,0.215044,20.8172,570.443,-0.503919,0.0,0.0
10656,2663.75,54.0219,56.0892,123.797,98.4368,104.78,0.00265886,0.214717,20.8167,570.002,-0.556659,0.0,0.0
10688,2671.75,53.9342,56.1122,129.532,98.5073,105.138,0.00260743,0.2131,20.8204,569.572,-0.580618,0.0,0.0
10720,2679.75,53.6678,55.4094,125.229,98.5717,104.609,0.00220965,0.214003,20.8209,569.192,-0.529893,0.0,0.0
10752,2687.75,53.7222,55.6718,121.322,98.6211,105.777,0.00243789,0.214335,20.8216,568.691,-0.624368,0.0,0.0
10784,2695.75,53.5071,55.988,125.083,98.6724,104.741,0.00270235,0.213929,20.8217,568.281,-0.531973,0.0,0.0
10816,2703.75,53.6314,55.736,123.643,98.717,105.489,0.00251767,0.213814,20.8214,567.81,-0.591404,0.0,0.0
10848,2711.75,53.8317,56.1883,122.97,98.7683,105.728,0.00241206,0.214802,20.8211,567.4,-0.606969,0.0,0.0
10880,2719.75,53.3777,55.5652,124.94,98.7962,105.21,0.00213424,0.215142,20.8189,567.03,-0.560646,0.0,0.0
10912,2727.75,53.9818,56.1346,127.116,98.8248,105.201,0.00217589,0.215633,20.818,566.619,-0.557267,0.0,0.0
10944,2735.75,53.678,55.9065,125.807,98.8061,104.906,0.00243345,0.215619,20.8181,566.169,-0.533951,0.0,0.0
10976,2743.75,54.0822,56.1318,123.834,98.7946,104.714,0.00226192,0.216622,20.8188,565.749,-0.518664,0.0,0.0
11008,2751.75,54.0849,55.9589,123.008,98.785,104.403,0.00236964,0.216203,20.821,565.328,-0.492996,0.0,0.0
11040,2759.75,53.6502,55.6574,124.829,98.7814,105.897,0.00250101,0.217281,20.8177,564.788,-0.619964,0.0,0.0
11072,2767.75,53.859,56.0253,124.223,98.7818,104.655,0.00235692,0.218147,20.816,564.377,-0.514795,0.0,0.0
11104,2775.75,54.0572,55.8812,123.613,98.7834,104.952,0.00217028,0.218316,20.8155,563.917,-0.539941,0.0,0.0
11136,2783.75,53.9906,56.2645,126.046,98.8065,104.562,0.00246411,0.218966,20.8153,563.497,-0.504617,0.0,0.0
11168,2791.75,53.8749,55.8214,124.655,98.8236,106.346,0.00259383,0.219451,20.814,563.096,-0.653925,0.0,0.0
11200,2799.75,54.3712,56.3997,124.244,98.8523,105.724,0.00220532,0.220703,20.8127,562.656,-0.599057,0.0,0.0
11232,2807.75,54.0878,56.0872,123.873,98.8753,105.197,0.00225349,0.220651,20.8136,562.225,-0.55237,0.0,0.0
11264,2815.75,54.0926,56.1436,124.028,98.8909,106.029,0.00241969,0.220955,20.8141,561.775,-0.621213,0.0,0.0
11296,2823.75,54.2475,56.1479,123.935,98.9326,104.964,0.00258439,0.221713,20.8141,561.305,-0.527512,0.0,0.0
11328,2831.75,54.0522,56.0458,128.68,98.9223,104.686,0.00264756,0.223699,20.8118,560.814,-0.504753,0.0,0.0
11360,2839.75,54.2716,56.1927,125.882,98.9028,106.523,0.00242377,0.226349,20.8079,560.344,-0.661555,0.0,0.0
11392,2847.75,54.3056,56.5672,119.569,98.9199,105.308,0.00218587,0.227182,20.8069,559.873,-0.557768,0.0,0.0
11424,2855.75,54.162,56.6081,119.664,98.9012,105.163,0.00220312,0.228989,20.8029,559.453,-0.547201,0.0,0.0
11456,2863.75,54.6231,56.3815,123.785,98.9135,105.409,0.002516,0.230376,20.7986,559.013,-0.566916,0.0,0.0
11488,2871.75,54.3605,56.4156,120.77,98.9311,104.601,0.00245316,0.231925,20.7987,558.552,-0.496737,0.0,0.0
11520,2879.75,54.7593,56.8509,122.413,98.9478,105.463,0.00226321,0.233325,20.7998,558.092,-0.568363,0.0,0.0
11552,2887.75,54.8186,56.9321,121.782,98.9712,105.574,0.00241061,0.234435,20.7957,557.591,-0.575678,0.0,0.0
11584,2895.75,54.8543,57.239,123.003,99.0039,105.775,0.00239063,0.236259,20.7946,557.131,-0.58965,0.0,0.0
11616,2903.75,54.8732,57.4479,122.526,99.0425,106.041,0.0021881,0.236953,20.7953,556.59,-0.608609,0.0,0.0
11648,2911.75,54.8068,56.801,123.215,99.0663,105.374,0.00213601,0.238741,20.7934,556.03,-0.550213,0.0,0.0
11680,2919.75,54.862,57.0286,122.862,99.1153,106.356,0.00195499,0.240009,20.7932,555.629,-0.628478,0.0,0.0
11712,2927.75,55.7404,57.5612,125.004,99.1503,107.039,0.00223323,0.242851,20.7888,555.089,-0.682399,0.0,0.0
11744,2935.75,55.6809,58.0484,121.805,99.2092,106.698,0.00210707,0.244066,20.7875,554.619,-0.648617,0.0,0.0
11776,2943.75,55.7108,58.227,123.897,99.21875,105.423,0.00238291,0.247005,20.7829,554.118,-0.540589,0.0,0.0
11808,2951.75,56.0866,58.4594,122.747,99.2621,105.833,0.00217521,0.248764,20.7808,553.608,-0.571319,0.0,0.0
11840,2959.75,56.0655,58.0775,124.353,99.2928,105.591,0.00212741,0.250104,20.7796,553.067,-0.548201,0.0,0.0
11872,2967.75,56.1093,58.4157,123.295,99.3075,106.285,0.00207665,0.253806,20.7764,552.487,-0.60526,0.0,0.0
11904,2975.75,56.8446,58.9574,121.838,99.3019,105.595,0.00205784,0.256847,20.7708,551.976,-0.547719,0.0,0.0
11936,2983.75,57.2174,59.7141,119.859,99.3047,106.648,0.0023872,0.258795,20.7682,551.356,-0.6359,0.0,0.0
11968,2991.75,56.6431,59.1728,124.495,99.2967,106.675,0.00240436,0.262547,20.7635,550.815,-0.638891,0.0,0.0
12000,2999.75,57.188,59.2018,126.485,99.2804,106.131,0.00246402,0.266077,20.7612,550.225,-0.594723,0.0,0.0
12032,3007.75,57.3096,59.9916,120.993,99.2896,107.791,0.00239893,0.268795,20.7594,549.644,-0.732245,0.0,0.0
12064,3015.75,57.7151,60.0816,121.962,99.282,107.027,0.00223273,0.271735,20.7552,549.144,-0.669563,0.0,0.0
12096,3023.75,58.4231,60.0265,123.637,99.2725,106.345,0.00235565,0.274507,20.7509,548.543,-0.613456,0.0,0.0
12128,3031.75,57.8712,60.4155,121.459,99.2585,106.938,0.00220033,0.278527,20.7467,547.953,-0.664231,0.0,0.0
12160,3039.75,58.5988,61.1775,119.755,99.2565,105.485,0.00227551,0.2829,20.7415,547.332,-0.542515,0.0,0.0
12192,3047.75,58.8688,61.4914,121.195,99.2319,106.83,0.00217878,0.284276,20.7409,546.721,-0.657614,0.0,0.0
12224,3055.75,59.193,61.6577,124.963,99.1913,105.4,0.00201329,0.286609,20.7366,546.041,-0.54113,0.0,0.0
12256,3063.75,59.5495,62.3141,122.311,99.1603,106.877,0.00204559,0.290801,20.7308,545.39,-0.667998,0.0,0.0
12288,3071.75,60.226,62.7707,118.351,99.1217,106.123,0.00221527,0.294226,20.7285,544.75,-0.608313,0.0,0.0
12320,3079.75,60.389,62.7188,122.778,99.0862,105.979,0.00230427,0.297141,20.724,544.149,-0.599415,0.0,0.0
12352,3087.75,60.3807,62.7885,121.929,99.0289,106.645,0.00206042,0.299029,20.7237,543.489,-0.660388,0.0,0.0
12384,3095.75,60.2354,62.6139,123.63,98.9673,105.679,0.00219571,0.301918,20.721,542.888,-0.584853,0.0,0.0
12416,3103.75,60.316,63.2324,120.52,98.902,106.306,0.00224842,0.30447,20.7194,542.227,-0.643451,0.0,0.0
12448,3111.75,61.0077,63.3061,121.588,98.8216,106.553,0.00218314,0.305309,20.7186,541.527,-0.671376,0.0,0.0
12480,3119.75,61.114,64.1546,117.655,98.7345,105.975,0.00240376,0.309536,20.7128,540.866,-0.630777,0.0,0.0
12512,3127.75,61.8526,64.4427,117.236,98.6827,106.802,0.00218417,0.31184,20.7091,540.166,-0.704729,0.0,0.0
12544,3135.75,61.5883,64.7002,118.973,98.6187,105.732,0.00210747,0.314235,20.7058,539.415,-0.620783,0.0,0.0
12576,3143.75,62.212,64.4491,122.239,98.5479,106.106,0.00203887,0.315572,20.7037,538.764,-0.658675,0.0,0.0
12608,3151.75,62.2795,65.0014,120.926,98.5582,104.52,0.00209302,0.319131,20.7001,538.064,-0.523504,0.0,0.0
12640,3159.75,62.3639,65.0813,116.115,98.6223,105.399,0.00230402,0.320197,20.6983,537.403,-0.592335,0.0,0.0
12672,3167.75,62.512,65.4466,119.154,98.6895,105.941,0.00224914,0.322046,20.6953,536.672,-0.631982,0.0,0.0
12704,3175.75,62.4492,65.8686,121.048,98.7321,105.692,0.00213415,0.325383,20.6922,535.982,-0.60715,0.0,0.0
12736,3183.75,63.3486,65.8433,122.817,98.7898,106.933,0.00221558,0.328582,20.6873,535.261,-0.706052,0.0,0.0
12768,3191.75,63.3326,66.218,120.147,98.8666,104.903,0.00225512,0.331388,20.683,534.54,-0.528269,0.0,0.0
12800,3199.75,63.7376,66.7033,119.58,98.9346,105.397,0.00222833,0.335402,20.6788,533.75,-0.56396,0.0,0.0
12832,3207.75,63.9432,66.994,115.815,98.9943,105.465,0.00217583,0.340012,20.6724,532.979,-0.564396,0.0,0.0
12864,3215.75,64.464,67.4717,121.629,99.0986,105.24,0.00231084,0.346584,20.663,532.248,-0.535975,0.0,0.0
12896,3223.75,64.9768,68.0912,121.329,99.1571,105.163,0.00263941,0.353106,20.657,531.468,-0.524172,0.0,0.0
12928,3231.75,65.0577,68.1088,115.896,99.1981,104.114,0.0027806,0.358508,20.6491,530.697,-0.431145,0.0,0.0
12960,3239.75,65.5922,68.5783,115.941,99.2247,105.32,0.00211612,0.36182,20.6462,529.946,-0.531404,0.0,0.0
12992,3247.75,65.9682,69.2197,120.632,99.2502,104.86,0.00239605,0.362699,20.6436,529.146,-0.490109,0.0,0.0
13024,3255.75,65.8819,68.8092,116.102,99.2868,104.779,0.00264327,0.358749,20.65,528.395,-0.479912,0.0,0.0
13056,3263.75,65.995,69.7235,115.524,99.3019,105.578,0.00230036,0.347524,20.6666,527.704,-0.546287,0.0,0.0
13088,3271.75,65.6077,68.9578,115.755,99.3162,105.704,0.00245861,0.326662,20.6875,527.024,-0.555624,0.0,0.0
13120,3279.75,64.7199,68.63,125.303,99.3154,106.249,0.00267873,0.297976,20.722,526.443,-0.601549,0.0,0.0
13152,3287.75,64.3065,67.9822,124.299,99.3019,105.155,0.00270024,0.264319,20.7616,525.983,-0.510442,0.0,0.0
13184,3295.75,62.202,66.1167,122.137,99.294,105.1,0.00292318,0.233147,20.7926,525.632,-0.506499,0.0,0.0
13216,3303.75,61.3267,64.962,123.219,99.3123,106.081,0.00320867,0.211196,20.8138,525.352,-0.587702,0.0,0.0
13248,3311.75,59.5333,63.1195,123.044,99.2856,105.539,0.0032323,0.196204,20.8285,525.132,-0.544395,0.0,0.0
13280,3319.75,57.5465,61.8347,123.428,99.2812,105.319,0.00331219,0.186132,20.839,524.912,-0.526215,0.0,0.0
13312,3327.75,56.9369,60.7364,125.008,99.2426,105.815,0.00342438,0.177666,20.8502,524.682,-0.571528,0.0,0.0
13344,3335.75,55.7996,59.217,123.525,99.202,105.824,0.0034915,0.169794,20.861,524.471,-0.576002,0.0,0.0
13376,3343.75,54.618,58.4382,126.403,99.1662,105.92,0.00382893,0.16277,20.866,524.271,-0.587264,0.0,0.0
13408,3351.75,53.917,57.0445,127.054,99.0795,105.377,0.00441699,0.155489,20.8749,524.041,-0.549295,0.0,0.0
13440,3359.75,52.7702,55.9043,126.628,98.9812,105.425,0.0043751,0.150873,20.8798,523.861,-0.562145,0.0,0.0
13472,3367.75,52.1273,55.1314,125.782,98.8996,105.155,0.00487899,0.148514,20.8857,523.681,-0.546625,0.0,0.0
13504,3375.75,51.4866,54.0754,126.246,98.9732,105.169,0.00472789,0.145423,20.8891,523.541,-0.541242,0.0,0.0
13536,3383.75,50.8324,53.5936,123.899,99.0202,104.837,0.00452223,0.142717,20.8924,523.44,-0.508777,0.0,0.0
13568,3391.75,50.2557,52.9339,122.067,99.0831,105.215,0.00511083,0.140465,20.8948,523.33,-0.535254,0.0,0.0
13600,3399.75,49.9439,52.3344,126.614,99.1073,104.571,0.0050892,0.138571,20.8985,523.16,-0.478358,0.0,0.0
13632,3407.75,49.6249,51.63,128.918,99.1678,105.2,0.00537542,0.136826,20.9009,523.04,-0.526346,0.0,0.0
13664,3415.75,49.0545,51.0574,126.201,99.2048,104.958,0.00538973,0.135293,20.904,522.88,-0.502492,0.0,0.0
13696,3423.75,48.5833,50.9835,125.946,99.2291,105.409,0.0057181,0.134491,20.9041,522.74,-0.538489,0.0,0.0
13728,3431.75,48.3735,50.3419,128.832,99.2402,104.513,0.00534316,0.133888,20.9021,522.55,-0.461426,0.0,0.0
13760,3439.75,48.3307,49.7441,125.584,99.2526,104.68,0.00541745,0.133449,20.9015,522.43,-0.47451,0.0,0.0
13792,3447.75,47.9902,49.7784,127.381,99.2542,104.902,0.0054694,0.132592,20.9031,522.289,-0.493281,0.0,0.0
13824,3455.75,47.3753,49.3792,127.662,99.2434,104.642,0.00539997,0.131808,20.9061,522.199,-0.472177,0.0,0.0
13856,3463.75,47.5398,49.0029,131.45,99.2339,104.451,0.0056033,0.131299,20.9079,522.119,-0.456741,0.0,0.0
13888,3471.75,47.3363,48.8811,128.631,99.2048,105.517,0.00579228,0.130986,20.9084,521.989,-0.549802,0.0,0.0
13920,3479.75,47.2373,48.6355,127.413,99.1583,104.613,0.00597038,0.130148,20.9087,521.879,-0.477355,0.0,0.0
13952,3487.75,46.6136,48.0332,131.217,99.1336,105.019,0.0059355,0.128132,20.9092,521.749,-0.51405,0.0,0.0
13984,3495.75,46.5263,47.94,130.692,99.103,103.976,0.00627641,0.127286,20.9118,521.629,-0.427875,0.0,0.0
14016,3503.75,46.1655,48.1224,129.318,99.0747,104.254,0.00609511,0.127268,20.9113,521.449,-0.454192,0.0,0.0
14048,3511.75,46.3137,47.8405,128.263,98.9963,104.425,0.00648608,0.126007,20.9114,521.329,-0.475895,0.0,0.0
14080,3519.75,46.0559,47.534,124.628,98.9633,104.279,0.00639632,0.125832,20.9123,521.229,-0.466359,0.0,0.0
14112,3527.75,45.4955,47.406,129.537,98.949,104.282,0.0059921,0.125832,20.9113,521.108,-0.467879,0.0,0.0
14144,3535.75,45.7478,46.9043,125.64,98.9486,104.51,0.00610651,0.126092,20.9122,521.038,-0.487395,0.0,0.0
14176,3543.75,45.4466,46.6583,130.387,98.9486,104.39,0.00632069,0.125701,20.9105,520.948,-0.477183,0.0,0.0
14208,3551.75,45.3469,46.4622,129.716,98.9513,104.6,0.0061111,0.125499,20.9095,520.848,-0.494833,0.0,0.0
14240,3559.75,45.5512,46.8251,126.971,98.9613,103.71,0.00615097,0.125018,20.9112,520.738,-0.417745,0.0,0.0
14272,3567.75,45.6214,46.6638,129.293,98.9732,104.513,0.0064499,0.125038,20.9109,520.628,-0.485477,0.0,0.0
14304,3575.75,45.1838,46.5042,130.676,98.9856,103.869,0.0060599,0.124711,20.9136,520.488,-0.429248,0.0,0.0
14336,3583.75,45.497,46.5395,125.863,98.9979,104.04,0.00669876,0.124147,20.9126,520.338,-0.442762,0.0,0.0
14368,3591.75,45.2456,46.1294,128.208,98.9876,103.92,0.00655124,0.123823,20.913,520.238,-0.433398,0.0,0.0
14400,3599.75,44.9838,46.6131,131.585,98.988,104.811,0.00643015,0.123171,20.92,520.158,-0.509515,0.0,0.0
14432,3607.75,43.0591,44.3143,129.642,98.9848,103.519,0.0066636,0.122988,20.9189,520.097,-0.399191,0.0,0.0
14464,3615.75,43.0597,44.1427,128.155,98.9971,103.411,0.00690133,0.123009,20.9205,519.997,-0.388848,0.0,0.0
14496,3623.75,42.4763,43.9281,129.176,98.9919,103.324,0.0067306,0.122492,20.9187,519.887,-0.381729,0.0,0.0
14528,3631.75,43.1452,44.1496,125.537,99.0134,105.038,0.00678223,0.123001,20.9154,519.777,-0.526452,0.0,0.0
14560,3639.75,42.6645,43.8683,126.215,99.0254,104.193,0.00715435,0.122635,20.9155,519.677,-0.453401,0.0,0.0
14592,3647.75,42.6211,43.7313,130.536,99.0166,104.839,0.00689169,0.122369,20.9156,519.547,-0.509289,0.0,0.0
14624,3655.75,42.7025,43.627,125.653,99.0468,103.682,0.0067814,0.121602,20.9177,519.417,-0.407625,0.0,0.0
14656,3663.75,42.2059,43.8173,130.267,99.0572,104.237,0.00684997,0.121419,20.9191,519.327,-0.454317,0.0,0.0
14688,3671.75,42.5542,43.6393,126.304,99.0735,103.788,0.0070674,0.1218,20.9181,519.247,-0.414395,0.0,0.0
14720,3679.75,42.0867,43.6819,128.909,99.1101,104.566,0.00703797,0.121718,20.9178,519.167,-0.477651,0.0,0.0
14752,3687.75,42.4063,43.7411,126.93,99.1404,104.198,0.00705015,0.122352,20.9157,519.087,-0.443476,0.0,0.0
14784,3695.75,42.1265,44.0261,128.981,99.1786,105.322,0.0070276,0.122566,20.915,518.987,-0.535664,0.0,0.0
14816,3703.75,43.0853,43.6099,127.035,99.2287,104.406,0.00709764,0.122427,20.9171,518.896,-0.453319,0.0,0.0
14848,3711.75,42.0589,43.6838,130.035,99.2585,103.799,,0.122652,,518.796,-0.398722,0.0,0.0
14880,3719.75,42.1944,43.305,130.551,99.2745,103.804,,,,518.646,-0.397638,0.0,0.0
14889,3722,41.9121,43.5623,128.158,99.2753,104.79,,,,518.626,-0.481897,0.0,0.0