File: 01_Data/Countertop_Plastic_Laminate/Cone/Countertop_Plastic_Laminate_Cone_HF50Scan_220415_R3.csv
Names,Time,Stack TC,Smoke TC,Exh Press,Smoke Comp,Smoke Meas,CO Meter,CO2 Meter,O2 Meter,Sample Mass,Ext Coeff,Start Test,Flame Verif
Chan Gain,,500,500,1,1,1,1,1,1,1,1,1.0,1.0
Offset,,0,0,0.134921,0,0,0,0,0,0,0,0.0,0.0
Gain,,1,1,25.011,13.0391,14.631,1,1,1,1.0009,1.01612,1.0,1.0
Units,sec,C,C,Pa,%,%,%,%,%,g,/m,,
Baseline,,35.6115,36.8674,131.791,98.4512,102.82,0.000558659,0.065557,20.9876,-478.163,-0.386967,,
32,7.75,32.2703,33.9284,132.11,99.3962,103.889,0.000204049,0.0850944,20.9638,749.804,-0.394071,0.0,0.0
64,15.75,32.9697,33.746,132.337,99.356,103.129,0.000475043,0.0744692,20.9777,749.814,-0.332234,0.0,0.0
96,23.75,34.1274,35.3122,125.806,99.3286,105.413,0.00220751,0.144136,20.8916,749.384,-0.529935,0.0,1.0
128,31.75,34.1992,35.044,130.805,99.3246,99.2081,0.00624565,0.135122,20.8885,748.863,0.010459,0.0,1.0
160,39.75,42.9837,42.0126,116.035,99.3246,104.491,0.00487996,0.416922,20.5613,747.612,-0.451949,0.0,0.0
192,47.75,45.0383,44.9758,126.419,99.317,104.946,0.00359807,0.260122,20.7568,747.031,-0.491392,0.0,0.0
224,55.75,46.2656,45.9954,121.905,99.3007,106.182,0.00355241,0.238608,20.7874,746.401,-0.597175,0.0,0.0
256,63.75,47.2014,47.9401,123.548,99.2864,102.916,0.00401078,0.299474,20.718,745.57,-0.320058,0.0,0.0
288,71.75,48.3751,49.411,123.054,99.2828,102.752,0.0033335,0.273935,20.753,744.91,-0.306136,0.0,0.0
320,79.75,49.0008,50.1413,128.491,99.2737,104.077,0.00328624,0.221141,20.8181,744.389,-0.421181,0.0,0.0
352,87.75,48.136,49.4314,126.691,99.2947,103.992,0.00336274,0.187358,20.8541,743.979,-0.41202,0.0,0.0
384,95.75,46.9345,49.1353,126.336,99.2983,104.652,0.00343064,0.167691,20.8719,743.648,-0.468045,0.0,0.0
416,103.75,46.2868,48.3834,127.884,99.2928,104.333,0.00337498,0.159408,20.877,743.348,-0.44135,0.0,0.0
448,111.75,45.7824,48.5977,127.572,99.294,104.192,0.00367291,0.160059,20.8757,743.058,-0.429219,0.0,0.0
480,119.75,45.2466,47.9206,127.481,99.2844,104.517,0.00358703,0.166768,20.8669,742.738,-0.457765,0.0,0.0
512,127.75,45.5458,48.0398,128.419,99.2498,102.898,0.00426098,0.176841,20.8527,742.337,-0.32172,0.0,0.0
544,135.75,45.5848,48.0476,123.448,99.206,102.356,0.00394877,0.187716,20.8408,741.927,-0.278612,0.0,0.0
576,143.75,46.1164,48.3365,126.027,99.1439,101.147,0.00394735,0.201157,20.8248,741.436,-0.17831,0.0,0.0
608,151.75,46.7685,49.029,124.785,99.1181,100.687,0.00416412,0.217084,20.8081,740.926,-0.140017,0.0,0.0
640,159.75,47.137,49.2456,123.222,99.0675,100.889,0.00488108,0.230998,20.7951,740.345,-0.162411,0.0,0.0
672,167.75,47.7241,50.2983,124.724,99.0218,100.23,0.00533705,0.243238,20.7835,739.725,-0.108114,0.0,0.0
704,175.75,49.5153,51.1189,124.112,98.9872,99.1813,0.00534128,0.254705,20.7718,739.104,-0.0174669,0.0,0.0
736,183.75,49.6409,52.2117,123.555,98.9601,100.539,0.00527286,0.26593,20.7606,738.444,-0.141102,0.0,0.0
768,191.75,50.4811,52.7414,124.129,98.9163,100.052,0.00561063,0.276996,20.7467,737.703,-0.101713,0.0,0.0
800,199.75,51.4131,53.7843,121.031,98.869,100.443,0.00581365,0.285012,20.7375,736.992,-0.140759,0.0,0.0
832,207.75,52.3637,54.6803,123.57,98.8149,101.099,0.00605232,0.291796,20.7318,736.192,-0.203695,0.0,0.0
864,215.75,53.4049,55.4855,121.173,98.7691,101.084,0.00560637,0.297284,20.7268,735.401,-0.206524,0.0,0.0
896,223.75,54.1246,56.2353,118.215,98.7305,102.202,0.00546871,0.300392,20.724,734.6,-0.308014,0.0,0.0
928,231.75,54.7299,57.3041,121.412,98.7202,102.365,0.00473388,0.304096,20.7172,733.74,-0.323189,0.0,0.0
960,239.75,55.0617,57.8462,117.715,98.7046,101.988,0.0044381,0.305655,20.7158,732.909,-0.291716,0.0,0.0
992,247.75,55.4338,58.2516,121.436,98.6764,102.467,0.0040566,0.304089,20.7184,732.078,-0.335962,0.0,0.0
1024,255.75,55.3599,59.3371,122.135,98.6728,103.237,0.00373687,0.301588,20.7219,731.277,-0.403074,0.0,0.0
1056,263.75,56.2915,59.2553,121.069,98.6621,102.87,0.00398979,0.302112,20.7197,730.497,-0.3723,0.0,0.0
1088,271.75,56.8778,59.6508,124.073,98.6223,103.332,0.00383387,0.302285,20.7194,729.726,-0.415771,0.0,0.0
1120,279.75,56.8506,59.9463,121.671,98.5964,103.449,0.00378681,0.301695,20.7197,728.965,-0.428233,0.0,0.0
1152,287.75,57.3916,60.9589,123.749,98.555,103.733,0.00329185,0.301559,20.7181,728.175,-0.456409,0.0,0.0
1184,295.75,57.519,60.7665,122.906,98.5272,102.705,0.00345373,0.299685,20.7214,727.394,-0.37013,0.0,0.0
1216,303.75,57.5719,60.893,122.177,98.4874,102.479,0.0034609,0.295881,20.7262,726.623,-0.354102,0.0,0.0
1248,311.75,57.5987,61.4142,121.564,98.4886,103.726,0.00332382,0.293099,20.7269,725.862,-0.461845,0.0,0.0
1280,319.75,57.6056,60.4513,122.407,98.4925,103.993,0.00295028,0.291196,20.7304,725.092,-0.484362,0.0,0.0
1312,327.75,58.0385,61.3913,122.249,98.4977,103.725,0.00289532,0.28874,20.7332,724.421,-0.460902,0.0,0.0
1344,335.75,57.8027,61.4767,121.748,98.5065,105.592,0.00256793,0.287271,20.735,723.741,-0.619142,0.0,0.0
1376,343.75,57.6192,60.7372,117.403,98.4882,104.827,0.00268503,0.283874,20.7371,723.05,-0.555961,0.0,0.0
1408,351.75,57.7997,61.2781,117.182,98.4838,104.392,0.00268801,0.283343,20.7371,722.339,-0.51934,0.0,0.0
1440,359.75,58.016,61.3423,121.178,98.444,103.299,0.00257284,0.280669,20.7401,721.669,-0.429123,0.0,0.0
1472,367.75,58.1635,61.4264,119.285,98.4002,104.091,0.00243979,0.276912,20.7444,720.988,-0.501173,0.0,0.0
1504,375.75,57.871,61.586,123.368,98.3513,104.526,0.00220783,0.274295,20.745,720.277,-0.54277,0.0,0.0
1536,383.75,57.8288,60.8363,124.328,98.3059,104.66,0.0023304,0.271955,20.7487,719.597,-0.558259,0.0,0.0
1568,391.75,57.67,61.0207,123.318,98.2828,104.561,0.00226437,0.269398,20.7515,718.956,-0.551945,0.0,0.0
1600,399.75,57.4397,61.3027,123.057,98.2709,105.526,0.00184457,0.266927,20.7551,718.316,-0.634903,0.0,0.0
1632,407.75,57.4885,60.8614,124.289,98.2315,103.89,0.00207142,0.265562,20.7566,717.705,-0.499209,0.0,0.0
1664,415.75,57.4001,60.3875,121.489,98.2096,104.654,0.00200599,0.263993,20.7586,717.065,-0.566501,0.0,0.0
1696,423.75,57.5879,60.6546,122.341,98.1857,105.263,0.00209013,0.26263,20.7589,716.434,-0.620388,0.0,0.0
1728,431.75,57.296,60.363,123.116,98.1766,104.404,0.00223054,0.260993,20.7605,715.813,-0.548178,0.0,0.0
1760,439.75,57.0649,60.4739,123.493,98.1734,105.574,0.00181194,0.260236,20.7616,715.203,-0.647785,0.0,0.0
1792,447.75,57.5537,61.0178,118.117,98.1678,103.983,0.00174411,0.260605,20.7621,714.542,-0.512915,0.0,0.0
1824,455.75,57.2867,60.5865,123.826,98.1873,104.275,0.00183164,0.259448,20.7646,713.892,-0.536179,0.0,0.0
1856,463.75,57.1902,60.2752,122.464,98.212,104.285,0.00163549,0.257745,20.7656,713.271,-0.534818,0.0,0.0
1888,471.75,56.9473,60.0429,122.738,98.2458,104.948,0.0021717,0.257363,20.7655,712.661,-0.58824,0.0,0.0
1920,479.75,57.2842,60.1099,124.789,98.2828,105.941,0.00211404,0.256028,20.7657,712.04,-0.668826,0.0,0.0
1952,487.75,57.2515,60.1598,127.639,98.325,105.549,0.00222388,0.254844,20.7678,711.5,-0.631918,0.0,0.0
1984,495.75,56.8308,59.9222,121.899,98.3561,104.232,0.00206441,0.254065,20.7678,710.869,-0.517211,0.0,0.0
2016,503.75,56.6871,59.9672,125.076,98.4138,104.896,0.00215637,0.25356,20.7689,710.298,-0.568543,0.0,0.0
2048,511.75,57.0008,60.0214,125.269,98.4846,104.801,0.0018236,0.251936,20.7706,709.708,-0.554121,0.0,0.0
2080,519.75,57.2317,60.059,125.369,98.5463,105.164,0.00170796,0.249742,20.7717,709.127,-0.579323,0.0,0.0
2112,527.75,56.9988,60.3419,121.333,98.6056,106.023,0.00176293,0.248399,20.7732,708.467,-0.646441,0.0,0.0
2144,535.75,56.8568,59.3621,122.236,98.6716,105.935,0.00165773,0.248563,20.7735,707.886,-0.633111,0.0,0.0
2176,543.75,56.671,59.6169,121.866,98.7269,106.125,0.00152706,0.246247,20.7744,707.266,-0.644068,0.0,0.0
2208,551.75,56.2109,59.3712,121.626,98.7723,105.497,0.00162815,0.244257,20.7771,706.735,-0.58709,0.0,0.0
2240,559.75,56.5955,59.2854,125.239,98.8459,104.939,0.00184523,0.242546,20.781,706.205,-0.533169,0.0,0.0
2272,567.75,56.6246,59.3424,122.867,98.8952,106.161,0.00185681,0.240358,20.7853,705.674,-0.631959,0.0,0.0
2304,575.75,56.2284,59.3105,122.538,98.9708,105.461,0.00172212,0.238403,20.7863,705.134,-0.566172,0.0,0.0
2336,583.75,56.4939,59.3179,121.524,99.0564,105.429,0.00166434,0.236743,20.7871,704.573,-0.555752,0.0,0.0
2368,591.75,56.222,59.0406,122.096,99.1268,107.04,0.00176661,0.235288,20.7902,704.033,-0.684584,0.0,0.0
2400,599.75,56.1756,58.9544,124.798,99.1925,105.387,0.0016749,0.234277,20.7909,703.432,-0.539966,0.0,0.0
2432,607.75,55.9253,58.6455,121.848,99.2363,105.557,0.00208779,0.231675,20.7954,702.852,-0.550372,0.0,0.0
2464,615.75,55.4959,58.3729,126.72,99.286,105.73,0.00160773,0.228583,20.799,702.341,-0.560485,0.0,0.0
2496,623.75,55.7204,58.5265,122.044,99.3214,106.276,0.00156847,0.22795,20.8008,701.811,-0.603223,0.0,0.0
2528,631.75,55.4243,57.9007,123.917,99.3469,106.278,0.00171961,0.225499,20.8039,701.31,-0.601088,0.0,0.0
2560,639.75,55.3857,57.7958,122.221,99.3568,106.623,0.00171891,0.224176,20.8052,700.83,-0.629132,0.0,0.0
2592,647.75,54.8786,57.7891,125.922,99.3676,105.711,0.00178206,0.222617,20.8084,700.309,-0.551583,0.0,0.0
2624,655.75,54.589,57.5619,125.426,99.3564,106.07,0.00171684,0.220295,20.8113,699.799,-0.582838,0.0,0.0
2656,663.75,54.5826,57.2799,126.322,99.3568,105.857,0.00171282,0.218114,20.8117,699.259,-0.564887,0.0,0.0
2688,671.75,54.5074,56.9775,128.814,99.3357,106.779,0.00176814,0.216598,20.8145,698.778,-0.644004,0.0,0.0
2720,679.75,54.5508,57.0917,122.354,99.315,106.102,0.00182836,0.213837,20.8146,698.188,-0.589178,0.0,0.0
2752,687.75,54.5298,56.9367,123.073,99.2928,106.204,0.00171376,0.212323,20.8158,697.717,-0.599764,0.0,0.0
2784,695.75,53.9753,56.6692,127.023,99.2514,104.965,0.00197895,0.210926,20.8169,697.227,-0.498918,0.0,0.0
2816,703.75,54.4108,56.6129,122.948,99.216,107.603,0.00222469,0.209482,20.8196,696.796,-0.723334,0.0,0.0
2848,711.75,53.904,56.03,124.715,99.1603,105.41,0.00180275,0.207805,20.8208,696.316,-0.544788,0.0,0.0
2880,719.75,53.4903,56.356,129.415,99.0986,105.644,0.00159082,0.20701,20.8231,695.795,-0.570097,0.0,0.0
2912,727.75,53.746,55.8278,125.224,99.0059,106.415,0.00150665,0.204098,20.8265,695.345,-0.643226,0.0,0.0
2944,735.75,53.6614,55.8896,121.713,98.9088,105.76,0.00191782,0.204526,20.8277,694.865,-0.596936,0.0,0.0
2976,743.75,53.456,56.0696,123.815,98.8089,104.495,0.00163484,0.202565,20.8285,694.374,-0.49869,0.0,0.0
3008,751.75,52.9748,55.6702,124.572,98.7213,106.197,0.00148627,0.200514,20.8297,693.864,-0.650607,0.0,0.0
3040,759.75,53.0119,55.2734,122.503,98.6477,105.51,0.0017451,0.199417,20.8316,693.413,-0.599394,0.0,0.0
3072,767.75,52.6168,55.0029,124.676,98.6067,105.335,0.0018428,0.198574,20.8347,692.923,-0.588374,0.0,0.0
3104,775.75,53.2369,54.9726,124.589,98.7221,105.466,0.00206455,0.19771,20.8365,692.513,-0.588975,0.0,0.0
3136,783.75,52.7042,54.8597,124.82,98.8566,105.843,0.00172436,0.195644,20.8389,692.132,-0.60867,0.0,0.0
3168,791.75,52.062,54.7237,125.506,98.9303,105.189,0.00166965,0.19454,20.8399,691.642,-0.546816,0.0,0.0
3200,799.75,52.0404,54.4894,126.433,98.9931,105.037,0.00216309,0.19315,20.8441,691.191,-0.528242,0.0,0.0
3232,807.75,52.5046,54.3578,122.588,99.1169,105.769,0.00198574,0.193369,20.8408,690.711,-0.579029,0.0,0.0
3264,815.75,52.2035,54.1973,126.351,99.1821,106.007,0.00188174,0.193367,20.8393,690.25,-0.593121,0.0,0.0
3296,823.75,51.9569,54.3055,126.178,99.2418,106.399,0.00192536,0.193282,20.8403,689.74,-0.620735,0.0,0.0
3328,831.75,51.6228,53.7681,123.434,99.2987,106.191,0.00189477,0.191145,20.8422,689.31,-0.598178,0.0,0.0
3360,839.75,52.2115,53.8582,121.867,99.3226,106.199,0.00177737,0.191442,20.8426,688.819,-0.596673,0.0,0.0
3392,847.75,51.6148,53.3611,123.006,99.3501,105.025,0.00191927,0.190945,20.8421,688.399,-0.495138,0.0,0.0
3424,855.75,52.1071,53.9357,123.859,99.3532,104.948,0.00196243,0.18997,20.8444,687.988,-0.488295,0.0,0.0
3456,863.75,51.5984,53.8989,124.543,99.3461,106.75,0.00197337,0.188962,20.8456,687.558,-0.640653,0.0,0.0
3488,871.75,51.1438,53.541,126.136,99.3258,105.664,0.00219879,0.188356,20.8467,687.138,-0.551378,0.0,0.0
3520,879.75,52.1071,54.1514,126.377,99.276,104.842,0.00223185,0.187946,20.8478,686.687,-0.486231,0.0,0.0
3552,887.75,50.8635,53.0173,125.105,99.2263,105.808,0.0021892,0.187493,20.8499,686.247,-0.57243,0.0,0.0
3584,895.75,50.8692,52.9979,125.108,99.1483,104.844,0.00201489,0.18704,20.8494,685.786,-0.497858,0.0,0.0
3616,903.75,51.1426,53.4557,126.096,99.091,104.902,0.00235377,0.187253,20.8493,685.276,-0.507945,0.0,0.0
3648,911.75,51.0783,53.483,124.497,99.0079,106.121,0.00227265,0.187062,20.8515,684.826,-0.618403,0.0,0.0
3680,919.75,51.4737,53.2085,124.108,98.976,104.296,0.00207633,0.187368,20.8494,684.385,-0.466701,0.0,0.0
3712,927.75,51.1947,53.3496,126.936,98.937,104.985,0.00200493,0.187165,20.8474,683.955,-0.528899,0.0,0.0
3744,935.75,51.5435,52.8303,124.828,98.9641,104.745,0.0021961,0.186482,20.85,683.584,-0.506005,0.0,0.0
3776,943.75,51.5482,52.7759,124.31,99.0043,105.017,0.00228833,0.185237,20.8489,683.124,-0.525534,0.0,0.0
3808,951.75,51.0638,53.3666,128.977,99.0289,106.002,0.00206762,0.185115,20.8499,682.734,-0.606486,0.0,0.0
3840,959.75,50.7692,52.8212,123.568,99.0707,105.363,0.00213143,0.18497,20.8495,682.263,-0.548837,0.0,0.0
3872,967.75,50.8854,52.9579,125.079,99.1177,105.923,0.00201012,0.185453,20.8505,681.853,-0.591855,0.0,0.0
3904,975.75,51.2881,52.8146,125.202,99.1901,106.023,0.00230939,0.185981,20.8465,681.352,-0.593757,0.0,0.0
3936,983.75,50.8197,52.6971,124.579,99.2426,106.199,0.0023594,0.186045,20.8455,680.912,-0.603815,0.0,0.0
3968,991.75,50.9965,52.1698,125.593,99.2971,105.766,0.00187187,0.185247,20.8487,680.432,-0.562571,0.0,0.0
4000,999.75,50.5252,52.4607,127.749,99.3576,105.075,0.00218696,0.185078,20.8501,680.041,-0.498703,0.0,0.0
4032,1007.75,50.4607,52.3062,122.003,99.4213,106.78,0.00216428,0.185615,20.851,679.631,-0.636443,0.0,0.0
4064,1015.75,50.8696,52.2679,124.749,99.4551,105.231,0.00200829,0.184983,20.8534,679.221,-0.503209,0.0,0.0
4096,1023.75,50.5731,52.6267,124.64,99.5045,105.65,0.00228581,0.184267,20.8533,678.8,-0.534154,0.0,0.0
4128,1031.75,50.8306,52.8233,122.87,99.5478,105.927,0.00220437,0.184729,20.8533,678.39,-0.553632,0.0,0.0
4160,1039.75,50.7448,52.5809,126.004,99.5438,105.763,0.00195747,0.184029,20.8529,677.919,-0.540189,0.0,0.0
4192,1047.75,50.617,52.471,123.17,99.5574,106.293,0.00196049,0.184767,20.8505,677.509,-0.583532,0.0,0.0
4224,1055.75,51.1844,52.7761,127.649,99.5478,106.413,0.00207991,0.184207,20.8508,677.009,-0.594453,0.0,0.0
4256,1063.75,51.0524,52.9355,128.482,99.5478,105.343,0.00254111,0.184241,20.8493,676.568,-0.504353,0.0,0.0
4288,1071.75,50.1129,52.0224,124.89,99.5757,105.834,0.00231841,0.184453,20.8497,676.118,-0.54332,0.0,0.0
4320,1079.75,50.3156,52.5088,124.898,99.6019,104.629,0.00207298,0.18406,20.8495,675.717,-0.438893,0.0,0.0
4352,1087.75,50.2566,52.2336,126.847,99.6242,105.087,0.00188482,0.184702,20.8523,675.327,-0.47584,0.0,0.0
4384,1095.75,50.2295,52.4934,125.083,99.6608,105.317,0.00199477,0.18478,20.853,674.887,-0.492011,0.0,0.0
4416,1103.75,50.3553,52.3323,130.301,99.6927,106.628,0.00210861,0.183683,20.8539,674.416,-0.599465,0.0,0.0
4448,1111.75,50.6237,52.4184,122.721,99.7241,105.658,0.00184423,0.183692,20.8533,674.036,-0.515216,0.0,0.0
4480,1119.75,50.624,52.3019,126.608,99.7575,106.007,0.00225717,0.182746,20.8534,673.545,-0.54156,0.0,0.0
4512,1127.75,50.0273,51.9351,124.655,99.7754,106.832,0.0019612,0.18343,20.8525,673.115,-0.609072,0.0,0.0
4544,1135.75,50.3568,52.0912,126.603,99.7886,106.301,0.00194237,0.183321,20.8549,672.705,-0.563532,0.0,0.0
4576,1143.75,50.4299,51.9453,125.05,99.7973,107.403,0.00226497,0.18263,20.8557,672.264,-0.654674,0.0,0.0
4608,1151.75,50.3346,51.9019,124.183,99.8017,106.054,0.00194395,0.18403,20.8538,671.844,-0.541631,0.0,0.0
4640,1159.75,50.0981,51.9599,124.802,99.8236,105.747,0.00221841,0.183173,20.8546,671.453,-0.513783,0.0,0.0
4672,1167.75,50.4974,51.7479,123.122,99.8208,106.147,0.0021542,0.184237,20.8556,671.003,-0.547727,0.0,0.0
4704,1175.75,50.0502,52.233,128.574,99.8208,105.183,0.00211363,0.184055,20.8557,670.583,-0.466372,0.0,0.0
4736,1183.75,50.17,51.9667,123.16,99.8049,105.875,0.00200173,0.184895,20.855,670.152,-0.526285,0.0,0.0
4768,1191.75,50.2688,52.2457,128.602,99.7985,105.674,0.00203849,0.184054,20.8547,669.702,-0.509886,0.0,0.0
4800,1199.75,50.0558,52.0553,127.041,99.779,106.015,0.00249217,0.184752,20.8545,669.222,-0.540316,0.0,0.0
4832,1207.75,49.9711,52.2147,125.597,99.7567,106.288,0.00241807,0.184601,20.8557,668.761,-0.565252,0.0,0.0
4864,1215.75,50.2146,51.9299,128.601,99.7504,107.303,0.00202891,0.184913,20.8553,668.341,-0.650527,0.0,0.0
4896,1223.75,50.3264,52.0874,124.318,99.7261,106.323,0.00170122,0.184594,20.8543,667.94,-0.570948,0.0,0.0
4928,1231.75,50.4087,51.9699,121.489,99.7165,105.837,0.00221402,0.185285,20.8545,667.54,-0.530983,0.0,0.0
4960,1239.75,50.2702,52.1347,126.64,99.6955,107.247,0.00196689,0.185488,20.8551,667.09,-0.650835,0.0,0.0
4992,1247.75,49.9541,51.8117,120.05,99.6807,106.154,0.00220051,0.185573,20.8544,666.679,-0.560806,0.0,0.0
5024,1255.75,50.1933,52.1498,125.1,99.6648,105.11,0.00207952,0.185421,20.8544,666.269,-0.474179,0.0,0.0
5056,1263.75,49.9871,52.1153,127.595,99.625,107.173,0.00180422,0.186807,20.8521,665.798,-0.650973,0.0,0.0
5088,1271.75,50.1671,52.2832,127.189,99.6155,105.584,0.00194658,0.186895,20.8504,665.308,-0.518638,0.0,0.0
5120,1279.75,49.8514,51.7298,126.611,99.6079,105.164,0.00210669,0.185967,20.8501,664.848,-0.483812,0.0,0.0
5152,1287.75,50.675,52.5805,124.808,99.5984,106.066,0.00203124,0.186691,20.8501,664.397,-0.560823,0.0,0.0
5184,1295.75,50.3685,52.304,124.587,99.5745,105.569,0.00199763,0.187094,20.8494,663.977,-0.521062,0.0,0.0
5216,1303.75,50.4905,52.3769,125.277,99.551,105.908,0.00176365,0.187886,20.8503,663.546,-0.551769,0.0,0.0
5248,1311.75,49.7342,51.8554,126.349,99.5454,105.044,0.00205167,0.188386,20.8472,663.136,-0.479256,0.0,0.0
5280,1319.75,50.4037,52.0182,122.466,99.5152,105.925,0.00199947,0.189749,20.8457,662.716,-0.556366,0.0,0.0
5312,1327.75,50.278,52.462,125.227,99.4786,105.118,0.00198187,0.189067,20.8477,662.255,-0.491455,0.0,0.0
5344,1335.75,50.05,52.1662,122.663,99.4396,105.385,0.00226101,0.188922,20.8488,661.775,-0.517562,0.0,0.0
5376,1343.75,50.2616,52.5091,125.159,99.3871,104.82,0.00210882,0.188998,20.8474,661.314,-0.47437,0.0,0.0
5408,1351.75,50.7688,52.6801,124.315,99.3345,104.772,0.0019279,0.189713,20.8462,660.844,-0.475019,0.0,0.0
5440,1359.75,50.3801,52.5196,123.517,99.3011,105.485,0.00184315,0.191401,20.8432,660.374,-0.538476,0.0,0.0
5472,1367.75,50.5961,52.5357,125.783,99.2757,105.55,0.00181418,0.19266,20.8454,659.893,-0.546269,0.0,0.0
5504,1375.75,50.5814,52.5033,126.646,99.2534,106.115,0.00189304,0.191872,20.8456,659.463,-0.595803,0.0,0.0
5536,1383.75,50.7561,52.6187,125.113,99.2263,105.356,0.00179101,0.192406,20.8431,659.052,-0.53432,0.0,0.0
5568,1391.75,50.5709,52.9023,125.061,99.1555,105.383,0.00195623,0.192421,20.8427,658.632,-0.542914,0.0,0.0
5600,1399.75,50.6301,52.7189,123.534,99.1026,105.514,0.0017748,0.193803,20.8417,658.172,-0.558769,0.0,0.0
5632,1407.75,50.71,52.9731,123.075,99.0476,105.523,0.00216083,0.195127,20.8394,657.731,-0.564501,0.0,0.0
5664,1415.75,50.6307,52.6884,123.546,98.9876,104.238,0.00232501,0.196412,20.8374,657.231,-0.460624,0.0,0.0
5696,1423.75,50.82,52.9545,122.293,98.9486,105.533,0.0020335,0.195957,20.8373,656.77,-0.574252,0.0,0.0
5728,1431.75,50.9036,53.0246,129.325,98.9267,105.832,0.00185042,0.197476,20.8373,656.24,-0.601455,0.0,0.0
5760,1439.75,50.9104,53.1703,123.396,98.9135,105.843,0.00183916,0.197773,20.8381,655.789,-0.603503,0.0,0.0
5792,1447.75,51.5198,53.3266,124.801,98.9223,104.722,0.00179033,0.197873,20.8368,655.309,-0.50787,0.0,0.0
5824,1455.75,51.2081,53.367,121.839,98.933,106.011,0.00186563,0.198187,20.8363,654.869,-0.61591,0.0,0.0
5856,1463.75,51.3188,52.984,126.283,98.9271,105.069,0.00182835,0.199686,20.8344,654.438,-0.536881,0.0,0.0
5888,1471.75,51.4689,53.3688,124.401,98.9326,104.734,0.00203463,0.199932,20.8365,653.928,-0.507925,0.0,0.0
5920,1479.75,51.555,53.4238,126.32,98.9028,105.801,0.00168558,0.199556,20.8383,653.467,-0.600936,0.0,0.0
5952,1487.75,51.6941,53.5067,128.197,98.8387,105.58,0.00187019,0.201596,20.8364,652.997,-0.588072,0.0,0.0
5984,1495.75,51.4522,53.4867,124.671,98.7922,105.819,0.00201351,0.20208,20.8346,652.446,-0.612416,0.0,0.0
6016,1503.75,51.2246,53.6051,123.531,98.7265,105.261,0.00189766,0.202807,20.8351,651.956,-0.57128,0.0,0.0
6048,1511.75,51.6618,53.8067,125.879,98.6887,105.4,0.00190206,0.204137,20.8343,651.476,-0.586444,0.0,0.0
6080,1519.75,51.9365,53.9156,124.705,98.6772,105.852,0.00203127,0.204611,20.8317,651.005,-0.625579,0.0,0.0
6112,1527.75,51.9264,54.1787,123.769,98.6382,105.967,0.00182251,0.205196,20.8308,650.605,-0.638797,0.0,0.0
6144,1535.75,51.8808,54.2394,123.675,98.6255,104.617,0.00180895,0.20619,20.8288,650.094,-0.525722,0.0,0.0
6176,1543.75,52.1617,54.2542,124.465,98.6103,105.931,0.00198578,0.207114,20.8285,649.604,-0.63831,0.0,0.0
6208,1551.75,52.1679,54.1999,122.703,98.5912,104.455,0.0016608,0.208905,20.8249,649.093,-0.514995,0.0,0.0
6240,1559.75,52.071,54.3097,121.864,98.5892,105.494,0.00148014,0.209689,20.8228,648.613,-0.603398,0.0,0.0
6272,1567.75,52.3054,54.6,122.993,98.5753,104.663,0.00143582,0.210415,20.8208,648.0625,-0.534133,0.0,0.0
6304,1575.75,52.1857,54.4776,128.895,98.5574,104.815,0.00164654,0.211873,20.8214,647.542,-0.54871,0.0,0.0
6336,1583.75,52.6193,54.7555,124.007,98.5391,104.647,0.00153775,0.213065,20.8208,647.052,-0.536001,0.0,0.0
6368,1591.75,52.8189,54.5503,123.365,98.5172,105.094,0.00206643,0.214108,20.8194,646.541,-0.576045,0.0,0.0
6400,1599.75,52.983,54.5961,123.851,98.4766,103.993,0.00188204,0.216702,20.8134,646.091,-0.485802,0.0,0.0
6432,1607.75,52.789,55.1316,120.499,98.4257,104.834,0.00178159,0.218398,20.8129,645.58,-0.562263,0.0,0.0
6464,1615.75,52.8492,54.9836,124.505,98.3537,104.869,0.0015454,0.219299,20.8125,645.06,-0.57171,0.0,0.0
6496,1623.75,53.4444,55.3346,121.79,98.3143,105.355,0.00160968,0.218169,20.8152,644.579,-0.616514,0.0,0.0
6528,1631.75,53.2015,55.517,120.471,98.3031,105.198,0.00219813,0.220085,20.8144,644.059,-0.604216,0.0,0.0
6560,1639.75,53.6229,55.8079,122.216,98.2661,104.415,0.00186035,0.221036,20.8131,643.508,-0.540967,0.0,0.0
6592,1647.75,53.5186,55.8675,122.338,98.2586,104.861,0.00171278,0.22234,20.8084,642.918,-0.57965,0.0,0.0
6624,1655.75,53.4545,55.9394,120.012,98.2498,105.464,0.00192189,0.223417,20.8066,642.397,-0.631572,0.0,0.0
6656,1663.75,53.3889,55.6909,123.862,98.2311,104.847,0.00169568,0.223707,20.8061,641.887,-0.580964,0.0,0.0
6688,1671.75,54.0135,56.2733,124.598,98.2192,104.748,0.00159005,0.224753,20.8055,641.357,-0.573616,0.0,0.0
6720,1679.75,53.399,56.3042,120.872,98.2176,105.368,0.00177352,0.22603,20.8039,640.886,-0.626418,0.0,0.0
6752,1687.75,53.7883,56.0483,120.901,98.2072,103.937,0.00162074,0.226552,20.8038,640.356,-0.505473,0.0,0.0
6784,1695.75,54.0517,56.4648,123.015,98.1977,105.156,0.00148941,0.227263,20.8046,639.825,-0.610188,0.0,0.0
6816,1703.75,54.2859,56.6339,125.087,98.1901,104.554,0.00173888,0.227018,20.8054,639.255,-0.55971,0.0,0.0
6848,1711.75,54.3565,56.7264,126.216,98.1861,104.917,0.00165271,0.227108,20.8027,638.734,-0.590964,0.0,0.0
6880,1719.75,54.2998,56.8468,124.191,98.1885,105.311,0.0015028,0.229534,20.8019,638.134,-0.62418,0.0,0.0
6912,1727.75,54.3127,57.2253,121.944,98.1889,104.445,0.00139705,0.229209,20.8031,637.563,-0.550564,0.0,0.0
6944,1735.75,54.7501,56.981,124.999,98.1929,105.308,0.00151862,0.23016,20.801,637.043,-0.623518,0.0,0.0
6976,1743.75,54.0586,56.8122,122.838,98.1869,104.821,0.00189396,0.231685,20.7996,636.492,-0.582771,0.0,0.0
7008,1751.75,54.3772,57.2631,124.721,98.2092,104.811,0.00174309,0.232543,20.7981,636.012,-0.579875,0.0,0.0
7040,1759.75,54.2023,56.8172,124.025,98.2152,106.053,0.00202517,0.23412,20.7982,635.451,-0.684349,0.0,0.0
7072,1767.75,54.4978,57.2331,122.458,98.2303,104.476,0.00188239,0.234111,20.7984,634.901,-0.549437,0.0,0.0
7104,1775.75,54.7572,57.5009,124.005,98.2442,103.753,0.00186521,0.236848,20.7955,634.33,-0.486248,0.0,0.0
7136,1783.75,54.7263,57.0381,119.685,98.2737,105.219,0.00132416,0.237791,20.7927,633.77,-0.608665,0.0,0.0
7168,1791.75,55.1122,57.5356,122.318,98.3095,104.918,0.00144974,0.238478,20.794,633.169,-0.579886,0.0,0.0
7200,1799.75,55.1929,57.7135,123.438,98.3533,105.064,0.00165407,0.239536,20.7905,632.559,-0.588277,0.0,0.0
7232,1807.75,55.6896,58.012,130.276,98.4018,105.917,0.00155384,0.240525,20.7898,632.028,-0.656012,0.0,0.0
7264,1815.75,55.6347,58.0146,123.633,98.4416,104.992,0.00167127,0.243516,20.7877,631.438,-0.574212,0.0,0.0
7296,1823.75,55.2938,57.4943,121.327,98.5033,104.906,0.00161321,0.244121,20.7871,630.917,-0.56131,0.0,0.0
7328,1831.75,56.1864,58.0382,119.852,98.5471,104.965,0.00165624,0.245357,20.7826,630.367,-0.562394,0.0,0.0
7360,1839.75,55.4597,58.5133,124.489,98.5713,105.185,0.00186418,0.246354,20.7821,629.746,-0.578797,0.0,0.0
7392,1847.75,56.1428,58.7152,125.607,98.5709,105.527,0.00176839,0.247739,20.783,629.196,-0.607806,0.0,0.0
7424,1855.75,56.079,58.4686,119.244,98.5558,105.507,0.00167163,0.248308,20.7816,628.605,-0.607514,0.0,0.0
7456,1863.75,56.2774,58.6226,122.127,98.5407,105.681,0.00156558,0.250032,20.7783,627.994,-0.623543,0.0,0.0
7488,1871.75,56.0984,58.3821,122.173,98.5371,105.582,0.00188468,0.250642,20.7783,627.344,-0.615503,0.0,0.0
7520,1879.75,56.0076,58.4932,119.311,98.5081,105.156,0.00177262,0.252231,20.7761,626.753,-0.582097,0.0,0.0
7552,1887.75,56.3483,58.4135,119.898,98.4965,106.092,0.00167088,0.252383,20.7771,626.153,-0.662155,0.0,0.0
7584,1895.75,56.7776,58.916,121.835,98.5069,104.746,0.00163013,0.253184,20.7758,625.602,-0.547356,0.0,0.0
7616,1903.75,57.0004,59.7718,122.099,98.4894,104.843,0.00190352,0.255088,20.7738,625.052,-0.557182,0.0,0.0
7648,1911.75,56.4025,58.8286,123.609,98.5029,104.97,0.00190368,0.256073,20.7737,624.401,-0.566807,0.0,0.0
7680,1919.75,56.8339,59.4213,122.322,98.4715,105.903,0.00174634,0.257433,20.7697,623.791,-0.648542,0.0,0.0
7712,1927.75,57.3316,59.8698,120.43,98.4786,105.565,0.00185946,0.258986,20.7688,623.23,-0.619363,0.0,0.0
7744,1935.75,57.0865,59.8091,128.229,98.4635,105.321,0.0016016,0.259118,20.7687,622.53,-0.600086,0.0,0.0
7776,1943.75,57.3848,59.7271,123.736,98.452,105.103,0.00159769,0.260602,20.7687,621.909,-0.582708,0.0,0.0
7808,1951.75,57.619,59.8845,122.866,98.4539,106.408,0.00174898,0.262417,20.7666,621.268,-0.692454,0.0,0.0
7840,1959.75,57.2368,59.8281,121.971,98.452,105.84,0.00162685,0.26299,20.7642,620.668,-0.644931,0.0,0.0
7872,1967.75,57.6379,59.9947,124.121,98.4428,105.928,0.00146116,0.264157,20.7634,620.077,-0.653203,0.0,0.0
7904,1975.75,58.3585,60.9221,124.993,98.4209,105.394,0.00147874,0.266085,20.7614,619.487,-0.610098,0.0,0.0
7936,1983.75,58.2852,60.8283,123.332,98.4181,104.667,0.00149948,0.267418,20.7589,618.846,-0.5487,0.0,0.0
7968,1991.75,58.0906,61.0841,121.975,98.4014,105.631,0.00145089,0.268544,20.7616,618.226,-0.631931,0.0,0.0
8000,1999.75,57.9314,60.6485,121.953,98.4149,105.626,0.001802,0.27043,20.7585,617.585,-0.630253,0.0,0.0
8032,2007.75,58.4471,61.3725,122.057,98.4177,105.14,0.00170441,0.271539,20.755,616.945,-0.58895,0.0,0.0
8064,2015.75,58.8973,61.8868,123.389,98.4209,106.243,0.0017129,0.273802,20.7494,616.254,-0.681633,0.0,0.0
8096,2023.75,59.0392,61.2988,122.704,98.4456,106.033,0.00159274,0.274331,20.7484,615.573,-0.661813,0.0,0.0
8128,2031.75,58.8437,61.3904,120.188,98.4766,105.933,0.0016531,0.275945,20.7477,614.933,-0.650591,0.0,0.0
8160,2039.75,59.1352,61.6168,121.326,98.5049,105.59,0.00174707,0.277868,20.7461,614.322,-0.61906,0.0,0.0
8192,2047.75,59.1057,61.3005,120.282,98.5347,105.628,0.001777,0.278663,20.7454,613.742,-0.619638,0.0,0.0
8224,2055.75,59.0396,61.6804,118.835,98.5646,104.484,0.0018382,0.280083,20.7422,613.071,-0.519844,0.0,0.0
8256,2063.75,59.3524,62.1883,121.919,98.6012,106.176,0.00165925,0.280701,20.742,612.4,-0.659702,0.0,0.0
8288,2071.75,58.9986,61.6761,116.924,98.6533,105.986,0.00176842,0.281009,20.7405,611.8,-0.639008,0.0,0.0
8320,2079.75,59.8862,62.6523,125.57,98.6796,105.67,0.00204968,0.282102,20.7388,611.139,-0.610086,0.0,0.0
8352,2087.75,59.6051,62.3569,124.244,98.7026,106.116,0.00196474,0.282467,20.7363,610.439,-0.645509,0.0,0.0
8384,2095.75,59.3996,62.3427,121.781,98.7265,106.255,0.00176154,0.281725,20.7388,609.758,-0.65501,0.0,0.0
8416,2103.75,59.7208,62.7724,124.163,98.756,107.288,0.00167696,0.280264,20.7414,609.158,-0.738605,0.0,0.0
8448,2111.75,59.7097,62.3423,120.343,98.7707,105.176,0.0017779,0.279767,20.7397,608.487,-0.560106,0.0,0.0
8480,2119.75,59.6188,62.6527,120.797,98.7958,106.324,0.0017974,0.278663,20.7436,607.866,-0.654602,0.0,0.0
8512,2127.75,60.1702,62.983,116.774,98.8125,105.964,0.00179219,0.279454,20.7429,607.276,-0.6228,0.0,0.0
8544,2135.75,59.7289,62.5981,122.171,98.8371,105.813,0.00180187,0.279687,20.7397,606.655,-0.607907,0.0,0.0
8576,2143.75,59.6932,62.7742,123.738,98.8483,105.298,0.00204745,0.277987,20.7419,606.015,-0.563355,0.0,0.0
8608,2151.75,59.507,62.5689,125.313,98.8893,104.763,0.00188194,0.278497,20.7427,605.404,-0.514304,0.0,0.0
8640,2159.75,59.7655,62.6316,120.21,98.904,106.762,0.00183401,0.278171,20.7424,604.754,-0.681413,0.0,0.0
8672,2167.75,59.6673,62.419,120.541,98.9354,105.283,0.00211341,0.277192,20.7426,604.053,-0.554292,0.0,0.0
8704,2175.75,60.4959,63.3525,121.458,98.9697,106.145,0.00211596,0.277699,20.7418,603.442,-0.623906,0.0,0.0
8736,2183.75,59.8053,62.8053,122.035,99.0134,105.061,0.00200298,0.278936,20.7402,602.812,-0.528423,0.0,0.0
8768,2191.75,59.8337,62.6204,120.592,99.0329,105.68,0.0021046,0.280249,20.7371,602.231,-0.579017,0.0,0.0
8800,2199.75,59.761,62.5243,122.083,99.1014,106.3,0.0018912,0.280039,20.7357,601.621,-0.625014,0.0,0.0
8832,2207.75,60.0823,62.7732,122.322,99.1579,106.678,0.00174869,0.281291,20.7343,601,-0.651589,0.0,0.0
8864,2215.75,60.3983,63.399,123.215,99.1889,106.699,0.00197715,0.281207,20.7343,600.4,-0.650515,0.0,0.0
8896,2223.75,60.7652,63.4025,120.163,99.2291,107.237,0.00194196,0.282762,20.7342,599.769,-0.691738,0.0,0.0
8928,2231.75,60.5931,63.1848,123.132,99.2597,107.954,0.00193008,0.282699,20.7339,599.119,-0.74839,0.0,0.0
8960,2239.75,60.536,63.3954,122.19,99.2896,106.673,0.00225554,0.285372,20.7317,598.408,-0.63931,0.0,0.0
8992,2247.75,60.6672,63.5897,123.328,99.2963,107.425,0.00187877,0.286973,20.7292,597.787,-0.70131,0.0,0.0
9024,2255.75,60.5635,63.3157,117.818,99.2924,106.804,0.00225525,0.289147,20.728,597.117,-0.649984,0.0,0.0
9056,2263.75,60.9401,63.4007,120.99,99.3087,106.158,0.00215439,0.290271,20.7271,596.506,-0.594474,0.0,0.0
9088,2271.75,60.9917,63.7639,116.017,99.3218,107.196,0.00204469,0.293083,20.7259,595.916,-0.679999,0.0,0.0
9120,2279.75,61.5653,64.1444,120.465,99.3334,107.013,0.00240618,0.294787,20.7235,595.265,-0.663802,0.0,0.0
9152,2287.75,61.3648,63.9968,116.609,99.3441,106.096,0.00190203,0.2954,20.7208,594.615,-0.58612,0.0,0.0
9184,2295.75,61.6205,64.2847,121.817,99.3274,105.782,0.00206678,0.295296,20.7202,593.924,-0.561174,0.0,0.0
9216,2303.75,62.0776,64.4636,118.553,99.3306,106.89,0.00219799,0.295598,20.7196,593.313,-0.653745,0.0,0.0
9248,2311.75,61.9631,64.7122,121.492,99.3429,106.811,0.0020286,0.2966,20.7197,592.543,-0.646045,0.0,0.0
9280,2319.75,62.2056,64.8399,119.481,99.3517,107.732,0.00209435,0.295934,20.7194,591.902,-0.721836,0.0,0.0
9312,2327.75,61.8394,64.3462,120.816,99.3723,107.4,0.00248267,0.29734,20.7159,591.281,-0.692415,0.0,0.0
9344,2335.75,61.7206,64.5346,117.902,99.401,106.427,0.0022745,0.297543,20.7147,590.641,-0.608732,0.0,0.0
9376,2343.75,61.9317,65.1937,119.581,99.4225,105.448,0.00219529,0.297818,20.7154,590.04,-0.524457,0.0,0.0
9408,2351.75,62.6557,65.1588,117.889,99.4165,107.257,0.00237879,0.297666,20.7146,589.37,-0.676589,0.0,0.0
9440,2359.75,62.0708,64.9697,117.758,99.4185,106.533,0.00241566,0.297666,20.7171,588.749,-0.616095,0.0,0.0
9472,2367.75,62.1358,65.1623,118.378,99.4054,106.149,0.00224102,0.2983,20.717,588.059,-0.585087,0.0,0.0
9504,2375.75,62.5577,65.6278,121.955,99.3903,106.161,0.00269241,0.2982,20.7155,587.418,-0.587381,0.0,0.0
9536,2383.75,62.3674,65.2116,120.763,99.3899,107.15,0.00239269,0.298039,20.714,586.737,-0.670106,0.0,0.0
9568,2391.75,62.9236,65.7849,122.888,99.3572,106.567,0.00231083,0.298763,20.7123,586.067,-0.62443,0.0,0.0
9600,2399.75,62.2233,65.1911,121.245,99.3517,106.583,0.00234906,0.298531,20.7111,585.416,-0.626236,0.0,0.0
9632,2407.75,62.2945,65.4898,123.664,99.3397,106.965,0.00261418,0.299944,20.71,584.826,-0.659176,0.0,0.0
9664,2415.75,62.699,65.2476,119.328,99.3023,106.732,0.00239774,0.298435,20.7112,584.225,-0.643127,0.0,0.0
9696,2423.75,61.9471,65.2177,122.75,99.2908,105.926,0.00232681,0.298825,20.711,583.565,-0.576603,0.0,0.0
9728,2431.75,62.7219,65.8741,121.273,99.2243,106,0.00248577,0.300765,20.7105,582.964,-0.588767,0.0,0.0
9760,2439.75,62.6167,65.6662,123.526,99.1678,105.903,0.00244444,0.300117,20.7105,582.303,-0.585656,0.0,0.0
9792,2447.75,62.3354,65.0105,121.574,99.1018,106.959,0.00227316,0.299852,20.7134,581.683,-0.680107,0.0,0.0
9824,2455.75,62.9876,65.6887,120.104,99.0397,105.418,0.00265475,0.299071,20.7135,580.982,-0.556313,0.0,0.0
9856,2463.75,62.7575,65.5777,119.818,98.9724,106.008,0.00251145,0.298036,20.7157,580.312,-0.612136,0.0,0.0
9888,2471.75,62.5225,65.5413,122.01,98.9187,105.312,0.00258895,0.299219,20.7129,579.661,-0.558216,0.0,0.0
9920,2479.75,62.7151,65.4164,117.124,98.8793,106.62,0.00241736,0.297913,20.7135,579.02,-0.671849,0.0,0.0
9952,2487.75,62.7873,65.9409,119.359,98.857,106.767,0.00266691,0.298963,20.7139,578.42,-0.686093,0.0,0.0
9984,2495.75,62.7686,65.417,120.222,98.8065,106.353,0.0030586,0.298461,20.7154,577.829,-0.656029,0.0,0.0
10016,2503.75,62.6565,65.8807,118.926,98.7771,106.574,0.00281208,0.298544,20.7142,577.209,-0.677227,0.0,0.0
10048,2511.75,62.883,65.4431,118.7,98.7393,105.213,0.00259816,0.296469,20.7145,576.548,-0.566009,0.0,0.0
10080,2519.75,62.9663,65.7247,117.405,98.7106,106.278,0.00267925,0.298103,20.7124,575.928,-0.658358,0.0,0.0
10112,2527.75,62.5848,65.677,122.577,98.674,105.692,0.00297449,0.29692,20.7144,575.287,-0.612397,0.0,0.0
10144,2535.75,62.2459,65.556,122.472,98.6637,104.887,0.00251799,0.297078,20.7153,574.586,-0.545179,0.0,0.0
10176,2543.75,62.3627,65.2758,120.465,98.6935,106.744,0.00270212,0.296043,20.718,573.976,-0.698913,0.0,0.0
10208,2551.75,62.6836,65.3497,118.252,98.7862,105.296,0.00288458,0.294925,20.7188,573.325,-0.568842,0.0,0.0
10240,2559.75,62.903,65.6776,126.469,98.8053,106.395,0.00261753,0.294999,20.7188,572.735,-0.65969,0.0,0.0
10272,2567.75,61.9441,65.1531,125.219,98.8403,107.484,0.00271867,0.294231,20.7203,572.174,-0.747228,0.0,0.0
10304,2575.75,62.9197,65.7677,119.163,98.8741,106.474,0.00282626,0.292976,20.7205,571.564,-0.660101,0.0,0.0
10336,2583.75,62.9305,65.9401,119.588,98.8869,105.171,0.00278359,0.292524,20.722,570.923,-0.549173,0.0,0.0
10368,2591.75,62.8624,65.6238,119.104,98.9299,105.988,0.00271125,0.292006,20.7228,570.333,-0.614283,0.0,0.0
10400,2599.75,62.333,65.1655,122.493,98.9549,104.806,0.00300397,0.291205,20.7222,569.742,-0.512072,0.0,0.0
10432,2607.75,62.6555,65.423,123.309,98.988,106.191,0.00260024,0.291507,20.7224,569.042,-0.626043,0.0,0.0
10464,2615.75,61.6721,64.5918,121.383,99.0246,105.241,0.0026768,0.290661,20.724,568.421,-0.542711,0.0,0.0
10496,2623.75,62.4183,65.2858,120.408,99.06,106.291,0.002515,0.291311,20.7242,567.83,-0.628026,0.0,0.0
10528,2631.75,62.3929,65.0519,118.6,99.0906,105.782,0.00244973,0.289014,20.7273,567.22,-0.582483,0.0,0.0
10560,2639.75,61.811,64.8702,120.21,99.1447,105.578,0.00270425,0.287168,20.7277,566.669,-0.560406,0.0,0.0
10592,2647.75,62.3938,65.5259,118.766,99.1738,105.031,0.00257734,0.28705,20.7259,566.099,-0.511498,0.0,0.0
10624,2655.75,62.5402,64.9919,122.064,99.2235,105.463,0.00259221,0.287226,20.7262,565.478,-0.543595,0.0,0.0
10656,2663.75,62.5597,65.0394,121.894,99.2589,104.997,0.00251949,0.285577,20.7288,564.898,-0.500968,0.0,0.0
10688,2671.75,62.3542,65.122,120.3,99.2625,105.097,0.00291593,0.285201,20.7266,564.287,-0.509133,0.0,0.0
10720,2679.75,62.2964,65.0923,119.845,99.2872,106.014,0.00289122,0.283407,20.73,563.667,-0.584285,0.0,0.0
10752,2687.75,62.5422,65.1116,122,99.2856,105.645,0.00273839,0.281098,20.7333,563.076,-0.553366,0.0,0.0
10784,2695.75,62.3644,64.6049,123.267,99.3023,104.381,0.0026539,0.280828,20.7336,562.466,-0.444574,0.0,0.0
10816,2703.75,61.9918,64.6542,123.093,99.3238,105.658,0.00270162,0.280132,20.7348,561.905,-0.551029,0.0,0.0
10848,2711.75,61.6036,64.5412,119.298,99.3509,105.821,0.00226351,0.277725,20.7368,561.385,-0.562377,0.0,0.0
10880,2719.75,61.5035,64.5897,121.045,99.393,105.814,0.00260644,0.276647,20.738,560.844,-0.557955,0.0,0.0
10912,2727.75,61.2671,64.6079,119.052,99.393,105.907,0.00234672,0.276024,20.7384,560.264,-0.565811,0.0,0.0
10944,2735.75,61.4288,64.3698,120.118,99.3986,105.873,0.0022006,0.275265,20.7419,559.723,-0.562456,0.0,0.0
10976,2743.75,61.1314,64.1887,121.458,99.3918,106.557,0.00181434,0.273666,20.7429,559.143,-0.620465,0.0,0.0
11008,2751.75,61.133,64.0051,120.391,99.3903,104.916,0.00183939,0.272297,20.7424,558.522,-0.482282,0.0,0.0
11040,2759.75,60.4775,63.9531,121.322,99.3727,105.068,0.00215071,0.271917,20.7447,557.911,-0.496741,0.0,0.0
11072,2767.75,61.0729,63.5674,121.638,99.3739,105.629,0.00212888,0.270201,20.7474,557.371,-0.544082,0.0,0.0
11104,2775.75,60.885,63.9707,120.605,99.3711,105.178,0.00231123,0.269455,20.7463,556.851,-0.506235,0.0,0.0
11136,2783.75,60.5462,63.5043,124.856,99.3644,105.004,0.00215463,0.266518,20.7505,556.36,-0.492034,0.0,0.0
11168,2791.75,60.7563,63.6598,121.884,99.3608,105.815,0.00207162,0.26551,20.7531,555.82,-0.560996,0.0,0.0
11200,2799.75,60.4911,63.2009,124.339,99.3731,105.703,0.00204317,0.263086,20.756,555.309,-0.550444,0.0,0.0
11232,2807.75,60.4264,63.3642,120.591,99.3823,105.742,0.00233763,0.263859,20.7532,554.789,-0.552898,0.0,0.0
11264,2815.75,60.5406,62.9576,121.855,99.3899,105.41,0.00202545,0.262972,20.7511,554.248,-0.524173,0.0,0.0
11296,2823.75,60.2751,62.869,122.112,99.3871,105.504,0.00210236,0.263086,20.7518,553.678,-0.532348,0.0,0.0
11328,2831.75,60.837,62.9362,122.865,99.3914,104.822,0.00245841,0.261199,20.7526,553.127,-0.474206,0.0,0.0
11360,2839.75,60.1467,62.7701,121.011,99.3867,106.587,0.00200842,0.261314,20.7493,552.627,-0.623432,0.0,0.0
11392,2847.75,60.4169,62.3414,119.378,99.399,105.094,0.00219785,0.258516,20.7538,552.106,-0.496582,0.0,0.0
11424,2855.75,59.6365,62.1634,122.886,99.3966,105.619,0.00210205,0.258005,20.7546,551.686,-0.541182,0.0,0.0
11456,2863.75,60.0314,61.9739,119.53,99.3986,106.518,0.00232819,0.254431,20.758,551.215,-0.616572,0.0,0.0
11488,2871.75,59.7573,61.8281,123.302,99.3978,105.741,0.00160515,0.252024,20.7603,550.725,-0.551431,0.0,0.0
11520,2879.75,59.2508,62.2929,118.721,99.3974,106.615,0.00168802,0.248786,20.7627,550.245,-0.62482,0.0,0.0
11552,2887.75,59.2026,62.1433,120.157,99.3974,106.551,0.00185998,0.245671,20.7666,549.764,-0.619443,0.0,0.0
11584,2895.75,58.9387,61.4046,124.069,99.4153,105.667,0.00222567,0.242766,20.7724,549.314,-0.543573,0.0,0.0
11616,2903.75,59.0704,61.514,122.287,99.3918,106.187,0.00245988,0.236987,20.7791,548.833,-0.589449,0.0,0.0
11648,2911.75,58.9837,61.3863,121.283,99.3954,105.529,0.00219146,0.230216,20.7848,548.413,-0.533712,0.0,0.0
11680,2919.75,58.4509,60.9512,124.059,99.3906,105.43,0.00218412,0.219473,20.7951,548.023,-0.525801,0.0,0.0
11712,2927.75,58.1203,60.0837,123.781,99.3942,106.071,0.00261971,0.205918,20.8096,547.762,-0.579522,0.0,0.0
11744,2935.75,56.8606,59.5853,124.511,99.3922,105.46,0.0031587,0.188658,20.8282,547.542,-0.528149,0.0,0.0
11776,2943.75,56.6754,58.9055,124.089,99.4026,106.879,0.00320157,0.17255,20.8455,547.312,-0.646391,0.0,0.0
11808,2951.75,55.3418,58.5478,125.296,99.3831,105.699,0.00281651,0.162754,20.8538,547.112,-0.549175,0.0,0.0
11840,2959.75,54.3767,56.8883,125.637,99.3747,105.677,0.00332172,0.157832,20.8617,546.892,-0.548117,0.0,0.0
11872,2967.75,53.7856,56.2789,127.344,99.3453,105.372,0.0033331,0.153886,20.8666,546.741,-0.524924,0.0,0.0
11904,2975.75,52.8888,55.4263,125.056,99.3015,105.846,0.00385995,0.149021,20.8728,546.511,-0.568873,0.0,0.0
11936,2983.75,51.7902,54.938,129.15,99.2912,106.186,0.00389868,0.14562,20.8767,546.331,-0.59837,0.0,0.0
11968,2991.75,51.8845,53.5461,126.591,99.3067,105.929,0.0040513,0.143219,20.8819,546.181,-0.575437,0.0,0.0
12000,2999.75,51.1854,53.7493,127.938,99.3274,105.597,0.00420037,0.140205,20.8866,546.051,-0.545584,0.0,0.0
12032,3007.75,50.6747,52.9381,126.866,99.358,104.981,0.00420045,0.138658,20.8885,545.941,-0.49071,0.0,0.0
12064,3015.75,50.2227,52.0503,127.144,99.3719,105.773,0.00402537,0.137754,20.8883,545.841,-0.556385,0.0,0.0
12096,3023.75,50.2208,52.328,124.392,99.3787,105.048,0.00447646,0.135606,20.8886,545.721,-0.494539,0.0,0.0
12128,3031.75,50.1419,50.9355,127.747,99.3811,105.74,0.00409008,0.136154,20.886,545.59,-0.552855,0.0,0.0
12160,3039.75,49.9455,51.3845,126.035,99.3871,105.272,0.0039898,0.136311,20.8834,545.5,-0.512712,0.0,0.0
12192,3047.75,49.3719,51.7083,125.177,99.3899,106.58,0.00386792,0.134994,20.8847,545.33,-0.622586,0.0,0.0
12224,3055.75,48.962,50.55,124.795,99.3859,105.525,0.00450666,0.132777,20.8899,545.18,-0.534229,0.0,0.0
12256,3063.75,48.6264,50.3393,127.118,99.3799,105.859,0.004217,0.131986,20.8968,545.03,-0.562967,0.0,0.0
12288,3071.75,48.3141,50.2126,126.491,99.3914,105.281,0.0043304,0.130946,20.8983,544.92,-0.513075,0.0,0.0
12320,3079.75,48.251,49.6636,126.246,99.3934,105.018,0.00433334,0.13216,20.8952,544.77,-0.490604,0.0,0.0
12352,3087.75,48.3479,49.393,130.914,99.3954,106.188,0.00459152,0.131619,20.8964,544.74,-0.58924,0.0,0.0
12384,3095.75,48.2745,49.6634,125.759,99.3787,105.337,0.00448281,0.129422,20.8991,544.64,-0.518979,0.0,0.0
12416,3103.75,47.2668,48.7768,124.631,99.356,104.899,0.00444643,0.129116,20.8983,544.549,-0.48391,0.0,0.0
12448,3111.75,47.7535,48.9355,126.474,99.3242,106.673,0.00441127,0.128071,20.9018,544.429,-0.63624,0.0,0.0
12480,3119.75,47.6969,49.4925,126.04,99.2971,106.121,0.00471043,0.12739,20.9044,544.289,-0.592398,0.0,0.0
12512,3127.75,47.9027,49.1572,126.33,99.2371,105.104,0.00474777,0.126889,20.9031,544.109,-0.511987,0.0,0.0
12544,3135.75,47.677,49.0413,127.038,99.1591,106.092,0.00459794,0.126174,20.9037,544.009,-0.602401,0.0,0.0
12576,3143.75,47.5722,48.7647,129.345,99.0986,104.218,0.00469146,0.125698,20.9034,543.909,-0.448991,0.0,0.0
12608,3151.75,47.0229,48.2441,127.516,99.0576,104.792,0.00473256,0.125875,20.9055,543.849,-0.501576,0.0,0.0
12640,3159.75,47.6838,48.9904,126.393,99.023,105.272,0.00482864,0.124772,20.9076,543.789,-0.545425,0.0,0.0
12672,3167.75,46.6712,47.6019,128.8,98.9641,105.106,0.00458456,0.124678,20.9084,543.679,-0.536729,0.0,0.0
12704,3175.75,47.2233,47.9266,127.544,98.9139,104.963,0.00509661,0.124486,20.908,543.579,-0.529045,0.0,0.0
12736,3183.75,46.9638,48.0322,126.404,98.8686,104.765,0.00473646,0.123601,20.9081,543.479,-0.516359,0.0,0.0
12768,3191.75,46.7441,48.0709,128.971,98.8093,104.568,0.00491625,0.123781,20.9112,543.358,-0.504899,0.0,0.0
12800,3199.75,46.2176,47.4573,130.065,98.7603,104.957,0.00499686,0.122689,20.9136,543.208,-0.542441,0.0,0.0
12832,3207.75,46.6086,47.2366,127.275,98.7671,104.977,0.00480037,0.122418,20.9143,543.098,-0.543499,0.0,0.0
12864,3215.75,46.2499,47.5325,127.734,98.7723,104.369,0.00487111,0.122307,20.9134,542.998,-0.491285,0.0,0.0
12896,3223.75,46.1797,47.789,130.665,98.8244,105.572,0.00504018,0.122174,20.9131,542.908,-0.588722,0.0,0.0
12928,3231.75,45.9475,47.2497,128.441,98.8543,104.575,0.00514093,0.12093,20.913,542.858,-0.501414,0.0,0.0
12960,3239.75,46.5271,47.7012,125.382,98.8885,105.075,0.00492883,0.12078,20.9136,542.848,-0.54089,0.0,0.0
12992,3247.75,45.5507,47.0345,128.797,98.9092,104.602,0.00492896,0.121734,20.914,542.728,-0.498824,0.0,0.0
13024,3255.75,45.9124,46.7099,124.586,98.9382,105.01,0.00544288,0.121573,20.9137,542.628,-0.530838,0.0,0.0
13056,3263.75,46.0572,47.0669,126.589,98.9521,104.39,0.0054999,0.12116,20.9152,542.528,-0.476861,0.0,0.0
13088,3271.75,45.8689,46.8002,122.833,98.9267,104.581,0.00541657,0.120503,20.917,542.408,-0.49542,0.0,0.0
13120,3279.75,45.7563,46.9044,125.369,98.9123,104.659,0.00547647,0.119663,20.9206,542.267,-0.50333,0.0,0.0
13152,3287.75,45.2868,47.1362,125.704,98.9131,105.571,0.0053964,0.118694,20.9183,542.197,-0.580647,0.0,0.0
13184,3295.75,45.6121,46.3609,128.261,98.8996,104.496,0.00531686,0.118787,20.9175,542.107,-0.490587,0.0,0.0
13216,3303.75,45.2099,46.2426,128.65,98.8901,104.768,0.00533314,0.119043,20.9157,542.047,-0.514649,0.0,0.0
13248,3311.75,44.7454,46.5213,124.656,98.8757,105.656,0.00533351,0.118534,20.916,542.027,-0.591141,0.0,0.0
13280,3319.75,45.1903,46.7652,128.246,98.855,104.565,0.00567224,0.118052,20.916,541.907,-0.500543,0.0,0.0
13312,3327.75,44.9813,45.9281,129.996,98.8097,103.702,0.00605741,0.117369,20.9179,541.837,-0.43072,0.0,0.0
13344,3335.75,45.1847,46.2352,134.296,98.7572,103.641,0.00585033,0.116968,20.9203,541.747,-0.4302,0.0,0.0
13376,3343.75,45.1332,46.4171,125.743,98.7206,103.716,0.00594476,0.116538,20.9217,541.647,-0.439954,0.0,0.0
13408,3351.75,44.7105,46.4063,127.569,98.6792,104.142,0.0062603,0.11733,20.919,541.517,-0.480261,0.0,0.0
13440,3359.75,44.8268,46.1615,132.071,98.6628,103.992,0.00608184,0.117041,20.9184,541.427,-0.468924,0.0,0.0
13472,3367.75,44.8985,46.0741,126.149,98.6827,104.542,0.00572448,0.116154,20.9192,541.327,-0.514152,0.0,0.0
13504,3375.75,44.6658,46.2234,127.655,98.6999,104.792,0.00596623,0.116004,20.9196,541.267,-0.533861,0.0,0.0
13536,3383.75,44.8745,46.0397,129.148,98.711,104.128,0.00611645,0.115907,20.9223,541.237,-0.476201,0.0,0.0
13568,3391.75,44.9463,45.6777,129.241,98.711,103.729,0.00629056,0.115598,20.923,541.186,-0.441929,0.0,0.0
13600,3399.75,45.0346,45.6158,132.107,98.701,105.033,0.0064389,0.115427,20.9226,541.086,-0.554201,0.0,0.0
13632,3407.75,45.2494,46.7945,125.142,98.6939,103.373,0.00619328,0.114987,20.9224,541.006,-0.41288,0.0,0.0
13664,3415.75,44.5798,46.5341,124.69,98.6919,104.467,0.00626481,0.115974,20.9202,540.936,-0.506927,0.0,0.0
13696,3423.75,45.1145,45.8101,126.712,98.6903,105.477,0.00640971,0.11498,20.9229,540.806,-0.592831,0.0,0.0
13728,3431.75,44.1257,45.5293,132.013,98.6792,104.855,0.0065469,0.115654,20.92,540.706,-0.541046,0.0,0.0
13760,3439.75,44.2924,46.1654,125.613,98.6859,103.486,0.00619658,0.115342,20.9213,540.636,-0.423335,0.0,0.0
13792,3447.75,44.7523,45.714,129.893,98.7086,104.006,0.00632567,0.11544,20.9199,540.586,-0.465939,0.0,0.0
13824,3455.75,44.6286,46.057,127.774,98.7408,103.856,0.00612977,0.115971,20.9183,540.536,-0.450162,0.0,0.0
13856,3463.75,44.3669,46.1449,127.595,98.7882,103.511,0.00649828,0.116365,20.9163,540.466,-0.416217,0.0,0.0
13888,3471.75,44.5068,45.8106,128.822,98.8447,104.909,0.00636456,0.116196,20.9193,540.396,-0.530735,0.0,0.0
13920,3479.75,44.7046,45.8358,130.132,98.9008,104.842,0.00639736,0.115998,20.921,540.326,-0.519985,0.0,0.0
13952,3487.75,44.6367,45.5986,129.635,98.943,103.387,0.00641294,0.114659,20.9231,540.276,-0.391606,0.0,0.0
13984,3495.75,44.5002,46.0922,132.076,98.9689,104.971,0.00669116,0.114365,20.925,540.206,-0.52478,0.0,0.0
14016,3503.75,44.3566,45.9757,126.608,98.9844,104.056,0.00661443,0.115144,20.925,540.076,-0.445395,0.0,0.0
14048,3511.75,44.1946,45.6667,127.146,98.9955,104.817,0.00685224,0.118679,20.9214,539.965,-0.50929,0.0,0.0
14080,3519.75,44.2519,45.5843,129.303,99.013,105.252,0.00651867,0.119914,20.9177,539.885,-0.544619,0.0,0.0
14112,3527.75,44.027,45.4564,128.903,99.011,104.116,0.00661748,0.117841,20.9188,539.885,-0.448081,0.0,0.0
14144,3535.75,44.1429,45.4279,128.197,99.013,103.645,0.00694348,0.116955,20.9174,539.765,-0.407559,0.0,0.0
14176,3543.75,44.0419,45.7565,129.557,98.9943,103.313,0.00713001,0.114733,20.9202,539.725,-0.380628,0.0,0.0
14208,3551.75,44.5148,45.8573,129.348,98.9633,105.178,0.00723116,0.113853,20.9213,539.685,-0.542857,0.0,0.0
14240,3559.75,43.5906,45.609,126.046,98.9529,103.765,0.00705797,0.11263,20.9248,539.605,-0.423255,0.0,0.0
14272,3567.75,43.8174,45.1502,127.946,98.939,104.611,0.00691097,0.112208,20.9267,539.525,-0.496895,0.0,0.0
14304,3575.75,44.3949,45.241,130.925,98.9326,105.339,0.00710063,0.111827,20.928,539.405,-0.559228,0.0,0.0
14336,3583.75,43.3138,45.523,128.439,98.9119,104.284,0.00727942,0.112032,20.9268,539.335,-0.471404,0.0,0.0
14368,3591.75,43.385,45.6283,125.742,98.8829,104.305,0.00673872,0.112021,20.9277,539.245,-0.475815,0.0,0.0
14400,3599.75,43.6966,45.1293,130.9,98.8598,104.436,0.00712945,0.111759,20.927,539.175,-0.489107,0.0,0.0
14432,3607.75,41.6227,43.3067,127.409,98.8081,104.503,0.00720949,0.111986,20.927,539.185,-0.499449,0.0,0.0
14464,3615.75,42.1118,42.7099,130.138,98.7822,104.162,0.00694746,0.112149,20.9256,539.095,-0.472715,0.0,0.0
14496,3623.75,41.9794,43.5457,128.742,98.7408,104.177,0.00706932,0.11262,20.924,539.045,-0.47771,0.0,0.0
14528,3631.75,41.5113,43.2522,128.313,98.7269,104.839,0.00726044,0.112926,20.9239,538.984,-0.535442,0.0,0.0
14560,3639.75,42.0929,43.0451,126.859,98.715,104.029,0.00733179,0.113014,20.923,538.884,-0.467353,0.0,0.0
14592,3647.75,41.6899,43.487,127.767,98.7416,104.313,0.00715697,0.111948,20.9231,538.774,-0.489207,0.0,0.0
14624,3655.75,41.6262,43.2658,127.301,98.8188,103.628,0.00694119,0.112471,20.925,538.674,-0.423598,0.0,0.0
14656,3663.75,41.8584,43.2167,127.091,98.8431,104.804,0.00719635,0.111922,20.9286,538.634,-0.521959,0.0,0.0
14688,3671.75,42.087,43.5358,128.625,98.8638,104.568,0.00737206,0.111118,20.929,538.554,-0.500021,0.0,0.0
14720,3679.75,41.5439,43.2654,131.044,98.8944,103.895,0.00738083,0.111192,20.9305,538.524,-0.439718,0.0,0.0
14752,3687.75,41.6453,43.1808,127.446,98.9247,104.745,0.00738905,0.111487,20.9288,538.504,-0.509555,0.0,0.0
14784,3695.75,40.8361,43.2666,127.356,98.898,104.553,0.0072973,0.111094,20.9309,538.414,-0.495642,0.0,0.0
14816,3703.75,41.2623,43.4765,125.939,98.8726,104.077,0.00729098,0.110853,20.9318,538.364,-0.457267,0.0,0.0
14848,3711.75,41.4935,43.0397,129.873,98.8519,104.12,,0.110582,,538.304,-0.462764,0.0,0.0
14880,3719.75,41.44,43.3459,129.145,98.8121,104.223,,,,538.234,-0.475217,0.0,0.0
14886,3721.25,41.5643,42.9675,130.339,98.8029,104.04,,,,538.224,-0.460373,0.0,0.0