File: 01_Data/Pine_Siding/STA/N2/10K_min/Pine_Siding_STA_N2_10KData_211406_R3.csv
##Temp./Â°C,Time/min,Mass loss(subtr.2)/mg,DSC(subtr.2)/mW,Sensit./(uV/mW)
49.352,10.01,-0.06185,0.06416079,0.61833
49.952,11.38594,-0.06545052,0.1273,0.61865
50.552,11.7277,-0.06714748,0.19292,0.61897
51.152,11.9709,-0.06612223,0.22793,0.61928
51.752,12.1736,-0.06620127,0.2958,0.6196
52.352,12.34878,-0.06737826,0.32913,0.61991
52.952,12.50336,-0.06797808,0.35561,0.62023
53.552,12.64662,-0.06693484,0.39209,0.62054
54.152,12.78375,-0.06833221,0.4275,0.62085
54.752,12.9102,-0.06821853,0.45943,0.62116
55.352,13.03196,-0.07118686,0.47891,0.62147
55.952,13.15064,-0.07108193,0.50805,0.62177
56.552,13.2643,-0.07078663,0.51986,0.62208
57.152,13.37403,-0.07231662,0.54341,0.62238
57.752,13.48076,-0.07011153,0.57347,0.62269
58.352,13.585,-0.07193489,0.58566,0.62299
58.952,13.68639,-0.07345312,0.60835,0.62329
59.552,13.78501,-0.07369997,0.62749,0.62359
60.152,13.88194,-0.07372066,0.64547,0.62388
60.752,13.97771,-0.07373907,0.65395,0.62418
61.352,14.07174,-0.07501926,0.67439,0.62448
61.952,14.16453,-0.07507034,0.6911,0.62477
62.552,14.25567,-0.0765264,0.71566,0.62506
63.152,14.34551,-0.07513104,0.72935,0.62536
63.752,14.4345,-0.0779655,0.73768,0.62565
64.352,14.52235,-0.07665991,0.76502,0.62593
64.952,14.6089,-0.07797926,0.77329,0.62622
65.552,14.6937,-0.07832148,0.78417,0.62651
66.152,14.77795,-0.07943421,0.80171,0.62679
66.752,14.86245,-0.07962685,0.82626,0.62708
67.352,14.9453,-0.07962994,0.83381,0.62736
67.952,15.0273,-0.08125257,0.84168,0.62764
68.552,15.10857,-0.0812701,0.853,0.62792
69.152,15.18865,-0.08127,0.8811,0.6282
69.752,15.26785,-0.08119326,0.88356,0.62848
70.352,15.3462,-0.08136272,0.90222,0.62876
70.952,15.424,-0.08379263,0.91469,0.62903
71.552,15.5008,-0.08401002,0.92757,0.62931
72.152,15.57686,-0.08530317,0.94453,0.62958
72.752,15.65277,-0.08533,0.96422,0.62985
73.352,15.72829,-0.08540017,0.96863,0.63012
73.952,15.80339,-0.08672322,0.98457,0.63039
74.552,15.8777,-0.08830009,0.99017,0.63066
75.152,15.95154,-0.08698948,0.9987,0.63092
75.752,16.02467,-0.08799637,1.01714,0.63119
76.352,16.09754,-0.08961026,1.01678,0.63145
76.952,16.1696,-0.08961007,1.03003,0.63171
77.552,16.2412,-0.09055974,1.03765,0.63198
78.152,16.3121,-0.08957822,1.04646,0.63224
78.752,16.38298,-0.08974842,1.04945,0.6325
79.352,16.4532,-0.09082008,1.04454,0.63275
79.952,16.52286,-0.09210907,1.04994,0.63301
80.552,16.5918,-0.09216809,1.04444,0.63326
81.152,16.66096,-0.09311577,1.05586,0.63352
81.752,16.73003,-0.09442984,1.06659,0.63377
82.352,16.79857,-0.09476007,1.06429,0.63402
82.952,16.86635,-0.09415163,1.06893,0.63427
83.552,16.93385,-0.09346497,1.06969,0.63452
84.152,17.00122,-0.09435967,1.07796,0.63477
84.752,17.06845,-0.09620933,1.07055,0.63501
85.352,17.1351,-0.09762667,1.09036,0.63526
85.952,17.20135,-0.09762342,1.09323,0.6355
86.552,17.26719,-0.09825724,1.08032,0.63575
87.152,17.33284,-0.09827,1.0915,0.63599
87.752,17.3982,-0.09826998,1.0888,0.63623
88.352,17.46296,-0.09968349,1.08561,0.63646
88.952,17.52727,-0.10069,1.08579,0.6367
89.552,17.5915,-0.10091,1.08845,0.63694
90.152,17.656,-0.10089,1.0846,0.63717
90.752,17.71989,-0.10025,1.08801,0.63741
91.352,17.78324,-0.10222,1.08475,0.63764
91.952,17.84623,-0.10277,1.07726,0.63787
92.552,17.9096,-0.10158,1.07601,0.6381
93.152,17.97275,-0.10145,1.08015,0.63833
93.752,18.03632,-0.1042,1.0684,0.63855
94.352,18.0988,-0.10508,1.06931,0.63878
94.952,18.1609,-0.10552,1.06638,0.63901
95.552,18.22315,-0.10554,1.05338,0.63923
96.152,18.28516,-0.10519,1.04773,0.63945
96.752,18.34679,-0.10519,1.05838,0.63967
97.352,18.4081,-0.10649,1.04845,0.63989
97.952,18.4697,-0.10518,1.04406,0.64011
98.552,18.5313,-0.10519,1.04264,0.64033
99.152,18.59245,-0.10651,1.02016,0.64054
99.752,18.6536,-0.10748,1.03445,0.64076
100.352,18.71443,-0.10885,1.01145,0.64097
100.952,18.7752,-0.10832,1.01944,0.64118
101.552,18.83584,-0.10749,1.00952,0.64139
102.152,18.89649,-0.10749,0.9986,0.6416
102.752,18.95701,-0.10744,0.99876,0.64181
103.352,19.01738,-0.10945,0.98333,0.64202
103.952,19.07742,-0.10946,0.98428,0.64222
104.552,19.13702,-0.10815,0.96739,0.64243
105.152,19.19677,-0.10814,0.9585,0.64263
105.752,19.25641,-0.10948,0.9672,0.64283
106.352,19.31605,-0.11055,0.95201,0.64303
106.952,19.3757,-0.1091,0.94657,0.64323
107.552,19.43505,-0.10946,0.93705,0.64343
108.152,19.49456,-0.11054,0.94436,0.64363
108.752,19.55344,-0.11078,0.9331,0.64382
109.352,19.61288,-0.10945,0.92288,0.64402
109.952,19.67204,-0.11074,0.92638,0.64421
110.552,19.7312,-0.11178,0.91742,0.6444
111.152,19.79007,-0.11276,0.91965,0.64459
111.752,19.84863,-0.11145,0.92995,0.64478
112.352,19.90726,-0.11168,0.91277,0.64497
112.952,19.96606,-0.1104,0.91932,0.64516
113.552,20.02478,-0.11176,0.90477,0.64534
114.152,20.0833,-0.1131,0.91343,0.64553
114.752,20.1418,-0.11443,0.90605,0.64571
115.352,20.20029,-0.11308,0.90834,0.64589
115.952,20.25868,-0.11306,0.90029,0.64607
116.552,20.3171,-0.11177,0.90853,0.64625
117.152,20.37525,-0.11306,0.9057,0.64643
117.752,20.43338,-0.11311,0.90829,0.64661
118.352,20.49148,-0.11141,0.89022,0.64678
118.952,20.54949,-0.11176,0.89859,0.64696
119.552,20.60739,-0.11176,0.89232,0.64713
120.152,20.66499,-0.11306,0.89913,0.6473
120.752,20.72271,-0.11311,0.89747,0.64747
121.352,20.78015,-0.11319,0.89887,0.64764
121.952,20.83728,-0.11369,0.89824,0.64781
122.552,20.89475,-0.11384,0.89293,0.64797
123.152,20.95209,-0.11255,0.89981,0.64814
123.752,21.00974,-0.11253,0.89796,0.6483
124.352,21.06711,-0.11391,0.88682,0.64847
124.952,21.12436,-0.11319,0.90557,0.64863
125.552,21.18157,-0.11416,0.90134,0.64879
126.152,21.23873,-0.11421,0.90194,0.64895
126.752,21.29566,-0.11276,0.9078,0.64911
127.352,21.35245,-0.11263,0.91518,0.64926
127.952,21.4092,-0.11308,0.92218,0.64942
128.552,21.46594,-0.11308,0.91776,0.64957
129.152,21.52265,-0.11308,0.91341,0.64972
129.752,21.57897,-0.11308,0.90869,0.64988
130.352,21.63543,-0.11469,0.9154,0.65003
130.952,21.69172,-0.11611,0.91477,0.65017
131.552,21.74824,-0.11739,0.91733,0.65032
132.152,21.80462,-0.11428,0.92367,0.65047
132.752,21.86092,-0.11308,0.93195,0.65061
133.352,21.9172,-0.1131,0.93906,0.65076
133.952,21.9733,-0.11308,0.93476,0.6509
134.552,22.02919,-0.114,0.93048,0.65104
135.152,22.08511,-0.11442,0.94178,0.65118
135.752,22.14087,-0.11571,0.93105,0.65132
136.352,22.19675,-0.11479,0.93217,0.65146
136.952,22.25254,-0.11572,0.93666,0.6516
137.552,22.30823,-0.11572,0.9609,0.65173
138.152,22.3639,-0.11572,0.94626,0.65187
138.752,22.41935,-0.11342,0.95779,0.652
139.352,22.47484,-0.11346,0.95942,0.65213
139.952,22.53014,-0.11715,0.96382,0.65226
140.552,22.5853,-0.11747,0.97444,0.65239
141.152,22.64078,-0.11615,0.96549,0.65252
141.752,22.6959,-0.11615,0.97428,0.65265
142.352,22.7514,-0.11615,0.98002,0.65277
142.952,22.80651,-0.1165,0.97596,0.65289
143.552,22.8617,-0.11648,0.97812,0.65302
144.152,22.9169,-0.11648,0.97848,0.65314
144.752,22.9719,-0.11649,0.98951,0.65326
145.352,23.02682,-0.11714,0.97125,0.65338
145.952,23.0815,-0.11726,0.99056,0.6535
146.552,23.13615,-0.11747,0.98554,0.65361
147.152,23.191,-0.11754,1.00145,0.65373
147.752,23.246,-0.11883,0.99605,0.65384
148.352,23.30095,-0.11673,0.97921,0.65396
148.952,23.35603,-0.11756,0.99394,0.65407
149.552,23.41079,-0.12012,0.99564,0.65418
150.152,23.4655,-0.12007,0.99314,0.65429
150.752,23.52016,-0.11879,0.99574,0.6544
151.352,23.57474,-0.11879,0.99597,0.6545
151.952,23.62942,-0.11879,0.98621,0.65461
152.552,23.68395,-0.11875,0.98624,0.65471
153.152,23.73847,-0.1214,0.98819,0.65482
153.752,23.79286,-0.12,1.0069,0.65492
154.352,23.84727,-0.11985,1.01494,0.65502
154.952,23.90173,-0.11732,1.01169,0.65512
155.552,23.9562,-0.11763,1.00889,0.65522
156.152,24.01081,-0.1118,1.01333,0.65532
156.752,24.0654,-0.1263,1.01587,0.65541
157.352,24.1198,-0.12142,1.00443,0.65551
157.952,24.17415,-0.12142,1.00934,0.6556
158.552,24.22841,-0.12091,1.01653,0.65569
159.152,24.28267,-0.11988,1.01923,0.65578
159.752,24.33703,-0.11988,1.01522,0.65587
160.352,24.39131,-0.11988,1.02643,0.65596
160.952,24.44548,-0.12187,1.02528,0.65605
161.552,24.4998,-0.12186,1.03484,0.65614
162.152,24.55418,-0.12149,1.03883,0.65622
162.752,24.60867,-0.1221,1.03878,0.6563
163.352,24.66305,-0.12214,1.03949,0.65639
163.952,24.71731,-0.12076,1.04781,0.65647
164.552,24.77147,-0.12075,1.04319,0.65655
165.152,24.82582,-0.12,1.03872,0.65663
165.752,24.88,-0.12142,1.05025,0.65671
166.352,24.93445,-0.12207,1.06723,0.65678
166.952,24.98882,-0.12207,1.06856,0.65686
167.552,25.04293,-0.12299,1.07144,0.65693
168.152,25.097,-0.12217,1.08162,0.657
168.752,25.15081,-0.12075,1.08108,0.65708
169.352,25.20468,-0.1223,1.09132,0.65715
169.952,25.2588,-0.12247,1.11322,0.65722
170.552,25.313,-0.12491,1.10433,0.65728
171.152,25.36737,-0.12288,1.11611,0.65735
171.752,25.42139,-0.12229,1.11437,0.65742
172.352,25.47541,-0.12226,1.12182,0.65748
172.952,25.52958,-0.12261,1.12878,0.65754
173.552,25.58367,-0.12387,1.13137,0.65761
174.152,25.6381,-0.12526,1.14436,0.65767
174.752,25.69236,-0.12526,1.14852,0.65773
175.352,25.74626,-0.12398,1.15236,0.65779
175.952,25.80038,-0.12395,1.14925,0.65784
176.552,25.85446,-0.1195,1.15762,0.6579
177.152,25.90849,-0.13176,1.16471,0.65795
177.752,25.9625,-0.12818,1.17131,0.65801
178.352,26.0163,-0.12658,1.1696,0.65806
178.952,26.07005,-0.12691,1.17436,0.65811
179.552,26.12385,-0.12663,1.18033,0.65816
180.152,26.17782,-0.12895,1.17997,0.65821
180.752,26.23177,-0.1275,1.18383,0.65826
181.352,26.2858,-0.12668,1.18733,0.65831
181.952,26.3397,-0.12668,1.18912,0.65835
182.552,26.3935,-0.12805,1.1918,0.6584
183.152,26.4471,-0.12931,1.193,0.65844
183.752,26.50011,-0.13063,1.19335,0.65848
184.352,26.55381,-0.12927,1.20472,0.65852
184.952,26.6076,-0.13043,1.19285,0.65856
185.552,26.6616,-0.1283,1.2037,0.6586
186.152,26.71586,-0.12414,1.19809,0.65864
186.752,26.7695,-0.13787,1.21053,0.65867
187.352,26.823,-0.13357,1.20887,0.65871
187.952,26.8766,-0.13228,1.22274,0.65874
188.552,26.9301,-0.13228,1.21832,0.65878
189.152,26.98378,-0.13233,1.23561,0.65881
189.752,27.03732,-0.13096,1.23335,0.65884
190.352,27.0907,-0.131,1.23196,0.65887
190.952,27.1441,-0.13263,1.24246,0.6589
191.552,27.19725,-0.13225,1.24563,0.65892
192.152,27.25068,-0.13228,1.24328,0.65895
192.752,27.3042,-0.13352,1.24758,0.65897
193.352,27.3575,-0.13491,1.24334,0.659
193.952,27.4109,-0.13491,1.24595,0.65902
194.552,27.46432,-0.13392,1.24937,0.65904
195.152,27.51775,-0.13392,1.23219,0.65906
195.752,27.57135,-0.13392,1.233,0.65908
196.352,27.6248,-0.13408,1.22687,0.6591
196.952,27.6778,-0.13575,1.23888,0.65911
197.552,27.7308,-0.13655,1.25339,0.65913
198.152,27.7836,-0.13649,1.25959,0.65914
198.752,27.8365,-0.13556,1.26777,0.65916
199.352,27.88975,-0.13556,1.26638,0.65917
199.952,27.94357,-0.13753,1.26083,0.65918
200.552,27.99744,-0.13936,1.27669,0.65919
201.152,28.0512,-0.13951,1.27532,0.6592
201.752,28.10463,-0.13959,1.25762,0.6592
202.352,28.1578,-0.13819,1.27506,0.65921
202.952,28.21104,-0.13952,1.26863,0.65922
203.552,28.2645,-0.14081,1.28372,0.65922
204.152,28.3181,-0.14083,1.2807,0.65922
204.752,28.37135,-0.14192,1.26639,0.65922
205.352,28.4245,-0.14215,1.2758,0.65922
205.952,28.47768,-0.14215,1.2845,0.65922
206.552,28.531,-0.14347,1.29082,0.65922
207.152,28.58432,-0.14447,1.29312,0.65922
207.752,28.6377,-0.14432,1.30011,0.65922
208.352,28.69117,-0.14347,1.28719,0.65921
208.952,28.74445,-0.14375,1.28276,0.6592
209.552,28.7978,-0.14412,1.29145,0.6592
210.152,28.85112,-0.14411,1.30219,0.65919
210.752,28.90454,-0.14546,1.29945,0.65918
211.352,28.95787,-0.14822,1.30426,0.65917
211.952,29.01128,-0.1504,1.29855,0.65916
212.552,29.06452,-0.15037,1.30408,0.65914
213.152,29.11768,-0.15037,1.3092,0.65913
213.752,29.1708,-0.14907,1.31908,0.65912
214.352,29.2239,-0.15047,1.31902,0.6591
214.952,29.2773,-0.15169,1.31601,0.65908
215.552,29.3306,-0.15169,1.32444,0.65906
216.152,29.38405,-0.15236,1.32319,0.65904
216.752,29.43758,-0.15614,1.32481,0.65902
217.352,29.49097,-0.15608,1.33352,0.659
217.952,29.54448,-0.15608,1.33407,0.65898
218.552,29.5978,-0.15608,1.32517,0.65896
219.152,29.65115,-0.15716,1.31337,0.65893
219.752,29.70448,-0.15779,1.31496,0.6589
220.352,29.7575,-0.15872,1.31762,0.65888
220.952,29.8111,-0.15902,1.32705,0.65885
221.552,29.86445,-0.16102,1.31711,0.65882
222.152,29.9179,-0.1611,1.31853,0.65879
222.752,29.9718,-0.16003,1.32185,0.65876
223.352,30.025,-0.16136,1.3163,0.65873
223.952,30.07821,-0.16185,1.32763,0.65869
224.552,30.1317,-0.16421,1.33662,0.65866
225.152,30.18492,-0.16561,1.32885,0.65862
225.752,30.23837,-0.16531,1.33656,0.65858
226.352,30.29187,-0.16592,1.33107,0.65855
226.952,30.34504,-0.16916,1.34464,0.65851
227.552,30.39837,-0.17085,1.34224,0.65847
228.152,30.45171,-0.17133,1.35202,0.65843
228.752,30.5051,-0.17277,1.35509,0.65838
229.352,30.5586,-0.17361,1.35854,0.65834
229.952,30.612,-0.17407,1.36272,0.6583
230.552,30.6654,-0.17402,1.37342,0.65825
231.152,30.7188,-0.17694,1.37347,0.6582
231.752,30.77232,-0.17824,1.37808,0.65816
232.352,30.8258,-0.17825,1.39716,0.65811
232.952,30.8792,-0.18089,1.38432,0.65806
233.552,30.93263,-0.18066,1.39821,0.65801
234.152,30.98582,-0.18199,1.40473,0.65796
234.752,31.0393,-0.18372,1.41845,0.6579
235.352,31.0926,-0.18427,1.41119,0.65785
235.952,31.14619,-0.18581,1.41669,0.65779
236.552,31.19987,-0.18645,1.41742,0.65774
237.152,31.2534,-0.1899,1.42672,0.65768
237.752,31.30712,-0.19113,1.42697,0.65762
238.352,31.3606,-0.19107,1.43272,0.65756
238.952,31.41415,-0.19267,1.42901,0.6575
239.552,31.46769,-0.19538,1.43227,0.65744
240.152,31.5213,-0.19751,1.4324,0.65738
240.752,31.57491,-0.1982,1.42962,0.65732
241.352,31.62848,-0.1982,1.42636,0.65725
241.952,31.6822,-0.20242,1.44619,0.65719
242.552,31.7359,-0.20413,1.44369,0.65712
243.152,31.78955,-0.20544,1.45248,0.65705
243.752,31.84308,-0.20674,1.44518,0.65699
244.352,31.89671,-0.20829,1.45755,0.65692
244.952,31.9502,-0.21083,1.45421,0.65685
245.552,32.0038,-0.21247,1.45755,0.65678
246.152,32.05765,-0.21261,1.45635,0.6567
246.752,32.11121,-0.21538,1.45428,0.65663
247.352,32.1647,-0.21826,1.44662,0.65655
247.952,32.2183,-0.22111,1.44715,0.65648
248.552,32.27179,-0.22262,1.46371,0.6564
249.152,32.32525,-0.22568,1.45645,0.65633
249.752,32.37891,-0.22816,1.45966,0.65625
250.352,32.43255,-0.22946,1.45996,0.65617
250.952,32.48625,-0.23169,1.45203,0.65609
251.552,32.54025,-0.23454,1.45363,0.65601
252.152,32.59397,-0.23709,1.45094,0.65592
252.752,32.64765,-0.23664,1.45715,0.65584
253.352,32.7013,-0.2393,1.46213,0.65575
253.952,32.75492,-0.24229,1.45327,0.65567
254.552,32.80859,-0.24585,1.45572,0.65558
255.152,32.86235,-0.24755,1.45565,0.65549
255.752,32.9161,-0.24975,1.46303,0.65541
256.352,32.96974,-0.25215,1.45305,0.65532
256.952,33.02349,-0.25378,1.45426,0.65523
257.552,33.07708,-0.25734,1.46094,0.65513
258.152,33.1308,-0.25911,1.45476,0.65504
258.752,33.18445,-0.26232,1.45192,0.65495
259.352,33.238,-0.26585,1.45123,0.65485
259.952,33.29173,-0.2679,1.45657,0.65476
260.552,33.34536,-0.27059,1.45408,0.65466
261.152,33.399,-0.27345,1.45076,0.65457
261.752,33.4527,-0.27656,1.45197,0.65447
262.352,33.5064,-0.27974,1.46609,0.65437
262.952,33.5601,-0.28299,1.46349,0.65427
263.552,33.6138,-0.28518,1.47115,0.65417
264.152,33.66741,-0.28803,1.47169,0.65406
264.752,33.72117,-0.29141,1.44895,0.65396
265.352,33.77494,-0.29344,1.44961,0.65386
265.952,33.82861,-0.29631,1.44977,0.65375
266.552,33.88219,-0.3005,1.45508,0.65365
267.152,33.93551,-0.30157,1.45229,0.65354
267.752,33.98914,-0.3055,1.44303,0.65343
268.352,34.04296,-0.30835,1.45813,0.65332
268.952,34.09667,-0.3117,1.45623,0.65321
269.552,34.15061,-0.31666,1.46096,0.6531
270.152,34.20418,-0.3193,1.44953,0.65299
270.752,34.25789,-0.32434,1.46104,0.65288
271.352,34.3118,-0.32856,1.47773,0.65276
271.952,34.3656,-0.33013,1.46441,0.65265
272.552,34.41925,-0.33329,1.45572,0.65253
273.152,34.47294,-0.33626,1.46589,0.65242
273.752,34.5267,-0.34195,1.47662,0.6523
274.352,34.58033,-0.34408,1.47393,0.65218
274.952,34.634,-0.35008,1.4736,0.65206
275.552,34.68776,-0.35586,1.47039,0.65194
276.152,34.74088,-0.35681,1.49012,0.65182
276.752,34.79482,-0.36045,1.4839,0.6517
277.352,34.8489,-0.36368,1.49053,0.65158
277.952,34.90268,-0.36888,1.48807,0.65145
278.552,34.95722,-0.3724,1.48633,0.65133
279.152,35.0111,-0.37461,1.48951,0.6512
279.752,35.06494,-0.37938,1.49752,0.65108
280.352,35.11865,-0.38619,1.49524,0.65095
280.952,35.17236,-0.39158,1.50154,0.65082
281.552,35.2262,-0.39702,1.50562,0.65069
282.152,35.28015,-0.40411,1.50813,0.65056
282.752,35.33412,-0.40965,1.51104,0.65043
283.352,35.3878,-0.41366,1.51805,0.6503
283.952,35.44153,-0.41996,1.54194,0.65017
284.552,35.4947,-0.42124,1.53154,0.65003
285.152,35.54853,-0.42829,1.53239,0.6499
285.752,35.60242,-0.43357,1.5457,0.64976
286.352,35.65623,-0.44092,1.54861,0.64963
286.952,35.71047,-0.44457,1.55331,0.64949
287.552,35.76443,-0.4513,1.56454,0.64935
288.152,35.81839,-0.45708,1.56405,0.64921
288.752,35.8724,-0.46032,1.55966,0.64907
289.352,35.92667,-0.46597,1.57377,0.64893
289.952,35.98084,-0.47694,1.57418,0.64879
290.552,36.0351,-0.48413,1.57493,0.64865
291.152,36.08909,-0.48987,1.60042,0.6485
291.752,36.14305,-0.49359,1.60097,0.64836
292.352,36.19699,-0.50075,1.60112,0.64822
292.952,36.25094,-0.51155,1.61424,0.64807
293.552,36.30492,-0.51833,1.61814,0.64792
294.152,36.35888,-0.5225,1.60797,0.64778
294.752,36.41282,-0.53251,1.62946,0.64763
295.352,36.46687,-0.53847,1.6378,0.64748
295.952,36.52108,-0.54686,1.63407,0.64733
296.552,36.57506,-0.55278,1.6504,0.64718
297.152,36.62923,-0.56176,1.66242,0.64702
297.752,36.6834,-0.57018,1.66611,0.64687
298.352,36.7376,-0.5761,1.67708,0.64672
298.952,36.79187,-0.58519,1.68232,0.64656
299.552,36.84604,-0.5965,1.69551,0.64641
300.152,36.9003,-0.60509,1.70344,0.64625
300.752,36.9544,-0.61433,1.7314,0.64609
301.352,37.0085,-0.62095,1.74385,0.64594
301.952,37.06259,-0.6294,1.74893,0.64578
302.552,37.11647,-0.64016,1.76787,0.64562
303.152,37.17062,-0.65136,1.74746,0.64546
303.752,37.225,-0.65994,1.7723,0.6453
304.352,37.27923,-0.66928,1.79436,0.64514
304.952,37.3337,-0.67956,1.80775,0.64497
305.552,37.38787,-0.68965,1.82191,0.64481
306.152,37.44197,-0.70165,1.85727,0.64464
306.752,37.49603,-0.71114,1.86075,0.64448
307.352,37.55028,-0.72134,1.86375,0.64431
307.952,37.60459,-0.73306,1.87458,0.64415
308.552,37.65893,-0.74625,1.88151,0.64398
309.152,37.71356,-0.75793,1.90707,0.64381
309.752,37.7678,-0.76736,1.9235,0.64364
310.352,37.82208,-0.77866,1.93314,0.64347
310.952,37.8764,-0.79147,1.95796,0.6433
311.552,37.93056,-0.80325,1.97521,0.64313
312.152,37.9845,-0.81619,1.98828,0.64296
312.752,38.03853,-0.82738,1.99958,0.64278
313.352,38.09248,-0.84168,2.02238,0.64261
313.952,38.14651,-0.85377,2.04103,0.64243
314.552,38.20097,-0.86559,2.06098,0.64226
315.152,38.25497,-0.88116,2.06821,0.64208
315.752,38.30984,-0.89367,2.07874,0.64191
316.352,38.3647,-0.90505,2.09512,0.64173
316.952,38.41952,-0.91971,2.10621,0.64155
317.552,38.4746,-0.9338,2.12575,0.64137
318.152,38.52872,-0.94862,2.13378,0.64119
318.752,38.58312,-0.96353,2.17089,0.64101
319.352,38.63746,-0.9767,2.18665,0.64083
319.952,38.692,-0.99157,2.19583,0.64064
320.552,38.74642,-1.00752,2.22117,0.64046
321.152,38.80076,-1.02389,2.23334,0.64028
321.752,38.85532,-1.03782,2.25203,0.64009
322.352,38.91002,-1.0508,2.26651,0.63991
322.952,38.96463,-1.06875,2.27679,0.63972
323.552,39.01919,-1.08532,2.2937,0.63953
324.152,39.07353,-1.10177,2.31312,0.63934
324.752,39.128,-1.11731,2.33572,0.63916
325.352,39.1826,-1.13374,2.34672,0.63897
325.952,39.2371,-1.14999,2.35683,0.63878
326.552,39.2917,-1.16789,2.37904,0.63859
327.152,39.34621,-1.18342,2.38706,0.63839
327.752,39.40084,-1.20189,2.41483,0.6382
328.352,39.45563,-1.21713,2.42128,0.63801
328.952,39.51028,-1.23383,2.44145,0.63782
329.552,39.56508,-1.25199,2.4463,0.63762
330.152,39.6197,-1.26997,2.4596,0.63743
330.752,39.67438,-1.28868,2.4765,0.63723
331.352,39.72918,-1.30455,2.48978,0.63703
331.952,39.7836,-1.32361,2.50292,0.63684
332.552,39.8384,-1.34362,2.52859,0.63664
333.152,39.89331,-1.37279,2.54227,0.63644
333.752,39.9481,-1.36554,2.55155,0.63624
334.352,40.00314,-1.39486,2.56292,0.63604
334.952,40.058,-1.41573,2.56878,0.63584
335.552,40.11286,-1.43156,2.58061,0.63564
336.152,40.16774,-1.45226,2.60837,0.63543
336.752,40.2226,-1.47109,2.61232,0.63523
337.352,40.2774,-1.49218,2.62344,0.63503
337.952,40.33234,-1.51212,2.64809,0.63482
338.552,40.38725,-1.53185,2.65057,0.63462
339.152,40.4422,-1.55099,2.66627,0.63441
339.752,40.4972,-1.56888,2.68366,0.63421
340.352,40.552,-1.58867,2.69738,0.634
340.952,40.60668,-1.61326,2.71732,0.63379
341.552,40.66146,-1.63128,2.72546,0.63358
342.152,40.7162,-1.65261,2.74366,0.63337
342.752,40.77124,-1.67108,2.75857,0.63316
343.352,40.8264,-1.6921,2.77611,0.63295
343.952,40.88162,-1.71375,2.79577,0.63274
344.552,40.9366,-1.73372,2.81381,0.63253
345.152,40.99167,-1.75512,2.85085,0.63232
345.752,41.0465,-1.77405,2.86654,0.6321
346.352,41.10105,-1.79852,2.88358,0.63189
346.952,41.15606,-1.81864,2.89998,0.63168
347.552,41.21103,-1.84202,2.93276,0.63146
348.152,41.26616,-1.86097,2.95124,0.63124
348.752,41.32144,-1.88324,2.97744,0.63103
349.352,41.37652,-1.90567,3.00696,0.63081
349.952,41.4315,-1.92706,3.02839,0.63059
350.552,41.48644,-1.95188,3.06653,0.63037
351.152,41.54163,-1.97387,3.10409,0.63016
351.752,41.59657,-1.9967,3.13772,0.62994
352.352,41.65122,-2.02165,3.1533,0.62972
352.952,41.70603,-2.04483,3.21111,0.62949
353.552,41.76082,-2.07747,3.25089,0.62927
354.152,41.81578,-2.08472,3.27896,0.62905
354.752,41.87115,-2.11416,3.32927,0.62883
355.352,41.9263,-2.14135,3.35653,0.6286
355.952,41.98149,-2.16508,3.42477,0.62838
356.552,42.03663,-2.18945,3.46348,0.62815
357.152,42.0918,-2.21776,3.50357,0.62793
357.752,42.1472,-2.24343,3.55504,0.6277
358.352,42.20279,-2.27257,3.59696,0.62748
358.952,42.2582,-2.29627,3.6433,0.62725
359.552,42.31372,-2.32561,3.69012,0.62702
360.152,42.36907,-2.35135,3.72366,0.62679
360.752,42.4244,-2.37797,3.77437,0.62656
361.352,42.47995,-2.40725,3.83329,0.62633
361.952,42.53496,-2.4368,3.86817,0.6261
362.552,42.59049,-2.47579,3.93677,0.62587
363.152,42.64605,-2.48874,3.96095,0.62564
363.752,42.70148,-2.52286,4.01838,0.62541
364.352,42.75732,-2.55568,4.05026,0.62518
364.952,42.8127,-2.58811,4.11208,0.62494
365.552,42.86828,-2.61736,4.1196,0.62471
366.152,42.92398,-2.64851,4.15561,0.62448
366.752,42.97984,-2.67935,4.18961,0.62424
367.352,43.03569,-2.71115,4.21527,0.62401
367.952,43.09183,-2.74456,4.22422,0.62377
368.552,43.14797,-2.77669,4.25003,0.62353
369.152,43.20385,-2.80886,4.25287,0.6233
369.752,43.25982,-2.84363,4.25273,0.62306
370.352,43.31555,-2.87394,4.22718,0.62282
370.952,43.37117,-2.90728,4.22107,0.62258
371.552,43.4268,-2.93752,4.20271,0.62234
372.152,43.4824,-2.97134,4.16721,0.6221
372.752,43.53794,-3.00165,4.10702,0.62186
373.352,43.59359,-3.03586,4.06381,0.62162
373.952,43.64913,-3.06783,4.0066,0.62138
374.552,43.70472,-3.09708,3.9126,0.62113
375.152,43.7605,-3.12672,3.81803,0.62089
375.752,43.81615,-3.15859,3.73143,0.62065
376.352,43.87187,-3.18813,3.60259,0.6204
376.952,43.9276,-3.21584,3.47247,0.62016
377.552,43.9833,-3.24437,3.32683,0.61991
378.152,44.03906,-3.27103,3.18437,0.61967
378.752,44.09486,-3.29737,3.01535,0.61942
379.352,44.15056,-3.32091,2.85586,0.61918
379.952,44.2062,-3.34655,2.69159,0.61893
380.552,44.26186,-3.36896,2.49097,0.61868
381.152,44.31747,-3.38858,2.28822,0.61843
381.752,44.37311,-3.41251,2.09777,0.61818
382.352,44.42879,-3.43206,1.90161,0.61794
382.952,44.48446,-3.4516,1.70035,0.61769
383.552,44.53998,-3.46464,1.49151,0.61744
384.152,44.59563,-3.47935,1.30051,0.61718
384.752,44.65135,-3.49762,1.1201,0.61693
385.352,44.70683,-3.51493,0.93035,0.61668
385.952,44.76239,-3.51567,0.75839,0.61643
386.552,44.81792,-3.53149,0.57995,0.61618
387.152,44.87336,-3.5435,0.41686,0.61592
387.752,44.92887,-3.55194,0.28019,0.61567
388.352,44.98438,-3.56077,0.14272,0.61542
388.952,45.03989,-3.56917,0.02508605,0.61516
389.552,45.09545,-3.57328,-0.09454897,0.61491
390.152,45.15104,-3.57902,-0.19707,0.61465
390.752,45.20671,-3.58608,-0.27881,0.61439
391.352,45.26239,-3.59041,-0.35979,0.61414
391.952,45.31801,-3.59389,-0.41609,0.61388
392.552,45.37382,-3.59908,-0.45889,0.61362
393.152,45.42941,-3.6031,-0.50664,0.61336
393.752,45.485,-3.61385,-0.55096,0.6131
394.352,45.54081,-3.59153,-0.57773,0.61285
394.952,45.59655,-3.63066,-0.61407,0.61259
395.552,45.65252,-3.612,-0.63138,0.61233
396.152,45.70837,-3.61444,-0.66177,0.61207
396.752,45.76435,-3.62143,-0.67135,0.6118
397.352,45.82028,-3.62603,-0.69117,0.61154
397.952,45.87599,-3.63307,-0.71396,0.61128
398.552,45.93158,-3.63477,-0.7235,0.61102
399.152,45.98683,-3.63472,-0.73801,0.61076
399.752,46.04215,-3.63616,-0.7628,0.61049
400.352,46.09793,-3.63911,-0.77826,0.61023
400.952,46.1539,-3.64087,-0.80234,0.60997
401.552,46.21033,-3.64468,-0.81088,0.6097
402.152,46.26696,-3.64729,-0.81534,0.60944
402.752,46.32358,-3.65095,-0.83496,0.60917
403.352,46.38016,-3.65201,-0.84832,0.6089
403.952,46.436,-3.65414,-0.85217,0.60864
404.552,46.4923,-3.65787,-0.86471,0.60837
405.152,46.54841,-3.66254,-0.86503,0.6081
405.752,46.60479,-3.66533,-0.88066,0.60784
406.352,46.6616,-3.66572,-0.89913,0.60757
406.952,46.71803,-3.66761,-0.90459,0.6073
407.552,46.77435,-3.67131,-0.91291,0.60703
408.152,46.8307,-3.67306,-0.934,0.60676
408.752,46.88697,-3.67436,-0.93358,0.60649
409.352,46.9431,-3.67889,-0.95684,0.60622
409.952,46.9994,-3.68133,-0.9728,0.60595
410.552,47.05563,-3.68389,-0.99028,0.60568
411.152,47.1119,-3.68449,-0.99365,0.60541
411.752,47.16829,-3.68728,-1.01591,0.60514
412.352,47.22467,-3.6918,-1.01769,0.60487
412.952,47.28103,-3.69481,-1.04064,0.60459
413.552,47.3375,-3.69466,-1.04857,0.60432
414.152,47.39419,-3.69711,-1.0608,0.60405
414.752,47.45077,-3.70095,-1.07175,0.60377
415.352,47.50723,-3.7037,-1.08359,0.6035
415.952,47.56375,-3.70514,-1.11489,0.60323
416.552,47.62015,-3.70816,-1.11229,0.60295
417.152,47.67674,-3.70984,-1.13812,0.60268
417.752,47.73341,-3.71494,-1.14334,0.6024
418.352,47.79002,-3.71386,-1.15051,0.60212
418.952,47.8466,-3.717,-1.17031,0.60185
419.552,47.9032,-3.71988,-1.18916,0.60157
420.152,47.95981,-3.72042,-1.19251,0.60129
420.752,48.0164,-3.72191,-1.22134,0.60102
421.352,48.07294,-3.72525,-1.22655,0.60074
421.952,48.12968,-3.72976,-1.22767,0.60046
422.552,48.18645,-3.73118,-1.24478,0.60018
423.152,48.24331,-3.73351,-1.2681,0.5999
423.752,48.30016,-3.73092,-1.28498,0.59962
424.352,48.35696,-3.73743,-1.28425,0.59934
424.952,48.4137,-3.74563,-1.29191,0.59906
425.552,48.47041,-3.74314,-1.31107,0.59878
426.152,48.52713,-3.74434,-1.31895,0.5985
426.752,48.58392,-3.74457,-1.33298,0.59822
427.352,48.6407,-3.74943,-1.33474,0.59794
427.952,48.69753,-3.75246,-1.35679,0.59766
428.552,48.75412,-3.75349,-1.35413,0.59738
429.152,48.81085,-3.7552,-1.36123,0.5971
429.752,48.8676,-3.75867,-1.38745,0.59681
430.352,48.92445,-3.76055,-1.38149,0.59653
430.952,48.98085,-3.76212,-1.38503,0.59625
431.552,49.0376,-3.76224,-1.40749,0.59596
432.152,49.09448,-3.76612,-1.40876,0.59568
432.752,49.1514,-3.76704,-1.41753,0.5954
433.352,49.20882,-3.76781,-1.41594,0.59511
433.952,49.26571,-3.77147,-1.43732,0.59483
434.552,49.32246,-3.77417,-1.44406,0.59454
435.152,49.3795,-3.77815,-1.44576,0.59426
435.752,49.43642,-3.77966,-1.45486,0.59397
436.352,49.49335,-3.78133,-1.45616,0.59368
436.952,49.55019,-3.78526,-1.46325,0.5934
437.552,49.60699,-3.78824,-1.46663,0.59311
438.152,49.66405,-3.79185,-1.47303,0.59282
438.752,49.72126,-3.79317,-1.47944,0.59254
439.352,49.77831,-3.79447,-1.46378,0.59225
439.952,49.83548,-3.79446,-1.47679,0.59196
440.552,49.89233,-3.79464,-1.48055,0.59167
441.152,49.94892,-3.79768,-1.49298,0.59138
441.752,50.00612,-3.80104,-1.48757,0.5911
442.352,50.0632,-3.80107,-1.48219,0.59081
442.952,50.12055,-3.80432,-1.47169,0.59052
443.552,50.1779,-3.80579,-1.50178,0.59023
444.152,50.23496,-3.80587,-1.47744,0.58994
444.752,50.29229,-3.80874,-1.48921,0.58965
445.352,50.3495,-3.8122,-1.48956,0.58936
445.952,50.40663,-3.81632,-1.48938,0.58907
446.552,50.46372,-3.81641,-1.48447,0.58878
447.152,50.52087,-3.81762,-1.47826,0.58848
447.752,50.5782,-3.82033,-1.48259,0.58819
448.352,50.63545,-3.82282,-1.48237,0.5879
448.952,50.6928,-3.82391,-1.48027,0.58761
449.552,50.75018,-3.82475,-1.47961,0.58732
450.152,50.80766,-3.82815,-1.48162,0.58703
450.752,50.86506,-3.83053,-1.46636,0.58673
451.352,50.92244,-3.83047,-1.47058,0.58644
451.952,50.97978,-3.83122,-1.47336,0.58615
452.552,51.03714,-3.83244,-1.47399,0.58585
453.152,51.0946,-3.83688,-1.46332,0.58556
453.752,51.15197,-3.83809,-1.45672,0.58527
454.352,51.2093,-3.83955,-1.46382,0.58497
454.952,51.26667,-3.84218,-1.4496,0.58468
455.552,51.32392,-3.84233,-1.44052,0.58438
456.152,51.38138,-3.8424,-1.44611,0.58409
456.752,51.43865,-3.84427,-1.44596,0.58379
457.352,51.49588,-3.84687,-1.45003,0.5835
457.952,51.55325,-3.85018,-1.44254,0.5832
458.552,51.61083,-3.85206,-1.44375,0.58291
459.152,51.66853,-3.85185,-1.42903,0.58261
459.752,51.72637,-3.85207,-1.43204,0.58231
460.352,51.78393,-3.85377,-1.43203,0.58202
460.952,51.8414,-3.8572,-1.42512,0.58172
461.552,51.899,-3.85588,-1.42505,0.58142
462.152,51.95639,-3.85953,-1.42703,0.58113
462.752,52.0139,-3.86071,-1.42808,0.58083
463.352,52.07135,-3.86227,-1.42281,0.58053
463.952,52.12888,-3.86534,-1.42168,0.58024
464.552,52.18649,-3.86552,-1.42562,0.57994
465.152,52.2443,-3.86665,-1.41499,0.57964
465.752,52.30205,-3.86932,-1.41323,0.57934
466.352,52.35973,-3.8706,-1.40977,0.57904
466.952,52.41737,-3.87192,-1.40512,0.57875
467.552,52.47501,-3.87232,-1.40581,0.57845
468.152,52.53246,-3.87614,-1.40078,0.57815
468.752,52.59,-3.87674,-1.39295,0.57785
469.352,52.64765,-3.87805,-1.40677,0.57755
469.952,52.7052,-3.87674,-1.40532,0.57725
470.552,52.76245,-3.87824,-1.39687,0.57695
471.152,52.8202,-3.88113,-1.39839,0.57665
471.752,52.87745,-3.88107,-1.3978,0.57635
472.352,52.93558,-3.8818,-1.39951,0.57605
472.952,52.99365,-3.88451,-1.39255,0.57575
473.552,53.05166,-3.88437,-1.39381,0.57545
474.152,53.1096,-3.88563,-1.40865,0.57515
474.752,53.16731,-3.88829,-1.41714,0.57485
475.352,53.225,-3.88961,-1.40738,0.57455
475.952,53.28289,-3.89027,-1.40788,0.57425
476.552,53.3408,-3.89062,-1.40286,0.57394
477.152,53.3987,-3.89379,-1.41456,0.57364
477.752,53.45665,-3.89502,-1.40883,0.57334
478.352,53.5145,-3.89648,-1.4127,0.57304
478.952,53.57226,-3.89705,-1.41905,0.57274
479.552,53.63016,-3.89922,-1.41286,0.57244
480.152,53.68804,-3.89941,-1.41996,0.57213
480.752,53.74585,-3.90054,-1.42827,0.57183
481.352,53.8032,-3.90022,-1.43505,0.57153
481.952,53.86104,-3.90163,-1.44384,0.57123
482.552,53.9189,-3.90301,-1.43085,0.57092
483.152,53.9773,-3.90335,-1.43979,0.57062
483.752,54.03564,-3.9048,-1.44638,0.57032
484.352,54.0937,-3.90869,-1.43889,0.57002
484.952,54.1516,-3.90601,-1.444,0.56971
485.552,54.20945,-3.90757,-1.45683,0.56941
486.152,54.2674,-3.90616,-1.45754,0.56911
486.752,54.3254,-3.908,-1.45589,0.5688
487.352,54.3833,-3.91074,-1.47307,0.5685
487.952,54.4413,-3.91196,-1.47618,0.5682
488.552,54.4993,-3.91327,-1.47224,0.56789
489.152,54.5575,-3.91558,-1.47716,0.56759
489.752,54.6156,-3.91557,-1.47801,0.56728
490.352,54.67383,-3.91428,-1.48103,0.56698
490.952,54.7321,-3.9164,-1.48959,0.56668
491.552,54.7903,-3.91724,-1.4927,0.56637
492.152,54.8486,-3.9182,-1.5005,0.56607
492.752,54.9069,-3.9197,-1.51179,0.56576
493.352,54.96513,-3.91998,-1.50937,0.56546
493.952,55.0234,-3.92062,-1.50781,0.56515
494.552,55.08175,-3.92094,-1.52749,0.56485
495.152,55.14004,-3.92248,-1.52981,0.56454
495.752,55.1984,-3.92453,-1.52774,0.56424
496.352,55.2567,-3.92528,-1.53106,0.56393
496.952,55.315,-3.92664,-1.52362,0.56363
497.552,55.37325,-3.92665,-1.53592,0.56332
498.152,55.43159,-3.9273,-1.53649,0.56302
498.752,55.48989,-3.92631,-1.55101,0.56271
499.352,55.5483,-3.92961,-1.55466,0.56241
499.952,55.60646,-3.92949,-1.55845,0.5621
500.552,55.66486,-3.92829,-1.56622,0.56179
501.152,55.72309,-3.93143,-1.58181,0.56149
501.752,55.78135,-3.93136,-1.56685,0.56118
502.352,55.83974,-3.93136,-1.57375,0.56088
502.952,55.89799,-3.93574,-1.58397,0.56057
503.552,55.95626,-3.93766,-1.58513,0.56027
504.152,56.01458,-3.9359,-1.59971,0.55996
504.752,56.073,-3.93882,-1.59764,0.55965
505.352,56.13155,-3.9388,-1.60612,0.55935
505.952,56.19007,-3.94013,-1.62543,0.55904
506.552,56.24859,-3.94013,-1.62542,0.55874
507.152,56.3071,-3.94014,-1.63174,0.55843
507.752,56.3656,-3.94106,-1.6423,0.55812
508.352,56.42405,-3.94146,-1.64136,0.55782
508.952,56.48234,-3.94146,-1.64419,0.55751
509.552,56.54073,-3.9422,-1.64393,0.5572
510.152,56.59924,-3.94559,-1.64219,0.5569
510.752,56.6579,-3.94698,-1.6432,0.55659
511.352,56.7164,-3.94718,-1.64543,0.55628
511.952,56.77496,-3.94721,-1.64186,0.55598
512.552,56.83331,-3.94716,-1.65114,0.55567
513.152,56.8914,-3.94977,-1.65493,0.55536
513.752,56.9499,-3.95044,-1.66449,0.55506
514.352,57.00854,-3.95089,-1.66493,0.55475
514.952,57.0671,-3.94979,-1.68007,0.55444
515.552,57.12613,-3.95105,-1.67741,0.55414
516.152,57.18466,-3.95281,-1.68518,0.55383
516.752,57.24315,-3.94978,-1.68611,0.55352
517.352,57.30154,-3.95128,-1.67815,0.55322
517.952,57.3599,-3.95407,-1.682,0.55291
518.552,57.4183,-3.95407,-1.69609,0.5526
519.152,57.4767,-3.95406,-1.70041,0.5523
519.752,57.53527,-3.95669,-1.702,0.55199
520.352,57.59375,-3.95715,-1.70509,0.55168
520.952,57.65256,-3.95714,-1.70977,0.55138
521.552,57.7113,-3.95714,-1.71006,0.55107
522.152,57.77006,-3.9601,-1.72463,0.55076
522.752,57.82858,-3.96004,-1.72689,0.55046
523.352,57.8872,-3.96141,-1.74237,0.55015
523.952,57.94608,-3.96141,-1.73383,0.54984
524.552,58.00481,-3.96141,-1.74744,0.54954
525.152,58.0635,-3.96111,-1.76267,0.54923
525.752,58.12225,-3.96242,-1.75416,0.54892
526.352,58.18121,-3.9647,-1.78703,0.54862
526.952,58.24004,-3.96241,-1.77405,0.54831
527.552,58.29875,-3.96539,-1.78484,0.548
528.152,58.3576,-3.96713,-1.78754,0.5477
528.752,58.4163,-3.96591,-1.77761,0.54739
529.352,58.47523,-3.96715,-1.77779,0.54708
529.952,58.5342,-3.96767,-1.79009,0.54678
530.552,58.59321,-3.96711,-1.79917,0.54647
531.152,58.65224,-3.97063,-1.81364,0.54616
531.752,58.7111,-3.97129,-1.81281,0.54586
532.352,58.76979,-3.97129,-1.81802,0.54555
532.952,58.82844,-3.97213,-1.82132,0.54524
533.552,58.88709,-3.97392,-1.81476,0.54494
534.152,58.94605,-3.97365,-1.84564,0.54463
534.752,59.00519,-3.97376,-1.84278,0.54432
535.352,59.06448,-3.97512,-1.86485,0.54402
535.952,59.12336,-3.97512,-1.8693,0.54371
536.552,59.18231,-3.97512,-1.86951,0.54341
537.152,59.241,-3.97381,-1.87683,0.5431
537.752,59.29991,-3.97644,-1.89894,0.54279
538.352,59.35886,-3.97919,-1.9025,0.54249
538.952,59.418,-3.97973,-1.90342,0.54218
539.552,59.47715,-3.98118,-1.92064,0.54188
540.152,59.5363,-3.98039,-1.93245,0.54157
540.752,59.5955,-3.98039,-1.94014,0.54126
541.352,59.6547,-3.9806,-1.96082,0.54096
541.952,59.71369,-3.98191,-1.96092,0.54065
542.552,59.77261,-3.98314,-1.96662,0.54035
543.152,59.83172,-3.98427,-1.97249,0.54004
543.752,59.8906,-3.98456,-1.98903,0.53974
544.352,59.9497,-3.98456,-1.97869,0.53943
544.952,60.00877,-3.98453,-2.00308,0.53913
545.552,60.0678,-3.98764,-2.02183,0.53882
546.152,60.12695,-3.98898,-2.01026,0.53851
546.752,60.186,-3.99027,-2.03389,0.53821
547.352,60.2452,-3.98893,-2.05382,0.5379
547.952,60.30398,-3.98928,-2.05664,0.5376
548.552,60.36339,-3.98928,-2.06581,0.53729
549.152,60.4227,-3.98928,-2.07711,0.53699
549.752,60.48206,-3.98928,-2.08428,0.53668
550.352,60.5414,-3.98882,-2.09992,0.53638
550.952,60.6007,-3.99,-2.11071,0.53608
551.552,60.6598,-3.99157,-2.11595,0.53577
552.152,60.71921,-3.99159,-2.12155,0.53547
552.752,60.77845,-3.99158,-2.12706,0.53516
553.352,60.83775,-3.99294,-2.13149,0.53486
553.952,60.897,-3.99427,-2.15607,0.53455
554.552,60.9563,-3.99421,-2.17568,0.53425
555.152,61.01574,-3.99474,-2.18356,0.53395
555.752,61.07515,-3.99561,-2.20087,0.53364
556.352,61.1348,-3.99596,-2.20603,0.53334
556.952,61.1943,-3.99601,-2.21692,0.53303
557.552,61.25371,-3.99728,-2.2193,0.53273
558.152,61.3132,-3.99858,-2.23036,0.53243
558.752,61.3727,-3.99992,-2.23667,0.53212
559.352,61.4323,-3.99849,-2.24744,0.53182
559.952,61.49176,-3.998,-2.27654,0.53152
560.552,61.5512,-3.99915,-2.27757,0.53121
561.152,61.61054,-4.00002,-2.28217,0.53091
561.752,61.66998,-4.00156,-2.29772,0.53061
562.352,61.72925,-4.00389,-2.30269,0.53031
562.952,61.7885,-4.00448,-2.31138,0.53
563.552,61.84777,-4.00287,-2.331,0.5297
564.152,61.9073,-4.00293,-2.33644,0.5294
564.752,61.96649,-4.00223,-2.33872,0.5291
565.352,62.02587,-4.00323,-2.35711,0.52879
565.952,62.08511,-4.0038,-2.3606,0.52849
566.552,62.14451,-4.00638,-2.35966,0.52819
567.152,62.204,-4.00502,-2.38161,0.52789
567.752,62.2634,-4.00636,-2.39326,0.52759
568.352,62.32295,-4.00808,-2.40711,0.52729
568.952,62.3821,-4.00935,-2.40281,0.52699
569.552,62.44164,-4.00805,-2.41664,0.52668
570.152,62.50121,-4.00935,-2.41899,0.52638
570.752,62.56105,-4.01065,-2.41737,0.52608
571.352,62.6205,-4.01199,-2.42939,0.52578
571.952,62.68,-4.01199,-2.44785,0.52548
572.552,62.73915,-4.01199,-2.46131,0.52518
573.152,62.79875,-4.01306,-2.46714,0.52488
573.752,62.8585,-4.01283,-2.48366,0.52458
574.352,62.91839,-4.01334,-2.48695,0.52428
574.952,62.9781,-4.00465,-2.47739,0.52398
575.552,63.03762,-4.02524,-2.50178,0.52368
576.152,63.09726,-4.01872,-2.50971,0.52338
576.752,63.15675,-4.01469,-2.51607,0.52308
577.352,63.21634,-4.01558,-2.52288,0.52278
577.952,63.27599,-4.01865,-2.52425,0.52248
578.552,63.33575,-4.01713,-2.54124,0.52218
579.152,63.3956,-4.01338,-2.53243,0.52189
579.752,63.45541,-4.01375,-2.54966,0.52159
580.352,63.51536,-4.02358,-2.55797,0.52129
580.952,63.57509,-4.02196,-2.56387,0.52099
581.552,63.635,-4.02062,-2.56429,0.52069
582.152,63.69497,-4.02223,-2.58097,0.52039
582.752,63.755,-4.02172,-2.58716,0.5201
583.352,63.815,-4.02185,-2.59162,0.5198
583.952,63.87486,-4.02185,-2.59319,0.5195
584.552,63.93465,-4.02209,-2.60188,0.5192
585.152,63.9946,-4.02204,-2.61122,0.51891
585.752,64.05463,-4.02325,-2.60842,0.51861
586.352,64.11448,-4.02169,-2.57889,0.51831
586.952,64.17434,-4.02424,-2.59777,0.51802
587.552,64.2341,-4.02566,-2.59599,0.51772
588.152,64.29405,-4.02569,-2.60031,0.51742
588.752,64.35391,-4.0268,-2.62064,0.51713
589.352,64.41378,-4.02679,-2.64476,0.51683
589.952,64.47351,-4.02679,-2.64192,0.51654
590.552,64.53339,-4.0278,-2.64512,0.51624
591.152,64.59347,-4.02593,-2.6526,0.51595
591.752,64.6535,-4.02716,-2.65211,0.51565
592.352,64.71333,-4.02843,-2.66399,0.51535
592.952,64.77324,-4.02975,-2.65786,0.51506
593.552,64.83309,-4.02834,-2.64937,0.51477
594.152,64.8933,-4.02849,-2.66036,0.51447
594.752,64.95359,-4.02798,-2.6733,0.51418
595.352,65.01389,-4.02975,-2.67346,0.51388
595.952,65.07392,-4.02975,-2.65102,0.51359
596.552,65.13401,-4.03003,-2.66989,0.5133
597.152,65.1941,-4.02987,-2.69904,0.513
597.752,65.25411,-4.03152,-2.69863,0.51271
598.352,65.31421,-4.03494,-2.68801,0.51242
598.952,65.37438,-4.03424,-2.70442,0.51212
599.552,65.4347,-4.0313,-2.7023,0.51183
600.152,65.49514,-4.02605,-2.69157,0.51154
600.752,65.55534,-4.03729,-2.70978,0.51125
601.352,65.6155,-4.03774,-2.71471,0.51095
601.952,65.67559,-4.03478,-2.71521,0.51066
602.552,65.73558,-4.03592,-2.74321,0.51037
603.152,65.79563,-4.03723,-2.75449,0.51008
603.752,65.8557,-4.03647,-2.74129,0.50979
604.352,65.9161,-4.03644,-2.73704,0.5095
604.952,65.9764,-4.03918,-2.74818,0.50921
605.552,66.03664,-4.03919,-2.74085,0.50892
606.152,66.09671,-4.03786,-2.75189,0.50863
606.752,66.15683,-4.03786,-2.75677,0.50834
607.352,66.21706,-4.03787,-2.75783,0.50805
607.952,66.2771,-4.03789,-2.78059,0.50776
608.552,66.33695,-4.0369,-2.79106,0.50747
609.152,66.39705,-4.0382,-2.7967,0.50718
609.752,66.4572,-4.04096,-2.81934,0.50689
610.352,66.51746,-4.04093,-2.8242,0.5066
610.952,66.57789,-4.04225,-2.82601,0.50631
611.552,66.63816,-4.04225,-2.8251,0.50602
612.152,66.69819,-4.04225,-2.84441,0.50574
612.752,66.7582,-4.04225,-2.8464,0.50545
613.352,66.81828,-4.04315,-2.86009,0.50516
613.952,66.87889,-4.04227,-2.85957,0.50487
614.552,66.93921,-4.04416,-2.87565,0.50459
615.152,66.99983,-4.04521,-2.85768,0.5043
615.752,67.06,-4.04621,-2.8746,0.50401
616.352,67.11991,-4.04621,-2.89441,0.50373
616.952,67.18,-4.04489,-2.88242,0.50344
617.552,67.24024,-4.04489,-2.89627,0.50315
618.152,67.3008,-4.04621,-2.92372,0.50287
618.752,67.3612,-4.04756,-2.9277,0.50258
619.352,67.4215,-4.04753,-2.93013,0.5023
619.952,67.48172,-4.05015,-2.93271,0.50201
620.552,67.54219,-4.04916,-2.94278,0.50173
621.152,67.60252,-4.04916,-2.946,0.50144
621.752,67.663,-4.04913,-2.95164,0.50116
622.352,67.72345,-4.04904,-2.9757,0.50087
622.952,67.78387,-4.04983,-2.979,0.50059
623.552,67.84439,-4.04983,-2.98994,0.50031
624.152,67.90464,-4.0498,-3.01474,0.50002
624.752,67.9653,-4.05016,-3.01939,0.49974
625.352,68.02574,-4.05016,-3.04512,0.49946
625.952,68.08626,-4.05202,-3.04754,0.49918
626.552,68.14659,-4.05212,-3.05195,0.49889
627.152,68.20699,-4.05212,-3.06989,0.49861
627.752,68.2675,-4.05355,-3.05661,0.49833
628.352,68.3279,-4.05487,-3.08105,0.49805
628.952,68.38773,-4.0525,-3.08466,0.49777
629.552,68.4481,-4.05265,-3.0954,0.49749
630.152,68.5085,-4.05443,-3.08143,0.4972
630.752,68.56909,-4.05469,-3.06548,0.49692
631.352,68.6298,-4.05607,-3.07534,0.49664
631.952,68.69009,-4.05707,-3.09714,0.49636
632.552,68.75031,-4.05574,-3.10676,0.49608
633.152,68.81058,-4.0564,-3.11189,0.49581
633.752,68.87095,-4.05641,-3.11612,0.49553
634.352,68.93149,-4.05536,-3.14016,0.49525
634.952,68.99194,-4.0541,-3.13039,0.49497
635.552,69.0522,-4.05594,-3.13675,0.49469
636.152,69.1125,-4.05676,-3.14214,0.49441
636.752,69.17283,-4.05955,-3.15371,0.49413
637.352,69.2336,-4.0684,-3.19173,0.49386
637.952,69.2941,-4.05369,-3.1676,0.49358
638.552,69.35477,-4.06106,-3.18543,0.4933
639.152,69.4156,-4.06194,-3.20282,0.49303
639.752,69.4765,-4.05881,-3.20731,0.49275
640.352,69.53721,-4.06026,-3.21386,0.49247
640.952,69.59784,-4.06158,-3.20899,0.4922
641.552,69.6583,-4.06167,-3.22492,0.49192
642.152,69.71895,-4.06294,-3.23671,0.49165
642.752,69.77948,-4.06426,-3.24027,0.49137
643.352,69.84007,-4.07032,-3.22668,0.4911
643.952,69.90057,-4.0575,-3.21448,0.49082
644.552,69.96118,-4.06431,-3.2238,0.49055
645.152,70.02173,-4.06463,-3.24065,0.49027
645.752,70.08204,-4.06462,-3.25712,0.49
646.352,70.14273,-4.06332,-3.26855,0.48973
646.952,70.20345,-4.06348,-3.29267,0.48945
647.552,70.2641,-4.06591,-3.2843,0.48918
648.152,70.32522,-4.06595,-3.31072,0.48891
648.752,70.38597,-4.06585,-3.3253,0.48864
649.352,70.4469,-4.06732,-3.34229,0.48836
649.952,70.50747,-4.06594,-3.34601,0.48809
650.552,70.5681,-4.06727,-3.34779,0.48782
651.152,70.6286,-4.06859,-3.35243,0.48755
651.752,70.68916,-4.06858,-3.38595,0.48728
652.352,70.74976,-4.06889,-3.35566,0.48701
652.952,70.81019,-4.07001,-3.35446,0.48674
653.552,70.8706,-4.06964,-3.37521,0.48647
654.152,70.93105,-4.06902,-3.36011,0.4862
654.752,70.99157,-4.06768,-3.35221,0.48593
655.352,71.0523,-4.06924,-3.33645,0.48566
655.952,71.11295,-4.06892,-3.35226,0.48539
656.552,71.17356,-4.07027,-3.36904,0.48512
657.152,71.2343,-4.07041,-3.35831,0.48485
657.752,71.2949,-4.06845,-3.37153,0.48459
658.352,71.3556,-4.06759,-3.39683,0.48432
658.952,71.41631,-4.06758,-3.41924,0.48405
659.552,71.47712,-4.06891,-3.41817,0.48378
660.152,71.53786,-4.07022,-3.41366,0.48352
660.752,71.5985,-4.06895,-3.40106,0.48325
661.352,71.65924,-4.07023,-3.40612,0.48299
661.952,71.71989,-4.07164,-3.39184,0.48272
662.552,71.78061,-4.07166,-3.39823,0.48245
663.152,71.84121,-4.07038,-3.38562,0.48219
663.752,71.90188,-4.07211,-3.37477,0.48192
664.352,71.9629,-4.07264,-3.39469,0.48166
664.952,72.02411,-4.07364,-3.3838,0.4814
665.552,72.0853,-4.07233,-3.41037,0.48113
666.152,72.1464,-4.07401,-3.40364,0.48087
666.752,72.20739,-4.07393,-3.40563,0.4806
667.352,72.26825,-4.07395,-3.40703,0.48034
667.952,72.32935,-4.07523,-3.40101,0.48008
668.552,72.39012,-4.07527,-3.40588,0.47982
669.152,72.45127,-4.07396,-3.4086,0.47955
669.752,72.51233,-4.07256,-3.40767,0.47929
670.352,72.57382,-4.07264,-3.40249,0.47903
670.952,72.6351,-4.07533,-3.39762,0.47877
671.552,72.6961,-4.07575,-3.39558,0.47851
672.152,72.75708,-4.07538,-3.40802,0.47825
672.752,72.8181,-4.07538,-3.39254,0.47799
673.352,72.87897,-4.07534,-3.39915,0.47773
673.952,72.9401,-4.07604,-3.3874,0.47747
674.552,73.0013,-4.07606,-3.39918,0.47721
675.152,73.06243,-4.07538,-3.41324,0.47695
675.752,73.1238,-4.07719,-3.39931,0.47669
676.352,73.18479,-4.07747,-3.38657,0.47643
676.952,73.2461,-4.07669,-3.38219,0.47617
677.552,73.3072,-4.07516,-3.40038,0.47592
678.152,73.36841,-4.07659,-3.39134,0.47566
678.752,73.42948,-4.07659,-3.41665,0.4754
679.352,73.49074,-4.07659,-3.41594,0.47515
679.952,73.5518,-4.07659,-3.41236,0.47489
680.552,73.61301,-4.0766,-3.41335,0.47463
681.152,73.67435,-4.07659,-3.42319,0.47438
681.752,73.73574,-4.07659,-3.41111,0.47412
682.352,73.79711,-4.07658,-3.39844,0.47387
682.952,73.8584,-4.07791,-3.40872,0.47361
683.552,73.91965,-4.07792,-3.41334,0.47336
684.152,73.98092,-4.07757,-3.40585,0.4731
684.752,74.04224,-4.07766,-3.41449,0.47285
685.352,74.1035,-4.07752,-3.41274,0.47259
685.952,74.16435,-4.07691,-3.40912,0.47234
686.552,74.22533,-4.07756,-3.4048,0.47209
687.152,74.28656,-4.07759,-3.39833,0.47184
687.752,74.34787,-4.07907,-3.38799,0.47158
688.352,74.40954,-4.0805,-3.39574,0.47133
688.952,74.47064,-4.08153,-3.40948,0.47108
689.552,74.53194,-4.08145,-3.41405,0.47083
690.152,74.59319,-4.0817,-3.41524,0.47058
690.752,74.65451,-4.08306,-3.41161,0.47033
691.352,74.71579,-4.08467,-3.40272,0.47008
691.952,74.77691,-4.08501,-3.41205,0.46983
692.552,74.83816,-4.08306,-3.40419,0.46958
693.152,74.89927,-4.08306,-3.4156,0.46933
693.752,74.96053,-4.0845,-3.40375,0.46908
694.352,75.02175,-4.08443,-3.3874,0.46883
694.952,75.0831,-4.08306,-3.39401,0.46858
695.552,75.14432,-4.08306,-3.38337,0.46833
696.152,75.20532,-4.08305,-3.38887,0.46809
696.752,75.26669,-4.08438,-3.38499,0.46784
697.352,75.3283,-4.08306,-3.37827,0.46759
697.952,75.38979,-4.08437,-3.3793,0.46734
698.552,75.45155,-4.08437,-3.3486,0.4671
699.152,75.51295,-4.08333,-3.34508,0.46685
699.752,75.5741,-4.08375,-3.36497,0.46661
700.352,75.63543,-4.08612,-3.36629,0.46636
700.952,75.69666,-4.0847,-3.37052,0.46612
701.552,75.75822,-4.08389,-3.35986,0.46587
702.152,75.81973,-4.08339,-3.3507,0.46563
702.752,75.8813,-4.08201,-3.34862,0.46538
703.352,75.94289,-4.08336,-3.34782,0.46514
703.952,76.00457,-4.0847,-3.36476,0.4649
704.552,76.06603,-4.08683,-3.35106,0.46465
705.152,76.12744,-4.08734,-3.36743,0.46441
705.752,76.18884,-4.08858,-3.37847,0.46417
706.352,76.25019,-4.08733,-3.36964,0.46392
706.952,76.31153,-4.08854,-3.38486,0.46368
707.552,76.3728,-4.08732,-3.37431,0.46344
708.152,76.43425,-4.08602,-3.406,0.4632
708.752,76.49589,-4.08467,-3.41361,0.46296
709.352,76.5574,-4.08473,-3.42202,0.46272
709.952,76.61923,-4.08661,-3.43419,0.46248
710.552,76.68098,-4.08741,-3.45045,0.46224
711.152,76.7427,-4.08553,-3.43368,0.462
711.752,76.80439,-4.08627,-3.42319,0.46176
712.352,76.86605,-4.08814,-3.43167,0.46152
712.952,76.92769,-4.08888,-3.44184,0.46128
713.552,76.9894,-4.08888,-3.4351,0.46105
714.152,77.0511,-4.09019,-3.44993,0.46081
714.752,77.11279,-4.08788,-3.44682,0.46057
715.352,77.17432,-4.08752,-3.44175,0.46033
715.952,77.2358,-4.08842,-3.43583,0.4601
716.552,77.29725,-4.08975,-3.45371,0.45986
717.152,77.35884,-4.08975,-3.44736,0.45962
717.752,77.4205,-4.08978,-3.48405,0.45939
718.352,77.4823,-4.09106,-3.50359,0.45915
718.952,77.54424,-4.09102,-3.52016,0.45892
719.552,77.60599,-4.08968,-3.50292,0.45868
720.152,77.66751,-4.09897,-3.52541,0.45845
720.752,77.72913,-4.08379,-3.49057,0.45822
721.352,77.79083,-4.08931,-3.48191,0.45798
721.952,77.85266,-4.09078,-3.4874,0.45775
722.552,77.91441,-4.09217,-3.49735,0.45752
723.152,77.97618,-4.09184,-3.51693,0.45728
723.752,78.03788,-4.09217,-3.51256,0.45705
724.352,78.0997,-4.09217,-3.51917,0.45682
724.952,78.1615,-4.09217,-3.49708,0.45659
725.552,78.22338,-4.09217,-3.50376,0.45636
726.152,78.2852,-4.09348,-3.52469,0.45612
726.752,78.34685,-4.09348,-3.5232,0.45589
727.352,78.4085,-4.0937,-3.52062,0.45566
727.952,78.47026,-4.0948,-3.50953,0.45543
728.552,78.532,-4.09472,-3.49319,0.4552
729.152,78.59397,-4.09099,-3.48731,0.45497
729.752,78.65584,-4.09208,-3.49259,0.45475
730.352,78.71784,-4.09349,-3.50742,0.45452
730.952,78.77967,-4.09249,-3.50986,0.45429
731.552,78.84141,-4.09295,-3.5011,0.45406
732.152,78.90313,-4.09374,-3.49868,0.45383
732.752,78.96483,-4.09563,-3.4804,0.45361
733.352,79.0266,-4.09611,-3.49177,0.45338
733.952,79.0883,-4.09611,-3.5039,0.45315
734.552,79.14997,-4.09479,-3.49526,0.45293
735.152,79.2116,-4.0948,-3.50515,0.4527
735.752,79.27335,-4.09496,-3.50705,0.45247
736.352,79.33524,-4.09737,-3.48829,0.45225
736.952,79.3973,-4.09789,-3.46592,0.45202
737.552,79.4592,-4.09777,-3.444,0.4518
738.152,79.52113,-4.09579,-3.47076,0.45158
738.752,79.58327,-4.09731,-3.47478,0.45135
739.352,79.64516,-4.10264,-3.48558,0.45113
739.952,79.70742,-4.09511,-3.49222,0.45091
740.552,79.7694,-4.09392,-3.4854,0.45068
741.152,79.83145,-4.09676,-3.51202,0.45046
741.752,79.8933,-4.09677,-3.51163,0.45024
742.352,79.95536,-4.09785,-3.51874,0.45002
742.752,79.99625,-4.09846,-3.52449,0.44987