File: 01_Data/Pine_Siding/STA/N2/10K_min/Pine_Siding_STA_N2_10KData_210806_R1.csv
##Temp./Â°C,Time/min,Mass loss(subtr.2)/mg,DSC(subtr.2)/mW,Sensit./(uV/mW)
49.317,10.01,-0.03926,0.08884085,0.61831
49.917,11.38616,-0.04151649,0.17103,0.61863
50.517,11.72821,-0.04169984,0.24146,0.61895
51.117,11.97095,-0.04376754,0.27575,0.61927
51.717,12.17245,-0.0416358,0.32323,0.61958
52.317,12.3477,-0.04343974,0.37267,0.6199
52.917,12.5036,-0.04392957,0.41479,0.62021
53.517,12.64905,-0.04664552,0.42629,0.62052
54.117,12.78433,-0.04230734,0.46163,0.62083
54.717,12.91142,-0.04440668,0.47452,0.62114
55.317,13.03347,-0.04651022,0.50443,0.62145
55.917,13.15078,-0.04549322,0.51688,0.62176
56.517,13.26389,-0.04607605,0.55189,0.62206
57.117,13.37314,-0.04538939,0.57061,0.62236
57.717,13.4797,-0.04562717,0.59391,0.62267
58.317,13.5833,-0.0469565,0.61254,0.62297
58.917,13.68426,-0.04684211,0.62668,0.62327
59.517,13.78456,-0.04817224,0.6544,0.62357
60.117,13.8822,-0.04716001,0.67537,0.62387
60.717,13.97768,-0.04819514,0.68003,0.62416
61.317,14.07289,-0.04685117,0.69478,0.62446
61.917,14.1659,-0.04803843,0.7084,0.62475
62.517,14.25739,-0.0484858,0.73053,0.62505
63.117,14.34663,-0.04933565,0.7349,0.62534
63.717,14.43564,-0.04938609,0.75174,0.62563
64.317,14.52355,-0.0493181,0.76727,0.62592
64.917,14.61005,-0.04968193,0.77244,0.62621
65.517,14.69537,-0.05068071,0.80153,0.62649
66.117,14.7797,-0.05200006,0.80923,0.62678
66.717,14.8626,-0.05067049,0.81924,0.62706
67.317,14.94506,-0.05197678,0.83198,0.62735
67.917,15.02644,-0.05256898,0.85422,0.62763
68.517,15.1069,-0.05252198,0.86188,0.62791
69.117,15.1869,-0.0519421,0.87814,0.62819
69.717,15.26554,-0.05328056,0.89403,0.62846
70.317,15.34435,-0.05180016,0.89794,0.62874
70.917,15.4221,-0.05450855,0.9154,0.62902
71.517,15.4994,-0.05452,0.92852,0.62929
72.117,15.5757,-0.05452747,0.94065,0.62956
72.717,15.65135,-0.05345185,0.94578,0.62983
73.317,15.727,-0.05450159,0.95774,0.6301
73.917,15.8019,-0.05580956,0.96102,0.63037
74.517,15.8759,-0.05583001,0.97454,0.63064
75.117,15.9492,-0.05708739,0.98794,0.63091
75.717,16.022,-0.05714033,1.00674,0.63117
76.317,16.0946,-0.05752835,1.00265,0.63144
76.917,16.16668,-0.05725631,1.00626,0.6317
77.517,16.23753,-0.05926653,1.01364,0.63196
78.117,16.3077,-0.05900997,1.01943,0.63222
78.717,16.37816,-0.05903693,1.03312,0.63248
79.317,16.44891,-0.05868649,1.03153,0.63274
79.917,16.5193,-0.05895552,1.04628,0.63299
80.517,16.58876,-0.05995921,1.04547,0.63325
81.117,16.65814,-0.05602497,1.05984,0.6335
81.717,16.72719,-0.06544443,1.05242,0.63376
82.317,16.79571,-0.06258495,1.05848,0.63401
82.917,16.86344,-0.06098616,1.06891,0.63426
83.517,16.9308,-0.06233378,1.07755,0.63451
84.117,16.998,-0.06375434,1.07192,0.63475
84.717,17.06496,-0.06510951,1.06615,0.635
85.317,17.13177,-0.06524276,1.07918,0.63524
85.917,17.19801,-0.06374024,1.08536,0.63549
86.517,17.2636,-0.06442344,1.08041,0.63573
87.117,17.329,-0.06371907,1.07779,0.63597
87.717,17.39425,-0.0663971,1.083,0.63621
88.317,17.4596,-0.06573471,1.07876,0.63645
88.917,17.52429,-0.06569955,1.06791,0.63669
89.517,17.5888,-0.06566003,1.06389,0.63692
90.117,17.6529,-0.06502455,1.06358,0.63716
90.717,17.7169,-0.0650293,1.06118,0.63739
91.317,17.78054,-0.0663619,1.06048,0.63763
91.917,17.84382,-0.06694944,1.0477,0.63786
92.517,17.90696,-0.06898907,1.05067,0.63809
93.117,17.96976,-0.06899001,1.03868,0.63831
93.717,18.0327,-0.06927691,1.04964,0.63854
94.317,18.09525,-0.06900018,1.03181,0.63877
94.917,18.15762,-0.06974069,1.03728,0.63899
95.517,18.21966,-0.0717403,1.02543,0.63922
96.117,18.28171,-0.07108736,1.03153,0.63944
96.717,18.3435,-0.06976183,1.02198,0.63966
97.317,18.4053,-0.06976642,1.00976,0.63988
97.917,18.4668,-0.06846449,1.00258,0.6401
98.517,18.52799,-0.06965025,0.99865,0.64031
99.117,18.5889,-0.070206,1.01485,0.64053
99.717,18.64975,-0.06464358,1.00139,0.64074
100.317,18.71051,-0.07911535,0.99367,0.64096
100.917,18.7713,-0.07300461,1.00054,0.64117
101.517,18.8319,-0.07306791,1.00289,0.64138
102.117,18.89244,-0.07203688,0.99735,0.64159
102.717,18.9529,-0.07077157,0.99307,0.6418
103.317,19.01325,-0.07204847,0.99135,0.64201
103.917,19.07314,-0.07327271,0.98358,0.64221
104.517,19.13318,-0.07457188,0.99013,0.64242
105.117,19.19279,-0.07315867,0.98082,0.64262
105.717,19.25245,-0.07175302,0.98847,0.64282
106.317,19.3123,-0.07318048,0.98314,0.64302
106.917,19.3721,-0.07236261,0.97745,0.64322
107.517,19.4317,-0.07457902,0.97804,0.64342
108.117,19.4913,-0.07458006,0.98036,0.64362
108.717,19.55051,-0.07388847,0.97203,0.64381
109.317,19.60944,-0.07195915,0.97017,0.64401
109.917,19.6683,-0.07326214,0.96739,0.6442
110.517,19.72747,-0.07205525,0.97045,0.64439
111.117,19.78642,-0.07325371,0.96917,0.64458
111.717,19.84595,-0.0745885,0.96743,0.64477
112.317,19.90486,-0.07458987,0.95929,0.64496
112.917,19.9637,-0.07317257,0.96934,0.64515
113.517,20.02234,-0.07326042,0.97082,0.64533
114.117,20.08075,-0.07326784,0.96816,0.64552
114.717,20.13944,-0.07326999,0.96529,0.6457
115.317,20.19804,-0.07319366,0.97304,0.64588
115.917,20.2565,-0.07450801,0.96906,0.64606
116.517,20.31494,-0.07523967,0.96848,0.64624
117.117,20.3729,-0.07480029,0.97424,0.64642
117.717,20.4311,-0.07265803,0.97523,0.6466
118.317,20.4893,-0.07260064,0.97319,0.64677
118.917,20.54745,-0.07259754,0.98835,0.64695
119.517,20.60577,-0.07262797,0.97221,0.64712
120.117,20.6637,-0.07523728,0.97982,0.64729
120.717,20.7216,-0.07392503,0.97182,0.64746
121.317,20.77921,-0.07393001,0.96104,0.64763
121.917,20.837,-0.07397914,0.96992,0.6478
122.517,20.89462,-0.07261126,0.97353,0.64796
123.117,20.95212,-0.07366956,0.98584,0.64813
123.717,21.00967,-0.07698464,0.98374,0.64829
124.317,21.06656,-0.0769031,0.97426,0.64846
124.917,21.12378,-0.07441706,0.98941,0.64862
125.517,21.18101,-0.0744652,0.98414,0.64878
126.117,21.23824,-0.07367435,0.9863,0.64894
126.717,21.2957,-0.07451545,0.9911,0.6491
127.317,21.35267,-0.07414983,0.99544,0.64925
127.917,21.40943,-0.07415,0.99524,0.64941
128.517,21.4661,-0.07415002,0.99199,0.64956
129.117,21.52276,-0.07416244,1.01302,0.64972
129.717,21.57956,-0.0718429,1.01073,0.64987
130.317,21.63618,-0.07179637,1.01599,0.65002
130.917,21.69266,-0.07316906,1.01717,0.65017
131.517,21.74904,-0.07366342,1.0113,0.65031
132.117,21.80501,-0.07579747,1.01529,0.65046
132.717,21.8613,-0.07448099,1.01576,0.65061
133.317,21.91734,-0.07403821,1.01842,0.65075
133.917,21.97348,-0.07316975,1.02469,0.65089
134.517,22.0297,-0.07316745,1.02571,0.65103
135.117,22.0858,-0.0741487,1.02599,0.65118
135.717,22.1419,-0.07310893,1.0182,0.65131
136.317,22.1976,-0.07584829,1.02125,0.65145
136.917,22.25362,-0.07442781,1.02109,0.65159
137.517,22.30957,-0.07450266,1.02535,0.65172
138.117,22.36516,-0.07316696,1.02611,0.65186
138.717,22.42079,-0.07224125,1.02401,0.65199
139.317,22.47628,-0.07451563,1.04234,0.65212
139.917,22.53164,-0.07491301,1.03557,0.65225
140.517,22.5871,-0.07565855,1.04149,0.65238
141.117,22.64252,-0.07458155,1.04281,0.65251
141.717,22.69768,-0.07458,1.03988,0.65264
142.317,22.753,-0.07458016,1.0408,0.65276
142.917,22.80816,-0.07407191,1.04622,0.65289
143.517,22.8634,-0.0733008,1.03834,0.65301
144.117,22.91864,-0.07459,1.05021,0.65313
144.717,22.9737,-0.0749004,1.05765,0.65325
145.317,23.02863,-0.07613588,1.05543,0.65337
145.917,23.08361,-0.07502224,1.05822,0.65349
146.517,23.13849,-0.07490982,1.0579,0.65361
147.117,23.1933,-0.07587068,1.06016,0.65372
147.717,23.24842,-0.0763401,1.07137,0.65384
148.317,23.3032,-0.07634111,1.07642,0.65395
148.917,23.3582,-0.07646809,1.08242,0.65406
149.517,23.413,-0.07502349,1.07816,0.65417
150.117,23.46748,-0.0751838,1.08393,0.65428
150.717,23.52221,-0.07635533,1.08884,0.65439
151.317,23.5767,-0.07766159,1.09482,0.6545
151.917,23.6313,-0.07834483,1.08883,0.6546
152.517,23.68594,-0.07829586,1.09344,0.65471
153.117,23.74034,-0.07699783,1.0916,0.65481
153.717,23.79484,-0.07568176,1.09578,0.65491
154.317,23.8492,-0.07568,1.09756,0.65501
154.917,23.90382,-0.07567998,1.10845,0.65511
155.517,23.9584,-0.0758891,1.09054,0.65521
156.117,24.01277,-0.07832077,1.10026,0.65531
156.717,24.06728,-0.07697751,1.10299,0.65541
157.317,24.12142,-0.07568118,1.10375,0.6555
157.917,24.17567,-0.07565673,1.10354,0.65559
158.517,24.23016,-0.07370938,1.1008,0.65569
159.117,24.28453,-0.07733373,1.10114,0.65578
159.717,24.33877,-0.07919861,1.10881,0.65587
160.317,24.3931,-0.08595757,1.11525,0.65596
160.917,24.44741,-0.07271301,1.12151,0.65604
161.517,24.50178,-0.07422439,1.12076,0.65613
162.117,24.5562,-0.07736393,1.12112,0.65622
162.717,24.61025,-0.07798569,1.11837,0.6563
163.317,24.66442,-0.07693816,1.12413,0.65638
163.917,24.71865,-0.07535376,1.12738,0.65646
164.517,24.77275,-0.07859952,1.12392,0.65654
165.117,24.82724,-0.08003286,1.10738,0.65662
165.717,24.88148,-0.07777117,1.10757,0.6567
166.317,24.93584,-0.07755863,1.11912,0.65678
166.917,24.9903,-0.07755146,1.12099,0.65685
167.517,25.0442,-0.07755008,1.11233,0.65693
168.117,25.09831,-0.07873782,1.12531,0.657
168.717,25.1524,-0.07887709,1.12636,0.65707
169.317,25.20644,-0.08017917,1.13601,0.65714
169.917,25.26073,-0.07913252,1.1333,0.65721
170.517,25.31498,-0.07743563,1.139,0.65728
171.117,25.36906,-0.07756507,1.13616,0.65735
171.717,25.42328,-0.07961471,1.1469,0.65741
172.317,25.4775,-0.08029115,1.15712,0.65748
172.917,25.5316,-0.08163035,1.14623,0.65754
173.517,25.58576,-0.08252233,1.14855,0.6576
174.117,25.63989,-0.08117004,1.16471,0.65766
174.717,25.694,-0.08117,1.16167,0.65772
175.317,25.74803,-0.08117,1.16523,0.65778
175.917,25.80193,-0.08117297,1.17537,0.65784
176.517,25.85586,-0.07995266,1.18111,0.6579
177.117,25.90985,-0.08115787,1.18044,0.65795
177.717,25.9638,-0.07984814,1.17004,0.65801
178.317,26.01774,-0.07901649,1.17865,0.65806
178.917,26.07157,-0.08123805,1.18817,0.65811
179.517,26.12508,-0.0811633,1.18073,0.65816
180.117,26.17896,-0.08246672,1.18442,0.65821
180.717,26.2327,-0.08149193,1.18789,0.65826
181.317,26.28674,-0.08149,1.18576,0.6583
181.917,26.34068,-0.08149,1.18703,0.65835
182.517,26.39457,-0.08149994,1.19066,0.65839
183.117,26.44843,-0.08337367,1.19684,0.65844
183.717,26.50197,-0.08412233,1.20387,0.65848
184.317,26.55582,-0.08420448,1.20419,0.65852
184.917,26.60929,-0.08416955,1.2166,0.65856
185.517,26.66292,-0.08313539,1.21706,0.6586
186.117,26.71653,-0.08445201,1.21289,0.65864
186.717,26.77018,-0.08611135,1.22549,0.65867
187.317,26.82385,-0.0861501,1.22003,0.65871
187.917,26.8774,-0.08405385,1.22693,0.65874
188.517,26.93099,-0.08388894,1.22953,0.65877
189.117,26.98429,-0.08479027,1.23771,0.65881
189.717,27.03763,-0.08525394,1.23041,0.65884
190.317,27.091,-0.08610564,1.24033,0.65887
190.917,27.14446,-0.08479024,1.24915,0.65889
191.517,27.198,-0.08544946,1.25269,0.65892
192.117,27.25158,-0.08622411,1.24658,0.65895
192.717,27.3051,-0.08572423,1.23267,0.65897
193.317,27.35835,-0.08672249,1.23277,0.659
193.917,27.41163,-0.08807929,1.24727,0.65902
194.517,27.4651,-0.08808,1.24616,0.65904
195.117,27.51853,-0.08808002,1.26552,0.65906
195.717,27.5721,-0.0881199,1.26555,0.65908
196.317,27.62575,-0.08707758,1.26861,0.6591
196.917,27.679,-0.08661806,1.28044,0.65911
197.517,27.73217,-0.0865522,1.29019,0.65913
198.117,27.78562,-0.08914651,1.29046,0.65914
198.717,27.83891,-0.08915692,1.30421,0.65915
199.317,27.89231,-0.08927345,1.2931,0.65917
199.917,27.94585,-0.08918281,1.2963,0.65918
200.517,27.99897,-0.09417542,1.31809,0.65919
201.117,28.05234,-0.09104954,1.30482,0.6592
201.717,28.1057,-0.08671135,1.31359,0.6592
202.317,28.159,-0.09054701,1.32746,0.65921
202.917,28.2126,-0.09169342,1.32594,0.65921
203.517,28.2659,-0.09059956,1.31748,0.65922
204.117,28.31928,-0.09273281,1.33562,0.65922
204.717,28.37252,-0.09214287,1.33928,0.65922
205.317,28.4257,-0.09221761,1.3302,0.65922
205.917,28.479,-0.09344967,1.34179,0.65922
206.517,28.5323,-0.09344651,1.34923,0.65922
207.117,28.58568,-0.09441322,1.34722,0.65922
207.717,28.63911,-0.09476851,1.35497,0.65922
208.317,28.69251,-0.09476985,1.35251,0.65921
208.917,28.746,-0.09512605,1.34496,0.6592
209.517,28.7995,-0.09508955,1.34181,0.6592
210.117,28.8529,-0.09509,1.35304,0.65919
210.717,28.90618,-0.09508999,1.34147,0.65918
211.317,28.9595,-0.09509205,1.35392,0.65917
211.917,29.01277,-0.09775329,1.34295,0.65916
212.517,29.06605,-0.09904854,1.35647,0.65914
213.117,29.1195,-0.09905,1.35398,0.65913
213.717,29.17272,-0.09905025,1.36204,0.65912
214.317,29.22608,-0.10156,1.35596,0.6591
214.917,29.2795,-0.10308,1.35223,0.65908
215.517,29.33282,-0.10311,1.34994,0.65906
216.117,29.3863,-0.1044,1.36406,0.65905
216.717,29.4397,-0.10311,1.35896,0.65902
217.317,29.493,-0.10311,1.35872,0.659
217.917,29.54631,-0.10311,1.35801,0.65898
218.517,29.5997,-0.10311,1.36391,0.65896
219.117,29.65307,-0.1046,1.37709,0.65893
219.717,29.7065,-0.10596,1.37402,0.65891
220.317,29.76013,-0.10727,1.38252,0.65888
220.917,29.8137,-0.1073,1.37222,0.65885
221.517,29.8671,-0.10728,1.38596,0.65882
222.117,29.92047,-0.10728,1.3863,0.65879
222.717,29.9737,-0.1076,1.38664,0.65876
223.317,30.027,-0.10859,1.39017,0.65873
223.917,30.0805,-0.11122,1.3898,0.65869
224.517,30.13376,-0.11122,1.4029,0.65866
225.117,30.18726,-0.11252,1.3963,0.65862
225.717,30.24067,-0.11254,1.40824,0.65859
226.317,30.29409,-0.11189,1.40755,0.65855
226.917,30.3476,-0.11289,1.41836,0.65851
227.517,30.40111,-0.11547,1.41841,0.65847
228.117,30.4547,-0.11724,1.41664,0.65843
228.717,30.50815,-0.11813,1.43339,0.65839
229.317,30.56157,-0.11813,1.4263,0.65834
229.917,30.61484,-0.1178,1.43201,0.6583
230.517,30.66818,-0.11776,1.43098,0.65825
231.117,30.72164,-0.11899,1.43564,0.65821
231.717,30.7752,-0.1187,1.43313,0.65816
232.317,30.8287,-0.12139,1.44255,0.65811
232.917,30.8823,-0.12408,1.43931,0.65806
233.517,30.9358,-0.12547,1.45287,0.65801
234.117,30.98933,-0.12383,1.45028,0.65796
234.717,31.0429,-0.12538,1.45165,0.65791
235.317,31.0964,-0.12657,1.45104,0.65785
235.917,31.14994,-0.1279,1.45907,0.6578
236.517,31.20335,-0.13095,1.46107,0.65774
237.117,31.2569,-0.13099,1.46509,0.65769
237.717,31.3102,-0.13284,1.47887,0.65763
238.317,31.36382,-0.13217,1.47385,0.65757
238.917,31.4174,-0.13459,1.48647,0.65751
239.517,31.4709,-0.13481,1.47827,0.65745
240.117,31.5244,-0.13618,1.4808,0.65738
240.717,31.57795,-0.13918,1.47756,0.65732
241.317,31.63147,-0.14068,1.47445,0.65726
241.917,31.6851,-0.14154,1.47973,0.65719
242.517,31.73895,-0.14205,1.48969,0.65713
243.117,31.79277,-0.14467,1.49239,0.65706
243.717,31.84637,-0.146,1.49064,0.65699
244.317,31.8999,-0.14599,1.49468,0.65692
244.917,31.9534,-0.14818,1.49908,0.65685
245.517,32.00692,-0.15087,1.50619,0.65678
246.117,32.06047,-0.15771,1.50012,0.65671
246.717,32.11408,-0.14858,1.49261,0.65663
247.317,32.16748,-0.15386,1.49683,0.65656
247.917,32.22102,-0.15521,1.50141,0.65648
248.517,32.27455,-0.15622,1.50494,0.65641
249.117,32.32817,-0.15931,1.49367,0.65633
249.717,32.38172,-0.16029,1.50493,0.65625
250.317,32.4354,-0.16266,1.50242,0.65617
250.917,32.48885,-0.16553,1.5055,0.65609
251.517,32.54225,-0.16684,1.50268,0.65601
252.117,32.59604,-0.16835,1.50072,0.65593
252.717,32.64965,-0.1705,1.50062,0.65584
253.317,32.70361,-0.17382,1.5091,0.65576
253.917,32.75739,-0.17415,1.50166,0.65567
254.517,32.81095,-0.1764,1.51687,0.65559
255.117,32.8647,-0.17696,1.49952,0.6555
255.717,32.91825,-0.18179,1.49759,0.65541
256.317,32.97204,-0.18301,1.50556,0.65532
256.917,33.02588,-0.1857,1.50303,0.65523
257.517,33.07958,-0.18724,1.49793,0.65514
258.117,33.13337,-0.18758,1.50864,0.65505
258.717,33.18696,-0.19109,1.50261,0.65495
259.317,33.24058,-0.19383,1.50164,0.65486
259.917,33.29417,-0.1962,1.51077,0.65476
260.517,33.3478,-0.19835,1.51179,0.65467
261.117,33.40153,-0.20153,1.51473,0.65457
261.717,33.45519,-0.20377,1.50086,0.65447
262.317,33.50885,-0.20533,1.51424,0.65437
262.917,33.56266,-0.20546,1.50857,0.65427
263.517,33.61605,-0.20898,1.49672,0.65417
264.117,33.66988,-0.21169,1.50472,0.65407
264.717,33.72375,-0.21507,1.4997,0.65397
265.317,33.7774,-0.21788,1.50581,0.65386
265.917,33.83132,-0.2205,1.5131,0.65376
266.517,33.88491,-0.22275,1.52264,0.65365
267.117,33.93846,-0.22467,1.51188,0.65355
267.717,33.99224,-0.22779,1.51916,0.65344
268.317,34.04603,-0.23088,1.51421,0.65333
268.917,34.0997,-0.23338,1.53714,0.65322
269.517,34.1535,-0.23615,1.52382,0.65311
270.117,34.20706,-0.23883,1.52365,0.653
270.717,34.26063,-0.24231,1.5309,0.65288
271.317,34.31422,-0.24361,1.52198,0.65277
271.917,34.36801,-0.24608,1.52238,0.65266
272.517,34.42183,-0.25106,1.52451,0.65254
273.117,34.4756,-0.25428,1.53157,0.65243
273.717,34.5295,-0.25865,1.53236,0.65231
274.317,34.5833,-0.26143,1.53248,0.65219
274.917,34.63689,-0.26479,1.53549,0.65207
275.517,34.6907,-0.2679,1.54387,0.65195
276.117,34.74443,-0.26948,1.54203,0.65183
276.717,34.7981,-0.27363,1.55243,0.65171
277.317,34.8519,-0.27819,1.55464,0.65159
277.917,34.90549,-0.28299,1.55231,0.65146
278.517,34.95932,-0.28533,1.5566,0.65134
279.117,35.01308,-0.29043,1.56799,0.65121
279.717,35.06693,-0.29345,1.56712,0.65109
280.317,35.12075,-0.29459,1.56667,0.65096
280.917,35.17445,-0.29881,1.57346,0.65083
281.517,35.2284,-0.3052,1.57598,0.6507
282.117,35.2817,-0.31002,1.58013,0.65057
282.717,35.33555,-0.31431,1.58651,0.65044
283.317,35.38941,-0.31856,1.58105,0.65031
283.917,35.44312,-0.32483,1.59185,0.65018
284.517,35.49749,-0.3269,1.60215,0.65004
285.117,35.55149,-0.32917,1.60572,0.64991
285.717,35.60525,-0.3342,1.6188,0.64977
286.317,35.6593,-0.33962,1.61729,0.64964
286.917,35.71315,-0.34508,1.6283,0.6495
287.517,35.76719,-0.34812,1.62139,0.64936
288.117,35.82135,-0.35345,1.64232,0.64922
288.717,35.87547,-0.36018,1.65024,0.64908
289.317,35.92941,-0.36487,1.64077,0.64894
289.917,35.98328,-0.37026,1.65481,0.6488
290.517,36.03732,-0.37384,1.66485,0.64866
291.117,36.0913,-0.38029,1.66427,0.64851
291.717,36.14549,-0.38538,1.68176,0.64837
292.317,36.19951,-0.39139,1.67836,0.64822
292.917,36.25371,-0.39905,1.68437,0.64808
293.517,36.3078,-0.40553,1.69146,0.64793
294.117,36.36169,-0.41043,1.69912,0.64778
294.717,36.41579,-0.41567,1.71673,0.64764
295.317,36.4698,-0.42172,1.72727,0.64749
295.917,36.5239,-0.42756,1.73139,0.64734
296.517,36.57826,-0.43492,1.74698,0.64718
297.117,36.63241,-0.44254,1.75019,0.64703
297.717,36.68646,-0.44967,1.75613,0.64688
298.317,36.7405,-0.45514,1.76162,0.64673
298.917,36.79455,-0.46143,1.76382,0.64657
299.517,36.84857,-0.47079,1.77944,0.64642
300.117,36.90292,-0.47704,1.78967,0.64626
300.717,36.95712,-0.48348,1.81255,0.6461
301.317,37.01135,-0.49405,1.8466,0.64595
301.917,37.06566,-0.50107,1.84321,0.64579
302.517,37.11997,-0.50872,1.83281,0.64563
303.117,37.17438,-0.51594,1.8412,0.64547
303.717,37.22874,-0.52531,1.85361,0.64531
304.317,37.28313,-0.53139,1.85736,0.64514
304.917,37.33743,-0.53888,1.87046,0.64498
305.517,37.39182,-0.54862,1.88686,0.64482
306.117,37.44599,-0.55754,1.89745,0.64465
306.717,37.50022,-0.56492,1.90125,0.64449
307.317,37.55423,-0.57473,1.92471,0.64432
307.917,37.6083,-0.58532,1.93782,0.64416
308.517,37.66271,-0.59514,1.95143,0.64399
309.117,37.7171,-0.60347,1.95316,0.64382
309.717,37.77178,-0.61387,1.96869,0.64365
310.317,37.8262,-0.62191,1.99288,0.64348
310.917,37.88073,-0.63145,2.00781,0.64331
311.517,37.9352,-0.64198,2.0154,0.64314
312.117,37.9896,-0.65094,2.03607,0.64297
312.717,38.04423,-0.66235,2.04735,0.64279
313.317,38.09865,-0.67537,2.07908,0.64262
313.917,38.15313,-0.68547,2.08514,0.64244
314.517,38.20767,-0.69613,2.08859,0.64227
315.117,38.26212,-0.70552,2.10696,0.64209
315.717,38.3166,-0.71838,2.13443,0.64192
316.317,38.3711,-0.72711,2.15036,0.64174
316.917,38.42562,-0.74022,2.15459,0.64156
317.517,38.48003,-0.75279,2.1697,0.64138
318.117,38.53458,-0.76688,2.19046,0.6412
318.717,38.589,-0.77874,2.20795,0.64102
319.317,38.6436,-0.78842,2.21414,0.64084
319.917,38.69806,-0.80089,2.23756,0.64065
320.517,38.75275,-0.8114,2.25377,0.64047
321.117,38.8074,-0.82495,2.28008,0.64029
321.717,38.8618,-0.83841,2.28204,0.6401
322.317,38.9165,-0.85151,2.29053,0.63992
322.917,38.97105,-0.86472,2.31633,0.63973
323.517,39.02565,-0.87719,2.33009,0.63954
324.117,39.08038,-0.8923,2.3569,0.63936
324.717,39.13511,-0.90453,2.35795,0.63917
325.317,39.1897,-0.91905,2.37593,0.63898
325.917,39.2443,-0.9306,2.38969,0.63879
326.517,39.299,-0.94499,2.40808,0.6386
327.117,39.3536,-0.95832,2.42329,0.63841
327.717,39.40833,-0.97455,2.43864,0.63821
328.317,39.463,-0.98827,2.46151,0.63802
328.917,39.51765,-1.00197,2.47527,0.63783
329.517,39.57237,-1.01788,2.49545,0.63763
330.117,39.62706,-1.03185,2.50587,0.63744
330.717,39.68175,-1.04443,2.49643,0.63724
331.317,39.73656,-1.06157,2.52666,0.63704
331.917,39.7911,-1.07797,2.54088,0.63685
332.517,39.8458,-1.09164,2.54174,0.63665
333.117,39.90033,-1.10452,2.55221,0.63645
333.717,39.955,-1.12116,2.56225,0.63625
334.317,40.0097,-1.13506,2.57651,0.63605
334.917,40.06447,-1.15166,2.58289,0.63585
335.517,40.11934,-1.16755,2.61147,0.63565
336.117,40.1742,-1.18242,2.61094,0.63545
336.717,40.229,-1.20079,2.63138,0.63524
337.317,40.28383,-1.2148,2.62998,0.63504
337.917,40.33853,-1.22882,2.64924,0.63484
338.517,40.3932,-1.24752,2.6645,0.63463
339.117,40.44792,-1.26086,2.66838,0.63442
339.717,40.5028,-1.27657,2.68379,0.63422
340.317,40.55791,-1.29365,2.69059,0.63401
340.917,40.61288,-1.31142,2.7039,0.6338
341.517,40.66798,-1.32849,2.73152,0.63359
342.117,40.72302,-1.34464,2.74554,0.63339
342.717,40.7779,-1.36047,2.7549,0.63318
343.317,40.83282,-1.37675,2.77728,0.63296
343.917,40.88766,-1.39583,2.78573,0.63275
344.517,40.94267,-1.41297,2.80617,0.63254
345.117,40.9977,-1.43083,2.82048,0.63233
345.717,41.0526,-1.44589,2.84254,0.63212
346.317,41.10768,-1.46421,2.86254,0.6319
346.917,41.16234,-1.48298,2.89355,0.63169
347.517,41.21736,-1.49925,2.93405,0.63147
348.117,41.27244,-1.5171,2.95758,0.63126
348.717,41.32743,-1.53671,2.98853,0.63104
349.317,41.38286,-1.55606,3.01149,0.63082
349.917,41.4381,-1.57465,3.03976,0.63061
350.517,41.49331,-1.59173,3.06421,0.63039
351.117,41.54846,-1.61275,3.10754,0.63017
351.717,41.60366,-1.62847,3.12138,0.62995
352.317,41.65883,-1.65005,3.16378,0.62973
352.917,41.71407,-1.67152,3.20333,0.62951
353.517,41.76921,-1.6887,3.24255,0.62929
354.117,41.82418,-1.70932,3.28264,0.62906
354.717,41.87941,-1.72966,3.31344,0.62884
355.317,41.93477,-1.74918,3.36273,0.62862
355.917,41.9903,-1.76948,3.39137,0.62839
356.517,42.04587,-1.79314,3.44289,0.62817
357.117,42.101,-1.81643,3.4834,0.62794
357.717,42.15633,-1.83648,3.5217,0.62772
358.317,42.2117,-1.85667,3.55453,0.62749
358.917,42.26705,-1.87916,3.60179,0.62726
359.517,42.32233,-1.90177,3.64483,0.62704
360.117,42.37765,-1.9235,3.69986,0.62681
360.717,42.433,-1.9496,3.73155,0.62658
361.317,42.48818,-1.9717,3.78079,0.62635
361.917,42.5437,-1.99547,3.82237,0.62612
362.517,42.59874,-2.01592,3.86742,0.62589
363.117,42.65418,-2.0422,3.90653,0.62566
363.717,42.70975,-2.0691,3.94979,0.62542
364.317,42.76526,-2.09083,3.98939,0.62519
364.917,42.8208,-2.11784,4.03524,0.62496
365.517,42.87628,-2.14358,4.06811,0.62472
366.117,42.93152,-2.16589,4.08512,0.62449
366.717,42.987,-2.19554,4.1221,0.62425
367.317,43.04254,-2.22018,4.14548,0.62402
367.917,43.09809,-2.24641,4.1713,0.62378
368.517,43.15365,-2.27365,4.18257,0.62355
369.117,43.20925,-2.30053,4.19098,0.62331
369.717,43.26482,-2.32628,4.19134,0.62307
370.317,43.32031,-2.35365,4.19806,0.62283
370.917,43.37607,-2.37961,4.18369,0.62259
371.517,43.43158,-2.40664,4.16641,0.62235
372.117,43.48686,-2.43279,4.14187,0.62211
372.717,43.54257,-2.45975,4.10424,0.62187
373.317,43.5983,-2.4838,4.05954,0.62163
373.917,43.65408,-2.51333,4.01528,0.62139
374.517,43.71014,-2.53886,3.93898,0.62115
375.117,43.76571,-2.56277,3.86198,0.62091
375.717,43.82137,-2.58852,3.79666,0.62066
376.317,43.8772,-2.61407,3.7007,0.62042
376.917,43.93277,-2.63618,3.5959,0.62017
377.517,43.98851,-2.66192,3.46955,0.61993
378.117,44.04421,-2.68387,3.34994,0.61968
378.717,44.1,-2.70585,3.20481,0.61944
379.317,44.1557,-2.72602,3.06941,0.61919
379.917,44.21125,-2.74517,2.91768,0.61894
380.517,44.2669,-2.76581,2.7443,0.6187
381.117,44.32255,-2.78411,2.57344,0.61845
381.717,44.37815,-2.80028,2.4078,0.6182
382.317,44.43347,-2.82006,2.23476,0.61795
382.917,44.48888,-2.8386,2.05118,0.6177
383.517,44.54435,-2.84196,1.88828,0.61745
384.117,44.59997,-2.86181,1.71832,0.6172
384.717,44.65578,-2.87365,1.5332,0.61695
385.317,44.71134,-2.88695,1.36977,0.6167
385.917,44.7669,-2.89671,1.21623,0.61644
386.517,44.82242,-2.90532,1.05566,0.61619
387.117,44.878,-2.91412,0.90531,0.61594
387.717,44.93355,-2.92224,0.7773,0.61568
388.317,44.9891,-2.92559,0.64503,0.61543
388.917,45.0445,-2.93238,0.54925,0.61518
389.517,45.10006,-2.93938,0.4366,0.61492
390.117,45.1556,-2.94304,0.35517,0.61466
390.717,45.21116,-2.9465,0.26812,0.61441
391.317,45.2667,-2.95067,0.19287,0.61415
391.917,45.3222,-2.96242,0.14279,0.61389
392.517,45.37754,-2.97025,0.10017,0.61364
393.117,45.43305,-2.95705,0.05251346,0.61338
393.717,45.48865,-2.96602,0.01718324,0.61312
394.317,45.54423,-2.96928,-0.01109412,0.61286
394.917,45.6,-2.96964,-0.03860697,0.6126
395.517,45.65597,-2.97608,-0.04612489,0.61234
396.117,45.7119,-2.97917,-0.06173376,0.61208
396.717,45.7682,-2.98343,-0.08781842,0.61182
397.317,45.824,-2.98385,-0.10596,0.61156
397.917,45.87988,-2.98478,-0.11729,0.6113
398.517,45.93562,-2.98851,-0.13718,0.61103
399.117,45.99118,-2.98754,-0.14256,0.61077
399.717,46.0473,-2.99287,-0.14846,0.61051
400.317,46.1034,-2.9969,-0.1611,0.61024
400.917,46.15983,-2.99958,-0.17514,0.60998
401.517,46.21614,-3.00232,-0.18098,0.60972
402.117,46.2722,-3.00547,-0.18916,0.60945
402.717,46.32842,-3.00489,-0.19929,0.60919
403.317,46.38463,-3.00556,-0.20196,0.60892
403.917,46.44076,-3.01,-0.22453,0.60865
404.517,46.4968,-3.00974,-0.2447,0.60839
405.117,46.55299,-3.01158,-0.25732,0.60812
405.717,46.60913,-3.01568,-0.26624,0.60785
406.317,46.6653,-3.01629,-0.2758,0.60758
406.917,46.72145,-3.01734,-0.28002,0.60732
407.517,46.77765,-3.01923,-0.30827,0.60705
408.117,46.83382,-3.0219,-0.30724,0.60678
408.717,46.88994,-3.02338,-0.31949,0.60651
409.317,46.9458,-3.02624,-0.32147,0.60624
409.917,47.00192,-3.02898,-0.33585,0.60597
410.517,47.05806,-3.0303,-0.34859,0.6057
411.117,47.11436,-3.03071,-0.3356,0.60543
411.717,47.17091,-3.03378,-0.35152,0.60515
412.317,47.2273,-3.03484,-0.35452,0.60488
412.917,47.2838,-3.03724,-0.36778,0.60461
413.517,47.34005,-3.04006,-0.37874,0.60434
414.117,47.39635,-3.04161,-0.38114,0.60406
414.717,47.4527,-3.04381,-0.39731,0.60379
415.317,47.50905,-3.04644,-0.39747,0.60352
415.917,47.5655,-3.04775,-0.40342,0.60324
416.517,47.622,-3.04945,-0.41173,0.60297
417.117,47.6783,-3.04938,-0.42387,0.60269
417.717,47.7347,-3.05208,-0.42065,0.60242
418.317,47.79107,-3.05464,-0.42755,0.60214
418.917,47.84753,-3.0582,-0.44425,0.60186
419.517,47.90398,-3.0617,-0.43816,0.60159
420.117,47.96038,-3.06202,-0.44149,0.60131
420.717,48.01686,-3.062,-0.46026,0.60103
421.317,48.07353,-3.06359,-0.46978,0.60075
421.917,48.13022,-3.06474,-0.49164,0.60048
422.517,48.18692,-3.06643,-0.49648,0.6002
423.117,48.24354,-3.06925,-0.51317,0.59992
423.717,48.30008,-3.07121,-0.5204,0.59964
424.317,48.3568,-3.07216,-0.5334,0.59936
424.917,48.4136,-3.07512,-0.53657,0.59908
425.517,48.47033,-3.07535,-0.54544,0.5988
426.117,48.52725,-3.07958,-0.56018,0.59852
426.717,48.58396,-3.08074,-0.55072,0.59824
427.317,48.6407,-3.0809,-0.55131,0.59796
427.917,48.69723,-3.08377,-0.55418,0.59768
428.517,48.75411,-3.08379,-0.56854,0.59739
429.117,48.81093,-3.08559,-0.57663,0.59711
429.717,48.86785,-3.09138,-0.595,0.59683
430.317,48.92471,-3.0931,-0.58501,0.59655
430.917,48.98148,-3.09511,-0.59551,0.59626
431.517,49.03833,-3.09644,-0.59627,0.59598
432.117,49.09539,-3.09721,-0.60877,0.5957
432.717,49.1524,-3.09963,-0.60132,0.59541
433.317,49.20933,-3.10247,-0.62035,0.59513
433.917,49.26605,-3.10527,-0.61543,0.59484
434.517,49.32284,-3.1061,-0.61485,0.59456
435.117,49.3798,-3.10697,-0.61873,0.59427
435.717,49.43665,-3.10831,-0.622,0.59399
436.317,49.4936,-3.10967,-0.62381,0.5937
436.917,49.55058,-3.11357,-0.62857,0.59341
437.517,49.60755,-3.115,-0.61616,0.59313
438.117,49.66454,-3.11676,-0.62093,0.59284
438.717,49.72141,-3.11893,-0.61984,0.59255
439.317,49.7783,-3.11834,-0.63304,0.59227
439.917,49.83526,-3.12011,-0.62594,0.59198
440.517,49.89236,-3.11892,-0.63119,0.59169
441.117,49.94954,-3.12249,-0.6167,0.5914
441.717,50.00679,-3.12497,-0.63123,0.59111
442.317,50.06408,-3.12635,-0.61313,0.59082
442.917,50.1213,-3.12899,-0.6111,0.59053
443.517,50.1786,-3.12996,-0.60829,0.59024
444.117,50.2359,-3.13061,-0.60801,0.58995
444.717,50.29314,-3.13188,-0.6129,0.58966
445.317,50.35049,-3.13506,-0.60422,0.58937
445.917,50.40787,-3.13771,-0.60606,0.58908
446.517,50.46513,-3.14052,-0.60303,0.58879
447.117,50.52251,-3.14187,-0.60022,0.5885
447.717,50.57983,-3.14219,-0.59931,0.58821
448.317,50.63708,-3.14231,-0.58012,0.58792
448.917,50.6944,-3.14363,-0.57121,0.58763
449.517,50.7518,-3.14501,-0.55828,0.58733
450.117,50.80924,-3.14954,-0.56041,0.58704
450.717,50.8667,-3.15084,-0.55481,0.58675
451.317,50.92413,-3.15118,-0.55132,0.58646
451.917,50.9814,-3.15127,-0.54977,0.58616
452.517,51.03866,-3.15404,-0.5405,0.58587
453.117,51.09584,-3.15402,-0.53344,0.58558
453.717,51.153,-3.15404,-0.52915,0.58528
454.317,51.21025,-3.1572,-0.52687,0.58499
454.917,51.26745,-3.15877,-0.52588,0.58469
455.517,51.32478,-3.16149,-0.50862,0.5844
456.117,51.3822,-3.16146,-0.51363,0.58411
456.717,51.43963,-3.1628,-0.50562,0.58381
457.317,51.4969,-3.16375,-0.49248,0.58351
457.917,51.55423,-3.16449,-0.49116,0.58322
458.517,51.61133,-3.16588,-0.49179,0.58292
459.117,51.66887,-3.16742,-0.47843,0.58263
459.717,51.72622,-3.17005,-0.47788,0.58233
460.317,51.78372,-3.17007,-0.46408,0.58204
460.917,51.8412,-3.17277,-0.46385,0.58174
461.517,51.89844,-3.17407,-0.45587,0.58144
462.117,51.9558,-3.17277,-0.45412,0.58115
462.717,52.01317,-3.17407,-0.45621,0.58085
463.317,52.0706,-3.17708,-0.45076,0.58055
463.917,52.12822,-3.17959,-0.43348,0.58025
464.517,52.18587,-3.181,-0.43453,0.57996
465.117,52.24375,-3.18101,-0.4221,0.57966
465.717,52.30109,-3.18233,-0.40598,0.57936
466.317,52.35873,-3.18364,-0.4178,0.57906
466.917,52.4163,-3.18494,-0.41756,0.57876
467.517,52.4741,-3.18595,-0.40914,0.57846
468.117,52.5324,-3.18768,-0.40834,0.57816
468.717,52.59019,-3.18891,-0.40141,0.57787
469.317,52.64796,-3.18889,-0.40627,0.57757
469.917,52.70559,-3.18868,-0.38735,0.57727
470.517,52.76324,-3.18791,-0.38571,0.57697
471.117,52.8205,-3.18789,-0.39302,0.57667
471.717,52.878,-3.19055,-0.39905,0.57637
472.317,52.93554,-3.19188,-0.39298,0.57607
472.917,52.99326,-3.19579,-0.38777,0.57577
473.517,53.05138,-3.19766,-0.36923,0.57547
474.117,53.1093,-3.19768,-0.38606,0.57517
474.717,53.16725,-3.19521,-0.38155,0.57487
475.317,53.2252,-3.19641,-0.38101,0.57456
475.917,53.28311,-3.19732,-0.38009,0.57426
476.517,53.34078,-3.19915,-0.37133,0.57396
477.117,53.3986,-3.20228,-0.37762,0.57366
477.717,53.45649,-3.20236,-0.36935,0.57336
478.317,53.51435,-3.20318,-0.37264,0.57306
478.917,53.57219,-3.20369,-0.36467,0.57276
479.517,53.63006,-3.20404,-0.36518,0.57245
480.117,53.68809,-3.20589,-0.36882,0.57215
480.717,53.7461,-3.2046,-0.36135,0.57185
481.317,53.80421,-3.20558,-0.36193,0.57155
481.917,53.8623,-3.20723,-0.36267,0.57125
482.517,53.92041,-3.20854,-0.35927,0.57094
483.117,53.97863,-3.20854,-0.35513,0.57064
483.717,54.0367,-3.20986,-0.35822,0.57034
484.317,54.095,-3.20986,-0.35671,0.57003
484.917,54.15294,-3.21109,-0.35794,0.56973
485.517,54.21095,-3.21121,-0.34731,0.56943
486.117,54.26899,-3.21381,-0.35956,0.56912
486.717,54.32702,-3.21381,-0.35913,0.56882
487.317,54.3852,-3.21505,-0.34997,0.56852
487.917,54.4431,-3.21595,-0.36839,0.56821
488.517,54.5012,-3.2253,-0.35946,0.56791
489.117,54.5592,-3.20625,-0.34547,0.56761
489.717,54.61721,-3.21481,-0.35421,0.5673
490.317,54.67524,-3.21771,-0.37099,0.567
490.917,54.7332,-3.22161,-0.36212,0.56669
491.517,54.7911,-3.22178,-0.35955,0.56639
492.117,54.849,-3.22323,-0.36787,0.56608
492.717,54.90701,-3.22516,-0.35836,0.56578
493.317,54.96516,-3.22257,-0.36324,0.56547
493.917,55.0232,-3.21925,-0.3611,0.56517
494.517,55.08121,-3.22179,-0.34298,0.56487
495.117,55.1389,-3.22312,-0.34579,0.56456
495.717,55.1965,-3.22452,-0.33487,0.56426
496.317,55.2544,-3.22664,-0.32941,0.56395
496.917,55.3121,-3.22857,-0.34796,0.56365
497.517,55.3709,-3.22993,-0.34426,0.56334
498.117,55.4293,-3.22861,-0.33639,0.56303
498.717,55.488,-3.22853,-0.32809,0.56273
499.317,55.5463,-3.229,-0.33274,0.56242
499.917,55.6045,-3.23154,-0.33842,0.56212
500.517,55.66255,-3.23398,-0.33279,0.56181
501.117,55.7206,-3.23429,-0.32114,0.56151
501.717,55.7787,-3.23301,-0.32238,0.5612
502.317,55.83712,-3.233,-0.32433,0.5609
502.917,55.8955,-3.2329,-0.3234,0.56059
503.517,55.9542,-3.23469,-0.3188,0.56028
504.117,56.0129,-3.23558,-0.30679,0.55998
504.717,56.07119,-3.23706,-0.31485,0.55967
505.317,56.12961,-3.2361,-0.31236,0.55937
505.917,56.18806,-3.23738,-0.33252,0.55906
506.517,56.24661,-3.238,-0.32422,0.55875
507.117,56.30525,-3.23822,-0.3267,0.55845
507.717,56.3638,-3.24002,-0.32215,0.55814
508.317,56.4221,-3.24101,-0.31876,0.55783
508.917,56.48055,-3.24101,-0.31298,0.55753
509.517,56.53901,-3.241,-0.30398,0.55722
510.117,56.59757,-3.24232,-0.31219,0.55692
510.717,56.65611,-3.24232,-0.31159,0.55661
511.317,56.71468,-3.2434,-0.29989,0.5563
511.917,56.7731,-3.24511,-0.29065,0.556
512.517,56.8316,-3.24506,-0.29602,0.55569
513.117,56.89,-3.24638,-0.28848,0.55538
513.717,56.94837,-3.24437,-0.28273,0.55508
514.317,57.0068,-3.24441,-0.31379,0.55477
514.917,57.06531,-3.24436,-0.29189,0.55446
515.517,57.1238,-3.24707,-0.2933,0.55416
516.117,57.1825,-3.24987,-0.28665,0.55385
516.717,57.24103,-3.24871,-0.28447,0.55354
517.317,57.2997,-3.24846,-0.28399,0.55324
517.917,57.3583,-3.24847,-0.27375,0.55293
518.517,57.417,-3.24847,-0.28642,0.55262
519.117,57.47566,-3.25127,-0.26468,0.55232
519.717,57.53416,-3.2533,-0.27189,0.55201
520.317,57.5926,-3.2551,-0.26287,0.5517
520.917,57.6513,-3.25481,-0.25727,0.5514
521.517,57.71005,-3.25252,-0.26857,0.55109
522.117,57.76876,-3.24996,-0.25215,0.55078
522.717,57.8276,-3.25247,-0.24937,0.55047
523.317,57.88616,-3.254,-0.2462,0.55017
523.917,57.94478,-3.25716,-0.25051,0.54986
524.517,58.00343,-3.2588,-0.24574,0.54955
525.117,58.062,-3.25922,-0.23631,0.54925
525.717,58.12086,-3.25922,-0.23093,0.54894
526.317,58.1798,-3.25923,-0.24043,0.54863
526.917,58.2387,-3.2579,-0.22717,0.54833
527.517,58.2977,-3.25826,-0.23346,0.54802
528.117,58.3566,-3.26121,-0.22115,0.54771
528.717,58.41515,-3.26219,-0.22602,0.54741
529.317,58.4738,-3.26086,-0.23196,0.5471
529.917,58.5324,-3.25949,-0.21665,0.54679
530.517,58.59101,-3.25953,-0.22158,0.54649
531.117,58.64988,-3.26249,-0.21792,0.54618
531.717,58.7088,-3.26349,-0.22425,0.54587
532.317,58.76761,-3.2648,-0.22601,0.54557
532.917,58.82651,-3.2659,-0.24594,0.54526
533.517,58.88514,-3.26732,-0.25053,0.54496
534.117,58.94365,-3.26776,-0.23957,0.54465
534.717,59.00258,-3.26776,-0.24247,0.54434
535.317,59.06139,-3.26776,-0.24258,0.54404
535.917,59.1207,-3.26911,-0.24153,0.54373
536.517,59.1798,-3.26974,-0.24727,0.54342
537.117,59.23875,-3.27106,-0.25248,0.54312
537.717,59.29792,-3.27105,-0.26111,0.54281
538.317,59.3568,-3.27109,-0.25408,0.54251
538.917,59.41574,-3.27106,-0.26955,0.5422
539.517,59.47452,-3.27112,-0.2707,0.54189
540.117,59.5335,-3.27201,-0.27969,0.54159
540.717,59.59244,-3.27303,-0.28615,0.54128
541.317,59.6515,-3.27303,-0.28025,0.54098
541.917,59.71062,-3.27435,-0.28202,0.54067
542.517,59.7693,-3.27435,-0.2792,0.54036
543.117,59.82833,-3.27434,-0.27617,0.54006
543.717,59.88729,-3.27534,-0.27793,0.53975
544.317,59.9468,-3.27534,-0.29532,0.53945
544.917,60.00591,-3.27501,-0.2816,0.53914
545.517,60.06501,-3.27376,-0.28094,0.53884
546.117,60.12415,-3.27459,-0.29428,0.53853
546.717,60.18339,-3.27599,-0.30159,0.53823
547.317,60.2425,-3.27597,-0.30661,0.53792
547.917,60.30165,-3.27771,-0.29582,0.53762
548.517,60.3606,-3.27764,-0.30826,0.53731
549.117,60.4197,-3.27896,-0.30255,0.53701
549.717,60.4787,-3.28027,-0.30951,0.5367
550.317,60.53787,-3.27962,-0.30068,0.5364
550.917,60.5968,-3.27998,-0.29206,0.53609
551.517,60.6559,-3.28115,-0.29144,0.53579
552.117,60.71516,-3.28141,-0.27466,0.53548
552.717,60.77437,-3.2818,-0.27863,0.53518
553.317,60.8337,-3.2818,-0.27368,0.53488
553.917,60.89292,-3.2818,-0.27373,0.53457
554.517,60.95199,-3.28312,-0.28738,0.53427
555.117,61.01105,-3.2831,-0.28248,0.53396
555.717,61.0699,-3.28444,-0.2788,0.53366
556.317,61.1288,-3.28444,-0.29206,0.53336
556.917,61.18812,-3.28525,-0.28677,0.53305
557.517,61.24739,-3.28444,-0.2731,0.53275
558.117,61.30693,-3.28484,-0.28054,0.53245
558.717,61.36629,-3.28758,-0.28408,0.53214
559.317,61.42561,-3.2885,-0.28382,0.53184
559.917,61.48489,-3.28716,-0.2823,0.53154
560.517,61.5442,-3.28723,-0.29241,0.53123
561.117,61.60349,-3.28686,-0.28225,0.53093
561.717,61.66281,-3.28685,-0.2751,0.53063
562.317,61.72221,-3.28682,-0.28265,0.53032
562.917,61.78174,-3.29239,-0.27891,0.53002
563.517,61.84105,-3.29107,-0.2713,0.52972
564.117,61.90036,-3.28582,-0.26082,0.52942
564.717,61.9598,-3.28828,-0.28276,0.52911
565.317,62.01924,-3.29218,-0.28296,0.52881
565.917,62.07872,-3.29232,-0.26207,0.52851
566.517,62.13802,-3.28667,-0.26653,0.52821
567.117,62.19746,-3.30098,-0.27315,0.52791
567.717,62.25701,-3.29705,-0.26609,0.52761
568.317,62.31681,-3.29575,-0.25711,0.5273
568.917,62.37634,-3.29878,-0.27157,0.527
569.517,62.43586,-3.29738,-0.25969,0.5267
570.117,62.4953,-3.28958,-0.25073,0.5264
570.717,62.5548,-3.29618,-0.24782,0.5261
571.317,62.61435,-3.29629,-0.26309,0.5258
571.917,62.67366,-3.29765,-0.25303,0.5255
572.517,62.733,-3.29897,-0.24465,0.5252
573.117,62.7926,-3.29892,-0.2367,0.5249
573.717,62.8523,-3.29892,-0.25223,0.5246
574.317,62.9121,-3.30043,-0.2415,0.5243
574.917,62.97195,-3.30033,-0.24877,0.524
575.517,63.0316,-3.30166,-0.22803,0.5237
576.117,63.09111,-3.30166,-0.21785,0.5234
576.717,63.1508,-3.30166,-0.24003,0.5231
577.317,63.2106,-3.30032,-0.23222,0.5228
577.917,63.27036,-3.30035,-0.23951,0.5225
578.517,63.32991,-3.30166,-0.21768,0.5222
579.117,63.3895,-3.30349,-0.22832,0.5219
579.717,63.4489,-3.30427,-0.21746,0.5216
580.317,63.5084,-3.30319,-0.21643,0.52131
580.917,63.56794,-3.30418,-0.21332,0.52101
581.517,63.62752,-3.30352,-0.21988,0.52071
582.117,63.6871,-3.3035,-0.23257,0.52041
582.717,63.7468,-3.30359,-0.21882,0.52011
583.317,63.80641,-3.30486,-0.21834,0.51982
583.917,63.86597,-3.30747,-0.21358,0.51952
584.517,63.9255,-3.30747,-0.22564,0.51922
585.117,63.985,-3.30643,-0.21265,0.51892
585.717,64.04463,-3.30727,-0.21347,0.51863
586.317,64.1043,-3.30787,-0.21525,0.51833
586.917,64.16404,-3.30923,-0.21605,0.51803
587.517,64.22372,-3.30919,-0.2115,0.51774
588.117,64.28341,-3.31022,-0.19573,0.51744
588.717,64.34315,-3.31022,-0.18883,0.51714
589.317,64.4028,-3.3102,-0.17892,0.51685
589.917,64.46265,-3.31172,-0.1914,0.51655
590.517,64.52255,-3.31058,-0.18948,0.51626
591.117,64.58264,-3.30956,-0.18638,0.51596
591.717,64.64267,-3.31044,-0.17368,0.51567
592.317,64.7028,-3.31111,-0.16117,0.51537
592.917,64.76263,-3.31225,-0.16187,0.51508
593.517,64.82256,-3.30749,-0.15377,0.51478
594.117,64.88245,-3.31711,-0.16476,0.51449
594.717,64.9423,-3.31661,-0.15935,0.51419
595.317,65.00229,-3.31569,-0.16117,0.5139
595.917,65.06221,-3.3157,-0.14741,0.51361
596.517,65.12222,-3.3157,-0.13355,0.51331
597.117,65.1823,-3.31568,-0.11987,0.51302
597.717,65.24243,-3.31539,-0.1258,0.51273
598.317,65.30266,-3.3157,-0.11399,0.51243
598.917,65.3628,-3.31565,-0.10562,0.51214
599.517,65.4228,-3.31701,-0.10614,0.51185
600.117,65.48285,-3.31701,-0.0995917,0.51156
600.717,65.5428,-3.31701,-0.09805322,0.51126
601.317,65.60301,-3.31834,-0.08133811,0.51097
601.917,65.6631,-3.31767,-0.08962662,0.51068
602.517,65.7231,-3.31768,-0.09348179,0.51039
603.117,65.78294,-3.3171,-0.07801587,0.5101
603.717,65.843,-3.31799,-0.0737355,0.50981
604.317,65.9029,-3.31767,-0.07229207,0.50951
604.917,65.96285,-3.31816,-0.06744782,0.50922
605.517,66.02274,-3.31768,-0.07061346,0.50893
606.117,66.0826,-3.31944,-0.0749025,0.50864
606.717,66.14245,-3.31944,-0.07621725,0.50835
607.317,66.20249,-3.32075,-0.08504876,0.50806
607.917,66.26255,-3.31964,-0.07459776,0.50777
608.517,66.32262,-3.32075,-0.07514172,0.50748
609.117,66.38256,-3.32094,-0.07572014,0.50719
609.717,66.44241,-3.32345,-0.07144372,0.50691
610.317,66.50256,-3.32217,-0.07474778,0.50662
610.917,66.5626,-3.32217,-0.0749905,0.50633
611.517,66.62307,-3.32217,-0.06949883,0.50604
612.117,66.6832,-3.32352,-0.07401606,0.50575
612.717,66.74336,-3.32609,-0.0689558,0.50546
613.317,66.80336,-3.32569,-0.07025565,0.50518
613.917,66.86359,-3.32346,-0.06363615,0.50489
614.517,66.92368,-3.32445,-0.06759545,0.5046
615.117,66.98419,-3.32484,-0.05578654,0.50432
615.717,67.04446,-3.3248,-0.04632827,0.50403
616.317,67.10471,-3.32673,-0.06651433,0.50374
616.917,67.16493,-3.33376,-0.05936459,0.50346
617.517,67.22503,-3.32201,-0.06029146,0.50317
618.117,67.28538,-3.32531,-0.06414219,0.50288
618.717,67.34568,-3.32645,-0.0637558,0.5026
619.317,67.40605,-3.32513,-0.05219858,0.50231
619.917,67.46648,-3.32575,-0.04546686,0.50203
620.517,67.52695,-3.3278,-0.04710052,0.50174
621.117,67.5873,-3.32921,-0.04638088,0.50146
621.717,67.64769,-3.32854,-0.0331379,0.50117
622.317,67.708,-3.32856,-0.02708073,0.50089
622.917,67.7683,-3.32788,-0.004844225,0.50061
623.517,67.82882,-3.32776,-0.02294864,0.50032
624.117,67.88919,-3.33008,-0.004543549,0.50004
624.717,67.94975,-3.33007,-0.006086244,0.49976
625.317,68.0103,-3.33139,0.0059165,0.49947
625.917,68.07082,-3.33271,0.004391237,0.49919
626.517,68.13116,-3.33139,0.003078578,0.49891
627.117,68.19128,-3.33008,0.02518551,0.49863
627.717,68.2513,-3.33007,0.01993711,0.49835
628.317,68.3117,-3.33268,0.03909588,0.49806
628.917,68.3721,-3.3327,0.04516426,0.49778
629.517,68.43281,-3.3327,0.03658375,0.4975
630.117,68.49333,-3.33277,0.02437107,0.49722
630.717,68.55378,-3.33138,0.0305595,0.49694
631.317,68.61414,-3.3311,0.03674623,0.49666
631.917,68.67451,-3.33204,0.03042083,0.49638
632.517,68.73487,-3.33766,0.03513782,0.4961
633.117,68.79539,-3.33602,0.05460476,0.49582
633.717,68.8557,-3.33083,0.05705704,0.49554
634.317,68.9162,-3.33459,0.06626477,0.49526
634.917,68.97673,-3.33607,0.07405203,0.49498
635.517,69.03732,-3.33743,0.08418468,0.49471
636.117,69.09801,-3.3373,0.09961653,0.49443
636.717,69.1585,-3.33731,0.09146837,0.49415
637.317,69.21904,-3.33731,0.09172121,0.49387
637.917,69.27941,-3.33731,0.08650159,0.4936
638.517,69.33926,-3.33602,0.09305183,0.49332
639.117,69.39961,-3.33731,0.07731607,0.49304
639.717,69.46,-3.33731,0.0696727,0.49277
640.317,69.52084,-3.33732,0.08348825,0.49249
640.917,69.58151,-3.34006,0.07807716,0.49221
641.517,69.642,-3.33864,0.08925558,0.49194
642.117,69.70238,-3.33872,0.08548523,0.49166
642.717,69.76306,-3.3358,0.09552327,0.49139
643.317,69.8236,-3.33635,0.09226677,0.49111
643.917,69.88439,-3.33945,0.08883191,0.49084
644.517,69.94511,-3.34069,0.08702543,0.49056
645.117,70.00584,-3.34071,0.07688177,0.49029
645.717,70.06666,-3.33954,0.08128744,0.49002
646.317,70.12738,-3.33939,0.07053522,0.48974
646.917,70.18806,-3.33939,0.05065803,0.48947
647.517,70.2487,-3.33994,0.04711658,0.4892
648.117,70.30935,-3.34071,0.04530569,0.48892
648.717,70.36986,-3.34071,0.04847739,0.48865
649.317,70.43027,-3.34071,0.03285757,0.48838
649.917,70.49078,-3.34202,0.0518907,0.48811
650.517,70.55123,-3.34071,0.05690079,0.48784
651.117,70.61187,-3.34051,0.04586671,0.48757
651.717,70.67231,-3.34204,0.01977764,0.48729
652.317,70.7328,-3.34338,0.03407511,0.48702
652.917,70.79337,-3.34201,0.02656038,0.48675
653.517,70.85383,-3.34334,0.02084937,0.48648
654.117,70.9143,-3.34191,0.02807464,0.48621
654.717,70.97475,-3.34192,0.01225062,0.48594
655.317,71.03527,-3.34192,0.00233071,0.48568
655.917,71.09604,-3.34325,-0.01606527,0.48541
656.517,71.1567,-3.34557,-0.00323858,0.48514
657.117,71.2173,-3.34467,-0.03865794,0.48487
657.717,71.27789,-3.34504,-0.05062449,0.4846
658.317,71.3386,-3.3442,-0.03863936,0.48433
658.917,71.39949,-3.34452,-0.02854529,0.48407
659.517,71.46034,-3.34586,-0.04228408,0.4838
660.117,71.52127,-3.34457,-0.02615677,0.48353
660.717,71.58184,-3.34521,-0.01319772,0.48327
661.317,71.64259,-3.34249,-0.003839548,0.483
661.917,71.70323,-3.34367,-0.01230629,0.48274
662.517,71.76391,-3.34508,-0.01054818,0.48247
663.117,71.82478,-3.34504,-0.00357136,0.4822
663.717,71.88585,-3.34503,0.01618978,0.48194
664.317,71.9468,-3.34761,0.01764822,0.48167
664.917,72.00783,-3.3463,0.00658238,0.48141
665.517,72.06867,-3.3463,0.0153652,0.48115
666.117,72.12944,-3.3463,0.02080445,0.48088
666.717,72.19034,-3.3463,0.02533257,0.48062
667.317,72.25101,-3.34634,0.02774243,0.48036
667.917,72.3117,-3.3476,0.04553643,0.48009
668.517,72.3724,-3.34827,0.03831181,0.47983
669.117,72.43309,-3.34755,0.04503554,0.47957
669.717,72.4939,-3.34762,0.03185795,0.47931
670.317,72.5548,-3.34762,0.03556372,0.47905
670.917,72.61546,-3.34635,0.03026,0.47878
671.517,72.67624,-3.34656,0.03014419,0.47852
672.117,72.73703,-3.34894,0.03489628,0.47826
672.717,72.79782,-3.34895,0.0308465,0.478
673.317,72.85855,-3.34762,0.04115471,0.47774
673.917,72.91935,-3.34762,0.0454063,0.47748
674.517,72.98023,-3.34762,0.04502537,0.47722
675.117,73.04114,-3.34762,0.03907657,0.47696
675.717,73.102,-3.3477,0.04202106,0.47671
676.317,73.16277,-3.34905,0.04762691,0.47645
676.917,73.22354,-3.34972,0.05046271,0.47619
677.517,73.28456,-3.34904,0.06038519,0.47593
678.117,73.34555,-3.34904,0.06497136,0.47567
678.717,73.40687,-3.34951,0.05505158,0.47542
679.317,73.46778,-3.35031,0.06670579,0.47516
679.917,73.52877,-3.35167,0.07343917,0.4749
680.517,73.58983,-3.35036,0.09631084,0.47465
681.117,73.65116,-3.34981,0.08694302,0.47439
681.717,73.7127,-3.35048,0.09223525,0.47414
682.317,73.77402,-3.35304,0.10962,0.47388
682.917,73.83506,-3.35299,0.10941,0.47363
683.517,73.89631,-3.35299,0.12924,0.47337
684.117,73.95761,-3.35299,0.12165,0.47312
684.717,74.01886,-3.35168,0.14535,0.47286
685.317,74.08001,-3.35168,0.15982,0.47261
685.917,74.14108,-3.35368,0.16335,0.47236
686.517,74.2023,-3.35266,0.15047,0.4721
687.117,74.26345,-3.35339,0.15323,0.47185
687.717,74.32472,-3.35198,0.1681,0.4716
688.317,74.38603,-3.35243,0.18165,0.47135
688.917,74.4473,-3.35207,0.19208,0.47109
689.517,74.50874,-3.35453,0.19311,0.47084
690.117,74.56996,-3.35453,0.21234,0.47059
690.717,74.63126,-3.35321,0.20886,0.47034
691.317,74.69245,-3.35486,0.20459,0.47009
691.917,74.7538,-3.35958,0.22697,0.46984
692.517,74.81518,-3.34957,0.24835,0.46959
693.117,74.87635,-3.3543,0.23932,0.46934
693.717,74.93774,-3.35376,0.26432,0.46909
694.317,74.9991,-3.35468,0.26766,0.46884
694.917,75.0606,-3.35464,0.25909,0.4686
695.517,75.1221,-3.35333,0.27794,0.46835
696.117,75.18372,-3.35427,0.26245,0.4681
696.717,75.2453,-3.36268,0.23815,0.46785
697.317,75.307,-3.34798,0.25564,0.46761
697.917,75.36845,-3.35328,0.2672,0.46736
698.517,75.42966,-3.35498,0.26467,0.46711
699.117,75.49107,-3.35366,0.2491,0.46687
699.717,75.55245,-3.35554,0.2495,0.46662
700.317,75.61398,-3.3577,0.2561,0.46638
700.917,75.67524,-3.35755,0.24775,0.46613
701.517,75.73634,-3.36588,0.23843,0.46589
702.117,75.79749,-3.34974,0.25148,0.46564
702.717,75.85863,-3.35461,0.26029,0.4654
703.317,75.91969,-3.35475,0.25081,0.46515
703.917,75.9808,-3.35737,0.25262,0.46491
704.517,76.04221,-3.35871,0.24032,0.46467
705.117,76.10359,-3.35871,0.24827,0.46442
705.717,76.1651,-3.36133,0.23243,0.46418
706.317,76.22638,-3.36013,0.23575,0.46394
706.917,76.28781,-3.35848,0.22705,0.4637
707.517,76.3493,-3.35848,0.22005,0.46346
708.117,76.4109,-3.35848,0.21923,0.46321
708.717,76.47225,-3.35978,0.20756,0.46297
709.317,76.53359,-3.36052,0.20593,0.46273
709.917,76.59486,-3.36045,0.19644,0.46249
710.517,76.6562,-3.35774,0.16361,0.46225
711.117,76.71759,-3.35782,0.18301,0.46201
711.717,76.77891,-3.35753,0.16972,0.46177
712.317,76.84028,-3.35848,0.18009,0.46154
712.917,76.90178,-3.35896,0.17284,0.4613
713.517,76.9633,-3.36012,0.16598,0.46106
714.117,77.0248,-3.35871,0.16351,0.46082
714.717,77.08634,-3.35878,0.14073,0.46058
715.317,77.14784,-3.35782,0.15288,0.46035
715.917,77.2094,-3.35913,0.14671,0.46011
716.517,77.27033,-3.35783,0.12932,0.45987
717.117,77.33171,-3.36152,0.13339,0.45964
717.717,77.39315,-3.36026,0.12081,0.4594
718.317,77.45501,-3.36015,0.14496,0.45917
718.917,77.51684,-3.36017,0.16733,0.45893
719.517,77.57852,-3.35881,0.16395,0.4587
720.117,77.64025,-3.36013,0.17476,0.45846
720.717,77.70187,-3.36124,0.19728,0.45823
721.317,77.7636,-3.36143,0.18869,0.458
721.917,77.8254,-3.36012,0.18014,0.45776
722.517,77.88724,-3.35876,0.17488,0.45753
723.117,77.949,-3.36137,0.14226,0.4573
723.717,78.01061,-3.36144,0.14837,0.45706
724.317,78.07251,-3.36144,0.17317,0.45683
724.917,78.13421,-3.36139,0.17789,0.4566
725.517,78.19592,-3.35975,0.1797,0.45637
726.117,78.2577,-3.36012,0.18982,0.45614
726.717,78.31931,-3.36013,0.20164,0.45591
727.317,78.38113,-3.36173,0.18181,0.45568
727.917,78.443,-3.36235,0.18931,0.45545
728.517,78.50475,-3.36166,0.21187,0.45522
729.117,78.56639,-3.36167,0.20973,0.45499
729.717,78.628,-3.36034,0.21538,0.45476
730.317,78.68964,-3.36166,0.23812,0.45453
730.917,78.7513,-3.36166,0.24444,0.4543
731.517,78.813,-3.36234,0.23611,0.45407
732.117,78.87456,-3.36273,0.25037,0.45385
732.717,78.93624,-3.36309,0.26532,0.45362
733.317,78.9979,-3.36178,0.28053,0.45339
733.917,79.0596,-3.3624,0.29465,0.45317
734.517,79.12128,-3.3644,0.30349,0.45294
735.117,79.1828,-3.36299,0.29764,0.45271
735.717,79.2444,-3.36427,0.28571,0.45249
736.317,79.30625,-3.36291,0.29276,0.45226
736.917,79.3681,-3.36178,0.26653,0.45204
737.517,79.42998,-3.36309,0.24824,0.45181
738.117,79.49172,-3.36309,0.24033,0.45159
738.717,79.5535,-3.36309,0.23768,0.45137
739.317,79.61529,-3.36309,0.22173,0.45114
739.917,79.67703,-3.36309,0.20546,0.45092
740.517,79.7388,-3.36472,0.20655,0.4507
741.117,79.80059,-3.36474,0.21644,0.45047
741.717,79.86215,-3.36563,0.21077,0.45025
742.317,79.9239,-3.36477,0.20488,0.45003
742.917,79.98555,-3.36473,0.20735,0.44981
743.017,79.99655,-3.36473,0.20507,0.44977