File: 01_Data/Pine_Siding/STA/N2/10K_min/Pine_Siding_STA_N2_10KData_211406_R2.csv
##Temp./Â°C,Time/min,Mass loss(subtr.2)/mg,DSC(subtr.2)/mW,Sensit./(uV/mW)
49.313,10.01,-0.04026,-0.001233905,0.61831
49.913,11.38593,-0.04419893,0.13502,0.61863
50.513,11.72735,-0.04279719,0.23308,0.61895
51.113,11.97442,-0.04236593,0.30237,0.61926
51.713,12.17505,-0.04377654,0.36065,0.61958
52.313,12.34796,-0.0445218,0.4106,0.61989
52.913,12.50485,-0.04468463,0.45111,0.62021
53.513,12.64918,-0.04376152,0.49307,0.62052
54.113,12.78518,-0.04593396,0.53072,0.62083
54.713,12.914,-0.04664557,0.5774,0.62114
55.313,13.03575,-0.0463384,0.62096,0.62145
55.913,13.1525,-0.04794046,0.65167,0.62175
56.513,13.26513,-0.04797772,0.67817,0.62206
57.113,13.3747,-0.04891892,0.71128,0.62236
57.713,13.4816,-0.04902924,0.72464,0.62267
58.313,13.5853,-0.050296,0.76041,0.62297
58.913,13.6859,-0.04977508,0.78822,0.62327
59.513,13.78544,-0.04903015,0.81274,0.62357
60.113,13.88168,-0.04903397,0.8258,0.62387
60.713,13.9773,-0.05132129,0.85016,0.62416
61.313,14.0735,-0.05036059,0.87106,0.62446
61.913,14.16606,-0.05036305,0.90349,0.62475
62.513,14.2569,-0.05027925,0.92129,0.62504
63.113,14.3467,-0.05172064,0.93764,0.62534
63.713,14.43661,-0.05184145,0.94947,0.62563
64.313,14.5244,-0.05282884,0.97262,0.62592
64.913,14.6112,-0.05442154,0.98399,0.6262
65.513,14.6957,-0.05284989,1.01634,0.62649
66.113,14.77963,-0.05275926,1.0225,0.62678
66.713,14.86305,-0.05277653,1.0379,0.62706
67.313,14.94728,-0.05541811,1.06706,0.62734
67.913,15.0293,-0.05537829,1.09285,0.62762
68.513,15.11026,-0.0540798,1.12288,0.62791
69.113,15.19012,-0.05737662,1.12587,0.62818
69.713,15.26915,-0.0567021,1.14234,0.62846
70.313,15.34741,-0.05671,1.15694,0.62874
70.913,15.4249,-0.05665442,1.17343,0.62901
71.513,15.50196,-0.05767625,1.19959,0.62929
72.113,15.57862,-0.05935296,1.21063,0.62956
72.713,15.65461,-0.05801649,1.21617,0.62983
73.313,15.73005,-0.05934007,1.23261,0.6301
73.913,15.80524,-0.05938597,1.23818,0.63037
74.513,15.87938,-0.06066575,1.25314,0.63064
75.113,15.9528,-0.06073067,1.27464,0.63091
75.713,16.02582,-0.06064988,1.28854,0.63117
76.313,16.09845,-0.06263019,1.30231,0.63144
76.913,16.1705,-0.0613136,1.31642,0.6317
77.513,16.24202,-0.06131984,1.32329,0.63196
78.113,16.31317,-0.06062657,1.33758,0.63222
78.713,16.38414,-0.06198006,1.34877,0.63248
79.313,16.45436,-0.06334161,1.35966,0.63274
79.913,16.52453,-0.06466057,1.36501,0.63299
80.513,16.5939,-0.06319453,1.37773,0.63325
81.113,16.66283,-0.06471245,1.37646,0.6335
81.713,16.73149,-0.06723869,1.39342,0.63375
82.313,16.7999,-0.06723433,1.39229,0.63401
82.913,16.86789,-0.06729781,1.40425,0.63426
83.513,16.93546,-0.06852696,1.40654,0.6345
84.113,17.00285,-0.06854785,1.39643,0.63475
84.713,17.06991,-0.06987018,1.41655,0.635
85.313,17.13649,-0.06854965,1.4243,0.63524
85.913,17.2028,-0.06857124,1.42308,0.63549
86.513,17.26884,-0.06930681,1.43109,0.63573
87.113,17.33481,-0.06880117,1.42675,0.63597
87.713,17.40016,-0.06987,1.42224,0.63621
88.313,17.4653,-0.07090415,1.43002,0.63645
88.913,17.5302,-0.07117901,1.42468,0.63669
89.513,17.59478,-0.07262686,1.43553,0.63692
90.113,17.6591,-0.07261072,1.42382,0.63716
90.713,17.72315,-0.07324691,1.43113,0.63739
91.313,17.787,-0.07525459,1.43228,0.63762
91.913,17.85065,-0.07562787,1.44147,0.63785
92.513,17.91412,-0.07655986,1.43505,0.63808
93.113,17.9768,-0.07656,1.43581,0.63831
93.713,18.0394,-0.07656,1.42462,0.63854
94.313,18.10207,-0.0765599,1.42303,0.63877
94.913,18.16465,-0.076773,1.43648,0.63899
95.513,18.2271,-0.07651032,1.43038,0.63921
96.113,18.2894,-0.07786241,1.41026,0.63944
96.713,18.35115,-0.07919015,1.41561,0.63966
97.313,18.41235,-0.07918338,1.4051,0.63988
97.913,18.4737,-0.07955431,1.39259,0.6401
98.513,18.53485,-0.08051925,1.39652,0.64031
99.113,18.59655,-0.07912316,1.38921,0.64053
99.713,18.6578,-0.08034182,1.38248,0.64074
100.313,18.71852,-0.07929428,1.37582,0.64096
100.913,18.77927,-0.07918723,1.37654,0.64117
101.513,18.83983,-0.0818299,1.36328,0.64138
102.113,18.90031,-0.08050982,1.34619,0.64159
102.713,18.9605,-0.08051006,1.34449,0.6418
103.313,19.02055,-0.08183547,1.35356,0.642
103.913,19.08059,-0.08182001,1.34114,0.64221
104.513,19.14053,-0.08181984,1.32882,0.64241
105.113,19.20041,-0.08051096,1.3167,0.64262
105.713,19.26015,-0.0818308,1.33048,0.64282
106.313,19.31975,-0.08183,1.31695,0.64302
106.913,19.3793,-0.08310399,1.31087,0.64322
107.513,19.43856,-0.08314996,1.31111,0.64342
108.113,19.49784,-0.08315315,1.3166,0.64362
108.713,19.5572,-0.08183734,1.30936,0.64381
109.313,19.61659,-0.08312259,1.30454,0.64401
109.913,19.6758,-0.08316577,1.29993,0.6442
110.513,19.73471,-0.08248003,1.31564,0.64439
111.113,19.79334,-0.0836635,1.32386,0.64458
111.713,19.85201,-0.08261857,1.29821,0.64477
112.313,19.91057,-0.08314605,1.31062,0.64496
112.913,19.96929,-0.08445643,1.31871,0.64515
113.513,20.0276,-0.08575206,1.30945,0.64533
114.113,20.08558,-0.08577119,1.31898,0.64552
114.713,20.14341,-0.08486323,1.31382,0.6457
115.313,20.20138,-0.08346828,1.30965,0.64588
115.913,20.25992,-0.08479009,1.30607,0.64606
116.513,20.3187,-0.08479,1.31919,0.64624
117.113,20.37745,-0.08479,1.31654,0.64642
117.713,20.43601,-0.08478814,1.30746,0.64659
118.313,20.49406,-0.08338757,1.29968,0.64677
118.913,20.55155,-0.08479046,1.30897,0.64694
119.513,20.60947,-0.08609767,1.30382,0.64712
120.113,20.66739,-0.08721316,1.30772,0.64729
120.713,20.72531,-0.08746861,1.31153,0.64746
121.313,20.7831,-0.08596017,1.30946,0.64763
121.913,20.84059,-0.08477972,1.31918,0.6478
122.513,20.89796,-0.08348046,1.31612,0.64796
123.113,20.9554,-0.08335899,1.31202,0.64813
123.713,21.0126,-0.08306771,1.328,0.64829
124.313,21.06985,-0.08380002,1.33411,0.64846
124.913,21.12699,-0.08379952,1.32773,0.64862
125.513,21.18429,-0.08503301,1.34037,0.64878
126.113,21.24158,-0.08511999,1.34686,0.64894
126.713,21.29845,-0.08512108,1.34119,0.64909
127.313,21.35538,-0.08643811,1.34433,0.64925
127.913,21.41196,-0.08775563,1.35167,0.64941
128.513,21.46856,-0.08775,1.36267,0.64956
129.113,21.52512,-0.08775,1.35987,0.64971
129.713,21.58148,-0.08775,1.36591,0.64987
130.313,21.63821,-0.08775,1.35941,0.65002
130.913,21.69462,-0.08775232,1.3724,0.65017
131.513,21.75121,-0.08742984,1.36586,0.65031
132.113,21.80731,-0.08610977,1.3576,0.65046
132.713,21.8636,-0.08742219,1.36268,0.65061
133.313,21.91978,-0.08873022,1.37648,0.65075
133.913,21.97595,-0.08777186,1.36526,0.65089
134.513,22.03209,-0.0879535,1.37277,0.65103
135.113,22.088,-0.08821309,1.38793,0.65117
135.713,22.14394,-0.08873966,1.38681,0.65131
136.313,22.19973,-0.09006425,1.37368,0.65145
136.913,22.25528,-0.08956597,1.38459,0.65159
137.513,22.3109,-0.0887355,1.38151,0.65172
138.113,22.3664,-0.08742134,1.3883,0.65186
138.713,22.42199,-0.08742073,1.38667,0.65199
139.313,22.47762,-0.08674768,1.39345,0.65212
139.913,22.53312,-0.08675999,1.39496,0.65225
140.513,22.58871,-0.0867597,1.40336,0.65238
141.113,22.64411,-0.08798828,1.40467,0.65251
141.713,22.6993,-0.08940584,1.41328,0.65264
142.313,22.7544,-0.08839334,1.407,0.65276
142.913,22.80939,-0.09071004,1.4114,0.65289
143.513,22.86453,-0.09071,1.41892,0.65301
144.113,22.9197,-0.09071008,1.41712,0.65313
144.713,22.97476,-0.08942115,1.41705,0.65325
145.313,23.0297,-0.08929,1.42123,0.65337
145.913,23.08454,-0.09028334,1.43498,0.65349
146.513,23.13936,-0.08928024,1.44139,0.65361
147.113,23.1941,-0.08967842,1.43904,0.65372
147.713,23.2488,-0.08923951,1.452,0.65384
148.313,23.30367,-0.08929065,1.45628,0.65395
148.913,23.3583,-0.09053582,1.45449,0.65406
149.513,23.4131,-0.09085271,1.4776,0.65417
150.113,23.4676,-0.09191994,1.47207,0.65428
150.713,23.5222,-0.0919209,1.48219,0.65439
151.313,23.5764,-0.09296086,1.486,0.6545
151.913,23.63046,-0.09159004,1.48859,0.6546
152.513,23.6847,-0.09283697,1.49642,0.65471
153.113,23.73886,-0.09290993,1.48844,0.65481
153.713,23.79351,-0.09261188,1.49009,0.65491
154.313,23.84797,-0.09158997,1.48609,0.65501
154.913,23.90256,-0.09020734,1.48535,0.65511
155.513,23.95729,-0.09033356,1.49851,0.65521
156.113,24.01211,-0.09159309,1.49378,0.65531
156.713,24.06701,-0.09158997,1.50409,0.65541
157.313,24.12165,-0.09155985,1.49592,0.6555
157.913,24.1761,-0.09150247,1.50154,0.65559
158.513,24.2304,-0.0926052,1.50458,0.65569
159.113,24.28487,-0.09334802,1.50627,0.65578
159.713,24.33931,-0.09420123,1.50839,0.65587
160.313,24.39377,-0.09554182,1.51871,0.65596
160.913,24.44803,-0.09420009,1.52033,0.65604
161.513,24.50224,-0.09508606,1.5127,0.65613
162.113,24.55651,-0.09565023,1.51049,0.65622
162.713,24.61063,-0.09565,1.52416,0.6563
163.313,24.6648,-0.09565342,1.53497,0.65638
163.913,24.7191,-0.09432338,1.53467,0.65646
164.513,24.7732,-0.09302489,1.53929,0.65654
165.113,24.82751,-0.09430628,1.5489,0.65662
165.713,24.8815,-0.09564874,1.54273,0.6567
166.313,24.9356,-0.09565,1.54303,0.65678
166.913,24.98979,-0.09565,1.55172,0.65685
167.513,25.04407,-0.09567061,1.55465,0.65693
168.113,25.09845,-0.09695472,1.55141,0.657
168.713,25.15253,-0.09828178,1.55643,0.65707
169.313,25.20636,-0.09695299,1.56402,0.65714
169.913,25.26002,-0.09563993,1.56951,0.65721
170.513,25.3136,-0.09435525,1.57222,0.65728
171.113,25.36757,-0.09424393,1.58153,0.65735
171.713,25.4219,-0.09676501,1.60502,0.65741
172.313,25.47639,-0.09707434,1.60007,0.65748
172.913,25.53044,-0.09828021,1.60459,0.65754
173.513,25.58448,-0.09722989,1.60868,0.6576
174.113,25.6386,-0.09729002,1.60903,0.65766
174.713,25.69221,-0.09729002,1.62358,0.65772
175.313,25.7465,-0.09838443,1.62293,0.65778
175.913,25.80057,-0.09798512,1.63556,0.65784
176.513,25.85449,-0.09925987,1.63032,0.6579
177.113,25.90865,-0.09926,1.65092,0.65795
177.713,25.9625,-0.09926187,1.65506,0.65801
178.313,26.01652,-0.09786467,1.66064,0.65806
178.913,26.07054,-0.09937963,1.67999,0.65811
179.513,26.12439,-0.09943469,1.673,0.65816
180.113,26.17826,-0.0993532,1.67205,0.65821
180.713,26.23194,-0.10081,1.68514,0.65826
181.313,26.28577,-0.1008,1.69495,0.6583
181.913,26.3397,-0.1008,1.69316,0.65835
182.513,26.39353,-0.10145,1.70205,0.65839
183.113,26.4473,-0.10186,1.69577,0.65844
183.713,26.50102,-0.1019,1.7088,0.65848
184.313,26.55438,-0.10322,1.7297,0.65852
184.913,26.6079,-0.10314,1.72496,0.65856
185.513,26.6615,-0.10585,1.72983,0.6586
186.113,26.71497,-0.10448,1.73649,0.65864
186.713,26.76867,-0.1032,1.7363,0.65867
187.313,26.82225,-0.10322,1.74725,0.65871
187.913,26.8757,-0.10422,1.7535,0.65874
188.513,26.9292,-0.10353,1.76261,0.65877
189.113,26.9828,-0.10223,1.77621,0.65881
189.713,27.03637,-0.10323,1.77615,0.65884
190.313,27.08987,-0.10354,1.77864,0.65887
190.913,27.1434,-0.10356,1.78608,0.65889
191.513,27.197,-0.10369,1.79456,0.65892
192.113,27.25048,-0.10486,1.79264,0.65895
192.713,27.30394,-0.10608,1.8089,0.65897
193.313,27.3573,-0.10618,1.80513,0.65899
193.913,27.41061,-0.10524,1.81285,0.65902
194.513,27.46397,-0.10628,1.82023,0.65904
195.113,27.5174,-0.10672,1.8398,0.65906
195.713,27.571,-0.1076,1.83131,0.65908
196.313,27.6246,-0.1076,1.81919,0.6591
196.913,27.67785,-0.1076,1.83405,0.65911
197.513,27.7314,-0.1076,1.83545,0.65913
198.113,27.7845,-0.1076,1.83957,0.65914
198.713,27.8377,-0.10894,1.85434,0.65915
199.313,27.89116,-0.109,1.86118,0.65917
199.913,27.94446,-0.11023,1.86672,0.65918
200.513,27.99795,-0.11155,1.8805,0.65919
201.113,28.0509,-0.11287,1.88429,0.6592
201.713,28.1042,-0.11287,1.88388,0.6592
202.313,28.15751,-0.11382,1.8926,0.65921
202.913,28.2108,-0.11385,1.90586,0.65921
203.513,28.26468,-0.11518,1.90961,0.65922
204.113,28.3182,-0.11517,1.91786,0.65922
204.713,28.37165,-0.1151,1.91588,0.65922
205.313,28.42507,-0.11254,1.9286,0.65922
205.913,28.47847,-0.11394,1.93044,0.65922
206.513,28.5317,-0.11659,1.93868,0.65922
207.113,28.58492,-0.11659,1.9326,0.65922
207.713,28.6383,-0.11659,1.94878,0.65922
208.313,28.6915,-0.11665,1.95021,0.65921
208.913,28.74489,-0.11791,1.94246,0.6592
209.513,28.79829,-0.11911,1.95533,0.6592
210.113,28.8517,-0.11923,1.95798,0.65919
210.713,28.9053,-0.11928,1.95736,0.65918
211.313,28.9587,-0.12155,1.96175,0.65917
211.913,29.01223,-0.12186,1.97104,0.65916
212.513,29.0656,-0.12186,1.97279,0.65915
213.113,29.11885,-0.12186,1.98009,0.65913
213.713,29.1722,-0.12315,1.9878,0.65912
214.313,29.2255,-0.12258,1.99426,0.6591
214.913,29.27882,-0.12186,1.99026,0.65908
215.513,29.3323,-0.12271,1.99447,0.65906
216.113,29.38565,-0.12318,1.99513,0.65905
216.713,29.439,-0.12344,1.978,0.65902
217.313,29.4924,-0.12451,2.00414,0.659
217.913,29.54563,-0.12705,1.99219,0.65898
218.513,29.59902,-0.12844,1.9983,0.65896
219.113,29.65247,-0.1291,1.99825,0.65893
219.713,29.70598,-0.12943,2.00607,0.65891
220.313,29.7595,-0.13013,2.00103,0.65888
220.913,29.81298,-0.12972,2.00969,0.65885
221.513,29.8663,-0.13047,1.9939,0.65882
222.113,29.9196,-0.13186,2.00713,0.65879
222.713,29.9729,-0.13315,2.00076,0.65876
223.313,30.02628,-0.13317,2.01595,0.65873
223.913,30.0798,-0.13448,2.00967,0.65869
224.513,30.1332,-0.1372,2.02047,0.65866
225.113,30.1868,-0.13776,2.00795,0.65862
225.713,30.24022,-0.13842,2.0248,0.65859
226.313,30.29358,-0.13974,2.02668,0.65855
226.913,30.34705,-0.14043,2.03015,0.65851
227.513,30.4004,-0.14239,2.02499,0.65847
228.113,30.45382,-0.14244,2.02877,0.65843
228.713,30.50688,-0.14336,2.04255,0.65839
229.313,30.5604,-0.14204,2.03743,0.65834
229.913,30.61355,-0.14399,2.04045,0.6583
230.513,30.6671,-0.1341,2.04414,0.65825
231.113,30.7208,-0.15044,2.0554,0.65821
231.713,30.7741,-0.15505,2.05678,0.65816
232.313,30.82777,-0.15015,2.06718,0.65811
232.913,30.8812,-0.15037,2.06682,0.65806
233.513,30.9347,-0.15033,2.06621,0.65801
234.113,30.98831,-0.15229,2.06907,0.65796
234.713,31.0418,-0.15369,2.06334,0.65791
235.313,31.0953,-0.15625,2.0663,0.65785
235.913,31.14872,-0.15872,2.07135,0.6578
236.513,31.2022,-0.16092,2.08668,0.65774
237.113,31.2556,-0.16858,2.08446,0.65769
237.713,31.30917,-0.15817,2.09182,0.65763
238.313,31.36277,-0.15968,2.08795,0.65757
238.913,31.4161,-0.16172,2.09233,0.65751
239.513,31.4698,-0.16387,2.10972,0.65745
240.113,31.5234,-0.16558,2.08557,0.65739
240.713,31.5769,-0.16804,2.09324,0.65732
241.313,31.6304,-0.16935,2.09645,0.65726
241.913,31.6838,-0.1714,2.10646,0.65719
242.513,31.7371,-0.17418,2.1076,0.65713
243.113,31.79052,-0.1764,2.11131,0.65706
243.713,31.8441,-0.1792,2.11645,0.65699
244.313,31.8977,-0.18148,2.11479,0.65692
244.913,31.95143,-0.18217,2.12534,0.65685
245.513,32.00497,-0.18352,2.12305,0.65678
246.113,32.05843,-0.18351,2.12716,0.65671
246.713,32.11172,-0.18506,2.12732,0.65663
247.313,32.1652,-0.18848,2.13421,0.65656
247.913,32.21869,-0.19161,2.12662,0.65648
248.513,32.2723,-0.1941,2.14024,0.65641
249.113,32.32586,-0.20233,2.12589,0.65633
249.713,32.37923,-0.18656,2.13657,0.65625
250.313,32.43274,-0.19608,2.13349,0.65617
250.913,32.48611,-0.20168,2.14455,0.65609
251.513,32.53953,-0.204,2.13045,0.65601
252.113,32.59308,-0.20469,2.1331,0.65593
252.713,32.6466,-0.20648,2.13097,0.65584
253.313,32.70025,-0.20809,2.13136,0.65576
253.913,32.75393,-0.21161,2.12864,0.65567
254.513,32.80741,-0.21457,2.13854,0.65559
255.113,32.86094,-0.21756,2.15053,0.6555
255.713,32.91451,-0.22057,2.13811,0.65541
256.313,32.96785,-0.22237,2.14546,0.65532
256.913,33.02154,-0.22321,2.15431,0.65523
257.513,33.0752,-0.22614,2.1446,0.65514
258.113,33.12869,-0.22971,2.14226,0.65505
258.713,33.1825,-0.23252,2.14044,0.65496
259.313,33.2361,-0.23562,2.14338,0.65486
259.913,33.28969,-0.23777,2.14733,0.65477
260.513,33.34339,-0.23711,2.15645,0.65467
261.113,33.39699,-0.24058,2.14923,0.65457
261.713,33.45058,-0.24598,2.15886,0.65447
262.313,33.50423,-0.24858,2.15658,0.65437
262.913,33.5578,-0.25108,2.14601,0.65427
263.513,33.61117,-0.25318,2.17299,0.65417
264.113,33.66476,-0.25475,2.15696,0.65407
264.713,33.71816,-0.25771,2.16431,0.65397
265.313,33.77175,-0.26102,2.15809,0.65386
265.913,33.82548,-0.26449,2.17155,0.65376
266.513,33.87903,-0.26828,2.17659,0.65365
267.113,33.93284,-0.27152,2.1714,0.65355
267.713,33.98658,-0.27451,2.17415,0.65344
268.313,34.0404,-0.27488,2.17894,0.65333
268.913,34.09434,-0.27838,2.17109,0.65322
269.513,34.1479,-0.27143,2.15817,0.65311
270.113,34.20159,-0.29795,2.18366,0.653
270.713,34.25519,-0.29321,2.19196,0.65289
271.313,34.3087,-0.29187,2.1909,0.65277
271.913,34.36255,-0.29395,2.18801,0.65266
272.513,34.41633,-0.29916,2.19528,0.65254
273.113,34.46995,-0.30339,2.19731,0.65243
273.713,34.52382,-0.30258,2.1998,0.65231
274.313,34.5777,-0.31194,2.21437,0.65219
274.913,34.6316,-0.31958,2.20827,0.65207
275.513,34.68542,-0.31931,2.21865,0.65195
276.113,34.7391,-0.32351,2.20405,0.65183
276.713,34.79282,-0.3279,2.21645,0.65171
277.313,34.84656,-0.33067,2.21786,0.65159
277.913,34.9007,-0.33437,2.23068,0.65146
278.513,34.9547,-0.33739,2.23726,0.65134
279.113,35.0086,-0.34021,2.22673,0.65121
279.713,35.06239,-0.34685,2.23632,0.65109
280.313,35.11608,-0.35165,2.2424,0.65096
280.913,35.16987,-0.35735,2.24605,0.65083
281.513,35.22378,-0.36128,2.24204,0.6507
282.113,35.2774,-0.36701,2.26107,0.65057
282.713,35.33124,-0.36985,2.26809,0.65044
283.313,35.38512,-0.37469,2.26565,0.65031
283.913,35.43909,-0.38118,2.2666,0.65018
284.513,35.49325,-0.38625,2.28293,0.65004
285.113,35.5473,-0.39017,2.28982,0.64991
285.713,35.60138,-0.39706,2.28371,0.64977
286.313,35.65534,-0.40374,2.28143,0.64964
286.913,35.70936,-0.39847,2.28522,0.6495
287.513,35.76321,-0.42499,2.30212,0.64936
288.113,35.817,-0.42252,2.30777,0.64922
288.713,35.87082,-0.42654,2.30171,0.64908
289.313,35.9246,-0.43172,2.31019,0.64894
289.913,35.97854,-0.43776,2.31986,0.6488
290.513,36.0326,-0.44142,2.3236,0.64866
291.113,36.08667,-0.44972,2.34138,0.64851
291.713,36.1405,-0.45733,2.33656,0.64837
292.313,36.1943,-0.46208,2.35232,0.64823
292.913,36.24823,-0.47045,2.35393,0.64808
293.513,36.30226,-0.47669,2.3618,0.64793
294.113,36.35652,-0.48167,2.35703,0.64778
294.713,36.41062,-0.48989,2.37482,0.64764
295.313,36.46465,-0.49999,2.3766,0.64749
295.913,36.51878,-0.50619,2.38977,0.64734
296.513,36.57292,-0.51303,2.39133,0.64719
297.113,36.62709,-0.52134,2.41103,0.64703
297.713,36.68127,-0.5274,2.41474,0.64688
298.313,36.73526,-0.53593,2.42165,0.64673
298.913,36.7896,-0.54484,2.43524,0.64657
299.513,36.84408,-0.55308,2.44828,0.64642
300.113,36.8985,-0.56131,2.45196,0.64626
300.713,36.95301,-0.56919,2.46978,0.64611
301.313,37.0073,-0.57759,2.47797,0.64595
301.913,37.0614,-0.58614,2.49025,0.64579
302.513,37.11574,-0.59559,2.50361,0.64563
303.113,37.1698,-0.60466,2.51522,0.64547
303.713,37.22402,-0.61403,2.52516,0.64531
304.313,37.27844,-0.62338,2.54144,0.64515
304.913,37.33271,-0.63348,2.54024,0.64498
305.513,37.38722,-0.64176,2.54952,0.64482
306.113,37.4415,-0.65314,2.56905,0.64466
306.713,37.49581,-0.66314,2.58809,0.64449
307.313,37.55016,-0.67228,2.60501,0.64432
307.913,37.6045,-0.68166,2.6306,0.64416
308.513,37.65891,-0.69366,2.63898,0.64399
309.113,37.71321,-0.70519,2.65411,0.64382
309.713,37.76746,-0.71579,2.67168,0.64365
310.313,37.82196,-0.7283,2.68191,0.64348
310.913,37.87635,-0.74015,2.69532,0.64331
311.513,37.93092,-0.75226,2.71823,0.64314
312.113,37.98542,-0.76357,2.74264,0.64297
312.713,38.03988,-0.77524,2.75477,0.64279
313.313,38.09425,-0.78508,2.77607,0.64262
313.913,38.14861,-0.79911,2.78408,0.64245
314.513,38.20288,-0.81286,2.81068,0.64227
315.113,38.25734,-0.82418,2.8356,0.64209
315.713,38.31197,-0.83562,2.83371,0.64192
316.313,38.36667,-0.85065,2.86208,0.64174
316.913,38.4214,-0.86074,2.87458,0.64156
317.513,38.47599,-0.87581,2.89635,0.64138
318.113,38.5305,-0.88891,2.90607,0.6412
318.713,38.585,-0.9039,2.91859,0.64102
319.313,38.6394,-0.91794,2.93812,0.64084
319.913,38.69373,-0.93214,2.95986,0.64066
320.513,38.74811,-0.94507,2.97636,0.64047
321.113,38.80263,-0.9592,2.99621,0.64029
321.713,38.85716,-0.975,3.01068,0.6401
322.313,38.91163,-0.98932,3.03009,0.63992
322.913,38.96611,-1.00449,3.06116,0.63973
323.513,39.0206,-1.02153,3.07143,0.63954
324.113,39.075,-1.03345,3.08038,0.63936
324.713,39.12975,-1.05036,3.10083,0.63917
325.313,39.18439,-1.06646,3.12112,0.63898
325.913,39.2389,-1.08197,3.13582,0.63879
326.513,39.29357,-1.09701,3.15187,0.6386
327.113,39.348,-1.11551,3.17281,0.63841
327.713,39.40246,-1.13006,3.19381,0.63821
328.313,39.457,-1.14509,3.19934,0.63802
328.913,39.51167,-1.16263,3.21846,0.63783
329.513,39.56622,-1.17849,3.22505,0.63763
330.113,39.62093,-1.19439,3.2436,0.63744
330.713,39.67572,-1.21329,3.26718,0.63724
331.313,39.73046,-1.2273,3.27328,0.63705
331.913,39.78503,-1.24652,3.27782,0.63685
332.513,39.83967,-1.26534,3.30738,0.63665
333.113,39.89433,-1.28242,3.31594,0.63645
333.713,39.94914,-1.29942,3.33511,0.63625
334.313,40.00417,-1.31875,3.35058,0.63605
334.913,40.059,-1.33612,3.35629,0.63585
335.513,40.11397,-1.35248,3.36702,0.63565
336.113,40.16891,-1.37172,3.38292,0.63545
336.713,40.22379,-1.38999,3.40296,0.63524
337.313,40.27885,-1.40712,3.4079,0.63504
337.913,40.3339,-1.42491,3.40677,0.63484
338.513,40.38881,-1.44447,3.43006,0.63463
339.113,40.44368,-1.45053,3.43859,0.63443
339.713,40.4987,-1.48847,3.46999,0.63422
340.313,40.55358,-1.50423,3.47422,0.63401
340.913,40.60855,-1.52076,3.50594,0.6338
341.513,40.66365,-1.54075,3.51395,0.6336
342.113,40.71861,-1.55996,3.53216,0.63339
342.713,40.77369,-1.57822,3.53244,0.63318
343.313,40.8287,-1.58398,3.5565,0.63297
343.913,40.88358,-1.62993,3.57139,0.63276
344.513,40.93851,-1.63935,3.58605,0.63254
345.113,40.9934,-1.65785,3.60816,0.63233
345.713,41.04834,-1.67861,3.61535,0.63212
346.313,41.10341,-1.69649,3.6427,0.6319
346.913,41.15824,-1.7184,3.66096,0.63169
347.513,41.21324,-1.73931,3.68635,0.63147
348.113,41.26761,-1.7603,3.71308,0.63126
348.713,41.32286,-1.78232,3.74212,0.63104
349.313,41.37807,-1.80117,3.75527,0.63082
349.913,41.43332,-1.82139,3.7934,0.63061
350.513,41.48884,-1.84605,3.82153,0.63039
351.113,41.54387,-1.86654,3.8568,0.63017
351.713,41.5987,-1.88893,3.8857,0.62995
352.313,41.65376,-1.91016,3.92954,0.62973
352.913,41.7089,-1.9327,3.96464,0.62951
353.513,41.7641,-1.95434,4.00236,0.62929
354.113,41.8194,-1.97939,4.0347,0.62906
354.713,41.8746,-2.00435,4.08875,0.62884
355.313,41.92965,-2.02773,4.12996,0.62862
355.913,41.98464,-2.04957,4.16935,0.62839
356.513,42.03965,-2.07352,4.21529,0.62817
357.113,42.09463,-2.09772,4.25754,0.62794
357.713,42.15014,-2.12096,4.31242,0.62772
358.313,42.20563,-2.14856,4.37137,0.62749
358.913,42.26124,-2.17423,4.41019,0.62726
359.513,42.3168,-2.20066,4.46153,0.62704
360.113,42.3722,-2.23032,4.51688,0.62681
360.713,42.42773,-2.25395,4.5656,0.62658
361.313,42.48323,-2.27968,4.62373,0.62635
361.913,42.53881,-2.30947,4.66991,0.62612
362.513,42.59431,-2.33779,4.70721,0.62589
363.113,42.64972,-2.36578,4.77605,0.62566
363.713,42.7053,-2.39246,4.81267,0.62543
364.313,42.76073,-2.42186,4.84443,0.62519
364.913,42.81623,-2.44884,4.89216,0.62496
365.513,42.87185,-2.47856,4.92979,0.62473
366.113,42.9273,-2.51167,4.96821,0.62449
366.713,42.98256,-2.54026,5.01226,0.62426
367.313,43.0381,-2.57203,5.02379,0.62402
367.913,43.09363,-2.6045,5.05118,0.62378
368.513,43.14922,-2.63298,5.05475,0.62355
369.113,43.205,-2.66278,5.07066,0.62331
369.713,43.26058,-2.69504,5.07278,0.62307
370.313,43.316,-2.72459,5.07035,0.62283
370.913,43.37151,-2.75597,5.05594,0.6226
371.513,43.4271,-2.78592,5.04248,0.62236
372.113,43.4827,-2.81723,5.00708,0.62212
372.713,43.53849,-2.8465,4.9591,0.62188
373.313,43.59398,-2.87609,4.91339,0.62163
373.913,43.6494,-2.91043,4.84424,0.62139
374.513,43.705,-2.93704,4.77987,0.62115
375.113,43.76068,-2.96798,4.68573,0.62091
375.713,43.81643,-2.99811,4.58307,0.62066
376.313,43.8722,-3.02579,4.48173,0.62042
376.913,43.92795,-3.0534,4.35602,0.62018
377.513,43.98365,-3.08001,4.22833,0.61993
378.113,44.0394,-3.10459,4.07948,0.61969
378.713,44.09506,-3.13151,3.92316,0.61944
379.313,44.15059,-3.15622,3.75761,0.61919
379.913,44.2062,-3.17971,3.57554,0.61895
380.513,44.26182,-3.1997,3.39671,0.6187
381.113,44.31746,-3.2202,3.21142,0.61845
381.713,44.37311,-3.2417,3.0293,0.6182
382.313,44.42881,-3.25956,2.83229,0.61795
382.913,44.48442,-3.27714,2.63596,0.6177
383.513,44.54,-3.29387,2.44031,0.61745
384.113,44.59552,-3.30931,2.25498,0.6172
384.713,44.65103,-3.32195,2.06636,0.61695
385.313,44.70644,-3.33266,1.88477,0.6167
385.913,44.76209,-3.34716,1.71102,0.61645
386.513,44.81774,-3.3575,1.53576,0.61619
387.113,44.87355,-3.36703,1.38376,0.61594
387.713,44.9292,-3.37534,1.24291,0.61569
388.313,44.98485,-3.38443,1.09638,0.61543
388.913,45.04057,-3.3888,0.98105,0.61518
389.513,45.09625,-3.3954,0.85611,0.61492
390.113,45.15202,-3.40517,0.76499,0.61467
390.713,45.20752,-3.41078,0.67556,0.61441
391.313,45.26307,-3.41399,0.60379,0.61415
391.913,45.31878,-3.41715,0.54276,0.6139
392.513,45.37444,-3.42263,0.49732,0.61364
393.113,45.4303,-3.42474,0.44376,0.61338
393.713,45.48599,-3.42851,0.4006,0.61312
394.313,45.54172,-3.43327,0.38261,0.61286
394.913,45.5974,-3.43613,0.35053,0.6126
395.513,45.6531,-3.4389,0.32012,0.61234
396.113,45.70897,-3.4436,0.3064,0.61208
396.713,45.76494,-3.44618,0.29384,0.61182
397.313,45.82083,-3.44717,0.26084,0.61156
397.913,45.8768,-3.44922,0.25809,0.6113
398.513,45.93267,-3.45405,0.24726,0.61104
399.113,45.98865,-3.45588,0.23596,0.61077
399.713,46.04466,-3.4582,0.20626,0.61051
400.313,46.10058,-3.46182,0.20629,0.61025
400.913,46.1565,-3.46364,0.19685,0.60998
401.513,46.2123,-3.46658,0.18083,0.60972
402.113,46.2684,-3.46998,0.17974,0.60945
402.713,46.32456,-3.47147,0.16469,0.60919
403.313,46.38065,-3.4736,0.14908,0.60892
403.913,46.43694,-3.47707,0.14216,0.60866
404.513,46.493,-3.4787,0.14135,0.60839
405.113,46.5492,-3.47928,0.13168,0.60812
405.713,46.60553,-3.48347,0.12576,0.60785
406.313,46.66174,-3.48545,0.12031,0.60759
406.913,46.71784,-3.48803,0.11177,0.60732
407.513,46.774,-3.48975,0.09180991,0.60705
408.113,46.82978,-3.49272,0.07552683,0.60678
408.713,46.8853,-3.49324,0.0643298,0.60651
409.313,46.94161,-3.49696,0.05215684,0.60624
409.913,46.9979,-3.50082,0.04545778,0.60597
410.513,47.0548,-3.50263,0.03479107,0.6057
411.113,47.1117,-3.5047,0.01801591,0.60543
411.713,47.16817,-3.50734,0.02060045,0.60516
412.313,47.22437,-3.50864,-0.0001229936,0.60488
412.913,47.28073,-3.51316,-0.007108525,0.60461
413.513,47.3372,-3.515,-0.005606292,0.60434
414.113,47.39369,-3.51657,-0.02517888,0.60407
414.713,47.4504,-3.5192,-0.01898712,0.60379
415.313,47.5071,-3.52048,-0.02933348,0.60352
415.913,47.56357,-3.52173,-0.04325242,0.60324
416.513,47.6201,-3.52531,-0.04555363,0.60297
417.113,47.67642,-3.52609,-0.0627128,0.60269
417.713,47.73276,-3.52906,-0.05801258,0.60242
418.313,47.78937,-3.53069,-0.06057019,0.60214
418.913,47.84597,-3.53204,-0.08009502,0.60187
419.513,47.9028,-3.53576,-0.09821992,0.60159
420.113,47.9596,-3.54077,-0.11292,0.60131
420.713,48.01639,-3.54357,-0.10849,0.60103
421.313,48.0731,-3.54397,-0.11504,0.60076
421.913,48.12965,-3.54689,-0.13557,0.60048
422.513,48.18616,-3.5482,-0.13699,0.6002
423.113,48.2425,-3.54824,-0.15578,0.59992
423.713,48.29891,-3.55095,-0.16576,0.59964
424.313,48.3553,-3.55347,-0.1721,0.59936
424.913,48.4118,-3.55586,-0.19225,0.59908
425.513,48.46846,-3.55908,-0.20382,0.5988
426.113,48.52465,-3.56098,-0.19854,0.59852
426.713,48.5811,-3.56287,-0.21576,0.59824
427.313,48.63787,-3.56538,-0.22081,0.59796
427.913,48.69448,-3.56925,-0.22339,0.59768
428.513,48.75175,-3.57179,-0.23359,0.5974
429.113,48.80834,-3.57295,-0.23024,0.59711
429.713,48.86504,-3.57289,-0.23535,0.59683
430.313,48.92175,-3.57441,-0.23216,0.59655
430.913,48.9784,-3.5777,-0.23409,0.59627
431.513,49.0351,-3.58038,-0.23832,0.59598
432.113,49.09185,-3.5831,-0.24405,0.5957
432.713,49.14862,-3.58445,-0.24691,0.59541
433.313,49.20539,-3.58606,-0.25293,0.59513
433.913,49.26242,-3.5884,-0.24874,0.59484
434.513,49.31927,-3.59103,-0.24533,0.59456
435.113,49.3762,-3.59622,-0.25451,0.59427
435.713,49.43309,-3.59607,-0.26279,0.59399
436.313,49.49007,-3.59826,-0.27374,0.5937
436.913,49.5468,-3.59979,-0.25827,0.59342
437.513,49.60383,-3.6006,-0.25534,0.59313
438.113,49.661,-3.6045,-0.2635,0.59284
438.713,49.71812,-3.60681,-0.25389,0.59255
439.313,49.77539,-3.60776,-0.25539,0.59227
439.913,49.8324,-3.61161,-0.24533,0.59198
440.513,49.8893,-3.61426,-0.24909,0.59169
441.113,49.9463,-3.61527,-0.25165,0.5914
441.713,50.00346,-3.6169,-0.24307,0.59111
442.313,50.0606,-3.61836,-0.24322,0.59083
442.913,50.11777,-3.62155,-0.23256,0.59054
443.513,50.175,-3.62455,-0.22207,0.59025
444.113,50.23209,-3.62588,-0.22524,0.58996
444.713,50.28938,-3.6274,-0.21091,0.58967
445.313,50.34656,-3.63078,-0.2108,0.58938
445.913,50.40396,-3.62973,-0.20519,0.58909
446.513,50.46132,-3.63227,-0.21151,0.58879
447.113,50.5186,-3.6338,-0.18924,0.5885
447.713,50.576,-3.63522,-0.18326,0.58821
448.313,50.63326,-3.63822,-0.19,0.58792
448.913,50.6905,-3.64146,-0.17915,0.58763
449.513,50.74787,-3.64194,-0.19306,0.58734
450.113,50.8052,-3.64315,-0.17455,0.58704
450.713,50.86272,-3.64465,-0.16621,0.58675
451.313,50.92008,-3.64597,-0.16252,0.58646
451.913,50.97761,-3.64927,-0.16078,0.58617
452.513,51.0349,-3.64971,-0.14513,0.58587
453.113,51.09211,-3.6511,-0.13726,0.58558
453.713,51.14951,-3.65372,-0.12781,0.58528
454.313,51.20694,-3.6549,-0.11799,0.58499
454.913,51.26433,-3.65518,-0.10669,0.5847
455.513,51.32176,-3.65946,-0.11148,0.5844
456.113,51.37911,-3.66222,-0.10122,0.58411
456.713,51.43649,-3.66091,-0.09434457,0.58381
457.313,51.49385,-3.66325,-0.09159472,0.58352
457.913,51.55135,-3.66503,-0.09417139,0.58322
458.513,51.60885,-3.66505,-0.07407107,0.58293
459.113,51.6663,-3.6682,-0.07832471,0.58263
459.713,51.72382,-3.67124,-0.08461879,0.58233
460.313,51.7811,-3.67005,-0.07106314,0.58204
460.913,51.83863,-3.67156,-0.06004064,0.58174
461.513,51.89627,-3.6742,-0.05645474,0.58144
462.113,51.95388,-3.67694,-0.04628637,0.58115
462.713,52.01157,-3.67723,-0.0402438,0.58085
463.313,52.069,-3.67757,-0.05231903,0.58055
463.913,52.12657,-3.67887,-0.0296075,0.58026
464.513,52.18412,-3.68118,-0.03073396,0.57996
465.113,52.24179,-3.68164,-0.01972493,0.57966
465.713,52.2996,-3.68282,-0.007937961,0.57936
466.313,52.35727,-3.68414,-0.01739998,0.57906
466.913,52.41482,-3.6858,-0.01395035,0.57876
467.513,52.47257,-3.68971,-0.008288096,0.57847
468.113,52.53037,-3.69103,0.00688498,0.57817
468.713,52.58831,-3.69008,0.002505875,0.57787
469.313,52.64635,-3.69266,0.007533707,0.57757
469.913,52.70411,-3.69301,0.02028352,0.57727
470.513,52.76184,-3.69187,0.02088508,0.57697
471.113,52.81952,-3.69332,0.03316134,0.57667
471.713,52.8773,-3.69479,0.03908171,0.57637
472.313,52.93515,-3.6962,0.03089504,0.57607
472.913,52.9931,-3.69753,0.03435535,0.57577
473.513,53.0513,-3.69938,0.04197784,0.57547
474.113,53.1092,-3.70169,0.03750517,0.57517
474.713,53.167,-3.70298,0.03746247,0.57487
475.313,53.225,-3.70607,0.04836903,0.57457
475.913,53.28278,-3.70855,0.06575636,0.57427
476.513,53.3406,-3.70739,0.06779837,0.57396
477.113,53.3985,-3.70607,0.06742919,0.57366
477.713,53.4558,-3.70771,0.07903977,0.57336
478.313,53.5135,-3.70863,0.08364376,0.57306
478.913,53.5709,-3.71001,0.0797761,0.57276
479.513,53.62885,-3.71279,0.07893467,0.57246
480.113,53.68665,-3.71418,0.09028752,0.57215
480.713,53.74446,-3.71559,0.06696553,0.57185
481.313,53.8025,-3.71559,0.08394597,0.57155
481.913,53.8605,-3.71684,0.08443391,0.57125
482.513,53.9186,-3.71682,0.09443038,0.57094
483.113,53.9766,-3.71822,0.08562488,0.57064
483.713,54.0346,-3.72,0.08595362,0.57034
484.313,54.09251,-3.71989,0.08216776,0.57004
484.913,54.15068,-3.72121,0.07921029,0.56973
485.513,54.2087,-3.72243,0.09084315,0.56943
486.113,54.26685,-3.72252,0.08965444,0.56913
486.713,54.32505,-3.72252,0.08266828,0.56882
487.313,54.38315,-3.72406,0.08740378,0.56852
487.913,54.44135,-3.72504,0.09102453,0.56822
488.513,54.49952,-3.72528,0.07218014,0.56791
489.113,54.5578,-3.72746,0.07018559,0.56761
489.713,54.61594,-3.72913,0.0794482,0.5673
490.313,54.67411,-3.7284,0.08158946,0.567
490.913,54.7323,-3.7305,0.06953904,0.56669
491.513,54.79035,-3.73207,0.07942741,0.56639
492.113,54.8484,-3.73207,0.09193278,0.56609
492.713,54.9065,-3.73275,0.07842819,0.56578
493.313,54.96451,-3.73275,0.09485007,0.56548
493.913,55.02275,-3.73565,0.0912886,0.56517
494.513,55.0809,-3.73828,0.0984785,0.56487
495.113,55.13915,-3.73826,0.10676,0.56456
495.713,55.1973,-3.73757,0.10804,0.56426
496.313,55.2556,-3.73841,0.09612787,0.56395
496.913,55.3138,-3.73854,0.08370833,0.56365
497.513,55.372,-3.74021,0.0887378,0.56334
498.113,55.4304,-3.74248,0.08511466,0.56304
498.713,55.4886,-3.74383,0.09670525,0.56273
499.313,55.54671,-3.7438,0.09655993,0.56243
499.913,55.6051,-3.7438,0.10238,0.56212
500.513,55.6632,-3.74553,0.10956,0.56181
501.113,55.7217,-3.74535,0.10342,0.56151
501.713,55.7802,-3.74546,0.09370712,0.5612
502.313,55.83849,-3.74679,0.08998706,0.5609
502.913,55.89669,-3.748,0.09953035,0.56059
503.513,55.9549,-3.7494,0.09936881,0.56029
504.113,56.013,-3.75034,0.08745277,0.55998
504.713,56.07122,-3.7454,0.09646624,0.55967
505.313,56.12944,-3.75748,0.09547186,0.55937
505.913,56.18776,-3.75163,0.09613706,0.55906
506.513,56.2462,-3.75364,0.09393394,0.55876
507.113,56.30454,-3.75522,0.09720623,0.55845
507.713,56.36295,-3.75521,0.10721,0.55814
508.313,56.4212,-3.75658,0.10745,0.55784
508.913,56.47955,-3.75591,0.10667,0.55753
509.513,56.5379,-3.75522,0.10744,0.55722
510.113,56.59633,-3.75517,0.10477,0.55692
510.713,56.65458,-3.75834,0.113,0.55661
511.313,56.71311,-3.75969,0.10331,0.5563
511.913,56.77149,-3.762,0.10089,0.556
512.513,56.8298,-3.76355,0.10159,0.55569
513.113,56.8884,-3.7616,0.10225,0.55538
513.713,56.94686,-3.75911,0.10651,0.55508
514.313,57.00558,-3.76043,0.10422,0.55477
514.913,57.06426,-3.76194,0.11486,0.55446
515.513,57.12276,-3.75433,0.11463,0.55416
516.113,57.18155,-3.77057,0.1189,0.55385
516.713,57.23995,-3.76652,0.11718,0.55354
517.313,57.2988,-3.76597,0.11943,0.55324
517.913,57.35745,-3.76742,0.1105,0.55293
518.513,57.4161,-3.7686,0.11605,0.55262
519.113,57.47481,-3.77108,0.12793,0.55232
519.713,57.5334,-3.77062,0.13098,0.55201
520.313,57.59195,-3.76814,0.13845,0.5517
520.913,57.65064,-3.76827,0.13645,0.5514
521.513,57.7092,-3.76958,0.13146,0.55109
522.113,57.7679,-3.7718,0.12195,0.55078
522.713,57.8265,-3.77232,0.12539,0.55048
523.313,57.8849,-3.77232,0.13039,0.55017
523.913,57.94347,-3.77363,0.13406,0.54986
524.513,58.0019,-3.77494,0.11546,0.54956
525.113,58.0605,-3.77495,0.13492,0.54925
525.713,58.1193,-3.77495,0.14692,0.54894
526.313,58.1779,-3.77627,0.13515,0.54864
526.913,58.23666,-3.77627,0.14928,0.54833
527.513,58.29532,-3.77622,0.14303,0.54802
528.113,58.35408,-3.77762,0.13702,0.54772
528.713,58.4128,-3.77781,0.13587,0.54741
529.313,58.4715,-3.77919,0.13523,0.5471
529.913,58.5303,-3.78013,0.14637,0.5468
530.513,58.58891,-3.78171,0.13868,0.54649
531.113,58.6476,-3.77931,0.14449,0.54618
531.713,58.70618,-3.78044,0.14731,0.54588
532.313,58.76511,-3.78178,0.13866,0.54557
532.913,58.824,-3.7845,0.15884,0.54526
533.513,58.88319,-3.78444,0.15371,0.54496
534.113,58.9421,-3.78572,0.13922,0.54465
534.713,59.00104,-3.78449,0.14115,0.54434
535.313,59.0599,-3.78472,0.14307,0.54404
535.913,59.1188,-3.78603,0.14416,0.54373
536.513,59.17776,-3.78734,0.1293,0.54343
537.113,59.2367,-3.786,0.12887,0.54312
537.713,59.2956,-3.78745,0.13027,0.54281
538.313,59.3547,-3.78662,0.13182,0.54251
538.913,59.4136,-3.78743,0.13217,0.5422
539.513,59.4726,-3.79084,0.12637,0.5419
540.113,59.53154,-3.79196,0.13243,0.54159
540.713,59.59036,-3.79328,0.12804,0.54128
541.313,59.6494,-3.79279,0.12562,0.54098
541.913,59.708,-3.79185,0.1254,0.54067
542.513,59.7673,-3.79184,0.12191,0.54037
543.113,59.8266,-3.79261,0.10711,0.54006
543.713,59.8858,-3.79437,0.11318,0.53976
544.313,59.94537,-3.79435,0.12049,0.53945
544.913,60.00434,-3.79599,0.12532,0.53914
545.513,60.06351,-3.79559,0.12533,0.53884
546.113,60.1227,-3.79292,0.11867,0.53853
546.713,60.18175,-3.79449,0.11605,0.53823
547.313,60.24097,-3.80311,0.09231221,0.53792
547.913,60.3002,-3.80007,0.07386806,0.53762
548.513,60.35951,-3.8014,0.07109052,0.53731
549.113,60.41879,-3.79841,0.04775621,0.53701
549.713,60.47814,-3.79732,0.0435193,0.5367
550.313,60.53735,-3.79864,0.03871329,0.5364
550.913,60.59646,-3.79997,0.02959821,0.5361
551.513,60.65579,-3.80129,0.01734106,0.53579
552.113,60.71505,-3.80128,0.007848864,0.53549
552.713,60.7741,-3.80229,0.001554181,0.53518
553.313,60.83339,-3.8023,-0.01284282,0.53488
553.913,60.8922,-3.80358,-0.02559186,0.53457
554.513,60.9514,-3.80355,-0.03258187,0.53427
555.113,61.0107,-3.8049,-0.03559579,0.53397
555.713,61.0701,-3.8049,-0.04566778,0.53366
556.313,61.12975,-3.80358,-0.05433138,0.53336
556.913,61.1892,-3.8049,-0.06312758,0.53305
557.513,61.24873,-3.80586,-0.06729948,0.53275
558.113,61.3083,-3.80774,-0.06109633,0.53245
558.713,61.36778,-3.80873,-0.09235822,0.53214
559.313,61.42728,-3.80745,-0.08355064,0.53184
559.913,61.4869,-3.80739,-0.0892035,0.53154
560.513,61.54639,-3.80745,-0.08506574,0.53123
561.113,61.606,-3.80865,-0.08301699,0.53093
561.713,61.6652,-3.81005,-0.08650152,0.53063
562.313,61.7247,-3.80908,-0.08286555,0.53033
562.913,61.7842,-3.81043,-0.0760829,0.53002
563.513,61.8439,-3.81037,-0.06598209,0.52972
564.113,61.9035,-3.81185,-0.08699541,0.52942
564.713,61.96314,-3.81324,-0.10269,0.52912
565.313,62.02259,-3.81061,-0.11361,0.52881
565.913,62.08194,-3.8119,-0.10999,0.52851
566.513,62.1414,-3.81325,-0.09559093,0.52821
567.113,62.20084,-3.81323,-0.10876,0.52791
567.713,62.26028,-3.81456,-0.10845,0.52761
568.313,62.31978,-3.81587,-0.09840484,0.52731
568.913,62.3789,-3.81587,-0.08836237,0.527
569.513,62.4382,-3.81586,-0.07731502,0.5267
570.113,62.4978,-3.81849,-0.06483805,0.5264
570.713,62.55746,-3.81718,-0.05846092,0.5261
571.313,62.6175,-3.81719,-0.04190619,0.5258
571.913,62.67714,-3.81718,-0.02886416,0.5255
572.513,62.7367,-3.81733,-0.02896385,0.5252
573.113,62.79629,-3.81949,-0.02686381,0.5249
573.713,62.8557,-3.81939,-0.01644239,0.5246
574.313,62.9153,-3.82081,-0.008432727,0.5243
574.913,62.97523,-3.82072,-0.02190459,0.524
575.513,63.03496,-3.82212,-0.01126492,0.5237
576.113,63.09488,-3.82086,-0.009536962,0.5234
576.713,63.15445,-3.82211,-0.00513877,0.5231
577.313,63.2139,-3.82081,-0.009732569,0.5228
577.913,63.27335,-3.82081,-0.009163051,0.5225
578.513,63.3331,-3.82212,-0.01334679,0.5222
579.113,63.3926,-3.82212,-0.00568216,0.5219
579.713,63.45241,-3.82362,-0.002098906,0.52161
580.313,63.5122,-3.82388,-0.01582862,0.52131
580.913,63.5717,-3.82268,0.005011361,0.52101
581.513,63.63134,-3.82532,-0.00523982,0.52071
582.113,63.69084,-3.82659,-0.01318312,0.52041
582.713,63.75065,-3.82772,-0.00282012,0.52012
583.313,63.8105,-3.82773,-0.002965319,0.51982
583.913,63.8704,-3.82541,0.00720983,0.51952
584.513,63.93017,-3.82575,-0.00153055,0.51922
585.113,63.98992,-3.82673,-0.00294273,0.51893
585.713,64.04965,-3.82804,-0.004234794,0.51863
586.313,64.10955,-3.82672,-0.009884966,0.51833
586.913,64.16942,-3.82932,-0.01210844,0.51804
587.513,64.22941,-3.83064,0.001608273,0.51774
588.113,64.2894,-3.83197,0.001720103,0.51744
588.713,64.349,-3.83199,0.00458695,0.51715
589.313,64.40871,-3.83199,0.00605875,0.51685
589.913,64.46863,-3.83342,0.01035565,0.51656
590.513,64.52856,-3.83428,0.004046603,0.51626
591.113,64.58847,-3.83342,0.004151445,0.51596
591.713,64.64839,-3.83241,0.00664071,0.51567
592.313,64.7082,-3.83505,0.00571431,0.51537
592.913,64.76812,-3.8365,0.007964463,0.51508
593.513,64.82796,-3.83663,0.01713771,0.51478
594.113,64.88773,-3.83672,0.02471266,0.51449
594.713,64.94781,-3.83671,0.0161224,0.5142
595.313,65.00775,-3.83542,0.02371926,0.5139
595.913,65.06752,-3.83671,0.03413105,0.51361
596.513,65.12755,-3.83807,0.02658308,0.51331
597.113,65.1874,-3.83673,0.0268283,0.51302
597.713,65.2475,-3.83737,0.03061175,0.51273
598.313,65.3074,-3.83945,0.03668458,0.51244
598.913,65.36705,-3.84077,0.02136134,0.51214
599.513,65.42698,-3.84207,0.0181166,0.51185
600.113,65.487,-3.84091,0.04972305,0.51156
600.713,65.54732,-3.84074,0.03026867,0.51126
601.313,65.6075,-3.84072,0.02259054,0.51097
601.913,65.66753,-3.84208,0.03472459,0.51068
602.513,65.72759,-3.84208,0.03120562,0.51039
603.113,65.78786,-3.84208,0.02919659,0.5101
603.713,65.84791,-3.84208,0.03500386,0.50981
604.313,65.9079,-3.84352,0.0358802,0.50952
604.913,65.96781,-3.84516,0.02357643,0.50923
605.513,66.0278,-3.84465,0.01629608,0.50893
606.113,66.08825,-3.84482,0.02300578,0.50864
606.713,66.1484,-3.84481,0.04268507,0.50835
607.313,66.20873,-3.84351,0.03859999,0.50806
607.913,66.26894,-3.84483,0.03520199,0.50778
608.513,66.3292,-3.84482,0.05208021,0.50749
609.113,66.3893,-3.84747,0.03750434,0.5072
609.713,66.44946,-3.84746,0.04054801,0.50691
610.313,66.50954,-3.84614,0.04172461,0.50662
610.913,66.5698,-3.84746,0.05729679,0.50633
611.513,66.63028,-3.84877,0.0648105,0.50604
612.113,66.6905,-3.84877,0.06203399,0.50575
612.713,66.7508,-3.84744,0.06047452,0.50547
613.313,66.811,-3.84888,0.07447489,0.50518
613.913,66.87124,-3.85086,0.07743246,0.50489
614.513,66.9315,-3.85146,0.09405462,0.5046
615.113,66.9917,-3.85159,0.09533302,0.50432
615.713,67.05174,-3.85123,0.10072,0.50403
616.313,67.11187,-3.85001,0.11493,0.50374
616.913,67.17209,-3.85252,0.09775949,0.50346
617.513,67.23219,-3.85363,0.0981823,0.50317
618.113,67.29224,-3.8538,0.10281,0.50289
618.713,67.3522,-3.85382,0.089953,0.5026
619.313,67.41241,-3.85513,0.09131092,0.50232
619.913,67.4726,-3.85644,0.106,0.50203
620.513,67.53309,-3.8539,0.11466,0.50175
621.113,67.5932,-3.85419,0.10987,0.50146
621.713,67.65341,-3.85491,0.10207,0.50118
622.313,67.71334,-3.85637,0.10073,0.50089
622.913,67.77388,-3.85766,0.1057,0.50061
623.513,67.83428,-3.85766,0.0943089,0.50033
624.113,67.89487,-3.85712,0.09221319,0.50004
624.713,67.95546,-3.85536,0.0895714,0.49976
625.313,68.01586,-3.85795,0.09083093,0.49948
625.913,68.07635,-3.85664,0.09343472,0.49919
626.513,68.13693,-3.85799,0.09729209,0.49891
627.113,68.1974,-3.85818,0.08819161,0.49863
627.713,68.25791,-3.85915,0.07517306,0.49835
628.313,68.3185,-3.85931,0.09361036,0.49807
628.913,68.37902,-3.85707,0.10359,0.49778
629.513,68.43978,-3.85809,0.10566,0.4975
630.113,68.50018,-3.85942,0.11219,0.49722
630.713,68.5608,-3.86086,0.10782,0.49694
631.313,68.62119,-3.86348,0.10003,0.49666
631.913,68.68164,-3.86212,0.08257561,0.49638
632.513,68.742,-3.86216,0.08295368,0.4961
633.113,68.80229,-3.86216,0.06833024,0.49582
633.713,68.86248,-3.86331,0.05706859,0.49554
634.313,68.9225,-3.86347,0.06028053,0.49527
634.913,68.983,-3.86273,0.06103709,0.49499
635.513,69.04342,-3.86345,0.07032552,0.49471
636.113,69.1042,-3.86343,0.08204089,0.49443
636.713,69.1644,-3.86215,0.10194,0.49415
637.313,69.2249,-3.86501,0.10512,0.49387
637.913,69.2855,-3.86497,0.10548,0.4936
638.513,69.34643,-3.86493,0.09513952,0.49332
639.113,69.40709,-3.86369,0.11979,0.49304
639.713,69.46777,-3.86503,0.10904,0.49277
640.313,69.52844,-3.86632,0.10731,0.49249
640.913,69.58906,-3.86504,0.08851372,0.49221
641.513,69.64976,-3.86633,0.09462858,0.49194
642.113,69.71043,-3.86769,0.11591,0.49166
642.713,69.7712,-3.86863,0.1024,0.49139
643.313,69.83199,-3.86811,0.10854,0.49111
643.913,69.89279,-3.86623,0.10629,0.49084
644.513,69.9537,-3.86776,0.08881722,0.49057
645.113,70.0144,-3.86918,0.11079,0.49029
645.713,70.07508,-3.86918,0.07309572,0.49002
646.313,70.13554,-3.86918,0.07599414,0.48974
646.913,70.1962,-3.86918,0.0907532,0.48947
647.513,70.25714,-3.8678,0.07309105,0.4892
648.113,70.3183,-3.87084,0.08732492,0.48893
648.713,70.37926,-3.87213,0.07782661,0.48865
649.313,70.4401,-3.87236,0.08589256,0.48838
649.913,70.5009,-3.87236,0.07196759,0.48811
650.513,70.56178,-3.87037,0.06833672,0.48784
651.113,70.62268,-3.86983,0.06151842,0.48757
651.713,70.68332,-3.86986,0.06993607,0.4873
652.313,70.74407,-3.87217,0.05981153,0.48703
652.913,70.8049,-3.87389,0.07673733,0.48676
653.513,70.8656,-3.87247,0.07958342,0.48649
654.113,70.92648,-3.87379,0.08467934,0.48622
654.713,70.98727,-3.87389,0.08178784,0.48595
655.313,71.0482,-3.87389,0.08784652,0.48568
655.913,71.1091,-3.87387,0.06485496,0.48541
656.513,71.17005,-3.87247,0.07389282,0.48514
657.113,71.2306,-3.87378,0.06597088,0.48487
657.713,71.2912,-3.8729,0.07431188,0.4846
658.313,71.3517,-3.87312,0.0490831,0.48434
658.913,71.4123,-3.87312,0.06597476,0.48407
659.513,71.47287,-3.87309,0.05611148,0.4838
660.113,71.53349,-3.87474,0.07182111,0.48354
660.713,71.59442,-3.87576,0.06213521,0.48327
661.313,71.6554,-3.87525,0.0534045,0.483
661.913,71.71636,-3.87444,0.07436767,0.48274
662.513,71.77713,-3.87444,0.08349506,0.48247
663.113,71.83797,-3.87444,0.09431216,0.48221
663.713,71.89867,-3.87444,0.08034335,0.48194
664.313,71.95953,-3.87575,0.11104,0.48168
664.913,72.02032,-3.87808,0.08876604,0.48141
665.513,72.08114,-3.88202,0.07027878,0.48115
666.113,72.14199,-3.88306,0.08290304,0.48088
666.713,72.20273,-3.86683,0.0875897,0.48062
667.313,72.26356,-3.87541,0.08908002,0.48036
667.913,72.3245,-3.87544,0.07611603,0.4801
668.513,72.38546,-3.87766,0.08027787,0.47983
669.113,72.44641,-3.87559,0.07631661,0.47957
669.713,72.50734,-3.87656,0.08940199,0.47931
670.313,72.56831,-3.87889,0.08997155,0.47905
670.913,72.6293,-3.87938,0.10392,0.47879
671.513,72.69024,-3.87806,0.10677,0.47853
672.113,72.75123,-3.87938,0.09932412,0.47826
672.713,72.81234,-3.87862,0.09805577,0.478
673.313,72.8733,-3.8795,0.0880607,0.47774
673.913,72.93424,-3.87816,0.1118,0.47748
674.513,72.99507,-3.87806,0.11851,0.47723
675.113,73.05601,-3.87938,0.13385,0.47697
675.713,73.11711,-3.87833,0.13238,0.47671
676.313,73.1782,-3.87997,0.14564,0.47645
676.913,73.2389,-3.87994,0.15219,0.47619
677.513,73.2993,-3.88125,0.1634,0.47593
678.113,73.36009,-3.88125,0.16198,0.47568
678.713,73.42165,-3.87986,0.18053,0.47542
679.313,73.48323,-3.87841,0.17694,0.47516
679.913,73.54504,-3.88404,0.14627,0.47491
680.513,73.60594,-3.88177,0.18863,0.47465
681.113,73.66691,-3.87435,0.19906,0.47439
681.713,73.72806,-3.87906,0.21469,0.47414
682.313,73.7892,-3.88036,0.20928,0.47388
682.913,73.85059,-3.88036,0.2238,0.47363
683.513,73.9117,-3.88135,0.2373,0.47337
684.113,73.9731,-3.88171,0.25771,0.47312
684.713,74.03434,-3.88166,0.26345,0.47286
685.313,74.09561,-3.88069,0.25414,0.47261
685.913,74.15689,-3.88207,0.25258,0.47236
686.513,74.2182,-3.88282,0.26938,0.47211
687.113,74.2798,-3.88332,0.28625,0.47185
687.713,74.3412,-3.88205,0.3155,0.4716
688.313,74.4024,-3.88447,0.31889,0.47135
688.913,74.46376,-3.8846,0.33997,0.4711
689.513,74.52506,-3.88356,0.30564,0.47085
690.113,74.58638,-3.88333,0.3269,0.47059
690.713,74.6477,-3.88332,0.32551,0.47034
691.313,74.709,-3.88596,0.30638,0.47009
691.913,74.77046,-3.88364,0.30555,0.46984
692.513,74.8317,-3.88445,0.2957,0.46959
693.113,74.89288,-3.88746,0.28951,0.46934
693.713,74.95416,-3.8863,0.31341,0.46909
694.313,75.01544,-3.88761,0.30453,0.46885
694.913,75.07682,-3.88626,0.29581,0.4686
695.513,75.1381,-3.88629,0.29899,0.46835
696.113,75.1994,-3.88893,0.27521,0.4681
696.713,75.2607,-3.89024,0.2628,0.46785
697.313,75.3219,-3.88891,0.26497,0.46761
697.913,75.3832,-3.8878,0.28051,0.46736
698.513,75.44462,-3.88826,0.27648,0.46711
699.113,75.5062,-3.88897,0.25869,0.46687
699.713,75.56764,-3.88755,0.28508,0.46662
700.313,75.62899,-3.8876,0.29255,0.46638
700.913,75.69023,-3.88661,0.3143,0.46613
701.513,75.75148,-3.88663,0.32274,0.46589
702.113,75.8129,-3.88662,0.32778,0.46564
702.713,75.87422,-3.88799,0.3443,0.4654
703.313,75.93557,-3.88583,0.33638,0.46515
703.913,75.9969,-3.88541,0.36234,0.46491
704.513,76.0582,-3.88817,0.35617,0.46467
705.113,76.11955,-3.88815,0.36456,0.46443
705.713,76.1807,-3.88815,0.39452,0.46418
706.313,76.24192,-3.88948,0.40927,0.46394
706.913,76.30298,-3.88857,0.40616,0.4637
707.513,76.36421,-3.88815,0.433,0.46346
708.113,76.42565,-3.88949,0.43549,0.46322
708.713,76.487,-3.89079,0.44036,0.46298
709.313,76.54849,-3.89836,0.44342,0.46273
709.913,76.60983,-3.88089,0.45047,0.46249
710.513,76.67121,-3.88766,0.47498,0.46226
711.113,76.7325,-3.88779,0.4925,0.46202
711.713,76.7941,-3.88874,0.50114,0.46178
712.313,76.85569,-3.89003,0.52117,0.46154
712.913,76.9174,-3.89133,0.52528,0.4613
713.513,76.9791,-3.89135,0.51493,0.46106
714.113,77.04079,-3.8926,0.52401,0.46082
714.713,77.1024,-3.89134,0.53166,0.46059
715.313,77.16378,-3.89134,0.53099,0.46035
715.913,77.22515,-3.89134,0.52493,0.46011
716.513,77.2867,-3.88999,0.50628,0.45988
717.113,77.34836,-3.89,0.51368,0.45964
717.713,77.40998,-3.89001,0.5115,0.4594
718.313,77.4713,-3.89132,0.51332,0.45917
718.913,77.53281,-3.89134,0.51302,0.45893
719.513,77.5943,-3.89022,0.48745,0.4587
720.113,77.6558,-3.89132,0.49221,0.45846
720.713,77.71771,-3.89265,0.49224,0.45823
721.313,77.77936,-3.89397,0.46833,0.458
721.913,77.84097,-3.89397,0.48777,0.45776
722.513,77.90236,-3.90347,0.48093,0.45753
723.113,77.9638,-3.8827,0.51595,0.4573
723.713,78.02538,-3.88903,0.51176,0.45707
724.313,78.08726,-3.89314,0.51645,0.45683
724.913,78.14902,-3.89331,0.50887,0.4566
725.513,78.21076,-3.89331,0.51974,0.45637
726.113,78.27266,-3.89462,0.52294,0.45614
726.713,78.33451,-3.89592,0.52417,0.45591
727.313,78.39654,-3.89604,0.52167,0.45568
727.913,78.4585,-3.89546,0.50934,0.45545
728.513,78.5203,-3.89463,0.49785,0.45522
729.113,78.5822,-3.89462,0.5048,0.45499
729.713,78.6441,-3.89433,0.47585,0.45476
730.313,78.70605,-3.898,0.47209,0.45453
730.913,78.76799,-3.89498,0.48136,0.4543
731.513,78.82976,-3.89649,0.47542,0.45408
732.113,78.8916,-3.89649,0.47206,0.45385
732.713,78.95331,-3.89718,0.44997,0.45362
733.313,79.01518,-3.89659,0.44193,0.45339
733.913,79.07704,-3.89525,0.4238,0.45317
734.513,79.1389,-3.89525,0.42491,0.45294
735.113,79.2005,-3.89801,0.40444,0.45272
735.713,79.2621,-3.90015,0.40698,0.45249
736.313,79.32373,-3.89903,0.40378,0.45226
736.913,79.38556,-3.89669,0.38278,0.45204
737.513,79.44749,-3.8977,0.37899,0.45181
738.113,79.5094,-3.8977,0.3764,0.45159
738.713,79.571,-3.89901,0.40036,0.45137
739.313,79.6327,-3.89921,0.39519,0.45114
739.913,79.6945,-3.90003,0.40997,0.45092
740.513,79.75588,-3.90032,0.38613,0.4507
741.113,79.81764,-3.90067,0.37064,0.45047
741.713,79.87953,-3.90187,0.39158,0.45025
742.313,79.94175,-3.90024,0.39752,0.45003
742.813,79.99354,-3.90022,0.38715,0.44985