File: 01_Data/Feather_Pillow_Cover/STA/N2/3K_min/Feather_Pillow_Cover_STA_N2_3KData_2226_R1.csv
##Temp./Â°C,Time/min,Mass loss(subtr.2)/mg,DSC(subtr.2)/(mW/mg),Sensit./(uV/mW)
50.148,10.01667,-0.06609,0.02545976,1.05675
50.748,11.0737,-0.06919196,0.0472831,1.05669
51.348,11.43335,-0.06860958,0.0620215,1.05662
51.948,11.7235,-0.06988711,0.07392318,1.05655
52.548,11.98826,-0.07028853,0.08327375,1.05649
53.148,12.235,-0.07121662,0.08760011,1.05642
53.748,12.4732,-0.07255416,0.0912496,1.05635
54.348,12.70318,-0.07250975,0.09551564,1.05628
54.948,12.92757,-0.07267998,0.09541252,1.05621
55.548,13.15119,-0.07397935,0.09847245,1.05614
56.148,13.3745,-0.07560379,0.10225,1.05607
56.748,13.59694,-0.07489914,0.10483,1.056
57.348,13.81669,-0.07618999,0.1041,1.05592
57.948,14.0309,-0.0754333,0.10804,1.05585
58.548,14.2461,-0.07605429,0.10829,1.05578
59.148,14.4584,-0.07783941,0.11083,1.0557
59.748,14.67249,-0.07811194,0.11236,1.05563
60.348,14.88274,-0.07816986,0.11363,1.05555
60.948,15.0917,-0.07956197,0.11421,1.05548
61.548,15.3002,-0.0801392,0.11654,1.0554
62.148,15.5069,-0.08015167,0.11603,1.05532
62.748,15.7132,-0.08013994,0.11731,1.05525
63.348,15.9183,-0.08178993,0.11934,1.05517
63.948,16.12058,-0.08276822,0.11944,1.05509
64.548,16.32339,-0.08143244,0.12134,1.05501
65.148,16.52683,-0.08310318,0.12205,1.05493
65.748,16.7315,-0.08310981,0.12212,1.05485
66.348,16.9372,-0.08313364,0.12295,1.05477
66.948,17.14074,-0.08442,0.12389,1.05469
67.548,17.34498,-0.08576657,0.12368,1.0546
68.148,17.5483,-0.08795787,0.12446,1.05452
68.748,17.75064,-0.08727846,0.12576,1.05444
69.348,17.9513,-0.0876673,0.12481,1.05435
69.948,18.1525,-0.08893446,0.12677,1.05427
70.548,18.35481,-0.08924991,0.12605,1.05418
71.148,18.55646,-0.08935631,0.12752,1.0541
71.748,18.75926,-0.09042077,0.12434,1.05401
72.348,18.96085,-0.09068941,0.12546,1.05393
72.948,19.16266,-0.09199083,0.12591,1.05384
73.548,19.36371,-0.09299151,0.12693,1.05375
74.148,19.56472,-0.09300866,0.12586,1.05366
74.748,19.7664,-0.0936347,0.12455,1.05357
75.348,19.9682,-0.09597194,0.12404,1.05348
75.948,20.17016,-0.09635867,0.12372,1.05339
76.548,20.37108,-0.09572906,0.12451,1.0533
77.148,20.57189,-0.09705998,0.1234,1.05321
77.748,20.77125,-0.09705,0.12329,1.05312
78.348,20.97099,-0.0970183,0.12435,1.05302
78.948,21.17018,-0.09901624,0.12282,1.05293
79.548,21.36949,-0.09903496,0.12098,1.05284
80.148,21.56992,-0.10034,0.12362,1.05274
80.748,21.77,-0.10036,0.1209,1.05265
81.348,21.97165,-0.10089,0.12061,1.05255
81.948,22.17137,-0.10056,0.11983,1.05246
82.548,22.37223,-0.10074,0.12056,1.05236
83.148,22.57325,-0.10237,0.11776,1.05226
83.748,22.77347,-0.10155,0.11804,1.05216
84.348,22.97379,-0.10221,0.11503,1.05207
84.948,23.1737,-0.10364,0.11581,1.05197
85.548,23.37414,-0.10286,0.11346,1.05187
86.148,23.57459,-0.10418,0.11297,1.05177
86.748,23.77475,-0.10352,0.1117,1.05167
87.348,23.97504,-0.10405,0.11361,1.05156
87.948,24.17444,-0.10416,0.11231,1.05146
88.548,24.37349,-0.1042,0.11226,1.05136
89.148,24.5719,-0.1055,0.11012,1.05126
89.748,24.77024,-0.1055,0.10922,1.05115
90.348,24.9706,-0.10551,0.10996,1.05105
90.948,25.1699,-0.10645,0.10927,1.05094
91.548,25.36844,-0.10683,0.1079,1.05084
92.148,25.5665,-0.10682,0.10864,1.05073
92.748,25.7641,-0.10748,0.10652,1.05062
93.348,25.96195,-0.10743,0.107,1.05052
93.948,26.1601,-0.10715,0.10809,1.05041
94.548,26.3581,-0.10846,0.1062,1.0503
95.148,26.55578,-0.10881,0.106,1.05019
95.748,26.75405,-0.10846,0.10544,1.05008
96.348,26.95315,-0.11075,0.1036,1.04997
96.948,27.15298,-0.11082,0.10581,1.04986
97.548,27.35295,-0.10965,0.10342,1.04975
98.148,27.5504,-0.11078,0.10195,1.04963
98.748,27.7481,-0.11078,0.10313,1.04952
99.348,27.94582,-0.11011,0.10259,1.04941
99.948,28.14615,-0.11207,0.10175,1.04929
100.548,28.34702,-0.11207,0.10061,1.04918
101.148,28.5489,-0.11074,0.10243,1.04906
101.748,28.74812,-0.11167,0.10049,1.04895
102.348,28.94683,-0.1117,0.10216,1.04883
102.948,29.1448,-0.11147,0.10241,1.04871
103.548,29.34277,-0.11274,0.10317,1.0486
104.148,29.5398,-0.11208,0.10271,1.04848
104.748,29.737,-0.1124,0.10363,1.04836
105.348,29.933,-0.11175,0.10284,1.04824
105.948,30.1304,-0.1128,0.1005,1.04812
106.548,30.3291,-0.11308,0.10184,1.048
107.148,30.5286,-0.11275,0.10283,1.04788
107.748,30.7269,-0.11308,0.10211,1.04776
108.348,30.925,-0.11341,0.10007,1.04763
108.948,31.1227,-0.11308,0.1014,1.04751
109.548,31.32037,-0.11307,0.10102,1.04739
110.148,31.5179,-0.11204,0.10254,1.04726
110.748,31.71681,-0.11307,0.10242,1.04714
111.348,31.91495,-0.11276,0.10236,1.04701
111.948,32.11415,-0.11406,0.1046,1.04688
112.548,32.31217,-0.11275,0.10142,1.04676
113.148,32.50996,-0.11375,0.10365,1.04663
113.748,32.70827,-0.1134,0.10368,1.0465
114.348,32.90613,-0.11339,0.10266,1.04637
114.948,33.10387,-0.11308,0.10217,1.04624
115.548,33.3018,-0.11275,0.10222,1.04611
116.148,33.50023,-0.11406,0.10255,1.04598
116.748,33.6975,-0.1136,0.1019,1.04585
117.348,33.89485,-0.11407,0.1018,1.04572
117.948,34.09176,-0.11275,0.10236,1.04559
118.548,34.288,-0.11374,0.1039,1.04546
119.148,34.48496,-0.11376,0.10471,1.04532
119.748,34.68076,-0.11374,0.10499,1.04519
120.348,34.87668,-0.1137,0.10475,1.04505
120.948,35.07281,-0.11439,0.1053,1.04492
121.548,35.26875,-0.11298,0.10507,1.04478
122.148,35.46539,-0.11406,0.10405,1.04465
122.748,35.66202,-0.1144,0.10415,1.04451
123.348,35.85975,-0.11471,0.10431,1.04437
123.948,36.05775,-0.11335,0.10327,1.04423
124.548,36.25642,-0.11447,0.10143,1.04409
125.148,36.45447,-0.11523,0.10109,1.04395
125.748,36.65209,-0.11536,0.10216,1.04381
126.348,36.85015,-0.11473,0.10164,1.04367
126.948,37.04842,-0.11483,0.10348,1.04353
127.548,37.24687,-0.11538,0.10213,1.04339
128.148,37.44559,-0.11538,0.10256,1.04324
128.748,37.643,-0.11583,0.10492,1.0431
129.348,37.84002,-0.11537,0.10474,1.04296
129.948,38.0374,-0.11537,0.10496,1.04281
130.548,38.23335,-0.11637,0.1045,1.04267
131.148,38.43027,-0.11439,0.10415,1.04252
131.748,38.62708,-0.11571,0.10381,1.04237
132.348,38.82313,-0.11703,0.10561,1.04223
132.948,39.01962,-0.11703,0.1065,1.04208
133.548,39.21521,-0.11572,0.1059,1.04193
134.148,39.4118,-0.11604,0.10642,1.04178
134.748,39.60825,-0.11604,0.10588,1.04163
135.348,39.80408,-0.11718,0.10336,1.04148
135.948,40.00108,-0.11735,0.10538,1.04133
136.548,40.19728,-0.11604,0.10653,1.04118
137.148,40.39433,-0.11835,0.10815,1.04103
137.748,40.59165,-0.11699,0.10825,1.04087
138.348,40.78948,-0.11667,0.10983,1.04072
138.948,40.98741,-0.11802,0.10691,1.04057
139.548,41.18502,-0.11666,0.10527,1.04041
140.148,41.38166,-0.1167,0.1075,1.04026
140.748,41.57798,-0.118,0.10779,1.0401
141.348,41.77363,-0.11609,0.11033,1.03994
141.948,41.9688,-0.11736,0.10909,1.03979
142.548,42.16382,-0.11804,0.11036,1.03963
143.148,42.35927,-0.11703,0.11178,1.03947
143.748,42.55639,-0.11598,0.11076,1.03931
144.348,42.7539,-0.11606,0.11118,1.03915
144.948,42.95197,-0.11736,0.11207,1.03899
145.548,43.14947,-0.1167,0.11007,1.03883
146.148,43.34534,-0.11802,0.11067,1.03867
146.748,43.5416,-0.11736,0.10911,1.0385
147.348,43.73741,-0.1169,0.11129,1.03834
147.948,43.93336,-0.11736,0.10995,1.03818
148.548,44.12938,-0.11806,0.11102,1.03801
149.148,44.32566,-0.11754,0.11016,1.03785
149.748,44.5214,-0.11835,0.11108,1.03768
150.348,44.71825,-0.11837,0.11089,1.03752
150.948,44.91482,-0.11967,0.10971,1.03735
151.548,45.11007,-0.11868,0.10827,1.03718
152.148,45.30622,-0.11871,0.10912,1.03702
152.748,45.50085,-0.11837,0.10975,1.03685
153.348,45.6965,-0.11974,0.11027,1.03668
153.948,45.8923,-0.11966,0.11082,1.03651
154.548,46.08812,-0.11702,0.10998,1.03634
155.148,46.28479,-0.119,0.11162,1.03617
155.748,46.4812,-0.12032,0.11223,1.03599
156.348,46.67648,-0.11967,0.11265,1.03582
156.948,46.8718,-0.11966,0.1133,1.03565
157.548,47.06613,-0.11805,0.11487,1.03547
158.148,47.26129,-0.12006,0.11402,1.0353
158.748,47.45622,-0.12,0.11445,1.03512
159.348,47.65097,-0.11765,0.11365,1.03495
159.948,47.84523,-0.11902,0.11448,1.03477
160.548,48.04033,-0.11902,0.11332,1.0346
161.148,48.23551,-0.12,0.11246,1.03442
161.748,48.43173,-0.11832,0.11259,1.03424
162.348,48.62785,-0.11821,0.11391,1.03406
162.948,48.82358,-0.11835,0.11432,1.03388
163.548,49.01939,-0.11935,0.11112,1.0337
164.148,49.21617,-0.11999,0.11304,1.03352
164.748,49.41245,-0.11933,0.11396,1.03334
165.348,49.6092,-0.11999,0.11121,1.03316
165.948,49.80546,-0.11853,0.11115,1.03297
166.548,50.001,-0.11867,0.11295,1.03279
167.148,50.19605,-0.11867,0.11359,1.03261
167.748,50.38973,-0.11941,0.11589,1.03242
168.348,50.5835,-0.11999,0.11524,1.03224
168.948,50.7768,-0.11998,0.11636,1.03205
169.548,50.97162,-0.119,0.11654,1.03186
170.148,51.16742,-0.119,0.11644,1.03168
170.748,51.36285,-0.12032,0.11671,1.03149
171.348,51.558,-0.11951,0.11352,1.0313
171.948,51.75293,-0.119,0.11613,1.03111
172.548,51.94839,-0.12032,0.1162,1.03092
173.148,52.14495,-0.11895,0.11651,1.03073
173.748,52.34206,-0.11901,0.11765,1.03054
174.348,52.5377,-0.12078,0.11919,1.03035
174.948,52.7334,-0.11967,0.11772,1.03015
175.548,52.92709,-0.11911,0.1183,1.02996
176.148,53.1221,-0.11934,0.11914,1.02977
176.748,53.317,-0.11934,0.12056,1.02957
177.348,53.5114,-0.12084,0.11983,1.02938
177.948,53.70607,-0.11901,0.12025,1.02918
178.548,53.9002,-0.11998,0.11934,1.02899
179.148,54.0944,-0.11994,0.12192,1.02879
179.748,54.28819,-0.12131,0.12044,1.02859
180.348,54.4824,-0.11999,0.12219,1.02839
180.948,54.6759,-0.12031,0.11991,1.02819
181.548,54.8706,-0.12129,0.11937,1.02799
182.148,55.0652,-0.12067,0.11938,1.02779
182.748,55.25963,-0.12197,0.11968,1.02759
183.348,55.45539,-0.12065,0.12172,1.02739
183.948,55.65045,-0.11966,0.12126,1.02719
184.548,55.8464,-0.1223,0.12201,1.02699
185.148,56.04218,-0.12232,0.12083,1.02678
185.748,56.2383,-0.1223,0.11941,1.02658
186.348,56.435,-0.12263,0.11809,1.02637
186.948,56.6306,-0.1214,0.11852,1.02617
187.548,56.826,-0.12131,0.1221,1.02596
188.148,57.0206,-0.12202,0.12094,1.02575
188.748,57.21464,-0.1223,0.123,1.02555
189.348,57.40945,-0.12131,0.12257,1.02534
189.948,57.60354,-0.12263,0.12263,1.02513
190.548,57.7968,-0.12263,0.12374,1.02492
191.148,57.9901,-0.12229,0.12115,1.02471
191.748,58.1838,-0.1223,0.1216,1.0245
192.348,58.3778,-0.1223,0.12229,1.02429
192.948,58.57229,-0.12198,0.12384,1.02408
193.548,58.76631,-0.12329,0.12333,1.02386
194.148,58.9602,-0.1213,0.12238,1.02365
194.748,59.1549,-0.12172,0.12501,1.02344
195.348,59.34995,-0.12329,0.12302,1.02322
195.948,59.5448,-0.12263,0.1225,1.02301
196.548,59.7404,-0.12336,0.12318,1.02279
197.148,59.93564,-0.12329,0.12287,1.02257
197.748,60.1311,-0.12364,0.1216,1.02235
198.348,60.32611,-0.12361,0.12165,1.02214
198.948,60.5199,-0.12364,0.12062,1.02192
199.548,60.7149,-0.12361,0.124,1.0217
200.148,60.90955,-0.12394,0.12323,1.02148
200.748,61.10419,-0.12401,0.12259,1.02126
201.348,61.29874,-0.12424,0.125,1.02104
201.948,61.49266,-0.12526,0.12508,1.02081
202.548,61.68648,-0.12526,0.12532,1.02059
203.148,61.88086,-0.12559,0.12628,1.02037
203.748,62.0753,-0.1242,0.12698,1.02014
204.348,62.26925,-0.12559,0.12765,1.01992
204.948,62.4632,-0.12559,0.12494,1.01969
205.548,62.658,-0.12559,0.12757,1.01947
206.148,62.8527,-0.12708,0.12664,1.01924
206.748,63.0478,-0.12454,0.12603,1.01901
207.348,63.2431,-0.12518,0.12802,1.01879
207.948,63.43776,-0.12547,0.12824,1.01856
208.548,63.63264,-0.12658,0.12757,1.01833
209.148,63.8268,-0.12651,0.12591,1.0181
209.748,64.02156,-0.12592,0.12657,1.01787
210.348,64.2166,-0.12691,0.12709,1.01764
210.948,64.411,-0.12692,0.12978,1.01741
211.548,64.60537,-0.12679,0.12849,1.01717
212.148,64.79983,-0.12757,0.12926,1.01694
212.748,64.99502,-0.12658,0.12872,1.01671
213.348,65.19031,-0.12794,0.12861,1.01647
213.948,65.38584,-0.12757,0.12829,1.01624
214.548,65.58068,-0.12757,0.12734,1.016
215.148,65.77494,-0.12757,0.12869,1.01576
215.748,65.96888,-0.12757,0.12768,1.01553
216.348,66.16305,-0.1279,0.12747,1.01529
216.948,66.35717,-0.12724,0.1274,1.01505
217.548,66.5513,-0.12888,0.12806,1.01481
218.148,66.74514,-0.12888,0.12858,1.01457
218.748,66.9389,-0.12926,0.13094,1.01433
219.348,67.13338,-0.12954,0.13133,1.01409
219.948,67.3275,-0.13054,0.1318,1.01385
220.548,67.5221,-0.13182,0.13359,1.0136
221.148,67.7166,-0.12921,0.1337,1.01336
221.748,67.91055,-0.13086,0.13395,1.01312
222.348,68.1044,-0.13019,0.13633,1.01287
222.948,68.29835,-0.13152,0.13311,1.01263
223.548,68.4923,-0.13251,0.13246,1.01238
224.148,68.68696,-0.13124,0.13257,1.01213
224.748,68.88095,-0.13286,0.13444,1.01189
225.348,69.07499,-0.13412,0.13526,1.01164
225.948,69.26913,-0.13363,0.13625,1.01139
226.548,69.4633,-0.13447,0.1339,1.01114
227.148,69.65745,-0.13349,0.13239,1.01089
227.748,69.85186,-0.13621,0.13372,1.01064
228.348,70.04648,-0.13481,0.13423,1.01039
228.948,70.2409,-0.13618,0.1337,1.01014
229.548,70.43467,-0.1358,0.1354,1.00988
230.148,70.628,-0.1358,0.13693,1.00963
230.748,70.8211,-0.13853,0.13647,1.00938
231.348,71.01571,-0.13844,0.13811,1.00912
231.948,71.21123,-0.13811,0.13785,1.00887
232.548,71.407,-0.13942,0.13916,1.00861
233.148,71.6024,-0.13843,0.13829,1.00835
233.748,71.79694,-0.14107,0.13965,1.0081
234.348,71.99085,-0.14208,0.13941,1.00784
234.948,72.18574,-0.14337,0.13852,1.00758
235.548,72.38015,-0.14239,0.14083,1.00732
236.148,72.575,-0.14446,0.13976,1.00706
236.748,72.77017,-0.14305,0.13874,1.0068
237.348,72.96486,-0.14503,0.13851,1.00654
237.948,73.15966,-0.14503,0.13821,1.00628
238.548,73.35377,-0.14515,0.13861,1.00601
239.148,73.54728,-0.14568,0.14213,1.00575
239.748,73.74136,-0.14766,0.14231,1.00549
240.348,73.93534,-0.14898,0.14269,1.00522
240.948,74.12931,-0.14819,0.14423,1.00496
241.548,74.32359,-0.14909,0.14302,1.00469
242.148,74.518,-0.14932,0.14447,1.00442
242.748,74.71247,-0.15063,0.14483,1.00416
243.348,74.9077,-0.15051,0.14391,1.00389
243.948,75.10257,-0.15227,0.1428,1.00362
244.548,75.29759,-0.15222,0.14333,1.00335
245.148,75.4926,-0.15424,0.14447,1.00308
245.748,75.687,-0.15423,0.14633,1.00281
246.348,75.88084,-0.15556,0.14704,1.00254
246.948,76.07525,-0.15525,0.14868,1.00226
247.548,76.26939,-0.15655,0.14948,1.00199
248.148,76.46392,-0.15818,0.14788,1.00172
248.748,76.65863,-0.15688,0.14647,1.00144
249.348,76.85293,-0.15955,0.14896,1.00117
249.948,77.0471,-0.15951,0.14869,1.00089
250.548,77.2415,-0.16066,0.14666,1.00062
251.148,77.43621,-0.16182,0.14788,1.00034
251.748,77.63169,-0.16183,0.14824,1.00006
252.348,77.82741,-0.16409,0.14805,0.99978
252.948,78.0234,-0.16412,0.14963,0.99951
253.548,78.21809,-0.16577,0.14982,0.99923
254.148,78.4126,-0.16708,0.15239,0.99895
254.748,78.6067,-0.1684,0.15173,0.99867
255.348,78.80107,-0.16841,0.15328,0.99838
255.948,78.995,-0.17104,0.15275,0.9981
256.548,79.18939,-0.17104,0.15255,0.99782
257.148,79.38286,-0.17237,0.15472,0.99753
257.748,79.57745,-0.17357,0.1527,0.99725
258.348,79.77237,-0.174,0.15414,0.99697
258.948,79.96759,-0.176,0.15669,0.99668
259.548,80.16201,-0.1773,0.15538,0.99639
260.148,80.35667,-0.17725,0.15839,0.99611
260.748,80.55083,-0.17998,0.15848,0.99582
261.348,80.7451,-0.18197,0.15885,0.99553
261.948,80.93902,-0.1836,0.15892,0.99524
262.548,81.1327,-0.18489,0.15973,0.99495
263.148,81.32635,-0.18484,0.15875,0.99466
263.748,81.52031,-0.18748,0.15677,0.99437
264.348,81.71475,-0.18817,0.15963,0.99408
264.948,81.90932,-0.1895,0.15807,0.99379
265.548,82.1037,-0.1908,0.16127,0.99349
266.148,82.2984,-0.1927,0.16216,0.9932
266.748,82.4923,-0.19463,0.16121,0.9929
267.348,82.68656,-0.19521,0.16394,0.99261
267.948,82.88136,-0.19837,0.16179,0.99231
268.548,83.07585,-0.1997,0.16422,0.99202
269.148,83.2714,-0.20101,0.16492,0.99172
269.748,83.46604,-0.20233,0.16281,0.99142
270.348,83.66025,-0.20516,0.16462,0.99112
270.948,83.85464,-0.20627,0.16508,0.99082
271.548,84.04897,-0.20892,0.16546,0.99053
272.148,84.2424,-0.21106,0.16664,0.99022
272.748,84.43643,-0.21383,0.16697,0.98992
273.348,84.62958,-0.21404,0.16694,0.98962
273.948,84.82379,-0.21905,0.16662,0.98932
274.548,85.01857,-0.22182,0.16699,0.98902
275.148,85.2132,-0.22209,0.16787,0.98871
275.748,85.4085,-0.22478,0.16694,0.98841
276.348,85.6044,-0.22741,0.16714,0.9881
276.948,85.8004,-0.22702,0.16555,0.9878
277.548,85.99733,-0.23109,0.16411,0.98749
278.148,86.19375,-0.23346,0.16249,0.98718
278.748,86.38976,-0.23616,0.16084,0.98687
279.348,86.58463,-0.23687,0.16065,0.98657
279.948,86.7794,-0.24046,0.16184,0.98626
280.548,86.97378,-0.24305,0.16251,0.98595
281.148,87.1683,-0.24701,0.16404,0.98564
281.748,87.36206,-0.25008,0.16395,0.98532
282.348,87.5566,-0.25233,0.16637,0.98501
282.948,87.75009,-0.25492,0.16627,0.9847
283.548,87.9439,-0.25877,0.16524,0.98439
284.148,88.13786,-0.26182,0.166,0.98407
284.748,88.33225,-0.26573,0.16664,0.98376
285.348,88.52684,-0.26943,0.16658,0.98344
285.948,88.72185,-0.27248,0.16715,0.98313
286.548,88.91597,-0.27596,0.1701,0.98281
287.148,89.11077,-0.27921,0.17063,0.98249
287.748,89.30592,-0.28316,0.17022,0.98217
288.348,89.50081,-0.28852,0.16981,0.98185
288.948,89.69641,-0.29177,0.17074,0.98154
289.548,89.8912,-0.29588,0.17379,0.98122
290.148,90.08668,-0.29968,0.17332,0.98089
290.748,90.282,-0.30368,0.17368,0.98057
291.348,90.4768,-0.30891,0.17458,0.98025
291.948,90.67146,-0.31168,0.1745,0.97993
292.548,90.86604,-0.31695,0.17758,0.9796
293.148,91.05996,-0.32234,0.17828,0.97928
293.748,91.25505,-0.32784,0.18059,0.97896
294.348,91.44994,-0.33187,0.18086,0.97863
294.948,91.6456,-0.33776,0.18401,0.9783
295.548,91.84121,-0.3414,0.18401,0.97798
296.148,92.03653,-0.34779,0.18625,0.97765
296.748,92.23172,-0.35223,0.18834,0.97732
297.348,92.4273,-0.35764,0.19319,0.97699
297.948,92.62316,-0.36449,0.19297,0.97666
298.548,92.81949,-0.36974,0.19441,0.97633
299.148,93.0158,-0.37761,0.19508,0.976
299.748,93.21199,-0.38235,0.19694,0.97567
300.348,93.40786,-0.38949,0.19822,0.97534
300.948,93.60343,-0.39581,0.19867,0.975
301.548,93.79913,-0.40318,0.20199,0.97467
302.148,93.99308,-0.40849,0.20451,0.97434
302.748,94.18611,-0.41551,0.20722,0.974
303.348,94.37828,-0.42413,0.20915,0.97367
303.948,94.57112,-0.43228,0.21093,0.97333
304.548,94.76657,-0.43847,0.21509,0.97299
305.148,94.96271,-0.44575,0.21808,0.97265
305.748,95.15908,-0.45535,0.22022,0.97232
306.348,95.3536,-0.46414,0.22282,0.97198
306.948,95.54856,-0.47355,0.22463,0.97164
307.548,95.74298,-0.48245,0.22744,0.9713
308.148,95.93821,-0.49247,0.22994,0.97096
308.748,96.13285,-0.50254,0.23067,0.97061
309.348,96.3274,-0.51199,0.23316,0.97027
309.948,96.52238,-0.5228,0.23921,0.96993
310.548,96.71751,-0.53246,0.24278,0.96959
311.148,96.91381,-0.54402,0.24651,0.96924
311.748,97.1092,-0.55525,0.24975,0.9689
312.348,97.30505,-0.5657,0.25404,0.96855
312.948,97.50103,-0.57894,0.25631,0.9682
313.548,97.6964,-0.59133,0.26255,0.96786
314.148,97.89224,-0.60491,0.26846,0.96751
314.748,98.0878,-0.61925,0.27721,0.96716
315.348,98.28291,-0.63177,0.27842,0.96681
315.948,98.47797,-0.64472,0.28455,0.96646
316.548,98.67245,-0.66138,0.2914,0.96611
317.148,98.86661,-0.67671,0.2947,0.96576
317.748,99.06196,-0.69348,0.30348,0.96541
318.348,99.2575,-0.70997,0.30691,0.96506
318.948,99.45308,-0.72579,0.31351,0.9647
319.548,99.64811,-0.74399,0.32148,0.96435
320.148,99.84335,-0.76287,0.32744,0.96399
320.748,100.039,-0.78369,0.33563,0.96364
321.348,100.236,-0.80301,0.34372,0.96328
321.948,100.433,-0.82389,0.34985,0.96293
322.548,100.63,-0.84579,0.36033,0.96257
323.148,100.824,-0.86847,0.3693,0.96221
323.748,101.018,-0.89316,0.37908,0.96185
324.348,101.2136,-0.91511,0.39021,0.96149
324.948,101.409,-0.94127,0.40208,0.96113
325.548,101.606,-0.96667,0.41182,0.96077
326.148,101.802,-0.99581,0.42355,0.96041
326.748,101.997,-1.02143,0.43595,0.96005
327.348,102.193,-1.0523,0.45108,0.95969
327.948,102.388,-1.08143,0.46257,0.95933
328.548,102.584,-1.11383,0.47479,0.95896
329.148,102.78,-1.14636,0.49235,0.9586
329.748,102.976,-1.18287,0.50235,0.95823
330.348,103.173,-1.21706,0.51814,0.95787
330.948,103.369,-1.25505,0.53444,0.9575
331.548,103.5657,-1.29438,0.55049,0.95713
332.148,103.762,-1.33389,0.5649,0.95676
332.748,103.959,-1.37683,0.58131,0.9564
333.348,104.155,-1.41927,0.59738,0.95603
333.948,104.351,-1.46589,0.61057,0.95566
334.548,104.546,-1.51027,0.62989,0.95529
335.148,104.741,-1.55905,0.64754,0.95492
335.748,104.937,-1.60765,0.65994,0.95454
336.348,105.133,-1.65818,0.6727,0.95417
336.948,105.3305,-1.71056,0.68637,0.9538
337.548,105.528,-1.76288,0.6977,0.95342
338.148,105.725,-1.81876,0.70963,0.95305
338.748,105.921,-1.87319,0.71753,0.95267
339.348,106.118,-1.93157,0.72501,0.9523
339.948,106.314,-1.98747,0.73197,0.95192
340.548,106.509,-2.04437,0.73847,0.95154
341.148,106.705,-2.10177,0.74257,0.95117
341.748,106.9,-2.16047,0.74322,0.95079
342.348,107.095,-2.22042,0.74036,0.95041
342.948,107.292,-2.27707,0.73649,0.95003
343.548,107.488,-2.33534,0.72802,0.94965
344.148,107.686,-2.39333,0.72025,0.94927
344.748,107.884,-2.44937,0.71089,0.94889
345.348,108.079,-2.50514,0.6966,0.9485
345.948,108.275,-2.55935,0.68216,0.94812
346.548,108.47,-2.61312,0.67088,0.94774
347.148,108.665,-2.66317,0.6518,0.94735
347.748,108.859,-2.71631,0.63114,0.94697
348.348,109.054,-2.76408,0.61233,0.94658
348.948,109.248,-2.80999,0.58983,0.9462
349.548,109.443,-2.85525,0.56943,0.94581
350.148,109.6362,-2.89812,0.5418,0.94542
350.748,109.83,-2.93872,0.51435,0.94503
351.348,110.024,-2.97635,0.48902,0.94464
351.948,110.218,-3.01268,0.46225,0.94425
352.548,110.412,-3.04618,0.43474,0.94386
353.148,110.606,-3.07847,0.40737,0.94347
353.748,110.801,-3.10646,0.37719,0.94308
354.348,110.995,-3.13352,0.3477,0.94269
354.948,111.19,-3.15642,0.31929,0.9423
355.548,111.384,-3.17732,0.29026,0.9419
356.148,111.579,-3.19636,0.26292,0.94151
356.748,111.775,-3.21496,0.23638,0.94111
357.348,111.97,-3.22849,0.21443,0.94072
357.948,112.166,-3.23935,0.18975,0.94032
358.548,112.362,-3.24967,0.16906,0.93992
359.148,112.557,-3.25886,0.14943,0.93953
359.748,112.752,-3.2664,0.13703,0.93913
360.348,112.947,-3.273,0.12401,0.93873
360.948,113.141,-3.27882,0.11178,0.93833
361.548,113.3365,-3.28386,0.10417,0.93793
362.148,113.532,-3.28732,0.09746537,0.93753
362.748,113.728,-3.29137,0.08952685,0.93713
363.348,113.923,-3.29392,0.08726372,0.93672
363.948,114.119,-3.2954,0.08368946,0.93632
364.548,114.315,-3.2976,0.0795421,0.93592
365.148,114.512,-3.30027,0.07885082,0.93551
365.748,114.709,-3.30151,0.07627526,0.93511
366.348,114.906,-3.30184,0.07384115,0.9347
366.948,115.103,-3.30448,0.07439678,0.9343
367.548,115.3,-3.30579,0.07222425,0.93389
368.148,115.495,-3.30718,0.07336776,0.93348
368.748,115.69,-3.30579,0.07157906,0.93308
369.348,115.886,-3.30827,0.07367564,0.93267
369.948,116.081,-3.30975,0.07815253,0.93226
370.548,116.277,-3.31116,0.07808392,0.93185
371.148,116.472,-3.31099,0.0788481,0.93144
371.748,116.669,-3.31238,0.07805089,0.93103
372.348,116.865,-3.3137,0.07788862,0.93062
372.948,117.0628,-3.31358,0.07637768,0.9302
373.548,117.26,-3.31569,0.07577995,0.92979
374.148,117.457,-3.31531,0.07639572,0.92938
374.748,117.654,-3.3168,0.07723066,0.92896
375.348,117.85,-3.31732,0.07657727,0.92855
375.948,118.046,-3.31798,0.07513128,0.92813
376.548,118.242,-3.31864,0.0765532,0.92771
377.148,118.439,-3.31976,0.07721451,0.9273
377.748,118.635,-3.31963,0.07574058,0.92688
378.348,118.833,-3.32098,0.0746343,0.92646
378.948,119.03,-3.32225,0.07619013,0.92604
379.548,119.227,-3.32227,0.07518685,0.92562
380.148,119.424,-3.32226,0.07344412,0.9252
380.748,119.621,-3.32359,0.07395922,0.92478
381.348,119.818,-3.3259,0.07421488,0.92436
381.948,120.015,-3.32589,0.07242762,0.92394
382.548,120.213,-3.32654,0.07147148,0.92352
383.148,120.41,-3.32687,0.07238302,0.92309
383.748,120.607,-3.32787,0.0714659,0.92267
384.348,120.804,-3.32818,0.07236716,0.92224
384.948,121.001,-3.32951,0.07357355,0.92182
385.548,121.1982,-3.3305,0.07271622,0.92139
386.148,121.395,-3.33084,0.07272828,0.92097
386.748,121.592,-3.33081,0.07313578,0.92054
387.348,121.788,-3.33316,0.07187784,0.92011
387.948,121.984,-3.33313,0.06954564,0.91968
388.548,122.181,-3.33453,0.07066352,0.91925
389.148,122.379,-3.33437,0.07091381,0.91882
389.748,122.576,-3.33577,0.07266523,0.91839
390.348,122.773,-3.33676,0.07203681,0.91796
390.948,122.97,-3.33708,0.07122975,0.91753
391.548,123.168,-3.33807,0.07056687,0.9171
392.148,123.365,-3.3384,0.0704496,0.91666
392.748,123.562,-3.3384,0.07099694,0.91623
393.348,123.759,-3.33972,0.07054883,0.9158
393.948,123.955,-3.34235,0.06951166,0.91536
394.548,124.152,-3.34104,0.070188,0.91493
395.148,124.349,-3.34235,0.06977612,0.91449
395.748,124.546,-3.34234,0.06833443,0.91405
396.348,124.743,-3.34334,0.06914633,0.91362
396.948,124.941,-3.34236,0.06822522,0.91318
397.548,125.139,-3.3436,0.06758607,0.91274
398.148,125.337,-3.34491,0.07024857,0.9123
398.748,125.535,-3.34499,0.06748362,0.91186
399.348,125.732,-3.34631,0.06806203,0.91142
399.948,125.9302,-3.3474,0.0691055,0.91098
400.548,126.1283,-3.34763,0.06985163,0.91054
401.148,126.326,-3.34762,0.06953377,0.91009
401.748,126.524,-3.34898,0.069021,0.90965
402.348,126.722,-3.34894,0.06681326,0.90921
402.948,126.919,-3.34926,0.06862247,0.90876
403.548,127.116,-3.35059,0.06726459,0.90832
404.148,127.313,-3.34992,0.06912936,0.90787
404.748,127.509,-3.35125,0.07010396,0.90743
405.348,127.704,-3.35256,0.06933318,0.90698
405.948,127.899,-3.35256,0.0691049,0.90653
406.548,128.093,-3.35316,0.06801747,0.90609
407.148,128.288,-3.35513,0.0681065,0.90564
407.748,128.4853,-3.35458,0.07029979,0.90519
408.348,128.684,-3.35718,0.06817136,0.90474
408.948,128.88,-3.35718,0.06969473,0.90429
409.548,129.0781,-3.35717,0.06833433,0.90384
410.148,129.276,-3.35644,0.06876732,0.90338
410.748,129.475,-3.35736,0.06521683,0.90293
411.348,129.674,-3.35749,0.06637742,0.90248
411.948,129.872,-3.35872,0.06798563,0.90203
412.548,130.0705,-3.36146,0.06558297,0.90157
413.148,130.268,-3.36014,0.0649499,0.90112
413.748,130.467,-3.36278,0.06550419,0.90066
414.348,130.6646,-3.36276,0.06390064,0.90021
414.948,130.863,-3.3628,0.06316013,0.89975
415.548,131.061,-3.36407,0.06400111,0.89929
416.148,131.259,-3.3641,0.06469701,0.89883
416.748,131.457,-3.36538,0.06494528,0.89838
417.348,131.655,-3.36541,0.06394386,0.89792
417.948,131.852,-3.36739,0.06572042,0.89746
418.548,132.049,-3.36607,0.06532962,0.897
419.148,132.246,-3.36601,0.06645336,0.89654
419.748,132.4426,-3.36845,0.06323387,0.89607
420.348,132.639,-3.36937,0.06635009,0.89561
420.948,132.836,-3.36983,0.06469133,0.89515
421.548,133.034,-3.37035,0.06380727,0.89469
422.148,133.233,-3.36936,0.06529981,0.89422
422.748,133.431,-3.37101,0.06446479,0.89376
423.348,133.63,-3.37101,0.0639105,0.89329
423.948,133.828,-3.37168,0.06416352,0.89283
424.548,134.027,-3.37281,0.06330984,0.89236
425.148,134.225,-3.37198,0.06180606,0.89189
425.748,134.422,-3.37265,0.06315453,0.89143
426.348,134.62,-3.37408,0.06194571,0.89096
426.948,134.817,-3.37462,0.06326204,0.89049
427.548,135.014,-3.37364,0.06450611,0.89002
428.148,135.211,-3.37612,0.06438485,0.88955
428.748,135.409,-3.37628,0.06162449,0.88908
429.348,135.607,-3.37496,0.06397245,0.88861
429.948,135.806,-3.37629,0.0615605,0.88814
430.548,136.003,-3.37557,0.06075759,0.88766
431.148,136.201,-3.37694,0.06216131,0.88719
431.748,136.4,-3.37727,0.0602775,0.88672
432.348,136.6,-3.37891,0.06114342,0.88624
432.948,136.7991,-3.37858,0.06255524,0.88577
433.548,136.997,-3.38024,0.06125592,0.88529
434.148,137.195,-3.37924,0.06178715,0.88482
434.748,137.392,-3.38016,0.06235379,0.88434
435.348,137.59,-3.38122,0.05980397,0.88386
435.948,137.787,-3.38122,0.06208079,0.88339
436.548,137.984,-3.38253,0.05918504,0.88291
437.148,138.182,-3.38253,0.05901382,0.88243
437.748,138.379,-3.38385,0.05612622,0.88195
438.348,138.576,-3.38514,0.05877547,0.88147
438.948,138.773,-3.38513,0.05619544,0.88099
439.548,138.97,-3.3855,0.05602794,0.88051
440.148,139.169,-3.3855,0.05655256,0.88003
440.748,139.3668,-3.3855,0.05746947,0.87954
441.348,139.566,-3.38778,0.056163,0.87906
441.948,139.765,-3.38718,0.05690816,0.87858
442.548,139.964,-3.38683,0.05875242,0.87809
443.148,140.163,-3.38811,0.05657863,0.87761
443.748,140.361,-3.38813,0.05616202,0.87712
444.348,140.559,-3.38958,0.05550089,0.87664
444.948,140.757,-3.38979,0.05933726,0.87615
445.548,140.954,-3.39077,0.05646937,0.87566
446.148,141.15,-3.39143,0.0562159,0.87518
446.748,141.347,-3.39054,0.05732534,0.87469
447.348,141.543,-3.39111,0.05721609,0.8742
447.948,141.74,-3.39241,0.05842,0.87371
448.548,141.937,-3.39176,0.05798575,0.87322
449.148,142.134,-3.39307,0.05964965,0.87273
449.748,142.332,-3.39372,0.05840023,0.87224
450.348,142.531,-3.39441,0.05992803,0.87175
450.948,142.731,-3.39439,0.05851973,0.87126
451.548,142.93,-3.39539,0.05931863,0.87076
452.148,143.13,-3.39537,0.05932133,0.87027
452.748,143.33,-3.39537,0.05899844,0.86977
453.348,143.529,-3.39669,0.05895392,0.86928
453.948,143.7275,-3.39538,0.0602402,0.86879
454.548,143.924,-3.39606,0.06103604,0.86829
455.148,144.12,-3.39768,0.05914041,0.86779
455.748,144.317,-3.39801,0.05982722,0.8673
456.348,144.514,-3.39937,0.05738578,0.8668
456.948,144.714,-3.39933,0.05813512,0.8663
457.548,144.914,-3.39928,0.05789337,0.8658
458.148,145.115,-3.40003,0.05908158,0.8653
458.748,145.314,-3.4,0.05830883,0.8648
459.348,145.5125,-3.39999,0.06231572,0.8643
459.948,145.711,-3.40003,0.06318284,0.8638
460.548,145.91,-3.40065,0.06220626,0.8633
461.148,146.109,-3.40065,0.06298607,0.8628
461.748,146.308,-3.40294,0.0627589,0.8623
462.348,146.506,-3.4013,0.05986074,0.86179
462.948,146.7034,-3.403,0.06162751,0.86129
463.548,146.9,-3.40163,0.06249961,0.86079
464.148,147.0972,-3.40262,0.05994665,0.86028
464.748,147.296,-3.40371,0.06166494,0.85978
465.348,147.496,-3.40427,0.06013868,0.85927
465.948,147.695,-3.40427,0.06009381,0.85876
466.548,147.894,-3.40438,0.06045454,0.85826
467.148,148.091,-3.40328,0.05954323,0.85775
467.748,148.289,-3.40493,0.06000209,0.85724
468.348,148.4868,-3.40555,0.05682238,0.85673
468.948,148.685,-3.40591,0.05888256,0.85622
469.548,148.883,-3.40525,0.06062575,0.85571
470.148,149.082,-3.40657,0.05776113,0.8552
470.748,149.2799,-3.40663,0.06173392,0.85469
471.348,149.478,-3.40854,0.06094084,0.85418
471.948,149.677,-3.40727,0.05780888,0.85367
472.548,149.877,-3.40789,0.05951164,0.85316
473.148,150.076,-3.4079,0.0597818,0.85265
473.748,150.2759,-3.40921,0.05653177,0.85213
474.348,150.475,-3.40921,0.05582428,0.85162
474.948,150.675,-3.40954,0.05422462,0.8511
475.548,150.874,-3.41007,0.05294633,0.85059
476.148,151.073,-3.41089,0.04981277,0.85007
476.748,151.272,-3.41083,0.0476497,0.84956
477.348,151.472,-3.41086,0.04238892,0.84904
477.948,151.6718,-3.41251,0.04255518,0.84852
478.548,151.87,-3.4125,0.04167693,0.848
479.148,152.068,-3.41119,0.03958178,0.84749
479.748,152.2668,-3.41184,0.03675937,0.84697
480.348,152.465,-3.4111,0.036433,0.84645
480.948,152.664,-3.41219,0.03499276,0.84593
481.548,152.862,-3.41249,0.03492209,0.84541
482.148,153.061,-3.41359,0.03487132,0.84489
482.748,153.26,-3.41349,0.03439466,0.84436
483.348,153.459,-3.41249,0.0325214,0.84384
483.948,153.659,-3.41382,0.03065506,0.84332
484.548,153.859,-3.41418,0.0310803,0.8428
485.148,154.058,-3.41415,0.02992753,0.84227
485.748,154.257,-3.41547,0.02946546,0.84175
486.348,154.456,-3.41547,0.03077794,0.84122
486.948,154.656,-3.41544,0.03189086,0.8407
487.548,154.856,-3.41579,0.03076491,0.84017
488.148,155.054,-3.41709,0.03277283,0.83965
488.748,155.253,-3.41574,0.03060485,0.83912
489.348,155.453,-3.4158,0.03100576,0.83859
489.948,155.652,-3.4165,0.03124055,0.83806
490.548,155.852,-3.41847,0.02987765,0.83753
491.148,156.051,-3.41712,0.03098236,0.83701
491.748,156.2498,-3.41712,0.03078166,0.83648
492.348,156.449,-3.41876,0.03172177,0.83595
492.948,156.648,-3.41908,0.03301558,0.83542
493.548,156.847,-3.42038,0.03187483,0.83488
494.148,157.045,-3.41912,0.03243361,0.83435
494.748,157.2444,-3.4204,0.03120975,0.83382
495.348,157.4429,-3.4204,0.03410376,0.83329
495.948,157.64,-3.42034,0.0347823,0.83276
496.548,157.839,-3.42198,0.03509293,0.83222
497.148,158.038,-3.42172,0.03215028,0.83169
497.748,158.238,-3.42071,0.03385014,0.83115
498.348,158.438,-3.42074,0.03532842,0.83062
498.948,158.637,-3.42174,0.03673265,0.83008
499.548,158.835,-3.42174,0.03699219,0.82955
500.148,159.034,-3.42272,0.03639038,0.82901
500.748,159.233,-3.42406,0.035749,0.82847
501.348,159.432,-3.42403,0.03752031,0.82793
501.948,159.632,-3.42403,0.03776447,0.8274
502.548,159.833,-3.42436,0.04090444,0.82686
503.148,160.0352,-3.42436,0.04096252,0.82632
503.748,160.237,-3.42436,0.04124829,0.82578
504.348,160.438,-3.42568,0.04540633,0.82524
504.948,160.6378,-3.42568,0.04269876,0.8247
505.548,160.838,-3.42568,0.04394477,0.82416
506.148,161.037,-3.4258,0.04515555,0.82361
506.748,161.236,-3.42631,0.04335879,0.82307
507.348,161.435,-3.42699,0.04274487,0.82253
507.948,161.633,-3.42762,0.04680483,0.82199
508.548,161.8318,-3.42666,0.04738326,0.82144
509.148,162.031,-3.42671,0.04350687,0.8209
509.748,162.23,-3.427,0.04482088,0.82035
510.348,162.429,-3.42773,0.04658803,0.81981
510.948,162.627,-3.42831,0.04610489,0.81926
511.548,162.824,-3.42831,0.04693926,0.81872
512.148,163.022,-3.42791,0.04715683,0.81817
512.748,163.22,-3.42699,0.04469813,0.81762
513.348,163.419,-3.42838,0.04672758,0.81707
513.948,163.619,-3.4293,0.0471155,0.81653
514.548,163.818,-3.42931,0.04751911,0.81598
515.148,164.017,-3.42964,0.04573682,0.81543
515.748,164.2171,-3.43062,0.04670737,0.81488
516.348,164.417,-3.43029,0.04557488,0.81433
516.948,164.617,-3.4316,0.0455994,0.81378
517.548,164.8181,-3.43026,0.04695133,0.81323
518.148,165.019,-3.43062,0.04772908,0.81268
518.748,165.221,-3.4318,0.04837658,0.81212
519.348,165.422,-3.43258,0.04835325,0.81157
519.948,165.622,-3.43166,0.0488776,0.81102
520.548,165.822,-3.43367,0.04966241,0.81046
521.148,166.021,-3.43356,0.04955853,0.80991
521.748,166.221,-3.43358,0.04846854,0.80936
522.348,166.422,-3.43292,0.04995471,0.8088
522.948,166.622,-3.43471,0.04872474,0.80825
523.548,166.823,-3.43424,0.04837617,0.80769
524.148,167.023,-3.43424,0.05028851,0.80713
524.748,167.223,-3.43358,0.0516389,0.80658
525.348,167.421,-3.4336,0.05251828,0.80602
525.948,167.621,-3.4349,0.05088884,0.80546
526.548,167.821,-3.43622,0.05032955,0.8049
527.148,168.02,-3.43625,0.05018713,0.80434
527.748,168.219,-3.43598,0.05111535,0.80379
528.348,168.417,-3.43654,0.04928712,0.80323
528.948,168.616,-3.43523,0.05050422,0.80267
529.548,168.816,-3.43654,0.0521958,0.80211
530.148,169.013,-3.43687,0.05107753,0.80154
530.748,169.212,-3.43828,0.05340734,0.80098
531.348,169.4111,-3.43688,0.05241813,0.80042
531.948,169.611,-3.43854,0.05310474,0.79986
532.548,169.812,-3.43852,0.05038638,0.7993
533.148,170.013,-3.43777,0.05301051,0.79873
533.748,170.214,-3.44048,0.05108895,0.79817
534.348,170.415,-3.43819,0.04852469,0.79761
534.948,170.616,-3.4405,0.04917231,0.79704
535.548,170.8165,-3.43951,0.05404579,0.79648
536.148,171.017,-3.43921,0.05288743,0.79591
536.748,171.218,-3.43918,0.05410407,0.79534
537.348,171.419,-3.43918,0.05501339,0.79478
537.948,171.619,-3.43951,0.05576293,0.79421
538.548,171.819,-3.44083,0.0586621,0.79364
539.148,172.019,-3.43951,0.0579688,0.79308
539.748,172.22,-3.43982,0.05690164,0.79251
540.348,172.42,-3.44118,0.05997323,0.79194
540.948,172.621,-3.44122,0.05915457,0.79137
541.548,172.821,-3.44211,0.05928182,0.7908
542.148,173.02,-3.44083,0.05906075,0.79023
542.748,173.22,-3.44116,0.05700382,0.78966
543.348,173.4196,-3.44069,0.06171811,0.78909
543.948,173.619,-3.44181,0.06072027,0.78852
544.548,173.82,-3.44182,0.05882545,0.78795
545.148,174.019,-3.44242,0.0580344,0.78737
545.748,174.2181,-3.44247,0.06060441,0.7868
546.348,174.417,-3.44315,0.06161379,0.78623
546.948,174.617,-3.44313,0.058703,0.78565
547.548,174.818,-3.44247,0.05819266,0.78508
548.148,175.019,-3.44379,0.06111652,0.78451
548.748,175.219,-3.44347,0.0612775,0.78393
549.348,175.42,-3.44363,0.0597658,0.78336
549.948,175.62,-3.44347,0.05998534,0.78278
550.548,175.82,-3.4461,0.06045393,0.7822
551.148,176.021,-3.4438,0.05935376,0.78163
551.748,176.221,-3.4461,0.06243259,0.78105
552.348,176.422,-3.44446,0.06175267,0.78047
552.948,176.623,-3.44576,0.06114672,0.7799
553.548,176.824,-3.44545,0.06229858,0.77932
554.148,177.025,-3.44675,0.06250424,0.77874
554.748,177.227,-3.44612,0.06322434,0.77816
555.348,177.428,-3.44627,0.06026853,0.77758
555.948,177.629,-3.44708,0.06001447,0.777
556.548,177.831,-3.44708,0.06152061,0.77642
557.148,178.032,-3.44708,0.06009895,0.77584
557.748,178.233,-3.44577,0.06050357,0.77526
558.348,178.433,-3.44708,0.06177321,0.77468
558.948,178.634,-3.44675,0.06353708,0.77409
559.548,178.834,-3.44676,0.06053787,0.77351
560.148,179.034,-3.44676,0.06110675,0.77293
560.748,179.233,-3.44577,0.06247477,0.77235
561.348,179.432,-3.44709,0.06103276,0.77176
561.948,179.63,-3.44775,0.06097573,0.77118
562.548,179.83,-3.44756,0.06024212,0.77059
563.148,180.031,-3.44709,0.05936255,0.77001
563.748,180.232,-3.44643,0.06287444,0.76942
564.348,180.435,-3.44643,0.06286323,0.76884
564.948,180.6355,-3.44781,0.0661183,0.76825
565.548,180.836,-3.44775,0.06359493,0.76767
566.148,181.0367,-3.44775,0.06608331,0.76708
566.748,181.237,-3.44841,0.06720151,0.76649
567.348,181.437,-3.44841,0.06703981,0.76591
567.948,181.638,-3.44808,0.0691744,0.76532
568.548,181.839,-3.44843,0.06949547,0.76473
569.148,182.039,-3.44863,0.07190523,0.76414
569.748,182.239,-3.44905,0.07018584,0.76355
570.348,182.439,-3.4508,0.07126384,0.76296
570.948,182.639,-3.44906,0.06993712,0.76237
571.548,182.837,-3.44906,0.07088766,0.76178
572.148,183.037,-3.44906,0.06843822,0.76119
572.748,183.239,-3.451,0.06760615,0.7606
573.348,183.442,-3.44982,0.06830827,0.76001
573.948,183.644,-3.45027,0.07009593,0.75942
574.548,183.845,-3.45071,0.07345905,0.75882
575.148,184.045,-3.45071,0.07465677,0.75823
575.748,184.244,-3.45071,0.07144548,0.75764
576.348,184.444,-3.45071,0.07021539,0.75704
576.948,184.645,-3.45071,0.07071961,0.75645
577.548,184.848,-3.45071,0.06982617,0.75586
578.148,185.049,-3.45104,0.07228748,0.75526
578.748,185.25,-3.45104,0.07359148,0.75467
579.348,185.451,-3.45104,0.07368092,0.75407
579.948,185.651,-3.45104,0.06959171,0.75348
580.548,185.853,-3.45137,0.07202331,0.75288
581.148,186.054,-3.45135,0.07445913,0.75228
581.748,186.257,-3.45137,0.07138674,0.75169
582.348,186.459,-3.45137,0.07449597,0.75109
582.948,186.66,-3.4522,0.07111156,0.75049
583.548,186.862,-3.45104,0.07108343,0.7499
584.148,187.063,-3.45089,0.06914359,0.7493
584.748,187.2643,-3.45202,0.06904383,0.7487
585.348,187.466,-3.45269,0.07188086,0.7481
585.948,187.669,-3.45062,0.06875996,0.7475
586.548,187.87,-3.45236,0.06919812,0.7469
587.148,188.071,-3.45236,0.07162536,0.7463
587.748,188.272,-3.45236,0.07260606,0.7457
588.348,188.473,-3.45096,0.07018165,0.7451
588.948,188.674,-3.45334,0.07047396,0.7445
589.548,188.8762,-3.45235,0.07031704,0.7439
590.148,189.078,-3.45364,0.06934576,0.7433
590.748,189.279,-3.45367,0.06915872,0.74269
591.348,189.48,-3.45236,0.0684222,0.74209
591.948,189.68,-3.45432,0.06646829,0.74149
592.548,189.881,-3.45367,0.06798891,0.74088
593.148,190.081,-3.45361,0.06836152,0.74028
593.748,190.282,-3.45469,0.06885088,0.73968
594.348,190.483,-3.454,0.07050279,0.73907
594.948,190.683,-3.454,0.07160213,0.73847
595.548,190.883,-3.45631,0.0718883,0.73786
596.148,191.084,-3.45367,0.07250422,0.73726
596.748,191.2841,-3.45433,0.07383366,0.73665
597.348,191.485,-3.45532,0.07238506,0.73605
597.948,191.685,-3.45531,0.0705342,0.73544
598.548,191.885,-3.45532,0.07152453,0.73483
599.148,192.086,-3.45532,0.06973997,0.73423
599.748,192.286,-3.45539,0.06994719,0.73362
600.348,192.487,-3.45466,0.06793341,0.73301
600.948,192.688,-3.45598,0.0704498,0.7324
601.548,192.89,-3.45625,0.07209877,0.7318
602.148,193.092,-3.45631,0.07151998,0.73119
602.748,193.294,-3.45768,0.07134911,0.73058
603.348,193.497,-3.45631,0.07350907,0.72997
603.948,193.698,-3.4576,0.07360179,0.72936
604.548,193.9,-3.45762,0.07459778,0.72875
605.148,194.103,-3.45761,0.07645946,0.72814
605.748,194.306,-3.45691,0.08184391,0.72753
606.348,194.509,-3.45766,0.07881204,0.72692
606.948,194.71,-3.45894,0.07836374,0.72631
607.548,194.911,-3.45762,0.08164328,0.72569
608.148,195.112,-3.45828,0.07983182,0.72508
608.748,195.313,-3.45828,0.0784047,0.72447
609.348,195.513,-3.45828,0.07763914,0.72386
609.948,195.714,-3.4596,0.07568292,0.72325
610.548,195.9154,-3.4573,0.07569816,0.72263
611.148,196.116,-3.45763,0.07772865,0.72202
611.748,196.318,-3.45893,0.07727122,0.72141
612.348,196.518,-3.45895,0.07722664,0.72079
612.948,196.719,-3.46028,0.0767733,0.72018
613.548,196.92,-3.45895,0.07640565,0.71956
614.148,197.121,-3.46026,0.08054213,0.71895
614.748,197.323,-3.45917,0.07846238,0.71833
615.348,197.526,-3.46059,0.07924049,0.71772
615.948,197.728,-3.46058,0.07837031,0.7171
616.548,197.929,-3.46027,0.07924571,0.71648
617.148,198.13,-3.46029,0.07798511,0.71587
617.748,198.33,-3.45928,0.07851175,0.71525
618.348,198.5301,-3.46108,0.08057961,0.71463
618.948,198.731,-3.46124,0.07784834,0.71402
619.548,198.931,-3.45994,0.07903237,0.7134
620.148,199.133,-3.45994,0.07661698,0.71278
620.748,199.335,-3.46028,0.07825465,0.71216
621.348,199.536,-3.46107,0.07735433,0.71154
621.948,199.737,-3.46127,0.07785009,0.71093
622.548,199.937,-3.46147,0.07761576,0.71031
623.148,200.139,-3.46106,0.08098564,0.70969
623.748,200.3397,-3.46059,0.07666514,0.70907
624.348,200.543,-3.46243,0.07460571,0.70845
624.948,200.743,-3.46191,0.07723154,0.70783
625.548,200.943,-3.46191,0.07592334,0.70721
626.148,201.1434,-3.46054,0.07802183,0.70659
626.748,201.344,-3.46199,0.07696279,0.70596
627.348,201.546,-3.46147,0.074104,0.70534
627.948,201.746,-3.46156,0.074781,0.70472
628.548,201.948,-3.46158,0.07246024,0.7041
629.148,202.15,-3.46257,0.07539652,0.70348
629.748,202.352,-3.46257,0.07341616,0.70286
630.348,202.555,-3.46257,0.0718703,0.70223
630.948,202.758,-3.46257,0.07109191,0.70161
631.548,202.96,-3.46191,0.07133567,0.70099
632.148,203.162,-3.46191,0.0716504,0.70036
632.748,203.362,-3.46364,0.07343048,0.69974
633.348,203.563,-3.46233,0.07186953,0.69911
633.948,203.765,-3.4622,0.07368554,0.69849
634.548,203.9662,-3.46224,0.0702157,0.69787
635.148,204.168,-3.46224,0.07228326,0.69724
635.748,204.3695,-3.46172,0.07018466,0.69662
636.348,204.571,-3.46224,0.07265198,0.69599
636.948,204.773,-3.46294,0.06876925,0.69536
637.548,204.974,-3.4629,0.06831791,0.69474
638.148,205.176,-3.46153,0.06667831,0.69411
638.748,205.378,-3.4629,0.06543489,0.69349
639.348,205.58,-3.46269,0.064477,0.69286
639.948,205.7818,-3.46314,0.06491788,0.69223
640.548,205.984,-3.46321,0.06885939,0.69161
641.148,206.187,-3.46348,0.06939191,0.69098
641.748,206.39,-3.46356,0.06864024,0.69035
642.348,206.592,-3.46356,0.07065172,0.68972
642.948,206.796,-3.46287,0.06893351,0.68909
643.548,206.998,-3.46232,0.06618872,0.68847
644.148,207.2,-3.45502,0.06043486,0.68784
644.748,207.401,-3.45941,0.06829047,0.68721
645.348,207.602,-3.46734,0.0708804,0.68658
645.948,207.802,-3.46729,0.0726103,0.68595
646.548,208.002,-3.46466,0.07414985,0.68532
647.148,208.202,-3.46198,0.07039671,0.68469
647.748,208.402,-3.45924,0.07035385,0.68406
648.348,208.604,-3.46083,0.06659625,0.68343
648.948,208.805,-3.46713,0.07058407,0.6828
649.548,209.007,-3.47542,0.0731628,0.68217
650.148,209.21,-3.46911,0.07335725,0.68154
650.748,209.413,-3.46487,0.06628895,0.68091
651.348,209.615,-3.46355,0.06696232,0.68027
651.948,209.816,-3.46323,0.06646837,0.67964
652.548,210.018,-3.46422,0.06361199,0.67901
653.148,210.22,-3.46388,0.06384206,0.67838
653.748,210.421,-3.46322,0.06543357,0.67775
654.348,210.622,-3.46256,0.06187555,0.67711
654.948,210.823,-3.46256,0.0638551,0.67648
655.548,211.024,-3.46355,0.0594137,0.67585
656.148,211.225,-3.46449,0.06244276,0.67521
656.748,211.426,-3.4629,0.06296547,0.67458
657.348,211.628,-3.46351,0.06469243,0.67395
657.948,211.83,-3.46454,0.06437276,0.67331
658.548,212.032,-3.46357,0.06390356,0.67268
659.148,212.234,-3.46453,0.06231424,0.67205
659.748,212.435,-3.46553,0.0612504,0.67141
660.348,212.637,-3.46454,0.06108123,0.67078
660.948,212.838,-3.46355,0.05910993,0.67014
661.548,213.038,-3.46496,0.05841538,0.66951
662.148,213.238,-3.46487,0.06154565,0.66887
662.748,213.438,-3.46487,0.06026502,0.66824
663.348,213.639,-3.46486,0.05907223,0.6676
663.948,213.841,-3.46421,0.06013427,0.66696
664.548,214.043,-3.46487,0.06016832,0.66633
665.148,214.247,-3.46487,0.0578147,0.66569
665.748,214.45,-3.46554,0.05487256,0.66505
666.348,214.653,-3.4657,0.05630204,0.66442
666.948,214.856,-3.4652,0.05627561,0.66378
667.548,215.059,-3.46619,0.05580417,0.66314
668.148,215.261,-3.46621,0.0568881,0.66251
668.748,215.463,-3.46751,0.05363574,0.66187
669.348,215.665,-3.46619,0.0548732,0.66123
669.948,215.866,-3.46619,0.05701895,0.66059
670.548,216.068,-3.46489,0.05965318,0.65995
671.148,216.269,-3.4675,0.05645974,0.65932
671.748,216.471,-3.46522,0.05500251,0.65868
672.348,216.672,-3.46649,0.05423573,0.65804
672.948,216.874,-3.46586,0.0524222,0.6574
673.548,217.076,-3.46652,0.05472718,0.65676
674.148,217.277,-3.46794,0.05332456,0.65612
674.748,217.4788,-3.46885,0.05330466,0.65548
675.348,217.68,-3.46651,0.05320631,0.65484
675.948,217.882,-3.4675,0.05018451,0.6542
676.548,218.085,-3.4675,0.04923405,0.65356
677.148,218.288,-3.46751,0.0483093,0.65292
677.748,218.491,-3.46746,0.04708338,0.65228
678.348,218.693,-3.46783,0.04627241,0.65164
678.948,218.895,-3.46812,0.05086254,0.651
679.548,219.0963,-3.46861,0.04830003,0.65036
680.148,219.298,-3.46655,0.04680964,0.64972
680.748,219.5,-3.46915,0.04735028,0.64908
681.348,219.701,-3.4685,0.04733642,0.64844
681.948,219.902,-3.4685,0.04986472,0.6478
682.548,220.103,-3.46922,0.04879499,0.64716
683.148,220.305,-3.46784,0.04848949,0.64651
683.748,220.5061,-3.46917,0.04496106,0.64587
684.348,220.707,-3.46817,0.04639428,0.64523
684.948,220.907,-3.46949,0.0480897,0.64459
685.548,221.108,-3.46949,0.0487423,0.64395
686.148,221.312,-3.46949,0.04572843,0.6433
686.748,221.516,-3.46916,0.04788606,0.64266
687.348,221.72,-3.46781,0.04427401,0.64202
687.948,221.923,-3.46982,0.04641435,0.64137
688.548,222.126,-3.46982,0.04396399,0.64073
689.148,222.327,-3.46984,0.04033876,0.64009
689.748,222.529,-3.46958,0.04053825,0.63944
690.348,222.73,-3.47047,0.0405779,0.6388
690.948,222.931,-3.47047,0.04215449,0.63816
691.548,223.134,-3.47047,0.04067643,0.63751
692.148,223.336,-3.47145,0.03737005,0.63687
692.748,223.538,-3.47105,0.0400753,0.63623
693.348,223.741,-3.47114,0.0391402,0.63558
693.948,223.945,-3.47245,0.0369328,0.63494
694.548,224.1466,-3.47014,0.03724046,0.63429
695.148,224.348,-3.47194,0.03807353,0.63365
695.748,224.549,-3.47146,0.0402777,0.633
696.348,224.75,-3.47113,0.03892404,0.63236
696.948,224.951,-3.47216,0.04022839,0.63171
697.548,225.153,-3.47112,0.0350649,0.63107
698.148,225.355,-3.46986,0.03381465,0.63042
698.748,225.558,-3.47209,0.03655754,0.62978
699.348,225.759,-3.47212,0.03633384,0.62913
699.948,225.962,-3.47217,0.0337846,0.62849
700.548,226.165,-3.47212,0.03608904,0.62784
701.148,226.368,-3.47143,0.03386635,0.62719
701.748,226.569,-3.4726,0.03438353,0.62655
702.348,226.771,-3.47108,0.03315171,0.6259
702.948,226.9717,-3.47245,0.03215015,0.62526
703.548,227.173,-3.47112,0.03641598,0.62461
704.148,227.374,-3.47329,0.0339417,0.62396
704.748,227.576,-3.4718,0.03428702,0.62332
705.348,227.778,-3.47175,0.03352999,0.62267
705.948,227.98,-3.47311,0.03906055,0.62202
706.548,228.183,-3.47309,0.0364696,0.62138
707.148,228.3845,-3.47311,0.03444687,0.62073
707.748,228.587,-3.4748,0.03354174,0.62008
708.348,228.791,-3.47376,0.03069703,0.61944
708.948,228.994,-3.47409,0.03083273,0.61879
709.548,229.197,-3.47506,0.03211928,0.61814
710.148,229.4,-3.47445,0.03045187,0.61749
710.748,229.603,-3.47342,0.03139514,0.61685
711.348,229.806,-3.4749,0.03047996,0.6162
711.948,230.0083,-3.47493,0.03186285,0.61555
712.548,230.21,-3.47487,0.03362132,0.6149
713.148,230.41,-3.47574,0.03608301,0.61425
713.748,230.6103,-3.47442,0.03557254,0.61361
714.348,230.811,-3.47431,0.03596211,0.61296
714.948,231.012,-3.47474,0.03393253,0.61231
715.548,231.213,-3.47592,0.03671076,0.61166
716.148,231.416,-3.47509,0.03446135,0.61101
716.748,231.618,-3.47508,0.03588561,0.61036
717.348,231.821,-3.47524,0.03703454,0.60972
717.948,232.024,-3.47575,0.02850314,0.60907
718.548,232.228,-3.47459,0.02685334,0.60842
719.148,232.432,-3.47673,0.03035606,0.60777
719.748,232.637,-3.47542,0.02831332,0.60712
720.348,232.84,-3.47673,0.03076305,0.60647
720.948,233.044,-3.47573,0.03028985,0.60582
721.548,233.247,-3.47706,0.03093404,0.60517
722.148,233.448,-3.47706,0.03131311,0.60452
722.748,233.65,-3.47706,0.03055758,0.60387
723.348,233.8515,-3.47706,0.03207115,0.60322
723.948,234.054,-3.47836,0.03197722,0.60258
724.548,234.255,-3.47738,0.03379257,0.60193
725.148,234.456,-3.47771,0.03294461,0.60128
725.748,234.658,-3.47784,0.03092655,0.60063
726.348,234.86,-3.47771,0.02852008,0.59998
726.948,235.063,-3.47673,0.03268906,0.59933
727.548,235.266,-3.47804,0.03243855,0.59868
728.148,235.4693,-3.47804,0.03397723,0.59803
728.748,235.673,-3.47804,0.04009575,0.59738
729.348,235.876,-3.47903,0.04100216,0.59673
729.948,236.079,-3.47771,0.03813757,0.59608
730.548,236.281,-3.47863,0.03687128,0.59543
731.148,236.483,-3.47903,0.04008297,0.59478
731.748,236.686,-3.47913,0.04207283,0.59413
732.348,236.889,-3.47865,0.04262523,0.59348
732.948,237.092,-3.47871,0.04047335,0.59283
733.548,237.2956,-3.47936,0.04070812,0.59218
734.148,237.499,-3.47936,0.04051413,0.59152
734.748,237.702,-3.47962,0.0426442,0.59087
735.348,237.9046,-3.48134,0.04228924,0.59022
735.948,238.1066,-3.47936,0.04632752,0.58957
736.548,238.309,-3.48068,0.04647254,0.58892
737.148,238.51,-3.48068,0.04456339,0.58827
737.748,238.712,-3.48068,0.04513391,0.58762
738.348,238.914,-3.47936,0.04614138,0.58697
738.948,239.117,-3.47937,0.04522974,0.58632
739.548,239.318,-3.48067,0.04769875,0.58567
740.148,239.52,-3.48079,0.04964843,0.58502
740.748,239.722,-3.48021,0.04868905,0.58437
741.348,239.924,-3.48171,0.05004714,0.58372
741.948,240.127,-3.48068,0.05486528,0.58307
742.548,240.33,-3.48166,0.05529095,0.58241
743.148,240.533,-3.48031,0.05316106,0.58176
743.748,240.735,-3.48035,0.05405801,0.58111
744.348,240.938,-3.48101,0.05454272,0.58046
744.948,241.141,-3.48032,0.0571877,0.57981
745.548,241.344,-3.48166,0.05573783,0.57916
746.148,241.5463,-3.48167,0.0556532,0.57851
746.748,241.748,-3.48167,0.0529831,0.57786
747.348,241.949,-3.48167,0.05523336,0.57721
747.948,242.15,-3.48266,0.05729435,0.57655
748.548,242.3511,-3.48397,0.05543532,0.5759
749.148,242.553,-3.48171,0.05310137,0.57525
749.748,242.755,-3.48299,0.0551257,0.5746
750.348,242.957,-3.48299,0.05733804,0.57395
750.948,243.16,-3.48377,0.05789564,0.5733
751.448,243.3298,-3.48199,0.05648259,0.57276