File: 01_Data/Cinder_Block/MCC/Cinder_Block_MCC_30K_min_220224_R3.txt
Sample ID:	C:\MCC\MCC Cal\Test\Cinder_Block_MCC_30K_min_220224_R3.txt
Sample Weight (mg):	4.86
Heating Rate (C/s):	0.5
Combustor Temp (C):	900
N2 Flow Rate (cc/min):	80
O2 Flow Rate (cc/min):	20
Calibration File:	C:\MCC\MCC Cal\Coeff1 JN10440_30_210304.txt.txt
T Correction Coefficients:	0	1.024463	0
Time Shift (s):	14
*
Time (s)	Temperature (C)	N2 flow rate (cc/min)	O2 flow rate (cc/min)	Flow Rate (cc/min)	Oxygen (%)	HRR (W/g)	Heating rate (C/s)
0.000	112.640	80.003	19.994	103.759	20.043	0.171	-0.004
1.500	112.621	80.003	19.995	103.760	20.042	0.271	-0.009
3.000	112.637	80.002	19.994	103.759	20.045	0.073	0.026
4.500	112.626	80.002	19.995	103.759	20.042	0.226	-0.028
6.000	112.628	80.001	19.993	103.760	20.044	0.089	0.005
7.500	112.606	80.003	19.996	103.762	20.041	0.295	-0.030
9.000	112.602	80.002	19.995	103.763	20.042	0.271	-0.021
10.500	112.644	80.001	19.996	103.764	20.041	0.300	0.030
12.000	112.623	80.002	19.995	103.763	20.044	0.095	-0.005
13.500	112.599	80.001	19.994	103.762	20.047	-0.053	-0.003
15.000	112.607	79.999	19.994	103.763	20.044	0.115	0.017
16.500	112.610	80.002	19.995	103.771	20.044	0.104	-0.012
18.000	112.637	80.001	19.996	103.793	20.039	0.461	0.034
19.500	112.626	80.001	19.995	103.801	20.040	0.394	-0.011
21.000	112.630	80.002	19.996	103.803	20.041	0.314	-0.004
22.500	112.640	80.002	19.997	103.811	20.037	0.613	0.012
24.000	112.684	80.003	19.995	103.837	20.031	0.970	0.004
25.500	112.703	80.002	19.994	103.855	20.033	0.879	0.017
27.000	112.772	80.003	19.994	103.873	20.030	1.072	0.049
28.500	112.848	80.004	19.993	103.890	20.028	1.209	0.040
30.000	112.920	80.003	19.994	103.913	20.025	1.405	0.043
31.500	112.964	80.003	19.996	103.926	20.019	1.822	0.016
33.001	113.085	80.003	19.992	103.946	20.015	2.049	0.081
34.500	113.238	80.004	19.994	103.964	20.014	2.136	0.123
36.001	113.365	80.004	19.994	103.983	20.008	2.530	0.104
37.500	113.532	80.003	19.995	103.994	20.006	2.675	0.100
39.000	113.779	80.002	19.994	103.992	20.009	2.490	0.161
40.500	113.946	80.002	19.995	103.997	20.002	2.915	0.133
42.000	114.203	80.002	19.993	104.004	20.003	2.855	0.159
43.501	114.418	80.002	19.992	104.004	19.996	3.358	0.153
45.000	114.661	80.003	19.993	104.004	20.000	3.046	0.164
46.500	114.952	80.003	19.992	104.007	19.996	3.304	0.177
48.000	115.237	80.003	19.993	104.017	19.995	3.424	0.197
49.501	115.568	80.004	19.993	104.018	19.997	3.240	0.210
51.000	115.903	80.005	19.994	104.006	19.996	3.303	0.225
52.500	116.210	80.004	19.994	104.011	19.997	3.241	0.209
54.000	116.579	80.004	19.992	104.010	19.994	3.483	0.244
55.500	116.939	80.004	19.993	104.003	19.993	3.516	0.243
57.000	117.356	80.004	19.993	104.017	19.989	3.798	0.281
58.500	117.741	80.004	19.994	104.018	19.992	3.568	0.263
60.000	118.172	80.003	19.993	104.016	19.991	3.688	0.278
61.500	118.586	80.003	19.992	104.029	19.990	3.695	0.274
63.000	119.011	80.003	19.994	104.036	19.989	3.807	0.281
64.501	119.495	80.003	19.994	104.038	19.991	3.632	0.324
66.001	119.924	80.003	19.994	104.038	19.989	3.807	0.293
67.501	120.419	80.003	19.995	104.046	19.986	4.008	0.311
69.000	120.904	80.003	19.993	104.050	19.988	3.894	0.337
70.500	121.403	80.002	19.993	104.037	19.991	3.637	0.332
72.000	121.944	80.004	19.994	104.041	19.988	3.851	0.376
73.500	122.477	80.003	19.994	104.054	19.987	3.910	0.366
75.000	123.016	80.002	19.994	104.062	19.988	3.842	0.355
76.500	123.586	80.003	19.994	104.061	19.990	3.749	0.373
78.000	124.157	80.002	19.994	104.066	19.988	3.880	0.370
79.500	124.743	80.002	19.994	104.054	19.988	3.840	0.373
81.001	125.348	80.003	19.995	104.045	19.988	3.879	0.394
82.501	125.941	80.003	19.997	104.056	19.986	3.965	0.386
84.001	126.535	80.002	19.994	104.067	19.983	4.171	0.379
85.500	127.158	80.002	19.995	104.066	19.986	3.992	0.414
87.000	127.787	80.003	19.996	104.058	19.982	4.253	0.410
88.501	128.462	80.001	19.994	104.056	19.986	3.989	0.439
90.000	129.098	80.002	19.994	104.060	19.988	3.879	0.437
91.500	129.728	80.002	19.995	104.062	19.983	4.193	0.439
93.000	130.391	80.000	19.994	104.073	19.983	4.222	0.434
94.500	131.072	80.002	19.993	104.072	19.982	4.251	0.465
96.000	131.702	80.001	19.996	104.072	19.984	4.136	0.429
97.500	132.375	80.002	19.995	104.072	19.986	4.010	0.444
99.000	133.062	80.001	19.995	104.075	19.984	4.141	0.452
100.500	133.751	80.002	19.995	104.076	19.984	4.111	0.458
102.001	134.431	80.001	19.996	104.073	19.982	4.235	0.459
103.500	135.157	80.003	19.995	104.073	19.981	4.327	0.480
105.000	135.903	80.002	19.995	104.068	19.985	4.095	0.486
106.500	136.549	80.002	19.995	104.064	19.984	4.119	0.433
108.000	137.306	80.004	19.995	104.057	19.983	4.220	0.481
109.500	138.048	80.003	19.995	104.060	19.986	3.964	0.474
111.000	138.770	80.002	19.994	104.066	19.984	4.099	0.496
112.500	139.503	80.003	19.994	104.071	19.983	4.214	0.481
114.001	140.243	80.003	19.996	104.055	19.984	4.099	0.474
115.500	140.960	80.003	19.995	104.051	19.984	4.124	0.489
117.000	141.717	80.003	19.996	104.063	19.983	4.214	0.494
118.500	142.492	80.002	19.996	104.062	19.988	3.840	0.509
120.000	143.226	80.001	19.996	104.049	19.988	3.850	0.488
121.500	144.008	80.003	19.995	104.043	19.987	3.920	0.518
123.000	144.768	80.003	19.994	104.056	19.988	3.832	0.498
124.500	145.490	80.004	19.996	104.052	19.988	3.863	0.507
126.000	146.258	80.003	19.992	104.039	19.983	4.169	0.515
127.500	147.030	80.003	19.993	104.046	19.989	3.770	0.516
129.000	147.785	80.003	19.993	104.054	19.989	3.801	0.479
130.500	148.623	80.005	19.994	104.041	19.984	4.122	0.545
132.000	149.398	80.004	19.994	104.037	19.986	3.967	0.518
133.500	150.192	80.005	19.992	104.040	19.985	4.044	0.507
135.000	150.977	80.006	19.993	104.037	19.988	3.872	0.551
136.500	151.723	80.006	19.994	104.035	19.984	4.149	0.490
138.000	152.475	80.005	19.994	104.038	19.987	3.903	0.487
139.500	153.241	80.006	19.994	104.036	19.987	3.896	0.504
141.000	154.052	80.005	19.994	104.034	19.991	3.646	0.549
142.500	154.780	80.004	19.993	104.035	19.990	3.718	0.491
144.000	155.510	80.003	19.994	104.035	19.991	3.660	0.495
145.501	156.312	80.001	19.994	104.035	19.991	3.653	0.532
147.000	157.059	80.002	19.993	104.036	19.990	3.740	0.509
148.500	157.844	80.003	19.994	104.037	19.986	3.976	0.520
150.000	158.675	80.003	19.993	104.033	19.990	3.726	0.541
151.500	159.368	80.002	19.994	104.029	19.989	3.815	0.467
153.000	160.148	80.003	19.994	104.030	19.989	3.788	0.515
154.500	160.937	80.001	19.993	104.024	19.991	3.656	0.529
156.000	161.728	80.002	19.994	104.025	19.991	3.663	0.541
157.500	162.470	80.002	19.994	104.030	19.993	3.541	0.504
159.000	163.218	80.003	19.994	104.024	19.989	3.774	0.508
160.500	163.971	80.002	19.994	104.030	19.993	3.517	0.492
162.000	164.774	80.003	19.994	104.032	19.994	3.457	0.514
163.500	165.502	80.003	19.994	104.030	19.992	3.575	0.511
165.000	166.301	80.002	19.993	104.017	19.988	3.876	0.515
166.501	167.061	80.002	19.993	104.004	19.993	3.513	0.528
168.000	167.810	80.001	19.992	104.016	19.997	3.291	0.495
169.500	168.544	80.002	19.992	104.015	19.989	3.809	0.494
171.000	169.284	80.001	19.993	104.006	19.996	3.303	0.472
172.500	170.100	80.001	19.993	104.001	19.996	3.334	0.568
174.000	170.843	80.001	19.995	104.003	19.994	3.458	0.493
175.500	171.588	80.002	19.993	104.003	19.993	3.519	0.500
177.001	172.363	80.002	19.994	104.001	19.992	3.599	0.526
178.500	173.052	80.002	19.995	104.001	19.992	3.606	0.466
180.000	173.805	80.001	19.995	104.002	19.994	3.440	0.468
181.500	174.606	80.002	19.996	104.001	20.000	3.083	0.515
183.000	175.339	80.002	19.995	103.997	19.999	3.148	0.498
184.500	176.068	80.004	19.995	103.998	19.996	3.353	0.498
186.000	176.813	80.004	19.996	103.999	19.997	3.291	0.477
187.500	177.586	80.004	19.994	103.998	19.999	3.121	0.502
189.000	178.329	80.004	19.995	103.998	19.998	3.210	0.483
190.500	179.031	80.004	19.995	104.000	19.995	3.416	0.470
192.000	179.804	80.004	19.994	103.998	19.998	3.190	0.507
193.500	180.548	80.005	19.994	103.996	19.997	3.265	0.482
195.000	181.255	80.005	19.995	103.996	20.000	3.090	0.493
196.500	181.996	80.005	19.995	103.996	20.000	3.026	0.499
198.000	182.754	80.004	19.994	103.995	20.000	3.028	0.505
199.500	183.482	80.003	19.993	103.994	20.002	2.957	0.483
201.000	184.231	80.003	19.994	103.992	20.002	2.947	0.508
202.500	184.921	80.003	19.994	103.993	20.001	3.013	0.486
204.000	185.661	80.004	19.995	103.997	20.000	3.057	0.487
205.500	186.439	80.003	19.995	103.996	20.001	2.973	0.529
207.000	187.172	80.003	19.996	103.996	20.002	2.957	0.496
208.500	187.914	80.004	19.995	103.996	20.001	2.995	0.490
210.000	188.622	80.004	19.995	103.995	19.999	3.103	0.487
211.500	189.368	80.005	19.995	103.992	20.000	3.041	0.493
213.000	190.113	80.005	19.995	103.989	20.002	2.916	0.478
214.500	190.745	80.005	19.994	103.988	20.003	2.831	0.461
216.000	191.529	80.005	19.996	103.996	20.002	2.927	0.512
217.500	192.216	80.005	19.995	103.992	20.001	3.019	0.476
219.000	192.959	80.005	19.995	103.992	20.003	2.858	0.478
220.500	193.644	80.005	19.994	103.995	20.005	2.748	0.464
222.000	194.389	80.004	19.994	103.996	20.004	2.778	0.499
223.500	195.142	80.005	19.995	103.994	20.003	2.840	0.528
225.000	195.833	80.004	19.994	103.994	20.003	2.876	0.475
226.500	196.555	80.003	19.992	103.994	20.005	2.745	0.471
228.000	197.259	80.003	19.994	103.991	20.002	2.893	0.481
229.500	197.996	80.003	19.993	103.987	20.005	2.730	0.505
231.000	198.686	80.003	19.994	103.979	20.002	2.957	0.458
232.501	199.410	80.003	19.993	103.990	20.001	2.991	0.486
234.000	200.125	80.003	19.994	103.997	20.000	3.037	0.496
235.500	200.846	80.002	19.993	103.993	20.002	2.929	0.487
237.000	201.594	80.003	19.994	103.993	20.000	3.068	0.482
238.500	202.303	80.002	19.994	103.997	19.999	3.123	0.465
240.000	203.028	80.002	19.994	103.994	20.002	2.916	0.475
241.500	203.734	80.003	19.994	103.990	20.001	2.971	0.465
243.000	204.446	80.003	19.994	103.991	19.998	3.166	0.501
244.500	205.166	80.003	19.993	103.994	19.998	3.183	0.471
246.000	205.881	80.003	19.995	103.992	20.001	2.993	0.475
247.500	206.642	80.004	19.993	103.985	19.999	3.152	0.505
249.000	207.360	80.002	19.993	103.989	20.003	2.889	0.452
250.501	208.076	80.004	19.995	103.991	20.000	3.048	0.456
252.000	208.815	80.003	19.993	103.989	20.001	2.993	0.513
253.500	209.538	80.003	19.993	103.988	20.000	3.073	0.468
255.000	210.233	80.003	19.993	103.991	20.005	2.720	0.469
256.500	210.943	80.003	19.993	103.990	20.000	3.044	0.495
258.000	211.710	80.003	19.994	103.993	19.999	3.122	0.489
259.500	212.436	80.003	19.994	103.993	20.000	3.068	0.486
261.000	213.169	80.003	19.995	103.994	20.002	2.924	0.493
262.500	213.894	80.002	19.994	103.992	19.998	3.216	0.493
264.000	214.646	80.002	19.994	103.992	20.002	2.937	0.497
265.500	215.365	80.004	19.993	103.994	20.001	3.006	0.491
267.000	216.105	80.002	19.994	103.991	20.003	2.876	0.482
268.500	216.850	80.003	19.994	103.975	20.003	2.875	0.505
270.000	217.555	80.004	19.995	103.976	19.999	3.121	0.452
271.500	218.299	80.003	19.994	103.983	20.003	2.874	0.483
273.000	219.022	80.003	19.995	103.990	20.000	3.042	0.474
274.500	219.767	80.005	19.994	103.994	20.000	3.080	0.497
276.000	220.480	80.005	19.996	103.991	20.003	2.862	0.472
277.500	221.219	80.006	19.994	103.991	20.004	2.809	0.491
279.000	221.959	80.005	19.996	103.991	19.998	3.219	0.478
280.500	222.719	80.005	19.994	103.990	19.999	3.106	0.493
282.000	223.478	80.006	19.994	103.990	20.000	3.071	0.508
283.500	224.213	80.003	19.994	103.992	20.001	2.967	0.481
285.000	224.919	80.005	19.995	103.988	20.001	3.024	0.498
286.500	225.672	80.004	19.994	103.982	19.999	3.111	0.515
288.000	226.455	80.003	19.994	103.985	19.998	3.166	0.523
289.500	227.158	80.005	19.995	103.992	20.000	3.090	0.469
291.000	227.954	80.004	19.995	103.989	20.003	2.891	0.513
292.500	228.703	80.004	19.994	103.983	20.002	2.911	0.496
294.000	229.470	80.003	19.993	103.982	20.004	2.781	0.529
295.500	230.234	80.004	19.994	103.984	20.002	2.916	0.516
297.000	231.003	80.006	19.994	103.982	20.000	3.038	0.492
298.500	231.734	80.005	19.994	103.976	20.003	2.842	0.470
300.000	232.477	80.006	19.995	103.980	20.005	2.697	0.495
301.500	233.229	80.005	19.993	103.993	20.004	2.810	0.478
303.000	233.976	80.004	19.995	103.983	20.001	2.964	0.502
304.500	234.749	80.003	19.996	103.974	20.006	2.684	0.499
306.000	235.524	80.004	19.994	103.978	20.004	2.782	0.526
307.500	236.277	80.004	19.995	103.982	20.002	2.952	0.505
309.001	237.044	80.002	19.995	103.989	20.004	2.781	0.503
310.500	237.815	80.003	19.995	103.985	20.003	2.863	0.492
312.000	238.549	80.004	19.993	103.976	20.001	2.996	0.482
313.500	239.316	80.003	19.995	103.981	20.004	2.812	0.494
315.000	240.052	80.003	19.993	103.972	20.004	2.823	0.486
316.500	240.783	80.002	19.993	103.958	20.008	2.522	0.499
318.000	241.535	80.002	19.994	103.959	20.001	2.989	0.501
319.500	242.313	80.003	19.993	103.960	20.002	2.916	0.532
321.000	243.043	80.003	19.992	103.959	20.003	2.888	0.483
322.500	243.830	80.003	19.995	103.957	20.001	2.972	0.539
324.000	244.555	80.003	19.995	103.959	20.004	2.777	0.472
325.500	245.368	80.002	19.993	103.962	20.002	2.923	0.532
327.000	246.111	80.003	19.992	103.966	20.004	2.823	0.524
328.500	246.850	80.003	19.992	103.964	20.009	2.484	0.482
330.000	247.584	80.002	19.993	103.961	20.001	2.985	0.503
331.500	248.334	80.003	19.994	103.965	20.008	2.542	0.504
333.000	249.094	80.002	19.994	103.958	20.008	2.525	0.488
334.500	249.890	80.004	19.993	103.961	20.005	2.693	0.535
336.000	250.617	80.003	19.994	103.970	20.005	2.726	0.500
337.500	251.383	80.004	19.993	103.963	20.003	2.850	0.503
339.000	252.172	80.003	19.996	103.967	20.001	2.961	0.521
340.500	252.885	80.003	19.995	103.981	20.007	2.604	0.469
342.000	253.679	80.002	19.995	103.967	20.003	2.887	0.515
343.500	254.420	80.003	19.995	103.960	19.999	3.149	0.499
345.000	255.184	80.003	19.995	103.966	20.001	2.978	0.516
346.500	255.916	80.003	19.995	103.961	20.003	2.837	0.502
348.000	256.687	80.002	19.993	103.961	20.001	2.999	0.496
349.500	257.403	80.003	19.994	103.961	20.002	2.892	0.459
351.000	258.124	80.003	19.995	103.960	20.004	2.802	0.492
352.500	258.932	80.005	19.993	103.963	20.007	2.613	0.544
354.000	259.618	80.004	19.994	103.962	20.002	2.903	0.461
355.500	260.404	80.004	19.995	103.960	19.999	3.158	0.499
357.000	261.113	80.006	19.993	103.961	20.004	2.817	0.480
358.500	261.867	80.005	19.993	103.960	19.999	3.136	0.496
360.000	262.606	80.005	19.993	103.960	20.004	2.797	0.505
361.500	263.353	80.004	19.993	103.959	20.003	2.850	0.501
363.001	264.089	80.004	19.994	103.959	20.000	3.025	0.496
364.500	264.826	80.002	19.995	103.962	20.005	2.741	0.493
366.000	265.604	80.003	19.995	103.965	20.005	2.693	0.521
367.500	266.333	80.004	19.995	103.963	20.003	2.864	0.473
369.000	267.035	80.003	19.994	103.961	20.001	2.983	0.462
370.500	267.836	80.004	19.995	103.960	20.004	2.824	0.538
372.000	268.581	80.004	19.994	103.960	20.000	3.043	0.496
373.500	269.322	80.006	19.994	103.959	20.001	2.983	0.492
375.000	270.083	80.005	19.996	103.958	20.004	2.821	0.493
376.500	270.837	80.004	19.994	103.961	20.006	2.658	0.532
378.000	271.625	80.006	19.994	103.960	20.002	2.925	0.534
379.500	272.356	80.006	19.993	103.956	20.000	3.065	0.507
381.000	273.136	80.006	19.995	103.957	20.002	2.903	0.506
382.500	273.871	80.006	19.994	103.957	20.003	2.850	0.503
384.000	274.614	80.006	19.994	103.954	20.003	2.854	0.516
385.500	275.351	80.006	19.995	103.953	20.007	2.619	0.490
387.000	276.080	80.006	19.994	103.957	20.005	2.724	0.463
388.500	276.856	80.005	19.994	103.956	19.999	3.116	0.528
390.000	277.636	80.003	19.995	103.956	20.006	2.648	0.526
391.500	278.408	80.003	19.993	103.956	20.002	2.903	0.514
393.000	279.138	80.004	19.994	103.958	20.006	2.646	0.490
394.500	279.924	80.002	19.994	103.957	20.005	2.710	0.496
396.000	280.642	80.003	19.995	103.962	20.002	2.947	0.493
397.500	281.393	80.003	19.995	103.964	20.002	2.893	0.512
399.000	282.174	80.003	19.995	103.962	20.007	2.596	0.520
400.501	282.938	80.003	19.996	103.970	20.006	2.673	0.484
402.000	283.704	80.003	19.996	103.957	20.004	2.808	0.510
403.500	284.448	80.003	19.995	103.956	20.003	2.843	0.506
405.000	285.256	80.004	19.994	103.960	20.004	2.822	0.540
406.501	286.006	80.004	19.994	103.961	20.003	2.864	0.505
408.000	286.777	80.004	19.993	103.952	20.001	3.003	0.499
409.500	287.581	80.005	19.994	103.955	20.005	2.748	0.533
411.000	288.304	80.004	19.994	103.956	20.002	2.941	0.491
412.500	289.120	80.004	19.994	103.958	20.003	2.874	0.539
414.000	289.860	80.004	19.994	103.959	20.002	2.903	0.456
415.500	290.625	80.003	19.994	103.954	20.004	2.760	0.515
417.000	291.410	80.004	19.993	103.954	20.002	2.921	0.523
418.500	292.196	80.003	19.993	103.959	20.005	2.702	0.525
420.000	292.933	80.002	19.994	103.958	20.002	2.897	0.493
421.500	293.739	80.003	19.994	103.959	20.006	2.629	0.532
423.000	294.468	80.002	19.994	103.959	20.002	2.910	0.468
424.500	295.248	80.003	19.994	103.961	20.003	2.861	0.512
426.000	296.002	80.003	19.994	103.955	20.002	2.957	0.504
427.500	296.750	80.003	19.993	103.954	20.006	2.689	0.485
429.000	297.517	80.003	19.994	103.958	20.003	2.874	0.525
430.500	298.294	80.003	19.993	103.958	20.005	2.740	0.518
432.000	299.054	80.002	19.993	103.956	20.003	2.890	0.510
433.500	299.839	80.003	19.993	103.957	20.001	2.963	0.527
435.000	300.611	80.004	19.993	103.957	19.999	3.109	0.524
436.500	301.335	80.005	19.993	103.955	20.007	2.587	0.486
438.000	302.111	80.006	19.994	103.958	20.000	3.030	0.516
439.500	302.885	80.006	19.993	103.958	20.003	2.882	0.508
441.000	303.620	80.005	19.994	103.955	20.005	2.745	0.499
442.500	304.389	80.005	19.993	103.955	20.004	2.795	0.528
444.000	305.144	80.006	19.994	103.945	20.004	2.788	0.511
445.500	305.872	80.005	19.993	103.948	20.003	2.833	0.479
447.000	306.620	80.005	19.994	103.951	20.005	2.745	0.493
448.500	307.389	80.004	19.993	103.940	20.005	2.698	0.518
450.000	308.094	80.004	19.993	103.942	20.005	2.713	0.477
451.501	308.865	80.004	19.993	103.943	20.004	2.784	0.513
453.000	309.633	80.003	19.994	103.942	20.005	2.755	0.498
454.500	310.395	80.004	19.995	103.955	19.999	3.103	0.513
456.000	311.177	80.005	19.994	103.948	20.003	2.839	0.514
457.500	311.925	80.005	19.994	103.930	20.005	2.724	0.485
459.000	312.719	80.006	19.995	103.946	20.001	2.959	0.525
460.500	313.459	80.005	19.993	103.954	20.003	2.826	0.509
462.000	314.215	80.006	19.995	103.948	20.003	2.842	0.511
463.500	314.953	80.005	19.993	103.948	20.003	2.873	0.477
465.000	315.716	80.007	19.994	103.953	20.002	2.953	0.492
466.500	316.482	80.007	19.996	103.947	20.002	2.906	0.526
468.000	317.241	80.006	19.996	103.950	20.004	2.813	0.487
469.500	317.992	80.006	19.994	103.945	20.003	2.846	0.511
471.000	318.740	80.003	19.994	103.949	20.007	2.623	0.492
472.500	319.473	80.004	19.994	103.947	20.004	2.775	0.504
474.000	320.207	80.004	19.994	103.946	20.007	2.574	0.497
475.500	320.993	80.004	19.995	103.947	20.005	2.746	0.512
477.000	321.759	80.002	19.994	103.942	20.002	2.953	0.527
478.500	322.512	80.002	19.994	103.943	20.005	2.709	0.508
480.000	323.258	80.002	19.994	103.938	20.006	2.667	0.490
481.500	324.023	80.003	19.995	103.938	20.001	2.990	0.509
483.000	324.765	80.002	19.993	103.935	20.005	2.694	0.482
484.500	325.531	80.003	19.995	103.943	20.005	2.693	0.501
486.000	326.269	80.003	19.993	103.951	20.004	2.811	0.498
487.500	327.066	80.002	19.994	103.941	20.003	2.846	0.540
489.000	327.813	80.003	19.995	103.932	20.008	2.523	0.494
490.500	328.540	80.003	19.994	103.935	20.004	2.779	0.497
492.000	329.337	80.002	19.994	103.941	20.001	2.970	0.518
493.500	330.050	80.003	19.994	103.932	20.005	2.744	0.495
495.000	330.843	80.002	19.994	103.942	20.004	2.802	0.511
496.500	331.609	80.003	19.993	103.939	20.008	2.538	0.482
498.000	332.346	80.002	19.994	103.947	20.004	2.824	0.506
499.500	333.133	80.004	19.993	103.944	20.003	2.826	0.512
501.000	333.886	80.003	19.993	103.948	20.003	2.888	0.514
502.500	334.642	80.002	19.993	103.949	19.998	3.211	0.512
504.000	335.401	80.003	19.994	103.952	20.002	2.954	0.523
505.500	336.166	80.004	19.994	103.953	20.005	2.757	0.525
507.000	336.912	80.002	19.994	103.938	20.000	3.074	0.515
508.500	337.669	80.004	19.994	103.943	20.007	2.616	0.517
510.000	338.457	80.003	19.993	103.949	20.007	2.621	0.533
511.500	339.160	80.004	19.993	103.949	20.009	2.465	0.477
513.000	339.923	80.004	19.994	103.953	20.008	2.503	0.502
514.500	340.670	80.003	19.993	103.954	20.005	2.704	0.499
516.000	341.424	80.004	19.994	103.949	20.013	2.158	0.496
517.500	342.148	80.005	19.994	103.944	20.016	1.965	0.499
519.000	342.923	80.005	19.996	103.951	20.010	2.412	0.496
520.500	343.654	80.005	19.994	103.940	20.009	2.456	0.493
522.000	344.409	80.005	19.994	103.940	20.016	1.983	0.497
523.500	345.102	80.004	19.993	103.939	20.011	2.335	0.474
525.000	345.927	80.004	19.993	103.935	19.999	3.152	0.535
526.500	346.687	80.005	19.995	103.943	20.001	2.995	0.528
528.000	347.401	80.004	19.993	103.936	20.002	2.935	0.476
529.500	348.143	80.004	19.994	103.945	20.000	3.072	0.543
531.000	348.858	80.006	19.992	103.946	20.007	2.567	0.482
532.500	349.657	80.005	19.993	103.928	20.009	2.467	0.525
534.000	350.422	80.005	19.993	103.928	20.011	2.303	0.497
535.500	351.160	80.004	19.993	103.943	20.001	2.964	0.496
537.000	351.931	80.005	19.993	103.939	20.007	2.598	0.529
538.500	352.696	80.004	19.993	103.929	20.007	2.567	0.505
540.000	353.497	80.005	19.993	103.934	20.005	2.738	0.533
541.500	354.187	80.005	19.994	103.936	20.006	2.664	0.493
543.000	354.920	80.005	19.994	103.937	20.002	2.904	0.507
544.500	355.658	80.006	19.992	103.950	20.004	2.771	0.497
546.000	356.460	80.006	19.993	103.944	20.001	2.963	0.539
547.500	357.159	80.005	19.992	103.934	20.002	2.897	0.487
549.000	357.939	80.005	19.994	103.939	20.001	2.980	0.512
550.500	358.707	80.005	19.993	103.938	20.004	2.813	0.516
552.000	359.446	80.005	19.994	103.944	20.001	2.973	0.498
553.500	360.219	80.004	19.994	103.943	20.001	3.010	0.515
555.000	360.965	80.003	19.994	103.932	19.999	3.132	0.451
556.500	361.740	80.003	19.995	103.944	20.002	2.924	0.491
558.000	362.490	80.003	19.995	103.945	20.002	2.924	0.511
559.500	363.239	80.002	19.995	103.935	19.999	3.152	0.507
561.000	363.992	80.002	19.995	103.927	20.003	2.839	0.492
562.500	364.722	80.001	19.994	103.934	20.000	3.075	0.487
564.000	365.493	80.002	19.994	103.936	20.001	3.010	0.506
565.500	366.267	80.003	19.994	103.932	19.998	3.216	0.514
567.000	367.018	80.001	19.994	103.940	20.002	2.950	0.509
568.500	367.748	80.003	19.995	103.936	19.998	3.199	0.465
570.000	368.526	80.002	19.993	103.937	20.003	2.881	0.507
571.500	369.312	80.002	19.995	103.944	19.998	3.164	0.523
573.000	370.051	80.002	19.994	103.939	20.001	2.986	0.504
574.500	370.803	80.004	19.996	103.938	20.000	3.048	0.501
576.000	371.558	80.004	19.994	103.940	20.000	3.086	0.501
577.500	372.301	80.002	19.995	103.941	20.001	3.013	0.512
579.000	373.102	80.003	19.996	103.937	19.999	3.125	0.523
580.500	373.886	80.003	19.995	103.948	19.996	3.345	0.530
582.000	374.643	80.002	19.995	103.930	19.996	3.328	0.488
583.500	375.411	80.002	19.995	103.932	19.997	3.270	0.493
585.000	376.165	80.003	19.994	103.937	19.998	3.208	0.512
586.500	376.948	80.002	19.995	103.922	20.001	2.972	0.526
588.000	377.718	80.002	19.994	103.922	20.002	2.946	0.504
589.500	378.434	80.002	19.996	103.941	20.000	3.058	0.475
591.000	379.241	80.003	19.995	103.939	20.002	2.953	0.537
592.500	379.982	80.002	19.995	103.929	19.998	3.210	0.479
594.000	380.751	80.004	19.994	103.936	20.001	2.982	0.508
595.500	381.477	80.003	19.994	103.939	20.003	2.868	0.494
597.000	382.255	80.004	19.994	103.936	19.998	3.175	0.505
598.500	383.048	80.004	19.995	103.938	20.000	3.051	0.533
600.000	383.790	80.004	19.994	103.923	20.000	3.073	0.492
601.500	384.592	80.004	19.993	103.929	20.003	2.825	0.521
603.000	385.323	80.005	19.993	103.934	19.998	3.183	0.486
604.500	386.127	80.004	19.994	103.929	20.002	2.891	0.523
606.000	386.869	80.005	19.994	103.936	19.998	3.210	0.494
607.500	387.626	80.005	19.993	103.934	20.002	2.928	0.523
609.000	388.396	80.004	19.994	103.925	19.998	3.179	0.531
610.500	389.178	80.004	19.994	103.932	20.003	2.843	0.527
612.000	389.869	80.003	19.993	103.931	20.001	3.000	0.467
613.500	390.683	80.003	19.993	103.932	20.000	3.068	0.546
615.000	391.440	80.002	19.995	103.942	20.001	2.984	0.500
616.500	392.194	80.003	19.994	103.942	20.001	3.004	0.510
618.000	392.983	80.004	19.993	103.943	20.002	2.946	0.504
619.500	393.776	80.003	19.994	103.926	20.001	2.969	0.516
621.000	394.537	80.003	19.993	103.921	20.000	3.053	0.492
622.500	395.301	80.004	19.993	103.924	20.001	2.958	0.505
624.000	396.074	80.005	19.993	103.929	20.001	3.002	0.535
625.500	396.869	80.005	19.993	103.932	19.999	3.104	0.529
627.000	397.622	80.005	19.994	103.939	20.001	3.006	0.507
628.500	398.384	80.006	19.992	103.928	20.000	3.050	0.483
630.000	399.162	80.007	19.993	103.925	19.998	3.181	0.511
631.500	399.913	80.004	19.993	103.924	19.997	3.247	0.508
633.000	400.659	80.005	19.992	103.926	19.999	3.124	0.508
634.500	401.417	80.005	19.992	103.924	19.998	3.192	0.523
636.000	402.169	80.003	19.994	103.926	19.998	3.177	0.489
637.500	402.974	80.003	19.993	103.932	20.000	3.075	0.540
639.000	403.729	80.004	19.995	103.927	20.001	3.000	0.524
640.500	404.465	80.003	19.994	103.930	20.001	3.000	0.479
642.000	405.211	80.003	19.995	103.933	20.000	3.082	0.490
643.500	406.010	80.004	19.995	103.931	20.003	2.827	0.512
645.000	406.778	80.003	19.994	103.924	20.000	3.033	0.495
646.500	407.518	80.003	19.994	103.926	20.003	2.874	0.503
648.000	408.275	80.003	19.994	103.925	20.005	2.725	0.498
649.500	409.049	80.003	19.996	103.922	20.001	3.007	0.510
651.000	409.822	80.002	19.994	103.920	20.001	3.000	0.515
652.500	410.558	80.004	19.994	103.929	20.000	3.051	0.499
654.000	411.316	80.004	19.995	103.925	20.000	3.029	0.508
655.500	412.121	80.005	19.994	103.918	20.000	3.033	0.526
657.000	412.853	80.003	19.994	103.922	20.000	3.080	0.499
658.500	413.619	80.005	19.995	103.922	20.003	2.858	0.496
660.000	414.342	80.004	19.994	103.919	20.000	3.082	0.500
661.500	415.120	80.003	19.994	103.920	20.000	3.030	0.509
663.000	415.839	80.004	19.993	103.923	19.998	3.185	0.500
664.500	416.620	80.002	19.993	103.928	20.000	3.064	0.524
666.000	417.384	80.002	19.992	103.922	20.000	3.057	0.507
667.500	418.156	80.002	19.994	103.923	20.000	3.046	0.497
669.000	418.905	80.002	19.994	103.928	20.002	2.936	0.509
670.500	419.664	80.003	19.995	103.923	19.999	3.134	0.510
672.000	420.446	80.002	19.996	103.934	20.001	3.004	0.519
673.500	421.189	80.002	19.995	103.936	19.998	3.219	0.500
675.000	421.950	80.004	19.995	103.922	19.999	3.110	0.497
676.500	422.701	80.002	19.995	103.922	20.002	2.911	0.487
678.000	423.439	80.003	19.995	103.921	19.996	3.356	0.491
679.500	424.181	80.003	19.996	103.925	20.004	2.798	0.491
681.000	424.921	80.004	19.994	103.931	19.999	3.119	0.502
682.500	425.736	80.004	19.996	103.939	19.998	3.199	0.530
684.000	426.487	80.004	19.996	103.927	20.001	2.966	0.501
685.500	427.267	80.004	19.995	103.923	20.001	2.993	0.509
687.000	428.014	80.005	19.994	103.922	19.998	3.223	0.504
688.500	428.757	80.004	19.995	103.924	19.999	3.112	0.497
690.000	429.521	80.004	19.992	103.931	19.998	3.190	0.497
691.500	430.291	80.003	19.994	103.926	20.002	2.905	0.519
693.000	431.035	80.002	19.993	103.932	20.004	2.778	0.506
694.500	431.811	80.004	19.992	103.937	20.003	2.851	0.516
696.000	432.582	80.003	19.994	103.929	19.999	3.110	0.516
697.500	433.351	80.002	19.992	103.925	19.997	3.264	0.499
699.000	434.120	80.003	19.994	103.941	19.997	3.233	0.534
700.500	434.898	80.004	19.993	103.938	19.996	3.325	0.531
702.001	435.656	80.005	19.993	103.922	19.998	3.164	0.516
703.500	436.424	80.005	19.995	103.922	20.000	3.028	0.517
705.000	437.199	80.006	19.995	103.923	19.999	3.151	0.526
706.500	437.961	80.005	19.993	103.929	20.000	3.060	0.527
708.000	438.727	80.006	19.993	103.922	20.001	3.006	0.510
709.500	439.487	80.005	19.994	103.918	20.001	2.958	0.507
711.000	440.210	80.005	19.994	103.918	19.997	3.246	0.493
712.500	441.020	80.006	19.994	103.923	20.000	3.038	0.539
714.000	441.718	80.005	19.994	103.924	20.001	2.962	0.474
715.500	442.503	80.006	19.994	103.917	19.997	3.247	0.515
717.000	443.283	80.006	19.993	103.915	20.003	2.889	0.521
718.500	444.011	80.004	19.993	103.921	20.002	2.948	0.490
720.000	444.788	80.004	19.995	103.923	20.001	3.017	0.513
721.500	445.515	80.003	19.995	103.920	20.002	2.949	0.489
723.000	446.309	80.003	19.992	103.919	20.000	3.037	0.523
724.500	447.037	80.004	19.993	103.933	19.999	3.138	0.507
726.000	447.807	80.003	19.994	103.941	20.000	3.061	0.509
727.500	448.597	80.003	19.994	103.931	20.000	3.073	0.513
729.000	449.365	80.002	19.994	103.933	19.997	3.259	0.507
730.500	450.104	80.004	19.994	103.927	19.998	3.184	0.519
732.000	450.878	80.004	19.994	103.927	19.999	3.135	0.517
733.500	451.639	80.004	19.993	103.936	20.000	3.063	0.504
735.000	452.409	80.004	19.994	103.941	20.001	3.015	0.509
736.500	453.182	80.003	19.993	103.943	20.001	2.964	0.510
738.000	453.941	80.004	19.995	103.931	20.001	3.022	0.505
739.500	454.743	80.004	19.994	103.921	19.999	3.144	0.523
741.000	455.535	80.003	19.993	103.926	19.999	3.141	0.522
742.500	456.294	80.002	19.995	103.930	20.001	2.995	0.511
744.000	457.068	80.001	19.995	103.936	20.001	2.964	0.530
745.500	457.821	80.003	19.995	103.935	19.999	3.115	0.516
747.000	458.583	80.003	19.994	103.924	19.997	3.225	0.521
748.500	459.416	80.002	19.994	103.921	19.998	3.214	0.551
750.000	460.169	80.003	19.994	103.922	19.998	3.186	0.518
751.500	460.951	80.002	19.994	103.922	20.001	2.997	0.530
753.000	461.741	80.003	19.994	103.922	19.996	3.294	0.533
754.500	462.516	80.002	19.994	103.924	19.998	3.162	0.516
756.000	463.309	80.001	19.994	103.927	19.996	3.330	0.528
757.500	464.082	80.003	19.994	103.928	19.999	3.148	0.534
759.000	464.840	80.001	19.996	103.932	19.997	3.261	0.524
760.500	465.621	80.003	19.995	103.937	19.997	3.244	0.500
762.000	466.397	80.002	19.993	103.923	19.997	3.231	0.515
763.500	467.217	80.003	19.994	103.922	19.997	3.250	0.536
765.000	467.935	80.004	19.994	103.924	19.998	3.206	0.507
766.500	468.752	80.003	19.994	103.923	19.998	3.162	0.536
768.000	469.491	80.002	19.996	103.925	19.996	3.292	0.505
769.500	470.266	80.003	19.995	103.919	19.997	3.226	0.514
771.000	471.071	80.005	19.995	103.918	19.994	3.425	0.526
772.500	471.843	80.005	19.995	103.918	19.993	3.499	0.494
774.000	472.592	80.003	19.996	103.916	19.997	3.283	0.504
775.500	473.396	80.003	19.995	103.916	19.995	3.392	0.536
777.000	474.196	80.004	19.995	103.920	19.997	3.273	0.546
778.500	474.937	80.005	19.995	103.921	19.997	3.241	0.500
780.000	475.715	80.005	19.993	103.920	19.996	3.299	0.512
781.500	476.519	80.004	19.994	103.923	19.995	3.392	0.534
783.000	477.251	80.004	19.993	103.920	19.998	3.188	0.486
784.500	478.006	80.006	19.995	103.918	19.994	3.456	0.490
786.000	478.803	80.005	19.994	103.919	19.994	3.491	0.520
787.500	479.566	80.004	19.995	103.918	19.999	3.135	0.525
789.000	480.353	80.006	19.993	103.917	19.995	3.376	0.522
790.500	481.097	80.004	19.994	103.921	19.998	3.199	0.505
792.000	481.876	80.007	19.995	103.922	19.997	3.228	0.527
793.500	482.619	80.006	19.994	103.917	19.996	3.346	0.494
795.000	483.415	80.006	19.994	103.917	19.993	3.505	0.512
796.500	484.151	80.006	19.995	103.922	19.997	3.250	0.479
798.000	484.896	80.005	19.994	103.928	20.001	2.969	0.509
799.500	485.662	80.004	19.994	103.920	20.000	3.062	0.492
801.000	486.470	80.003	19.994	103.918	19.997	3.257	0.539
802.500	487.255	80.002	19.994	103.918	19.995	3.376	0.526
804.000	488.000	80.002	19.995	103.919	19.998	3.164	0.514
805.500	488.779	80.003	19.994	103.923	19.993	3.543	0.509
807.000	489.533	80.003	19.995	103.923	19.993	3.525	0.511
808.500	490.288	80.002	19.994	103.921	19.992	3.585	0.494
810.000	491.087	80.002	19.996	103.921	19.996	3.343	0.510
811.500	491.844	80.003	19.994	103.921	19.997	3.259	0.528
813.000	492.601	80.005	19.993	103.925	19.997	3.268	0.499
814.500	493.340	80.003	19.994	103.923	19.997	3.290	0.472
816.000	494.115	80.003	19.992	103.922	19.994	3.491	0.526
817.500	494.911	80.002	19.994	103.921	19.997	3.277	0.528
819.000	495.696	80.003	19.995	103.922	19.994	3.458	0.528
820.500	496.391	80.003	19.994	103.922	19.995	3.423	0.486
822.000	497.196	80.005	19.992	103.920	19.998	3.201	0.535
823.500	497.936	80.004	19.993	103.920	19.997	3.264	0.497
825.000	498.738	80.003	19.994	103.922	19.993	3.494	0.520
826.500	499.487	80.004	19.993	103.922	19.993	3.510	0.502
828.000	500.268	80.002	19.994	103.922	19.994	3.450	0.518
829.500	501.065	80.003	19.994	103.921	19.992	3.580	0.516
831.000	501.787	80.003	19.993	103.921	19.995	3.399	0.504
832.500	502.564	80.003	19.993	103.920	19.992	3.591	0.511
834.000	503.354	80.004	19.994	103.918	19.996	3.348	0.533
835.500	504.068	80.004	19.994	103.919	19.994	3.450	0.474
837.000	504.854	80.003	19.994	103.919	19.995	3.385	0.528
838.500	505.645	80.001	19.997	103.918	19.994	3.445	0.527
840.000	506.383	80.002	19.995	103.918	19.994	3.430	0.483
841.500	507.138	80.001	19.995	103.918	19.993	3.536	0.512
843.000	507.926	80.003	19.996	103.916	19.993	3.545	0.528
844.500	508.683	80.005	19.995	103.917	19.992	3.581	0.499
846.000	509.485	80.005	19.995	103.918	19.996	3.299	0.508
847.500	510.252	80.005	19.995	103.918	19.997	3.261	0.538
849.000	511.004	80.005	19.995	103.918	19.993	3.554	0.497
850.500	511.758	80.005	19.995	103.919	19.994	3.467	0.503
852.000	512.488	80.005	19.993	103.916	19.995	3.421	0.493
853.500	513.269	80.004	19.994	103.906	19.997	3.228	0.530
855.000	514.040	80.005	19.994	103.910	19.994	3.447	0.502
856.500	514.826	80.005	19.995	103.920	19.995	3.418	0.548
858.000	515.618	80.001	19.994	103.920	19.996	3.328	0.537
859.500	516.355	80.005	19.995	103.918	19.996	3.314	0.473
861.000	517.150	80.002	19.994	103.915	19.997	3.263	0.522
862.500	517.832	80.003	19.995	103.913	19.998	3.197	0.469
864.000	518.592	80.003	19.994	103.916	19.996	3.315	0.493
865.500	519.380	80.003	19.994	103.920	19.997	3.259	0.509
867.000	520.154	80.003	19.996	103.919	20.000	3.076	0.531
868.500	520.893	80.004	19.995	103.919	19.996	3.310	0.490
870.000	521.659	80.003	19.994	103.917	19.994	3.448	0.517
871.500	522.426	80.005	19.994	103.920	19.996	3.314	0.508
873.000	523.225	80.004	19.995	103.919	19.993	3.499	0.550
874.500	523.947	80.005	19.995	103.918	19.991	3.660	0.503
876.000	524.703	80.006	19.993	103.920	19.992	3.563	0.512
877.500	525.487	80.004	19.994	103.919	19.992	3.607	0.512
879.000	526.241	80.006	19.995	103.914	19.995	3.374	0.496
880.500	527.029	80.006	19.993	103.918	19.997	3.263	0.513
882.000	527.788	80.005	19.992	103.918	19.996	3.325	0.503
883.500	528.538	80.004	19.994	103.917	19.994	3.425	0.498
885.000	529.315	80.005	19.993	103.916	19.994	3.461	0.508
886.500	530.061	80.004	19.993	103.921	19.995	3.399	0.499
888.000	530.870	80.003	19.993	103.921	19.994	3.425	0.543
889.500	531.612	80.003	19.993	103.922	19.998	3.160	0.520
891.000	532.390	80.003	19.992	103.922	19.996	3.299	0.494
892.500	533.148	80.003	19.994	103.922	19.996	3.330	0.510
894.000	533.911	80.003	19.994	103.923	19.993	3.525	0.515
895.500	534.726	80.002	19.993	103.920	19.994	3.425	0.531
897.000	535.512	80.003	19.992	103.919	19.997	3.246	0.523
898.500	536.295	80.001	19.994	103.919	19.994	3.447	0.521
900.000	537.051	80.001	19.994	103.918	19.997	3.239	0.509
901.500	537.868	80.002	19.994	103.917	19.997	3.272	0.543
903.000	538.605	80.001	19.994	103.917	19.995	3.407	0.487
904.500	539.386	80.003	19.994	103.916	19.996	3.315	0.496
906.000	540.124	80.002	19.994	103.915	19.993	3.505	0.484
907.500	540.903	80.002	19.993	103.918	19.994	3.459	0.532
909.000	541.654	80.004	19.995	103.917	19.991	3.651	0.513
910.500	542.447	80.004	19.995	103.917	19.991	3.644	0.513
912.000	543.206	80.002	19.993	103.917	19.994	3.483	0.511
913.500	543.946	80.004	19.992	103.921	19.995	3.383	0.509
915.000	544.686	80.004	19.994	103.920	19.995	3.397	0.491
916.500	545.467	80.005	19.993	103.920	19.993	3.552	0.529
918.000	546.194	80.005	19.993	103.917	19.991	3.634	0.502
919.500	546.939	80.004	19.992	103.920	19.995	3.401	0.503
921.000	547.702	80.003	19.994	103.920	19.994	3.479	0.527
922.500	548.446	80.003	19.993	103.920	19.994	3.454	0.498
924.000	549.206	80.004	19.994	103.918	19.994	3.427	0.506
925.500	549.984	80.003	19.994	103.918	19.991	3.660	0.505
927.000	550.774	80.002	19.994	103.921	19.994	3.434	0.510
928.500	551.500	80.005	19.994	103.918	19.991	3.625	0.495
930.000	552.242	80.004	19.994	103.918	19.989	3.769	0.498
931.500	553.001	80.005	19.995	103.917	19.990	3.726	0.509
933.000	553.779	80.004	19.994	103.918	19.990	3.717	0.513
934.500	554.543	80.004	19.994	103.928	19.991	3.653	0.494
936.000	555.284	80.004	19.994	103.925	19.989	3.758	0.488
937.500	556.086	80.004	19.994	103.918	19.987	3.915	0.542
939.000	556.801	80.003	19.996	103.922	19.991	3.647	0.474
940.500	557.568	80.004	19.993	103.922	19.988	3.850	0.507
942.000	558.355	80.004	19.994	103.916	19.992	3.622	0.499
943.500	559.128	80.004	19.994	103.928	19.993	3.556	0.504
945.000	559.883	80.004	19.992	103.921	19.990	3.735	0.483
946.500	560.603	80.005	19.994	103.918	19.988	3.833	0.500
948.000	561.428	80.004	19.994	103.921	19.988	3.835	0.548
949.500	562.151	80.003	19.994	103.924	19.989	3.778	0.477
951.000	562.912	80.004	19.993	103.922	19.989	3.778	0.501
952.500	563.700	80.006	19.994	103.920	19.992	3.614	0.521
954.000	564.450	80.004	19.993	103.919	19.987	3.919	0.490
955.500	565.221	80.005	19.994	103.919	19.990	3.756	0.502
957.000	565.997	80.004	19.993	103.918	19.989	3.804	0.514
958.500	566.735	80.003	19.994	103.919	19.991	3.669	0.488
960.000	567.532	80.006	19.994	103.918	19.991	3.689	0.516
961.500	568.302	80.006	19.993	103.918	19.988	3.846	0.531
963.000	569.101	80.005	19.995	103.917	19.988	3.857	0.550
964.500	569.860	80.004	19.995	103.917	19.989	3.780	0.508
966.000	570.650	80.003	19.994	103.918	19.990	3.722	0.530
967.500	571.384	80.004	19.995	103.917	19.987	3.900	0.499
969.000	572.165	80.004	19.994	103.917	19.987	3.910	0.514
970.500	572.966	80.004	19.994	103.919	19.986	3.961	0.515
972.000	573.745	80.003	19.994	103.920	19.990	3.746	0.507
973.500	574.618	80.003	19.993	103.919	19.987	3.926	0.565
975.000	575.343	80.002	19.993	103.917	19.989	3.762	0.496
976.500	576.137	80.003	19.993	103.917	19.990	3.702	0.540
978.000	576.922	80.003	19.994	103.916	19.988	3.835	0.512
979.500	577.693	80.004	19.993	103.916	19.988	3.840	0.507
981.000	578.465	80.004	19.992	103.918	19.986	3.993	0.515
982.500	579.247	80.004	19.993	103.922	19.990	3.738	0.522
984.000	580.019	80.006	19.993	103.926	19.991	3.676	0.519
985.500	580.807	80.004	19.994	103.920	19.991	3.658	0.483
987.000	581.590	80.004	19.994	103.919	19.986	3.995	0.531
988.500	582.404	80.005	19.994	103.918	19.990	3.697	0.541
990.000	583.163	80.004	19.994	103.916	19.985	4.034	0.494
991.500	583.904	80.004	19.994	103.918	19.987	3.935	0.505
993.000	584.707	80.005	19.994	103.918	19.987	3.917	0.536
994.500	585.496	80.004	19.994	103.918	19.986	3.961	0.523
996.000	586.268	80.003	19.994	103.919	19.986	3.981	0.530
997.500	587.060	80.003	19.995	103.920	19.986	4.003	0.524
999.000	587.792	80.002	19.996	103.924	19.986	3.964	0.493
1000.500	588.544	80.002	19.994	103.925	19.991	3.673	0.499
1002.000	589.313	80.004	19.994	103.920	19.990	3.744	0.518
1003.500	590.102	80.004	19.994	103.921	19.988	3.846	0.530
1005.000	590.836	80.003	19.994	103.920	19.988	3.842	0.472
1006.500	591.615	80.004	19.993	103.918	19.990	3.727	0.534
1008.001	592.392	80.004	19.992	103.918	19.991	3.660	0.522
1009.500	593.193	80.004	19.993	103.918	19.989	3.762	0.519
1011.000	593.979	80.006	19.994	103.917	19.987	3.891	0.520
1012.500	594.747	80.005	19.993	103.918	19.990	3.747	0.502
1014.000	595.524	80.005	19.993	103.920	19.985	4.046	0.527
1015.500	596.260	80.005	19.993	103.919	19.988	3.890	0.483
1017.000	597.019	80.004	19.994	103.920	19.989	3.818	0.490
1018.500	597.799	80.004	19.992	103.921	19.991	3.647	0.531
1020.000	598.557	80.004	19.993	103.922	19.987	3.891	0.529
1021.500	599.310	80.004	19.993	103.922	19.987	3.900	0.508
1023.000	600.064	80.004	19.993	103.921	19.986	4.002	0.512
1024.500	600.840	80.003	19.993	103.918	19.987	3.935	0.525
1026.000	601.601	80.005	19.994	103.921	19.986	3.970	0.533
1027.500	602.315	80.004	19.995	103.917	19.990	3.727	0.478
1029.001	603.059	80.004	19.993	103.914	19.989	3.758	0.522
1030.500	603.806	80.003	19.995	103.917	19.990	3.734	0.487
1032.001	604.559	80.005	19.993	103.917	19.987	3.951	0.518
1033.500	605.325	80.005	19.993	103.916	19.990	3.722	0.520
1035.000	606.105	80.005	19.993	103.914	19.986	3.988	0.499
1036.500	606.882	80.005	19.994	103.915	19.986	3.969	0.543
1038.000	607.603	80.005	19.994	103.915	19.985	4.035	0.510
1039.500	608.349	80.006	19.994	103.915	19.986	4.022	0.507
1041.000	609.124	80.006	19.993	103.916	19.985	4.044	0.511
1042.500	609.935	80.004	19.994	103.917	19.985	4.046	0.521
1044.000	610.638	80.004	19.994	103.917	19.981	4.327	0.472
1045.501	611.367	80.004	19.994	103.915	19.984	4.157	0.495
1047.000	612.124	80.004	19.993	103.912	19.985	4.030	0.516
1048.500	612.852	80.002	19.995	103.908	19.984	4.150	0.506
1050.000	613.644	80.003	19.994	103.910	19.980	4.395	0.519
1051.501	614.427	80.002	19.995	103.917	19.983	4.205	0.484
1053.000	615.198	80.005	19.995	103.917	19.983	4.194	0.500
1054.500	615.910	80.004	19.995	103.915	19.985	4.088	0.462
1056.000	616.685	80.003	19.995	103.916	19.982	4.247	0.503
1057.500	617.419	80.001	19.995	103.917	19.971	5.021	0.507
1059.000	618.275	80.002	19.996	103.917	19.991	3.658	0.563
1060.500	618.896	80.003	19.995	103.922	19.982	4.234	0.476
1062.000	619.751	80.003	19.994	103.930	19.986	4.008	0.513
1063.500	620.574	80.003	19.995	103.929	19.986	3.972	0.529
1065.000	621.271	80.003	19.994	103.923	19.985	4.028	0.539
1066.500	622.013	80.002	19.993	103.924	19.987	3.946	0.548
1068.000	622.934	80.004	19.993	103.919	19.986	4.021	0.579
1069.500	623.468	80.004	19.993	103.921	19.985	4.052	0.345
1071.000	623.843	80.003	19.993	103.921	19.985	4.057	0.409
1072.500	624.589	80.002	19.993	103.921	19.985	4.072	0.525
1074.000	625.886	80.002	19.993	103.920	19.984	4.141	0.926
1075.500	626.630	80.006	19.993	103.918	19.989	3.777	0.591
1077.000	627.350	80.002	19.994	103.918	19.988	3.830	0.527
1078.500	628.214	80.005	19.993	103.922	19.985	4.059	0.612
1080.000	628.971	80.001	19.993	103.920	19.985	4.037	0.533
1081.501	629.698	80.004	19.993	103.920	19.987	3.894	0.495
1083.000	630.438	80.003	19.994	103.921	19.986	4.021	0.533
1084.500	631.188	80.002	19.993	103.920	19.986	3.978	0.515
1086.000	631.996	80.002	19.993	103.921	19.989	3.819	0.531
1087.500	632.754	80.000	19.994	103.924	19.989	3.820	0.501
1089.001	633.533	80.002	19.994	103.925	19.989	3.793	0.513
1090.500	634.282	80.004	19.994	103.922	19.986	4.013	0.488
1092.000	635.048	80.003	19.992	103.925	19.985	4.047	0.515
1093.500	635.886	80.007	19.994	103.934	19.984	4.116	0.556
1095.000	636.655	80.004	19.993	103.933	19.989	3.820	0.536
1096.501	637.456	80.005	19.993	103.932	19.990	3.750	0.536
1098.000	638.188	80.004	19.994	103.925	19.989	3.788	0.505
1099.501	638.986	80.005	19.993	103.920	19.987	3.946	0.537
1101.000	639.739	80.004	19.994	103.920	19.987	3.917	0.510
1102.501	640.525	80.005	19.993	103.926	19.983	4.200	0.512
1104.001	641.333	80.005	19.994	103.927	19.981	4.307	0.521
1105.500	642.073	80.005	19.993	103.919	19.984	4.136	0.520
1107.000	642.839	80.005	19.995	103.934	19.985	4.028	0.509
1108.500	643.648	80.003	19.994	103.946	19.984	4.092	0.547
1110.000	644.422	80.000	19.992	103.930	19.986	3.995	0.514
1111.500	645.161	80.004	19.994	103.923	19.975	4.695	0.486
1113.000	645.921	80.003	19.994	103.924	19.984	4.099	0.485
1114.500	646.716	80.009	19.993	103.923	19.988	3.863	0.544
1116.000	647.485	80.004	19.995	103.921	19.984	4.127	0.517
1117.500	648.230	80.005	19.995	103.921	19.987	3.958	0.511
1119.001	648.983	80.005	19.996	103.930	19.986	3.978	0.515
1120.500	649.752	80.008	19.995	103.930	19.983	4.197	0.530
1122.000	650.528	80.006	19.994	103.915	19.984	4.158	0.498
1123.501	651.242	80.006	19.994	103.918	19.984	4.105	0.466
1125.000	651.992	80.008	19.994	103.924	19.984	4.129	0.546
1126.500	652.767	80.004	19.994	103.930	19.985	4.053	1.025
1128.000	653.454	80.005	19.994	103.940	19.986	4.020	0.540
1129.500	654.347	80.002	19.995	103.939	19.983	4.205	0.511
1131.000	655.080	80.001	19.994	103.942	19.984	4.159	0.470
1132.501	655.881	80.002	19.994	103.938	19.982	4.232	0.502
1134.000	656.645	80.000	19.995	103.935	19.985	4.086	0.501
1135.500	657.390	80.004	19.993	103.940	19.984	4.126	0.504
1137.000	658.085	80.005	19.995	103.935	19.983	4.173	0.511
1138.500	658.909	80.003	19.994	103.945	19.985	4.062	0.541
1140.000	659.655	80.003	19.994	103.934	19.981	4.317	0.497
1141.500	660.381	80.003	19.995	103.940	19.981	4.303	0.460
1143.000	661.119	80.006	19.995	103.958	19.979	4.436	0.516
1144.501	661.901	80.005	19.994	103.956	19.981	4.332	0.519
1146.000	662.644	80.002	19.995	103.952	19.982	4.279	0.510
1147.500	663.388	80.002	19.995	103.948	19.982	4.259	0.491
1149.000	664.154	80.003	19.994	103.955	19.982	4.278	0.523
1150.500	664.935	80.003	19.995	103.947	19.981	4.329	0.522
1152.000	665.682	80.004	19.994	103.954	19.980	4.414	0.528
1153.500	666.372	80.004	19.995	103.955	19.979	4.487	0.455
1155.001	667.177	79.998	19.995	103.953	19.979	4.434	0.522
1156.500	667.932	80.003	19.994	103.952	19.980	4.361	0.447
1158.000	668.615	80.004	19.993	103.957	19.981	4.358	0.464
1159.500	669.387	80.002	19.994	103.958	19.983	4.179	0.531
1161.000	670.155	80.004	19.995	103.957	19.978	4.509	0.522
1162.500	670.896	80.001	19.994	103.951	19.979	4.442	0.517
1164.000	671.649	80.002	19.994	103.950	19.978	4.522	0.505
1165.500	672.353	80.003	19.994	103.957	19.978	4.551	0.469
1167.000	673.166	80.004	19.993	103.958	19.980	4.425	0.530
1168.500	673.927	80.005	19.993	103.958	19.976	4.655	0.514
1170.001	674.708	80.002	19.994	103.958	19.976	4.655	0.529
1171.501	675.482	80.003	19.994	103.953	19.975	4.713	0.488
1173.000	676.262	80.004	19.993	103.952	19.985	4.071	0.502
1174.500	677.003	80.004	19.993	103.952	19.974	4.775	0.465
1176.000	677.759	80.006	19.993	103.953	19.977	4.571	0.505
1177.500	678.490	80.005	19.994	103.957	19.976	4.664	0.499
1179.000	679.312	80.008	19.993	103.956	19.975	4.748	0.543
1180.500	679.978	80.005	19.995	103.958	19.973	4.828	0.442
1182.000	680.713	80.004	19.994	103.959	19.973	4.889	0.501
1183.501	681.481	80.004	19.995	103.957	19.973	4.853	0.508
1185.000	682.292	80.004	19.993	103.956	19.973	4.847	0.513
1186.500	683.353	80.005	19.994	103.957	19.974	4.791	0.609
1188.000	683.724	79.998	19.998	103.959	19.974	4.769	0.069
1189.500	684.546	80.008	19.993	103.958	19.969	5.111	0.536
1191.000	685.310	80.009	19.995	103.959	19.973	4.862	0.503
1192.500	686.063	80.003	19.994	103.959	19.969	5.100	0.498
1194.000	686.859	80.002	19.993	103.970	19.970	5.089	0.513
1195.500	687.571	80.015	19.992	103.976	19.970	5.052	0.461
1197.001	688.369	80.004	19.995	103.971	19.970	5.040	0.506
1198.501	689.070	80.012	19.995	103.975	19.972	4.900	0.481
1200.001	689.847	80.006	19.993	103.963	19.972	4.907	0.516
1201.500	690.606	80.010	19.992	103.977	19.969	5.100	0.507
1203.000	691.359	79.999	19.994	103.990	19.967	5.235	0.514
1204.500	692.170	80.004	19.993	104.000	19.969	5.130	0.547
1206.000	692.909	80.006	19.993	103.994	19.969	5.150	0.476
1207.501	693.654	80.005	19.993	103.998	19.966	5.352	0.474
1209.000	694.424	80.001	19.991	104.001	19.965	5.390	0.511
1210.500	695.178	80.003	19.994	104.000	19.966	5.318	0.513
1212.001	695.954	80.002	19.994	103.997	19.965	5.407	0.529
1213.500	696.745	79.999	19.994	103.998	19.963	5.513	0.503
1215.001	697.465	80.001	19.994	104.002	19.970	5.046	0.481
1216.500	698.250	80.001	19.994	104.013	19.967	5.291	0.489
1218.000	698.954	80.001	19.994	104.012	19.964	5.457	0.480
1219.500	699.742	80.002	19.995	104.007	19.965	5.392	0.516
1221.000	700.512	80.002	19.994	104.014	19.966	5.318	0.507
1222.500	701.230	79.997	19.995	104.020	19.967	5.273	0.488
1224.001	702.016	80.004	19.995	104.018	19.963	5.503	0.536
1225.500	702.726	80.013	19.994	104.015	19.964	5.463	0.485
1227.000	703.514	80.003	19.992	104.015	19.968	5.230	0.538
1228.500	704.281	80.002	19.995	104.023	19.963	5.536	0.520
1230.001	705.068	80.002	19.996	104.029	19.965	5.427	0.522
1231.501	705.860	80.010	19.993	104.020	19.962	5.611	0.517
1233.000	706.538	80.004	19.993	104.025	19.964	5.465	0.498
1234.500	707.313	80.002	19.994	104.036	19.958	5.858	0.503
1236.001	708.056	80.001	19.995	104.034	19.962	5.608	0.503
1237.501	708.815	80.005	19.993	104.036	19.960	5.762	0.520
1239.001	709.556	79.998	19.995	104.035	19.963	5.556	0.497
1240.500	710.373	80.001	19.994	104.036	19.961	5.665	0.532
1242.001	711.091	80.000	19.995	104.036	19.964	5.479	0.470
1243.500	711.809	80.005	19.995	104.036	19.959	5.832	0.470
1245.001	712.602	80.002	19.994	104.039	19.959	5.783	0.510
1246.501	713.374	80.000	19.994	104.040	19.958	5.887	0.484
1248.001	714.115	80.002	19.995	104.050	19.956	6.008	0.480
1249.500	714.887	80.005	19.994	104.064	19.955	6.052	0.532
1251.000	715.673	80.005	19.993	104.059	19.956	5.999	0.535
1252.500	716.451	80.020	19.993	104.055	19.955	6.096	0.527
1254.001	717.167	79.995	19.994	104.071	19.952	6.255	0.467
1255.500	717.947	80.000	19.995	104.071	19.955	6.070	0.517
1257.000	718.667	80.003	19.995	104.073	19.955	6.071	0.489
1258.501	719.479	80.011	19.992	104.084	19.952	6.245	0.543
1260.000	720.230	80.004	19.992	104.078	19.951	6.317	0.499
1261.500	720.942	80.010	19.993	104.083	19.951	6.329	0.504
1263.000	721.703	79.995	19.992	104.091	19.949	6.474	0.521
1264.501	722.474	79.994	19.993	104.095	19.949	6.441	0.524
1266.000	723.231	80.011	19.992	104.105	19.948	6.549	0.518
1267.500	723.982	79.999	19.995	104.107	19.949	6.469	0.504
1269.000	724.709	80.004	19.993	104.115	19.950	6.420	0.489
1270.500	725.451	80.000	19.993	104.117	19.948	6.532	0.491
1272.000	726.219	80.006	19.992	104.115	19.948	6.549	0.512
1273.500	726.970	80.006	19.994	104.115	19.948	6.548	0.512
1275.000	727.743	80.010	19.992	104.119	19.946	6.699	0.533
1276.501	728.501	80.006	19.994	104.120	19.942	6.916	0.499
1278.000	729.272	80.009	19.992	104.123	19.946	6.682	0.512
1279.500	730.007	80.002	19.993	104.127	19.949	6.456	0.487
1281.000	730.797	79.996	19.993	104.142	19.946	6.656	0.535
1282.501	731.597	80.007	19.993	104.148	19.946	6.646	0.539
1284.000	732.340	80.010	19.994	104.143	19.947	6.620	0.496
1285.501	733.097	80.005	19.993	104.151	19.948	6.556	0.521
1287.000	733.832	80.011	19.994	104.154	19.945	6.739	0.519
1288.500	734.597	80.007	19.996	104.151	19.944	6.778	0.514
1290.000	735.355	80.001	19.992	104.153	19.944	6.837	0.495
1291.500	736.129	80.008	19.993	104.174	19.942	6.928	0.506
1293.000	736.880	80.001	19.994	104.185	19.942	6.947	0.486
1294.500	737.650	79.994	19.993	104.182	19.941	7.011	0.491
1296.001	738.433	80.018	19.992	104.187	19.940	7.055	0.512
1297.500	739.219	80.007	19.992	104.181	19.940	7.090	0.507
1299.000	739.975	79.998	19.995	104.193	19.941	6.992	0.490
1300.501	740.721	80.001	19.994	104.206	19.941	6.991	0.473
1302.000	741.498	80.003	19.992	104.200	19.940	7.077	0.525
1303.500	742.274	80.001	19.995	104.199	19.938	7.194	0.511
1305.000	742.993	79.994	19.994	104.209	19.937	7.294	0.492
1306.500	743.779	79.997	19.994	104.201	19.936	7.375	0.513
1308.000	744.550	80.006	19.993	104.213	19.936	7.364	0.515
1309.000	745.070	79.998	19.992	104.221	19.937	7.307	0.518