File: 01_Data/Cinder_Block/MCC/Cinder_Block_MCC_30K_min_220223_R2.txt
Sample ID:	C:\MCC\MCC Cal\Test\Cinder_Block_MCC_30K_min_220223_R2.txt
Sample Weight (mg):	4.62
Heating Rate (C/s):	0.5
Combustor Temp (C):	900
N2 Flow Rate (cc/min):	80
O2 Flow Rate (cc/min):	20
Calibration File:	C:\MCC\MCC Cal\Coeff1 JN10440_30_210304.txt.txt
T Correction Coefficients:	0	1.024463	0
Time Shift (s):	14
*
Time (s)	Temperature (C)	N2 flow rate (cc/min)	O2 flow rate (cc/min)	Flow Rate (cc/min)	Oxygen (%)	HRR (W/g)	Heating rate (C/s)
0.000	114.286	80.005	19.993	103.759	19.867	0.030	0.013
2.001	114.261	80.005	19.993	103.748	19.869	-0.053	0.030
4.000	114.251	80.004	19.994	103.745	19.869	-0.065	0.003
6.000	114.189	80.006	19.994	103.742	19.865	0.196	-0.007
8.000	114.251	80.005	19.994	103.752	19.867	0.050	0.007
10.000	114.198	80.003	19.994	103.764	19.866	0.097	-0.006
12.000	114.231	80.003	19.994	103.764	19.862	0.420	-0.001
14.000	114.254	80.004	19.993	103.793	19.862	0.431	0.000
16.000	114.293	80.003	19.994	103.798	19.857	0.769	0.034
18.000	114.295	80.003	19.993	103.806	19.858	0.683	-0.003
20.000	114.377	80.003	19.993	103.808	19.849	1.327	0.029
22.000	114.467	80.002	19.994	103.891	19.849	1.321	0.063
24.000	114.546	80.003	19.993	103.885	19.846	1.546	0.063
26.000	114.693	80.004	19.994	103.910	19.844	1.663	0.058
28.000	114.851	80.004	19.994	103.923	19.840	1.970	0.090
30.000	115.001	80.004	19.994	103.923	19.838	2.091	0.093
32.000	115.232	80.006	19.993	103.925	19.835	2.280	0.138
34.000	115.426	80.005	19.993	103.930	19.834	2.350	0.115
36.000	115.750	80.006	19.994	103.934	19.832	2.526	0.126
38.000	116.034	80.004	19.993	103.938	19.833	2.463	0.156
40.000	116.384	80.004	19.995	103.940	19.834	2.365	0.179
42.001	116.696	80.005	19.993	103.961	19.828	2.776	0.172
44.000	117.102	80.004	19.994	103.950	19.829	2.722	0.223
46.000	117.490	80.003	19.994	103.945	19.826	2.910	0.197
48.000	117.913	80.004	19.993	103.957	19.832	2.549	0.208
50.000	118.355	80.004	19.994	103.949	19.829	2.704	0.207
52.000	118.868	80.005	19.995	103.955	19.828	2.786	0.261
54.000	119.350	80.005	19.993	103.952	19.832	2.522	0.246
56.001	119.850	80.006	19.992	103.950	19.828	2.814	0.261
58.000	120.386	80.006	19.994	103.956	19.829	2.759	0.249
60.000	120.895	80.006	19.993	103.956	19.825	3.011	0.255
62.000	121.507	80.006	19.993	103.956	19.825	3.009	0.258
64.000	122.092	80.005	19.994	103.957	19.825	3.019	0.287
66.000	122.682	80.005	19.994	103.960	19.823	3.114	0.305
68.000	123.332	80.002	19.994	103.963	19.826	2.931	0.344
70.000	123.950	80.002	19.995	103.966	19.825	2.998	0.290
72.000	124.567	80.002	19.995	103.969	19.825	3.029	0.307
74.000	125.241	80.004	19.993	103.972	19.824	3.084	0.383
76.000	125.912	80.004	19.993	103.976	19.827	2.857	0.381
78.000	126.568	80.004	19.994	103.964	19.824	3.084	0.329
80.000	127.294	80.005	19.993	103.963	19.827	2.861	0.405
82.000	128.008	80.003	19.993	103.969	19.826	2.913	0.379
84.000	128.705	80.003	19.993	103.978	19.824	3.098	0.355
86.000	129.456	80.003	19.993	103.973	19.827	2.894	0.352
88.000	130.246	80.004	19.994	103.976	19.824	3.057	0.384
90.000	131.009	80.003	19.993	103.990	19.827	2.863	0.391
92.000	131.788	80.004	19.993	104.000	19.828	2.800	0.385
94.000	132.594	80.003	19.993	104.002	19.830	2.649	0.412
96.000	133.406	80.004	19.993	104.011	19.831	2.611	0.398
98.000	134.265	80.002	19.993	104.023	19.828	2.808	0.418
100.000	135.093	80.003	19.995	104.003	19.830	2.626	0.426
102.000	135.963	80.002	19.993	103.999	19.828	2.798	0.444
104.000	136.824	80.004	19.993	104.004	19.830	2.630	0.437
106.000	137.723	80.003	19.994	104.004	19.828	2.770	0.457
108.000	138.575	80.004	19.993	104.002	19.829	2.741	0.446
110.000	139.484	80.005	19.994	104.002	19.828	2.779	0.430
112.000	140.384	80.005	19.992	103.988	19.828	2.766	0.452
114.000	141.306	80.005	19.992	103.991	19.829	2.758	0.455
116.000	142.190	80.007	19.992	103.997	19.825	3.010	0.462
118.000	143.124	80.005	19.993	103.996	19.828	2.800	0.452
120.000	144.070	80.006	19.993	103.998	19.829	2.741	0.471
122.000	144.972	80.006	19.993	103.994	19.825	3.004	0.418
124.000	145.953	80.004	19.994	103.999	19.825	2.998	0.470
126.000	146.911	80.006	19.994	103.998	19.825	2.979	0.464
128.000	147.827	80.006	19.993	103.995	19.825	3.036	0.447
130.000	148.787	80.006	19.993	103.996	19.827	2.895	0.470
132.000	149.749	80.005	19.994	103.993	19.826	2.965	0.470
134.000	150.735	80.006	19.995	103.972	19.825	3.015	0.492
136.000	151.642	80.006	19.994	103.964	19.827	2.896	0.473
138.000	152.627	80.006	19.994	103.966	19.825	3.008	0.510
140.000	153.613	80.006	19.993	103.987	19.828	2.829	0.496
142.000	154.595	80.007	19.993	103.999	19.830	2.687	0.484
144.000	155.526	80.007	19.992	104.027	19.829	2.739	0.455
146.000	156.557	80.006	19.993	104.028	19.831	2.601	0.497
148.000	157.538	80.005	19.993	103.998	19.831	2.612	0.506
150.000	158.533	80.004	19.994	103.997	19.832	2.536	0.474
152.000	159.512	80.004	19.994	103.994	19.832	2.520	0.486
154.000	160.552	80.002	19.994	103.995	19.833	2.448	0.517
156.000	161.567	80.001	19.994	103.995	19.828	2.790	0.519
158.000	162.540	80.002	19.994	103.967	19.831	2.586	0.504
160.000	163.539	80.004	19.996	103.965	19.833	2.444	0.511
162.000	164.523	80.003	19.995	103.967	19.829	2.713	0.480
164.000	165.568	80.003	19.995	103.959	19.831	2.551	0.502
166.000	166.621	80.004	19.994	103.968	19.833	2.439	0.510
168.000	167.608	80.004	19.994	103.970	19.833	2.427	0.529
170.000	168.617	80.004	19.992	103.972	19.834	2.347	0.517
172.000	169.652	80.003	19.992	103.963	19.835	2.293	0.514
174.000	170.633	80.004	19.992	103.971	19.836	2.234	0.490
176.000	171.658	80.004	19.994	103.979	19.836	2.240	0.511
178.000	172.643	80.004	19.993	103.965	19.838	2.116	0.507
180.000	173.678	80.003	19.993	103.958	19.836	2.228	0.520
182.000	174.665	80.003	19.994	103.962	19.839	2.022	0.474
184.000	175.669	80.004	19.993	103.961	19.840	1.982	0.507
186.000	176.685	80.004	19.994	103.960	19.836	2.245	0.505
188.000	177.710	80.003	19.993	103.958	19.839	2.016	0.540
190.000	178.706	80.004	19.993	103.958	19.837	2.182	0.529
192.000	179.701	80.004	19.993	103.955	19.840	1.982	0.470
194.000	180.713	80.005	19.993	103.954	19.837	2.194	0.522
196.000	181.686	80.006	19.993	103.953	19.842	1.844	0.498
198.000	182.708	80.006	19.993	103.951	19.843	1.743	0.508
200.000	183.699	80.006	19.994	103.953	19.840	1.927	0.471
202.000	184.708	80.005	19.993	103.947	19.838	2.123	0.495
204.000	185.734	80.006	19.993	103.949	19.839	2.052	0.533
206.000	186.743	80.004	19.993	103.954	19.841	1.915	0.512
208.000	187.722	80.005	19.993	103.957	19.843	1.754	0.508
210.000	188.726	80.005	19.993	103.957	19.844	1.659	0.513
212.000	189.699	80.006	19.994	103.969	19.842	1.790	0.490
214.000	190.707	80.005	19.993	103.958	19.842	1.781	0.492
216.000	191.681	80.004	19.993	103.945	19.841	1.848	0.484
218.000	192.665	80.007	19.993	103.926	19.841	1.888	0.495
220.000	193.667	80.006	19.995	103.939	19.844	1.655	0.487
222.000	194.658	80.005	19.995	103.938	19.842	1.798	0.488
224.000	195.653	80.006	19.993	103.925	19.843	1.712	0.478
226.000	196.634	80.006	19.994	103.937	19.845	1.577	0.454
228.000	197.609	80.004	19.994	103.941	19.845	1.617	0.489
230.000	198.592	80.004	19.994	103.950	19.847	1.494	0.499
232.000	199.553	80.004	19.994	103.960	19.843	1.762	0.452
234.000	200.547	80.004	19.994	103.940	19.845	1.584	0.513
236.000	201.537	80.004	19.994	103.942	19.845	1.623	0.528
238.000	202.512	80.004	19.993	103.947	19.846	1.560	0.482
240.000	203.469	80.002	19.993	103.926	19.847	1.474	0.473
242.000	204.421	80.004	19.993	103.946	19.845	1.567	0.508
244.000	205.434	80.003	19.994	103.944	19.846	1.561	0.471
246.000	206.465	80.004	19.994	103.952	19.845	1.588	0.498
248.000	207.453	80.003	19.994	103.942	19.848	1.399	0.498
250.000	208.447	80.004	19.994	103.948	19.849	1.351	0.514
252.000	209.417	80.003	19.994	103.944	19.845	1.577	0.496
254.000	210.465	80.004	19.995	103.943	19.851	1.206	0.529
256.000	211.385	80.003	19.994	103.939	19.848	1.355	0.484
258.000	212.386	80.003	19.994	103.939	19.850	1.283	0.484
260.000	213.408	80.003	19.994	103.933	19.846	1.508	0.518
262.000	214.364	80.004	19.994	103.922	19.849	1.342	0.460
264.000	215.346	80.004	19.994	103.920	19.850	1.256	0.491
266.000	216.329	80.004	19.994	103.934	19.851	1.159	0.479
268.000	217.314	80.004	19.993	103.945	19.846	1.518	0.484
270.000	218.334	80.005	19.993	103.932	19.850	1.243	0.504
272.000	219.324	80.004	19.993	103.923	19.849	1.308	0.483
274.000	220.283	80.005	19.993	103.930	19.852	1.078	0.476
276.000	221.286	80.006	19.993	103.943	19.850	1.269	0.521
278.000	222.278	80.005	19.994	103.945	19.854	0.954	0.535
280.000	223.236	80.007	19.993	103.958	19.850	1.252	0.480
282.000	224.271	80.007	19.994	103.947	19.852	1.101	0.494
284.000	225.243	80.005	19.993	103.934	19.852	1.113	0.504
286.000	226.243	80.005	19.993	103.921	19.850	1.233	0.490
288.000	227.263	80.005	19.993	103.923	19.849	1.307	0.522
290.000	228.253	80.006	19.994	103.923	19.851	1.166	0.499
292.000	229.265	80.004	19.994	103.921	19.853	1.044	0.487
294.000	230.241	80.005	19.993	103.924	19.851	1.206	0.474
296.000	231.268	80.006	19.992	103.928	19.851	1.189	0.499
298.000	232.253	80.005	19.992	103.932	19.851	1.210	0.491
300.000	233.231	80.006	19.993	103.922	19.852	1.075	0.477
302.000	234.229	80.007	19.994	103.914	19.854	0.952	0.483
304.000	235.205	80.007	19.993	103.905	19.850	1.225	0.482
306.000	236.192	80.007	19.992	103.910	19.850	1.220	0.495
308.000	237.236	80.007	19.992	103.908	19.851	1.161	0.497
310.000	238.227	80.007	19.993	103.916	19.850	1.254	0.509
312.000	239.191	80.005	19.994	103.917	19.849	1.336	0.483
314.000	240.166	80.003	19.994	103.913	19.853	1.040	0.486
316.000	241.197	80.004	19.993	103.907	19.855	0.884	0.514
318.000	242.216	80.003	19.994	103.931	19.854	1.000	0.524
320.000	243.214	80.003	19.994	103.950	19.853	1.016	0.498
322.000	244.219	80.003	19.994	103.923	19.854	0.960	0.500
324.000	245.243	80.005	19.994	103.917	19.858	0.689	0.529
326.000	246.210	80.004	19.994	103.931	19.858	0.695	0.492
328.000	247.227	80.004	19.994	103.939	19.859	0.614	0.488
330.000	248.237	80.005	19.993	103.945	19.855	0.905	0.498
332.000	249.291	80.004	19.995	103.956	19.859	0.651	0.517
334.000	250.294	80.005	19.994	103.943	19.857	0.733	0.505
336.000	251.336	80.006	19.993	103.925	19.857	0.777	0.531
338.000	252.329	80.005	19.993	103.892	19.857	0.773	0.501
340.000	253.347	80.003	19.996	103.898	19.854	0.941	0.491
342.000	254.342	80.002	19.995	103.913	19.854	0.947	0.491
344.000	255.322	80.002	19.996	103.905	19.855	0.916	0.484
346.000	256.354	80.002	19.996	103.921	19.856	0.830	0.515
348.000	257.392	80.001	19.996	103.904	19.856	0.844	0.544
350.000	258.370	80.002	19.994	103.884	19.858	0.718	0.521
352.000	259.364	80.003	19.995	103.903	19.856	0.805	0.486
354.000	260.327	80.003	19.995	103.915	19.858	0.683	0.493
356.000	261.303	80.004	19.995	103.897	19.859	0.613	0.476
358.000	262.326	80.004	19.993	103.911	19.862	0.437	0.497
360.000	263.331	80.005	19.993	103.928	19.861	0.462	0.481
362.000	264.341	80.005	19.993	103.922	19.863	0.343	0.498
364.000	265.354	80.004	19.993	103.939	19.865	0.221	0.524
366.000	266.361	80.005	19.993	103.947	19.859	0.647	0.504
368.000	267.378	80.005	19.992	103.911	19.860	0.569	0.512
370.000	268.373	80.004	19.993	103.897	19.859	0.584	0.489
372.000	269.388	80.004	19.993	103.896	19.857	0.725	0.519
374.001	270.403	80.005	19.994	103.881	19.857	0.760	0.494
376.000	271.472	80.004	19.993	103.905	19.859	0.622	0.541
378.000	272.432	80.004	19.992	103.919	19.860	0.534	0.477
380.000	273.416	80.005	19.996	103.923	19.864	0.271	0.516
382.000	274.394	80.005	19.995	103.931	19.864	0.294	0.484
384.000	275.386	80.007	19.994	103.943	19.863	0.342	0.487
386.000	276.360	80.006	19.992	103.912	19.865	0.195	0.467
388.000	277.400	80.007	19.994	103.884	19.863	0.319	0.491
390.000	278.405	80.006	19.993	103.895	19.864	0.301	0.534
392.000	279.401	80.006	19.992	103.899	19.863	0.328	0.503
394.000	280.392	80.005	19.994	103.906	19.867	0.053	0.525
396.000	281.369	80.004	19.993	103.903	19.861	0.502	0.510
398.000	282.358	80.005	19.992	103.880	19.861	0.485	0.485
400.000	283.407	80.005	19.994	103.880	19.862	0.391	0.521
402.000	284.382	80.003	19.994	103.886	19.859	0.588	0.492
404.000	285.398	80.003	19.994	103.893	19.862	0.405	0.494
406.000	286.360	80.004	19.993	103.905	19.860	0.540	0.491
408.000	287.410	80.004	19.993	103.901	19.861	0.468	0.516
410.000	288.372	80.003	19.994	103.899	19.863	0.328	0.494
412.000	289.360	80.003	19.994	103.895	19.861	0.454	0.489
414.000	290.348	80.004	19.994	103.901	19.863	0.370	0.496
416.000	291.376	80.005	19.995	103.885	19.862	0.412	0.510
418.000	292.426	80.003	19.993	103.893	19.861	0.458	0.542
420.000	293.395	80.004	19.993	103.906	19.860	0.521	0.501
422.000	294.363	80.004	19.993	103.905	19.864	0.282	0.480
424.000	295.389	80.003	19.994	103.892	19.859	0.649	0.511
426.000	296.364	80.003	19.993	103.887	19.863	0.366	0.486
428.000	297.373	80.003	19.994	103.899	19.864	0.279	0.480
430.000	298.377	80.002	19.995	103.919	19.865	0.229	0.518
432.000	299.382	80.004	19.995	103.922	19.864	0.296	0.474
434.000	300.375	80.004	19.995	103.920	19.868	-0.048	0.513
436.000	301.399	80.004	19.994	103.900	19.869	-0.065	0.509
438.000	302.402	80.004	19.995	103.878	19.863	0.345	0.503
440.000	303.382	80.005	19.995	103.877	19.865	0.200	0.531
442.000	304.383	80.005	19.995	103.879	19.864	0.290	0.513
444.000	305.351	80.005	19.995	103.877	19.864	0.298	0.487
446.000	306.359	80.005	19.995	103.877	19.865	0.221	0.521
448.000	307.354	80.006	19.995	103.883	19.868	-0.002	0.519
450.000	308.349	80.006	19.994	103.913	19.870	-0.147	0.507
452.000	309.368	80.006	19.994	103.930	19.867	0.040	0.527
454.000	310.349	80.005	19.993	103.917	19.870	-0.137	0.510
456.000	311.374	80.005	19.994	103.924	19.867	0.025	0.513
458.000	312.399	80.005	19.994	103.903	19.868	-0.010	0.530
460.000	313.418	80.005	19.994	103.882	19.868	-0.015	0.480
462.000	314.450	80.007	19.993	103.880	19.868	0.013	0.492
464.000	315.453	80.007	19.994	103.890	19.869	-0.076	0.491
466.000	316.465	80.006	19.993	103.884	19.869	-0.103	0.524
468.000	317.509	80.006	19.993	103.871	19.867	0.067	0.507
470.000	318.536	80.007	19.994	103.877	19.870	-0.135	0.523
472.000	319.553	80.006	19.993	103.899	19.868	0.000	0.530
474.000	320.571	80.004	19.993	103.889	19.868	-0.046	0.501
476.000	321.617	80.005	19.994	103.868	19.869	-0.088	0.538
478.000	322.561	80.005	19.993	103.861	19.867	0.023	0.477
480.000	323.604	80.005	19.993	103.871	19.866	0.141	0.526
482.000	324.629	80.004	19.993	103.889	19.867	0.040	0.510
484.000	325.674	80.005	19.994	103.888	19.870	-0.134	0.519
486.000	326.686	80.005	19.993	103.909	19.873	-0.370	0.494
488.000	327.675	80.004	19.993	103.923	19.869	-0.074	0.498
490.000	328.720	80.004	19.993	103.901	19.871	-0.219	0.514
492.000	329.717	80.004	19.993	103.897	19.872	-0.290	0.528
494.000	330.732	80.004	19.994	103.889	19.873	-0.343	0.513
496.000	331.766	80.006	19.992	103.913	19.871	-0.235	0.534
498.000	332.774	80.006	19.993	103.918	19.872	-0.317	0.505
500.000	333.783	80.005	19.993	103.879	19.872	-0.263	0.501
502.000	334.793	80.004	19.993	103.869	19.870	-0.181	0.517
504.000	335.784	80.003	19.993	103.889	19.872	-0.322	0.497
506.000	336.827	80.004	19.994	103.887	19.875	-0.527	0.547
508.000	337.840	80.005	19.993	103.888	19.872	-0.307	0.508
510.000	338.814	80.005	19.994	103.883	19.874	-0.464	0.503
512.000	339.868	80.005	19.993	103.887	19.874	-0.446	0.521
514.000	340.892	80.005	19.993	103.903	19.874	-0.423	0.531
516.000	341.908	80.004	19.993	103.880	19.870	-0.147	0.528
518.000	342.895	80.006	19.993	103.878	19.873	-0.355	0.489
520.000	343.915	80.006	19.994	103.879	19.872	-0.302	0.494
522.000	344.972	80.007	19.994	103.879	19.871	-0.235	0.508
524.000	345.990	80.005	19.994	103.869	19.873	-0.353	0.520
526.000	346.996	80.006	19.993	103.870	19.873	-0.378	0.513
528.000	348.040	80.006	19.993	103.895	19.874	-0.460	0.508
530.000	349.092	80.005	19.994	103.892	19.874	-0.462	0.514
532.000	350.127	80.005	19.994	103.906	19.873	-0.370	0.530
534.000	351.130	80.005	19.994	103.869	19.874	-0.416	0.494
536.000	352.163	80.004	19.994	103.878	19.874	-0.435	0.509
538.000	353.225	80.005	19.994	103.888	19.875	-0.534	0.487
540.000	354.273	80.005	19.994	103.881	19.872	-0.277	0.527
542.000	355.313	80.007	19.994	103.867	19.873	-0.397	0.536
544.000	356.339	80.005	19.994	103.887	19.875	-0.485	0.526
546.000	357.356	80.006	19.993	103.860	19.876	-0.563	0.550
548.000	358.412	80.005	19.993	103.878	19.874	-0.464	0.538
550.000	359.433	80.006	19.993	103.891	19.875	-0.498	0.515
552.000	360.461	80.006	19.992	103.884	19.874	-0.443	0.505
554.000	361.486	80.006	19.992	103.888	19.874	-0.450	0.514
556.000	362.534	80.005	19.993	103.913	19.877	-0.651	0.542
558.000	363.526	80.004	19.993	103.897	19.880	-0.834	0.471
560.000	364.596	80.005	19.994	103.897	19.882	-1.028	0.536
562.000	365.610	80.004	19.993	103.889	19.881	-0.950	0.513
564.000	366.623	80.004	19.993	103.880	19.879	-0.775	0.514
566.000	367.638	80.005	19.995	103.877	19.879	-0.757	0.495
568.000	368.689	80.004	19.995	103.871	19.880	-0.830	0.519
570.000	369.733	80.005	19.995	103.870	19.881	-0.922	0.500
572.000	370.739	80.005	19.994	103.863	19.880	-0.857	0.520
574.000	371.767	80.005	19.994	103.868	19.881	-0.914	0.514
576.000	372.780	80.005	19.993	103.874	19.884	-1.148	0.484
578.000	373.826	80.005	19.994	103.859	19.882	-1.024	0.501
580.000	374.834	80.006	19.994	103.876	19.883	-1.066	0.505
582.000	375.825	80.006	19.993	103.879	19.881	-0.904	0.478
584.000	376.911	80.006	19.994	103.880	19.882	-0.992	0.538
586.000	377.904	80.006	19.993	103.867	19.881	-0.943	0.484
588.000	378.904	80.006	19.993	103.845	19.879	-0.780	0.516
590.000	379.926	80.005	19.994	103.844	19.879	-0.765	0.491
592.000	380.980	80.005	19.993	103.875	19.880	-0.824	0.515
594.000	381.925	80.004	19.994	103.901	19.880	-0.872	0.485
596.000	382.969	80.004	19.994	103.901	19.885	-1.211	0.500
598.000	383.979	80.003	19.995	103.892	19.885	-1.194	0.511
600.000	384.996	80.004	19.993	103.912	19.883	-1.049	0.492
602.000	385.967	80.005	19.994	103.880	19.882	-0.969	0.508
604.000	387.001	80.006	19.994	103.845	19.880	-0.881	0.511
606.000	387.973	80.005	19.994	103.862	19.882	-0.965	0.509
608.000	389.016	80.005	19.993	103.877	19.884	-1.158	0.508
610.000	390.015	80.008	19.993	103.872	19.880	-0.832	0.521
612.000	391.069	80.006	19.993	103.880	19.887	-1.330	0.517
614.000	392.049	80.005	19.994	103.849	19.883	-1.101	0.514
616.000	393.078	80.005	19.992	103.852	19.885	-1.198	0.504
618.000	394.085	80.004	19.993	103.863	19.887	-1.337	0.511
620.000	395.117	80.004	19.994	103.882	19.887	-1.330	0.494
622.000	396.122	80.005	19.994	103.890	19.885	-1.185	0.480
624.000	397.115	80.005	19.996	103.863	19.884	-1.126	0.479
626.000	398.154	80.005	19.993	103.842	19.886	-1.246	0.518
628.000	399.131	80.006	19.994	103.848	19.884	-1.120	0.490
630.000	400.140	80.006	19.995	103.872	19.885	-1.212	0.477
632.000	401.152	80.007	19.994	103.876	19.886	-1.253	0.507
634.000	402.153	80.008	19.993	103.874	19.884	-1.162	0.513
636.000	403.141	80.008	19.993	103.888	19.885	-1.189	0.481
638.000	404.140	80.004	19.994	103.914	19.885	-1.196	0.491
640.000	405.149	80.005	19.993	103.889	19.887	-1.337	0.518
642.000	406.123	80.004	19.993	103.878	19.887	-1.341	0.468
644.000	407.176	80.005	19.994	103.878	19.884	-1.166	0.511
646.000	408.159	80.005	19.994	103.875	19.885	-1.202	0.512
648.000	409.152	80.006	19.993	103.878	19.883	-1.099	0.489
650.000	410.204	80.004	19.993	103.885	19.883	-1.099	0.538
652.000	411.197	80.005	19.993	103.878	19.885	-1.211	0.477
654.000	412.236	80.005	19.993	103.881	19.884	-1.102	0.516
656.000	413.243	80.006	19.993	103.873	19.885	-1.194	0.518
658.000	414.253	80.004	19.994	103.864	19.884	-1.145	0.509
660.000	415.281	80.007	19.993	103.880	19.884	-1.108	0.522
662.000	416.228	80.006	19.993	103.875	19.886	-1.266	0.487
664.000	417.235	80.005	19.993	103.863	19.885	-1.230	0.504
666.000	418.284	80.006	19.993	103.856	19.886	-1.246	0.524
668.000	419.254	80.004	19.992	103.883	19.887	-1.326	0.487
670.000	420.320	80.004	19.994	103.858	19.890	-1.545	0.506
672.000	421.374	80.004	19.993	103.845	19.887	-1.360	0.559
674.000	422.372	80.005	19.993	103.852	19.883	-1.059	0.479
676.000	423.414	80.005	19.994	103.876	19.885	-1.213	0.533
678.000	424.403	80.005	19.993	103.876	19.889	-1.471	0.521
680.000	425.444	80.007	19.993	103.880	19.890	-1.591	0.529
682.000	426.474	80.005	19.994	103.881	19.889	-1.486	0.485
684.000	427.534	80.007	19.993	103.860	19.891	-1.659	0.511
686.000	428.560	80.005	19.993	103.850	19.892	-1.711	0.550
688.000	429.580	80.005	19.993	103.855	19.890	-1.564	0.494
690.000	430.589	80.007	19.994	103.847	19.889	-1.452	0.535
692.000	431.587	80.006	19.993	103.845	19.888	-1.429	0.509
694.000	432.598	80.006	19.993	103.849	19.883	-1.057	0.509
696.000	433.618	80.007	19.993	103.868	19.890	-1.547	0.502
698.000	434.704	80.006	19.994	103.884	19.888	-1.412	0.533
700.000	435.686	80.006	19.994	103.878	19.888	-1.411	0.482
702.000	436.742	80.006	19.993	103.864	19.888	-1.434	0.506
704.000	437.759	80.005	19.994	103.857	19.891	-1.599	0.506
706.000	438.760	80.006	19.993	103.896	19.886	-1.271	0.513
708.000	439.771	80.006	19.994	103.875	19.888	-1.408	0.488
710.000	440.793	80.008	19.994	103.852	19.888	-1.393	0.529
712.000	441.830	80.007	19.994	103.843	19.887	-1.320	0.520
714.000	442.824	80.007	19.994	103.860	19.885	-1.211	0.514
716.000	443.823	80.007	19.994	103.871	19.884	-1.141	0.541
718.000	444.830	80.007	19.994	103.869	19.888	-1.396	0.539
720.000	445.826	80.005	19.995	103.886	19.889	-1.459	0.493
722.000	446.827	80.005	19.995	103.869	19.889	-1.499	0.498
724.000	447.876	80.005	19.994	103.871	19.887	-1.339	0.524
726.000	448.875	80.004	19.996	103.878	19.888	-1.417	0.540
728.000	449.902	80.006	19.994	103.870	19.885	-1.190	0.509
730.000	450.914	80.005	19.994	103.864	19.887	-1.354	0.527
732.000	451.902	80.005	19.994	103.858	19.885	-1.187	0.541
734.000	452.948	80.005	19.993	103.872	19.885	-1.229	0.517
736.000	453.960	80.004	19.994	103.865	19.887	-1.368	0.512
738.000	454.924	80.005	19.993	103.874	19.888	-1.440	0.459
740.000	455.995	80.004	19.993	103.873	19.885	-1.238	0.528
742.000	456.969	80.005	19.993	103.879	19.887	-1.314	0.510
744.000	457.953	80.005	19.994	103.883	19.888	-1.406	0.493
746.000	458.987	80.005	19.993	103.862	19.885	-1.240	0.513
748.000	460.016	80.005	19.993	103.844	19.887	-1.331	0.500
750.000	461.021	80.005	19.994	103.859	19.888	-1.391	0.499
752.000	462.057	80.004	19.994	103.850	19.888	-1.444	0.493
754.000	463.028	80.006	19.994	103.872	19.889	-1.484	0.483
756.000	464.013	80.004	19.994	103.855	19.889	-1.474	0.504
758.000	465.035	80.004	19.994	103.848	19.888	-1.423	0.525
760.000	466.043	80.005	19.995	103.852	19.891	-1.646	0.510
762.000	467.056	80.006	19.994	103.857	19.892	-1.675	0.490
764.000	468.081	80.007	19.993	103.846	19.890	-1.541	0.501
766.000	469.078	80.008	19.993	103.842	19.893	-1.734	0.512
768.000	470.110	80.006	19.994	103.846	19.888	-1.448	0.485
770.000	471.095	80.007	19.993	103.872	19.899	-2.198	0.471
772.000	472.147	80.006	19.995	103.859	19.896	-1.948	0.553
774.000	473.151	80.007	19.993	103.861	19.895	-1.902	0.530
776.000	474.184	80.005	19.993	103.874	19.900	-2.228	0.517
778.000	475.210	80.006	19.994	103.869	19.897	-2.056	0.518
780.000	476.217	80.006	19.994	103.870	19.898	-2.121	0.498
782.000	477.240	80.006	19.993	103.874	19.900	-2.269	0.517
784.000	478.284	80.006	19.993	103.864	19.899	-2.206	0.531
786.000	479.296	80.006	19.994	103.841	19.899	-2.180	0.497
788.000	480.331	80.006	19.994	103.838	19.897	-2.077	0.522
790.000	481.337	80.007	19.995	103.836	19.894	-1.858	0.534
792.000	482.333	80.007	19.994	103.837	19.895	-1.926	0.504
794.000	483.372	80.007	19.993	103.834	19.894	-1.814	0.477
796.000	484.400	80.007	19.994	103.825	19.895	-1.919	0.499
798.000	485.440	80.007	19.994	103.843	19.897	-2.022	0.504
800.000	486.485	80.006	19.993	103.845	19.897	-2.022	0.500
802.000	487.491	80.005	19.994	103.844	19.897	-2.070	0.532
804.000	488.506	80.006	19.994	103.867	19.897	-2.072	0.503
806.000	489.568	80.004	19.994	103.882	19.896	-1.979	0.548
808.000	490.546	80.004	19.994	103.878	19.895	-1.936	0.506
810.000	491.601	80.004	19.994	103.879	19.898	-2.152	0.530
812.000	492.598	80.004	19.994	103.888	19.897	-2.032	0.495
814.000	493.672	80.004	19.994	103.890	19.897	-2.055	0.498
816.000	494.722	80.003	19.995	103.875	19.899	-2.188	0.507
818.000	495.713	80.006	19.994	103.883	19.899	-2.207	0.493
820.000	496.778	80.005	19.995	103.867	19.898	-2.136	0.513
822.000	497.768	80.005	19.995	103.876	19.900	-2.245	0.505
824.000	498.781	80.005	19.995	103.868	19.898	-2.126	0.501
826.000	499.797	80.005	19.995	103.869	19.894	-1.839	0.506
828.000	500.864	80.005	19.994	103.863	19.893	-1.734	0.518
830.000	501.896	80.005	19.993	103.842	19.896	-1.978	0.577
832.000	502.863	80.005	19.993	103.858	19.897	-2.079	0.498
834.000	503.883	80.004	19.994	103.833	19.897	-2.022	0.474
836.000	504.911	80.005	19.994	103.865	19.899	-2.218	0.506
838.000	505.945	80.004	19.993	103.845	19.890	-1.550	0.531
840.000	506.931	80.006	19.994	103.873	19.891	-1.602	0.494
842.000	507.920	80.005	19.995	103.863	19.902	-2.414	0.521
844.000	508.998	80.005	19.993	103.856	19.890	-1.530	0.423
846.000	510.052	80.006	19.994	103.856	19.895	-1.881	0.574
848.000	510.906	80.007	19.994	103.832	19.893	-1.764	0.490
850.000	512.155	80.005	19.994	103.843	19.892	-1.701	0.520
852.000	512.959	80.008	19.993	103.840	19.894	-1.864	0.528
854.000	513.688	80.008	19.992	103.843	19.896	-1.956	0.593
856.000	515.443	80.007	19.993	103.844	19.897	-2.026	0.487
858.000	516.060	80.008	19.992	103.847	19.894	-1.870	0.803
860.000	516.924	80.007	19.992	103.831	19.895	-1.918	1.028
862.000	518.134	80.006	19.994	103.846	19.894	-1.839	0.547
864.000	519.019	80.007	19.993	103.900	19.897	-2.038	0.531
866.000	520.116	80.007	19.994	103.862	19.896	-1.980	0.536
868.000	521.133	80.007	19.994	103.863	19.899	-2.201	0.515
870.000	522.174	80.008	19.994	103.868	19.898	-2.087	0.553
872.000	523.130	80.007	19.993	103.818	19.898	-2.091	0.519
874.000	524.169	80.007	19.993	103.862	19.895	-1.938	0.503
876.000	525.068	80.007	19.993	103.881	19.897	-2.073	0.461
878.000	526.125	80.006	19.993	103.842	19.897	-2.054	0.486
880.000	527.077	80.007	19.993	103.844	19.899	-2.182	0.520
882.000	528.109	80.006	19.993	103.848	19.900	-2.268	0.487
884.000	529.095	80.005	19.994	103.867	19.892	-1.681	0.482
886.000	530.064	80.005	19.994	103.848	19.895	-1.885	0.487
888.000	531.044	80.005	19.994	103.853	19.894	-1.869	0.470
890.000	532.032	80.004	19.994	103.844	19.898	-2.134	0.507
892.000	533.017	80.005	19.994	103.836	19.892	-1.716	0.474
894.000	534.016	80.005	19.995	103.851	19.899	-2.212	0.528
896.000	535.039	80.006	19.994	103.870	19.901	-2.344	0.475
898.000	536.027	80.005	19.993	103.862	19.900	-2.229	0.485
900.000	536.970	80.005	19.994	103.848	19.898	-2.142	0.471
902.000	537.941	80.005	19.994	103.843	19.897	-2.027	0.498
904.000	539.002	80.007	19.993	103.841	19.898	-2.085	0.547
906.000	539.944	80.005	19.995	103.840	19.897	-2.036	0.500
908.000	540.989	80.005	19.996	103.839	19.894	-1.839	0.469
910.000	541.994	80.005	19.995	103.841	19.895	-1.900	0.527
912.000	542.971	80.005	19.994	103.848	19.896	-1.968	0.508
914.000	543.976	80.004	19.995	103.848	19.897	-2.039	0.477
916.000	544.998	80.004	19.995	103.874	19.897	-2.074	0.501
918.000	545.981	80.004	19.994	103.880	19.900	-2.249	0.488
920.000	546.968	80.005	19.994	103.862	19.895	-1.938	0.487
922.000	547.986	80.006	19.994	103.842	19.897	-2.036	0.484
924.000	549.037	80.005	19.993	103.855	19.896	-1.959	0.507
926.000	550.023	80.005	19.993	103.869	19.896	-1.993	0.497
928.000	551.087	80.006	19.993	103.865	19.895	-1.942	0.537
930.000	552.095	80.006	19.993	103.860	19.900	-2.228	0.499
932.000	553.107	80.006	19.994	103.881	19.898	-2.132	0.477
934.000	554.130	80.006	19.993	103.879	19.897	-2.016	0.482
936.000	555.226	80.007	19.994	103.856	19.899	-2.217	0.550
938.000	556.205	80.006	19.993	103.856	19.900	-2.280	0.540
940.000	557.250	80.004	19.994	103.858	19.897	-2.043	0.501
942.000	558.294	80.005	19.994	103.840	19.896	-1.952	0.514
944.000	559.361	80.005	19.994	103.841	19.895	-1.908	0.515
946.000	560.368	80.005	19.995	103.854	19.896	-1.976	0.514
948.000	561.410	80.005	19.993	103.867	19.896	-1.978	0.515
950.000	562.460	80.006	19.994	103.858	19.899	-2.155	0.501
952.000	563.500	80.008	19.994	103.866	19.897	-2.078	0.493
954.000	564.528	80.009	19.993	103.880	19.897	-2.066	0.512
956.000	565.607	80.007	19.994	103.871	19.897	-2.033	0.552
958.000	566.617	80.008	19.994	103.841	19.897	-2.024	0.532
960.000	567.662	80.007	19.993	103.841	19.899	-2.160	0.542
962.000	568.668	80.007	19.994	103.867	19.895	-1.934	0.519
964.000	569.763	80.006	19.994	103.871	19.895	-1.875	0.548
966.000	570.774	80.007	19.993	103.854	19.894	-1.869	0.531
968.000	571.822	80.007	19.994	103.871	19.895	-1.942	0.505
970.000	572.879	80.006	19.994	103.876	19.897	-2.066	0.546
972.000	573.975	80.004	19.995	103.868	19.898	-2.129	0.569
974.000	574.998	80.005	19.994	103.862	19.898	-2.116	0.536
976.000	576.031	80.005	19.995	103.858	19.900	-2.255	0.536
978.000	577.118	80.005	19.995	103.861	19.901	-2.306	0.548
980.000	578.104	80.005	19.995	103.878	19.899	-2.218	0.532
982.000	579.172	80.006	19.994	103.893	19.899	-2.211	0.541
984.000	580.217	80.005	19.994	103.878	19.902	-2.367	0.536
986.000	581.208	80.005	19.994	103.875	19.900	-2.255	0.505
988.000	582.271	80.006	19.994	103.873	19.896	-1.990	0.496
990.000	583.275	80.005	19.995	103.863	19.898	-2.139	0.510
992.000	584.315	80.004	19.994	103.852	19.897	-2.051	0.503
994.000	585.326	80.003	19.995	103.870	19.897	-2.070	0.486
996.000	586.348	80.004	19.994	103.870	19.899	-2.200	0.510
998.000	587.384	80.003	19.994	103.880	19.899	-2.158	0.533
1000.000	588.374	80.003	19.995	103.881	19.901	-2.327	0.519
1002.000	589.376	80.003	19.994	103.856	19.900	-2.260	0.497
1004.000	590.457	80.003	19.996	103.871	19.898	-2.117	0.532
1006.000	591.469	80.004	19.994	103.882	19.898	-2.152	0.539
1008.000	592.513	80.005	19.995	103.883	19.896	-1.972	0.532
1010.000	593.548	80.005	19.994	103.874	19.896	-1.984	0.542
1012.000	594.611	80.007	19.995	103.863	19.896	-1.976	0.533
1014.000	595.650	80.007	19.994	103.860	19.895	-1.887	0.533
1016.000	596.632	80.006	19.993	103.855	19.894	-1.831	0.485
1018.000	597.690	80.006	19.994	103.858	19.891	-1.627	0.519
1020.000	598.701	80.007	19.993	103.855	19.896	-1.973	0.493
1022.000	599.762	80.005	19.993	103.865	19.894	-1.807	0.531
1024.000	600.742	80.007	19.993	103.853	19.893	-1.772	0.502
1026.001	601.781	80.005	19.993	103.863	19.896	-1.957	0.500
1028.000	602.836	80.007	19.992	103.859	19.902	-2.399	0.545
1030.000	603.833	80.007	19.993	103.883	19.896	-1.992	0.517
1032.001	604.860	80.007	19.993	103.878	19.896	-2.007	0.534
1034.000	605.896	80.006	19.994	103.877	19.897	-2.051	0.501
1036.000	606.907	80.007	19.993	103.865	19.896	-1.953	0.507
1038.001	607.910	80.008	19.992	103.839	19.900	-2.266	0.489
1040.000	608.952	80.008	19.993	103.860	19.896	-1.995	0.502
1042.000	610.015	80.008	19.993	103.888	19.896	-1.993	0.516
1044.000	611.037	80.007	19.993	103.870	19.895	-1.885	0.510
1046.000	612.049	80.006	19.994	103.857	19.898	-2.127	0.536
1048.001	613.063	80.007	19.993	103.842	19.897	-2.075	0.511
1050.000	614.078	80.006	19.993	103.851	19.897	-2.016	0.513
1052.000	615.133	80.005	19.993	103.856	19.896	-1.961	0.528
1054.000	616.118	80.007	19.993	103.855	19.898	-2.108	0.504
1056.000	617.137	80.006	19.995	103.868	19.895	-1.898	0.483
1058.000	618.146	80.005	19.993	103.869	19.894	-1.846	0.536
1060.000	619.169	80.005	19.993	103.867	19.895	-1.925	0.517
1062.000	620.202	80.005	19.994	103.869	19.895	-1.919	0.486
1064.000	621.207	80.005	19.993	103.862	19.897	-2.054	0.497
1066.000	622.245	80.006	19.993	103.879	19.896	-1.980	0.492
1068.000	623.267	80.006	19.994	103.859	19.898	-2.112	0.510
1070.001	624.262	80.005	19.994	103.865	19.893	-1.797	0.496
1072.000	625.287	80.003	19.994	103.883	19.893	-1.732	0.524
1074.000	626.271	80.004	19.994	103.862	19.896	-1.974	0.500
1076.000	627.306	80.004	19.993	103.851	19.893	-1.801	0.516
1078.000	628.349	80.005	19.993	103.879	19.893	-1.800	0.527
1080.000	629.313	80.004	19.994	103.880	19.897	-2.045	0.488
1082.000	630.352	80.005	19.994	103.876	19.895	-1.906	0.496
1084.000	631.357	80.004	19.994	103.860	19.896	-2.007	0.453
1086.001	632.386	80.005	19.993	103.866	19.895	-1.942	0.551
1088.000	633.427	80.004	19.993	103.856	19.896	-1.990	0.508
1090.000	634.462	80.005	19.995	103.851	19.893	-1.759	0.508
1092.000	635.545	80.008	19.994	103.871	19.893	-1.782	0.534
1094.000	636.529	80.005	19.994	103.876	19.894	-1.810	0.524
1096.000	637.564	80.006	19.996	103.876	19.895	-1.919	0.553
1098.000	638.555	80.005	19.994	103.877	19.896	-1.981	0.501
1100.000	639.639	80.007	19.994	103.878	19.895	-1.893	0.542
1102.000	640.600	80.006	19.995	103.878	19.894	-1.864	0.484
1104.001	641.607	80.006	19.993	103.867	19.889	-1.471	0.497
1106.000	642.636	80.005	19.995	103.866	19.892	-1.679	0.510
1108.000	643.646	80.006	19.993	103.863	19.893	-1.773	0.490
1110.000	644.667	80.006	19.994	103.903	19.893	-1.752	0.536
1112.000	645.644	80.006	19.994	103.889	19.895	-1.891	0.516
1114.000	646.665	80.008	19.993	103.877	19.894	-1.864	0.522
1116.000	647.622	80.006	19.994	103.882	19.893	-1.751	0.470
1118.000	648.617	80.008	19.994	103.898	19.896	-1.948	0.477
1120.001	649.614	80.008	19.994	103.898	19.897	-2.062	0.483
1122.000	650.625	80.009	19.993	103.892	19.891	-1.652	0.507
1124.001	651.675	80.007	19.994	103.880	19.897	-2.028	0.502
1126.000	652.683	80.007	19.992	103.870	19.891	-1.610	0.546
1128.000	653.670	80.006	19.994	103.867	19.893	-1.750	0.516
1130.000	654.702	80.004	19.994	103.879	19.891	-1.610	0.499
1132.000	655.744	80.004	19.994	103.885	19.889	-1.477	0.512
1134.000	656.760	80.003	19.994	103.881	19.892	-1.700	0.512
1136.000	657.770	80.005	19.993	103.855	19.890	-1.584	0.493
1138.000	658.792	80.005	19.993	103.871	19.892	-1.723	0.500
1140.000	659.828	80.005	19.993	103.883	19.890	-1.540	0.504
1142.000	660.865	80.005	19.994	103.901	19.890	-1.531	0.525
1144.000	661.877	80.007	19.995	103.901	19.891	-1.653	0.510
1146.000	662.912	80.006	19.995	103.881	19.893	-1.788	0.517
1148.000	663.970	80.007	19.994	103.896	19.894	-1.816	0.528
1150.000	664.965	80.007	19.994	103.919	19.898	-2.085	0.537
1152.000	666.015	80.006	19.993	103.917	19.895	-1.874	0.497
1154.001	666.997	80.006	19.994	103.907	19.891	-1.627	0.508
1156.000	668.005	80.006	19.994	103.905	19.891	-1.597	0.495
1158.000	669.055	80.006	19.994	103.901	19.890	-1.557	0.517
1160.000	670.136	80.005	19.995	103.883	19.891	-1.658	0.464
1162.000	671.114	80.005	19.994	103.881	19.891	-1.618	0.485
1164.000	672.120	80.006	19.994	103.880	19.889	-1.493	0.489
1166.000	673.148	80.005	19.995	103.892	19.887	-1.344	0.480
1168.001	674.114	80.005	19.996	103.902	19.886	-1.308	0.462
1170.000	675.183	80.007	19.993	103.913	19.889	-1.458	0.517
1172.000	676.192	80.008	19.994	103.900	19.885	-1.233	0.527
1174.000	677.193	80.006	19.993	103.915	19.889	-1.510	0.479
1176.000	678.184	80.007	19.994	103.935	19.888	-1.407	0.476
1178.000	679.183	80.007	19.995	103.949	19.889	-1.458	0.544
1180.000	680.211	80.005	19.994	103.940	19.892	-1.693	0.516
1182.000	681.206	80.006	19.993	103.932	19.890	-1.581	0.483
1184.000	682.284	80.004	19.994	103.928	19.888	-1.405	0.516
1186.001	683.275	80.005	19.994	103.922	19.889	-1.460	0.495
1188.000	684.290	80.006	19.994	103.919	19.887	-1.328	0.523
1190.000	685.303	80.006	19.995	103.927	19.888	-1.414	0.526
1192.000	686.319	80.005	19.995	103.937	19.889	-1.521	0.471
1194.000	687.362	80.004	19.993	103.930	19.885	-1.193	0.500
1196.001	688.370	80.007	19.995	103.919	19.886	-1.279	0.524
1198.001	689.430	80.006	19.995	103.918	19.883	-1.035	0.509
1200.001	690.470	80.008	19.995	103.912	19.884	-1.144	0.541
1202.000	691.461	80.008	19.994	103.919	19.883	-1.096	0.501
1204.000	692.493	80.008	19.993	103.922	19.883	-1.037	0.502
1206.000	693.524	80.007	19.994	103.932	19.881	-0.926	0.499
1208.000	694.520	80.006	19.994	103.953	19.882	-1.020	0.532
1210.000	695.515	80.006	19.993	103.961	19.882	-0.981	0.500
1212.000	696.525	80.005	19.994	103.969	19.882	-1.004	0.529
1214.001	697.597	80.006	19.994	103.959	19.883	-1.052	0.493
1216.001	698.569	80.004	19.993	103.955	19.879	-0.813	0.479
1218.000	699.620	80.005	19.993	103.952	19.881	-0.913	0.507
1220.000	700.582	80.004	19.993	103.946	19.884	-1.167	0.492
1222.000	701.623	80.005	19.994	103.957	19.878	-0.708	0.525
1224.000	702.649	80.006	19.995	103.968	19.878	-0.731	0.525
1226.000	703.670	80.006	19.993	103.970	19.878	-0.737	0.513
1228.000	704.697	80.006	19.994	103.974	19.877	-0.676	0.530
1230.000	705.663	80.005	19.995	103.977	19.878	-0.720	0.528
1232.000	706.690	80.004	19.994	103.967	19.875	-0.497	0.499
1234.000	707.764	80.006	19.993	103.968	19.879	-0.791	0.525
1236.000	708.730	80.005	19.993	103.962	19.877	-0.611	0.499
1238.000	709.788	80.005	19.992	103.989	19.875	-0.516	0.523
1240.000	710.775	80.006	19.994	104.008	19.875	-0.523	0.505
1242.000	711.805	80.004	19.995	104.018	19.873	-0.332	0.508
1244.000	712.803	80.012	19.996	104.002	19.873	-0.346	0.514
1246.000	713.785	80.022	20.001	104.034	19.871	-0.248	0.503
1248.000	714.825	80.023	20.000	104.019	19.873	-0.377	0.493
1250.000	715.901	80.024	20.002	104.026	19.872	-0.292	0.529
1252.000	716.879	80.023	20.001	104.024	19.869	-0.094	0.502
1254.000	717.914	80.025	20.001	104.038	19.868	-0.032	0.525
1256.000	718.911	80.025	20.000	104.040	19.872	-0.268	0.511
1258.000	719.894	80.024	20.002	104.068	19.871	-0.222	0.516
1260.000	720.920	80.024	20.002	104.075	19.864	0.235	0.510
1262.000	721.910	80.023	20.001	104.068	19.866	0.118	0.495
1264.000	722.919	80.023	20.001	104.055	19.869	-0.073	0.500
1266.000	723.900	80.024	20.002	104.075	19.867	0.080	0.513
1268.000	724.913	80.024	20.001	104.077	19.868	-0.021	0.481
1270.000	725.903	80.025	20.002	104.065	19.863	0.373	0.471
1272.000	726.911	80.014	19.998	104.062	19.861	0.453	0.511
1274.000	727.900	80.006	19.996	104.072	19.861	0.445	0.524
1276.000	728.886	80.006	19.995	104.072	19.860	0.533	0.506
1278.000	729.888	80.006	19.994	104.057	19.858	0.694	0.498
1280.000	730.931	80.007	19.994	104.076	19.858	0.696	0.518
1282.000	731.904	80.008	19.993	104.110	19.856	0.799	0.511
1284.000	732.876	80.007	19.994	104.099	19.855	0.895	0.475
1286.000	733.828	80.008	19.995	104.109	19.855	0.897	0.466
1288.000	734.853	80.006	19.996	104.108	19.857	0.782	0.520
1290.000	735.849	80.006	19.994	104.115	19.852	1.107	0.497
1292.000	736.843	80.006	19.995	104.125	19.853	1.040	0.503
1294.000	737.850	80.004	19.993	104.121	19.856	0.834	0.490
1296.000	738.835	80.003	19.994	104.149	19.851	1.165	0.470
1298.000	739.808	80.005	19.994	104.147	19.851	1.194	0.475
1300.000	740.847	80.005	19.994	104.154	19.851	1.190	0.504
1302.000	741.895	80.005	19.993	104.139	19.849	1.307	0.532
1304.000	742.918	80.005	19.994	104.146	19.845	1.598	0.524
1305.500	743.663	80.005	19.994	104.151	19.847	1.450	0.487