File: 01_Data/Cinder_Block/MCC/Cinder_Block_MCC_30K_min_220223_R1.txt
Sample ID:	C:\MCC\MCC Cal\Test\Cinder_Block_MCC_30K_min_220223_R1.txt
Sample Weight (mg):	4.94
Heating Rate (C/s):	0.5
Combustor Temp (C):	900
N2 Flow Rate (cc/min):	80
O2 Flow Rate (cc/min):	20
Calibration File:	C:\MCC\MCC Cal\Coeff1 JN10440_30_210304.txt.txt
T Correction Coefficients:	0	1.024463	0
Time Shift (s):	14
*
Time (s)	Temperature (C)	N2 flow rate (cc/min)	O2 flow rate (cc/min)	Flow Rate (cc/min)	Oxygen (%)	HRR (W/g)	Heating rate (C/s)
0.000	111.904	80.004	19.995	103.699	19.942	-0.173	-0.006
1.500	111.872	80.007	19.993	103.698	19.942	-0.175	-0.017
3.000	111.867	80.007	19.995	103.693	19.938	0.075	-0.025
4.500	111.861	80.009	19.991	103.689	19.943	-0.273	-0.010
6.000	111.887	80.004	19.996	103.682	19.943	-0.262	0.044
7.500	111.909	80.010	19.990	103.683	19.941	-0.105	0.019
9.000	111.866	80.003	19.993	103.690	19.942	-0.155	-0.012
10.500	111.888	80.001	19.987	103.682	19.938	0.078	0.031
12.000	111.839	80.006	19.994	103.690	19.939	0.045	-0.026
13.500	111.909	80.002	19.991	103.699	19.936	0.226	0.044
15.000	111.894	80.005	19.994	103.718	19.934	0.330	0.003
16.500	111.926	80.002	19.994	103.732	19.932	0.476	0.029
18.000	111.930	80.003	19.993	103.740	19.930	0.576	0.002
19.500	111.972	80.003	19.992	103.755	19.931	0.571	0.032
21.000	112.014	79.998	19.997	103.772	19.926	0.842	0.031
22.500	112.080	80.005	19.995	103.794	19.924	1.022	0.046
24.000	112.107	80.003	19.997	103.801	19.920	1.260	0.056
25.500	112.188	80.004	19.995	103.808	19.918	1.419	0.048
27.000	112.284	80.005	19.994	103.830	19.914	1.667	0.065
28.500	112.418	80.003	19.995	103.860	19.913	1.717	0.101
30.000	112.521	80.005	19.993	103.878	19.910	1.924	0.069
31.500	112.667	80.004	19.995	103.884	19.911	1.877	0.096
33.000	112.837	80.005	19.995	103.884	19.906	2.169	0.111
34.500	113.015	80.006	19.995	103.884	19.905	2.221	0.110
36.000	113.255	80.004	19.994	103.890	19.906	2.211	0.153
37.500	113.436	80.004	19.992	103.891	19.903	2.403	0.116
39.000	113.727	80.000	19.995	103.888	19.902	2.436	0.200
40.500	113.932	80.002	19.993	103.885	19.907	2.129	0.137
42.000	114.230	80.003	19.992	103.876	19.905	2.231	0.183
43.500	114.477	80.003	19.994	103.868	19.903	2.354	0.170
45.000	114.765	80.001	19.997	103.881	19.902	2.425	0.198
46.500	115.066	80.005	19.993	103.882	19.903	2.345	0.197
48.000	115.374	80.008	19.995	103.880	19.905	2.272	0.188
49.500	115.719	80.008	19.991	103.880	19.905	2.270	0.225
51.000	116.031	80.005	19.995	103.901	19.900	2.568	0.223
52.501	116.390	80.003	19.996	103.902	19.897	2.776	0.231
54.000	116.768	80.006	19.993	103.904	19.895	2.926	0.242
55.500	117.127	80.002	19.998	103.911	19.898	2.684	0.244
57.000	117.480	80.010	19.994	103.897	19.895	2.887	0.238
58.500	117.912	80.003	19.994	103.903	19.893	3.012	0.279
60.000	118.328	80.008	19.995	103.917	19.891	3.152	0.273
61.500	118.769	80.005	19.987	103.913	19.891	3.148	0.302
63.000	119.195	80.000	19.996	103.915	19.892	3.072	0.293
64.500	119.612	80.005	19.994	103.932	19.891	3.136	0.289
66.000	120.065	80.000	19.993	103.960	19.892	3.079	0.295
67.500	120.568	80.002	19.993	103.964	19.895	2.901	0.329
69.000	121.037	80.006	19.995	103.957	19.893	3.062	0.303
70.500	121.538	80.003	19.994	103.957	19.889	3.326	0.332
72.000	122.095	80.005	19.994	103.962	19.891	3.175	0.376
73.500	122.560	80.002	19.994	103.931	19.890	3.202	0.306
75.000	123.082	80.000	19.990	103.922	19.891	3.153	0.344
76.500	123.651	80.003	19.994	103.932	19.888	3.365	0.360
78.001	124.201	80.001	19.995	103.927	19.888	3.335	0.349
79.500	124.769	80.006	19.992	103.927	19.890	3.230	0.370
81.000	125.332	80.003	19.993	103.942	19.891	3.162	0.361
82.500	125.881	80.004	19.994	103.970	19.889	3.271	0.357
84.000	126.447	80.002	19.994	103.971	19.890	3.202	0.395
85.500	127.002	80.002	19.994	103.956	19.892	3.117	0.365
87.000	127.636	80.004	19.993	103.934	19.890	3.255	0.410
88.500	128.199	80.004	19.995	103.941	19.890	3.200	0.372
90.001	128.813	80.004	19.993	103.950	19.886	3.472	0.412
91.500	129.398	80.003	19.994	103.960	19.889	3.293	0.392
93.000	130.031	80.001	19.998	103.950	19.887	3.457	0.403
94.500	130.662	80.004	19.996	103.931	19.891	3.186	0.412
96.001	131.259	80.004	19.994	103.934	19.888	3.350	0.411
97.500	131.899	80.003	19.993	103.956	19.889	3.323	0.422
99.000	132.584	80.005	19.988	103.962	19.889	3.327	0.468
100.500	133.221	80.000	19.995	103.965	19.889	3.328	0.413
102.000	133.906	80.006	19.996	103.961	19.888	3.341	0.458
103.501	134.580	80.008	19.992	103.952	19.886	3.506	0.454
105.000	135.257	80.007	19.992	103.956	19.887	3.437	0.460
106.500	135.925	80.005	19.995	103.958	19.890	3.255	0.442
108.000	136.539	80.007	19.990	103.962	19.887	3.435	0.423
109.500	137.282	80.010	19.992	103.960	19.890	3.251	0.505
111.000	137.981	80.004	19.992	103.961	19.887	3.415	0.459
112.500	138.649	80.005	19.994	103.958	19.888	3.347	0.425
114.000	139.384	80.008	19.992	103.947	19.888	3.344	0.481
115.500	140.051	80.007	19.994	103.937	19.886	3.526	0.437
117.000	140.843	80.005	19.995	103.936	19.885	3.566	0.506
118.500	141.511	80.005	19.994	103.933	19.885	3.584	0.453
120.000	142.214	80.003	19.997	103.942	19.886	3.503	0.467
121.500	142.995	80.006	19.993	103.946	19.886	3.494	0.530
123.000	143.746	80.001	19.994	103.932	19.884	3.595	0.519
124.500	144.473	80.002	19.992	103.928	19.887	3.435	0.466
126.000	145.210	80.003	19.998	103.927	19.887	3.425	0.489
127.500	145.981	80.005	19.993	103.936	19.891	3.157	0.515
129.000	146.678	80.006	19.992	103.999	19.893	3.051	0.495
130.500	147.416	80.003	19.997	104.013	19.889	3.317	0.492
132.000	148.186	80.004	19.994	103.971	19.893	3.060	0.520
133.500	148.916	80.006	19.993	103.938	19.890	3.204	0.483
135.000	149.673	80.006	19.993	103.936	19.889	3.308	0.489
136.500	150.432	80.011	19.988	103.951	19.891	3.178	0.525
138.000	151.180	80.005	19.994	103.954	19.890	3.230	0.484
139.500	151.974	80.012	19.993	103.929	19.892	3.130	0.521
141.000	152.737	80.007	19.993	103.920	19.887	3.449	0.489
142.500	153.498	80.006	19.991	103.933	19.891	3.165	0.489
144.000	154.215	80.002	20.000	103.930	19.891	3.188	0.460
145.500	154.996	80.006	19.995	103.931	19.890	3.208	0.520
147.000	155.762	80.002	19.991	103.930	19.888	3.338	0.517
148.500	156.509	80.004	19.993	103.934	19.892	3.110	0.502
150.000	157.282	80.004	19.993	103.936	19.889	3.324	0.491
151.500	158.040	80.001	19.996	103.947	19.889	3.313	0.497
153.000	158.840	80.003	19.990	103.940	19.892	3.109	0.513
154.500	159.568	80.002	19.999	103.932	19.889	3.286	0.479
156.000	160.352	80.005	19.994	103.924	19.893	3.051	0.532
157.500	161.094	80.004	19.996	103.925	19.894	2.940	0.490
159.000	161.880	80.002	19.993	103.924	19.894	2.997	0.537
160.500	162.662	80.008	19.992	103.922	19.896	2.852	0.513
162.000	163.401	80.003	19.993	103.925	19.894	2.973	0.501
163.500	164.147	80.004	19.993	103.924	19.894	2.970	0.496
165.000	164.959	80.003	19.997	103.920	19.893	3.036	0.532
166.500	165.745	80.006	19.988	103.917	19.896	2.817	0.530
168.000	166.518	80.006	19.994	103.921	19.898	2.732	0.509
169.500	167.287	80.005	19.991	103.915	19.895	2.898	0.531
171.000	168.039	80.005	19.993	103.896	19.899	2.663	0.512
172.500	168.810	80.002	19.993	103.889	19.894	2.963	0.516
174.000	169.545	80.000	19.997	103.907	19.893	3.007	0.499
175.500	170.286	80.008	19.993	103.922	19.896	2.861	0.499
177.000	171.082	80.008	19.995	103.920	19.893	3.029	0.528
178.500	171.812	80.005	19.992	103.910	19.892	3.068	0.476
180.000	172.569	80.001	19.996	103.902	19.896	2.848	0.519
181.500	173.351	80.004	19.999	103.914	19.892	3.101	0.528
183.000	174.064	80.006	19.991	103.908	19.897	2.782	0.476
184.500	174.814	80.003	19.996	103.904	19.897	2.802	0.500
186.000	175.597	80.003	19.999	103.908	19.895	2.918	0.518
187.500	176.298	80.007	19.994	103.905	19.894	2.991	0.490
189.000	177.047	80.006	19.993	103.902	19.894	2.988	0.490
190.500	177.803	80.007	19.993	103.894	19.892	3.104	0.470
192.000	178.523	80.006	19.993	103.888	19.892	3.083	0.484
193.500	179.322	80.005	19.993	103.899	19.893	3.008	0.548
195.000	180.063	80.006	19.994	103.902	19.896	2.850	0.500
196.500	180.804	80.006	19.991	103.891	19.896	2.866	0.511
198.000	181.575	80.003	19.994	103.889	19.898	2.737	0.493
199.500	182.334	80.004	19.996	103.905	19.900	2.596	0.486
201.000	183.052	80.004	19.995	103.925	19.902	2.430	0.481
202.500	183.787	80.001	19.985	103.926	19.897	2.783	0.490
204.000	184.534	80.006	19.990	103.919	19.898	2.682	0.492
205.500	185.235	80.006	19.993	103.906	19.897	2.760	0.482
207.000	186.029	80.006	19.994	103.891	19.897	2.739	0.530
208.500	186.806	80.005	19.992	103.886	19.896	2.835	0.504
210.000	187.550	80.001	19.990	103.874	19.897	2.796	0.494
211.500	188.265	80.008	19.994	103.880	19.897	2.769	0.479
213.000	189.029	80.004	19.993	103.908	19.897	2.785	0.514
214.500	189.773	80.003	19.998	103.902	19.900	2.593	0.503
216.000	190.479	80.001	19.998	103.886	19.896	2.849	0.473
217.500	191.216	80.007	19.994	103.887	19.900	2.603	0.495
219.000	191.930	80.006	19.995	103.886	19.898	2.709	0.510
220.500	192.655	80.004	19.995	103.884	19.901	2.534	0.495
222.000	193.403	80.005	19.992	103.884	19.903	2.409	0.507
223.500	194.160	80.007	19.984	103.883	19.899	2.614	0.505
225.000	194.878	80.006	19.993	103.885	19.903	2.380	0.480
226.500	195.606	80.003	19.995	103.876	19.900	2.589	0.496
228.000	196.338	80.001	19.994	103.873	19.898	2.689	0.480
229.500	197.049	80.005	19.993	103.883	19.897	2.751	0.473
231.000	197.765	80.003	19.991	103.880	19.898	2.721	0.466
232.500	198.543	80.006	19.989	103.881	19.895	2.880	0.495
234.000	199.240	80.005	19.998	103.888	19.898	2.673	0.479
235.500	199.983	80.009	19.991	103.886	19.895	2.909	0.489
237.000	200.712	80.010	19.997	103.885	19.895	2.880	0.489
238.500	201.395	80.000	20.002	103.871	19.897	2.743	0.444
240.000	202.212	80.001	19.995	103.875	19.894	2.975	0.522
241.500	202.909	79.999	19.998	103.880	19.895	2.917	0.486
243.000	203.589	80.003	19.991	103.881	19.895	2.907	0.447
244.500	204.330	80.004	19.993	103.885	19.897	2.777	0.487
246.000	205.066	80.006	19.992	103.889	19.894	2.942	0.456
247.500	205.830	80.003	19.994	103.886	19.894	2.992	0.529
249.000	206.499	80.004	19.994	103.882	19.891	3.192	0.426
250.500	207.274	80.003	19.996	103.883	19.895	2.910	0.524
252.000	207.999	80.003	19.994	103.883	19.894	2.935	0.476
253.500	208.726	80.002	19.994	103.882	19.899	2.644	0.498
255.000	209.454	80.003	19.993	103.884	19.896	2.810	0.488
256.500	210.183	79.999	19.996	103.886	19.899	2.658	0.474
258.000	210.893	80.001	19.999	103.883	19.900	2.590	0.481
259.500	211.688	80.000	19.994	103.883	19.897	2.800	0.506
261.000	212.409	79.999	19.994	103.886	19.899	2.622	0.472
262.500	213.136	80.006	19.990	103.883	19.901	2.522	0.481
264.000	213.873	80.002	19.991	103.875	19.901	2.511	0.513
265.500	214.628	80.003	19.990	103.869	19.897	2.800	0.481
267.000	215.393	80.005	19.991	103.878	19.901	2.536	0.500
268.500	216.090	80.006	19.996	103.864	19.899	2.652	0.460
270.000	216.844	80.006	19.995	103.881	19.900	2.541	0.501
271.500	217.628	80.005	19.994	103.912	19.899	2.607	0.525
273.000	218.393	80.004	19.992	103.910	19.899	2.614	0.507
274.500	219.133	80.006	19.993	103.893	19.898	2.716	0.486
276.000	219.885	80.004	19.993	103.876	19.897	2.750	0.497
277.500	220.607	80.004	19.993	103.878	19.900	2.552	0.483
279.000	221.355	80.004	19.993	103.887	19.898	2.725	0.482
280.500	222.070	80.003	19.993	103.892	19.899	2.659	0.471
282.000	222.806	79.997	20.002	103.887	19.897	2.784	0.486
283.500	223.547	80.010	19.990	103.897	19.897	2.741	0.486
285.000	224.318	80.008	19.993	103.892	19.894	2.969	0.530
286.500	225.098	80.007	19.990	103.876	19.898	2.721	0.509
288.000	225.870	80.010	19.985	103.882	19.895	2.891	0.517
289.500	226.615	80.005	19.992	103.884	19.899	2.657	0.488
291.000	227.358	80.009	19.994	103.885	19.899	2.649	0.501
292.500	228.120	80.002	19.992	103.902	19.900	2.571	0.514
294.000	228.927	80.005	20.001	103.893	19.899	2.644	0.520
295.500	229.709	80.006	19.995	103.883	19.902	2.471	0.517
297.000	230.455	80.001	19.996	103.880	19.900	2.596	0.493
298.500	231.212	80.005	19.998	103.878	19.897	2.762	0.515
300.000	231.977	80.006	19.994	103.883	19.899	2.647	0.509
301.500	232.730	80.006	19.992	103.873	19.900	2.548	0.501
303.000	233.518	80.002	19.996	103.870	19.902	2.459	0.512
304.500	234.305	80.003	19.995	103.859	19.899	2.650	0.530
306.000	235.065	80.002	19.994	103.853	19.899	2.648	0.504
307.500	235.868	80.001	19.992	103.860	19.899	2.664	0.557
309.000	236.618	80.000	19.996	103.860	19.896	2.814	0.492
310.500	237.355	80.002	20.000	103.854	19.901	2.533	0.509
312.000	238.176	80.010	19.991	103.858	19.901	2.528	0.530
313.500	238.902	80.002	19.992	103.871	19.903	2.380	0.520
315.000	239.636	80.004	19.993	103.876	19.903	2.364	0.480
316.501	240.433	80.005	19.993	103.877	19.904	2.294	0.529
318.000	241.150	80.006	19.993	103.871	19.902	2.412	0.494
319.500	241.936	80.004	19.996	103.873	19.903	2.359	0.515
321.000	242.677	80.002	19.995	103.869	19.902	2.443	0.506
322.500	243.470	80.004	19.993	103.858	19.900	2.564	0.514
324.000	244.256	80.001	19.991	103.849	19.900	2.571	0.510
325.500	245.004	80.004	19.993	103.857	19.901	2.527	0.501
327.000	245.778	80.007	19.993	103.862	19.901	2.482	0.518
328.500	246.532	80.008	19.990	103.864	19.901	2.527	0.518
330.000	247.288	80.005	19.996	103.877	19.900	2.559	0.495
331.500	248.078	80.004	19.994	103.885	19.901	2.517	0.537
333.000	248.862	80.002	19.999	103.878	19.904	2.312	0.526
334.500	249.587	80.001	20.000	103.867	19.902	2.469	0.494
336.000	250.373	80.000	19.998	103.875	19.902	2.462	0.524
337.500	251.137	80.001	19.997	103.883	19.901	2.516	0.509
339.000	251.915	80.008	19.992	103.880	19.903	2.373	0.508
340.500	252.652	80.001	19.995	103.878	19.906	2.190	0.488
342.000	253.372	79.999	19.994	103.866	19.905	2.267	0.467
343.500	254.174	79.998	19.993	103.861	19.903	2.385	0.533
345.000	254.947	80.006	19.988	103.853	19.906	2.160	0.513
346.500	255.691	80.005	19.992	103.851	19.904	2.290	0.499
348.000	256.436	80.001	19.992	103.860	19.906	2.205	0.484
349.500	257.179	80.006	19.992	103.879	19.905	2.260	0.497
351.000	257.935	80.010	19.990	103.853	19.906	2.199	0.503
352.500	258.717	80.003	19.994	103.849	19.907	2.133	0.486
354.000	259.465	80.006	19.990	103.859	19.904	2.324	0.491
355.500	260.227	80.006	19.988	103.851	19.906	2.203	0.507
357.000	260.972	80.011	19.991	103.849	19.905	2.217	0.506
358.500	261.730	80.005	19.992	103.847	19.908	2.073	0.499
360.000	262.440	80.004	19.991	103.849	19.907	2.101	0.482
361.500	263.209	80.009	19.996	103.853	19.905	2.239	0.502
363.000	263.938	80.003	19.993	103.852	19.907	2.132	0.485
364.500	264.680	80.010	19.993	103.848	19.904	2.314	0.485
366.000	265.447	80.005	19.988	103.845	19.906	2.185	0.507
367.500	266.199	80.006	19.992	103.854	19.904	2.337	0.499
369.000	266.915	80.002	19.999	103.858	19.904	2.278	0.485
370.500	267.686	80.006	19.994	103.846	19.906	2.180	0.496
372.000	268.421	80.005	19.994	103.850	19.902	2.469	0.497
373.500	269.142	80.000	20.003	103.849	19.902	2.444	0.480
375.000	269.931	80.007	19.995	103.848	19.904	2.335	0.524
376.500	270.644	80.008	19.993	103.863	19.904	2.303	0.489
378.000	271.412	80.006	19.994	103.852	19.906	2.203	0.500
379.500	272.219	80.006	19.993	103.851	19.909	1.991	0.536
381.000	272.925	80.008	19.993	103.853	19.908	2.030	0.460
382.500	273.653	80.004	19.996	103.859	19.904	2.314	0.434
384.000	274.362	80.004	19.993	103.856	19.904	2.290	0.473
385.500	275.182	80.004	19.988	103.851	19.905	2.269	0.543
387.000	275.884	80.004	19.994	103.856	19.906	2.160	0.472
388.500	276.584	80.002	19.992	103.853	19.903	2.383	0.479
390.000	277.394	80.005	19.992	103.850	19.906	2.190	0.542
391.500	278.146	80.003	19.991	103.859	19.904	2.317	0.471
393.000	278.887	80.003	19.995	103.857	19.908	2.060	0.482
394.500	279.614	80.005	19.995	103.847	19.904	2.310	0.483
396.001	280.332	80.001	19.994	103.849	19.907	2.142	0.458
397.500	281.072	80.002	19.995	103.845	19.905	2.253	0.471
399.000	281.812	80.001	19.991	103.848	19.906	2.151	0.493
400.500	282.551	80.004	19.993	103.850	19.907	2.092	0.488
402.000	283.322	80.003	19.994	103.851	19.905	2.215	0.518
403.500	284.033	80.003	19.999	103.859	19.909	1.992	0.491
405.000	284.779	80.004	19.993	103.855	19.908	2.074	0.473
406.500	285.549	80.002	19.994	103.851	19.906	2.183	0.518
408.000	286.252	80.003	19.995	103.860	19.907	2.089	0.482
409.500	287.030	80.006	19.993	103.857	19.906	2.206	0.504
411.000	287.755	80.003	19.996	103.847	19.905	2.240	0.500
412.500	288.531	80.002	19.994	103.847	19.904	2.308	0.504
414.000	289.229	80.003	19.993	103.848	19.903	2.372	0.467
415.500	289.956	80.000	19.995	103.842	19.903	2.372	0.512
417.000	290.726	80.003	19.995	103.840	19.903	2.401	0.526
418.500	291.491	80.006	19.992	103.843	19.904	2.319	0.544
420.000	292.267	80.002	19.995	103.846	19.901	2.536	0.507
421.500	293.028	80.002	19.996	103.847	19.903	2.349	0.511
423.000	293.776	80.002	19.993	103.847	19.909	2.001	0.502
424.500	294.530	80.002	19.993	103.847	19.904	2.326	0.514
426.000	295.288	80.005	19.994	103.848	19.903	2.365	0.508
427.500	296.004	80.009	19.996	103.848	19.905	2.263	0.468
429.000	296.756	80.005	19.993	103.845	19.907	2.103	0.481
430.500	297.522	80.005	19.995	103.844	19.904	2.326	0.508
432.000	298.296	80.004	20.000	103.846	19.905	2.230	0.533
433.500	299.047	80.007	19.997	103.845	19.906	2.176	0.488
435.000	299.819	80.004	20.000	103.844	19.909	2.014	0.541
436.500	300.604	80.003	19.995	103.844	19.909	1.987	0.523
438.000	301.323	80.002	19.996	103.843	19.909	2.005	0.498
439.500	302.070	80.004	19.998	103.848	19.904	2.294	0.499
441.000	302.835	80.006	19.992	103.851	19.907	2.139	0.532
442.500	303.577	80.009	19.995	103.845	19.903	2.363	0.522
444.000	304.283	80.004	19.991	103.846	19.906	2.149	0.501
445.500	305.050	80.005	19.995	103.849	19.906	2.167	0.501
447.000	305.848	79.998	19.996	103.847	19.908	2.041	0.525
448.500	306.657	80.006	19.992	103.846	19.907	2.123	0.539
450.000	307.424	80.005	19.994	103.847	19.904	2.338	0.503
451.500	308.143	80.005	19.995	103.846	19.906	2.155	0.475
453.000	308.909	80.006	19.993	103.849	19.904	2.298	0.492
454.500	309.689	80.008	19.987	103.849	19.909	2.005	0.534
456.000	310.434	80.004	19.991	103.850	19.905	2.217	0.509
457.500	311.198	80.007	19.995	103.846	19.906	2.153	0.506
459.000	312.000	80.006	19.995	103.841	19.905	2.252	0.525
460.500	312.747	80.007	19.996	103.843	19.910	1.903	0.509
462.000	313.517	80.012	19.990	103.837	19.908	2.021	0.494
463.500	314.273	80.004	19.988	103.844	19.908	2.015	0.500
465.000	315.028	80.002	19.992	103.847	19.908	2.055	0.499
466.500	315.785	80.000	20.000	103.846	19.908	2.060	0.503
468.000	316.613	80.005	19.993	103.842	19.908	2.025	0.534
469.500	317.311	80.003	19.995	103.835	19.906	2.158	0.484
471.000	318.077	80.001	19.994	103.824	19.909	2.008	0.501
472.500	318.873	80.001	19.994	103.826	19.905	2.231	0.540
474.000	319.605	80.002	19.995	103.837	19.906	2.158	0.504
475.500	320.353	80.006	19.993	103.846	19.909	1.967	0.502
477.000	321.110	80.003	19.994	103.850	19.909	1.999	0.514
478.500	321.868	80.004	19.994	103.847	19.911	1.864	0.473
480.000	322.602	80.005	19.994	103.839	19.910	1.933	0.494
481.500	323.350	80.003	19.996	103.832	19.912	1.805	0.511
483.000	324.094	80.003	19.993	103.841	19.912	1.803	0.477
484.500	324.881	80.007	19.991	103.842	19.908	2.035	0.534
486.000	325.627	80.007	19.989	103.841	19.910	1.931	0.498
487.500	326.379	80.004	19.993	103.844	19.909	1.971	0.515
489.000	327.093	80.008	19.989	103.827	19.910	1.933	0.454
490.500	327.850	80.007	19.993	103.829	19.910	1.899	0.512
492.000	328.628	80.007	19.991	103.845	19.911	1.865	0.531
493.500	329.307	80.005	19.993	103.847	19.911	1.821	0.466
495.000	330.120	80.004	19.997	103.830	19.910	1.922	0.545
496.500	330.835	80.003	19.993	103.824	19.911	1.860	0.468
498.000	331.611	80.001	19.996	103.828	19.912	1.814	0.515
499.500	332.347	80.000	19.999	103.835	19.912	1.789	0.469
501.000	333.147	80.004	19.993	103.831	19.913	1.723	0.543
502.500	333.895	80.004	19.990	103.826	19.910	1.947	0.504
504.000	334.636	80.002	19.995	103.826	19.910	1.913	0.490
505.500	335.346	79.999	19.997	103.817	19.911	1.833	0.469
507.000	336.145	80.008	19.995	103.828	19.912	1.788	0.521
508.500	336.900	80.007	19.993	103.818	19.910	1.931	0.506
510.000	337.654	80.006	19.991	103.820	19.912	1.768	0.515
511.500	338.458	80.002	19.998	103.825	19.910	1.910	0.510
513.000	339.218	80.002	19.994	103.822	19.912	1.814	0.507
514.500	339.964	80.003	19.989	103.814	19.910	1.899	0.487
516.000	340.653	80.002	19.994	103.811	19.907	2.120	0.481
517.500	341.410	80.003	19.996	103.811	19.912	1.806	0.495
519.000	342.206	80.008	19.991	103.818	19.904	2.338	0.528
520.500	342.973	80.005	19.991	103.837	19.912	1.787	0.515
522.000	343.696	80.005	20.000	103.827	19.914	1.667	0.462
523.500	344.441	80.001	19.994	103.825	19.911	1.838	0.527
525.000	345.233	80.004	19.994	103.824	19.911	1.869	0.513
526.500	345.949	80.005	19.995	103.819	19.910	1.897	0.503
528.000	346.704	80.004	19.995	103.814	19.910	1.885	0.494
529.500	347.420	80.005	19.993	103.809	19.910	1.938	0.493
531.000	348.222	80.005	19.993	103.809	19.911	1.870	0.544
532.500	348.942	80.006	19.995	103.811	19.910	1.915	0.454
534.000	349.775	80.006	19.999	103.816	19.909	1.958	0.565
535.500	350.530	80.000	19.995	103.814	19.909	2.001	0.531
537.000	351.278	80.006	19.996	103.821	19.913	1.729	0.470
538.500	352.053	80.005	19.993	103.825	19.910	1.915	0.517
540.000	352.804	80.011	19.988	103.811	19.915	1.612	0.485
541.500	353.588	80.005	19.991	103.809	19.916	1.551	0.518
543.000	354.321	80.013	19.992	103.807	19.912	1.754	0.501
544.500	355.111	80.003	19.999	103.822	19.915	1.619	0.542
546.000	355.861	80.003	19.996	103.821	19.915	1.584	0.502
547.500	356.599	80.001	19.992	103.802	19.914	1.628	0.512
549.000	357.393	80.009	19.988	103.805	19.913	1.692	0.552
550.500	358.158	80.004	19.993	103.808	19.912	1.779	0.507
552.000	358.886	80.004	19.993	103.807	19.907	2.093	0.511
553.500	359.679	80.008	19.994	103.804	19.909	1.987	0.543
555.000	360.429	80.007	19.996	103.809	19.911	1.839	0.505
556.500	361.228	80.006	19.994	103.818	19.910	1.928	0.534
558.000	361.987	80.006	19.993	103.825	19.912	1.803	0.504
559.500	362.722	80.007	19.994	103.827	19.911	1.822	0.511
561.000	363.497	80.004	19.992	103.810	19.912	1.808	0.536
562.500	364.244	80.004	19.990	103.810	19.913	1.724	0.487
564.000	365.022	80.006	19.992	103.830	19.912	1.801	0.526
565.500	365.764	80.004	19.994	103.837	19.917	1.432	0.494
567.000	366.515	80.004	19.990	103.831	19.918	1.393	0.511
568.500	367.358	80.006	19.992	103.815	19.917	1.450	0.562
570.000	368.082	80.006	19.995	103.809	19.916	1.514	0.493
571.500	368.886	80.001	20.003	103.809	19.917	1.471	0.557
573.000	369.690	80.007	19.993	103.811	19.912	1.782	0.541
574.500	370.443	80.004	19.994	103.811	19.917	1.475	0.508
576.000	371.188	80.003	19.992	103.810	19.914	1.675	0.529
577.500	371.933	80.001	19.998	103.807	19.910	1.894	0.506
579.000	372.753	80.002	19.988	103.806	19.913	1.746	0.525
580.500	373.528	80.004	19.993	103.812	19.919	1.318	0.540
582.000	374.263	80.003	19.993	103.815	19.911	1.839	0.509
583.500	375.067	80.000	19.996	103.828	19.913	1.714	0.525
585.000	375.825	80.004	19.994	103.835	19.914	1.649	0.502
586.500	376.562	80.004	19.993	103.822	19.916	1.514	0.494
588.000	377.318	80.000	19.994	103.831	19.917	1.487	0.491
589.500	378.061	80.005	19.997	103.828	19.920	1.282	0.485
591.000	378.830	80.004	19.995	103.829	19.918	1.367	0.492
592.500	379.637	80.002	19.995	103.833	19.918	1.373	0.542
594.000	380.416	80.003	19.988	103.819	19.918	1.410	0.528
595.500	381.168	80.005	19.989	103.813	19.917	1.435	0.489
597.000	381.902	80.006	19.996	103.810	19.919	1.316	0.496
598.500	382.683	80.004	19.995	103.807	19.919	1.346	0.485
600.000	383.440	80.004	19.991	103.794	19.921	1.184	0.512
601.500	384.189	80.006	19.994	103.782	19.916	1.519	0.504
603.000	384.933	80.003	19.992	103.785	19.918	1.375	0.500
604.500	385.717	80.003	19.994	103.801	19.918	1.423	0.525
606.000	386.474	80.004	20.000	103.804	19.917	1.458	0.506
607.500	387.216	80.005	19.996	103.805	19.914	1.644	0.521
609.000	388.004	80.003	19.996	103.810	19.920	1.284	0.509
610.500	388.772	80.002	20.000	103.810	19.918	1.421	0.504
612.000	389.524	80.005	19.996	103.801	19.918	1.366	0.504
613.500	390.265	80.002	19.995	103.802	19.919	1.309	0.502
615.000	391.043	80.003	19.996	103.799	19.915	1.558	0.521
616.500	391.792	80.009	19.995	103.793	19.916	1.515	0.486
618.000	392.532	80.005	19.998	103.782	19.913	1.742	0.515
619.500	393.332	80.006	19.991	103.791	19.914	1.622	0.520
621.000	394.138	80.006	19.998	103.803	19.915	1.605	0.551
622.500	394.892	80.007	19.997	103.805	19.916	1.496	0.500
624.000	395.625	80.009	19.995	103.805	19.917	1.477	0.468
625.500	396.404	80.006	19.996	103.801	19.915	1.597	0.505
627.000	397.137	80.004	19.993	103.795	19.915	1.592	0.502
628.500	397.920	80.005	19.996	103.792	19.913	1.736	0.525
630.000	398.661	80.001	19.995	103.796	19.917	1.473	0.503
631.500	399.423	80.005	19.995	103.800	19.916	1.539	0.500
633.000	400.186	80.009	19.995	103.809	19.916	1.551	0.505
634.500	400.965	80.005	19.993	103.859	19.918	1.383	0.512
636.000	401.721	80.002	19.995	103.871	19.917	1.471	0.509
637.500	402.494	79.998	19.990	103.810	19.916	1.496	0.512
639.000	403.255	79.998	19.999	103.783	19.918	1.410	0.500
640.500	403.991	80.003	19.990	103.790	19.917	1.428	0.493
642.000	404.754	80.001	19.997	103.792	19.916	1.542	0.500
643.500	405.532	80.002	19.996	103.790	19.915	1.560	0.522
645.000	406.342	80.005	19.992	103.785	19.915	1.557	0.533
646.500	407.073	80.005	19.996	103.783	19.915	1.612	0.481
648.000	407.856	80.002	19.995	103.799	19.915	1.574	0.509
649.500	408.609	80.004	19.995	103.807	19.913	1.699	0.500
651.000	409.392	79.998	19.991	103.811	19.915	1.601	0.527
652.500	410.122	80.005	19.996	103.812	19.916	1.512	0.494
654.001	410.914	80.001	19.997	103.811	19.914	1.628	0.522
655.500	411.709	80.004	19.992	103.821	19.913	1.690	0.506
657.000	412.443	80.006	19.992	103.825	19.919	1.316	0.484
658.500	413.174	80.002	19.995	103.814	19.916	1.496	0.499
660.000	413.924	80.005	19.995	103.803	19.915	1.571	0.492
661.500	414.680	80.003	19.995	103.806	19.918	1.378	0.501
663.000	415.410	80.004	19.993	103.812	19.919	1.323	0.515
664.500	416.192	80.004	19.993	103.822	19.915	1.572	0.530
666.000	416.939	80.000	19.993	103.800	19.918	1.414	0.504
667.500	417.698	80.000	19.993	103.783	19.919	1.294	0.498
669.000	418.421	80.005	19.995	103.802	19.916	1.532	0.497
670.500	419.189	80.006	19.991	103.810	19.916	1.515	0.495
672.000	419.945	80.005	19.998	103.823	19.915	1.594	0.515
673.500	420.694	80.000	19.999	103.821	19.913	1.705	0.496
675.000	421.445	80.009	19.989	103.795	19.915	1.578	0.488
676.500	422.249	80.006	19.992	103.793	19.916	1.546	0.526
678.000	422.988	80.001	19.997	103.800	19.918	1.414	0.482
679.500	423.716	80.007	19.993	103.803	19.914	1.637	0.486
681.000	424.499	80.007	19.988	103.795	19.917	1.476	0.511
682.500	425.225	80.004	19.993	103.803	19.916	1.540	0.488
684.000	426.013	80.004	19.993	103.805	19.919	1.350	0.528
685.500	426.764	80.005	19.996	103.810	19.917	1.457	0.500
687.000	427.502	80.005	19.993	103.807	19.915	1.579	0.502
688.500	428.238	80.005	19.995	103.800	19.917	1.435	0.503
690.000	429.023	80.003	19.997	103.794	19.916	1.501	0.518
691.500	429.816	80.008	19.991	103.800	19.918	1.378	0.525
693.000	430.554	80.003	19.997	103.801	19.917	1.457	0.507
694.500	431.308	80.000	19.992	103.802	19.919	1.346	0.505
696.000	432.070	80.003	19.992	103.801	19.919	1.346	0.503
697.500	432.816	80.009	19.991	103.781	19.918	1.391	0.493
699.000	433.569	80.003	19.992	103.773	19.915	1.607	0.477
700.500	434.340	80.005	19.994	103.777	19.915	1.562	0.496
702.000	435.121	80.005	19.994	103.779	19.913	1.707	0.519
703.500	435.867	80.003	19.988	103.789	19.916	1.500	0.496
705.000	436.623	80.003	19.995	103.806	19.918	1.369	0.502
706.500	437.399	80.002	20.000	103.806	19.918	1.366	0.510
708.000	438.147	80.003	19.993	103.806	19.917	1.439	0.493
709.500	438.924	80.004	19.994	103.808	19.916	1.512	0.523
711.000	439.753	80.000	19.997	103.809	19.918	1.384	0.550
712.500	440.520	80.001	19.995	103.819	19.917	1.464	0.524
714.000	441.308	80.002	19.995	103.838	19.916	1.516	0.526
715.500	442.069	80.004	19.994	103.821	19.912	1.781	0.521
717.000	442.856	80.000	19.992	103.794	19.915	1.617	0.536
718.500	443.657	80.003	19.994	103.782	19.912	1.765	0.530
720.000	444.441	80.000	19.994	103.781	19.913	1.744	0.511
721.500	445.201	80.001	19.996	103.793	19.914	1.685	0.522
723.000	445.998	80.005	19.993	103.805	19.912	1.796	0.533
724.500	446.800	79.997	20.001	103.811	19.915	1.615	0.545
726.000	447.561	80.000	19.996	103.806	19.916	1.535	0.508
727.500	448.343	80.002	19.997	103.817	19.913	1.722	0.518
729.000	449.185	80.006	19.986	103.825	19.916	1.505	0.544
730.500	449.958	80.008	19.991	103.821	19.916	1.508	0.533
732.000	450.721	80.001	19.996	103.829	19.915	1.556	0.498
733.500	451.516	80.000	19.998	103.813	19.916	1.549	0.528
735.000	452.331	80.003	19.996	103.800	19.914	1.669	0.535
736.500	453.119	80.000	19.994	103.803	19.919	1.309	0.523
738.000	453.916	80.004	19.994	103.805	19.916	1.532	0.539
739.500	454.711	80.000	19.996	103.802	19.918	1.380	0.540
741.000	455.528	80.003	19.992	103.804	19.916	1.508	0.535
742.500	456.305	80.002	19.994	103.798	19.916	1.532	0.523
744.000	457.071	80.003	19.996	103.796	19.916	1.499	0.528
745.500	457.917	80.001	19.993	103.806	19.915	1.558	0.553
747.000	458.676	80.002	19.995	103.802	19.917	1.475	0.504
748.500	459.452	80.003	19.992	103.798	19.922	1.100	0.545
750.000	460.248	80.004	19.994	103.803	19.920	1.243	0.545
751.500	461.033	80.004	19.993	103.806	19.920	1.266	0.539
753.000	461.818	80.005	19.993	103.804	19.920	1.291	0.518
754.500	462.619	80.005	19.993	103.792	19.917	1.472	0.542
756.000	463.397	80.005	19.994	103.796	19.919	1.341	0.511
757.500	464.154	80.004	19.993	103.805	19.920	1.255	0.513
759.000	464.920	80.004	19.994	103.805	19.919	1.300	0.493
760.500	465.671	80.004	19.994	103.804	19.920	1.273	0.517
762.000	466.506	80.004	19.994	103.805	19.920	1.236	0.564
763.500	467.308	80.003	19.995	103.791	19.919	1.350	0.535
765.000	468.037	80.006	19.992	103.774	19.917	1.444	0.468
766.500	468.815	80.005	19.992	103.783	19.916	1.503	0.509
768.000	469.612	80.004	19.993	103.804	19.918	1.403	0.535
769.500	470.395	80.003	19.994	103.810	19.916	1.498	0.527
771.000	471.169	80.006	19.992	103.789	19.912	1.778	0.515
772.500	471.893	80.004	19.992	103.794	19.916	1.506	0.493
774.000	472.694	80.005	19.994	103.808	19.917	1.439	0.538
775.500	473.510	80.005	19.993	103.810	19.918	1.408	0.527
777.000	474.256	80.001	19.998	103.810	19.920	1.285	0.505
778.500	475.007	80.006	19.997	103.805	19.915	1.571	0.508
780.000	475.781	80.004	19.994	103.799	19.917	1.466	0.503
781.500	476.484	80.006	19.993	103.801	19.914	1.678	0.461
783.000	477.284	80.004	19.990	103.787	19.913	1.708	0.530
784.500	478.024	80.006	19.997	103.774	19.913	1.731	0.499
786.000	478.774	80.006	19.998	103.786	19.914	1.644	0.517
787.500	479.560	80.005	19.995	103.798	19.917	1.480	0.512
789.000	480.319	80.007	19.995	103.807	19.916	1.538	0.499
790.500	481.097	80.005	19.994	103.810	19.914	1.638	0.524
792.000	481.842	80.004	19.994	103.792	19.916	1.535	0.488
793.500	482.604	80.005	19.996	103.782	19.915	1.596	0.508
795.000	483.350	80.004	19.992	103.780	19.910	1.934	0.486
796.500	484.082	80.003	19.998	103.786	19.914	1.635	0.495
798.000	484.863	79.999	19.999	103.784	19.914	1.655	0.516
799.500	485.623	80.001	19.997	103.772	19.915	1.576	0.508
801.000	486.402	80.005	19.991	103.790	19.913	1.721	0.521
802.500	487.180	80.001	19.990	103.805	19.915	1.619	0.508
804.000	487.894	80.005	19.991	103.801	19.912	1.776	0.478
805.500	488.650	80.008	19.993	103.797	19.916	1.546	0.516
807.000	489.438	80.009	19.990	103.796	19.915	1.610	0.522
808.500	490.150	80.006	19.997	103.799	19.916	1.499	0.496
810.000	490.898	80.002	19.997	103.801	19.915	1.581	0.529
811.500	491.669	80.003	19.998	103.803	19.917	1.455	0.521
813.000	492.407	80.001	19.996	103.800	19.916	1.499	0.463
814.500	493.169	80.005	19.995	103.798	19.916	1.512	0.478
816.000	493.932	80.007	19.990	103.803	19.918	1.390	0.515
817.500	494.755	80.005	19.996	103.803	19.913	1.690	0.529
819.000	495.478	80.004	19.992	103.797	19.915	1.583	0.494
820.500	496.245	80.008	19.993	103.787	19.917	1.432	0.514
822.000	496.991	80.005	19.993	103.786	19.913	1.706	0.495
823.500	497.736	80.005	19.990	103.785	19.917	1.455	0.489
825.000	498.477	80.006	19.993	103.777	19.914	1.664	0.489
826.500	499.223	80.003	19.994	103.772	19.915	1.558	0.514
828.000	499.966	80.004	19.993	103.789	19.915	1.601	0.489
829.500	500.712	80.002	19.995	103.812	19.916	1.501	0.491
831.000	501.479	79.999	20.000	103.825	19.914	1.635	0.526
832.500	502.216	80.006	19.994	103.817	19.919	1.316	0.486
834.000	502.969	80.009	19.990	103.811	19.916	1.498	0.493
835.500	503.727	80.005	19.993	103.806	19.920	1.262	0.507
837.000	504.466	80.002	19.996	103.800	19.917	1.437	0.485
838.500	505.222	80.005	19.993	103.784	19.918	1.398	0.490
840.000	505.974	80.011	19.987	103.787	19.916	1.547	0.520
841.500	506.723	80.003	19.997	103.785	19.917	1.442	0.501
843.000	507.464	80.014	19.991	103.787	19.918	1.389	0.501
844.500	508.189	80.005	19.991	103.812	19.917	1.432	0.472
846.000	508.972	80.008	19.995	103.816	19.914	1.628	0.521
847.500	509.698	80.007	19.992	103.806	19.914	1.631	0.503
849.000	510.452	80.005	19.996	103.796	19.915	1.569	0.506
850.500	511.222	80.004	19.989	103.777	19.911	1.840	0.520
852.000	511.978	80.004	19.998	103.785	19.912	1.788	0.510
853.500	512.730	80.007	19.993	103.801	19.912	1.797	0.506
855.000	513.492	80.006	19.994	103.807	19.911	1.840	0.503
856.500	514.323	80.005	19.994	103.799	19.916	1.512	0.547
858.000	515.049	80.007	19.993	103.799	19.915	1.615	0.491
859.500	515.868	80.009	19.991	103.802	19.915	1.560	0.530
861.000	516.634	80.008	19.991	103.796	19.916	1.501	0.516
862.500	517.402	80.006	19.993	103.800	19.920	1.271	0.495
864.000	518.155	80.012	19.990	103.795	19.915	1.599	0.497
865.500	518.914	80.007	19.986	103.796	19.913	1.747	0.506
867.000	519.666	80.001	19.999	103.798	19.915	1.569	0.493
868.500	520.446	80.006	19.989	103.794	19.913	1.718	0.518
870.000	521.233	79.997	19.996	103.802	19.915	1.604	0.532
871.500	522.015	80.002	19.993	103.803	19.915	1.579	0.503
873.000	522.775	80.006	19.992	103.800	19.913	1.708	0.487
874.500	523.551	80.006	19.995	103.779	19.913	1.742	0.499
876.000	524.289	80.002	19.992	103.771	19.911	1.819	0.493
877.500	525.038	80.005	20.000	103.772	19.914	1.624	0.499
879.000	525.856	80.003	19.992	103.774	19.916	1.544	0.532
880.500	526.560	80.006	19.995	103.789	19.913	1.692	0.480
882.000	527.353	80.002	19.993	103.786	19.915	1.585	0.522
883.500	528.094	80.007	19.989	103.799	19.917	1.446	0.500
885.000	528.881	80.009	19.992	103.805	19.915	1.597	0.507
886.500	529.664	80.002	19.995	103.806	19.916	1.501	0.521
888.000	530.400	80.006	19.993	103.805	19.919	1.359	0.492
889.500	531.143	80.006	19.994	103.800	19.915	1.608	0.506
891.000	531.922	80.007	19.991	103.783	19.913	1.717	0.506
892.500	532.672	80.005	19.994	103.789	19.914	1.658	0.525
894.000	533.471	80.007	19.990	103.791	19.914	1.654	0.526
895.500	534.182	80.004	19.994	103.790	19.920	1.289	0.474
897.000	534.953	80.000	19.998	103.793	19.916	1.524	0.499
898.500	535.712	80.002	19.994	103.799	19.914	1.662	0.520
900.000	536.447	80.002	19.996	103.784	19.913	1.690	0.490
901.500	537.218	80.005	19.994	103.784	19.914	1.642	0.492
903.000	537.956	80.003	19.991	103.780	19.915	1.558	0.490
904.500	538.708	80.002	19.995	103.781	19.918	1.400	0.512
906.000	539.433	80.004	19.994	103.790	19.914	1.630	0.486
907.500	540.202	80.006	19.992	103.784	19.914	1.681	0.514
909.000	540.963	80.000	19.999	103.787	19.916	1.510	0.508
910.500	541.718	80.000	19.996	103.802	19.916	1.551	0.514
912.000	542.486	80.004	19.995	103.807	19.914	1.652	0.532
913.500	543.267	80.005	19.996	103.804	19.913	1.751	0.504
915.000	543.968	80.002	19.999	103.803	19.917	1.466	0.486
916.500	544.729	80.004	19.996	103.802	19.913	1.690	0.502
918.000	545.496	80.003	19.992	103.790	19.916	1.539	0.501
919.500	546.244	80.003	19.995	103.788	19.916	1.535	0.538
921.000	546.987	80.004	19.994	103.790	19.917	1.462	0.504
922.500	547.741	80.005	19.992	103.781	19.917	1.473	0.511
924.000	548.542	80.007	19.995	103.784	19.915	1.585	0.511
925.500	549.294	79.996	19.999	103.796	19.914	1.636	0.516
927.000	550.045	80.001	19.994	103.802	19.917	1.431	0.507
928.500	550.803	80.006	19.993	103.812	19.915	1.564	0.520
930.000	551.567	80.005	19.995	103.811	19.916	1.492	0.486
931.500	552.314	80.004	19.996	103.808	19.915	1.606	0.501
933.000	553.081	80.004	19.995	103.798	19.918	1.410	0.510
934.500	553.902	80.004	19.994	103.778	19.918	1.390	0.534
936.000	554.660	80.007	19.998	103.779	19.915	1.592	0.502
937.500	555.443	80.005	19.995	103.781	19.916	1.538	0.540
939.000	556.209	80.004	19.995	103.798	19.918	1.401	0.502
940.500	556.976	80.008	19.992	103.806	19.915	1.601	0.501
942.000	557.735	80.008	19.994	103.793	19.913	1.708	0.507
943.500	558.560	80.007	19.994	103.795	19.912	1.801	0.548
945.000	559.316	80.005	19.997	103.788	19.914	1.672	0.515
946.500	560.062	80.005	19.992	103.778	19.916	1.537	0.490
948.000	560.867	80.005	19.993	103.772	19.913	1.728	0.541
949.500	561.644	80.005	19.996	103.768	19.915	1.617	0.524
951.000	562.473	80.001	19.998	103.771	19.914	1.631	0.548
952.500	563.205	80.004	19.996	103.787	19.912	1.770	0.488
954.000	563.949	80.004	19.994	103.792	19.915	1.599	0.485
955.500	564.716	80.004	19.993	103.787	19.915	1.603	0.518
957.000	565.483	80.004	19.992	103.823	19.911	1.820	0.534
958.500	566.234	80.003	19.996	103.847	19.916	1.549	0.492
960.000	567.053	80.003	19.994	103.829	19.913	1.714	0.552
961.500	567.810	80.004	19.993	103.780	19.916	1.542	0.488
963.000	568.560	80.006	19.993	103.759	19.914	1.630	0.513
964.500	569.350	80.000	19.992	103.782	19.916	1.506	0.512
966.000	570.106	80.002	19.998	103.788	19.915	1.611	0.510
967.500	570.866	80.008	19.994	103.795	19.915	1.565	0.475
969.000	571.603	80.000	19.996	103.806	19.913	1.689	0.487
970.500	572.378	80.007	19.990	103.807	19.912	1.817	0.512
972.000	573.170	80.002	19.993	103.805	19.912	1.767	0.521
973.500	573.954	80.001	19.997	103.800	19.910	1.943	0.524
975.000	574.713	80.007	19.986	103.795	19.909	1.948	0.505
976.500	575.494	80.005	19.988	103.778	19.913	1.728	0.533
978.000	576.218	80.003	19.998	103.788	19.908	2.058	0.471
979.500	577.019	80.000	19.997	103.807	19.912	1.772	0.530
981.000	577.760	80.002	19.993	103.807	19.907	2.090	0.514
982.500	578.525	80.000	19.993	103.800	19.912	1.788	0.505
984.000	579.260	80.001	19.993	103.787	19.911	1.822	0.501
985.500	580.054	79.997	19.997	103.781	19.910	1.904	0.534
987.000	580.804	80.001	19.999	103.788	19.913	1.701	0.499
988.500	581.591	80.004	19.990	103.806	19.911	1.836	0.531
990.000	582.350	80.004	19.996	103.804	19.909	1.965	0.522
991.500	583.141	80.005	19.991	103.797	19.910	1.897	0.554
993.000	583.903	80.008	19.993	103.803	19.909	1.979	0.507
994.500	584.657	80.006	19.996	103.794	19.907	2.097	0.530
996.000	585.471	80.008	19.996	103.784	19.909	1.997	0.541
997.500	586.220	80.002	19.995	103.791	19.911	1.819	0.545
999.000	587.036	80.008	19.994	103.784	19.910	1.908	0.523
1000.500	587.835	80.006	19.991	103.787	19.911	1.831	0.549
1002.000	588.656	80.005	19.993	103.803	19.915	1.590	0.520
1003.500	589.432	80.006	19.992	103.802	19.910	1.886	0.545
1005.000	590.210	80.005	19.995	103.805	19.916	1.537	0.497
1006.500	590.943	80.007	19.993	103.806	19.917	1.424	0.494
1008.000	591.778	80.003	19.993	103.805	19.921	1.170	0.559
1009.500	592.630	80.005	19.995	103.800	19.911	1.842	0.596
1011.000	593.420	80.005	19.993	103.803	19.902	2.425	0.512
1012.500	594.090	80.004	19.994	103.790	19.909	1.965	0.553
1014.000	595.048	80.005	19.994	103.787	19.906	2.164	0.628
1015.500	595.698	80.005	19.994	103.784	19.910	1.911	0.452
1017.000	596.430	80.008	19.994	103.789	19.907	2.100	0.455
1018.501	597.331	80.008	19.991	103.794	19.912	1.810	0.565
1020.000	598.689	80.009	19.993	103.794	19.913	1.699	0.640
1021.500	598.918	80.006	19.993	103.792	19.913	1.710	0.033
1023.000	600.042	80.007	19.995	103.794	19.911	1.820	0.487
1024.500	600.440	80.002	19.993	103.800	19.915	1.601	0.795
1026.000	601.187	80.002	19.994	103.799	19.914	1.655	0.780
1027.500	601.852	80.006	19.993	103.794	19.913	1.697	0.675
1029.001	602.659	80.003	19.993	103.793	19.916	1.544	0.627
1030.500	603.643	80.002	19.993	103.801	19.914	1.656	0.666
1032.001	604.207	80.004	19.993	103.791	19.911	1.833	0.551
1033.501	604.970	79.997	19.995	103.776	19.915	1.564	0.514
1035.000	605.832	80.004	19.992	103.780	19.916	1.542	0.485
1036.501	606.528	80.004	19.991	103.793	19.913	1.696	0.514
1038.000	607.203	80.004	19.994	103.805	19.912	1.793	0.495
1039.500	608.030	80.001	19.995	103.799	19.911	1.856	0.528
1041.000	608.741	80.005	19.993	103.804	19.913	1.735	0.438
1042.500	609.528	80.004	19.993	103.806	19.911	1.859	0.470
1044.000	610.257	79.999	19.997	103.800	19.914	1.622	0.477
1045.501	610.985	80.006	19.991	103.799	19.910	1.893	0.502
1047.000	611.698	80.003	19.995	103.804	19.911	1.840	0.448
1048.500	612.522	80.001	19.994	103.795	19.909	1.993	0.508
1050.000	613.207	80.004	19.992	103.785	19.910	1.943	0.474
1051.500	614.015	80.005	19.999	103.797	19.915	1.571	0.571
1053.000	614.730	80.001	19.997	103.787	19.911	1.856	0.478
1054.500	615.503	80.005	19.988	103.791	19.911	1.852	0.500
1056.000	616.266	80.000	19.991	103.802	19.915	1.592	0.482
1057.500	617.061	80.005	19.993	103.791	19.911	1.822	0.497
1059.000	617.779	80.002	19.996	103.784	19.909	1.968	0.482
1060.500	618.481	80.001	19.995	103.785	19.907	2.136	0.458
1062.000	619.240	80.002	20.000	103.788	19.914	1.683	0.533
1063.500	620.034	79.999	19.995	103.798	19.912	1.754	0.514
1065.000	620.812	80.002	19.997	103.800	19.910	1.939	0.498
1066.500	621.552	80.004	19.994	103.803	19.912	1.756	0.522
1068.000	622.300	80.005	19.995	103.799	19.913	1.743	0.521
1069.500	623.047	80.002	19.997	103.794	19.911	1.831	0.509
1071.000	623.814	80.005	19.996	103.799	19.907	2.102	0.508
1072.500	624.557	80.004	19.997	103.786	19.911	1.865	0.489
1074.000	625.326	80.005	19.995	103.788	19.911	1.834	0.486
1075.501	626.101	80.005	19.994	103.781	19.909	1.961	0.511
1077.000	626.849	80.002	19.989	103.768	19.908	2.073	0.488
1078.500	627.655	80.002	19.995	103.773	19.908	2.018	0.515
1080.000	628.439	80.005	19.995	103.782	19.907	2.122	0.503
1081.500	629.174	80.004	19.989	103.769	19.909	2.011	0.518
1083.000	629.915	80.003	19.996	103.780	19.906	2.172	0.496
1084.500	630.666	80.004	19.995	103.780	19.907	2.140	0.523
1086.000	631.437	80.007	19.994	103.784	19.909	1.961	0.512
1087.500	632.196	80.003	19.995	103.786	19.908	2.016	0.489
1089.000	632.911	79.997	20.000	103.789	19.914	1.629	0.483
1090.500	633.678	80.002	19.993	103.790	19.909	1.981	0.508
1092.000	634.463	80.003	19.991	103.797	19.910	1.904	0.478
1093.500	635.233	80.001	19.997	103.799	19.912	1.762	0.515
1095.000	635.977	80.002	19.987	103.815	19.910	1.911	0.493
1096.500	636.760	80.004	19.991	103.811	19.909	2.002	0.515
1098.000	637.503	80.006	19.995	103.785	19.911	1.827	0.485
1099.500	638.258	80.005	19.993	103.786	19.909	1.952	0.490
1101.000	639.057	80.005	19.993	103.804	19.909	1.976	0.519
1102.500	639.812	80.002	19.993	103.801	19.913	1.687	0.497
1104.001	640.561	80.005	19.992	103.803	19.910	1.931	0.502
1105.500	641.304	80.005	19.992	103.804	19.907	2.097	0.493
1107.000	642.070	80.006	19.992	103.798	19.908	2.079	0.492
1108.500	642.820	80.004	19.993	103.794	19.909	1.997	0.488
1110.000	643.591	80.002	19.993	103.789	19.906	2.200	0.519
1111.500	644.310	80.003	19.993	103.801	19.909	1.977	0.480
1113.000	645.069	80.001	19.997	103.811	19.909	2.006	0.500
1114.500	645.872	80.004	19.994	103.806	19.911	1.878	0.549
1116.000	646.590	80.002	19.991	103.802	19.909	1.988	0.488
1117.501	647.428	79.998	19.995	103.802	19.907	2.145	0.542
1119.001	648.152	80.003	19.995	103.805	19.903	2.379	0.493
1120.500	648.931	80.001	19.999	103.798	19.909	1.970	0.497
1122.000	649.675	80.001	19.997	103.800	19.906	2.188	0.535
1123.500	650.441	80.003	19.996	103.807	19.912	1.776	0.488
1125.000	651.253	80.006	19.990	103.808	19.910	1.945	0.557
1126.500	652.029	80.004	19.991	103.806	19.909	1.997	0.518
1128.000	652.769	80.004	19.993	103.806	19.908	2.054	0.517
1129.500	653.530	80.005	19.992	103.808	19.908	2.077	0.511
1131.000	654.337	80.003	19.995	103.808	19.903	2.377	0.519
1132.500	655.070	80.006	19.984	103.808	19.910	1.913	0.474
1134.000	655.838	80.000	20.000	103.810	19.908	2.031	0.528
1135.501	656.629	80.003	19.989	103.807	19.910	1.906	0.504
1137.000	657.430	80.007	19.988	103.809	19.908	2.020	0.527
1138.500	658.068	80.001	19.994	103.806	19.904	2.288	0.423
1140.000	658.726	80.001	19.993	103.804	19.906	2.200	0.442
1141.500	659.289	80.004	19.992	103.804	19.903	2.380	0.610
1143.000	660.536	80.001	19.997	103.790	19.913	1.717	0.759
1144.500	661.203	80.004	19.996	103.790	19.908	2.076	0.477
1146.000	661.982	80.002	19.995	103.804	19.906	2.156	0.716
1147.500	662.709	80.001	19.994	103.808	19.905	2.215	0.453
1149.000	663.474	80.007	19.993	103.815	19.908	2.056	0.550
1150.500	664.266	80.005	19.994	103.814	19.914	1.623	0.535
1152.000	665.021	80.003	19.995	103.811	19.911	1.831	0.517
1153.500	665.732	80.005	19.996	103.808	19.911	1.831	0.472
1155.000	666.504	80.004	19.992	103.811	19.903	2.388	0.534
1156.501	667.249	80.005	19.994	103.826	19.919	1.344	0.484
1158.000	668.056	80.004	19.995	103.834	19.904	2.331	0.529
1159.500	668.813	80.007	19.988	103.821	19.900	2.548	0.495
1161.001	669.579	80.008	19.992	103.810	19.904	2.278	0.507
1162.500	670.341	80.002	19.995	103.813	19.898	2.679	0.499
1164.001	671.079	80.003	19.995	103.807	19.900	2.554	0.495
1165.500	671.834	80.005	19.992	103.813	19.904	2.301	0.503
1167.000	672.597	80.003	19.994	103.813	19.902	2.449	0.506
1168.500	673.394	80.004	19.995	103.813	19.901	2.515	0.524
1170.000	674.166	80.001	19.992	103.817	19.900	2.586	0.515
1171.500	674.957	80.003	19.990	103.827	19.901	2.490	0.552
1173.000	675.740	80.005	19.995	103.845	19.898	2.675	0.519
1174.500	676.506	80.003	19.996	103.840	19.906	2.172	0.501
1176.000	677.338	80.003	19.995	103.835	19.890	3.201	0.447
1177.501	677.970	80.005	19.996	103.841	19.904	2.302	0.491
1179.000	678.792	80.004	19.997	103.843	19.902	2.426	0.525
1180.501	679.520	80.005	19.996	103.839	19.904	2.333	0.493
1182.000	680.274	80.006	19.995	103.833	19.902	2.412	0.517
1183.500	681.133	80.006	19.994	103.835	19.901	2.514	0.530
1185.000	681.868	80.008	19.992	103.841	19.899	2.621	0.478
1186.500	682.544	80.005	19.995	103.838	19.901	2.490	0.490
1188.000	683.848	80.001	19.996	103.823	19.899	2.615	0.891
1189.501	684.121	79.999	19.996	103.833	19.901	2.497	0.288
1191.000	684.852	80.005	19.992	103.848	19.900	2.553	0.592
1192.500	685.662	80.001	19.990	103.870	19.899	2.638	0.509
1194.000	686.421	80.005	19.984	103.884	19.897	2.770	0.508
1195.500	687.195	80.001	19.996	103.877	19.900	2.549	0.544
1197.000	687.916	79.994	20.003	103.867	19.896	2.821	0.506
1198.500	688.676	80.009	19.991	103.847	19.893	3.006	0.512
1200.001	689.457	80.002	19.996	103.841	19.898	2.734	0.523
1201.500	690.243	79.998	19.991	103.849	19.896	2.814	0.524
1203.000	690.960	80.007	19.994	103.858	19.901	2.521	0.475
1204.500	691.732	80.001	19.994	103.852	19.898	2.715	0.515
1206.000	692.480	80.004	19.991	103.843	19.899	2.671	0.502
1207.500	693.247	80.003	19.991	103.860	19.898	2.698	0.513
1209.000	693.932	79.996	19.994	103.866	19.898	2.732	0.375
1210.500	694.742	80.001	19.997	103.843	19.894	2.935	0.530
1212.000	695.463	80.004	19.994	103.836	19.896	2.814	0.489
1213.500	696.233	80.005	19.993	103.849	19.898	2.687	0.509
1215.000	696.991	80.003	19.991	103.857	19.898	2.721	0.469
1216.500	697.807	80.003	19.990	103.873	19.895	2.909	0.512
1218.000	698.540	80.002	19.993	103.867	19.897	2.773	0.504
1219.500	699.272	80.003	19.993	103.875	19.898	2.700	0.471
1221.000	700.026	79.999	19.997	103.876	19.899	2.664	0.502
1222.500	700.742	80.002	19.994	103.864	19.895	2.930	0.486
1224.000	701.530	80.004	19.994	103.877	19.893	3.008	0.519
1225.501	702.298	80.005	19.991	103.885	19.895	2.901	0.493
1227.001	703.031	80.006	19.991	103.887	19.892	3.111	0.500
1228.500	703.822	80.008	19.987	103.891	19.891	3.181	0.524
1230.000	704.571	80.001	19.994	103.893	19.893	3.011	0.488
1231.500	705.309	80.006	19.996	103.887	19.889	3.268	0.500
1233.000	706.019	80.005	19.994	103.886	19.892	3.072	0.488
1234.500	706.811	80.002	19.992	103.909	19.891	3.197	0.541
1236.000	707.509	80.005	19.987	103.919	19.893	3.038	0.503
1237.500	708.250	80.002	19.995	103.918	19.894	2.956	0.501
1239.000	708.998	80.001	19.992	103.923	19.893	3.065	0.531
1240.500	709.717	80.004	19.992	103.926	19.894	2.945	0.495
1242.000	710.482	80.005	19.992	103.924	19.891	3.151	0.493
1243.500	711.197	80.005	19.992	103.922	19.891	3.179	0.497
1245.000	711.983	80.005	19.986	103.919	19.889	3.324	0.522
1246.500	712.650	80.001	19.997	103.919	19.889	3.319	0.459
1248.000	713.387	80.005	19.995	103.917	19.890	3.227	0.489
1249.500	714.183	80.008	19.994	103.919	19.891	3.177	0.504
1251.000	714.884	80.006	19.993	103.923	19.889	3.270	0.476
1252.500	715.638	80.004	19.993	103.926	19.889	3.300	0.510
1254.000	716.365	80.003	19.992	103.925	19.888	3.367	0.471
1255.500	717.119	80.010	19.993	103.927	19.888	3.394	0.497
1257.000	717.910	80.008	19.995	103.938	19.888	3.358	0.536
1258.500	718.638	80.005	19.988	103.959	19.888	3.332	0.486
1260.000	719.429	80.007	19.994	103.959	19.891	3.150	0.507
1261.500	720.150	80.004	19.997	103.965	19.893	3.055	0.497
1263.001	720.883	80.004	19.995	103.966	19.886	3.521	0.505
1264.500	721.725	80.000	19.998	103.949	19.886	3.524	0.545
1266.000	722.470	80.001	19.999	103.930	19.887	3.444	0.481
1267.500	723.199	80.005	19.996	103.942	19.887	3.423	0.485
1269.000	724.035	80.001	19.990	103.961	19.886	3.464	0.558
1270.500	724.819	80.002	19.993	103.972	19.888	3.382	0.507
1272.000	725.532	80.002	19.996	103.969	19.880	3.868	0.472
1273.500	726.341	80.007	19.993	103.961	19.882	3.756	0.546
1275.000	727.119	80.002	20.000	103.972	19.882	3.739	0.520
1276.500	727.872	80.006	19.994	103.992	19.883	3.708	0.513
1278.000	728.674	80.003	19.994	104.002	19.879	3.983	0.539
1279.500	729.427	80.002	19.995	104.005	19.881	3.849	0.503
1281.001	730.197	80.002	19.994	104.006	19.881	3.836	0.519
1282.500	731.015	80.002	19.994	104.013	19.884	3.649	0.539
1284.000	731.780	80.003	19.994	104.029	19.883	3.691	0.495
1285.501	732.535	80.003	19.994	104.017	19.881	3.830	0.498
1287.000	733.311	80.003	19.993	104.020	19.880	3.890	0.509
1288.501	734.107	80.004	19.990	104.022	19.879	3.941	0.531
1290.000	734.859	80.003	19.994	104.022	19.878	4.034	0.515
1291.500	735.606	80.004	19.992	104.022	19.871	4.506	0.503
1293.000	736.385	80.005	19.992	104.028	19.872	4.443	0.514
1294.500	737.177	80.001	19.994	104.012	19.871	4.460	0.528
1296.000	737.924	80.003	19.996	104.009	19.870	4.548	0.519
1297.500	738.694	80.003	19.998	104.024	19.871	4.487	0.506
1299.000	739.460	80.003	19.992	104.043	19.870	4.549	0.496
1300.500	740.232	79.998	19.997	104.049	19.872	4.435	0.503
1302.000	741.001	80.001	19.995	104.058	19.869	4.634	0.513
1303.500	741.777	80.001	19.990	104.049	19.871	4.484	0.513
1305.000	742.520	79.998	19.999	104.054	19.871	4.516	0.500
1306.500	743.309	79.999	19.997	104.075	19.866	4.800	0.515
1308.000	744.054	80.002	19.999	104.079	19.870	4.576	0.473
1309.500	744.829	80.003	19.992	104.071	19.868	4.662	0.497
1310.000	745.094	80.001	19.999	104.072	19.870	4.567	0.533