File: 01_Data/Oak_HWF/MCC/Oak_HWF_MCC_30K_min_211105_R3.txt
Sample ID:	C:\MCC\MCC Cal\Test\Oak_HWF_MCC_30K_min_211105_R3.txt
Sample Weight (mg):	4.93
Heating Rate (C/s):	0.5
Combustor Temp (C):	900
N2 Flow Rate (cc/min):	80
O2 Flow Rate (cc/min):	20
Calibration File:	C:\MCC\MCC Cal\Coeff1 JN10440_30_210304.txt.txt
T Correction Coefficients:	0	1.024463	0
Time Shift (s):	14
*
Time (s)	Temperature (C)	N2 flow rate (cc/min)	O2 flow rate (cc/min)	Flow Rate (cc/min)	Oxygen (%)	HRR (W/g)	Heating rate (C/s)
0.000	106.267	80.004	19.994	102.978	19.992	-0.466	0.017
2.000	106.251	80.006	19.996	102.990	19.987	-0.180	-0.026
4.000	106.255	80.006	19.994	102.985	19.991	-0.402	-0.026
6.000	106.263	80.006	19.995	102.986	19.988	-0.208	-0.010
8.000	106.262	80.008	19.994	103.005	19.985	-0.054	0.003
10.000	106.278	80.007	19.995	103.014	19.987	-0.163	-0.021
12.001	106.267	80.006	19.995	103.011	19.984	0.047	-0.027
14.000	106.317	80.004	19.995	103.017	19.982	0.156	-0.003
16.000	106.324	80.004	19.995	103.020	19.978	0.404	0.030
18.000	106.362	80.004	19.996	103.021	19.976	0.577	-0.011
20.000	106.385	80.004	19.995	103.028	19.975	0.636	0.010
22.000	106.403	80.005	19.995	103.047	19.976	0.577	0.006
24.000	106.507	80.002	19.997	103.079	19.970	0.976	0.036
26.000	106.539	80.003	19.995	103.118	19.966	1.236	0.006
28.000	106.665	80.004	19.994	103.163	19.960	1.617	0.054
30.000	106.823	80.003	19.995	103.178	19.957	1.822	0.083
32.001	107.001	80.005	19.995	103.183	19.953	2.065	0.074
34.001	107.197	80.003	19.994	103.182	19.949	2.299	0.117
36.001	107.497	80.005	19.994	103.175	19.947	2.452	0.147
38.001	107.740	80.004	19.995	103.180	19.945	2.586	0.123
40.001	108.081	80.005	19.995	103.177	19.945	2.612	0.162
42.001	108.363	80.004	19.994	103.198	19.943	2.742	0.151
44.000	108.696	80.004	19.993	103.217	19.942	2.760	0.179
46.001	109.091	80.003	19.995	103.218	19.941	2.852	0.209
48.001	109.515	80.003	19.994	103.230	19.942	2.803	0.217
50.000	109.938	80.003	19.996	103.231	19.940	2.890	0.208
52.000	110.338	80.003	19.994	103.235	19.939	2.973	0.199
54.000	110.855	80.003	19.995	103.256	19.937	3.112	0.234
56.000	111.337	80.004	19.994	103.254	19.934	3.332	0.243
58.000	111.917	80.005	19.994	103.244	19.934	3.277	0.301
60.000	112.462	80.006	19.993	103.250	19.932	3.439	0.280
62.000	113.061	80.007	19.993	103.254	19.930	3.552	0.283
64.000	113.617	80.007	19.994	103.254	19.932	3.461	0.265
66.000	114.291	80.006	19.995	103.260	19.929	3.611	0.334
68.000	114.934	80.004	19.994	103.255	19.931	3.506	0.307
70.000	115.624	80.005	19.994	103.258	19.930	3.558	0.333
72.000	116.281	80.005	19.994	103.268	19.929	3.645	0.365
74.001	117.021	80.006	19.994	103.276	19.932	3.449	0.369
76.000	117.748	80.005	19.994	103.275	19.931	3.529	0.363
78.000	118.504	80.006	19.995	103.279	19.932	3.447	0.394
80.000	119.252	80.006	19.995	103.262	19.929	3.654	0.372
82.001	120.045	80.006	19.996	103.264	19.930	3.597	0.402
84.000	120.834	80.006	19.996	103.273	19.929	3.659	0.395
86.001	121.698	80.007	19.995	103.267	19.928	3.683	0.437
88.000	122.513	80.006	19.995	103.258	19.929	3.607	0.451
90.000	123.339	80.007	19.995	103.264	19.928	3.703	0.403
92.000	124.202	80.007	19.995	103.274	19.930	3.544	0.432
94.000	125.060	80.005	19.994	103.279	19.930	3.569	0.426
96.001	125.969	80.005	19.994	103.272	19.931	3.500	0.456
98.000	126.821	80.003	19.995	103.267	19.929	3.606	0.428
100.000	127.716	80.004	19.995	103.271	19.929	3.652	0.432
102.001	128.585	80.004	19.994	103.275	19.930	3.570	0.446
104.000	129.543	80.004	19.994	103.261	19.932	3.436	0.477
106.000	130.465	80.003	19.994	103.270	19.931	3.515	0.455
108.001	131.399	80.003	19.994	103.278	19.931	3.503	0.459
110.000	132.313	80.004	19.996	103.272	19.934	3.308	0.451
112.000	133.273	80.002	19.996	103.264	19.936	3.201	0.470
114.000	134.206	80.002	19.996	103.277	19.931	3.513	0.447
116.000	135.137	80.004	19.996	103.267	19.933	3.348	0.453
118.001	136.187	80.004	19.995	103.257	19.931	3.482	0.520
120.000	137.159	80.003	19.996	103.260	19.928	3.676	0.510
122.000	138.110	80.003	19.995	103.267	19.929	3.608	0.496
124.000	139.115	80.004	19.996	103.263	19.931	3.495	0.510
126.000	140.048	80.004	19.995	103.254	19.933	3.376	0.474
128.000	141.080	80.003	19.994	103.254	19.932	3.409	0.502
130.000	142.073	80.004	19.995	103.254	19.931	3.492	0.485
132.000	143.054	80.004	19.994	103.253	19.934	3.277	0.490
134.001	144.054	80.004	19.994	103.253	19.932	3.448	0.482
136.000	145.102	80.005	19.995	103.253	19.933	3.392	0.514
138.000	146.057	80.006	19.995	103.252	19.931	3.516	0.513
140.000	147.069	80.005	19.994	103.246	19.933	3.368	0.512
142.000	148.022	80.006	19.996	103.245	19.931	3.490	0.496
144.000	149.048	80.006	19.995	103.246	19.931	3.498	0.512
146.000	150.078	80.006	19.994	103.232	19.932	3.420	0.517
148.000	151.025	80.005	19.995	103.233	19.933	3.361	0.487
150.000	152.005	80.006	19.994	103.239	19.933	3.370	0.488
152.000	153.008	80.005	19.994	103.241	19.936	3.139	0.517
154.000	153.974	80.006	19.994	103.238	19.933	3.337	0.495
156.001	154.959	80.005	19.994	103.229	19.934	3.293	0.465
158.000	155.964	80.005	19.994	103.229	19.935	3.227	0.498
160.000	156.906	80.006	19.993	103.223	19.933	3.356	0.482
162.000	157.865	80.007	19.993	103.224	19.933	3.394	0.467
164.000	158.899	80.008	19.994	103.230	19.932	3.420	0.516
166.000	159.916	80.007	19.994	103.222	19.934	3.316	0.485
168.000	160.883	80.006	19.993	103.222	19.933	3.350	0.503
170.000	161.874	80.007	19.995	103.223	19.933	3.399	0.494
172.000	162.858	80.008	19.994	103.217	19.936	3.196	0.501
174.000	163.844	80.007	19.994	103.216	19.934	3.298	0.494
176.000	164.821	80.004	19.993	103.221	19.934	3.307	0.469
178.001	165.806	80.003	19.994	103.219	19.933	3.342	0.528
180.000	166.826	80.003	19.996	103.219	19.935	3.257	0.533
182.000	167.792	80.005	19.994	103.220	19.937	3.073	0.488
184.000	168.740	80.004	19.994	103.218	19.936	3.154	0.482
186.000	169.755	80.006	19.996	103.218	19.935	3.236	0.536
188.000	170.690	80.004	19.995	103.216	19.936	3.168	0.474
190.000	171.682	80.004	19.995	103.214	19.935	3.211	0.489
192.000	172.666	80.004	19.995	103.215	19.936	3.161	0.525
194.000	173.652	80.004	19.995	103.214	19.935	3.244	0.513
196.000	174.647	80.004	19.994	103.221	19.934	3.277	0.499
198.000	175.638	80.005	19.995	103.215	19.937	3.111	0.507
200.000	176.582	80.003	19.995	103.215	19.931	3.513	0.475
202.000	177.604	80.005	19.995	103.213	19.933	3.348	0.516
204.000	178.565	80.003	19.995	103.213	19.933	3.336	0.508
206.000	179.559	80.004	19.996	103.213	19.931	3.470	0.476
208.000	180.542	80.004	19.996	103.212	19.935	3.208	0.490
210.000	181.544	80.004	19.996	103.205	19.933	3.359	0.489
212.000	182.525	80.004	19.996	103.204	19.937	3.128	0.483
214.000	183.494	80.004	19.997	103.211	19.934	3.303	0.476
216.000	184.480	80.003	19.996	103.205	19.937	3.132	0.476
218.000	185.497	80.005	19.996	103.207	19.934	3.328	0.509
220.000	186.508	80.006	19.994	103.214	19.935	3.204	0.493
222.000	187.508	80.005	19.994	103.214	19.934	3.279	0.512
224.000	188.494	80.007	19.994	103.212	19.930	3.542	0.505
226.000	189.454	80.007	19.994	103.209	19.934	3.326	0.475
228.000	190.487	80.006	19.994	103.214	19.933	3.338	0.477
230.000	191.462	80.007	19.996	103.209	19.932	3.408	0.531
232.000	192.426	80.005	19.995	103.212	19.934	3.279	0.477
234.000	193.423	80.004	19.994	103.209	19.930	3.557	0.511
236.000	194.433	80.006	19.994	103.208	19.928	3.721	0.522
238.000	195.383	80.006	19.994	103.216	19.926	3.809	0.494
240.000	196.367	80.004	19.994	103.193	19.931	3.520	0.491
242.000	197.343	80.005	19.996	103.197	19.929	3.641	0.470
244.000	198.317	80.006	19.995	103.212	19.929	3.626	0.482
246.000	199.329	80.005	19.993	103.205	19.923	3.988	0.502
248.000	200.331	80.007	19.994	103.185	19.924	3.941	0.493
250.000	201.278	80.006	19.994	103.197	19.925	3.870	0.503
252.000	202.228	80.007	19.994	103.207	19.925	3.857	0.516
254.000	203.284	80.007	19.993	103.203	19.923	3.991	0.487
256.000	204.251	80.006	19.993	103.199	19.926	3.837	0.474
258.000	205.238	80.005	19.994	103.204	19.924	3.952	0.471
260.000	206.256	80.004	19.994	103.200	19.921	4.159	0.499
262.000	207.218	80.006	19.995	103.188	19.922	4.080	0.523
264.000	208.254	80.005	19.995	103.204	19.921	4.176	0.500
266.000	209.279	80.004	19.995	103.197	19.918	4.338	0.511
268.000	210.250	80.003	19.995	103.210	19.921	4.139	0.493
270.000	211.262	80.005	19.995	103.203	19.919	4.269	0.449
272.000	212.251	80.005	19.994	103.202	19.918	4.359	0.485
274.000	213.277	80.003	19.996	103.199	19.918	4.315	0.523
276.000	214.292	80.004	19.995	103.188	19.915	4.552	0.512
278.000	215.280	80.006	19.996	103.210	19.913	4.699	0.489
280.000	216.251	80.004	19.995	103.208	19.912	4.749	0.491
282.000	217.305	80.005	19.995	103.202	19.912	4.725	0.522
284.000	218.277	80.005	19.994	103.182	19.908	4.997	0.479
286.000	219.286	80.005	19.994	103.180	19.910	4.884	0.506
288.000	220.295	80.004	19.996	103.191	19.906	5.158	0.507
290.000	221.284	80.011	19.996	103.212	19.903	5.299	0.502
292.000	222.265	80.003	19.995	103.202	19.902	5.394	0.476
294.000	223.266	80.004	19.996	103.207	19.898	5.619	0.500
296.000	224.219	80.003	19.995	103.201	19.899	5.584	0.446
298.000	225.287	80.005	19.994	103.207	19.898	5.679	0.506
300.000	226.211	80.004	19.997	103.200	19.898	5.675	0.490
302.000	227.273	80.005	19.996	103.200	19.895	5.864	0.520
304.000	228.251	80.004	19.994	103.204	19.895	5.878	0.495
306.000	229.245	80.005	19.994	103.188	19.889	6.225	0.478
308.000	230.274	80.004	19.995	103.203	19.882	6.679	0.509
310.000	231.275	80.006	19.995	103.212	19.884	6.593	0.521
312.000	232.296	80.005	19.994	103.204	19.880	6.842	0.478
314.000	233.295	80.004	19.994	103.210	19.881	6.759	0.460
316.000	234.319	80.006	19.994	103.201	19.878	6.982	0.503
318.001	235.289	80.006	19.995	103.201	19.872	7.361	0.485
320.000	236.279	80.005	19.995	103.210	19.869	7.522	0.473
322.000	237.250	80.006	19.994	103.209	19.868	7.617	0.459
324.000	238.231	80.005	19.995	103.205	19.864	7.868	0.496
326.000	239.220	80.007	19.995	103.205	19.859	8.218	0.498
328.000	240.215	80.007	19.995	103.205	19.859	8.190	0.484
330.000	241.219	80.007	19.994	103.211	19.855	8.436	0.508
332.000	242.223	80.009	19.995	103.209	19.856	8.396	0.528
334.000	243.182	80.008	19.995	103.200	19.855	8.464	0.502
336.000	244.173	80.007	19.993	103.206	19.853	8.596	0.492
338.000	245.145	80.006	19.994	103.213	19.850	8.793	0.505
340.000	246.132	80.005	19.994	103.213	19.846	9.031	0.473
342.000	247.134	80.005	19.994	103.212	19.843	9.241	0.508
344.000	248.113	80.006	19.994	103.208	19.838	9.567	0.486
346.000	249.174	80.005	19.995	103.213	19.833	9.881	0.540
348.000	250.232	80.005	19.995	103.211	19.829	10.160	0.536
350.000	251.218	80.005	19.995	103.211	19.823	10.575	0.521
352.000	252.207	80.005	19.995	103.216	19.821	10.691	0.480
354.000	253.202	80.004	19.994	103.216	19.816	11.027	0.470
356.000	254.221	80.004	19.995	103.215	19.810	11.401	0.499
358.000	255.191	80.005	19.994	103.216	19.805	11.736	0.473
360.000	256.205	80.005	19.994	103.217	19.801	11.964	0.478
362.000	257.168	80.005	19.995	103.220	19.792	12.578	0.487
364.000	258.202	80.006	19.995	103.225	19.785	13.037	0.518
366.000	259.215	80.004	19.995	103.229	19.781	13.322	0.511
368.000	260.180	80.004	19.995	103.225	19.775	13.723	0.480
370.000	261.203	80.004	19.995	103.232	19.765	14.348	0.517
372.000	262.145	80.004	19.995	103.228	19.759	14.752	0.508
374.000	263.176	80.003	19.995	103.235	19.748	15.453	0.493
376.000	264.159	80.003	19.996	103.235	19.741	15.920	0.495
378.000	265.139	80.003	19.994	103.246	19.731	16.589	0.496
380.000	266.146	80.004	19.995	103.257	19.723	17.107	0.513
382.000	267.157	80.005	19.994	103.254	19.713	17.739	0.512
384.000	268.156	80.005	19.996	103.256	19.702	18.437	0.494
386.000	269.126	80.007	19.995	103.256	19.695	18.912	0.519
388.000	270.122	80.005	19.995	103.252	19.685	19.600	0.501
390.000	271.133	80.008	19.996	103.254	19.675	20.237	0.512
392.000	272.151	80.006	19.995	103.258	19.665	20.886	0.472
394.000	273.191	80.006	19.995	103.269	19.656	21.490	0.522
396.000	274.143	80.006	19.996	103.265	19.643	22.306	0.478
398.000	275.183	80.003	19.996	103.263	19.635	22.820	0.505
400.000	276.184	80.004	19.995	103.275	19.625	23.509	0.484
402.000	277.153	80.004	19.995	103.282	19.613	24.287	0.493
404.000	278.226	80.006	19.995	103.284	19.602	25.014	0.507
406.000	279.200	80.005	19.996	103.289	19.592	25.653	0.490
408.000	280.202	80.005	19.995	103.289	19.579	26.503	0.522
410.000	281.190	80.005	19.995	103.289	19.571	27.063	0.490
412.000	282.212	80.006	19.994	103.291	19.561	27.675	0.513
414.000	283.175	80.007	19.994	103.292	19.549	28.505	0.478
416.000	284.198	80.007	19.994	103.296	19.537	29.282	0.519
418.000	285.195	80.006	19.993	103.313	19.526	29.995	0.484
420.000	286.208	80.006	19.994	103.302	19.516	30.658	0.517
422.000	287.204	80.006	19.994	103.317	19.504	31.450	0.505
424.000	288.239	80.005	19.994	103.299	19.492	32.182	0.507
426.000	289.211	80.005	19.994	103.323	19.479	33.048	0.497
428.000	290.215	80.004	19.994	103.327	19.468	33.807	0.496
430.000	291.254	80.004	19.994	103.328	19.458	34.465	0.516
432.000	292.219	80.005	19.995	103.331	19.450	34.987	0.491
434.000	293.216	80.004	19.994	103.331	19.437	35.810	0.519
436.000	294.219	80.005	19.994	103.330	19.429	36.355	0.500
438.000	295.216	80.004	19.995	103.334	19.416	37.151	0.479
440.000	296.216	80.004	19.995	103.335	19.404	37.968	0.511
442.000	297.150	80.003	19.994	103.335	19.400	38.254	0.465
444.000	298.198	80.004	19.994	103.336	19.391	38.833	0.522
446.000	299.196	80.006	19.993	103.344	19.380	39.564	0.514
448.000	300.208	80.005	19.993	103.338	19.375	39.863	0.519
450.000	301.204	80.005	19.993	103.342	19.365	40.522	0.483
452.000	302.153	80.004	19.995	103.352	19.354	41.246	0.469
454.000	303.251	80.004	19.994	103.346	19.345	41.808	0.532
456.000	304.231	80.005	19.994	103.350	19.339	42.205	0.527
458.000	305.196	80.004	19.995	103.350	19.332	42.702	0.468
460.000	306.227	80.004	19.995	103.356	19.323	43.294	0.552
462.000	307.280	80.005	19.994	103.354	19.314	43.850	0.523
464.000	308.262	80.004	19.995	103.358	19.305	44.464	0.484
466.000	309.291	80.004	19.996	103.363	19.301	44.744	0.513
468.000	310.294	80.007	19.995	103.366	19.293	45.220	0.501
470.000	311.328	80.007	19.995	103.367	19.284	45.806	0.509
472.000	312.389	80.006	19.995	103.366	19.278	46.204	0.539
474.000	313.399	80.006	19.995	103.369	19.269	46.803	0.511
476.000	314.361	80.007	19.995	103.368	19.263	47.237	0.460
478.000	315.471	80.005	19.995	103.366	19.252	47.950	0.524
480.000	316.479	80.006	19.995	103.370	19.243	48.512	0.530
482.000	317.479	80.006	19.995	103.375	19.241	48.686	0.523
484.000	318.524	80.005	19.995	103.373	19.229	49.421	0.535
486.000	319.494	80.005	19.996	103.373	19.222	49.887	0.512
488.000	320.512	80.005	19.995	103.379	19.213	50.488	0.506
490.000	321.533	80.005	19.994	103.373	19.204	51.079	0.520
492.000	322.541	80.005	19.995	103.391	19.192	51.878	0.532
494.000	323.516	80.006	19.995	103.398	19.180	52.682	0.515
496.000	324.538	80.007	19.995	103.406	19.169	53.383	0.511
498.000	325.581	80.007	19.995	103.407	19.162	53.851	0.506
500.000	326.583	80.008	19.994	103.403	19.147	54.791	0.486
502.000	327.577	80.008	19.994	103.408	19.132	55.807	0.492
504.000	328.562	80.008	19.994	103.409	19.121	56.521	0.495
506.000	329.583	80.007	19.994	103.428	19.104	57.624	0.509
508.000	330.581	80.006	19.994	103.431	19.092	58.404	0.478
510.000	331.582	80.005	19.994	103.429	19.082	59.114	0.497
512.000	332.603	80.005	19.994	103.437	19.062	60.383	0.521
514.000	333.590	80.004	19.994	103.445	19.046	61.460	0.487
516.000	334.619	80.005	19.994	103.447	19.032	62.351	0.513
518.000	335.627	80.006	19.993	103.448	19.016	63.457	0.498
520.001	336.636	80.005	19.994	103.450	18.998	64.610	0.523
522.000	337.608	80.006	19.995	103.453	18.983	65.623	0.482
524.000	338.670	80.005	19.994	103.462	18.964	66.848	0.529
526.000	339.654	80.007	19.994	103.475	18.947	67.929	0.483
528.000	340.622	80.005	19.994	103.479	18.932	68.959	0.481
530.000	341.683	80.007	19.994	103.484	18.913	70.167	0.497
532.000	342.669	80.004	19.995	103.488	18.901	70.974	0.495
534.000	343.667	80.005	19.996	103.489	18.886	71.979	0.480
536.000	344.678	80.006	19.995	103.492	18.870	73.017	0.505
538.000	345.672	80.005	19.995	103.493	18.855	74.012	0.506
540.000	346.641	80.005	19.995	103.497	18.842	74.808	0.470
542.000	347.655	80.005	19.995	103.506	18.827	75.799	0.513
544.000	348.645	80.006	19.994	103.493	18.821	76.180	0.507
546.000	349.687	80.006	19.994	103.492	18.808	77.039	0.508
548.000	350.674	80.004	19.994	103.495	18.802	77.476	0.483
550.000	351.716	80.005	19.994	103.498	18.793	78.014	0.499
552.000	352.682	80.006	19.994	103.490	18.786	78.483	0.488
554.000	353.713	80.007	19.994	103.490	18.783	78.678	0.543
556.000	354.597	80.006	19.994	103.488	18.784	78.571	0.481
558.000	356.009	80.006	19.995	103.488	18.788	78.326	0.512
560.000	356.731	80.006	19.995	103.488	18.791	78.120	0.590
562.000	357.837	80.004	19.994	103.478	18.797	77.733	0.526
564.000	358.825	80.006	19.995	103.465	18.807	77.050	0.498
566.000	359.797	80.005	19.995	103.453	18.821	76.109	0.511
568.000	360.820	80.004	19.995	103.438	18.840	74.859	0.506
570.000	361.792	80.006	19.993	103.416	18.862	73.410	0.492
572.000	362.818	80.006	19.995	103.413	18.885	71.860	0.482
574.000	363.825	80.005	19.995	103.383	18.911	70.193	0.496
576.000	364.834	80.006	19.994	103.381	18.943	68.037	0.483
578.000	365.835	80.007	19.995	103.361	18.977	65.823	0.542
580.000	366.854	80.007	19.993	103.344	19.014	63.407	0.491
582.000	367.882	80.007	19.995	103.324	19.056	60.624	0.511
584.000	368.865	80.008	19.995	103.294	19.095	58.112	0.514
586.000	369.915	80.006	19.995	103.278	19.142	54.993	0.476
588.000	370.898	80.006	19.995	103.250	19.191	51.843	0.463
590.000	371.956	80.006	19.996	103.244	19.236	48.884	0.533
592.000	372.958	80.005	19.996	103.230	19.285	45.652	0.507
594.000	374.003	80.004	19.996	103.208	19.330	42.723	0.540
596.000	375.013	80.005	19.996	103.189	19.376	39.715	0.515
598.000	376.024	80.005	19.996	103.175	19.423	36.623	0.477
600.000	377.049	80.006	19.995	103.171	19.468	33.702	0.511
602.000	378.029	80.005	19.994	103.163	19.512	30.865	0.490
604.000	379.010	80.005	19.995	103.148	19.549	28.455	0.490
606.000	380.043	80.005	19.994	103.148	19.585	26.090	0.504
608.000	381.074	80.007	19.993	103.148	19.616	24.068	0.512
610.000	382.046	80.005	19.994	103.139	19.643	22.309	0.515
612.000	383.081	80.006	19.994	103.134	19.668	20.663	0.503
614.000	384.079	80.006	19.994	103.134	19.687	19.402	0.506
616.000	385.080	80.005	19.994	103.136	19.710	17.939	0.506
618.000	386.030	80.005	19.994	103.137	19.720	17.271	0.466
620.000	387.045	80.005	19.994	103.135	19.732	16.506	0.522
622.000	388.034	80.004	19.994	103.136	19.744	15.679	0.479
624.000	389.045	80.005	19.995	103.137	19.756	14.888	0.471
626.000	390.003	80.005	19.994	103.137	19.763	14.480	0.489
628.000	391.030	80.004	19.994	103.137	19.769	14.087	0.502
630.000	392.033	80.006	19.995	103.136	19.772	13.872	0.498
632.000	393.017	80.005	19.994	103.137	19.778	13.481	0.506
634.000	394.054	80.004	19.994	103.134	19.781	13.279	0.511
636.000	395.048	80.006	19.994	103.136	19.780	13.325	0.498
638.000	396.050	80.006	19.993	103.136	19.782	13.229	0.489
640.000	397.107	80.007	19.994	103.130	19.786	12.987	0.538
642.000	398.051	80.007	19.995	103.138	19.785	13.033	0.533
644.000	399.016	80.008	19.993	103.140	19.786	12.965	0.473
646.000	400.088	80.007	19.994	103.138	19.793	12.507	0.525
648.000	401.003	80.005	19.995	103.133	19.789	12.775	0.505
650.000	402.013	80.004	19.995	103.135	19.793	12.476	0.495
652.000	402.985	80.007	19.995	103.136	19.795	12.377	0.487
654.000	403.987	80.007	19.994	103.127	19.795	12.345	0.490
656.000	404.945	80.005	19.994	103.132	19.794	12.461	0.489
658.000	405.951	80.006	19.995	103.130	19.796	12.335	0.513
660.000	406.962	80.007	19.996	103.133	19.798	12.156	0.480
662.000	407.919	80.007	19.995	103.133	19.799	12.122	0.461
664.000	408.922	80.008	19.995	103.132	19.799	12.084	0.494
666.000	409.946	80.008	19.994	103.132	19.800	12.041	0.506
668.000	410.927	80.008	19.995	103.132	19.800	12.045	0.510
670.000	411.927	80.007	19.995	103.131	19.802	11.912	0.484
672.000	412.923	80.006	19.995	103.132	19.806	11.663	0.510
674.000	413.912	80.007	19.995	103.131	19.807	11.578	0.499
676.000	414.926	80.006	19.996	103.132	19.806	11.646	0.502
678.000	415.934	80.006	19.996	103.131	19.811	11.356	0.506
680.000	416.921	80.006	19.995	103.125	19.809	11.478	0.485
682.000	417.951	80.005	19.995	103.134	19.809	11.443	0.508
684.000	419.002	80.005	19.996	103.134	19.805	11.694	0.499
686.000	420.040	80.005	19.996	103.137	19.808	11.545	0.509
688.000	421.065	80.004	19.996	103.134	19.807	11.620	0.539
690.000	422.082	80.004	19.997	103.135	19.807	11.577	0.502
692.000	423.076	80.005	19.995	103.135	19.810	11.421	0.521
694.000	424.142	80.005	19.996	103.135	19.807	11.585	0.542
696.000	425.129	80.006	19.994	103.136	19.811	11.326	0.518
698.000	426.158	80.006	19.995	103.135	19.814	11.102	0.519
700.000	427.209	80.006	19.995	103.136	19.814	11.125	0.528
702.000	428.200	80.005	19.995	103.137	19.813	11.190	0.511
704.000	429.240	80.005	19.994	103.134	19.811	11.354	0.517
706.000	430.304	80.004	19.995	103.137	19.814	11.128	0.541
708.000	431.307	80.005	19.995	103.136	19.815	11.069	0.501
710.000	432.315	80.005	19.995	103.136	19.815	11.033	0.524
712.000	433.335	80.005	19.994	103.138	19.818	10.848	0.489
714.000	434.360	80.004	19.994	103.131	19.818	10.851	0.483
716.000	435.381	80.004	19.996	103.137	19.817	10.911	0.512
718.000	436.400	80.006	19.995	103.135	19.821	10.701	0.510
720.000	437.423	80.005	19.996	103.132	19.821	10.654	0.507
722.000	438.402	80.007	19.994	103.114	19.825	10.413	0.494
724.000	439.415	80.006	19.996	103.126	19.823	10.556	0.502
726.000	440.427	80.007	19.994	103.121	19.819	10.802	0.489
728.000	441.435	80.007	19.994	103.126	19.821	10.657	0.498
730.000	442.434	80.007	19.993	103.130	19.825	10.431	0.499
732.000	443.450	80.008	19.994	103.129	19.828	10.216	0.510
734.000	444.422	80.005	19.994	103.134	19.823	10.550	0.505
736.000	445.441	80.008	19.994	103.132	19.826	10.316	0.516
738.000	446.417	80.006	19.994	103.126	19.830	10.101	0.509
740.000	447.420	80.007	19.995	103.129	19.827	10.287	0.518
742.000	448.395	80.007	19.994	103.134	19.828	10.193	0.500
744.000	449.383	80.008	19.994	103.133	19.828	10.241	0.474
746.000	450.404	80.007	19.995	103.131	19.824	10.476	0.507
748.000	451.379	80.007	19.996	103.131	19.829	10.157	0.496
750.000	452.336	80.008	19.995	103.132	19.828	10.235	0.492
752.000	453.373	80.008	19.994	103.134	19.828	10.217	0.536
754.000	454.361	80.008	19.995	103.127	19.828	10.186	0.529
756.000	455.373	80.007	19.994	103.127	19.829	10.153	0.502
758.000	456.317	80.006	19.994	103.133	19.827	10.275	0.487
760.000	457.304	80.007	19.994	103.135	19.827	10.294	0.485
762.000	458.321	80.005	19.994	103.130	19.827	10.305	0.494
764.000	459.299	80.005	19.994	103.120	19.829	10.171	0.500
766.000	460.266	80.005	19.996	103.126	19.826	10.365	0.503
768.000	461.236	80.005	19.994	103.134	19.828	10.232	0.485
770.000	462.264	80.005	19.996	103.134	19.831	10.048	0.503
772.000	463.218	80.004	19.995	103.136	19.831	10.000	0.488
774.000	464.219	80.004	19.995	103.137	19.828	10.185	0.472
776.000	465.200	80.005	19.995	103.136	19.829	10.133	0.472
778.000	466.209	80.006	19.995	103.131	19.830	10.066	0.507
780.000	467.227	80.005	19.997	103.138	19.830	10.074	0.501
782.000	468.257	80.004	19.997	103.135	19.829	10.177	0.497
784.000	469.212	80.004	19.996	103.120	19.827	10.274	0.476
786.000	470.245	80.005	19.997	103.127	19.828	10.215	0.528
788.000	471.257	80.006	19.996	103.128	19.829	10.119	0.505
790.000	472.289	80.004	19.996	103.119	19.826	10.333	0.474
792.000	473.278	80.004	19.997	103.107	19.827	10.293	0.498
794.000	474.310	80.004	19.995	103.120	19.830	10.073	0.503
796.000	475.310	80.004	19.996	103.125	19.826	10.329	0.494
798.000	476.352	80.004	19.994	103.120	19.827	10.282	0.502
800.000	477.339	80.005	19.995	103.117	19.830	10.086	0.498
802.000	478.373	80.005	19.994	103.131	19.831	10.013	0.517
804.000	479.344	80.005	19.994	103.113	19.830	10.081	0.474
806.000	480.420	80.006	19.994	103.132	19.829	10.172	0.548
808.000	481.440	80.007	19.993	103.136	19.827	10.278	0.516
810.000	482.471	80.007	19.994	103.134	19.826	10.365	0.520
812.000	483.448	80.006	19.994	103.131	19.826	10.376	0.489
814.000	484.501	80.007	19.994	103.127	19.827	10.280	0.540
816.000	485.578	80.007	19.994	103.132	19.824	10.469	0.545
818.000	486.567	80.005	19.995	103.127	19.822	10.584	0.495
820.000	487.643	80.005	19.994	103.131	19.824	10.477	0.519
822.000	488.682	80.005	19.995	103.131	19.825	10.416	0.541
824.000	489.706	80.006	19.995	103.136	19.822	10.625	0.491
826.000	490.787	80.005	19.995	103.131	19.824	10.469	0.542
828.000	491.822	80.006	19.994	103.134	19.824	10.481	0.487
830.000	492.850	80.007	19.995	103.128	19.822	10.604	0.515
832.000	493.894	80.007	19.993	103.130	19.824	10.477	0.566
834.000	494.949	80.008	19.994	103.135	19.825	10.412	0.517
836.000	496.003	80.010	19.993	103.135	19.822	10.596	0.526
838.000	497.046	80.009	19.992	103.134	19.824	10.507	0.500
840.000	498.048	80.008	19.993	103.132	19.825	10.404	0.520
842.000	499.102	80.006	19.994	103.127	19.822	10.618	0.527
844.000	500.115	80.007	19.993	103.133	19.824	10.495	0.513
846.000	501.136	80.005	19.994	103.136	19.824	10.505	0.498
848.000	502.186	80.004	19.994	103.135	19.821	10.652	0.515
850.000	503.207	80.004	19.994	103.129	19.822	10.590	0.517
852.000	504.227	80.006	19.995	103.127	19.824	10.486	0.528
854.000	505.261	80.004	19.994	103.133	19.824	10.500	0.494
856.000	506.287	80.004	19.993	103.132	19.819	10.793	0.523
858.000	507.310	80.004	19.993	103.128	19.822	10.616	0.500
860.000	508.372	80.004	19.995	103.127	19.819	10.795	0.533
862.000	509.435	80.004	19.995	103.126	19.816	11.008	0.522
864.000	510.452	80.004	19.995	103.127	19.819	10.810	0.505
866.000	511.468	80.005	19.995	103.134	19.817	10.903	0.527
868.000	512.488	80.006	19.995	103.129	19.814	11.132	0.514
870.000	513.559	80.006	19.994	103.115	19.817	10.912	0.519
872.000	514.595	80.006	19.995	103.123	19.817	10.927	0.519
874.000	515.628	80.004	19.995	103.130	19.814	11.111	0.516
876.000	516.682	80.005	19.995	103.126	19.814	11.146	0.522
878.000	517.703	80.005	19.994	103.123	19.819	10.824	0.515
880.000	518.716	80.004	19.994	103.126	19.817	10.944	0.502
882.000	519.778	80.004	19.996	103.123	19.814	11.158	0.536
884.000	520.849	80.005	19.996	103.119	19.817	10.915	0.526
886.000	521.900	80.004	19.995	103.128	19.814	11.137	0.513
888.000	522.956	80.003	19.995	103.116	19.816	11.023	0.534
890.000	524.006	80.006	19.996	103.119	19.814	11.150	0.525
892.000	525.063	80.006	19.995	103.126	19.816	11.032	0.517
894.000	526.122	80.008	19.994	103.131	19.816	11.024	0.532
896.000	527.130	80.008	19.993	103.123	19.813	11.165	0.493
898.000	528.189	80.008	19.994	103.122	19.814	11.158	0.517
900.000	529.257	80.007	19.993	103.122	19.814	11.133	0.536
902.000	530.331	80.006	19.995	103.132	19.810	11.369	0.553
904.000	531.357	80.007	19.993	103.123	19.815	11.047	0.512
906.000	532.421	80.005	19.994	103.126	19.812	11.274	0.526
908.000	533.459	80.005	19.995	103.119	19.810	11.376	0.516
910.000	534.504	80.006	19.994	103.109	19.815	11.077	0.527
912.000	535.579	80.005	19.994	103.106	19.809	11.482	0.507
914.000	536.615	80.005	19.993	103.109	19.811	11.294	0.528
916.000	537.630	80.007	19.995	103.112	19.811	11.345	0.500
918.000	538.711	80.007	19.994	103.112	19.811	11.335	0.530
920.000	539.740	80.007	19.993	103.110	19.810	11.375	0.505
922.000	540.743	80.007	19.993	103.103	19.811	11.355	0.502
924.000	541.795	80.007	19.994	103.107	19.808	11.522	0.539
926.000	542.833	80.006	19.993	103.101	19.808	11.545	0.527
928.000	543.878	80.007	19.994	103.117	19.806	11.660	0.558
930.000	544.913	80.007	19.993	103.104	19.805	11.701	0.524
932.000	545.892	80.005	19.995	103.108	19.807	11.607	0.505
934.000	546.937	80.006	19.995	103.118	19.804	11.768	0.539
936.000	547.961	80.007	19.994	103.122	19.807	11.559	0.495
938.000	548.975	80.006	19.994	103.120	19.806	11.630	0.496
940.000	549.993	80.005	19.992	103.124	19.801	11.963	0.516
942.000	551.026	80.006	19.994	103.103	19.803	11.877	0.526
944.000	552.026	80.005	19.994	103.100	19.804	11.787	0.507
946.000	553.086	80.006	19.994	103.110	19.803	11.858	0.522
948.000	554.047	80.006	19.996	103.105	19.802	11.933	0.490
950.000	555.099	80.006	19.994	103.112	19.803	11.876	0.488
952.000	556.113	80.006	19.995	103.108	19.801	11.986	0.477
954.000	557.106	80.006	19.995	103.114	19.801	11.946	0.484
956.000	558.137	80.006	19.996	103.113	19.799	12.078	0.478
958.000	559.188	80.007	19.995	103.107	19.802	11.882	0.505
960.000	560.220	80.005	19.995	103.113	19.799	12.119	0.519
962.000	561.241	80.006	19.995	103.107	19.801	11.976	0.550
964.000	562.238	80.006	19.994	103.113	19.798	12.165	0.528
966.000	563.225	80.006	19.995	103.111	19.796	12.270	0.511
968.000	564.250	80.005	19.994	103.111	19.795	12.368	0.488
970.000	565.228	80.004	19.994	103.114	19.796	12.303	0.481
972.000	566.276	80.004	19.995	103.110	19.797	12.243	0.554
974.000	567.279	80.004	19.994	103.119	19.796	12.309	0.506
976.000	568.266	80.005	19.995	103.115	19.797	12.246	0.494
978.000	569.311	80.006	19.995	103.101	19.794	12.420	0.483
980.000	570.281	80.005	19.995	103.101	19.791	12.645	0.517
982.000	571.323	80.007	19.996	103.109	19.794	12.416	0.499
984.000	572.363	80.008	19.996	103.114	19.793	12.515	0.547
986.000	573.365	80.007	19.996	103.118	19.792	12.539	0.504
988.000	574.440	80.006	19.995	103.105	19.793	12.504	0.532
990.000	575.479	80.006	19.995	103.102	19.792	12.570	0.520
992.000	576.507	80.007	19.995	103.106	19.793	12.491	0.545
994.000	577.515	80.008	19.994	103.102	19.795	12.384	0.504
996.000	578.550	80.006	19.993	103.100	19.790	12.689	0.486
998.000	579.580	80.006	19.994	103.103	19.792	12.589	0.514
1000.000	580.627	80.007	19.994	103.106	19.790	12.676	0.524
1002.000	581.640	80.007	19.994	103.096	19.791	12.648	0.526
1004.000	582.701	80.009	19.994	103.107	19.791	12.629	0.538
1006.000	583.675	80.010	19.995	103.110	19.790	12.700	0.485
1008.000	584.683	80.010	19.994	103.108	19.791	12.648	0.480
1010.000	585.642	80.008	19.995	103.095	19.790	12.680	0.488
1012.000	586.685	80.007	19.995	103.099	19.788	12.855	0.487
1014.000	587.677	80.008	19.995	103.097	19.790	12.720	0.489
1016.000	588.674	80.007	19.994	103.103	19.790	12.726	0.512
1018.000	589.694	80.006	19.995	103.106	19.787	12.919	0.503
1020.000	590.712	80.004	19.994	103.103	19.789	12.781	0.492
1022.000	591.740	80.005	19.995	103.126	19.786	12.969	0.501
1024.000	592.784	80.005	19.994	103.114	19.785	12.997	0.496
1026.001	593.847	80.006	19.994	103.121	19.786	12.961	0.540
1028.000	594.884	80.006	19.995	103.104	19.783	13.178	0.535
1030.000	595.919	80.006	19.994	103.107	19.781	13.255	0.530
1032.000	596.923	80.006	19.994	103.102	19.784	13.073	0.510
1034.000	597.935	80.006	19.994	103.105	19.781	13.270	0.508
1036.000	598.969	80.007	19.994	103.100	19.783	13.157	0.503
1038.000	599.958	80.006	19.995	103.113	19.783	13.163	0.507
1040.001	600.994	80.008	19.993	103.105	19.785	13.006	0.500
1042.000	602.021	80.006	19.993	103.104	19.780	13.316	0.507
1044.000	602.999	80.005	19.994	103.101	19.785	13.030	0.469
1046.001	604.041	80.005	19.995	103.112	19.781	13.284	0.545
1048.000	605.032	80.006	19.995	103.120	19.783	13.160	0.515
1050.001	606.021	80.004	19.995	103.103	19.784	13.079	0.503
1052.000	607.052	80.005	19.996	103.122	19.779	13.431	0.486
1054.000	608.043	80.006	19.996	103.115	19.780	13.334	0.513
1056.001	609.019	80.006	19.995	103.118	19.778	13.494	0.477
1058.000	610.034	80.007	19.996	103.104	19.775	13.647	0.513
1060.000	611.019	80.006	19.994	103.109	19.778	13.506	0.492
1062.000	612.062	80.007	19.994	103.104	19.774	13.714	0.491
1064.000	613.062	80.007	19.995	103.100	19.776	13.613	0.491
1066.000	614.057	80.008	19.995	103.105	19.774	13.725	0.506
1068.000	615.061	80.008	19.994	103.122	19.770	13.992	0.474
1070.000	616.107	80.007	19.996	103.104	19.770	13.982	0.535
1072.000	617.100	80.009	19.995	103.114	19.770	14.009	0.516
1074.001	618.053	80.007	19.995	103.098	19.769	14.072	0.519
1076.000	619.066	80.007	19.996	103.096	19.769	14.079	0.507
1078.000	620.083	80.007	19.995	103.103	19.769	14.049	0.497
1080.000	621.020	80.008	19.996	103.109	19.769	14.033	0.516
1082.000	621.975	80.006	19.996	103.097	19.771	13.939	0.487
1084.000	622.923	80.005	19.995	103.097	19.767	14.174	0.466
1086.000	623.894	80.005	19.996	103.099	19.767	14.216	0.475
1088.000	624.858	80.006	19.995	103.098	19.766	14.287	0.483
1090.000	625.782	80.008	19.996	103.101	19.763	14.482	0.456
1092.000	626.750	80.008	19.995	103.102	19.761	14.571	0.499
1094.001	627.683	80.008	19.994	103.097	19.764	14.368	0.476
1096.000	628.718	80.009	19.994	103.098	19.765	14.346	0.504
1098.000	629.655	80.010	19.994	103.104	19.762	14.501	0.478
1100.001	630.609	80.009	19.994	103.104	19.764	14.419	0.468
1102.001	631.585	80.007	19.994	103.104	19.764	14.365	0.476
1104.000	632.535	80.005	19.993	103.098	19.759	14.745	0.485
1106.000	633.535	80.006	19.994	103.101	19.760	14.643	0.491
1108.000	634.545	80.005	19.993	103.108	19.761	14.603	0.551
1110.000	635.527	80.006	19.994	103.110	19.764	14.422	0.472
1112.000	636.590	80.006	19.994	103.109	19.761	14.593	0.553
1114.001	637.541	80.005	19.993	103.109	19.759	14.692	0.489
1116.000	638.642	80.006	19.995	103.111	19.758	14.807	0.527
1118.000	639.617	80.003	19.993	103.111	19.753	15.115	0.542
1120.001	640.652	80.006	19.994	103.129	19.754	15.016	0.515
1122.000	641.709	80.007	19.993	103.114	19.758	14.802	0.533
1124.000	642.718	80.006	19.994	103.116	19.754	15.047	0.469
1126.000	643.818	80.008	19.995	103.123	19.753	15.083	0.493
1128.000	644.825	80.006	19.994	103.112	19.756	14.912	0.510
1130.001	645.869	80.006	19.995	103.105	19.756	14.917	0.508
1132.000	646.915	80.006	19.994	103.115	19.757	14.854	0.503
1134.000	647.945	80.008	19.994	103.100	19.760	14.651	0.529
1136.000	648.973	80.006	19.995	103.100	19.751	15.243	0.514
1138.000	649.979	80.007	19.995	103.106	19.753	15.095	0.503
1140.000	650.998	80.005	19.994	103.098	19.745	15.629	0.493
1142.001	652.030	80.006	19.996	103.096	19.751	15.265	0.476
1144.000	653.038	80.005	19.994	103.098	19.750	15.324	0.519
1146.000	654.025	80.006	19.995	103.102	19.751	15.254	0.485
1148.000	655.051	80.006	19.995	103.097	19.748	15.423	0.487
1150.000	656.064	80.007	19.994	103.098	19.748	15.464	0.503
1152.000	657.002	80.008	19.994	103.096	19.747	15.524	0.481
1154.000	657.977	80.008	19.995	103.096	19.746	15.577	0.517
1156.000	659.009	80.010	19.995	103.099	19.745	15.644	0.480
1158.000	659.973	80.008	19.995	103.099	19.742	15.820	0.502
1160.000	660.967	80.009	19.995	103.101	19.741	15.903	0.492
1162.000	661.958	80.007	19.995	103.114	19.743	15.737	0.501
1164.000	662.962	80.007	19.995	103.120	19.742	15.803	0.477
1166.001	663.954	80.008	19.996	103.125	19.742	15.824	0.510
1168.000	664.987	80.008	19.994	103.112	19.743	15.735	0.488
1170.000	666.008	80.006	19.994	103.106	19.744	15.722	0.511
1172.000	667.024	80.007	19.995	103.100	19.741	15.919	0.487
1174.000	668.037	80.008	19.995	103.104	19.739	16.032	0.545
1176.000	669.095	80.008	19.995	103.113	19.738	16.064	0.532
1178.000	670.120	80.008	19.995	103.107	19.740	15.946	0.503
1180.000	671.224	80.008	19.995	103.106	19.733	16.414	0.552
1182.000	672.270	80.008	19.995	103.108	19.736	16.217	0.560
1184.001	673.320	80.009	19.994	103.104	19.735	16.291	0.527
1186.000	674.392	80.007	19.995	103.105	19.740	15.973	0.550
1188.000	675.461	80.008	19.995	103.101	19.736	16.192	0.520
1190.000	676.515	80.008	19.996	103.110	19.732	16.447	0.543
1192.000	677.564	80.007	19.996	103.102	19.735	16.296	0.524
1194.000	678.599	80.006	19.995	103.099	19.735	16.288	0.560
1196.000	679.628	80.006	19.995	103.108	19.734	16.354	0.526
1198.000	680.664	80.006	19.995	103.114	19.736	16.203	0.497
1200.000	681.713	80.006	19.994	103.112	19.734	16.373	0.502
1202.000	682.759	80.006	19.993	103.099	19.732	16.465	0.519
1204.000	683.831	80.006	19.995	103.104	19.736	16.206	0.530
1206.000	684.811	80.008	19.994	103.096	19.730	16.606	0.543
1208.000	685.838	80.008	19.995	103.103	19.734	16.380	0.530
1210.000	686.898	80.008	19.994	103.101	19.731	16.521	0.537
1212.000	687.914	80.008	19.994	103.100	19.734	16.360	0.491
1214.000	688.945	80.007	19.994	103.102	19.731	16.567	0.516
1216.000	690.005	80.008	19.994	103.103	19.733	16.424	0.512
1218.000	691.033	80.007	19.994	103.107	19.729	16.641	0.541
1220.000	692.109	80.007	19.995	103.102	19.729	16.698	0.534
1222.000	693.113	80.006	19.995	103.096	19.730	16.631	0.521
1224.000	694.205	80.005	19.994	103.102	19.729	16.668	0.550
1226.000	695.237	80.005	19.994	103.103	19.725	16.951	0.547
1228.000	696.281	80.007	19.994	103.099	19.728	16.759	0.529
1230.000	697.362	80.007	19.994	103.111	19.726	16.846	0.530
1232.000	698.382	80.007	19.995	103.101	19.725	16.904	0.500
1234.000	699.444	80.008	19.993	103.107	19.720	17.278	0.514
1236.000	700.522	80.008	19.993	103.100	19.724	16.990	0.511
1238.000	701.591	80.010	19.993	103.102	19.725	16.949	0.530
1240.000	702.617	80.010	19.994	103.099	19.721	17.176	0.523
1242.000	703.664	80.009	19.994	103.104	19.721	17.176	0.492
1244.000	704.710	80.010	19.994	103.101	19.718	17.366	0.530
1246.000	705.705	80.008	19.993	103.100	19.723	17.091	0.490
1248.001	706.758	80.009	19.994	103.098	19.718	17.361	0.496
1250.000	707.766	80.008	19.996	103.098	19.717	17.465	0.487
1252.000	708.829	80.006	19.994	103.098	19.719	17.331	0.496
1254.000	709.829	80.006	19.995	103.099	19.719	17.347	0.495
1256.000	710.863	80.006	19.995	103.098	19.721	17.184	0.481
1258.000	711.896	80.007	19.995	103.098	19.716	17.553	0.520
1260.000	712.936	80.010	19.992	103.097	19.720	17.261	0.541
1262.000	713.966	80.008	19.993	103.097	19.720	17.279	0.528
1264.000	714.979	80.010	19.993	103.098	19.716	17.540	0.505
1266.000	716.042	80.009	19.993	103.096	19.720	17.281	0.535
1268.000	717.096	80.010	19.993	103.096	19.717	17.452	0.548
1270.001	718.088	80.011	19.995	103.093	19.716	17.508	0.502
1272.000	719.061	80.009	19.993	103.093	19.710	17.882	0.494
1274.000	720.139	80.008	19.994	103.093	19.714	17.665	0.527
1276.001	721.113	80.005	19.993	103.093	19.715	17.561	0.507
1278.000	722.110	80.007	19.994	103.093	19.718	17.368	0.493
1280.000	723.138	80.007	19.996	103.092	19.712	17.762	0.495
1282.000	724.142	80.006	19.996	103.094	19.714	17.657	0.533
1284.001	725.172	80.007	19.995	103.095	19.715	17.612	0.483
1286.000	726.142	80.007	19.996	103.094	19.715	17.612	0.481
1288.000	727.181	80.006	19.996	103.095	19.713	17.742	0.528
1290.000	728.151	80.006	19.997	103.096	19.712	17.772	0.499
1292.000	729.192	80.008	19.996	103.095	19.713	17.707	0.510
1294.000	730.198	80.007	19.994	103.096	19.710	17.894	0.509
1296.000	731.169	80.009	19.993	103.097	19.711	17.860	0.516
1298.000	732.165	80.008	19.994	103.097	19.710	17.932	0.480
1300.000	733.181	80.009	19.994	103.098	19.712	17.806	0.488
1302.000	734.161	80.009	19.996	103.097	19.708	18.050	0.488
1304.000	735.134	80.007	19.992	103.098	19.710	17.918	0.461
1306.000	736.100	80.007	19.994	103.104	19.711	17.865	0.463
1308.000	737.075	80.006	19.993	103.098	19.707	18.085	0.472
1310.000	738.047	80.007	19.993	103.097	19.705	18.271	0.465
1312.000	739.031	80.006	19.995	103.100	19.704	18.324	0.481
1314.000	740.026	80.006	19.993	103.094	19.703	18.362	0.488
1316.000	741.028	80.006	19.994	103.099	19.703	18.369	0.517
1318.001	742.025	80.008	19.994	103.099	19.703	18.367	0.509
1320.001	742.982	80.008	19.993	103.100	19.701	18.488	0.445
1322.000	743.962	80.008	19.993	103.100	19.704	18.303	0.516
1324.000	744.974	80.008	19.992	103.096	19.704	18.301	0.501
1325.000	745.434	80.008	19.995	103.096	19.706	18.152	0.453