File: 01_Data/Oak_HWF/MCC/Oak_HWF_MCC_30K_min_211104_R1.txt
Sample ID:	C:\MCC\MCC Cal\Test\Oak_HWF_MCC_30K_min_211104_R3.txt
Sample Weight (mg):	4.33
Heating Rate (C/s):	0.5
Combustor Temp (C):	900
N2 Flow Rate (cc/min):	80
O2 Flow Rate (cc/min):	20
Calibration File:	C:\MCC\MCC Cal\Coeff1 JN10440_30_210304.txt.txt
T Correction Coefficients:	0	1.024463	0
Time Shift (s):	14
*
Time (s)	Temperature (C)	N2 flow rate (cc/min)	O2 flow rate (cc/min)	Flow Rate (cc/min)	Oxygen (%)	HRR (W/g)	Heating rate (C/s)
0.000	107.548	80.006	19.994	103.082	19.936	0.109	-0.010
2.000	107.510	80.008	19.994	103.067	19.934	0.229	0.002
4.000	107.512	80.007	19.994	103.066	19.934	0.225	0.006
6.000	107.569	80.007	19.995	103.063	19.935	0.117	0.007
8.001	107.524	80.006	19.995	103.062	19.934	0.247	0.001
10.001	107.513	80.005	19.995	103.067	19.936	0.092	-0.008
12.001	107.535	80.004	19.995	103.073	19.933	0.261	-0.021
14.000	107.509	80.004	19.995	103.064	19.933	0.271	-0.022
16.000	107.499	80.004	19.995	103.084	19.935	0.141	-0.036
18.000	107.499	80.004	19.995	103.086	19.934	0.241	-0.012
20.000	107.492	80.003	19.996	103.086	19.937	0.006	-0.010
22.000	107.513	80.004	19.995	103.093	19.934	0.239	0.015
24.000	107.528	80.005	19.995	103.098	19.935	0.181	-0.014
26.000	107.529	80.006	19.995	103.098	19.936	0.082	0.018
28.000	107.516	80.007	19.995	103.120	19.930	0.552	-0.015
30.000	107.580	80.006	19.994	103.149	19.926	0.851	0.036
32.000	107.628	80.005	19.994	103.180	19.917	1.507	0.041
34.000	107.745	80.005	19.994	103.232	19.912	1.870	0.045
36.000	107.845	80.004	19.995	103.240	19.908	2.165	0.061
38.001	108.043	80.006	19.995	103.253	19.906	2.331	0.114
40.000	108.187	80.006	19.994	103.256	19.903	2.554	0.083
42.000	108.445	80.006	19.995	103.256	19.903	2.519	0.085
44.000	108.667	80.005	19.994	103.262	19.898	2.887	0.109
46.000	108.958	80.005	19.995	103.266	19.897	2.984	0.155
48.000	109.205	80.004	19.995	103.260	19.896	3.072	0.150
50.000	109.543	80.005	19.996	103.275	19.897	2.976	0.164
52.001	109.882	80.006	19.995	103.241	19.894	3.186	0.189
54.001	110.262	80.007	19.995	103.246	19.891	3.451	0.173
56.000	110.717	80.006	19.995	103.287	19.889	3.589	0.232
58.000	111.086	80.006	19.994	103.292	19.885	3.891	0.191
60.000	111.507	80.007	19.994	103.357	19.888	3.657	0.237
62.000	112.038	80.007	19.995	103.377	19.887	3.723	0.252
64.000	112.546	80.007	19.995	103.316	19.886	3.779	0.269
66.000	113.054	80.009	19.995	103.314	19.885	3.877	0.275
68.000	113.580	80.005	19.994	103.320	19.886	3.833	0.278
70.001	114.134	80.007	19.994	103.327	19.883	3.990	0.287
72.000	114.739	80.006	19.994	103.330	19.882	4.098	0.300
74.001	115.331	80.005	19.995	103.323	19.879	4.320	0.318
76.000	115.996	80.007	19.994	103.327	19.884	3.968	0.348
78.000	116.673	80.004	19.995	103.331	19.880	4.268	0.330
80.000	117.322	80.005	19.995	103.334	19.884	3.951	0.341
82.000	117.998	80.006	19.995	103.330	19.881	4.178	0.313
84.001	118.713	80.006	19.995	103.331	19.882	4.092	0.355
86.000	119.419	80.006	19.994	103.330	19.883	4.020	0.355
88.000	120.149	80.007	19.994	103.335	19.880	4.240	0.356
90.001	120.942	80.007	19.994	103.337	19.880	4.268	0.377
92.000	121.698	80.007	19.994	103.334	19.882	4.120	0.355
94.000	122.493	80.007	19.994	103.329	19.880	4.260	0.391
96.001	123.327	80.005	19.995	103.328	19.882	4.126	0.426
98.001	124.105	80.004	19.995	103.329	19.879	4.331	0.410
100.000	124.916	80.003	19.995	103.329	19.880	4.232	0.405
102.000	125.765	80.004	19.995	103.327	19.882	4.112	0.384
104.000	126.617	80.004	19.995	103.327	19.880	4.220	0.453
106.000	127.424	80.004	19.995	103.324	19.880	4.218	0.426
108.001	128.303	80.005	19.995	103.329	19.879	4.312	0.457
110.000	129.186	80.005	19.996	103.327	19.881	4.194	0.438
112.000	130.033	80.005	19.996	103.325	19.880	4.248	0.425
114.000	130.915	80.005	19.996	103.330	19.880	4.274	0.435
116.000	131.767	80.006	19.995	103.332	19.882	4.092	0.418
118.000	132.708	80.006	19.996	103.328	19.881	4.184	0.448
120.000	133.592	80.006	19.995	103.332	19.879	4.352	0.445
122.000	134.485	80.004	19.994	103.343	19.880	4.210	0.446
124.000	135.413	80.006	19.995	103.335	19.880	4.278	0.470
126.000	136.330	80.006	19.995	103.335	19.879	4.288	0.454
128.000	137.286	80.006	19.995	103.331	19.878	4.387	0.462
130.000	138.272	80.006	19.994	103.334	19.883	4.034	0.480
132.000	139.213	80.004	19.994	103.332	19.876	4.549	0.449
134.000	140.163	80.006	19.995	103.332	19.877	4.467	0.461
136.000	141.138	80.004	19.994	103.334	19.881	4.178	0.496
138.000	142.109	80.007	19.994	103.330	19.882	4.104	0.473
140.000	143.068	80.005	19.995	103.322	19.884	3.978	0.453
142.000	144.099	80.007	19.995	103.319	19.880	4.244	0.499
144.000	145.060	80.007	19.994	103.327	19.882	4.107	0.474
146.000	146.043	80.007	19.994	103.325	19.881	4.167	0.466
148.000	147.033	80.007	19.995	103.326	19.882	4.129	0.501
150.000	148.029	80.007	19.995	103.320	19.882	4.083	0.488
152.000	149.017	80.005	19.994	103.319	19.882	4.057	0.505
154.000	150.043	80.007	19.994	103.315	19.883	4.020	0.478
156.000	150.995	80.007	19.994	103.305	19.882	4.061	0.482
158.000	152.046	80.007	19.994	103.296	19.880	4.275	0.517
160.000	153.004	80.006	19.994	103.297	19.884	3.916	0.495
162.000	153.967	80.006	19.994	103.310	19.881	4.173	0.504
164.000	155.003	80.007	19.994	103.311	19.881	4.200	0.521
166.000	155.944	80.008	19.994	103.303	19.882	4.079	0.501
168.000	156.941	80.008	19.994	103.315	19.881	4.176	0.484
170.000	157.971	80.008	19.996	103.321	19.883	4.051	0.483
172.000	158.935	80.009	19.994	103.320	19.882	4.061	0.463
174.000	159.919	80.009	19.994	103.313	19.882	4.091	0.485
176.000	160.963	80.008	19.995	103.318	19.882	4.081	0.524
178.000	161.977	80.008	19.994	103.298	19.883	4.013	0.518
180.000	162.941	80.006	19.996	103.288	19.883	4.019	0.501
182.000	163.976	80.006	19.995	103.289	19.888	3.664	0.524
184.000	164.986	80.006	19.995	103.293	19.883	3.991	0.493
186.000	165.959	80.007	19.997	103.292	19.882	4.087	0.497
188.000	166.990	80.005	19.995	103.292	19.883	4.039	0.497
190.000	168.008	80.006	19.995	103.293	19.882	4.075	0.503
192.000	169.006	80.004	19.994	103.291	19.881	4.154	0.498
194.000	170.050	80.005	19.996	103.295	19.885	3.879	0.515
196.000	171.044	80.006	19.995	103.296	19.881	4.180	0.530
198.000	172.060	80.004	19.995	103.296	19.885	3.847	0.514
200.000	173.051	80.004	19.996	103.292	19.886	3.775	0.498
202.000	174.046	80.005	19.995	103.292	19.888	3.636	0.477
204.000	175.063	80.004	19.996	103.291	19.889	3.590	0.507
206.000	176.078	80.004	19.995	103.291	19.887	3.695	0.513
208.000	177.084	80.004	19.996	103.292	19.890	3.485	0.504
210.000	178.132	80.004	19.995	103.288	19.890	3.527	0.510
212.000	179.150	80.004	19.996	103.287	19.888	3.625	0.508
214.000	180.160	80.002	19.994	103.286	19.890	3.512	0.500
216.000	181.150	80.004	19.995	103.282	19.889	3.604	0.492
218.000	182.185	80.004	19.994	103.258	19.889	3.550	0.487
220.000	183.140	80.006	19.994	103.261	19.886	3.769	0.485
222.000	184.141	80.004	19.994	103.268	19.888	3.661	0.510
224.000	185.123	80.005	19.994	103.280	19.888	3.647	0.488
226.000	186.138	80.006	19.995	103.279	19.889	3.552	0.496
228.000	187.119	80.008	19.995	103.285	19.885	3.849	0.504
230.000	188.112	80.007	19.995	103.282	19.888	3.673	0.511
232.000	189.050	80.007	19.994	103.269	19.887	3.693	0.487
234.000	190.016	80.006	19.994	103.262	19.888	3.637	0.475
236.000	191.038	80.007	19.994	103.286	19.889	3.578	0.489
238.000	192.006	80.006	19.994	103.281	19.888	3.641	0.478
240.000	192.970	80.007	19.995	103.278	19.889	3.558	0.503
242.000	193.930	80.007	19.996	103.269	19.887	3.701	0.447
244.000	194.912	80.007	19.995	103.260	19.887	3.753	0.486
246.000	195.896	80.007	19.994	103.283	19.884	3.968	0.498
248.000	196.881	80.007	19.994	103.279	19.886	3.765	0.484
250.000	197.851	80.008	19.994	103.277	19.882	4.088	0.499
252.000	198.847	80.009	19.994	103.276	19.880	4.267	0.482
254.000	199.798	80.008	19.994	103.269	19.880	4.213	0.470
256.000	200.752	80.008	19.993	103.264	19.881	4.134	0.474
258.000	201.757	80.007	19.994	103.277	19.881	4.141	0.477
260.000	202.692	80.008	19.994	103.270	19.881	4.173	0.470
262.000	203.680	80.008	19.995	103.281	19.878	4.363	0.486
264.000	204.617	80.005	19.994	103.277	19.879	4.295	0.458
266.000	205.597	80.006	19.994	103.271	19.880	4.218	0.464
268.000	206.590	80.005	19.995	103.272	19.874	4.712	0.506
270.000	207.618	80.004	19.995	103.264	19.873	4.772	0.495
272.000	208.564	80.005	19.996	103.275	19.872	4.832	0.475
274.000	209.553	80.004	19.995	103.278	19.872	4.808	0.490
276.000	210.518	80.004	19.996	103.271	19.877	4.443	0.487
278.000	211.506	80.003	19.995	103.281	19.873	4.774	0.470
280.000	212.455	80.006	19.996	103.283	19.871	4.922	0.459
282.000	213.448	80.007	19.995	103.277	19.871	4.910	0.493
284.000	214.407	80.006	19.994	103.272	19.868	5.165	0.477
286.000	215.406	80.006	19.994	103.267	19.866	5.277	0.481
288.000	216.356	80.006	19.996	103.273	19.865	5.395	0.462
290.000	217.378	80.006	19.997	103.274	19.865	5.342	0.482
292.000	218.393	80.005	19.996	103.282	19.863	5.506	0.487
294.000	219.364	80.005	19.995	103.287	19.865	5.330	0.497
296.000	220.356	80.005	19.996	103.285	19.861	5.638	0.510
298.000	221.357	80.005	19.996	103.287	19.861	5.668	0.489
300.000	222.367	80.005	19.996	103.279	19.855	6.099	0.516
302.000	223.319	80.005	19.996	103.280	19.855	6.104	0.501
304.000	224.361	80.006	19.995	103.271	19.851	6.370	0.476
306.000	225.360	80.006	19.997	103.268	19.853	6.266	0.486
308.000	226.342	80.004	19.996	103.284	19.852	6.327	0.486
310.000	227.326	80.006	19.995	103.284	19.850	6.491	0.511
312.000	228.330	80.007	19.995	103.282	19.848	6.595	0.484
314.000	229.321	80.009	19.994	103.277	19.848	6.607	0.492
316.000	230.366	80.008	19.995	103.284	19.844	6.932	0.532
318.000	231.336	80.007	19.994	103.280	19.844	6.924	0.488
320.001	232.337	80.006	19.995	103.273	19.838	7.347	0.492
322.000	233.303	80.007	19.996	103.274	19.835	7.565	0.470
324.000	234.329	80.005	19.994	103.279	19.837	7.414	0.501
326.000	235.323	80.006	19.994	103.282	19.836	7.539	0.511
328.000	236.338	80.006	19.995	103.277	19.832	7.832	0.496
330.000	237.341	80.008	19.994	103.280	19.833	7.744	0.526
332.000	238.317	80.007	19.994	103.284	19.828	8.133	0.508
334.000	239.267	80.006	19.995	103.281	19.825	8.326	0.480
336.000	240.304	80.007	19.994	103.284	19.822	8.596	0.483
338.000	241.280	80.006	19.994	103.287	19.821	8.646	0.469
340.000	242.295	80.007	19.994	103.282	19.818	8.836	0.520
342.000	243.226	80.008	19.994	103.282	19.816	9.041	0.482
344.000	244.264	80.007	19.996	103.285	19.815	9.061	0.468
346.000	245.259	80.008	19.994	103.285	19.808	9.633	0.508
348.000	246.241	80.005	19.994	103.287	19.806	9.735	0.496
350.000	247.223	80.005	19.996	103.291	19.802	10.018	0.478
352.000	248.182	80.005	19.995	103.294	19.794	10.650	0.513
354.000	249.155	80.007	19.995	103.292	19.794	10.624	0.419
356.000	250.279	80.005	19.994	103.288	19.794	10.621	0.494
358.000	251.307	80.006	19.994	103.290	19.785	11.348	0.481
360.000	252.195	80.005	19.995	103.288	19.780	11.683	0.499
362.000	253.279	80.006	19.995	103.288	19.774	12.136	0.553
364.000	253.978	80.003	19.994	103.286	19.772	12.317	0.535
366.000	255.168	80.005	19.996	103.279	19.770	12.396	0.544
368.000	256.101	80.005	19.995	103.279	19.762	12.997	0.427
370.000	257.137	80.004	19.997	103.287	19.757	13.392	0.444
372.000	258.053	80.004	19.995	103.291	19.747	14.153	0.524
374.000	259.027	80.004	19.995	103.292	19.742	14.542	0.482
376.000	260.017	80.004	19.997	103.299	19.736	14.947	0.456
378.000	260.962	80.006	19.996	103.301	19.729	15.488	0.453
380.000	262.011	80.004	19.995	103.302	19.723	15.917	0.495
382.000	262.969	80.005	19.997	103.313	19.717	16.382	0.533
384.001	263.982	80.004	19.995	103.323	19.709	16.959	0.500
386.000	264.932	80.005	19.995	103.326	19.699	17.724	0.486
388.000	265.898	80.005	19.994	103.326	19.694	18.059	0.446
390.000	266.915	80.003	19.995	103.325	19.686	18.685	0.497
392.000	267.910	80.005	19.995	103.329	19.681	19.061	0.491
394.000	268.921	80.007	19.996	103.329	19.670	19.881	0.512
396.000	269.905	80.009	19.997	103.330	19.661	20.576	0.511
398.000	270.916	80.005	19.995	103.332	19.653	21.147	0.521
400.000	271.925	80.007	19.997	103.334	19.645	21.727	0.519
402.000	272.943	80.004	19.996	103.350	19.636	22.385	0.525
404.000	273.927	80.007	19.996	103.341	19.633	22.641	0.536
406.000	274.950	80.006	19.996	103.345	19.619	23.673	0.513
408.000	275.944	80.008	19.995	103.362	19.612	24.203	0.492
410.000	276.928	80.006	19.995	103.349	19.607	24.598	0.489
412.000	277.977	80.005	19.994	103.343	19.594	25.513	0.504
414.000	278.977	80.006	19.995	103.367	19.583	26.397	0.499
416.000	279.989	80.006	19.994	103.371	19.573	27.091	0.488
418.000	280.977	80.007	19.994	103.366	19.563	27.861	0.508
420.000	281.977	80.007	19.994	103.369	19.552	28.710	0.474
422.000	282.981	80.007	19.993	103.368	19.541	29.481	0.505
424.000	283.960	80.008	19.994	103.364	19.533	30.092	0.497
426.000	284.974	80.008	19.995	103.366	19.525	30.719	0.490
428.000	285.986	80.007	19.995	103.368	19.517	31.303	0.492
430.000	286.965	80.006	19.995	103.371	19.508	31.966	0.508
432.000	287.952	80.006	19.995	103.373	19.498	32.732	0.481
434.000	288.914	80.006	19.995	103.369	19.490	33.293	0.470
436.000	289.902	80.007	19.994	103.367	19.482	33.912	0.477
438.000	290.913	80.006	19.993	103.377	19.477	34.280	0.495
440.000	291.893	80.005	19.996	103.384	19.462	35.377	0.480
442.000	292.870	80.005	19.995	103.384	19.462	35.406	0.487
444.000	293.834	80.008	19.994	103.391	19.448	36.403	0.477
446.000	294.863	80.004	19.994	103.396	19.441	36.952	0.494
448.000	295.818	80.005	19.995	103.395	19.435	37.397	0.500
450.000	296.798	80.007	19.994	103.401	19.426	38.077	0.477
452.000	297.788	80.006	19.995	103.406	19.419	38.599	0.489
454.000	298.807	80.004	19.994	103.406	19.416	38.841	0.473
456.000	299.811	80.005	19.995	103.406	19.405	39.615	0.512
458.000	300.767	80.005	19.995	103.408	19.401	39.958	0.486
460.000	301.788	80.005	19.995	103.403	19.396	40.274	0.486
462.000	302.757	80.006	19.995	103.398	19.386	41.028	0.520
464.000	303.735	80.005	19.995	103.411	19.378	41.650	0.481
466.000	304.695	80.008	19.996	103.407	19.376	41.775	0.469
468.000	305.730	80.003	19.995	103.404	19.373	42.028	0.504
470.000	306.712	80.005	19.995	103.409	19.362	42.830	0.491
472.000	307.677	80.005	19.995	103.410	19.358	43.178	0.489
474.000	308.658	80.006	19.994	103.408	19.353	43.536	0.509
476.000	309.608	80.006	19.995	103.413	19.347	43.993	0.468
478.000	310.623	80.007	19.994	103.409	19.343	44.285	0.522
480.000	311.593	80.006	19.994	103.413	19.331	45.125	0.496
482.000	312.631	80.005	19.994	103.413	19.329	45.286	0.511
484.000	313.599	80.005	19.994	103.409	19.324	45.663	0.481
486.000	314.586	80.006	19.995	103.409	19.318	46.163	0.500
488.000	315.588	80.004	19.995	103.411	19.311	46.639	0.523
490.000	316.535	80.005	19.995	103.423	19.300	47.499	0.453
492.000	317.568	80.004	19.996	103.426	19.294	47.943	0.507
494.000	318.492	80.004	19.996	103.441	19.289	48.305	0.469
496.000	319.498	80.006	19.995	103.443	19.279	49.027	0.466
498.000	320.504	80.006	19.995	103.440	19.271	49.680	0.511
500.000	321.516	80.007	19.994	103.442	19.258	50.628	0.498
502.000	322.495	80.007	19.995	103.443	19.252	51.089	0.504
504.000	323.485	80.008	19.995	103.443	19.241	51.866	0.456
506.000	324.514	80.007	19.994	103.453	19.231	52.666	0.507
508.000	325.520	80.009	19.995	103.456	19.219	53.502	0.490
510.000	326.533	80.007	19.993	103.458	19.208	54.328	0.511
512.001	327.515	80.006	19.994	103.450	19.199	55.058	0.465
514.000	328.551	80.006	19.994	103.458	19.187	55.931	0.501
516.000	329.590	80.006	19.995	103.477	19.170	57.185	0.524
518.000	330.595	80.005	19.995	103.480	19.160	57.969	0.485
520.000	331.594	80.004	19.994	103.484	19.146	59.014	0.504
522.000	332.599	80.004	19.996	103.484	19.131	60.098	0.500
524.000	333.609	80.005	19.995	103.485	19.122	60.789	0.504
526.000	334.625	80.005	19.994	103.486	19.104	62.092	0.516
528.000	335.658	80.004	19.995	103.488	19.092	63.039	0.490
530.000	336.584	80.007	19.994	103.493	19.074	64.359	0.481
532.000	337.627	80.008	19.994	103.497	19.061	65.345	0.508
534.000	338.601	80.007	19.994	103.509	19.051	66.129	0.491
536.000	339.610	80.006	19.995	103.504	19.031	67.577	0.524
538.000	340.610	80.009	19.995	103.510	19.022	68.252	0.520
540.000	341.606	80.005	19.994	103.521	19.011	69.063	0.499
542.000	342.573	80.006	19.995	103.525	18.997	70.112	0.500
544.000	343.599	80.006	19.994	103.529	18.988	70.769	0.511
546.000	344.545	80.003	19.993	103.528	18.975	71.763	0.482
548.000	345.577	80.006	19.994	103.530	18.965	72.503	0.507
550.000	346.535	80.005	19.994	103.527	18.954	73.364	0.483
552.000	347.564	80.005	19.995	103.526	18.943	74.116	0.499
554.000	348.521	80.003	19.996	103.524	18.937	74.593	0.511
556.000	349.539	80.006	19.995	103.524	18.937	74.571	0.480
558.000	350.556	80.005	19.995	103.526	18.937	74.606	0.481
560.000	351.595	80.008	19.996	103.530	18.931	74.977	0.511
562.000	352.619	80.008	19.994	103.521	18.931	75.002	0.496
564.000	353.641	80.008	19.996	103.521	18.935	74.697	0.553
566.000	354.626	80.008	19.995	103.511	18.945	73.959	0.489
568.000	355.672	80.005	19.994	103.503	18.951	73.467	0.494
570.000	356.727	80.008	19.995	103.483	18.955	73.153	0.524
572.000	357.736	80.009	19.994	103.482	18.971	71.940	0.501
574.000	358.745	80.005	19.993	103.470	18.987	70.766	0.502
576.000	359.759	80.005	19.995	103.447	19.004	69.509	0.528
578.000	360.826	80.008	19.995	103.445	19.025	67.901	0.517
580.000	361.828	80.007	19.995	103.439	19.049	66.097	0.538
582.000	362.826	80.007	19.995	103.410	19.077	64.029	0.495
584.000	363.821	80.008	19.995	103.388	19.108	61.685	0.518
586.000	364.827	80.009	19.996	103.366	19.142	59.144	0.496
588.000	365.869	80.007	19.995	103.361	19.171	57.012	0.497
590.000	366.903	80.007	19.996	103.355	19.205	54.491	0.511
592.000	367.959	80.007	19.996	103.333	19.249	51.206	0.537
594.000	368.965	80.008	19.995	103.320	19.283	48.670	0.531
596.000	369.987	80.008	19.994	103.297	19.327	45.408	0.518
598.000	371.021	80.004	19.996	103.293	19.365	42.522	0.503
600.000	372.104	80.005	19.996	103.263	19.410	39.219	0.510
602.000	373.153	80.006	19.994	103.255	19.449	36.281	0.533
604.000	374.176	80.008	19.993	103.254	19.486	33.548	0.507
606.000	375.269	80.006	19.994	103.247	19.525	30.654	0.516
608.000	376.322	80.005	19.994	103.236	19.565	27.687	0.535
610.000	377.374	80.005	19.994	103.226	19.596	25.335	0.551
612.000	378.445	80.008	19.995	103.222	19.623	23.321	0.507
614.000	379.550	80.007	19.995	103.218	19.654	21.081	0.551
616.000	380.603	80.005	19.994	103.224	19.681	19.033	0.548
618.000	381.707	80.006	19.993	103.213	19.696	17.907	0.540
620.000	382.744	80.006	19.994	103.211	19.716	16.400	0.529
622.000	383.818	80.007	19.995	103.207	19.732	15.249	0.524
624.000	384.881	80.006	19.995	103.212	19.746	14.167	0.559
626.000	385.917	80.006	19.994	103.209	19.755	13.561	0.505
628.000	386.945	80.005	19.995	103.206	19.766	12.680	0.528
630.000	388.089	80.002	19.993	103.210	19.770	12.411	0.576
632.000	389.067	80.006	19.995	103.212	19.781	11.608	0.498
634.000	390.107	80.006	19.995	103.200	19.786	11.237	0.505
636.000	391.170	80.006	19.993	103.194	19.792	10.813	0.510
638.000	392.222	80.006	19.994	103.208	19.794	10.664	0.522
640.000	393.247	80.006	19.994	103.207	19.795	10.524	0.519
642.000	394.301	80.008	19.994	103.203	19.803	9.994	0.526
644.000	395.348	80.007	19.994	103.202	19.804	9.920	0.524
646.000	396.375	80.006	19.995	103.204	19.808	9.575	0.511
648.000	397.397	80.007	19.993	103.207	19.814	9.175	0.539
650.000	398.413	80.007	19.994	103.211	19.810	9.428	0.534
652.000	399.423	80.006	19.994	103.205	19.813	9.193	0.513
654.000	400.487	80.007	19.994	103.202	19.814	9.139	0.533
656.000	401.478	80.007	19.995	103.207	19.813	9.201	0.526
658.000	402.503	80.007	19.996	103.205	19.815	9.051	0.503
660.000	403.540	80.007	19.996	103.212	19.821	8.641	0.533
662.000	404.498	80.007	19.995	103.204	19.822	8.587	0.474
664.000	405.538	80.006	19.994	103.205	19.824	8.378	0.519
666.000	406.547	80.007	19.994	103.211	19.824	8.385	0.493
668.000	407.543	80.006	19.994	103.206	19.829	8.004	0.494
670.000	408.533	80.009	19.994	103.187	19.829	8.063	0.482
672.001	409.559	80.008	19.994	103.182	19.829	8.001	0.528
674.000	410.617	80.009	19.994	103.190	19.830	7.974	0.527
676.000	411.592	80.009	19.994	103.190	19.830	7.928	0.481
678.000	412.519	80.007	19.994	103.201	19.834	7.676	0.443
680.000	413.550	80.007	19.995	103.197	19.835	7.605	0.488
682.000	414.474	80.006	19.996	103.206	19.837	7.460	0.473
684.000	415.471	80.006	19.996	103.198	19.835	7.567	0.518
686.000	416.444	80.005	19.995	103.186	19.842	7.049	0.483
688.000	417.434	80.006	19.997	103.190	19.839	7.253	0.506
690.000	418.411	80.006	19.996	103.183	19.840	7.184	0.488
692.000	419.431	80.006	19.996	103.191	19.837	7.427	0.511
694.000	420.342	80.006	19.995	103.185	19.842	7.088	0.476
696.000	421.346	80.004	19.995	103.174	19.844	6.883	0.486
698.000	422.302	80.006	19.994	103.196	19.845	6.833	0.491
700.000	423.252	80.006	19.995	103.182	19.844	6.918	0.475
702.000	424.167	80.006	19.994	103.197	19.848	6.611	0.470
704.000	425.182	80.007	19.995	103.201	19.849	6.562	0.467
706.000	426.188	80.006	19.995	103.207	19.844	6.890	0.504
708.000	427.149	80.006	19.994	103.202	19.847	6.670	0.518
710.000	428.142	80.007	19.994	103.191	19.850	6.503	0.529
712.000	429.159	80.006	19.994	103.196	19.850	6.496	0.470
714.000	430.206	80.007	19.995	103.195	19.844	6.889	0.543
716.000	431.192	80.007	19.996	103.193	19.856	6.010	0.523
718.000	432.264	80.006	19.994	103.198	19.852	6.345	0.533
720.000	433.257	80.005	19.994	103.199	19.856	6.006	0.517
722.000	434.318	80.005	19.994	103.189	19.859	5.811	0.547
724.000	435.341	80.007	19.995	103.206	19.859	5.822	0.500
726.000	436.387	80.007	19.994	103.200	19.863	5.474	0.499
728.000	437.438	80.009	19.993	103.201	19.863	5.533	0.517
730.000	438.474	80.008	19.995	103.204	19.864	5.405	0.533
732.000	439.499	80.008	19.994	103.208	19.864	5.410	0.493
734.000	440.571	80.008	19.994	103.191	19.861	5.641	0.542
736.000	441.581	80.007	19.994	103.199	19.866	5.274	0.506
738.000	442.646	80.006	19.992	103.196	19.863	5.503	0.493
740.000	443.703	80.008	19.994	103.189	19.866	5.304	0.497
742.000	444.719	80.006	19.994	103.196	19.866	5.294	0.542
744.000	445.797	80.006	19.993	103.212	19.867	5.204	0.541
746.000	446.838	80.006	19.994	103.189	19.870	4.971	0.511
748.000	447.858	80.008	19.994	103.186	19.868	5.148	0.490
750.000	448.918	80.008	19.995	103.178	19.867	5.198	0.513
752.000	449.947	80.008	19.994	103.187	19.871	4.941	0.530
754.001	450.984	80.008	19.997	103.173	19.871	4.943	0.511
756.000	452.048	80.009	19.996	103.176	19.869	5.042	0.529
758.000	453.061	80.009	19.995	103.177	19.868	5.126	0.507
760.000	454.087	80.009	19.996	103.172	19.869	5.083	0.508
762.000	455.089	80.007	19.994	103.178	19.873	4.793	0.475
764.000	456.145	80.006	19.994	103.185	19.874	4.676	0.501
766.000	457.150	80.005	19.994	103.174	19.871	4.930	0.509
768.000	458.174	80.005	19.995	103.174	19.871	4.891	0.537
770.000	459.189	80.005	19.994	103.187	19.870	5.003	0.523
772.000	460.167	80.005	19.995	103.175	19.874	4.674	0.480
774.000	461.237	80.006	19.994	103.181	19.872	4.866	0.544
776.001	462.263	80.006	19.995	103.197	19.877	4.467	0.514
778.000	463.264	80.006	19.995	103.183	19.877	4.479	0.512
780.000	464.288	80.005	19.995	103.173	19.877	4.485	0.481
782.000	465.281	80.005	19.995	103.182	19.878	4.406	0.480
784.000	466.308	80.006	19.996	103.190	19.876	4.527	0.492
786.000	467.315	80.005	19.996	103.186	19.874	4.716	0.504
788.000	468.381	80.006	19.996	103.190	19.872	4.826	0.510
790.000	469.379	80.006	19.995	103.175	19.876	4.545	0.520
792.000	470.435	80.004	19.995	103.191	19.875	4.606	0.518
794.000	471.416	80.006	19.995	103.211	19.877	4.430	0.500
796.000	472.457	80.006	19.994	103.195	19.872	4.800	0.507
798.001	473.514	80.005	19.994	103.204	19.877	4.475	0.530
800.000	474.551	80.004	19.994	103.192	19.876	4.531	0.541
802.000	475.588	80.005	19.994	103.182	19.880	4.264	0.507
804.000	476.622	80.006	19.995	103.197	19.874	4.679	0.515
806.000	477.716	80.007	19.994	103.193	19.878	4.418	0.534
808.000	478.754	80.005	19.993	103.186	19.874	4.682	0.530
810.000	479.805	80.006	19.993	103.189	19.879	4.300	0.535
812.000	480.849	80.005	19.994	103.190	19.882	4.076	0.514
814.000	481.879	80.009	19.995	103.197	19.883	4.046	0.531
816.000	482.955	80.007	19.995	103.199	19.880	4.206	0.529
818.000	484.033	80.006	19.993	103.188	19.883	4.031	0.539
820.000	485.054	80.007	19.994	103.183	19.880	4.236	0.534
822.000	486.095	80.006	19.994	103.182	19.880	4.241	0.568
824.000	487.155	80.007	19.996	103.177	19.880	4.250	0.533
826.000	488.222	80.007	19.995	103.175	19.886	3.815	0.522
828.000	489.262	80.007	19.994	103.179	19.882	4.056	0.525
830.000	490.308	80.008	19.994	103.180	19.884	3.911	0.505
832.000	491.382	80.007	19.994	103.176	19.885	3.857	0.545
834.000	492.392	80.007	19.993	103.180	19.881	4.142	0.530
836.000	493.443	80.010	19.994	103.177	19.880	4.201	0.526
838.000	494.536	80.008	19.995	103.176	19.886	3.785	0.538
840.000	495.553	80.009	19.994	103.176	19.882	4.120	0.492
842.001	496.576	80.009	19.994	103.172	19.887	3.729	0.511
844.000	497.588	80.009	19.996	103.172	19.884	3.911	0.507
846.000	498.635	80.007	19.996	103.171	19.881	4.176	0.533
848.000	499.632	80.008	19.995	103.172	19.884	3.970	0.497
850.000	500.661	80.007	19.995	103.172	19.880	4.243	0.513
852.000	501.714	80.005	19.995	103.172	19.885	3.847	0.522
854.000	502.693	80.007	19.995	103.175	19.880	4.209	0.490
856.000	503.717	80.007	19.995	103.175	19.879	4.323	0.515
858.000	504.714	80.006	19.994	103.175	19.884	3.907	0.498
860.000	505.712	80.009	19.997	103.174	19.885	3.887	0.508
862.000	506.743	80.006	19.994	103.178	19.883	4.032	0.490
864.000	507.697	80.007	19.995	103.174	19.882	4.080	0.476
866.000	508.718	80.007	19.995	103.172	19.882	4.114	0.486
868.001	509.698	80.006	19.993	103.174	19.882	4.108	0.487
870.000	510.645	80.005	19.994	103.174	19.881	4.168	0.466
872.000	511.651	80.006	19.996	103.172	19.884	3.938	0.481
874.000	512.649	80.006	19.995	103.176	19.885	3.884	0.474
876.000	513.586	80.006	19.996	103.168	19.881	4.152	0.485
878.000	514.595	80.005	19.995	103.165	19.886	3.767	0.495
880.000	515.586	80.005	19.996	103.169	19.877	4.439	0.502
882.000	516.561	80.005	19.995	103.173	19.886	3.805	0.493
884.000	517.569	80.005	19.996	103.166	19.885	3.889	0.492
886.000	518.532	80.006	19.996	103.171	19.891	3.436	0.457
888.000	519.539	80.006	19.995	103.169	19.887	3.699	0.513
890.000	520.525	80.004	19.995	103.177	19.885	3.829	0.505
892.001	521.493	80.005	19.994	103.173	19.888	3.630	0.493
894.000	522.428	80.007	19.995	103.171	19.888	3.664	0.459
896.000	523.489	80.007	19.995	103.173	19.888	3.632	0.505
898.000	524.448	80.007	19.994	103.172	19.890	3.500	0.471
900.000	525.401	80.009	19.995	103.170	19.883	4.022	0.488
902.000	526.444	80.008	19.994	103.169	19.886	3.759	0.503
904.000	527.403	80.007	19.994	103.172	19.889	3.568	0.496
906.000	528.392	80.006	19.995	103.172	19.886	3.799	0.472
908.001	529.395	80.008	19.995	103.172	19.881	4.148	0.490
910.000	530.422	80.007	19.994	103.171	19.889	3.598	0.467
912.000	531.455	80.006	19.994	103.170	19.885	3.831	0.514
914.000	532.434	80.007	19.994	103.172	19.883	3.992	0.487
916.000	533.475	80.005	19.994	103.172	19.885	3.831	0.521
918.000	534.497	80.008	19.995	103.174	19.883	3.994	0.512
920.000	535.528	80.008	19.994	103.176	19.885	3.855	0.513
922.000	536.513	80.008	19.993	103.173	19.881	4.140	0.507
924.000	537.590	80.009	19.994	103.171	19.883	4.028	0.549
926.000	538.588	80.008	19.993	103.172	19.886	3.811	0.526
928.000	539.600	80.008	19.993	103.173	19.886	3.815	0.513
930.000	540.660	80.008	19.995	103.175	19.883	4.038	0.517
932.000	541.670	80.005	19.993	103.175	19.883	4.047	0.531
934.000	542.766	80.006	19.994	103.175	19.881	4.166	0.558
936.000	543.845	80.005	19.994	103.176	19.884	3.939	0.513
938.000	544.909	80.005	19.994	103.176	19.882	4.126	0.546
940.000	546.006	80.003	19.994	103.176	19.882	4.090	0.569
942.000	547.112	80.006	19.994	103.186	19.886	3.763	0.541
944.000	548.208	80.006	19.996	103.182	19.883	4.026	0.572
946.000	549.285	80.006	19.996	103.174	19.881	4.154	0.534
948.000	550.373	80.006	19.994	103.178	19.884	3.952	0.545
950.001	551.513	80.006	19.997	103.181	19.885	3.851	0.566
952.000	552.636	80.006	19.996	103.174	19.886	3.779	0.541
954.000	553.681	80.007	19.996	103.170	19.887	3.739	0.525
956.000	554.899	80.006	19.996	103.171	19.887	3.725	0.584
958.000	556.030	80.005	19.994	103.171	19.887	3.725	0.562
960.000	557.132	80.007	19.995	103.172	19.883	4.006	0.564
962.000	558.266	80.004	19.993	103.172	19.887	3.691	0.547
964.000	559.398	80.004	19.996	103.170	19.881	4.136	0.575
966.000	560.525	80.006	19.996	103.172	19.885	3.879	0.572
968.000	561.662	80.006	19.996	103.171	19.878	4.389	0.590
970.000	562.765	80.005	19.996	103.170	19.879	4.293	0.541
972.000	563.873	80.006	19.996	103.170	19.883	4.018	0.572
974.000	564.958	80.004	19.996	103.175	19.884	3.931	0.539
976.000	566.050	80.006	19.997	103.174	19.886	3.801	0.566
978.000	567.184	80.006	19.996	103.171	19.886	3.783	0.552
980.000	568.276	80.007	19.994	103.170	19.883	4.042	0.560
982.000	569.385	80.007	19.995	103.166	19.883	4.044	0.550
984.000	570.498	80.007	19.994	103.168	19.886	3.769	0.596
986.000	571.544	80.007	19.994	103.173	19.887	3.683	0.519
988.000	572.647	80.006	19.995	103.171	19.885	3.861	0.548
990.000	573.738	80.007	19.993	103.172	19.885	3.889	0.530
992.000	574.901	80.006	19.994	103.168	19.885	3.869	0.576
994.000	575.958	80.007	19.994	103.173	19.878	4.389	0.513
996.000	577.065	80.006	19.994	103.172	19.880	4.219	0.550
998.000	578.114	80.006	19.995	103.175	19.880	4.221	0.552
1000.000	579.235	80.009	19.995	103.173	19.883	3.984	0.552
1002.000	580.293	80.009	19.994	103.175	19.886	3.797	0.535
1004.000	581.413	80.009	19.994	103.170	19.883	4.046	0.567
1006.000	582.465	80.010	19.997	103.172	19.886	3.801	0.564
1008.000	583.486	80.008	19.994	103.175	19.881	4.187	0.517
1010.000	584.572	80.009	19.996	103.173	19.883	4.004	0.543
1012.000	585.600	80.008	19.996	103.172	19.884	3.974	0.519
1014.000	586.641	80.008	19.994	103.169	19.887	3.709	0.524
1016.000	587.693	80.006	19.995	103.169	19.885	3.858	0.501
1018.000	588.747	80.007	19.993	103.167	19.887	3.729	0.518
1020.000	589.802	80.006	19.994	103.166	19.888	3.679	0.540
1022.000	590.838	80.005	19.994	103.166	19.890	3.476	0.518
1024.000	591.817	80.006	19.995	103.164	19.885	3.846	0.493
1026.001	592.809	80.007	19.993	103.161	19.885	3.888	0.491
1028.000	593.860	80.007	19.994	103.153	19.882	4.067	0.526
1030.000	594.838	80.006	19.994	103.169	19.882	4.097	0.480
1032.000	595.854	80.005	19.994	103.160	19.885	3.894	0.477
1034.000	596.803	80.006	19.995	103.157	19.884	3.948	0.481
1036.001	597.813	80.006	19.995	103.151	19.884	3.966	0.484
1038.001	598.748	80.007	19.995	103.156	19.882	4.077	0.489
1040.000	599.687	80.007	19.995	103.143	19.885	3.870	0.449
1042.001	600.674	80.006	19.995	103.152	19.883	4.006	0.490
1044.000	601.620	80.006	19.995	103.160	19.881	4.165	0.489
1046.001	602.526	80.005	19.994	103.165	19.883	3.996	0.470
1048.000	603.481	80.005	19.995	103.158	19.880	4.269	0.488
1050.001	604.396	80.006	19.995	103.159	19.883	4.018	0.471
1052.000	605.358	80.005	19.995	103.156	19.879	4.277	0.453
1054.001	606.319	80.005	19.996	103.154	19.881	4.135	0.476
1056.001	607.208	80.006	19.995	103.164	19.887	3.715	0.433
1058.000	608.184	80.005	19.995	103.158	19.883	3.982	0.492
1060.000	609.084	80.007	19.995	103.158	19.884	3.908	0.442
1062.001	609.987	80.006	19.993	103.156	19.885	3.831	0.431
1064.000	610.935	80.007	19.995	103.170	19.883	4.002	0.463
1066.000	611.884	80.007	19.995	103.163	19.889	3.566	0.464
1068.000	612.795	80.006	19.994	103.168	19.883	4.000	0.458
1070.000	613.707	80.007	19.996	103.169	19.884	3.966	0.438
1072.000	614.638	80.006	19.996	103.164	19.887	3.733	0.473
1074.000	615.565	80.006	19.996	103.168	19.885	3.845	0.458
1076.000	616.504	80.006	19.995	103.168	19.884	3.942	0.454
1078.000	617.389	80.007	19.995	103.173	19.888	3.662	0.426
1080.000	618.295	80.007	19.995	103.170	19.892	3.355	0.478
1082.001	619.261	80.007	19.994	103.161	19.881	4.177	0.488
1084.000	620.167	80.007	19.995	103.168	19.880	4.207	0.459
1086.000	621.126	80.007	19.995	103.171	19.884	3.922	0.494
1088.001	622.040	80.009	19.995	103.172	19.879	4.329	0.466
1090.000	623.040	80.007	19.995	103.172	19.885	3.859	0.494
1092.000	624.047	80.009	19.993	103.169	19.883	4.000	0.573
1094.001	625.021	80.009	19.995	103.170	19.879	4.345	0.499
1096.000	626.011	80.008	19.994	103.170	19.882	4.084	0.511
1098.000	627.001	80.007	19.993	103.170	19.878	4.377	0.500
1100.001	628.020	80.005	19.996	103.170	19.881	4.183	0.505
1102.000	629.035	80.006	19.994	103.171	19.877	4.466	0.513
1104.000	630.132	80.006	19.994	103.170	19.881	4.196	0.538
1106.000	631.159	80.005	19.995	103.171	19.879	4.317	0.536
1108.000	632.217	80.006	19.996	103.172	19.879	4.339	0.528
1110.001	633.245	80.004	19.994	103.172	19.883	3.992	0.536
1112.000	634.357	80.006	19.994	103.170	19.884	3.909	0.572
1114.000	635.422	80.006	19.994	103.173	19.880	4.265	0.539
1116.000	636.430	80.006	19.995	103.174	19.882	4.120	0.489
1118.000	637.550	80.005	19.994	103.174	19.885	3.890	0.522
1120.000	638.603	80.006	19.993	103.176	19.881	4.148	0.555
1122.000	639.662	80.006	19.993	103.171	19.885	3.849	0.500
1124.000	640.731	80.006	19.994	103.172	19.879	4.275	0.552
1126.000	641.774	80.006	19.993	103.171	19.882	4.092	0.500
1128.000	642.824	80.007	19.995	103.171	19.881	4.135	0.537
1130.001	643.846	80.004	19.995	103.170	19.886	3.781	0.515
1132.000	644.908	80.005	19.996	103.177	19.883	3.986	0.511
1134.000	645.928	80.004	19.995	103.159	19.879	4.303	0.504
1136.000	646.968	80.004	19.995	103.172	19.884	3.955	0.504
1138.000	648.014	80.004	19.996	103.171	19.884	3.928	0.510
1140.000	649.032	80.006	19.996	103.159	19.884	3.938	0.519
1142.000	650.044	80.007	19.995	103.167	19.883	4.044	0.490
1144.001	651.085	80.010	19.995	103.170	19.878	4.366	0.510
1146.000	652.039	80.008	19.994	103.158	19.879	4.303	0.513
1148.000	653.076	80.008	19.995	103.152	19.885	3.863	0.514
1150.000	654.068	80.008	19.995	103.168	19.883	4.038	0.542
1152.000	655.067	80.009	19.995	103.161	19.883	4.032	0.485
1154.000	656.075	80.007	19.995	103.163	19.882	4.120	0.512
1156.001	657.031	80.008	19.995	103.170	19.882	4.073	0.496
1158.000	658.117	80.007	19.996	103.172	19.883	3.994	0.495
1160.000	659.136	80.006	19.995	103.170	19.878	4.365	0.535
1162.000	660.231	80.007	19.996	103.170	19.883	3.980	0.558
1164.000	661.293	80.008	19.996	103.171	19.881	4.146	0.508
1166.000	662.309	80.006	19.995	103.161	19.881	4.128	0.497
1168.000	663.410	80.009	19.996	103.169	19.882	4.120	0.523
1170.001	664.470	80.008	19.995	103.168	19.880	4.273	0.527
1172.000	665.572	80.008	19.995	103.166	19.877	4.438	0.565
1174.000	666.651	80.009	19.995	103.168	19.878	4.423	0.518
1176.000	667.706	80.009	19.994	103.167	19.878	4.408	0.518
1178.000	668.767	80.008	19.995	103.182	19.880	4.207	0.510
1180.000	669.838	80.007	19.993	103.155	19.882	4.062	0.551
1182.000	670.908	80.006	19.994	103.173	19.888	3.620	0.523
1184.001	671.981	80.005	19.994	103.170	19.884	3.924	0.497
1186.000	673.044	80.006	19.994	103.172	19.886	3.821	0.551
1188.000	674.160	80.005	19.994	103.160	19.882	4.076	0.563
1190.000	675.241	80.005	19.996	103.160	19.885	3.899	0.541
1192.001	676.334	80.006	19.995	103.164	19.885	3.884	0.566
1194.000	677.390	80.006	19.995	103.170	19.884	3.970	0.548
1196.000	678.474	80.006	19.995	103.160	19.883	4.024	0.541
1198.000	679.487	80.005	19.995	103.174	19.882	4.090	0.482
1200.001	680.521	80.005	19.994	103.175	19.879	4.316	0.511
1202.000	681.615	80.006	19.995	103.170	19.880	4.239	0.526
1204.001	682.653	80.007	19.994	103.164	19.883	4.010	0.542
1206.000	683.765	80.007	19.995	103.173	19.883	4.047	0.537
1208.001	684.782	80.006	19.994	103.168	19.885	3.870	0.525
1210.001	685.788	80.006	19.995	103.167	19.882	4.086	0.504
1212.000	686.838	80.006	19.994	103.160	19.882	4.082	0.536
1214.000	687.887	80.007	19.994	103.169	19.882	4.081	0.536
1216.000	688.926	80.007	19.995	103.165	19.880	4.267	0.498
1218.000	689.959	80.007	19.995	103.156	19.879	4.348	0.547
1220.000	691.018	80.006	19.995	103.167	19.878	4.389	0.515
1222.000	692.062	80.005	19.994	103.170	19.879	4.338	0.508
1224.001	693.072	80.007	19.994	103.163	19.878	4.397	0.519
1226.001	694.142	80.007	19.995	103.151	19.877	4.426	0.555
1228.000	695.110	80.006	19.995	103.158	19.878	4.360	0.510
1230.000	696.140	80.007	19.995	103.159	19.879	4.336	0.542
1232.000	697.167	80.007	19.995	103.163	19.877	4.456	0.508
1234.000	698.207	80.008	19.995	103.143	19.878	4.388	0.502
1236.000	699.239	80.006	19.995	103.147	19.878	4.408	0.546
1238.000	700.234	80.007	19.995	103.152	19.875	4.601	0.524
1240.000	701.282	80.006	19.994	103.154	19.878	4.378	0.535
1242.000	702.272	80.006	19.995	103.163	19.877	4.443	0.515
1244.000	703.291	80.006	19.995	103.148	19.877	4.433	0.521
1246.000	704.313	80.007	19.994	103.163	19.878	4.376	0.504
1248.000	705.309	80.006	19.995	103.151	19.875	4.613	0.524
1250.000	706.284	80.008	19.994	103.154	19.876	4.559	0.480
1252.001	707.290	80.008	19.996	103.139	19.875	4.585	0.511
1254.000	708.312	80.006	19.994	103.145	19.871	4.916	0.485
1256.000	709.303	80.008	19.995	103.148	19.877	4.450	0.494
1258.000	710.345	80.007	19.995	103.155	19.875	4.590	0.520
1260.000	711.318	80.008	19.995	103.142	19.880	4.243	0.503
1262.000	712.306	80.007	19.995	103.151	19.875	4.575	0.468
1264.000	713.337	80.006	19.996	103.163	19.874	4.647	0.502
1266.000	714.341	80.003	19.995	103.163	19.878	4.410	0.507
1268.000	715.342	80.005	19.995	103.166	19.874	4.657	0.506
1270.000	716.354	80.004	19.994	103.167	19.873	4.747	0.524
1272.001	717.364	80.006	19.995	103.160	19.873	4.786	0.507
1274.001	718.394	80.005	19.995	103.154	19.874	4.669	0.513
1276.000	719.419	80.007	19.995	103.153	19.877	4.495	0.533
1278.000	720.401	80.006	19.995	103.148	19.874	4.647	0.524
1280.000	721.373	80.006	19.995	103.166	19.874	4.656	0.504
1282.000	722.329	80.006	19.994	103.157	19.872	4.800	0.456
1284.000	723.350	80.007	19.995	103.152	19.876	4.558	0.517
1286.000	724.360	80.006	19.994	103.144	19.872	4.857	0.507
1288.000	725.284	80.005	19.995	103.159	19.874	4.662	0.494
1290.000	726.307	80.006	19.995	103.146	19.873	4.781	0.490
1292.000	727.314	80.006	19.995	103.145	19.872	4.802	0.502
1294.000	728.331	80.006	19.994	103.148	19.872	4.828	0.496
1296.001	729.320	80.006	19.996	103.138	19.876	4.559	0.498
1298.000	730.324	80.005	19.995	103.137	19.868	5.093	0.528
1300.000	731.311	80.005	19.995	103.156	19.872	4.814	0.449
1302.000	732.329	80.006	19.996	103.160	19.874	4.708	0.507
1304.000	733.303	80.006	19.995	103.147	19.872	4.852	0.499
1306.000	734.327	80.006	19.995	103.150	19.874	4.706	0.506
1308.001	735.301	80.007	19.994	103.139	19.875	4.617	0.498
1310.001	736.301	80.008	19.995	103.158	19.876	4.499	0.525
1312.000	737.281	80.008	19.994	103.147	19.879	4.345	0.498
1314.000	738.291	80.007	19.994	103.163	19.876	4.569	0.512
1316.000	739.290	80.009	19.994	103.157	19.876	4.559	0.516
1318.000	740.281	80.007	19.995	103.154	19.874	4.696	0.488
1320.001	741.269	80.008	19.995	103.150	19.876	4.502	0.479
1322.000	742.304	80.006	19.995	103.153	19.877	4.424	0.513
1324.000	743.298	80.006	19.995	103.166	19.873	4.728	0.508
1325.000	743.798	80.007	19.996	103.161	19.875	4.591	0.491