File: 01_Data/PMMA_R05/MCC/PMMA_R05_MCC_30K_min_211013_R2.txt
Sample ID:	C:\MCC\MCC Cal\Test\PMMAR05_MCC_30K_min_211013_R2.txt
Sample Weight (mg):	4.43
Heating Rate (C/s):	0.5
Combustor Temp (C):	900
N2 Flow Rate (cc/min):	80
O2 Flow Rate (cc/min):	20
Calibration File:	C:\MCC\MCC Cal\Coeff1 JN10440_30_210304.txt.txt
T Correction Coefficients:	0	1.024463	0
Time Shift (s):	14
*
Time (s)	Temperature (C)	N2 flow rate (cc/min)	O2 flow rate (cc/min)	Flow Rate (cc/min)	Oxygen (%)	HRR (W/g)	Heating rate (C/s)
0.000	110.172	79.994	19.994	102.907	20.213	0.347	0.002
2.000	110.174	79.993	19.995	102.918	20.213	0.307	0.025
4.000	110.127	79.993	19.996	102.908	20.217	0.066	0.007
6.000	110.121	79.994	19.996	102.917	20.218	-0.062	-0.006
8.001	110.107	79.993	19.995	102.918	20.216	0.086	-0.016
10.001	110.122	79.993	19.995	102.916	20.211	0.458	0.012
12.000	110.123	79.994	19.994	102.919	20.214	0.225	0.021
14.000	110.120	79.992	19.994	102.909	20.211	0.488	-0.003
16.000	110.118	79.993	19.995	102.958	20.211	0.502	-0.009
18.000	110.134	79.994	19.995	102.955	20.212	0.389	0.004
20.000	110.164	79.995	19.995	102.967	20.208	0.678	0.033
22.000	110.249	79.995	19.994	102.987	20.208	0.688	0.053
24.000	110.280	79.996	19.995	102.991	20.203	1.064	0.024
26.000	110.328	79.994	19.994	102.990	20.203	1.024	0.033
28.000	110.365	79.994	19.994	103.003	20.197	1.505	0.049
30.001	110.591	79.994	19.995	103.115	20.193	1.756	0.084
32.000	110.696	79.992	19.995	103.080	20.190	1.968	0.067
34.000	110.886	79.991	19.995	103.094	20.191	1.962	0.100
36.000	111.108	79.991	19.996	103.112	20.183	2.489	0.111
38.001	111.363	79.991	19.995	103.121	20.181	2.622	0.128
40.000	111.606	79.992	19.995	103.105	20.174	3.143	0.155
42.001	111.898	79.992	19.995	103.123	20.177	2.946	0.174
44.001	112.167	79.993	19.996	103.138	20.176	3.042	0.157
46.000	112.579	79.992	19.995	103.131	20.177	2.971	0.187
48.000	112.965	79.994	19.995	103.139	20.174	3.165	0.202
50.000	113.342	79.993	19.995	103.129	20.177	2.952	0.173
52.000	113.807	79.992	19.995	103.138	20.177	2.919	0.184
54.001	114.213	79.993	19.995	103.123	20.177	2.942	0.210
56.000	114.677	79.993	19.995	103.135	20.175	3.101	0.211
58.001	115.142	79.993	19.995	103.114	20.176	3.012	0.219
60.000	115.666	79.993	19.996	103.119	20.174	3.174	0.237
62.000	116.181	79.993	19.996	103.145	20.172	3.306	0.264
64.000	116.736	79.991	19.995	103.158	20.177	2.972	0.285
66.000	117.300	79.992	19.997	103.129	20.174	3.146	0.303
68.000	117.843	79.992	19.997	103.136	20.178	2.896	0.274
70.000	118.422	79.991	19.996	103.138	20.173	3.204	0.269
72.000	119.018	79.992	19.996	103.146	20.171	3.392	0.258
74.000	119.637	79.992	19.996	103.150	20.175	3.110	0.296
76.000	120.272	79.992	19.996	103.145	20.167	3.672	0.299
78.000	120.906	79.993	19.995	103.145	20.174	3.140	0.324
80.000	121.581	79.993	19.994	103.152	20.174	3.150	0.321
82.000	122.286	79.993	19.995	103.165	20.171	3.360	0.337
84.001	122.939	79.993	19.994	103.151	20.177	2.929	0.299
86.001	123.643	79.993	19.995	103.158	20.172	3.296	0.318
88.000	124.364	79.992	19.996	103.171	20.169	3.548	0.367
90.001	125.065	79.991	19.995	103.161	20.168	3.581	0.356
92.000	125.823	79.993	19.996	103.154	20.172	3.292	0.388
94.001	126.569	79.993	19.995	103.174	20.169	3.534	0.398
96.000	127.331	79.994	19.994	103.160	20.172	3.342	0.378
98.000	128.103	79.992	19.995	103.170	20.170	3.430	0.387
100.000	128.864	79.993	19.993	103.169	20.170	3.462	0.374
102.000	129.658	79.993	19.994	103.161	20.176	3.025	0.390
104.000	130.485	79.994	19.994	103.168	20.172	3.326	0.408
106.000	131.289	79.995	19.994	103.171	20.176	3.017	0.385
108.000	132.074	79.994	19.995	103.164	20.173	3.234	0.363
110.000	132.883	79.996	19.995	103.162	20.170	3.450	0.364
112.000	133.762	79.994	19.993	103.172	20.165	3.834	0.413
114.000	134.619	79.991	19.994	103.160	20.171	3.409	0.425
116.000	135.438	79.994	19.995	103.154	20.170	3.468	0.399
118.001	136.290	79.991	19.995	103.164	20.168	3.634	0.420
120.000	137.177	79.993	19.995	103.165	20.170	3.464	0.427
122.001	138.032	79.994	19.996	103.175	20.166	3.722	0.422
124.000	138.892	79.994	19.996	103.183	20.162	4.037	0.393
126.000	139.831	79.992	19.994	103.184	20.163	3.960	0.468
128.000	140.708	79.993	19.997	103.174	20.169	3.540	0.468
130.000	141.652	79.992	19.996	103.178	20.170	3.484	0.437
132.001	142.525	79.993	19.995	103.172	20.175	3.119	0.455
134.000	143.476	79.993	19.996	103.173	20.169	3.538	0.441
136.000	144.434	79.994	19.996	103.182	20.174	3.181	0.459
138.000	145.371	79.991	19.995	103.177	20.170	3.472	0.482
140.000	146.308	79.992	19.995	103.177	20.168	3.582	0.501
142.000	147.256	79.991	19.995	103.172	20.171	3.398	0.453
144.000	148.268	79.991	19.995	103.175	20.166	3.712	0.485
146.000	149.249	79.991	19.995	103.174	20.171	3.408	0.519
148.000	150.246	79.991	19.994	103.180	20.170	3.440	0.488
150.000	151.196	79.991	19.996	103.173	20.165	3.807	0.465
152.000	152.131	79.992	19.996	103.173	20.168	3.635	0.453
154.000	153.120	79.991	19.996	103.176	20.169	3.508	0.491
156.000	154.081	79.993	19.996	103.173	20.173	3.224	0.483
158.000	155.083	79.993	19.995	103.164	20.170	3.480	0.477
160.000	156.077	79.992	19.996	103.172	20.173	3.258	0.499
162.001	157.074	79.994	19.996	103.169	20.168	3.627	0.526
164.000	158.065	79.994	19.995	103.157	20.175	3.058	0.504
166.000	159.053	79.993	19.996	103.161	20.178	2.900	0.513
168.000	160.044	79.992	19.996	103.159	20.173	3.250	0.524
170.000	161.029	79.994	19.996	103.151	20.174	3.150	0.492
172.000	162.015	79.994	19.996	103.160	20.176	3.026	0.478
174.000	163.028	79.993	19.997	103.149	20.166	3.776	0.491
176.000	164.040	79.992	19.995	103.147	20.166	3.742	0.493
178.000	165.085	79.994	19.995	103.146	20.171	3.347	0.523
180.000	166.048	79.994	19.995	103.146	20.170	3.435	0.498
182.000	167.095	79.996	19.995	103.145	20.175	3.106	0.496
184.000	168.092	79.996	19.995	103.146	20.175	3.078	0.524
186.000	169.075	79.995	19.995	103.141	20.172	3.326	0.474
188.000	170.079	79.996	19.994	103.142	20.168	3.609	0.522
190.000	171.073	79.994	19.993	103.144	20.173	3.229	0.521
192.000	172.054	79.993	19.995	103.137	20.174	3.166	0.486
194.000	173.068	79.993	19.995	103.136	20.172	3.285	0.482
196.000	174.070	79.992	19.997	103.140	20.172	3.277	0.501
198.001	175.065	79.992	19.996	103.152	20.169	3.493	0.506
200.001	176.092	79.992	19.995	103.131	20.174	3.156	0.534
202.000	177.052	79.993	19.994	103.138	20.172	3.289	0.511
204.000	178.086	79.992	19.995	103.138	20.176	3.053	0.518
206.000	179.052	79.993	19.995	103.139	20.172	3.333	0.466
208.000	180.081	79.991	19.995	103.132	20.172	3.275	0.494
210.000	181.073	79.991	19.994	103.141	20.175	3.125	0.520
212.000	182.082	79.991	19.994	103.141	20.172	3.313	0.522
214.000	183.067	79.994	19.995	103.128	20.168	3.608	0.496
216.000	184.071	79.989	19.994	103.121	20.175	3.089	0.511
218.000	185.090	79.991	19.995	103.143	20.169	3.510	0.502
220.001	186.056	79.989	19.996	103.127	20.169	3.536	0.498
222.000	187.043	79.991	19.995	103.108	20.169	3.548	0.473
224.000	188.057	79.992	19.996	103.125	20.167	3.648	0.482
226.000	189.028	79.991	19.995	103.116	20.163	3.983	0.502
228.000	190.002	79.991	19.996	103.116	20.166	3.761	0.508
230.000	190.922	79.990	19.996	103.125	20.168	3.621	0.465
232.000	191.966	79.993	19.995	103.108	20.172	3.338	0.474
234.000	192.942	79.992	19.995	103.128	20.167	3.697	0.485
236.000	193.891	79.992	19.996	103.116	20.167	3.699	0.466
238.000	194.878	79.995	19.996	103.108	20.165	3.787	0.472
240.000	195.807	79.993	19.996	103.106	20.159	4.247	0.450
242.000	196.788	79.994	19.996	103.104	20.165	3.803	0.470
244.000	197.783	79.994	19.995	103.103	20.165	3.821	0.507
246.000	198.752	79.994	19.996	103.104	20.166	3.756	0.498
248.000	199.700	79.994	19.996	103.107	20.167	3.659	0.473
250.000	200.648	79.992	19.995	103.115	20.163	3.969	0.471
252.000	201.632	79.992	19.996	103.120	20.164	3.865	0.476
254.000	202.616	79.992	19.995	103.117	20.162	4.051	0.494
256.000	203.588	79.993	19.996	103.126	20.164	3.885	0.531
258.000	204.573	79.995	19.995	103.114	20.165	3.817	0.486
260.000	205.576	79.992	19.995	103.111	20.164	3.857	0.501
262.000	206.515	79.995	19.995	103.121	20.166	3.731	0.479
264.000	207.556	79.996	19.994	103.112	20.166	3.761	0.506
266.000	208.527	79.995	19.994	103.112	20.161	4.136	0.507
268.000	209.507	79.995	19.994	103.112	20.162	4.049	0.468
270.000	210.585	79.995	19.994	103.105	20.163	3.937	0.518
272.000	211.542	79.994	19.995	103.108	20.163	3.931	0.510
274.000	212.568	79.993	19.996	103.107	20.165	3.791	0.507
276.000	213.575	79.993	19.995	103.108	20.155	4.534	0.495
278.000	214.536	79.992	19.996	103.107	20.165	3.841	0.464
280.000	215.527	79.992	19.995	103.108	20.163	3.979	0.499
282.000	216.582	79.990	19.995	103.110	20.161	4.124	0.520
284.001	217.588	79.990	19.996	103.112	20.164	3.921	0.511
286.000	218.600	79.991	19.995	103.107	20.158	4.290	0.524
288.000	219.570	79.992	19.995	103.117	20.161	4.098	0.478
290.000	220.577	79.991	19.994	103.116	20.163	3.963	0.514
292.000	221.607	79.995	19.995	103.107	20.163	3.943	0.549
294.000	222.632	79.992	19.995	103.110	20.161	4.076	0.533
296.000	223.618	79.992	19.994	103.111	20.163	3.975	0.494
298.000	224.642	79.996	19.994	103.105	20.163	3.998	0.518
300.000	225.654	79.991	19.995	103.101	20.162	4.028	0.523
302.000	226.621	79.992	19.994	103.102	20.162	4.050	0.480
304.000	227.677	79.991	19.994	103.103	20.157	4.367	0.527
306.000	228.700	79.991	19.995	103.103	20.158	4.298	0.500
308.000	229.736	79.993	19.995	103.103	20.156	4.470	0.517
310.000	230.747	79.993	19.996	103.102	20.164	3.875	0.529
312.000	231.695	79.992	19.995	103.101	20.164	3.922	0.486
314.000	232.706	79.993	19.996	103.101	20.159	4.280	0.502
316.000	233.683	79.994	19.998	103.096	20.155	4.531	0.501
318.000	234.741	79.993	19.995	103.113	20.155	4.511	0.524
320.000	235.724	79.994	19.996	103.108	20.158	4.314	0.503
322.000	236.681	79.997	19.996	103.102	20.158	4.352	0.488
324.000	237.713	79.992	19.995	103.092	20.151	4.838	0.531
326.000	238.676	79.996	19.996	103.102	20.158	4.350	0.463
328.000	239.677	79.992	19.995	103.098	20.154	4.619	0.478
330.000	240.628	79.995	19.996	103.102	20.152	4.796	0.484
332.000	241.640	79.994	19.995	103.104	20.150	4.882	0.509
334.000	242.672	79.993	19.995	103.101	20.154	4.649	0.506
336.000	243.666	79.994	19.997	103.098	20.153	4.720	0.487
338.000	244.643	79.994	19.997	103.112	20.150	4.894	0.496
340.000	245.631	79.992	19.996	103.099	20.149	5.010	0.534
342.000	246.617	79.995	19.996	103.090	20.144	5.316	0.465
344.000	247.614	79.995	19.995	103.102	20.144	5.351	0.485
346.000	248.609	79.995	19.996	103.095	20.136	5.898	0.468
348.000	249.657	79.999	19.995	103.094	20.132	6.231	0.553
350.001	250.658	79.994	19.995	103.097	20.137	5.842	0.524
352.000	251.626	79.994	19.995	103.099	20.130	6.333	0.463
354.000	252.639	79.993	19.995	103.113	20.128	6.483	0.488
356.000	253.599	79.991	19.995	103.096	20.125	6.720	0.448
358.000	254.569	79.991	19.995	103.107	20.123	6.863	0.461
360.000	255.613	79.992	19.995	103.107	20.118	7.249	0.496
362.000	256.427	79.990	19.995	103.108	20.111	7.766	0.467
364.000	257.791	79.992	19.995	103.107	20.109	7.875	0.545
366.000	258.790	79.993	19.995	103.106	20.101	8.470	0.707
368.000	259.567	79.994	19.995	103.100	20.096	8.805	0.541
370.000	260.463	79.996	19.996	103.103	20.095	8.930	0.516
372.000	261.484	79.992	19.996	103.106	20.085	9.630	0.488
374.000	262.433	79.993	19.994	103.105	20.078	10.108	0.468
376.000	263.418	79.994	19.995	103.102	20.071	10.621	0.472
378.000	264.403	79.992	19.995	103.103	20.067	10.900	0.470
380.000	265.443	79.992	19.995	103.106	20.061	11.357	0.482
382.000	266.380	79.992	19.994	103.119	20.055	11.777	0.485
384.000	267.442	79.993	19.996	103.104	20.047	12.401	0.534
386.000	268.375	79.993	19.995	103.103	20.036	13.197	0.532
388.000	269.352	79.993	19.994	103.107	20.030	13.647	0.475
390.000	270.357	79.994	19.995	103.105	20.022	14.207	0.485
392.000	271.345	79.992	19.996	103.108	20.013	14.865	0.518
394.000	272.344	79.994	19.996	103.112	20.004	15.478	0.511
396.000	273.290	79.992	19.994	103.106	19.997	16.044	0.508
398.000	274.306	79.993	19.995	103.111	19.990	16.500	0.493
400.000	275.300	79.995	19.995	103.116	19.976	17.555	0.478
402.000	276.292	79.993	19.996	103.109	19.968	18.159	0.496
404.000	277.274	79.995	19.995	103.107	19.962	18.603	0.481
406.000	278.245	79.994	19.995	103.115	19.953	19.228	0.459
408.000	279.262	79.995	19.996	103.114	19.938	20.301	0.519
410.000	280.237	79.990	19.996	103.108	19.929	20.962	0.503
412.001	281.195	79.994	19.995	103.130	19.907	22.542	0.487
414.000	282.201	79.994	19.995	103.149	19.881	24.424	0.475
416.000	283.141	79.993	19.995	103.152	19.869	25.342	0.492
418.000	284.166	79.994	19.995	103.114	19.863	25.736	0.514
420.000	285.134	79.994	19.995	103.087	19.855	26.306	0.464
422.000	286.161	79.993	19.994	103.104	19.850	26.682	0.523
424.000	287.144	79.993	19.996	103.133	19.850	26.722	0.515
426.000	288.128	79.994	19.996	103.135	19.839	27.461	0.497
428.000	289.096	79.994	19.995	103.106	19.832	28.022	0.456
430.000	290.104	79.995	19.995	103.114	19.826	28.445	0.511
432.000	291.134	79.994	19.996	103.115	19.819	28.926	0.523
434.000	292.112	79.993	19.996	103.104	19.815	29.251	0.503
436.000	293.096	79.994	19.996	103.115	19.811	29.524	0.508
438.000	294.067	79.993	19.996	103.119	19.807	29.778	0.495
440.000	295.071	79.994	19.996	103.118	19.809	29.698	0.504
442.000	296.076	79.993	19.996	103.115	19.803	30.096	0.490
444.000	297.061	79.994	19.995	103.110	19.800	30.332	0.503
446.000	298.053	79.994	19.995	103.110	19.794	30.725	0.513
448.000	299.076	79.993	19.995	103.106	19.791	31.006	0.501
450.000	300.051	79.993	19.995	103.106	19.795	30.731	0.504
452.000	301.029	79.994	19.995	103.104	19.799	30.444	0.495
454.000	302.012	79.994	19.996	103.102	19.802	30.196	0.493
456.001	302.976	79.994	19.994	103.103	19.803	30.059	0.487
458.000	303.952	79.994	19.995	103.102	19.790	31.043	0.486
460.000	304.947	79.994	19.996	103.146	19.755	33.619	0.506
462.000	305.892	79.993	19.995	103.212	19.744	34.372	0.494
464.000	306.890	79.993	19.996	103.125	19.742	34.506	0.507
466.000	307.860	79.992	19.995	103.057	19.747	34.186	0.511
468.000	308.875	79.993	19.995	103.073	19.759	33.291	0.524
470.000	309.840	79.992	19.994	103.102	19.772	32.378	0.488
472.000	310.819	79.992	19.995	103.109	19.785	31.390	0.464
474.000	311.826	79.993	19.995	103.104	19.796	30.641	0.530
476.000	312.880	79.993	19.994	103.115	19.800	30.339	0.530
478.000	313.852	79.994	19.995	103.112	19.809	29.636	0.501
480.000	314.851	79.992	19.994	103.109	19.805	29.926	0.525
482.000	315.831	79.995	19.995	103.109	19.803	30.080	0.498
484.000	316.798	79.994	19.995	103.130	19.791	30.996	0.490
486.000	317.819	79.995	19.995	103.141	19.789	31.134	0.481
488.000	318.796	79.995	19.995	103.123	19.779	31.852	0.476
490.000	319.786	79.994	19.995	103.109	19.766	32.780	0.481
492.000	320.725	79.993	19.996	103.125	19.763	33.026	0.477
494.000	321.755	79.993	19.994	103.125	19.755	33.613	0.484
496.000	322.765	79.996	19.996	103.135	19.741	34.600	0.521
498.000	323.758	79.994	19.996	103.124	19.729	35.515	0.514
500.000	324.768	79.995	19.997	103.133	19.719	36.256	0.516
502.000	325.741	79.993	19.996	103.137	19.704	37.271	0.504
504.000	326.734	79.994	19.996	103.144	19.692	38.189	0.498
506.000	327.819	79.996	19.996	103.148	19.676	39.314	0.501
508.000	328.788	79.994	19.995	103.141	19.658	40.669	0.509
510.000	329.829	79.996	19.994	103.150	19.638	42.135	0.516
512.000	330.815	79.995	19.996	103.147	19.622	43.237	0.498
514.000	331.799	79.994	19.995	103.143	19.599	44.949	0.476
516.000	332.814	79.994	19.997	103.146	19.579	46.377	0.534
518.000	333.805	79.994	19.997	103.145	19.558	47.953	0.525
520.000	334.817	79.990	19.996	103.161	19.531	49.920	0.501
522.000	335.815	79.993	19.996	103.164	19.501	52.066	0.490
524.000	336.833	79.992	19.996	103.170	19.474	54.063	0.530
526.000	337.875	79.992	19.997	103.180	19.443	56.277	0.537
528.000	338.861	79.991	19.996	103.176	19.414	58.451	0.508
530.000	339.829	79.994	19.996	103.182	19.385	60.496	0.475
532.000	340.819	79.993	19.997	103.185	19.352	62.905	0.478
534.001	341.798	79.994	19.995	103.197	19.310	66.007	0.486
536.000	342.764	79.993	19.995	103.216	19.269	68.960	0.481
538.000	343.729	79.994	19.995	103.220	19.220	72.577	0.499
540.000	344.777	79.994	19.995	103.217	19.174	75.932	0.493
542.000	345.728	79.995	19.995	103.220	19.127	79.375	0.505
544.000	346.764	79.991	19.994	103.225	19.075	83.159	0.484
546.000	347.792	79.992	19.995	103.238	19.012	88.098	0.543
548.000	348.775	79.991	19.996	103.267	18.940	93.233	0.482
550.000	349.781	79.991	19.995	103.296	18.868	98.144	0.497
552.000	350.739	79.992	19.995	103.293	18.783	104.093	0.489
554.000	351.724	79.993	19.995	103.292	18.589	118.159	0.505
556.000	352.789	79.992	19.993	103.596	18.330	137.063	0.532
558.000	353.784	79.992	19.994	103.754	18.153	150.597	0.525
560.000	354.829	79.993	19.995	103.430	18.048	158.972	0.521
562.000	355.813	79.994	19.995	103.105	18.022	160.721	0.467
564.000	356.874	79.993	19.995	103.016	18.091	155.008	0.574
566.000	357.858	79.995	19.994	102.989	18.087	154.911	0.503
568.000	358.853	79.995	19.995	103.319	17.915	167.504	0.537
570.000	359.864	79.994	19.994	103.850	17.648	187.097	0.486
572.000	360.851	79.994	19.995	104.045	17.404	204.989	0.514
574.000	361.838	79.993	19.994	103.776	17.219	218.498	0.514
576.000	362.872	79.994	19.996	103.284	17.037	231.716	0.544
578.000	363.897	79.993	19.993	103.228	16.910	240.964	0.524
580.000	364.864	79.994	19.995	103.335	16.809	248.292	0.500
582.000	365.875	79.995	19.996	103.397	16.705	255.809	0.496
584.000	366.916	79.995	19.996	103.459	16.628	261.158	0.524
586.000	367.902	79.996	19.996	103.429	16.568	265.511	0.527
588.000	368.957	79.995	19.995	103.438	16.505	270.204	0.542
590.000	369.985	79.993	19.994	103.430	16.462	273.275	0.511
592.000	370.975	79.995	19.995	103.436	16.459	273.315	0.500
594.000	372.004	79.994	19.995	103.363	16.480	271.855	0.506
596.000	373.070	79.992	19.995	103.307	16.534	268.166	0.521
598.000	374.120	79.992	19.994	103.333	16.617	262.286	0.520
600.000	375.177	79.993	19.997	103.312	16.736	253.536	0.549
602.001	376.217	79.993	19.995	103.282	16.873	243.456	0.531
604.000	377.297	79.992	19.995	103.266	17.007	233.666	0.517
606.000	378.319	79.991	19.996	103.318	17.115	225.758	0.519
608.000	379.364	79.993	19.995	103.407	17.215	218.403	0.535
610.000	380.432	79.990	19.995	103.433	17.297	212.391	0.531
612.000	381.485	79.989	19.996	103.382	17.367	207.257	0.512
614.000	382.545	79.993	19.996	103.342	17.441	201.859	0.544
616.000	383.575	79.992	19.996	103.313	17.500	197.559	0.530
618.000	384.633	79.993	19.996	103.295	17.558	193.305	0.557
620.000	385.681	79.992	19.996	103.275	17.624	188.524	0.535
622.000	386.687	79.994	19.996	103.258	17.690	183.655	0.510
624.000	387.723	79.993	19.994	103.234	17.764	178.266	0.521
626.000	388.728	79.993	19.995	103.229	17.833	173.211	0.502
628.000	389.753	79.990	19.995	103.215	17.913	167.394	0.493
630.000	390.754	79.992	19.996	103.218	17.999	161.138	0.500
632.000	391.753	79.991	19.994	103.193	18.092	154.389	0.497
634.000	392.775	79.992	19.996	103.181	18.188	147.374	0.504
636.000	393.803	79.992	19.995	103.168	18.285	140.340	0.502
638.000	394.832	79.993	19.995	103.160	18.389	132.748	0.515
640.000	395.827	79.994	19.994	103.149	18.487	125.680	0.512
642.000	396.795	79.994	19.996	103.140	18.594	117.879	0.472
644.000	397.804	79.993	19.996	103.116	18.695	110.537	0.491
646.000	398.777	79.993	19.995	103.117	18.798	103.115	0.486
648.000	399.814	79.995	19.995	103.106	18.895	96.022	0.506
650.000	400.785	79.993	19.995	103.106	18.990	89.144	0.511
652.000	401.768	79.993	19.995	103.103	19.083	82.349	0.492
654.000	402.777	79.993	19.994	103.103	19.170	76.017	0.505
656.001	403.740	79.994	19.996	103.102	19.259	69.585	0.482
658.000	404.739	79.995	19.995	103.097	19.337	63.948	0.492
660.000	405.695	79.995	19.995	103.079	19.412	58.461	0.502
662.000	406.715	79.995	19.994	103.067	19.480	53.508	0.526
664.000	407.699	79.996	19.994	103.073	19.545	48.818	0.493
666.000	408.693	79.995	19.994	103.081	19.603	44.574	0.495
668.000	409.679	79.996	19.994	103.064	19.659	40.522	0.503
670.000	410.687	79.994	19.995	103.054	19.708	36.971	0.501
672.000	411.655	79.994	19.995	103.063	19.755	33.561	0.486
674.000	412.651	79.995	19.995	103.062	19.800	30.337	0.488
676.000	413.647	79.993	19.996	103.057	19.838	27.571	0.482
678.000	414.645	79.993	19.995	103.057	19.870	25.197	0.496
680.000	415.589	79.993	19.996	103.061	19.899	23.109	0.480
682.000	416.629	79.992	19.995	103.049	19.932	20.754	0.510
684.000	417.625	79.993	19.995	103.057	19.961	18.628	0.522
686.000	418.617	79.993	19.995	103.045	19.979	17.299	0.457
688.000	419.642	79.991	19.996	103.056	20.004	15.471	0.517
690.000	420.597	79.993	19.996	103.061	20.021	14.239	0.478
692.000	421.615	79.993	19.995	103.061	20.040	12.894	0.505
694.000	422.611	79.993	19.996	103.062	20.050	12.182	0.505
696.000	423.641	79.994	19.996	103.073	20.069	10.786	0.519
698.000	424.635	79.993	19.996	103.058	20.076	10.303	0.499
700.000	425.714	79.992	19.997	103.066	20.089	9.367	0.519
702.000	426.747	79.993	19.995	103.063	20.100	8.540	0.513
704.000	427.780	79.993	19.997	103.062	20.106	8.075	0.511
706.000	428.814	79.993	19.996	103.065	20.113	7.579	0.523
708.000	429.878	79.992	19.997	103.064	20.125	6.735	0.497
710.000	430.914	79.989	19.996	103.068	20.131	6.315	0.511
712.000	431.986	79.993	19.997	103.067	20.139	5.670	0.531
714.000	433.037	79.993	19.996	103.052	20.143	5.383	0.537
716.000	434.155	79.993	19.996	103.065	20.150	4.914	0.560
718.000	435.236	79.992	19.995	103.063	20.152	4.732	0.567
720.000	436.289	79.993	19.995	103.065	20.160	4.186	0.552
722.001	437.330	79.993	19.996	103.065	20.164	3.877	0.517
724.000	438.405	79.996	19.994	103.066	20.167	3.636	0.519
726.000	439.498	79.995	19.994	103.061	20.171	3.355	0.557
728.000	440.552	79.995	19.994	103.046	20.174	3.169	0.518
730.001	441.603	79.995	19.995	103.061	20.177	2.914	0.521
732.000	442.645	79.993	19.997	103.062	20.179	2.824	0.539
734.000	443.754	79.993	19.993	103.064	20.178	2.848	0.515
736.000	444.859	79.993	19.995	103.060	20.179	2.808	0.607
738.000	445.941	79.993	19.996	103.064	20.177	2.980	0.516
740.000	446.996	79.992	19.996	103.068	20.177	2.966	0.528
742.000	448.018	79.996	19.994	103.067	20.177	2.944	0.563
744.000	449.146	79.994	19.995	103.067	20.179	2.828	0.571
746.000	450.204	79.995	19.995	103.071	20.177	2.974	0.547
748.000	451.252	79.995	19.995	103.064	20.179	2.764	0.552
750.000	452.345	79.996	19.994	103.058	20.179	2.786	0.531
752.000	453.368	79.997	19.995	103.060	20.176	2.994	0.547
754.000	454.434	79.994	19.995	103.062	20.176	2.988	0.514
756.000	455.535	79.993	19.996	103.062	20.181	2.667	0.530
758.000	456.570	79.992	19.996	103.063	20.179	2.772	0.511
760.000	457.617	79.993	19.996	103.065	20.180	2.704	0.486
762.000	458.690	79.993	19.995	103.061	20.183	2.507	0.515
764.000	459.764	79.993	19.995	103.061	20.181	2.653	0.531
766.000	460.818	79.992	19.995	103.063	20.184	2.467	0.523
768.001	461.855	79.993	19.996	103.062	20.186	2.319	0.541
770.000	462.926	79.994	19.995	103.058	20.182	2.557	0.546
772.001	463.931	79.992	19.995	103.064	20.184	2.403	0.509
774.000	465.022	79.992	19.996	103.068	20.186	2.317	0.515
776.000	466.053	79.991	19.996	103.056	20.185	2.369	0.532
778.000	467.132	79.993	19.996	103.059	20.184	2.401	0.546
780.000	468.203	79.993	19.995	103.055	20.186	2.311	0.527
782.000	469.242	79.993	19.996	103.059	20.188	2.170	0.522
784.000	470.267	79.994	19.996	103.057	20.188	2.152	0.513
786.000	471.312	79.991	19.996	103.063	20.185	2.334	0.517
788.000	472.312	79.992	19.996	103.066	20.186	2.301	0.527
790.000	473.402	79.990	19.997	103.060	20.184	2.417	0.542
792.000	474.454	79.991	19.997	103.055	20.183	2.483	0.535
794.000	475.438	79.991	19.995	103.059	20.180	2.704	0.498
796.000	476.512	79.993	19.996	103.063	20.181	2.660	0.505
798.000	477.463	79.991	19.997	103.057	20.183	2.489	0.496
800.000	478.484	79.992	19.996	103.053	20.185	2.379	0.510
802.000	479.514	79.994	19.996	103.062	20.185	2.331	0.506
804.000	480.487	79.994	19.997	103.052	20.190	2.026	0.466
806.000	481.466	79.993	19.995	103.062	20.188	2.174	0.478
808.000	482.471	79.994	19.995	103.056	20.188	2.180	0.499
810.000	483.444	79.993	19.995	103.060	20.187	2.192	0.504
812.000	484.427	79.994	19.995	103.051	20.190	1.967	0.486
814.000	485.422	79.994	19.996	103.056	20.188	2.174	0.483
816.000	486.391	79.994	19.995	103.043	20.184	2.457	0.474
818.000	487.375	79.994	19.994	103.056	20.189	2.078	0.504
820.000	488.305	79.994	19.993	103.061	20.188	2.180	0.450
822.000	489.296	79.995	19.995	103.061	20.189	2.110	0.492
824.000	490.312	79.995	19.994	103.062	20.186	2.311	0.499
826.000	491.248	79.995	19.995	103.055	20.184	2.471	0.457
828.000	492.192	79.996	19.995	103.053	20.187	2.214	0.479
830.000	493.152	79.995	19.995	103.052	20.185	2.399	0.465
832.000	494.153	79.996	19.996	103.059	20.187	2.202	0.510
834.000	495.119	79.996	19.994	103.057	20.186	2.266	0.468
836.000	496.092	79.995	19.996	103.055	20.186	2.260	0.485
838.000	497.033	79.993	19.996	103.049	20.188	2.132	0.498
840.000	497.999	79.992	19.995	103.063	20.187	2.254	0.504
842.000	498.940	79.993	19.995	103.060	20.188	2.136	0.498
844.000	499.917	79.995	19.994	103.058	20.188	2.150	0.508
846.000	500.930	79.994	19.995	103.065	20.188	2.152	0.542
848.000	501.908	79.993	19.996	103.064	20.185	2.335	0.467
850.000	502.882	79.994	19.996	103.067	20.186	2.262	0.490
852.000	503.898	79.994	19.996	103.069	20.185	2.377	0.497
854.000	504.911	79.993	19.997	103.065	20.188	2.172	0.512
856.000	505.846	79.994	19.994	103.066	20.190	1.974	0.468
858.000	506.886	79.994	19.996	103.063	20.193	1.783	0.512
860.000	507.883	79.992	19.997	103.057	20.191	1.943	0.492
862.000	508.871	79.993	19.995	103.067	20.189	2.102	0.499
864.000	509.907	79.992	19.995	103.061	20.187	2.188	0.492
866.000	510.906	79.993	19.995	103.063	20.185	2.335	0.497
868.001	511.933	79.991	19.997	103.065	20.187	2.210	0.522
870.000	512.961	79.992	19.994	103.066	20.190	2.026	0.506
872.000	514.007	79.992	19.996	103.060	20.185	2.371	0.526
874.000	515.037	79.992	19.997	103.064	20.189	2.084	0.529
876.000	516.042	79.992	19.999	103.050	20.191	1.943	0.504
878.000	517.095	79.992	19.995	103.055	20.190	1.986	0.550
880.000	518.126	79.994	19.996	103.054	20.189	2.106	0.533
882.000	519.141	79.994	19.998	103.059	20.191	1.907	0.533
884.000	520.159	79.994	19.997	103.054	20.192	1.887	0.514
886.000	521.182	79.992	19.995	103.062	20.192	1.839	0.500
888.000	522.219	79.993	19.995	103.057	20.196	1.562	0.500
890.000	523.266	79.993	19.997	103.060	20.193	1.761	0.513
892.000	524.329	79.993	19.997	103.060	20.191	1.924	0.535
894.000	525.337	79.993	19.995	103.062	20.192	1.887	0.504
896.000	526.342	79.993	19.995	103.058	20.193	1.803	0.484
898.000	527.396	79.994	19.995	103.057	20.191	1.944	0.521
900.000	528.447	79.993	19.996	103.059	20.192	1.829	0.539
902.000	529.487	79.994	19.995	103.054	20.191	1.919	0.535
904.000	530.520	79.995	19.995	103.056	20.194	1.695	0.494
906.000	531.583	79.995	19.996	103.061	20.190	1.978	0.554
908.000	532.613	79.996	19.994	103.057	20.189	2.080	0.532
910.000	533.628	79.996	19.995	103.061	20.187	2.196	0.499
912.000	534.671	79.994	19.995	103.060	20.190	2.004	0.511
914.000	535.744	79.994	19.995	103.061	20.191	1.899	0.530
916.000	536.808	79.994	19.995	103.063	20.188	2.122	0.515
918.000	537.839	79.993	19.995	103.055	20.188	2.176	0.494
920.000	538.918	79.992	19.996	103.063	20.188	2.176	0.554
922.000	539.971	79.992	19.997	103.064	20.188	2.162	0.543
924.000	541.008	79.993	19.994	103.060	20.183	2.483	0.547
926.000	542.061	79.991	19.996	103.060	20.190	2.028	0.528
928.000	543.059	79.992	19.995	103.059	20.190	2.024	0.491
930.000	544.115	79.992	19.995	103.064	20.188	2.152	0.508
932.000	545.126	79.992	19.995	103.061	20.184	2.429	0.530
934.000	546.147	79.993	19.995	103.044	20.186	2.275	0.513
936.000	547.148	79.993	19.995	103.066	20.186	2.305	0.526
938.000	548.223	79.993	19.994	103.062	20.189	2.092	0.515
940.000	549.233	79.992	19.995	103.041	20.186	2.286	0.493
942.000	550.280	79.992	19.996	103.064	20.188	2.144	0.509
944.000	551.325	79.993	19.996	103.047	20.186	2.258	0.525
946.000	552.312	79.993	19.996	103.052	20.186	2.286	0.495
948.000	553.403	79.992	19.997	103.059	20.187	2.184	0.507
950.000	554.393	79.992	19.997	103.061	20.186	2.315	0.533
952.000	555.417	79.993	19.996	103.060	20.183	2.475	0.517
954.000	556.426	79.992	19.996	103.059	20.185	2.345	0.502
956.000	557.473	79.993	19.995	103.061	20.184	2.449	0.509
958.000	558.524	79.991	19.996	103.060	20.184	2.407	0.535
960.000	559.499	79.992	19.995	103.057	20.187	2.208	0.500
962.000	560.502	79.993	19.995	103.054	20.188	2.134	0.490
964.000	561.522	79.994	19.996	103.044	20.189	2.068	0.526
966.000	562.502	79.995	19.995	103.034	20.189	2.102	0.462
968.000	563.514	79.993	19.995	103.050	20.188	2.124	0.493
970.000	564.518	79.993	19.997	103.060	20.189	2.074	0.524
972.000	565.565	79.993	19.996	103.055	20.194	1.729	0.529
974.000	566.558	79.992	19.996	103.060	20.189	2.038	0.539
976.000	567.562	79.992	19.994	103.058	20.189	2.090	0.490
978.000	568.556	79.992	19.996	103.061	20.190	1.998	0.503
980.001	569.560	79.993	19.997	103.054	20.189	2.084	0.498
982.000	570.632	79.993	19.995	103.060	20.193	1.767	0.531
984.000	571.646	79.994	19.997	103.060	20.190	1.999	0.539
986.000	572.706	79.994	19.995	103.062	20.189	2.082	0.531
988.000	573.729	79.995	19.995	103.057	20.191	1.903	0.540
990.000	574.785	79.996	19.995	103.057	20.187	2.252	0.595
992.000	575.837	79.996	19.994	103.055	20.187	2.210	0.516
994.000	576.851	79.994	19.994	103.063	20.190	2.016	0.517
996.000	577.885	79.994	19.995	103.060	20.189	2.086	0.532
998.000	578.911	79.992	19.995	103.058	20.192	1.875	0.510
1000.000	579.895	79.993	19.995	103.065	20.188	2.146	0.529
1002.000	580.914	79.992	19.995	103.058	20.186	2.276	0.507
1004.000	581.925	79.994	19.995	103.066	20.189	2.038	0.504
1006.000	582.984	79.993	19.996	103.044	20.189	2.088	0.521
1008.000	583.971	79.993	19.996	103.053	20.194	1.697	0.486
1010.000	585.005	79.993	19.995	103.063	20.187	2.198	0.525
1012.000	585.958	79.991	19.995	103.062	20.190	2.034	0.476
1014.000	586.978	79.994	19.995	103.056	20.188	2.140	0.498
1016.000	588.017	79.993	19.996	103.058	20.193	1.773	0.525
1018.000	588.984	79.992	19.995	103.057	20.188	2.176	0.504
1020.000	589.982	79.993	19.995	103.057	20.188	2.122	0.501
1022.000	591.013	79.992	19.995	103.059	20.190	1.989	0.521
1024.001	592.012	79.993	19.996	103.062	20.189	2.098	0.507
1026.000	593.027	79.992	19.995	103.065	20.188	2.152	0.523
1028.000	594.001	79.993	19.997	103.058	20.189	2.080	0.489
1030.000	595.034	79.993	19.997	103.056	20.191	1.947	0.503
1032.000	596.025	79.993	19.995	103.064	20.190	2.036	0.457
1034.001	597.081	79.993	19.997	103.065	20.189	2.080	0.516
1036.000	598.058	79.993	19.995	103.054	20.188	2.178	0.495
1038.000	599.040	79.994	19.996	103.064	20.188	2.132	0.485
1040.000	600.091	79.993	19.995	103.059	20.189	2.092	0.495
1042.000	601.120	79.993	19.997	103.065	20.188	2.118	0.507
1044.000	602.143	79.994	19.995	103.066	20.187	2.184	0.530
1046.000	603.168	79.993	19.995	103.059	20.183	2.489	0.483
1048.000	604.151	79.995	19.995	103.061	20.187	2.228	0.487
1050.000	605.229	79.994	19.995	103.060	20.186	2.312	0.521
1052.000	606.260	79.994	19.996	103.065	20.186	2.284	0.542
1054.000	607.260	79.993	19.996	103.065	20.192	1.889	0.511
1056.000	608.269	79.992	19.996	103.063	20.189	2.076	0.530
1058.000	609.304	79.992	19.996	103.064	20.191	1.931	0.512
1060.000	610.298	79.993	19.994	103.069	20.191	1.943	0.500
1062.000	611.360	79.992	19.995	103.068	20.186	2.264	0.511
1064.001	612.417	79.994	19.998	103.067	20.191	1.937	0.515
1066.000	613.424	79.994	19.995	103.066	20.188	2.174	0.517
1068.000	614.539	79.995	19.996	103.064	20.186	2.316	0.510
1070.000	615.561	79.994	19.997	103.073	20.189	2.060	0.521
1072.000	616.652	79.994	19.997	103.058	20.189	2.098	0.549
1074.000	617.657	79.994	19.994	103.058	20.189	2.102	0.556
1076.000	618.650	79.993	19.995	103.059	20.183	2.521	0.511
1078.000	619.772	79.992	19.995	103.061	20.186	2.306	0.497
1080.000	620.774	79.992	19.996	103.062	20.186	2.284	0.512
1082.000	621.796	79.992	19.992	103.063	20.187	2.208	0.512
1084.000	622.824	79.992	19.996	103.063	20.183	2.539	0.479
1086.000	623.817	79.993	19.994	103.054	20.185	2.336	0.512
1088.000	624.873	79.992	19.995	103.063	20.184	2.439	0.484
1090.000	625.883	79.992	19.995	103.068	20.184	2.423	0.528
1092.000	626.935	79.991	19.995	103.062	20.182	2.563	0.532
1094.000	627.915	79.993	19.995	103.064	20.179	2.798	0.509
1096.000	628.957	79.993	19.995	103.065	20.182	2.617	0.533
1098.000	629.934	79.993	19.996	103.068	20.185	2.360	0.490
1100.000	630.986	79.993	19.995	103.063	20.182	2.573	0.502
1102.000	632.010	79.992	19.994	103.062	20.181	2.647	0.522
1104.000	633.024	79.992	19.996	103.064	20.184	2.465	0.519
1106.000	634.053	79.991	19.994	103.066	20.182	2.607	0.511
1108.000	635.083	79.991	19.995	103.066	20.179	2.776	0.511
1110.000	636.092	79.991	19.997	103.066	20.180	2.741	0.497
1112.000	637.145	79.992	19.993	103.061	20.181	2.645	0.520
1114.000	638.068	79.993	19.993	103.066	20.180	2.719	0.485
1116.000	639.112	79.990	19.993	103.064	20.179	2.780	0.510
1118.000	640.165	79.993	19.996	103.069	20.184	2.413	0.530
1120.000	641.113	79.994	19.993	103.069	20.181	2.635	0.495
1122.000	642.080	79.994	19.995	103.068	20.178	2.874	0.489
1124.000	643.090	79.993	19.997	103.072	20.182	2.573	0.502
1126.000	644.077	79.993	19.995	103.070	20.177	2.930	0.485
1128.000	645.112	79.995	19.994	103.069	20.176	3.010	0.534
1130.000	646.121	79.994	19.996	103.065	20.178	2.838	0.493
1132.000	647.092	79.993	19.995	103.069	20.176	3.052	0.483
1134.000	648.064	79.992	19.996	103.066	20.179	2.815	0.506
1136.000	649.050	79.994	19.995	103.069	20.173	3.247	0.501
1138.000	650.087	79.994	19.996	103.065	20.179	2.808	0.514
1140.000	651.105	79.994	19.996	103.069	20.178	2.876	0.514
1142.000	652.152	79.993	19.995	103.076	20.179	2.776	0.516
1144.000	653.214	79.994	19.994	103.067	20.178	2.884	0.504
1146.000	654.196	79.995	19.995	103.076	20.181	2.669	0.547
1148.000	655.249	79.994	19.995	103.072	20.175	3.068	0.537
1150.000	656.284	79.997	19.996	103.068	20.173	3.227	0.544
1152.000	657.299	79.995	19.996	103.065	20.176	2.982	0.514
1154.000	658.364	79.995	19.995	103.069	20.174	3.185	0.524
1156.001	659.470	79.994	19.996	103.062	20.178	2.890	0.552
1158.000	660.491	79.992	19.995	103.076	20.178	2.848	0.518
1160.000	661.538	79.992	19.995	103.065	20.181	2.625	0.533
1162.000	662.587	79.992	19.996	103.078	20.178	2.888	0.523
1164.000	663.632	79.991	19.998	103.085	20.180	2.707	0.481
1166.000	664.695	79.991	19.996	103.064	20.178	2.851	0.536
1168.000	665.759	79.991	19.995	103.065	20.181	2.621	0.520
1170.000	666.826	79.991	19.996	103.070	20.178	2.869	0.535
1172.000	667.876	79.992	19.995	103.076	20.179	2.827	0.533
1174.000	668.950	79.992	19.995	103.073	20.182	2.617	0.528
1176.000	669.998	79.993	19.995	103.075	20.181	2.669	0.506
1178.000	671.027	79.992	19.995	103.096	20.177	2.974	0.510
1180.000	672.086	79.993	19.995	103.081	20.179	2.824	0.550
1182.000	673.110	79.991	19.995	103.095	20.176	2.986	0.503
1184.000	674.156	79.992	19.994	103.079	20.180	2.763	0.502
1186.000	675.234	79.992	19.995	103.097	20.183	2.535	0.538
1188.000	676.292	79.992	19.994	103.087	20.180	2.742	0.539
1190.000	677.314	79.992	19.996	103.072	20.179	2.793	0.540
1192.000	678.338	79.992	19.995	103.073	20.178	2.886	0.500
1194.001	679.356	79.994	19.995	103.080	20.179	2.766	0.500
1196.001	680.327	79.994	19.995	103.072	20.178	2.876	0.490
1198.000	681.352	79.993	19.995	103.070	20.176	3.032	0.491
1200.001	682.375	79.995	19.995	103.072	20.179	2.818	0.540
1202.000	683.391	79.995	19.995	103.070	20.177	2.966	0.513
1204.000	684.374	79.995	19.995	103.064	20.177	2.970	0.490
1206.000	685.366	79.996	19.996	103.063	20.177	2.914	0.508
1208.000	686.333	79.994	19.994	103.068	20.177	2.974	0.496
1210.000	687.330	79.995	19.995	103.067	20.176	3.008	0.482
1212.000	688.333	79.994	19.995	103.068	20.176	3.052	0.512
1214.000	689.302	79.994	19.995	103.072	20.179	2.779	0.496
1216.000	690.294	79.995	19.995	103.075	20.179	2.830	0.462
1218.000	691.299	79.995	19.998	103.073	20.178	2.902	0.511
1220.000	692.252	79.994	19.996	103.065	20.177	2.938	0.469
1222.000	693.267	79.994	19.997	103.077	20.179	2.817	0.493
1224.000	694.232	79.994	19.996	103.071	20.181	2.667	0.505
1226.000	695.246	79.995	19.995	103.062	20.179	2.764	0.502
1228.000	696.213	79.995	19.995	103.069	20.177	2.918	0.507
1230.000	697.198	79.995	19.995	103.064	20.175	3.120	0.474
1232.000	698.171	79.995	19.995	103.063	20.175	3.094	0.503
1234.000	699.135	79.995	19.995	103.089	20.173	3.257	0.500
1236.000	700.107	79.994	19.996	103.076	20.175	3.096	0.497
1238.000	701.076	79.994	19.995	103.060	20.176	2.982	0.490
1240.000	702.054	79.992	19.996	103.070	20.176	3.014	0.506
1242.000	702.991	79.994	19.998	103.068	20.177	2.966	0.473
1244.000	703.985	79.992	19.996	103.070	20.178	2.900	0.460
1246.000	704.985	79.992	19.995	103.080	20.179	2.771	0.488
1248.000	705.941	79.993	19.998	103.068	20.177	2.964	0.476
1250.000	706.887	79.993	19.995	103.078	20.175	3.107	0.493
1252.000	707.928	79.992	19.996	103.077	20.177	2.942	0.513
1254.000	708.907	79.993	19.996	103.075	20.178	2.864	0.470
1256.000	709.878	79.993	19.996	103.070	20.175	3.090	0.481
1258.000	710.875	79.993	19.996	103.080	20.174	3.145	0.507
1260.000	711.875	79.995	19.995	103.067	20.178	2.876	0.503
1262.000	712.839	79.994	19.995	103.069	20.175	3.094	0.502
1264.000	713.887	79.993	19.996	103.085	20.176	3.028	0.529
1266.000	714.917	79.993	19.996	103.068	20.176	3.038	0.511
1268.000	715.952	79.992	19.996	103.070	20.177	2.972	0.547
1270.000	717.020	79.992	19.995	103.064	20.174	3.192	0.550
1272.000	718.074	79.992	19.995	103.066	20.171	3.379	0.518
1274.000	719.143	79.994	19.995	103.077	20.171	3.369	0.570
1276.000	720.209	79.993	19.995	103.083	20.173	3.204	0.532
1278.000	721.240	79.992	19.995	103.077	20.172	3.305	0.487
1280.000	722.351	79.994	19.994	103.073	20.170	3.477	0.580
1282.000	723.393	79.993	19.995	103.073	20.171	3.349	0.526
1284.000	724.447	79.995	19.996	103.071	20.173	3.202	0.563
1286.000	725.535	79.995	19.995	103.078	20.172	3.312	0.509
1288.000	726.631	79.994	19.994	103.080	20.174	3.176	0.541
1290.000	727.739	79.995	19.994	103.071	20.172	3.280	0.529
1292.000	728.814	79.993	19.995	103.074	20.169	3.535	0.541
1294.000	729.905	79.993	19.995	103.081	20.169	3.493	0.552
1296.000	730.971	79.993	19.994	103.090	20.170	3.421	0.511
1298.000	732.071	79.994	19.995	103.088	20.169	3.543	0.544
1300.000	733.127	79.993	19.994	103.086	20.169	3.495	0.520
1302.000	734.235	79.994	19.994	103.086	20.170	3.451	0.532
1304.000	735.324	79.993	19.994	103.087	20.172	3.286	0.515
1306.000	736.335	79.996	19.994	103.080	20.176	3.046	0.511
1308.000	737.397	79.994	19.995	103.096	20.169	3.509	0.525
1310.001	738.464	79.995	19.995	103.093	20.170	3.475	0.523
1312.000	739.484	79.993	19.995	103.087	20.169	3.506	0.492
1314.000	740.556	79.993	19.995	103.091	20.170	3.444	0.533
1316.000	741.651	79.992	19.995	103.092	20.168	3.571	0.508
1318.000	742.709	79.991	19.995	103.098	20.169	3.529	0.545
1319.500	743.485	79.991	19.995	103.095	20.172	3.295	0.530