File: 01_Data/PMMA_R05/MCC/PMMA_R05_MCC_30K_min_211013_R1.txt
Sample ID:	C:\MCC\MCC Cal\Test\PMMAR05_MCC_30K_min_211013_R1.txt
Sample Weight (mg):	4.43
Heating Rate (C/s):	0.5
Combustor Temp (C):	900
N2 Flow Rate (cc/min):	80
O2 Flow Rate (cc/min):	20
Calibration File:	C:\MCC\MCC Cal\Coeff1 JN10440_30_210304.txt.txt
T Correction Coefficients:	0	1.024463	0
Time Shift (s):	14
*
Time (s)	Temperature (C)	N2 flow rate (cc/min)	O2 flow rate (cc/min)	Flow Rate (cc/min)	Oxygen (%)	HRR (W/g)	Heating rate (C/s)
0.000	106.569	79.991	19.995	102.798	20.273	-0.203	0.024
2.000	106.566	79.991	19.996	102.804	20.269	0.066	-0.023
4.000	106.567	79.990	19.997	102.803	20.266	0.251	0.002
6.000	106.531	79.991	19.997	102.796	20.269	0.086	-0.026
8.000	106.548	79.990	19.996	102.818	20.271	-0.050	0.001
10.000	106.558	79.993	19.997	102.814	20.264	0.432	0.000
12.000	106.546	79.993	19.996	102.816	20.267	0.223	-0.019
14.000	106.562	79.989	19.996	102.855	20.264	0.420	-0.026
16.000	106.567	79.991	19.996	102.872	20.263	0.518	-0.002
18.000	106.636	79.991	19.995	102.876	20.266	0.285	0.005
20.000	106.672	79.993	19.996	102.878	20.254	1.153	0.033
22.000	106.799	79.990	19.996	102.911	20.256	1.036	0.053
24.000	106.852	79.991	19.995	102.932	20.253	1.217	0.086
26.000	107.005	79.991	19.997	102.914	20.251	1.395	0.074
28.000	107.105	79.991	19.996	102.913	20.250	1.436	0.082
30.000	107.277	79.990	19.997	102.913	20.252	1.295	0.107
32.000	107.460	79.990	19.998	102.918	20.255	1.060	0.083
34.000	107.630	79.990	19.996	102.937	20.249	1.530	0.065
35.999	107.834	79.990	19.997	102.950	20.247	1.628	0.100
37.999	108.070	79.991	19.997	102.955	20.246	1.753	0.142
39.999	108.316	79.991	19.996	102.953	20.247	1.694	0.118
41.999	108.538	79.990	19.994	102.954	20.241	2.122	0.123
44.000	108.829	79.990	19.995	102.965	20.240	2.140	0.139
45.999	109.117	79.992	19.997	102.965	20.241	2.067	0.144
48.000	109.399	79.992	19.995	102.961	20.243	1.939	0.124
49.999	109.737	79.992	19.996	102.964	20.238	2.302	0.165
51.999	110.059	79.992	19.995	102.957	20.238	2.342	0.172
53.999	110.416	79.991	19.995	102.983	20.239	2.252	0.185
55.999	110.766	79.991	19.995	102.986	20.238	2.284	0.189
57.999	111.128	79.992	19.995	102.971	20.238	2.324	0.168
59.999	111.524	79.991	19.997	102.978	20.241	2.113	0.187
62.000	111.933	79.993	19.997	102.980	20.242	2.011	0.203
63.999	112.324	79.993	19.996	102.990	20.238	2.326	0.193
66.000	112.775	79.992	19.996	102.990	20.235	2.538	0.227
67.999	113.162	79.994	19.996	102.976	20.236	2.426	0.213
69.999	113.663	79.995	19.997	102.987	20.238	2.321	0.263
71.999	114.121	79.994	19.995	102.998	20.240	2.189	0.217
74.000	114.618	79.995	19.995	103.002	20.237	2.393	0.235
76.000	115.088	79.995	19.997	103.009	20.232	2.781	0.258
77.999	115.552	79.992	19.995	103.011	20.235	2.532	0.225
80.001	116.104	79.991	19.995	103.015	20.233	2.670	0.258
81.999	116.657	79.991	19.994	103.023	20.232	2.728	0.267
83.999	117.202	79.993	19.996	103.028	20.228	3.025	0.306
85.999	117.774	79.991	19.996	103.029	20.231	2.798	0.282
87.999	118.382	79.992	19.997	103.030	20.231	2.851	0.303
89.999	118.953	79.990	19.995	103.028	20.232	2.772	0.288
91.999	119.581	79.991	19.996	103.036	20.229	2.932	0.316
93.999	120.192	79.991	19.997	103.047	20.231	2.796	0.329
95.999	120.840	79.990	19.996	103.046	20.225	3.234	0.310
98.000	121.500	79.991	19.996	103.035	20.227	3.094	0.379
99.999	122.208	79.992	19.996	103.052	20.226	3.172	0.357
101.999	122.874	79.991	19.995	103.059	20.230	2.924	0.376
104.000	123.582	79.989	19.996	103.059	20.224	3.321	0.370
106.000	124.341	79.990	19.997	103.075	20.226	3.154	0.349
107.999	125.083	79.991	19.995	103.092	20.222	3.471	0.379
109.999	125.813	79.991	19.995	103.088	20.220	3.621	0.378
111.999	126.616	79.990	19.996	103.088	20.221	3.521	0.409
113.999	127.396	79.990	19.997	103.080	20.220	3.652	0.384
115.999	128.211	79.990	19.998	103.087	20.219	3.684	0.421
117.999	129.047	79.990	19.997	103.079	20.215	4.001	0.383
119.999	129.906	79.991	19.997	103.082	20.218	3.766	0.411
122.000	130.759	79.993	19.996	103.081	20.221	3.531	0.452
123.999	131.634	79.992	19.996	103.076	20.214	4.059	0.437
126.000	132.512	79.992	19.997	103.075	20.223	3.439	0.428
127.999	133.408	79.993	19.996	103.076	20.216	3.920	0.456
130.000	134.335	79.993	19.995	103.074	20.220	3.629	0.455
132.000	135.227	79.992	19.995	103.073	20.220	3.599	0.435
134.000	136.159	79.993	19.996	103.076	20.220	3.616	0.485
136.000	137.097	79.993	19.997	103.071	20.219	3.692	0.487
138.000	138.084	79.992	19.995	103.077	20.216	3.893	0.470
140.000	139.046	79.993	19.997	103.099	20.220	3.644	0.483
142.001	139.970	79.992	19.995	103.089	20.217	3.868	0.480
144.000	140.973	79.992	19.996	103.082	20.218	3.772	0.499
146.000	141.987	79.994	19.995	103.074	20.219	3.708	0.504
148.000	142.942	79.996	19.996	103.070	20.216	3.947	0.458
150.000	143.941	79.993	19.996	103.073	20.218	3.738	0.488
152.000	144.977	79.996	19.996	103.075	20.216	3.931	0.499
154.000	145.950	79.995	19.995	103.072	20.214	4.045	0.481
156.000	146.993	79.994	19.995	103.073	20.219	3.684	0.508
158.000	147.969	79.994	19.995	103.070	20.217	3.810	0.500
160.000	149.007	79.992	19.995	103.071	20.219	3.728	0.523
162.000	150.013	79.992	19.996	103.073	20.216	3.883	0.525
164.000	151.040	79.992	19.996	103.073	20.219	3.672	0.496
166.000	152.082	79.993	19.994	103.077	20.219	3.666	0.522
168.000	153.105	79.991	19.995	103.073	20.219	3.660	0.512
170.000	154.097	79.991	19.995	103.072	20.220	3.602	0.473
172.000	155.125	79.991	19.995	103.070	20.219	3.722	0.518
174.000	156.118	79.991	19.995	103.070	20.218	3.757	0.528
176.000	157.156	79.991	19.995	103.068	20.222	3.460	0.497
178.000	158.164	79.991	19.997	103.067	20.222	3.454	0.517
180.000	159.191	79.992	19.995	103.068	20.224	3.314	0.528
182.000	160.246	79.992	19.997	103.065	20.227	3.143	0.499
184.000	161.218	79.992	19.996	103.059	20.225	3.227	0.505
186.000	162.276	79.991	19.996	103.062	20.228	3.059	0.515
188.000	163.267	79.992	19.996	103.061	20.225	3.246	0.509
190.000	164.310	79.991	19.995	103.051	20.223	3.410	0.537
192.000	165.349	79.992	19.997	103.039	20.225	3.238	0.533
194.000	166.399	79.991	19.996	103.058	20.228	3.045	0.547
196.000	167.395	79.992	19.996	103.051	20.225	3.274	0.501
198.000	168.370	79.991	19.995	103.050	20.225	3.238	0.459
200.000	169.424	79.993	19.997	103.044	20.221	3.523	0.495
202.000	170.438	79.992	19.997	103.045	20.219	3.680	0.528
204.000	171.448	79.994	19.995	103.038	20.222	3.441	0.504
206.000	172.402	79.993	19.998	103.035	20.223	3.413	0.491
208.000	173.451	79.993	19.997	103.032	20.223	3.414	0.530
210.000	174.406	79.993	19.997	103.031	20.226	3.214	0.498
212.000	175.389	79.992	19.996	103.025	20.221	3.561	0.453
214.000	176.369	79.991	19.996	103.026	20.223	3.417	0.503
216.000	177.343	79.991	19.997	103.027	20.222	3.443	0.480
218.000	178.342	79.992	19.996	103.031	20.223	3.380	0.508
220.000	179.328	79.992	19.996	103.031	20.223	3.431	0.490
222.000	180.307	79.993	19.996	103.030	20.224	3.318	0.498
224.000	181.258	79.994	19.996	103.031	20.224	3.344	0.471
226.000	182.301	79.995	19.995	103.031	20.226	3.152	0.487
228.000	183.273	79.993	19.995	103.030	20.225	3.242	0.531
230.000	184.224	79.995	19.996	103.032	20.224	3.360	0.455
232.000	185.201	79.994	19.995	103.027	20.222	3.503	0.508
234.000	186.217	79.994	19.994	103.031	20.220	3.639	0.516
236.000	187.208	79.992	19.996	103.030	20.221	3.561	0.503
238.000	188.121	79.992	19.995	103.028	20.218	3.736	0.442
240.000	189.106	79.990	19.995	103.031	20.221	3.543	0.478
242.000	190.070	79.992	19.996	103.027	20.217	3.834	0.471
244.000	191.036	79.992	19.995	103.028	20.219	3.690	0.463
246.000	192.010	79.991	19.996	103.023	20.221	3.577	0.473
248.000	192.931	79.992	19.996	103.017	20.217	3.852	0.489
250.000	193.855	79.993	19.995	103.022	20.213	4.126	0.482
252.000	194.834	79.995	19.996	103.025	20.220	3.586	0.476
254.000	195.728	79.992	19.995	103.028	20.218	3.795	0.445
256.000	196.678	79.994	19.995	103.022	20.216	3.935	0.463
258.000	197.650	79.993	19.996	103.023	20.212	4.195	0.487
260.000	198.578	79.994	19.997	103.010	20.218	3.798	0.499
262.000	199.522	79.992	19.996	102.999	20.216	3.891	0.479
264.000	200.435	79.992	19.994	103.012	20.217	3.842	0.437
266.000	201.344	79.992	19.996	103.008	20.217	3.842	0.464
268.000	202.280	79.992	19.996	103.023	20.214	4.087	0.453
270.000	203.155	79.992	19.998	103.023	20.217	3.850	0.432
272.000	204.081	79.991	19.997	103.011	20.222	3.455	0.475
274.000	204.953	79.992	19.997	103.026	20.209	4.408	0.440
276.000	205.933	79.991	19.997	103.021	20.216	3.898	0.466
278.000	206.851	79.992	19.996	103.024	20.215	3.950	0.470
280.000	207.786	79.992	19.996	103.024	20.210	4.362	0.470
282.000	208.787	79.991	19.994	103.025	20.210	4.327	0.502
284.000	209.747	79.994	19.997	103.027	20.211	4.283	0.490
286.000	210.666	79.994	19.996	103.026	20.211	4.272	0.460
288.000	211.601	79.992	19.997	103.031	20.213	4.147	0.470
290.000	212.566	79.994	19.996	103.026	20.209	4.422	0.489
292.000	213.514	79.993	19.996	103.030	20.209	4.414	0.485
294.000	214.454	79.992	19.995	103.031	20.212	4.189	0.482
296.000	215.434	79.992	19.996	103.028	20.209	4.392	0.497
298.000	216.377	79.990	19.996	103.022	20.212	4.233	0.468
300.000	217.389	79.991	19.996	103.029	20.212	4.223	0.493
302.000	218.328	79.991	19.997	103.028	20.210	4.376	0.465
304.000	219.325	79.991	19.996	103.031	20.213	4.119	0.501
306.000	220.280	79.993	19.996	103.029	20.208	4.478	0.470
308.000	221.287	79.994	19.996	103.029	20.208	4.520	0.496
310.000	222.280	79.995	19.996	103.022	20.211	4.247	0.506
312.000	223.258	79.995	19.994	103.022	20.208	4.514	0.491
314.000	224.236	79.994	19.996	103.017	20.203	4.879	0.487
316.000	225.252	79.994	19.993	103.021	20.203	4.821	0.524
318.000	226.304	79.992	19.996	103.026	20.211	4.272	0.544
320.000	227.246	79.992	19.995	103.027	20.203	4.882	0.498
322.000	228.234	79.992	19.996	103.026	20.203	4.875	0.504
324.000	229.285	79.992	19.996	103.026	20.204	4.781	0.489
326.000	230.293	79.992	19.996	103.029	20.202	4.935	0.477
328.000	231.281	79.993	19.994	103.027	20.206	4.608	0.473
330.000	232.280	79.992	19.995	103.014	20.209	4.398	0.519
332.000	233.261	79.993	19.997	103.021	20.201	5.016	0.497
334.000	234.265	79.991	19.995	103.024	20.200	5.080	0.517
336.000	235.285	79.992	19.996	103.019	20.198	5.213	0.530
338.000	236.253	79.993	19.996	103.028	20.196	5.377	0.474
340.000	237.339	79.992	19.995	103.028	20.197	5.292	0.545
342.000	238.367	79.990	19.995	103.016	20.195	5.409	0.521
344.000	239.327	79.991	19.995	103.019	20.194	5.509	0.499
346.000	240.341	79.992	19.995	103.024	20.198	5.231	0.491
348.000	241.298	79.992	19.996	103.012	20.195	5.457	0.471
350.000	242.345	79.991	19.995	103.026	20.195	5.427	0.547
352.000	243.366	79.991	19.996	103.028	20.191	5.758	0.540
354.000	244.391	79.990	19.995	103.026	20.193	5.613	0.507
356.000	245.387	79.992	19.995	103.027	20.185	6.156	0.507
358.000	246.411	79.992	19.996	103.024	20.184	6.200	0.507
360.000	247.401	79.992	19.996	103.031	20.178	6.691	0.492
362.000	248.428	79.991	19.995	103.016	20.173	7.054	0.503
364.000	249.451	79.991	19.995	103.029	20.171	7.201	0.518
366.000	250.484	79.993	19.996	103.025	20.171	7.187	0.508
368.000	251.488	79.992	19.995	103.011	20.159	8.052	0.489
370.000	252.506	79.992	19.996	103.023	20.163	7.779	0.475
372.000	253.505	79.994	19.996	103.026	20.156	8.244	0.498
374.000	254.452	79.992	19.996	103.022	20.149	8.745	0.471
376.000	255.510	79.992	19.995	103.018	20.141	9.364	0.530
378.000	256.495	79.992	19.997	103.022	20.138	9.590	0.482
380.000	257.514	79.993	19.998	103.019	20.139	9.465	0.510
382.000	258.531	79.992	19.997	103.021	20.129	10.253	0.514
384.000	259.510	79.993	19.996	103.017	20.125	10.491	0.515
386.000	260.475	79.993	19.996	103.012	20.118	10.999	0.484
388.000	261.453	79.992	19.995	103.018	20.107	11.802	0.491
390.000	262.455	79.993	19.995	103.009	20.100	12.321	0.504
392.000	263.397	79.993	19.996	103.018	20.096	12.608	0.467
394.000	264.396	79.993	19.997	103.021	20.088	13.195	0.474
396.000	265.355	79.992	19.997	103.025	20.079	13.858	0.481
398.000	266.349	79.992	19.996	103.016	20.071	14.400	0.482
400.000	267.339	79.993	19.997	103.026	20.059	15.275	0.491
402.000	268.327	79.991	19.996	103.018	20.049	16.055	0.505
404.000	269.289	79.991	19.996	103.025	20.040	16.669	0.499
406.000	270.303	79.993	19.996	103.024	20.035	17.029	0.497
408.000	271.268	79.992	19.997	103.027	20.020	18.098	0.489
410.000	272.309	79.991	19.994	103.031	20.010	18.843	0.495
412.000	273.271	79.991	19.996	103.016	20.009	18.949	0.503
414.000	274.217	79.991	19.995	103.026	20.000	19.605	0.469
416.000	275.160	79.991	19.996	103.029	19.986	20.574	0.453
418.000	276.182	79.991	19.995	103.030	19.972	21.619	0.482
420.000	277.082	79.993	19.996	103.028	19.962	22.319	0.480
422.000	278.064	79.991	19.996	103.030	19.950	23.244	0.455
424.000	279.059	79.990	19.994	103.031	19.948	23.385	0.530
426.000	280.023	79.991	19.995	103.029	19.933	24.464	0.487
428.000	281.001	79.991	19.995	103.029	19.927	24.857	0.479
430.000	281.925	79.990	19.995	103.031	19.913	25.878	0.448
432.000	282.942	79.991	19.995	103.044	19.895	27.234	0.496
434.000	283.857	79.989	19.995	103.053	19.881	28.218	0.479
436.000	284.838	79.989	19.994	103.034	19.874	28.722	0.504
438.000	285.807	79.992	19.997	103.016	19.873	28.805	0.505
440.000	286.808	79.991	19.997	103.018	19.868	29.153	0.474
442.000	287.762	79.991	19.995	103.038	19.864	29.419	0.469
444.000	288.806	79.992	19.995	103.035	19.860	29.764	0.527
446.000	289.738	79.991	19.995	103.028	19.849	30.537	0.489
448.000	290.729	79.993	19.995	103.023	19.854	30.163	0.510
450.000	291.724	79.992	19.995	103.027	19.853	30.229	0.488
452.000	292.729	79.993	19.995	103.028	19.850	30.476	0.503
454.000	293.742	79.992	19.997	103.017	19.851	30.415	0.497
456.000	294.706	79.993	19.998	103.018	19.854	30.164	0.528
458.000	295.718	79.991	19.996	103.028	19.859	29.773	0.527
460.000	296.654	79.992	19.995	103.015	19.856	30.050	0.490
462.000	297.668	79.992	19.997	103.014	19.855	30.072	0.498
464.000	298.654	79.993	19.995	103.005	19.864	29.460	0.489
466.000	299.618	79.992	19.996	103.011	19.868	29.127	0.496
468.000	300.624	79.993	19.997	103.002	19.875	28.677	0.472
470.000	301.569	79.995	19.996	103.014	19.878	28.456	0.467
472.000	302.548	79.996	19.997	103.019	19.887	27.815	0.474
474.000	303.558	79.991	19.995	103.016	19.892	27.395	0.486
476.000	304.517	79.991	19.995	103.012	19.884	27.978	0.511
478.000	305.519	79.990	19.996	103.018	19.898	27.006	0.489
480.000	306.554	79.991	19.997	103.012	19.902	26.708	0.512
482.000	307.494	79.992	19.997	103.021	19.906	26.406	0.539
484.000	308.629	79.991	19.996	103.023	19.914	25.801	0.563
486.000	309.384	79.990	19.996	103.022	19.906	26.367	0.589
488.000	310.543	79.991	19.996	103.027	19.906	26.384	0.334
490.000	311.424	79.989	19.995	103.027	19.908	26.246	0.571
492.000	312.587	79.991	19.996	103.024	19.903	26.625	0.620
494.000	313.523	79.991	19.995	103.030	19.906	26.368	0.581
496.000	314.612	79.992	19.995	103.007	19.904	26.550	0.486
498.000	315.651	79.991	19.996	103.026	19.898	26.955	0.507
500.000	316.644	79.990	19.995	103.029	19.894	27.281	0.553
502.000	317.664	79.992	19.996	103.026	19.892	27.419	0.500
504.000	318.684	79.991	19.996	103.020	19.880	28.303	0.479
506.000	319.714	79.993	19.995	103.021	19.872	28.877	0.491
508.000	320.755	79.991	19.996	103.027	19.860	29.735	0.488
510.000	321.801	79.990	19.997	103.028	19.851	30.362	0.491
512.000	322.854	79.991	19.996	103.029	19.843	30.987	0.516
514.000	323.889	79.993	19.996	103.033	19.831	31.843	0.510
516.000	324.885	79.990	19.996	103.042	19.821	32.601	0.533
518.000	325.924	79.992	19.996	103.052	19.802	33.980	0.514
520.000	326.972	79.992	19.995	103.043	19.781	35.508	0.541
522.000	328.004	79.995	19.995	103.043	19.765	36.615	0.514
524.000	329.038	79.993	19.995	103.035	19.752	37.590	0.515
526.000	330.082	79.994	19.996	103.031	19.728	39.346	0.520
528.000	331.101	79.994	19.995	103.031	19.715	40.263	0.508
530.000	332.111	79.993	19.996	103.047	19.700	41.359	0.499
532.000	333.154	79.993	19.995	103.056	19.680	42.851	0.527
534.000	334.137	79.993	19.996	103.039	19.659	44.378	0.498
536.000	335.170	79.992	19.996	103.051	19.642	45.607	0.508
538.000	336.128	79.993	19.996	103.063	19.614	47.767	0.485
540.000	337.167	79.991	19.995	103.070	19.590	49.426	0.496
542.000	338.148	79.992	19.996	103.067	19.564	51.184	0.504
544.000	339.216	79.993	19.996	103.074	19.536	53.167	0.514
546.000	340.191	79.993	19.996	103.070	19.405	62.784	0.484
548.000	341.190	79.993	19.995	103.332	19.248	74.289	0.477
550.000	342.188	79.993	19.996	103.425	19.173	79.770	0.496
552.000	343.166	79.992	19.995	103.084	19.142	81.944	0.510
554.000	344.131	79.992	19.994	102.859	19.130	82.777	0.496
556.000	345.099	79.994	19.996	102.926	19.117	83.779	0.466
558.000	346.134	79.991	19.995	103.123	19.099	85.367	0.498
560.000	347.135	79.991	19.997	103.209	19.064	88.008	0.493
562.000	348.082	79.991	19.995	103.191	19.038	89.504	0.495
564.000	349.084	79.992	19.996	103.114	19.015	90.805	0.494
566.000	350.072	79.990	19.996	103.104	18.921	97.693	0.492
568.000	351.022	79.991	19.996	103.258	18.703	114.169	0.469
570.000	351.976	79.991	19.998	103.616	18.511	128.331	0.477
572.000	353.072	79.990	19.997	103.459	18.466	131.384	0.555
574.000	354.058	79.991	19.996	102.916	18.492	129.095	0.504
576.000	355.032	79.991	19.997	102.724	18.449	132.197	0.514
578.000	356.019	79.991	19.996	103.095	18.323	141.447	0.485
580.000	357.016	79.992	19.995	103.609	18.203	150.415	0.501
582.000	358.021	79.991	19.996	103.512	18.116	156.895	0.509
584.000	359.008	79.992	19.996	103.246	18.045	162.207	0.482
586.000	359.996	79.991	19.996	103.046	17.999	165.446	0.497
588.000	360.988	79.990	19.995	103.123	17.954	168.276	0.499
590.000	361.989	79.990	19.996	103.231	17.871	174.062	0.539
592.000	363.039	79.990	19.995	103.376	17.739	183.837	0.501
594.000	364.001	79.990	19.995	103.466	17.572	196.483	0.483
596.000	364.979	79.992	19.996	103.538	17.462	204.254	0.479
598.000	366.007	79.990	19.995	103.270	17.420	207.132	0.503
600.000	367.022	79.992	19.995	103.017	17.395	208.893	0.514
602.000	367.982	79.992	19.996	103.045	17.353	212.224	0.478
604.000	369.036	79.992	19.996	103.236	17.324	214.453	0.480
606.000	370.058	79.994	19.995	103.384	17.339	212.989	0.488
608.000	371.099	79.993	19.995	103.204	17.369	210.776	0.518
610.000	372.098	79.993	19.995	103.121	17.381	209.977	0.501
612.000	373.182	79.992	19.994	103.190	17.367	211.118	0.515
614.000	374.247	79.991	19.995	103.380	17.380	210.171	0.552
616.000	375.263	79.992	19.995	103.288	17.409	207.951	0.524
618.000	376.265	79.990	19.995	103.166	17.436	206.001	0.518
620.000	377.296	79.993	19.995	103.172	17.466	203.827	0.538
622.000	378.336	79.992	19.995	103.216	17.485	202.463	0.520
624.000	379.392	79.993	19.996	103.278	17.519	199.988	0.542
626.000	380.458	79.994	19.994	103.240	17.545	198.025	0.533
628.000	381.491	79.994	19.996	103.212	17.573	196.003	0.486
630.000	382.522	79.993	19.995	103.219	17.606	193.591	0.511
632.000	383.556	79.993	19.996	103.218	17.642	190.915	0.506
634.000	384.633	79.992	19.995	103.221	17.677	188.351	0.527
636.000	385.661	79.991	19.996	103.196	17.717	185.436	0.505
638.000	386.735	79.992	19.997	103.182	17.779	180.959	0.538
640.000	387.762	79.991	19.996	103.178	17.824	177.632	0.511
642.000	388.842	79.991	19.996	103.167	17.883	173.302	0.557
644.000	389.908	79.991	19.995	103.157	17.949	168.491	0.547
646.000	390.974	79.992	19.997	103.141	18.016	163.574	0.544
648.000	392.012	79.991	19.997	103.142	18.092	158.107	0.534
650.000	393.090	79.990	19.996	103.126	18.171	152.371	0.536
652.000	394.205	79.990	19.995	103.104	18.258	145.988	0.569
654.000	395.312	79.989	19.995	103.101	18.341	139.949	0.555
656.000	396.396	79.990	19.996	103.075	18.432	133.325	0.565
658.000	397.509	79.990	19.997	103.068	18.525	126.625	0.535
660.000	398.552	79.990	19.997	103.061	18.611	120.320	0.532
662.000	399.630	79.990	19.996	103.047	18.714	112.894	0.514
664.000	400.742	79.990	19.997	103.032	18.813	105.701	0.548
666.000	401.835	79.990	19.997	103.031	18.908	98.759	0.545
668.000	402.869	79.991	19.997	103.018	19.003	91.924	0.524
670.000	403.975	79.990	19.995	103.005	19.095	85.190	0.556
672.000	405.030	79.991	19.995	102.994	19.190	78.303	0.531
674.000	406.083	79.991	19.996	102.994	19.273	72.328	0.529
676.000	407.189	79.991	19.996	102.991	19.357	66.200	0.557
678.000	408.242	79.991	19.995	103.000	19.437	60.400	0.523
680.000	409.306	79.992	19.995	102.992	19.509	55.191	0.533
682.000	410.365	79.991	19.995	102.981	19.578	50.172	0.570
684.000	411.437	79.993	19.995	102.971	19.645	45.297	0.526
686.000	412.471	79.993	19.995	102.966	19.706	40.912	0.531
688.000	413.499	79.994	19.996	102.967	19.760	36.966	0.519
690.000	414.559	79.993	19.995	102.960	19.806	33.652	0.526
692.000	415.575	79.992	19.996	102.959	19.858	29.858	0.529
694.000	416.594	79.992	19.997	102.977	19.893	27.357	0.496
696.000	417.646	79.992	19.995	102.955	19.928	24.764	0.499
698.000	418.675	79.994	19.996	102.955	19.964	22.164	0.486
700.000	419.740	79.992	19.995	102.967	19.993	20.044	0.513
702.000	420.803	79.994	19.995	102.963	20.023	17.881	0.552
704.000	421.814	79.993	19.996	102.957	20.047	16.173	0.522
706.000	422.831	79.994	19.993	102.952	20.071	14.400	0.479
708.000	423.863	79.994	19.995	102.949	20.087	13.286	0.502
710.000	424.894	79.993	19.994	102.949	20.103	12.079	0.500
712.000	425.905	79.993	19.994	102.949	20.116	11.129	0.483
714.000	426.905	79.994	19.996	102.950	20.130	10.173	0.496
716.000	427.949	79.993	19.995	102.948	20.140	9.422	0.507
718.000	428.996	79.992	19.997	102.949	20.151	8.593	0.507
720.000	429.979	79.992	19.996	102.948	20.160	7.961	0.529
722.000	431.000	79.990	19.995	102.949	20.172	7.123	0.510
724.000	432.013	79.992	19.996	102.950	20.181	6.430	0.504
726.000	433.044	79.992	19.995	102.951	20.186	6.119	0.523
728.000	434.069	79.991	19.996	102.953	20.191	5.684	0.532
730.000	435.107	79.991	19.996	102.957	20.195	5.429	0.494
732.000	436.097	79.991	19.996	102.949	20.205	4.676	0.506
734.000	437.110	79.990	19.995	102.961	20.213	4.144	0.499
736.000	438.111	79.992	19.995	102.957	20.212	4.220	0.502
738.000	439.130	79.991	19.995	102.959	20.211	4.240	0.490
740.001	440.139	79.990	19.996	102.958	20.213	4.146	0.522
742.000	441.118	79.991	19.996	102.955	20.217	3.863	0.515
744.000	442.151	79.989	19.994	102.955	20.222	3.469	0.500
746.000	443.160	79.990	19.997	102.963	20.223	3.419	0.509
748.000	444.125	79.990	19.997	102.962	20.230	2.899	0.505
750.000	445.149	79.992	19.996	102.954	20.217	3.859	0.520
752.000	446.117	79.991	19.996	102.954	20.222	3.441	0.496
754.000	447.100	79.989	19.996	102.957	20.229	2.943	0.484
756.000	448.085	79.991	19.997	102.955	20.226	3.164	0.492
758.000	449.116	79.992	19.996	102.957	20.227	3.100	0.511
760.000	450.126	79.992	19.996	102.958	20.228	3.030	0.513
762.000	451.084	79.992	19.995	102.947	20.231	2.815	0.524
764.000	452.066	79.993	19.995	102.956	20.228	3.009	0.502
766.000	453.092	79.993	19.996	102.956	20.226	3.190	0.505
768.000	454.128	79.993	19.996	102.953	20.224	3.315	0.506
770.000	455.126	79.994	19.995	102.958	20.229	2.955	0.481
772.000	456.159	79.992	19.994	102.951	20.227	3.136	0.519
774.000	457.100	79.994	19.996	102.957	20.225	3.228	0.472
776.000	458.124	79.992	19.996	102.956	20.226	3.218	0.516
778.000	459.146	79.992	19.995	102.956	20.228	3.037	0.480
780.000	460.169	79.993	19.995	102.957	20.227	3.090	0.485
782.000	461.160	79.992	19.995	102.951	20.231	2.847	0.524
784.000	462.166	79.993	19.996	102.952	20.231	2.807	0.541
786.000	463.155	79.993	19.995	102.955	20.231	2.841	0.483
788.000	464.153	79.994	19.996	102.953	20.225	3.271	0.501
790.000	465.171	79.995	19.995	102.972	20.232	2.718	0.496
792.000	466.142	79.994	19.994	102.952	20.224	3.320	0.506
794.000	467.144	79.994	19.995	102.955	20.230	2.866	0.482
796.000	468.156	79.993	19.996	102.961	20.230	2.905	0.487
798.000	469.183	79.991	19.996	102.962	20.233	2.684	0.531
800.000	470.191	79.992	19.995	102.954	20.233	2.700	0.482
802.000	471.174	79.992	19.995	102.964	20.232	2.749	0.507
804.000	472.218	79.991	19.995	102.976	20.232	2.765	0.522
806.000	473.258	79.990	19.994	102.973	20.233	2.690	0.499
808.000	474.291	79.991	19.996	102.966	20.234	2.624	0.513
810.000	475.338	79.990	19.996	102.966	20.232	2.771	0.545
812.000	476.364	79.989	19.995	102.958	20.231	2.845	0.506
814.000	477.356	79.991	19.995	102.953	20.231	2.819	0.496
816.000	478.348	79.992	19.997	102.956	20.236	2.490	0.484
818.000	479.383	79.990	19.996	102.958	20.234	2.584	0.492
820.000	480.424	79.991	19.995	102.951	20.232	2.783	0.495
822.000	481.433	79.992	19.996	102.952	20.238	2.329	0.487
824.000	482.420	79.990	19.996	102.949	20.239	2.237	0.481
826.000	483.480	79.991	19.995	102.956	20.235	2.556	0.527
828.000	484.474	79.990	19.995	102.952	20.231	2.801	0.507
830.000	485.465	79.989	19.996	102.950	20.235	2.546	0.506
832.000	486.535	79.991	19.996	102.957	20.233	2.654	0.531
834.000	487.538	79.990	19.996	102.952	20.234	2.570	0.476
836.000	488.551	79.991	19.996	102.951	20.235	2.564	0.490
838.000	489.534	79.991	19.997	102.959	20.233	2.682	0.513
840.000	490.556	79.991	19.996	102.950	20.236	2.423	0.480
842.000	491.584	79.990	19.996	102.950	20.234	2.578	0.525
844.000	492.571	79.991	19.996	102.958	20.234	2.600	0.504
846.000	493.584	79.993	19.996	102.950	20.235	2.557	0.511
848.000	494.625	79.992	19.996	102.950	20.234	2.594	0.535
850.000	495.623	79.992	19.995	102.956	20.234	2.614	0.497
852.000	496.622	79.991	19.996	102.962	20.234	2.636	0.470
854.000	497.681	79.993	19.995	102.949	20.236	2.451	0.509
856.000	498.678	79.990	19.994	102.959	20.234	2.574	0.487
858.000	499.720	79.991	19.995	102.975	20.236	2.453	0.526
860.000	500.697	79.991	19.994	102.965	20.236	2.423	0.517
862.000	501.704	79.992	19.994	102.955	20.238	2.295	0.492
864.000	502.748	79.992	19.996	102.961	20.236	2.487	0.489
866.000	503.809	79.994	19.995	102.959	20.234	2.566	0.519
868.000	504.786	79.993	19.995	102.959	20.235	2.518	0.496
870.000	505.793	79.993	19.995	102.952	20.236	2.425	0.513
872.000	506.791	79.994	19.994	102.954	20.232	2.784	0.514
874.000	507.798	79.994	19.995	102.964	20.236	2.457	0.531
876.000	508.802	79.992	19.995	102.959	20.237	2.413	0.520
878.000	509.796	79.993	19.996	102.951	20.234	2.614	0.505
880.000	510.748	79.991	19.995	102.958	20.230	2.927	0.470
882.000	511.764	79.990	19.995	102.955	20.234	2.628	0.493
884.000	512.742	79.991	19.995	102.962	20.230	2.867	0.498
886.000	513.743	79.993	19.995	102.959	20.232	2.777	0.484
888.000	514.782	79.991	19.995	102.961	20.229	2.987	0.512
890.000	515.777	79.992	19.996	102.963	20.231	2.788	0.481
892.000	516.806	79.991	19.995	102.945	20.232	2.779	0.519
894.000	517.837	79.991	19.994	102.953	20.232	2.747	0.495
896.000	518.819	79.992	19.994	102.956	20.227	3.088	0.504
898.000	519.870	79.991	19.995	102.955	20.229	2.993	0.526
900.000	520.928	79.992	19.995	102.967	20.230	2.887	0.539
902.000	521.988	79.991	19.996	102.959	20.231	2.843	0.518
904.000	523.062	79.992	19.996	102.952	20.227	3.140	0.560
906.000	524.118	79.991	19.996	102.952	20.230	2.857	0.517
908.000	525.188	79.989	19.996	102.955	20.230	2.907	0.555
910.000	526.232	79.991	19.996	102.954	20.229	2.977	0.515
912.000	527.307	79.990	19.996	102.950	20.233	2.686	0.530
914.000	528.406	79.990	19.996	102.956	20.235	2.564	0.518
916.000	529.451	79.991	19.995	102.955	20.233	2.660	0.503
918.000	530.533	79.990	19.996	102.966	20.230	2.877	0.503
920.000	531.634	79.991	19.995	102.954	20.229	2.997	0.558
922.000	532.700	79.992	19.996	102.952	20.229	2.979	0.532
924.000	533.823	79.991	19.995	102.952	20.230	2.915	0.543
926.000	534.924	79.992	19.995	102.956	20.233	2.678	0.562
928.000	536.006	79.991	19.996	102.955	20.235	2.520	0.541
930.000	537.068	79.991	19.996	102.951	20.233	2.694	0.525
932.000	538.156	79.991	19.997	102.961	20.238	2.305	0.530
934.000	539.242	79.990	19.997	102.958	20.233	2.700	0.556
936.000	540.284	79.990	19.997	102.958	20.231	2.847	0.518
938.000	541.399	79.992	19.997	102.951	20.233	2.698	0.527
940.000	542.488	79.990	19.997	102.952	20.229	2.931	0.552
942.000	543.574	79.993	19.996	102.957	20.235	2.520	0.549
944.000	544.613	79.993	19.996	102.972	20.233	2.676	0.522
946.000	545.696	79.993	19.996	102.951	20.235	2.558	0.535
948.000	546.806	79.995	19.995	102.955	20.234	2.596	0.532
950.000	547.884	79.994	19.994	102.954	20.232	2.743	0.539
952.000	548.955	79.993	19.995	102.952	20.232	2.749	0.544
954.000	549.985	79.993	19.995	102.948	20.230	2.915	0.535
956.000	551.066	79.992	19.995	102.953	20.231	2.801	0.527
958.000	552.126	79.992	19.995	102.950	20.239	2.245	0.536
960.000	553.193	79.992	19.995	102.953	20.233	2.662	0.530
962.000	554.283	79.991	19.996	102.953	20.234	2.574	0.548
964.000	555.346	79.992	19.995	102.950	20.228	3.009	0.514
966.000	556.390	79.993	19.996	102.952	20.233	2.672	0.537
968.000	557.417	79.993	19.996	102.959	20.231	2.811	0.506
970.000	558.482	79.992	19.996	102.950	20.230	2.895	0.520
972.000	559.532	79.994	19.996	102.949	20.232	2.748	0.541
974.000	560.514	79.992	19.996	102.958	20.234	2.622	0.531
976.000	561.551	79.993	19.994	102.949	20.231	2.803	0.536
978.000	562.625	79.991	19.995	102.955	20.235	2.564	0.553
980.000	563.654	79.993	19.995	102.954	20.233	2.710	0.552
982.000	564.654	79.991	19.995	102.959	20.232	2.749	0.494
984.000	565.668	79.990	19.995	102.955	20.233	2.674	0.542
986.000	566.710	79.990	19.995	102.955	20.232	2.730	0.522
988.000	567.651	79.991	19.995	102.963	20.227	3.120	0.511
990.000	568.699	79.990	19.995	102.953	20.230	2.895	0.512
992.000	569.703	79.989	19.996	102.953	20.227	3.088	0.485
994.000	570.754	79.991	19.995	102.953	20.236	2.443	0.516
996.000	571.759	79.992	19.996	102.957	20.231	2.841	0.530
998.000	572.780	79.991	19.996	102.953	20.231	2.837	0.536
1000.000	573.798	79.990	19.996	102.954	20.227	3.074	0.531
1002.000	574.832	79.991	19.995	102.954	20.230	2.915	0.534
1004.000	575.846	79.992	19.995	102.952	20.231	2.829	0.522
1006.000	576.911	79.993	19.995	102.952	20.227	3.096	0.522
1008.000	577.897	79.995	19.994	102.952	20.230	2.875	0.516
1010.000	578.885	79.993	19.995	102.950	20.229	2.986	0.517
1012.000	579.858	79.994	19.996	102.951	20.231	2.811	0.497
1014.000	580.851	79.993	19.997	102.952	20.230	2.915	0.477
1016.000	581.809	79.994	19.996	102.952	20.230	2.924	0.462
1018.000	582.876	79.992	19.995	102.950	20.231	2.823	0.519
1020.000	583.807	79.993	19.996	102.949	20.231	2.815	0.462
1022.000	584.814	79.989	19.996	102.953	20.232	2.729	0.499
1024.000	585.820	79.992	19.997	102.955	20.230	2.877	0.497
1025.999	586.846	79.993	19.998	102.940	20.227	3.074	0.516
1027.999	587.736	79.993	19.997	102.947	20.228	3.064	0.441
1029.999	588.777	79.994	19.995	102.949	20.227	3.096	0.488
1031.999	589.789	79.996	19.995	102.946	20.228	3.033	0.518
1034.000	590.784	79.993	19.995	102.948	20.230	2.885	0.511
1035.999	591.738	79.992	19.996	102.950	20.225	3.228	0.488
1037.999	592.736	79.990	19.995	102.950	20.228	3.039	0.507
1039.999	593.766	79.991	19.995	102.949	20.232	2.756	0.492
1041.999	594.695	79.994	19.994	102.964	20.230	2.927	0.456
1044.000	595.729	79.989	19.996	102.960	20.228	3.038	0.505
1045.999	596.726	79.991	19.996	102.967	20.227	3.108	0.503
1047.999	597.725	79.990	19.995	102.960	20.227	3.108	0.496
1049.999	598.727	79.992	19.996	102.963	20.226	3.178	0.458
1051.999	599.712	79.990	19.995	102.952	20.226	3.152	0.474
1054.000	600.733	79.991	19.995	102.952	20.228	3.011	0.507
1056.000	601.708	79.991	19.995	102.959	20.225	3.228	0.496
1058.000	602.715	79.990	19.995	102.961	20.229	2.969	0.473
1059.999	603.696	79.992	19.995	102.955	20.229	2.965	0.496
1061.999	604.711	79.992	19.995	102.951	20.231	2.811	0.526
1063.999	605.690	79.991	19.996	102.959	20.229	2.976	0.524
1065.999	606.707	79.990	19.995	102.964	20.225	3.235	0.511
1067.999	607.720	79.989	19.995	102.960	20.229	2.994	0.532
1069.999	608.685	79.989	19.994	102.952	20.226	3.184	0.473
1071.999	609.717	79.989	19.994	102.955	20.227	3.078	0.508
1073.999	610.721	79.991	19.996	102.951	20.228	3.059	0.516
1075.999	611.705	79.991	19.995	102.950	20.233	2.644	0.485
1078.000	612.704	79.991	19.996	102.948	20.227	3.132	0.506
1079.999	613.690	79.993	19.996	102.955	20.227	3.144	0.496
1081.999	614.717	79.993	19.997	102.953	20.225	3.242	0.502
1084.001	615.719	79.993	19.996	102.956	20.225	3.286	0.493
1085.999	616.724	79.993	19.996	102.962	20.226	3.217	0.507
1087.999	617.713	79.995	19.996	102.960	20.226	3.158	0.480
1089.999	618.731	79.993	19.997	102.953	20.226	3.216	0.528
1092.000	619.730	79.992	19.997	102.951	20.224	3.328	0.503
1093.999	620.723	79.994	19.996	102.963	20.229	2.979	0.494
1095.999	621.693	79.992	19.994	102.949	20.227	3.077	0.522
1097.999	622.686	79.993	19.995	102.953	20.228	3.057	0.505
1099.999	623.683	79.993	19.995	102.958	20.226	3.168	0.506
1102.000	624.685	79.994	19.995	102.960	20.224	3.352	0.511
1103.999	625.683	79.993	19.996	102.959	20.224	3.292	0.519
1106.000	626.680	79.994	19.996	102.965	20.225	3.220	0.521
1108.001	627.683	79.992	19.995	102.971	20.227	3.106	0.499
1109.999	628.702	79.994	19.996	102.959	20.225	3.264	0.511
1112.000	629.712	79.993	19.995	102.965	20.221	3.511	0.493
1114.000	630.723	79.994	19.996	102.965	20.225	3.228	0.461
1115.999	631.770	79.993	19.996	102.967	20.223	3.423	0.517
1118.000	632.818	79.991	19.995	102.975	20.223	3.398	0.515
1119.999	633.851	79.991	19.996	102.959	20.223	3.416	0.501
1122.000	634.936	79.990	19.997	102.973	20.218	3.776	0.543
1124.000	636.033	79.992	19.995	102.968	20.221	3.545	0.568
1126.000	637.012	79.990	19.995	102.971	20.223	3.393	0.509
1128.000	638.120	79.992	19.995	102.964	20.221	3.535	0.543
1129.999	639.151	79.994	19.996	102.979	20.223	3.414	0.512
1132.000	640.207	79.993	19.995	102.979	20.225	3.245	0.515
1133.999	641.281	79.990	19.995	102.979	20.222	3.471	0.540
1136.000	642.321	79.991	19.995	102.974	20.217	3.808	0.502
1137.999	643.418	79.992	19.996	102.961	20.221	3.529	0.563
1139.999	644.481	79.993	19.995	102.966	20.217	3.811	0.523
1141.999	645.515	79.992	19.995	102.967	20.217	3.818	0.521
1143.999	646.590	79.993	19.995	102.957	20.216	3.922	0.512
1145.999	647.653	79.992	19.995	102.974	20.222	3.463	0.528
1147.999	648.739	79.993	19.995	102.951	20.218	3.744	0.503
1149.999	649.792	79.989	19.997	102.959	20.216	3.941	0.534
1151.999	650.819	79.990	19.994	102.951	20.219	3.720	0.512
1154.001	651.897	79.989	19.995	102.974	20.218	3.770	0.548
1155.999	652.903	79.991	19.996	102.958	20.219	3.684	0.537
1157.999	653.987	79.992	19.995	102.954	20.217	3.825	0.515
1159.999	655.045	79.992	19.995	102.957	20.216	3.897	0.518
1162.000	656.075	79.996	19.995	102.960	20.216	3.897	0.486
1164.000	657.101	79.994	19.995	102.962	20.215	3.965	0.513
1165.999	658.109	79.993	19.995	102.973	20.216	3.931	0.482
1167.999	659.199	79.994	19.994	102.952	20.216	3.923	0.531
1169.999	660.231	79.993	19.994	102.952	20.214	4.033	0.521
1171.999	661.226	79.994	19.995	102.954	20.215	3.971	0.493
1173.999	662.266	79.993	19.996	102.952	20.214	4.033	0.548
1175.999	663.328	79.994	19.996	102.961	20.216	3.914	0.490
1177.999	664.326	79.993	19.995	102.970	20.215	3.959	0.510
1179.999	665.399	79.992	19.996	102.956	20.218	3.790	0.526
1181.999	666.428	79.994	19.995	102.967	20.213	4.137	0.554
1183.999	667.418	79.993	19.994	102.964	20.213	4.151	0.490
1186.000	668.514	79.993	19.996	102.973	20.214	4.040	0.531
1188.001	669.518	79.994	19.995	102.960	20.217	3.850	0.573
1189.999	670.596	79.994	19.995	102.981	20.214	4.051	0.541
1192.000	671.613	79.995	19.994	102.966	20.216	3.886	0.530
1194.000	672.649	79.995	19.996	102.972	20.215	4.007	0.533
1195.999	673.702	79.992	19.996	102.971	20.212	4.180	0.521
1197.999	674.755	79.993	19.995	102.985	20.214	4.017	0.565
1199.999	675.778	79.992	19.996	102.974	20.213	4.140	0.535
1201.999	676.804	79.991	19.996	102.977	20.214	4.075	0.522
1204.000	677.873	79.992	19.996	102.955	20.216	3.903	0.504
1205.999	678.894	79.993	19.996	102.955	20.215	3.997	0.526
1208.000	679.897	79.989	19.996	102.968	20.216	3.912	0.537
1209.999	680.903	79.991	19.996	102.956	20.217	3.804	0.497
1211.999	681.954	79.992	19.996	102.966	20.213	4.095	0.505
1213.999	682.920	79.991	19.996	102.963	20.211	4.306	0.501
1215.999	683.994	79.992	19.997	102.959	20.211	4.253	0.504
1217.999	684.957	79.990	19.996	102.977	20.212	4.225	0.510
1220.000	685.992	79.993	19.995	102.962	20.212	4.191	0.516
1222.000	686.983	79.993	19.996	102.970	20.213	4.093	0.486
1223.999	687.960	79.994	19.996	102.969	20.213	4.142	0.494
1225.999	688.989	79.993	19.996	102.969	20.213	4.156	0.532
1227.999	689.965	79.993	19.995	102.979	20.213	4.111	0.523
1229.999	690.961	79.992	19.996	102.976	20.210	4.326	0.495
1231.999	691.932	79.994	19.996	102.978	20.216	3.919	0.505
1233.999	692.960	79.992	19.995	102.968	20.214	4.022	0.515
1235.999	693.941	79.994	19.996	102.955	20.212	4.225	0.499
1237.999	694.953	79.994	19.996	102.975	20.214	4.066	0.527
1240.000	695.964	79.992	19.996	102.962	20.208	4.517	0.499
1241.999	696.917	79.993	19.996	102.954	20.207	4.587	0.442
1243.999	697.930	79.994	19.995	102.976	20.211	4.262	0.482
1245.999	698.902	79.995	19.995	102.985	20.210	4.364	0.515
1247.999	699.939	79.996	19.995	102.975	20.208	4.510	0.534
1249.999	700.855	79.992	19.996	102.977	20.210	4.368	0.488
1251.999	701.838	79.994	19.995	102.967	20.211	4.303	0.463
1253.999	702.825	79.996	19.995	102.975	20.209	4.380	0.426
1255.999	703.875	79.993	19.994	102.960	20.211	4.238	0.500
1257.999	704.871	79.990	19.996	102.982	20.209	4.379	0.546
1260.000	705.826	79.992	19.995	102.982	20.210	4.365	0.479
1262.000	706.852	79.991	19.996	102.978	20.208	4.484	0.531
1263.999	707.817	79.993	19.997	102.981	20.207	4.583	0.512
1265.999	708.748	79.995	19.996	102.968	20.210	4.316	0.474
1267.999	709.731	79.994	19.996	102.962	20.212	4.211	0.465
1269.999	710.677	79.995	19.999	102.970	20.211	4.276	0.479
1271.999	711.671	79.995	19.996	102.980	20.209	4.418	0.486
1273.999	712.636	79.997	19.996	102.975	20.212	4.211	0.468
1276.001	713.604	79.995	19.996	102.970	20.211	4.282	0.507
1277.999	714.601	79.993	19.996	102.975	20.212	4.219	0.478
1279.999	715.622	79.995	19.995	102.974	20.211	4.255	0.520
1281.999	716.618	79.993	19.997	102.972	20.209	4.398	0.509
1283.999	717.626	79.993	19.996	102.979	20.212	4.191	0.483
1285.999	718.611	79.991	19.998	102.983	20.211	4.293	0.482
1287.999	719.605	79.993	19.996	102.976	20.208	4.498	0.516
1290.000	720.595	79.994	19.996	102.984	20.211	4.239	0.496
1292.000	721.645	79.990	19.996	102.981	20.210	4.350	0.515
1294.000	722.646	79.993	19.997	102.978	20.213	4.161	0.468
1295.999	723.633	79.993	19.997	102.975	20.208	4.500	0.501
1297.999	724.662	79.992	19.996	102.982	20.208	4.464	0.516
1300.000	725.643	79.992	19.997	102.987	20.207	4.548	0.511
1302.000	726.627	79.990	19.996	102.979	20.209	4.395	0.516
1303.999	727.611	79.993	19.998	102.973	20.207	4.530	0.489
1305.999	728.590	79.990	19.996	102.981	20.204	4.749	0.499
1307.999	729.641	79.992	19.997	102.978	20.205	4.677	0.510
1309.999	730.633	79.991	19.995	102.974	20.203	4.819	0.511
1311.999	731.631	79.991	19.995	102.988	20.204	4.745	0.505
1313.999	732.633	79.990	19.995	102.987	20.206	4.659	0.530
1315.999	733.599	79.989	19.995	102.985	20.203	4.837	0.485
1317.999	734.585	79.992	19.995	102.982	20.204	4.767	0.492
1319.999	735.568	79.991	19.995	102.979	20.206	4.629	0.486
1321.999	736.548	79.992	19.995	102.987	20.204	4.751	0.479
1323.999	737.533	79.995	19.995	102.983	20.204	4.749	0.496
1325.999	738.534	79.993	19.995	102.972	20.200	5.046	0.493
1328.000	739.518	79.993	19.994	102.981	20.202	4.908	0.482
1330.000	740.533	79.993	19.996	102.976	20.201	5.000	0.490
1332.000	741.500	79.994	19.996	102.973	20.199	5.112	0.526
1333.999	742.496	79.994	19.996	102.984	20.202	4.926	0.505
1335.999	743.449	79.993	19.996	102.985	20.204	4.765	0.486
1336.499	743.704	79.992	19.996	102.984	20.204	4.745	0.447