File: 01_Data/PMMA_R05/MCC/PMMA_R05_MCC_30K_min_211013_R3.txt
Sample ID:	C:\MCC\MCC Cal\Test\PMMAR05_MCC_30K_min_211013_R3.txt
Sample Weight (mg):	4.88
Heating Rate (C/s):	0.5
Combustor Temp (C):	900
N2 Flow Rate (cc/min):	80
O2 Flow Rate (cc/min):	20
Calibration File:	C:\MCC\MCC Cal\Coeff1 JN10440_30_210304.txt.txt
T Correction Coefficients:	0	1.024463	0
Time Shift (s):	14
*
Time (s)	Temperature (C)	N2 flow rate (cc/min)	O2 flow rate (cc/min)	Flow Rate (cc/min)	Oxygen (%)	HRR (W/g)	Heating rate (C/s)
0.000	108.632	79.994	19.996	103.019	20.196	0.020	-0.018
2.000	108.631	79.992	19.997	103.020	20.193	0.214	-0.001
4.000	108.647	79.992	19.995	103.019	20.193	0.246	0.018
6.000	108.605	79.992	19.996	103.017	20.196	0.049	-0.043
8.000	108.593	79.993	19.995	103.024	20.196	0.043	0.000
10.001	108.539	79.991	19.994	103.026	20.190	0.471	-0.014
12.000	108.581	79.993	19.995	103.049	20.186	0.716	0.003
14.000	108.598	79.993	19.995	103.077	20.184	0.834	0.020
16.000	108.656	79.992	19.995	103.130	20.176	1.372	0.017
18.000	108.753	79.991	19.995	103.161	20.172	1.651	0.057
20.000	108.835	79.992	19.996	103.167	20.170	1.785	0.020
22.000	108.956	79.992	19.995	103.182	20.168	1.905	0.084
24.000	109.120	79.992	19.994	103.189	20.166	2.030	0.056
26.000	109.306	79.992	19.994	103.182	20.160	2.424	0.119
28.000	109.518	79.993	19.994	103.184	20.163	2.221	0.083
30.000	109.724	79.993	19.996	103.180	20.165	2.087	0.110
32.000	109.979	79.991	19.996	103.165	20.164	2.160	0.126
34.000	110.299	79.990	19.994	103.173	20.159	2.506	0.180
36.000	110.551	79.992	19.995	103.210	20.166	2.053	0.147
38.000	110.853	79.993	19.994	103.193	20.163	2.215	0.140
40.000	111.158	79.992	19.995	103.200	20.159	2.505	0.146
42.000	111.548	79.993	19.994	103.222	20.158	2.538	0.184
44.001	111.931	79.993	19.994	103.236	20.155	2.743	0.188
46.000	112.362	79.994	19.994	103.251	20.152	2.922	0.225
48.000	112.829	79.994	19.995	103.256	20.155	2.723	0.237
50.000	113.263	79.994	19.994	103.252	20.156	2.696	0.207
52.000	113.747	79.993	19.996	103.256	20.154	2.797	0.217
54.000	114.288	79.994	19.996	103.256	20.144	3.507	0.266
56.000	114.815	79.994	19.996	103.253	20.155	2.730	0.285
58.000	115.380	79.993	19.995	103.251	20.147	3.266	0.296
60.000	115.922	79.992	19.996	103.256	20.147	3.309	0.275
62.001	116.506	79.992	19.996	103.256	20.145	3.407	0.294
64.000	117.127	79.994	19.996	103.258	20.149	3.123	0.308
66.000	117.750	79.993	19.996	103.271	20.149	3.144	0.316
68.000	118.396	79.993	19.995	103.276	20.149	3.140	0.323
70.000	119.062	79.993	19.995	103.275	20.142	3.582	0.344
72.000	119.682	79.994	19.994	103.270	20.145	3.388	0.299
74.000	120.385	79.993	19.996	103.290	20.148	3.239	0.364
76.000	121.149	79.993	19.995	103.283	20.144	3.453	0.389
78.000	121.842	79.993	19.996	103.266	20.140	3.714	0.345
80.000	122.606	79.992	19.996	103.272	20.144	3.475	0.371
82.000	123.372	79.993	19.996	103.293	20.142	3.635	0.382
84.000	124.150	79.991	19.995	103.293	20.148	3.237	0.379
86.000	124.933	79.993	19.997	103.279	20.147	3.297	0.402
88.000	125.766	79.991	19.997	103.290	20.146	3.322	0.425
90.000	126.599	79.991	19.996	103.284	20.143	3.562	0.391
92.001	127.384	79.992	19.996	103.290	20.148	3.219	0.405
94.000	128.253	79.991	19.995	103.290	20.143	3.531	0.448
96.001	129.075	79.992	19.996	103.284	20.140	3.716	0.440
98.000	129.959	79.992	19.996	103.284	20.143	3.538	0.444
100.000	130.823	79.994	19.995	103.281	20.147	3.315	0.444
102.000	131.686	79.993	19.994	103.288	20.146	3.328	0.400
104.000	132.606	79.992	19.994	103.282	20.147	3.283	0.497
106.000	133.492	79.991	19.994	103.290	20.150	3.104	0.451
108.000	134.404	79.991	19.995	103.282	20.152	2.938	0.473
110.000	135.285	79.991	19.994	103.288	20.145	3.429	0.449
112.000	136.179	79.991	19.994	103.276	20.149	3.183	0.429
114.000	137.064	79.991	19.995	103.291	20.147	3.281	0.439
116.000	138.033	79.993	19.996	103.285	20.146	3.324	0.470
118.001	138.974	79.991	19.995	103.283	20.145	3.442	0.461
120.000	139.933	79.992	19.995	103.282	20.141	3.649	0.466
122.000	140.859	79.993	19.996	103.289	20.150	3.097	0.464
124.000	141.821	79.993	19.994	103.283	20.144	3.474	0.480
126.000	142.767	79.992	19.995	103.291	20.144	3.453	0.471
128.000	143.754	79.994	19.994	103.288	20.146	3.344	0.467
130.000	144.691	79.994	19.995	103.292	20.141	3.703	0.458
132.000	145.699	79.994	19.994	103.289	20.147	3.313	0.484
134.000	146.667	79.994	19.994	103.278	20.149	3.142	0.473
136.000	147.644	79.994	19.996	103.285	20.141	3.681	0.519
138.000	148.628	79.992	19.995	103.285	20.145	3.411	0.490
140.000	149.602	79.993	19.994	103.272	20.145	3.396	0.472
142.000	150.589	79.992	19.994	103.272	20.142	3.608	0.502
144.000	151.578	79.991	19.994	103.287	20.139	3.813	0.481
146.000	152.583	79.992	19.996	103.266	20.142	3.624	0.505
148.000	153.608	79.993	19.996	103.282	20.145	3.414	0.504
150.000	154.564	79.993	19.994	103.276	20.145	3.390	0.493
152.000	155.604	79.994	19.995	103.263	20.145	3.403	0.519
154.000	156.562	79.993	19.994	103.264	20.147	3.283	0.475
156.001	157.513	79.993	19.994	103.266	20.141	3.699	0.464
158.001	158.553	79.993	19.994	103.257	20.144	3.485	0.512
160.000	159.520	79.993	19.995	103.259	20.144	3.456	0.536
162.000	160.526	79.993	19.995	103.257	20.144	3.450	0.519
164.000	161.571	79.993	19.996	103.259	20.151	3.044	0.489
166.001	162.511	79.992	19.995	103.256	20.143	3.559	0.483
168.000	163.480	79.991	19.996	103.256	20.147	3.287	0.476
170.000	164.521	79.992	19.996	103.257	20.145	3.415	0.504
172.000	165.522	79.991	19.994	103.255	20.147	3.265	0.504
174.000	166.566	79.992	19.995	103.255	20.147	3.292	0.530
176.000	167.544	79.991	19.995	103.255	20.145	3.444	0.491
178.000	168.547	79.994	19.998	103.254	20.145	3.422	0.486
180.000	169.547	79.992	19.996	103.245	20.147	3.304	0.499
182.000	170.523	79.993	19.997	103.256	20.146	3.373	0.468
184.000	171.511	79.993	19.996	103.248	20.148	3.236	0.484
186.000	172.526	79.993	19.997	103.254	20.144	3.504	0.492
188.000	173.539	79.993	19.996	103.243	20.148	3.219	0.502
190.000	174.540	79.992	19.995	103.239	20.143	3.573	0.488
192.000	175.519	79.991	19.994	103.240	20.153	2.875	0.478
194.000	176.528	79.992	19.995	103.246	20.153	2.895	0.492
196.000	177.529	79.991	19.994	103.256	20.152	2.956	0.506
198.000	178.510	79.992	19.995	103.249	20.146	3.341	0.523
200.000	179.496	79.993	19.994	103.251	20.140	3.761	0.511
202.000	180.486	79.992	19.995	103.255	20.149	3.157	0.482
204.000	181.452	79.992	19.994	103.244	20.152	2.963	0.491
206.000	182.478	79.992	19.996	103.248	20.149	3.132	0.528
208.000	183.453	79.993	19.996	103.234	20.145	3.434	0.520
210.000	184.423	79.994	19.995	103.248	20.143	3.520	0.472
212.000	185.432	79.994	19.995	103.225	20.150	3.057	0.516
214.000	186.444	79.992	19.994	103.227	20.148	3.219	0.483
216.000	187.395	79.994	19.996	103.234	20.147	3.293	0.476
218.000	188.436	79.993	19.994	103.225	20.146	3.349	0.487
220.000	189.405	79.994	19.996	103.229	20.151	2.987	0.504
222.000	190.375	79.995	19.995	103.225	20.144	3.492	0.509
224.000	191.360	79.994	19.995	103.227	20.148	3.221	0.488
226.000	192.372	79.994	19.995	103.223	20.145	3.407	0.489
228.000	193.334	79.995	19.996	103.232	20.145	3.420	0.499
230.000	194.297	79.995	19.995	103.224	20.142	3.632	0.490
232.000	195.278	79.995	19.996	103.222	20.143	3.519	0.471
234.000	196.280	79.995	19.994	103.225	20.143	3.545	0.486
236.000	197.258	79.994	19.995	103.224	20.144	3.482	0.509
238.000	198.254	79.996	19.995	103.218	20.144	3.490	0.517
240.000	199.249	79.994	19.995	103.219	20.147	3.293	0.537
242.000	200.191	79.993	19.996	103.219	20.143	3.565	0.466
244.000	201.156	79.992	19.994	103.215	20.149	3.153	0.472
246.000	202.146	79.990	19.995	103.219	20.145	3.407	0.525
248.000	203.200	79.992	19.995	103.221	20.142	3.638	0.529
250.000	204.124	79.992	19.997	103.214	20.138	3.855	0.505
252.000	205.091	79.992	19.995	103.224	20.141	3.677	0.507
254.000	206.082	79.993	19.994	103.229	20.146	3.375	0.484
256.000	207.094	79.993	19.995	103.221	20.146	3.324	0.513
258.000	208.081	79.992	19.997	103.225	20.144	3.489	0.517
260.000	209.058	79.992	19.996	103.219	20.142	3.637	0.450
262.000	210.025	79.990	19.996	103.225	20.142	3.579	0.482
264.000	211.045	79.991	19.994	103.220	20.134	4.145	0.491
266.000	212.048	79.991	19.996	103.214	20.138	3.846	0.484
268.000	212.996	79.992	19.995	103.214	20.140	3.746	0.496
270.000	214.049	79.991	19.995	103.217	20.139	3.824	0.521
272.000	215.006	79.991	19.997	103.219	20.142	3.588	0.509
274.000	215.983	79.990	19.996	103.220	20.141	3.648	0.462
276.000	217.002	79.991	19.995	103.218	20.139	3.799	0.501
278.000	217.946	79.991	19.994	103.207	20.139	3.802	0.476
280.000	218.972	79.990	19.994	103.218	20.136	4.022	0.518
282.000	219.971	79.992	19.994	103.218	20.137	3.929	0.512
284.000	220.977	79.992	19.995	103.219	20.138	3.875	0.507
286.000	222.009	79.994	19.994	103.221	20.135	4.098	0.533
288.000	222.927	79.993	19.994	103.212	20.132	4.241	0.473
290.000	223.937	79.993	19.995	103.207	20.137	3.972	0.498
292.000	224.951	79.994	19.993	103.210	20.134	4.119	0.508
294.000	225.932	79.996	19.996	103.206	20.134	4.169	0.477
296.000	226.925	79.994	19.995	103.210	20.134	4.165	0.497
298.000	227.972	79.993	19.994	103.213	20.137	3.934	0.516
300.000	228.936	79.993	19.995	103.200	20.138	3.883	0.486
302.000	229.977	79.993	19.994	103.200	20.137	3.971	0.500
304.000	231.000	79.995	19.995	103.195	20.137	3.952	0.512
306.000	231.963	79.993	19.995	103.203	20.132	4.248	0.493
308.000	232.965	79.994	19.996	103.206	20.130	4.384	0.497
310.000	233.986	79.995	19.995	103.204	20.139	3.778	0.527
312.001	234.988	79.996	19.996	103.207	20.132	4.281	0.476
314.000	235.982	79.994	19.996	103.200	20.134	4.125	0.465
316.000	236.951	79.995	19.994	103.198	20.132	4.293	0.494
318.000	238.004	79.996	19.995	103.206	20.133	4.214	0.485
320.000	238.963	79.995	19.994	103.207	20.134	4.141	0.502
322.000	239.924	79.993	19.995	103.212	20.128	4.505	0.447
324.000	240.966	79.993	19.995	103.215	20.129	4.467	0.506
326.000	241.972	79.992	19.995	103.204	20.126	4.647	0.510
328.000	242.966	79.992	19.996	103.192	20.126	4.676	0.493
330.000	243.989	79.993	19.996	103.194	20.123	4.849	0.530
332.000	244.956	79.991	19.996	103.207	20.123	4.846	0.495
334.001	245.968	79.994	19.995	103.196	20.118	5.201	0.492
336.000	247.001	79.991	19.996	103.203	20.121	4.988	0.524
338.000	247.951	79.993	19.995	103.205	20.122	4.958	0.465
340.000	248.942	79.992	19.994	103.197	20.115	5.366	0.519
342.000	249.966	79.993	19.996	103.200	20.111	5.644	0.490
344.000	251.025	79.993	19.995	103.201	20.110	5.724	0.498
346.000	252.049	79.993	19.995	103.201	20.105	6.028	0.534
348.000	252.999	79.993	19.995	103.201	20.100	6.407	0.466
350.000	254.033	79.993	19.994	103.207	20.096	6.621	0.505
352.000	255.010	79.993	19.995	103.198	20.087	7.222	0.491
354.001	256.013	79.992	19.997	103.205	20.091	6.991	0.478
356.000	256.971	79.991	19.996	103.203	20.083	7.507	0.488
358.000	257.986	79.992	19.997	103.192	20.078	7.864	0.506
360.000	258.979	79.992	19.996	103.205	20.069	8.398	0.516
362.000	260.010	79.991	19.997	103.192	20.067	8.556	0.486
364.000	260.982	79.992	19.995	103.207	20.060	9.041	0.491
366.000	261.904	79.993	19.995	103.206	20.054	9.407	0.462
368.000	262.949	79.994	19.997	103.187	20.049	9.742	0.491
370.000	263.961	79.994	19.997	103.200	20.037	10.562	0.556
372.000	264.952	79.993	19.997	103.211	20.030	10.981	0.450
374.000	265.838	79.995	19.996	103.201	20.027	11.210	0.443
376.000	266.876	79.994	19.996	103.213	20.010	12.293	0.437
378.000	267.967	79.995	19.996	103.213	20.003	12.788	0.524
380.000	268.656	79.994	19.994	103.213	19.995	13.324	0.287
382.000	269.966	79.994	19.996	103.216	19.989	13.715	0.552
384.000	270.902	79.993	19.995	103.223	19.969	15.058	0.542
386.000	271.886	79.993	19.994	103.226	19.950	16.305	0.504
388.000	272.959	79.994	19.994	103.229	19.942	16.802	0.493
390.000	273.901	79.993	19.994	103.215	19.924	17.973	0.476
392.001	274.859	79.995	19.995	103.201	19.917	18.462	0.478
394.000	275.881	79.994	19.995	103.216	19.906	19.199	0.469
396.000	276.901	79.996	19.996	103.217	19.894	19.990	0.512
398.000	277.904	79.995	19.995	103.220	19.884	20.649	0.488
400.000	278.879	79.994	19.993	103.218	19.877	21.120	0.488
402.000	279.859	79.994	19.996	103.221	19.865	21.890	0.524
404.000	280.821	79.993	19.993	103.219	19.854	22.600	0.491
406.000	281.837	79.991	19.995	103.219	19.842	23.425	0.487
408.000	282.858	79.990	19.995	103.220	19.832	24.071	0.522
410.000	283.829	79.994	19.994	103.229	19.818	24.988	0.528
412.000	284.838	79.991	19.995	103.237	19.813	25.294	0.480
414.000	285.877	79.994	19.995	103.233	19.803	25.950	0.524
416.000	286.838	79.993	19.995	103.225	19.793	26.631	0.520
418.000	287.880	79.993	19.996	103.223	19.784	27.215	0.519
420.000	288.869	79.993	19.995	103.223	19.776	27.777	0.487
422.000	289.906	79.990	19.995	103.219	19.765	28.515	0.528
424.000	290.898	79.991	19.994	103.223	19.759	28.900	0.544
426.000	291.987	79.993	19.994	103.215	19.754	29.192	0.533
428.000	292.957	79.992	19.995	103.215	19.754	29.222	0.496
430.000	293.977	79.992	19.995	103.215	19.744	29.879	0.507
432.000	294.982	79.993	19.996	103.216	19.744	29.842	0.519
434.000	296.013	79.991	19.996	103.216	19.742	29.989	0.522
436.000	297.015	79.992	19.996	103.224	19.747	29.706	0.522
438.000	298.012	79.992	19.994	103.216	19.746	29.759	0.516
440.000	299.052	79.991	19.994	103.218	19.745	29.796	0.511
442.000	300.023	79.991	19.995	103.215	19.754	29.222	0.501
444.000	301.031	79.993	19.996	103.216	19.751	29.417	0.526
446.000	302.026	79.993	19.997	103.215	19.757	29.026	0.524
448.000	303.102	79.994	19.996	103.215	19.768	28.314	0.533
450.000	304.072	79.993	19.996	103.214	19.770	28.137	0.497
452.000	305.074	79.993	19.997	103.206	19.775	27.807	0.489
454.000	306.080	79.994	19.998	103.215	19.782	27.350	0.511
456.000	307.095	79.992	19.996	103.215	19.782	27.385	0.540
458.000	308.100	79.995	19.995	103.216	19.786	27.115	0.506
460.000	309.074	79.992	19.996	103.215	19.793	26.660	0.503
462.000	310.089	79.992	19.996	103.212	19.795	26.479	0.528
464.000	311.096	79.991	19.995	103.202	19.801	26.122	0.509
466.000	312.148	79.993	19.994	103.209	19.806	25.754	0.533
468.000	313.168	79.993	19.994	103.216	19.810	25.531	0.503
470.000	314.155	79.996	19.995	103.215	19.805	25.851	0.482
472.000	315.154	79.992	19.995	103.216	19.801	26.089	0.497
474.000	316.177	79.995	19.995	103.219	19.803	26.002	0.506
476.000	317.194	79.994	19.993	103.217	19.794	26.570	0.490
478.000	318.206	79.996	19.995	103.213	19.786	27.089	0.501
480.000	319.217	79.996	19.995	103.214	19.787	27.035	0.512
482.000	320.194	79.994	19.996	103.211	19.779	27.596	0.510
484.000	321.218	79.994	19.994	103.213	19.773	27.938	0.500
486.000	322.208	79.995	19.996	103.220	19.762	28.722	0.470
488.000	323.256	79.993	19.995	103.214	19.751	29.432	0.535
490.000	324.221	79.992	19.995	103.220	19.739	30.231	0.482
492.000	325.207	79.992	19.992	103.219	19.729	30.894	0.479
494.000	326.244	79.992	19.995	103.215	19.715	31.827	0.494
496.000	327.239	79.992	19.996	103.220	19.700	32.774	0.510
498.000	328.212	79.991	19.994	103.229	19.687	33.622	0.514
500.000	329.228	79.993	19.995	103.226	19.670	34.794	0.498
502.000	330.227	79.994	19.996	103.227	19.655	35.792	0.523
504.000	331.191	79.993	19.995	103.237	19.638	36.861	0.505
506.000	332.241	79.993	19.994	103.231	19.622	37.919	0.528
508.000	333.204	79.992	19.994	103.246	19.601	39.354	0.526
510.000	334.247	79.992	19.995	103.249	19.578	40.832	0.513
512.000	335.251	79.992	19.995	103.253	19.553	42.534	0.512
514.000	336.239	79.995	19.995	103.254	19.531	43.929	0.491
516.000	337.264	79.995	19.996	103.256	19.505	45.694	0.482
518.000	338.281	79.991	19.995	103.256	19.480	47.319	0.481
520.000	339.300	79.992	19.996	103.274	19.444	49.747	0.485
522.001	340.280	79.992	19.995	103.277	19.412	51.981	0.467
524.000	341.301	79.992	19.996	103.286	19.375	54.362	0.497
526.000	342.243	79.993	19.996	103.288	19.341	56.493	0.497
528.000	343.208	79.994	19.997	103.295	19.292	59.636	0.501
530.000	344.204	79.994	19.995	103.317	19.186	66.680	0.500
532.000	345.223	79.994	19.996	103.475	19.032	76.984	0.502
534.001	346.226	79.994	19.994	103.573	18.941	83.111	0.505
536.000	347.242	79.993	19.997	103.372	18.908	85.339	0.515
538.000	348.216	79.993	19.996	103.140	18.906	85.531	0.526
540.000	349.248	79.991	19.996	103.133	18.898	86.114	0.496
542.000	350.237	79.993	19.995	103.288	18.856	88.754	0.494
544.000	351.218	79.992	19.996	103.459	18.749	95.471	0.479
546.000	352.196	79.993	19.997	103.599	18.608	104.592	0.470
548.000	353.184	79.992	19.996	103.579	18.414	117.642	0.481
550.000	354.191	79.994	19.996	103.631	18.187	133.346	0.466
552.000	355.178	79.994	19.995	103.678	18.058	142.249	0.496
554.000	356.184	79.996	19.995	103.376	18.070	141.206	0.495
556.000	357.190	79.995	19.996	103.023	18.122	137.568	0.498
558.000	358.173	79.995	19.995	103.010	18.074	140.364	0.500
560.000	359.150	79.993	19.995	103.507	17.916	150.721	0.501
562.000	360.152	79.995	19.995	103.984	17.716	164.233	0.523
564.000	361.087	79.995	19.994	103.931	17.462	181.294	0.480
566.000	362.058	79.993	19.994	103.807	17.240	195.705	0.495
568.000	363.032	79.994	19.994	103.562	17.103	204.610	0.487
570.000	364.000	79.993	19.996	103.326	16.936	215.564	0.488
572.000	364.967	79.993	19.996	103.481	16.755	227.556	0.483
574.000	365.957	79.991	19.994	103.630	16.614	236.853	0.473
576.000	366.971	79.992	19.997	103.686	16.531	242.258	0.502
578.000	367.900	79.991	19.995	103.462	16.459	247.082	0.453
580.000	368.936	79.992	19.996	103.398	16.422	249.628	0.483
582.000	369.916	79.992	19.995	103.468	16.441	248.410	0.483
584.000	370.955	79.991	19.992	103.403	16.492	245.183	0.502
586.000	371.994	79.992	19.994	103.391	16.579	239.539	0.473
588.000	372.987	79.992	19.994	103.363	16.679	232.794	0.490
590.000	374.033	79.992	19.992	103.425	16.784	225.780	0.518
592.000	375.084	79.993	19.994	103.452	16.880	219.401	0.504
594.001	376.115	79.991	19.992	103.512	16.958	214.216	0.503
596.000	377.150	79.992	19.995	103.552	17.024	209.870	0.513
598.000	378.206	79.992	19.994	103.540	17.080	206.112	0.516
600.000	379.263	79.991	19.995	103.508	17.125	203.095	0.537
602.000	380.332	79.992	19.995	103.477	17.167	200.254	0.549
604.000	381.368	79.990	19.995	103.465	17.205	197.721	0.517
606.000	382.347	79.993	19.995	103.464	17.247	194.966	0.511
608.000	383.349	79.992	19.997	103.441	17.287	192.248	0.505
610.000	384.432	79.993	19.995	103.411	17.340	188.762	0.542
612.000	385.478	79.994	19.996	103.409	17.395	185.057	0.530
614.000	386.482	79.995	19.996	103.382	17.452	181.291	0.498
616.000	387.538	79.995	19.996	103.383	17.522	176.664	0.523
618.000	388.627	79.995	19.996	103.366	17.599	171.511	0.553
620.000	389.622	79.994	19.995	103.351	17.685	165.851	0.505
622.000	390.654	79.994	19.997	103.335	17.764	160.602	0.521
624.000	391.694	79.992	19.996	103.317	17.856	154.526	0.517
626.000	392.734	79.992	19.996	103.300	17.955	147.978	0.514
628.000	393.832	79.994	19.996	103.292	18.059	141.055	0.564
630.000	394.891	79.993	19.995	103.270	18.160	134.368	0.525
632.000	395.947	79.993	19.995	103.256	18.273	126.916	0.551
634.001	396.994	79.993	19.996	103.252	18.376	120.163	0.543
636.000	398.006	79.995	19.994	103.246	18.490	112.631	0.539
638.000	399.055	79.993	19.997	103.222	18.599	105.387	0.518
640.000	400.078	79.993	19.997	103.215	18.712	97.919	0.487
642.000	401.121	79.990	19.997	103.212	18.823	90.591	0.507
644.000	402.178	79.993	19.994	103.209	18.924	83.976	0.508
646.000	403.176	79.995	19.995	103.208	19.029	77.059	0.518
648.000	404.239	79.992	19.995	103.203	19.128	70.491	0.511
650.000	405.294	79.992	19.996	103.189	19.216	64.695	0.502
652.000	406.312	79.992	19.994	103.179	19.304	58.892	0.509
654.000	407.404	79.994	19.995	103.178	19.383	53.652	0.523
656.000	408.447	79.993	19.997	103.180	19.462	48.427	0.541
658.000	409.423	79.990	19.995	103.179	19.532	43.847	0.496
660.000	410.502	79.993	19.996	103.172	19.595	39.696	0.523
662.000	411.541	79.992	19.995	103.156	19.658	35.553	0.507
664.000	412.553	79.993	19.996	103.154	19.709	32.171	0.539
666.000	413.555	79.991	19.993	103.144	19.759	28.859	0.492
668.000	414.548	79.992	19.995	103.141	19.801	26.084	0.504
670.000	415.572	79.993	19.995	103.144	19.844	23.258	0.518
672.000	416.573	79.992	19.995	103.150	19.879	20.978	0.500
674.000	417.587	79.992	19.996	103.137	19.909	18.955	0.495
676.000	418.593	79.993	19.995	103.131	19.940	16.941	0.517
678.000	419.633	79.994	19.995	103.136	19.964	15.329	0.513
680.000	420.597	79.992	19.994	103.138	19.989	13.718	0.520
682.000	421.601	79.994	19.994	103.155	20.010	12.303	0.481
684.000	422.595	79.993	19.994	103.134	20.028	11.137	0.474
686.000	423.544	79.992	19.994	103.124	20.046	9.971	0.448
688.000	424.525	79.994	19.995	103.131	20.058	9.119	0.481
690.001	425.512	79.994	19.995	103.139	20.070	8.371	0.477
692.000	426.461	79.992	19.995	103.142	20.084	7.441	0.456
694.000	427.452	79.994	19.994	103.142	20.095	6.722	0.504
696.000	428.390	79.997	19.995	103.136	20.102	6.213	0.455
698.000	429.380	79.993	19.996	103.136	20.113	5.534	0.492
700.000	430.322	79.993	19.996	103.144	20.116	5.320	0.477
702.000	431.280	79.995	19.996	103.141	20.123	4.860	0.487
704.000	432.213	79.993	19.994	103.138	20.129	4.459	0.463
706.000	433.231	79.992	19.996	103.139	20.134	4.120	0.498
708.000	434.234	79.992	19.996	103.139	20.142	3.578	0.491
710.000	435.235	79.992	19.996	103.141	20.148	3.191	0.495
712.000	436.179	79.993	19.997	103.141	20.145	3.436	0.483
714.000	437.183	79.994	19.995	103.140	20.156	2.682	0.507
716.000	438.166	79.993	19.994	103.141	20.156	2.657	0.491
718.000	439.155	79.994	19.995	103.140	20.155	2.738	0.523
720.000	440.113	79.996	19.996	103.139	20.161	2.328	0.495
722.000	441.082	79.992	19.996	103.148	20.161	2.332	0.490
724.000	442.090	79.993	19.996	103.142	20.167	1.928	0.483
726.000	443.067	79.995	19.995	103.146	20.170	1.774	0.484
728.000	444.076	79.992	19.995	103.143	20.165	2.107	0.552
730.000	445.045	79.994	19.996	103.142	20.170	1.734	0.527
732.000	446.009	79.991	19.995	103.139	20.171	1.721	0.500
734.000	447.025	79.992	19.996	103.143	20.170	1.738	0.516
736.000	448.015	79.992	19.996	103.142	20.174	1.482	0.517
738.000	449.048	79.992	19.995	103.138	20.172	1.622	0.515
740.000	450.012	79.991	19.994	103.139	20.177	1.332	0.495
742.000	451.036	79.993	19.994	103.149	20.172	1.617	0.517
744.000	452.060	79.993	19.995	103.143	20.177	1.323	0.545
746.000	453.048	79.994	19.994	103.144	20.173	1.547	0.492
748.000	454.059	79.991	19.994	103.151	20.172	1.624	0.513
750.000	455.119	79.994	19.995	103.148	20.172	1.649	0.539
752.000	456.124	79.990	19.995	103.154	20.174	1.491	0.488
754.000	457.178	79.993	19.995	103.155	20.174	1.469	0.515
756.000	458.222	79.992	19.993	103.145	20.171	1.683	0.528
758.000	459.274	79.991	19.995	103.151	20.171	1.665	0.545
760.000	460.312	79.994	19.995	103.147	20.176	1.364	0.519
762.000	461.343	79.993	19.995	103.144	20.175	1.446	0.527
764.000	462.373	79.992	19.996	103.143	20.174	1.468	0.497
766.000	463.442	79.994	19.995	103.142	20.176	1.375	0.550
768.000	464.505	79.994	19.996	103.153	20.179	1.149	0.521
770.000	465.529	79.993	19.996	103.151	20.174	1.529	0.520
772.000	466.620	79.993	19.995	103.146	20.173	1.573	0.510
774.000	467.697	79.995	19.994	103.147	20.173	1.560	0.553
776.000	468.776	79.994	19.996	103.151	20.174	1.473	0.531
778.000	469.809	79.994	19.996	103.147	20.177	1.323	0.522
780.000	470.886	79.993	19.995	103.138	20.178	1.205	0.560
782.000	471.923	79.996	19.995	103.142	20.175	1.457	0.552
784.000	472.965	79.993	19.995	103.146	20.177	1.314	0.544
786.000	474.067	79.995	19.995	103.143	20.180	1.105	0.538
788.000	475.142	79.993	19.994	103.144	20.174	1.468	0.544
790.000	476.196	79.991	19.997	103.150	20.177	1.286	0.535
792.000	477.225	79.994	19.996	103.142	20.179	1.189	0.543
794.000	478.327	79.993	19.995	103.143	20.180	1.082	0.541
796.000	479.393	79.995	19.995	103.149	20.176	1.382	0.539
798.000	480.453	79.995	19.996	103.140	20.179	1.185	0.518
800.000	481.528	79.996	19.995	103.142	20.177	1.314	0.537
802.000	482.556	79.993	19.996	103.138	20.177	1.286	0.521
804.000	483.607	79.996	19.995	103.138	20.180	1.131	0.529
806.000	484.650	79.993	19.996	103.135	20.179	1.149	0.537
808.001	485.658	79.994	19.996	103.144	20.176	1.339	0.512
810.000	486.746	79.993	19.996	103.137	20.177	1.286	0.537
812.000	487.729	79.991	19.995	103.136	20.179	1.189	0.512
814.000	488.768	79.994	19.995	103.133	20.179	1.149	0.529
816.000	489.729	79.994	19.995	103.138	20.177	1.310	0.491
818.000	490.775	79.994	19.996	103.138	20.177	1.268	0.519
820.000	491.784	79.992	19.996	103.137	20.179	1.165	0.495
822.000	492.766	79.994	19.997	103.134	20.177	1.312	0.515
824.000	493.791	79.994	19.998	103.135	20.176	1.341	0.542
826.000	494.779	79.994	19.996	103.131	20.180	1.112	0.493
828.000	495.790	79.995	19.996	103.131	20.179	1.149	0.476
830.000	496.762	79.993	19.996	103.135	20.180	1.132	0.482
832.000	497.757	79.993	19.994	103.123	20.178	1.230	0.520
834.000	498.732	79.995	19.994	103.131	20.185	0.752	0.460
836.000	499.736	79.992	19.994	103.130	20.181	1.027	0.489
838.000	500.742	79.990	19.994	103.140	20.185	0.802	0.502
840.000	501.768	79.993	19.996	103.134	20.182	0.966	0.523
842.000	502.811	79.992	19.994	103.135	20.181	1.053	0.535
844.000	503.793	79.993	19.995	103.138	20.184	0.841	0.488
846.000	504.843	79.992	19.995	103.142	20.181	1.004	0.492
848.000	505.840	79.991	19.998	103.124	20.183	0.911	0.506
850.000	506.852	79.991	19.996	103.114	20.183	0.877	0.493
852.000	507.854	79.996	19.994	103.127	20.185	0.786	0.488
854.000	508.839	79.994	19.996	103.119	20.183	0.911	0.504
856.000	509.845	79.996	19.995	103.123	20.182	0.949	0.475
858.000	510.833	79.995	19.995	103.118	20.184	0.815	0.482
860.000	511.790	79.994	19.995	103.118	20.181	1.054	0.465
862.000	512.768	79.995	19.994	103.130	20.178	1.217	0.482
864.000	513.735	79.993	19.996	103.115	20.182	0.964	0.461
866.000	514.748	79.994	19.995	103.110	20.182	0.965	0.517
868.000	515.709	79.994	19.994	103.129	20.185	0.757	0.466
870.000	516.658	79.992	19.994	103.112	20.189	0.511	0.473
872.000	517.643	79.992	19.995	103.110	20.186	0.690	0.475
874.000	518.608	79.995	19.995	103.118	20.182	0.956	0.470
876.001	519.588	79.994	19.994	103.111	20.184	0.851	0.506
878.000	520.523	79.995	19.996	103.110	20.183	0.906	0.484
880.001	521.534	79.995	19.994	103.109	20.185	0.746	0.502
882.000	522.504	79.994	19.996	103.103	20.191	0.370	0.465
884.000	523.498	79.997	19.995	103.123	20.185	0.795	0.493
886.000	524.390	79.994	19.995	103.108	20.188	0.580	0.469
888.000	525.379	79.993	19.995	103.115	20.186	0.737	0.500
890.000	526.360	79.994	19.996	103.118	20.183	0.877	0.482
892.000	527.324	79.992	19.996	103.113	20.184	0.817	0.453
894.000	528.366	79.994	19.996	103.114	20.185	0.781	0.489
896.000	529.384	79.992	19.993	103.130	20.186	0.683	0.499
898.000	530.396	79.994	19.994	103.131	20.185	0.777	0.500
900.001	531.448	79.992	19.997	103.120	20.184	0.862	0.534
902.000	532.458	79.995	19.994	103.129	20.184	0.817	0.539
904.000	533.474	79.993	19.996	103.118	20.185	0.786	0.510
906.000	534.523	79.992	19.996	103.119	20.186	0.710	0.501
908.000	535.579	79.992	19.996	103.117	20.186	0.716	0.541
910.000	536.637	79.993	19.996	103.125	20.186	0.732	0.548
912.000	537.678	79.993	19.996	103.136	20.184	0.806	0.513
914.000	538.708	79.993	19.997	103.128	20.185	0.770	0.537
916.000	539.788	79.992	19.996	103.130	20.185	0.774	0.529
918.000	540.867	79.992	19.996	103.121	20.186	0.737	0.553
920.000	541.903	79.992	19.997	103.123	20.186	0.730	0.533
922.000	542.962	79.991	19.992	103.130	20.189	0.500	0.542
924.000	543.968	79.993	19.997	103.134	20.192	0.286	0.506
926.000	545.025	79.993	19.997	103.130	20.189	0.504	0.516
928.000	546.071	79.993	19.992	103.118	20.189	0.495	0.534
930.000	547.137	79.994	19.996	103.108	20.187	0.621	0.541
932.000	548.197	79.994	19.994	103.117	20.189	0.534	0.537
934.000	549.285	79.995	19.994	103.120	20.185	0.744	0.561
936.000	550.381	79.996	19.995	103.118	20.188	0.603	0.545
938.000	551.411	79.993	19.996	103.113	20.190	0.465	0.497
940.000	552.477	79.994	19.994	103.115	20.191	0.404	0.520
942.000	553.534	79.994	19.997	103.116	20.191	0.370	0.523
944.000	554.567	79.995	19.995	103.112	20.188	0.592	0.502
946.000	555.662	79.995	19.996	103.121	20.189	0.542	0.538
948.000	556.701	79.995	19.995	103.111	20.189	0.511	0.516
950.000	557.727	79.994	19.995	103.101	20.190	0.473	0.497
952.000	558.784	79.994	19.994	103.112	20.190	0.431	0.556
954.000	559.787	79.994	19.995	103.120	20.193	0.263	0.508
956.000	560.853	79.996	19.994	103.111	20.194	0.199	0.553
958.000	561.820	79.997	19.996	103.133	20.194	0.172	0.498
960.000	562.898	79.997	19.994	103.115	20.192	0.328	0.548
962.000	563.919	79.996	19.994	103.123	20.194	0.201	0.497
964.000	564.930	79.996	19.994	103.115	20.193	0.274	0.509
966.000	565.996	79.996	19.994	103.120	20.189	0.487	0.551
968.000	567.043	79.994	19.995	103.123	20.188	0.600	0.536
970.000	568.057	79.994	19.995	103.115	20.195	0.139	0.500
972.000	569.121	79.993	19.996	103.115	20.191	0.406	0.517
974.000	570.120	79.994	19.995	103.112	20.189	0.495	0.504
976.000	571.165	79.993	19.996	103.123	20.191	0.406	0.507
978.000	572.161	79.992	19.997	103.114	20.194	0.196	0.525
980.000	573.175	79.993	19.995	103.113	20.191	0.351	0.500
982.000	574.237	79.991	19.995	103.108	20.190	0.437	0.545
984.000	575.248	79.992	19.993	103.107	20.195	0.091	0.496
986.000	576.237	79.994	19.995	103.126	20.190	0.438	0.514
988.000	577.229	79.993	19.993	103.111	20.191	0.373	0.504
990.000	578.172	79.993	19.995	103.109	20.190	0.475	0.488
992.000	579.122	79.993	19.995	103.105	20.189	0.504	0.490
994.000	580.104	79.993	19.996	103.105	20.191	0.366	0.487
996.000	581.058	79.992	19.994	103.108	20.195	0.121	0.486
998.000	582.042	79.993	19.996	103.115	20.193	0.248	0.496
1000.000	582.987	79.993	19.996	103.115	20.191	0.397	0.500
1002.000	583.968	79.992	19.996	103.122	20.193	0.217	0.478
1004.000	584.941	79.991	19.998	103.133	20.191	0.391	0.514
1006.000	585.954	79.992	19.997	103.124	20.190	0.453	0.465
1008.000	586.978	79.993	19.996	103.131	20.191	0.391	0.508
1010.000	588.010	79.993	19.996	103.135	20.192	0.295	0.516
1012.000	589.022	79.994	19.994	103.117	20.193	0.263	0.530
1014.000	590.078	79.994	19.995	103.130	20.190	0.435	0.542
1016.000	591.111	79.995	19.995	103.140	20.190	0.462	0.552
1018.000	592.183	79.996	19.997	103.134	20.188	0.562	0.534
1020.000	593.197	79.995	19.995	103.135	20.191	0.409	0.497
1022.000	594.289	79.995	19.995	103.135	20.184	0.832	0.545
1024.001	595.399	79.993	19.996	103.136	20.187	0.631	0.585
1026.000	596.447	79.994	19.996	103.137	20.193	0.243	0.542
1028.000	597.458	79.995	19.994	103.137	20.189	0.489	0.494
1030.000	598.537	79.993	19.996	103.128	20.191	0.384	0.511
1032.000	599.591	79.993	19.995	103.136	20.192	0.339	0.525
1034.000	600.632	79.994	19.995	103.140	20.188	0.560	0.502
1036.000	601.696	79.995	19.996	103.138	20.189	0.498	0.502
1038.000	602.765	79.996	19.994	103.129	20.189	0.491	0.518
1040.000	603.826	79.996	19.995	103.136	20.187	0.656	0.527
1042.000	604.884	79.997	19.994	103.138	20.188	0.603	0.568
1044.000	605.924	79.995	19.995	103.132	20.183	0.881	0.527
1046.000	607.000	79.996	19.995	103.135	20.185	0.774	0.531
1048.000	608.033	79.994	19.995	103.139	20.189	0.527	0.518
1050.000	609.094	79.993	19.995	103.136	20.188	0.592	0.513
1052.000	610.108	79.991	19.994	103.142	20.187	0.620	0.490
1054.000	611.176	79.994	19.995	103.143	20.189	0.516	0.529
1056.000	612.228	79.994	19.994	103.136	20.190	0.471	0.533
1058.000	613.274	79.992	19.996	103.137	20.188	0.578	0.522
1060.000	614.376	79.995	19.994	103.132	20.189	0.515	0.535
1062.000	615.406	79.993	19.996	103.129	20.185	0.752	0.544
1064.000	616.459	79.992	19.996	103.129	20.186	0.707	0.529
1066.000	617.476	79.993	19.995	103.135	20.187	0.656	0.530
1068.000	618.570	79.994	19.997	103.137	20.187	0.661	0.546
1070.000	619.601	79.994	19.996	103.136	20.188	0.596	0.532
1072.000	620.628	79.995	19.996	103.136	20.185	0.768	0.524
1074.000	621.709	79.992	19.996	103.135	20.186	0.678	0.529
1076.000	622.751	79.993	19.996	103.134	20.188	0.544	0.546
1078.000	623.776	79.995	19.996	103.136	20.189	0.516	0.519
1080.000	624.804	79.993	19.996	103.138	20.187	0.636	0.513
1082.000	625.825	79.994	19.996	103.137	20.185	0.745	0.502
1084.000	626.900	79.993	19.996	103.138	20.187	0.649	0.538
1086.000	627.944	79.993	19.995	103.141	20.188	0.551	0.539
1088.000	628.969	79.993	19.996	103.134	20.189	0.536	0.529
1090.000	629.989	79.994	19.995	103.135	20.186	0.728	0.523
1092.000	631.046	79.993	19.997	103.139	20.185	0.754	0.533
1094.000	632.076	79.994	19.996	103.136	20.186	0.678	0.521
1096.000	633.093	79.993	19.995	103.135	20.186	0.737	0.502
1098.000	634.118	79.994	19.996	103.134	20.184	0.866	0.509
1100.000	635.174	79.995	19.996	103.139	20.185	0.794	0.543
1102.000	636.213	79.994	19.995	103.134	20.180	1.087	0.510
1104.000	637.196	79.993	19.995	103.133	20.183	0.924	0.509
1106.000	638.195	79.995	19.995	103.137	20.186	0.719	0.505
1108.000	639.247	79.995	19.994	103.140	20.187	0.650	0.527
1110.000	640.244	79.995	19.994	103.138	20.188	0.560	0.501
1112.000	641.207	79.994	19.995	103.136	20.190	0.444	0.457
1114.000	642.265	79.994	19.993	103.140	20.184	0.837	0.510
1116.000	643.228	79.993	19.995	103.135	20.187	0.625	0.467
1118.000	644.278	79.995	19.994	103.135	20.187	0.672	0.519
1120.000	645.305	79.996	19.995	103.131	20.184	0.810	0.513
1122.000	646.316	79.997	19.995	103.136	20.185	0.745	0.491
1124.000	647.351	79.995	19.995	103.136	20.183	0.882	0.515
1126.000	648.359	79.996	19.995	103.130	20.185	0.741	0.514
1128.000	649.366	79.993	19.996	103.124	20.185	0.779	0.515
1130.000	650.396	79.994	19.996	103.138	20.181	1.034	0.518
1132.000	651.441	79.994	19.996	103.135	20.180	1.102	0.551
1134.000	652.378	79.992	19.995	103.135	20.183	0.871	0.475
1136.000	653.435	79.994	19.995	103.132	20.177	1.301	0.479
1138.000	654.393	79.994	19.996	103.137	20.180	1.134	0.511
1140.000	655.431	79.993	19.995	103.138	20.183	0.893	0.519
1142.000	656.460	79.994	19.995	103.125	20.184	0.813	0.484
1144.000	657.390	79.994	19.995	103.135	20.184	0.848	0.503
1146.000	658.379	79.994	19.995	103.131	20.181	1.056	0.484
1148.000	659.382	79.994	19.994	103.138	20.181	1.049	0.489
1150.000	660.335	79.994	19.995	103.138	20.181	1.009	0.481
1152.000	661.342	79.994	19.996	103.124	20.183	0.910	0.504
1154.000	662.364	79.993	19.995	103.138	20.181	1.067	0.489
1156.000	663.388	79.992	19.996	103.137	20.183	0.928	0.482
1158.000	664.396	79.992	19.996	103.141	20.182	0.978	0.499
1160.000	665.361	79.993	19.996	103.143	20.182	0.984	0.489
1162.000	666.376	79.993	19.995	103.141	20.184	0.839	0.508
1164.000	667.361	79.992	19.996	103.140	20.185	0.754	0.528
1166.000	668.375	79.991	19.995	103.139	20.182	0.973	0.506
1168.000	669.346	79.993	19.995	103.136	20.184	0.852	0.507
1170.000	670.395	79.992	19.995	103.134	20.185	0.804	0.511
1172.000	671.372	79.993	19.996	103.142	20.184	0.861	0.458
1174.000	672.373	79.994	19.996	103.129	20.183	0.872	0.458
1176.000	673.448	79.994	19.997	103.141	20.183	0.917	0.519
1178.000	674.490	79.995	19.994	103.142	20.185	0.790	0.491
1180.000	675.515	79.995	19.993	103.139	20.183	0.915	0.480
1182.000	676.504	79.994	19.996	103.138	20.186	0.737	0.532
1184.000	677.549	79.994	19.996	103.139	20.185	0.801	0.516
1186.000	678.565	79.994	19.996	103.139	20.185	0.756	0.483
1188.000	679.526	79.994	19.997	103.137	20.186	0.737	0.486
1190.000	680.553	79.994	19.997	103.136	20.187	0.672	0.515
1192.000	681.509	79.995	19.995	103.132	20.190	0.455	0.486
1194.000	682.481	79.994	19.996	103.135	20.188	0.554	0.459
1196.000	683.445	79.995	19.996	103.132	20.186	0.692	0.481
1198.000	684.355	79.995	19.996	103.134	20.182	0.951	0.447
1200.000	685.341	79.996	19.994	103.128	20.181	1.034	0.456
1202.000	686.270	79.995	19.995	103.130	20.182	0.982	0.439
1204.000	687.173	79.996	19.995	103.137	20.183	0.937	0.438
1206.001	688.178	79.996	19.994	103.138	20.182	0.969	0.522
1208.000	689.102	79.996	19.996	103.131	20.185	0.779	0.446
1210.000	690.039	79.993	19.995	103.120	20.184	0.857	0.460
1212.001	690.974	79.993	19.995	103.126	20.183	0.928	0.459
1214.000	691.870	79.994	19.996	103.139	20.180	1.129	0.447
1216.000	692.788	79.992	19.996	103.136	20.185	0.750	0.472
1218.000	693.783	79.992	19.997	103.142	20.184	0.845	0.498
1220.000	694.677	79.993	19.996	103.141	20.184	0.841	0.456
1222.000	695.622	79.993	19.996	103.135	20.186	0.734	0.476
1224.000	696.614	79.993	19.995	103.142	20.187	0.652	0.493
1226.000	697.600	79.994	19.994	103.143	20.180	1.091	0.511
1228.000	698.595	79.993	19.995	103.156	20.182	0.966	0.510
1230.000	699.601	79.994	19.996	103.169	20.184	0.834	0.487
1232.000	700.636	79.995	19.994	103.150	20.181	1.056	0.529
1234.000	701.714	79.995	19.995	103.151	20.180	1.071	0.535
1236.000	702.721	79.994	19.995	103.141	20.182	0.982	0.547
1238.000	703.782	79.994	19.995	103.142	20.181	1.024	0.531
1240.000	704.815	79.993	19.995	103.144	20.185	0.766	0.525
1242.000	705.867	79.992	19.995	103.145	20.187	0.658	0.555
1244.000	706.880	79.994	19.995	103.143	20.184	0.839	0.506
1246.000	707.915	79.993	19.995	103.144	20.185	0.774	0.501
1248.000	708.903	79.994	19.996	103.143	20.182	0.991	0.479
1250.000	709.894	79.993	19.996	103.142	20.186	0.681	0.487
1252.000	710.933	79.996	19.997	103.138	20.185	0.746	0.484
1254.000	711.933	79.995	19.995	103.136	20.184	0.835	0.502
1256.000	712.966	79.995	19.996	103.141	20.182	0.995	0.511
1258.000	713.994	79.995	19.996	103.140	20.183	0.928	0.516
1260.000	715.020	79.995	19.995	103.138	20.183	0.924	0.520
1262.000	716.110	79.996	19.995	103.139	20.186	0.698	0.535
1264.000	717.125	79.996	19.997	103.137	20.185	0.768	0.542
1266.000	718.142	79.994	19.996	103.136	20.183	0.906	0.514
1268.000	719.238	79.994	19.996	103.138	20.184	0.817	0.555
1270.000	720.265	79.996	19.996	103.137	20.183	0.899	0.528
1272.000	721.315	79.995	19.997	103.136	20.183	0.899	0.509
1274.000	722.380	79.995	19.997	103.139	20.183	0.893	0.525
1276.000	723.432	79.993	19.996	103.146	20.182	0.986	0.514
1278.000	724.492	79.995	19.996	103.137	20.183	0.920	0.548
1280.000	725.514	79.995	19.996	103.137	20.183	0.906	0.492
1282.000	726.544	79.995	19.995	103.137	20.180	1.098	0.510
1284.000	727.528	79.997	19.996	103.133	20.177	1.279	0.498
1286.000	728.579	79.996	19.995	103.139	20.182	0.955	0.511
1288.000	729.615	79.995	19.996	103.140	20.178	1.201	0.540
1290.000	730.645	79.995	19.995	103.138	20.180	1.076	0.514
1292.000	731.704	79.992	19.995	103.145	20.180	1.129	0.518
1294.000	732.734	79.994	19.996	103.141	20.178	1.229	0.543
1296.000	733.752	79.993	19.995	103.140	20.177	1.287	0.534
1298.000	734.800	79.994	19.995	103.142	20.177	1.268	0.513
1300.000	735.825	79.993	19.996	103.143	20.180	1.082	0.522
1302.000	736.845	79.994	19.995	103.144	20.183	0.906	0.504
1304.000	737.955	79.993	19.995	103.147	20.183	0.888	0.574
1306.000	739.048	79.994	19.995	103.141	20.179	1.170	0.546
1308.000	740.050	79.995	19.996	103.145	20.179	1.194	0.525
1310.000	741.123	79.993	19.995	103.145	20.181	1.015	0.528
1312.000	742.226	79.993	19.995	103.149	20.180	1.082	0.562
1314.000	743.264	79.994	19.996	103.143	20.181	1.038	0.538