File: 01_Data/LatexPillow_C_Foam/MCC/LatexPillow_C_Foam_MCC_30K_min_211213_R3.txt
Sample ID:	C:\MCC\MCC Cal\Test\LatexPillow_C_Foam_MCC_30K_min_211213_R3.txt
Sample Weight (mg):	4.32
Heating Rate (C/s):	0.5
Combustor Temp (C):	900
N2 Flow Rate (cc/min):	80
O2 Flow Rate (cc/min):	20
Calibration File:	C:\MCC\MCC Cal\Coeff1 JN10440_30_210304.txt.txt
T Correction Coefficients:	0	1.024463	0
Time Shift (s):	14
*
Time (s)	Temperature (C)	N2 flow rate (cc/min)	O2 flow rate (cc/min)	Flow Rate (cc/min)	Oxygen (%)	HRR (W/g)	Heating rate (C/s)
0.000	110.360	80.010	19.996	103.014	20.011	-0.142	-0.030
2.000	110.364	80.010	19.995	103.010	20.015	-0.372	-0.021
4.000	110.375	80.009	19.995	103.012	20.011	-0.097	-0.013
6.000	110.351	80.010	19.994	103.036	20.015	-0.443	0.011
8.000	110.347	80.009	19.995	103.046	20.017	-0.529	-0.012
10.001	110.377	80.008	19.993	103.063	20.018	-0.645	0.004
12.001	110.389	80.010	19.994	103.087	20.016	-0.510	0.027
14.000	110.380	80.010	19.993	103.092	20.010	-0.059	-0.007
16.000	110.395	80.012	19.994	103.127	20.009	0.035	0.033
18.000	110.422	80.008	19.993	103.194	20.003	0.449	-0.002
20.000	110.576	80.010	19.993	103.219	20.003	0.482	0.087
22.000	110.678	80.010	19.996	103.203	19.998	0.838	0.091
24.000	110.852	80.010	19.995	103.170	20.000	0.724	0.075
26.000	111.014	80.011	19.994	103.151	20.000	0.681	0.095
28.000	111.148	80.011	19.994	103.154	20.004	0.431	0.085
30.000	111.355	80.010	19.994	103.182	19.997	0.922	0.115
32.001	111.521	80.009	19.994	103.207	19.998	0.850	0.108
34.001	111.761	80.008	19.994	103.224	19.994	1.129	0.088
36.000	112.028	80.006	19.994	103.245	19.993	1.217	0.118
38.000	112.280	80.007	19.994	103.250	19.991	1.396	0.110
40.000	112.608	80.008	19.994	103.257	19.985	1.795	0.162
42.000	112.937	80.006	19.994	103.282	19.986	1.780	0.177
44.000	113.305	80.007	19.995	103.286	19.986	1.762	0.170
46.000	113.750	80.007	19.994	103.288	19.981	2.149	0.226
48.001	114.136	80.008	19.994	103.283	19.982	2.025	0.209
50.000	114.579	80.008	19.994	103.284	19.979	2.310	0.216
52.000	115.087	80.006	19.996	103.291	19.979	2.271	0.260
54.000	115.565	80.007	19.995	103.288	19.979	2.290	0.265
56.001	116.057	80.005	19.994	103.290	19.976	2.487	0.245
58.000	116.629	80.008	19.995	103.288	19.982	2.043	0.292
60.000	117.145	80.007	19.995	103.307	19.980	2.208	0.257
62.000	117.773	80.008	19.995	103.311	19.979	2.257	0.309
64.001	118.364	80.005	19.997	103.322	19.974	2.670	0.264
66.001	119.014	80.006	19.996	103.318	19.982	2.062	0.327
68.001	119.758	80.008	19.996	103.316	19.980	2.208	0.463
70.001	120.282	80.008	19.996	103.321	19.979	2.310	0.264
72.000	121.009	80.008	19.995	103.322	19.977	2.426	0.381
74.000	121.736	80.007	19.995	103.320	19.979	2.296	0.354
76.000	122.492	80.008	19.995	103.320	19.982	2.037	0.385
78.000	123.168	80.007	19.994	103.319	19.979	2.306	0.356
80.001	123.911	80.008	19.994	103.324	19.976	2.499	0.409
82.001	124.692	80.010	19.994	103.324	19.978	2.365	0.399
84.001	125.499	80.008	19.993	103.325	19.978	2.339	0.379
86.000	126.271	80.010	19.995	103.325	19.979	2.292	0.432
88.000	127.107	80.007	19.995	103.326	19.979	2.308	0.406
90.000	127.935	80.008	19.995	103.326	19.978	2.343	0.407
92.000	128.778	80.008	19.993	103.326	19.978	2.339	0.417
94.000	129.572	80.009	19.995	103.326	19.976	2.487	0.399
96.000	130.462	80.009	19.994	103.327	19.976	2.473	0.429
98.000	131.282	80.008	19.995	103.328	19.979	2.280	0.421
100.000	132.193	80.009	19.995	103.327	19.982	2.029	0.437
102.000	133.068	80.009	19.994	103.328	19.981	2.125	0.445
104.000	133.983	80.009	19.994	103.327	19.984	1.897	0.443
106.001	134.916	80.010	19.995	103.333	19.981	2.105	0.472
108.000	135.808	80.009	19.994	103.328	19.983	1.984	0.458
110.001	136.727	80.010	19.993	103.328	19.986	1.785	0.442
112.000	137.642	80.009	19.994	103.325	19.981	2.109	0.486
114.001	138.627	80.011	19.994	103.323	19.982	2.029	0.491
116.000	139.528	80.010	19.995	103.322	19.983	2.007	0.462
118.000	140.447	80.007	19.993	103.323	19.980	2.198	0.493
120.000	141.456	80.009	19.994	103.324	19.982	2.054	0.510
122.000	142.393	80.007	19.994	103.322	19.985	1.836	0.456
124.000	143.350	80.007	19.994	103.324	19.980	2.231	0.442
126.000	144.361	80.009	19.994	103.325	19.983	1.993	0.495
128.000	145.310	80.007	19.994	103.322	19.982	2.041	0.459
130.000	146.318	80.006	19.995	103.320	19.986	1.791	0.492
132.000	147.240	80.006	19.994	103.318	19.982	2.037	0.445
134.000	148.260	80.006	19.995	103.317	19.985	1.838	0.513
136.000	149.271	80.008	19.995	103.319	19.982	2.037	0.507
138.000	150.236	80.007	19.994	103.322	19.984	1.887	0.483
140.000	151.235	80.009	19.995	103.322	19.986	1.730	0.515
142.000	152.235	80.007	19.996	103.318	19.987	1.675	0.479
144.000	153.227	80.007	19.994	103.314	19.985	1.797	0.508
146.000	154.212	80.006	19.994	103.308	19.990	1.433	0.456
148.000	155.198	80.007	19.995	103.307	19.987	1.675	0.499
150.000	156.187	80.005	19.994	103.317	19.986	1.789	0.476
152.000	157.178	80.005	19.995	103.320	19.989	1.500	0.483
154.000	158.180	80.007	19.995	103.316	19.989	1.512	0.506
156.000	159.174	80.004	19.995	103.312	19.987	1.663	0.496
158.000	160.225	80.008	19.994	103.297	19.987	1.713	0.520
160.000	161.205	80.008	19.995	103.299	19.989	1.510	0.534
162.000	162.238	80.010	19.995	103.302	19.988	1.618	0.524
164.000	163.212	80.008	19.994	103.301	19.986	1.738	0.511
166.000	164.223	80.007	19.994	103.298	19.991	1.390	0.510
168.000	165.248	80.008	19.995	103.302	19.988	1.634	0.485
170.000	166.244	80.009	19.995	103.294	19.988	1.595	0.525
172.000	167.268	80.007	19.994	103.288	19.990	1.487	0.507
174.000	168.268	80.006	19.994	103.291	19.989	1.538	0.502
176.000	169.269	80.007	19.993	103.287	19.987	1.648	0.506
178.000	170.299	80.009	19.994	103.286	19.990	1.428	0.506
180.000	171.293	80.008	19.994	103.285	19.989	1.550	0.538
182.000	172.280	80.007	19.995	103.283	19.991	1.388	0.486
184.000	173.257	80.008	19.994	103.284	19.990	1.440	0.526
186.000	174.256	80.009	19.995	103.284	19.988	1.589	0.503
188.000	175.282	80.009	19.994	103.284	19.989	1.503	0.500
190.000	176.233	80.010	19.994	103.283	19.990	1.463	0.473
192.000	177.256	80.011	19.994	103.282	19.989	1.540	0.514
194.000	178.291	80.009	19.994	103.281	19.989	1.516	0.525
196.000	179.255	80.010	19.994	103.276	19.988	1.615	0.507
198.000	180.254	80.008	19.994	103.269	19.988	1.577	0.496
200.000	181.211	80.007	19.994	103.276	19.988	1.627	0.503
202.000	182.214	80.007	19.994	103.273	19.987	1.652	0.516
204.000	183.226	80.007	19.995	103.277	19.989	1.528	0.521
206.000	184.196	80.007	19.994	103.279	19.989	1.540	0.500
208.000	185.173	80.007	19.994	103.274	19.985	1.843	0.482
210.000	186.212	80.008	19.994	103.268	19.986	1.743	0.501
212.000	187.229	80.008	19.994	103.267	19.984	1.898	0.507
214.000	188.174	80.006	19.994	103.272	19.985	1.810	0.484
216.000	189.201	80.004	19.995	103.275	19.983	1.989	0.493
218.000	190.183	80.008	19.994	103.274	19.981	2.148	0.498
220.000	191.136	80.007	19.995	103.269	19.983	1.967	0.485
222.000	192.107	80.007	19.994	103.258	19.981	2.158	0.451
224.000	193.124	80.007	19.994	103.254	19.979	2.262	0.502
226.000	194.113	80.008	19.994	103.257	19.982	2.044	0.481
228.000	195.100	80.007	19.994	103.254	19.979	2.272	0.481
230.000	196.029	80.006	19.995	103.257	19.980	2.187	0.509
232.000	196.998	80.007	19.994	103.255	19.979	2.298	0.453
234.000	197.999	80.007	19.994	103.251	19.974	2.618	0.501
236.000	198.962	80.005	19.994	103.259	19.980	2.227	0.470
238.000	199.955	80.007	19.993	103.259	19.978	2.317	0.477
240.000	200.940	80.007	19.994	103.254	19.977	2.404	0.483
242.000	201.936	80.007	19.994	103.257	19.979	2.253	0.470
244.000	202.952	80.008	19.995	103.251	19.981	2.144	0.479
246.000	203.916	80.010	19.995	103.257	19.979	2.278	0.492
248.000	204.893	80.011	19.995	103.249	19.978	2.329	0.475
250.000	205.859	80.009	19.996	103.252	19.978	2.367	0.469
252.000	206.909	80.007	19.995	103.251	19.978	2.367	0.526
254.000	207.917	80.010	19.996	103.247	19.977	2.453	0.511
256.000	208.915	80.008	19.995	103.247	19.973	2.733	0.464
258.000	209.914	80.009	19.995	103.247	19.978	2.363	0.486
260.000	210.908	80.009	19.995	103.245	19.977	2.453	0.497
262.000	211.889	80.008	19.996	103.244	19.975	2.605	0.530
264.000	212.818	80.011	19.995	103.244	19.974	2.670	0.473
266.000	213.864	80.010	19.995	103.246	19.977	2.426	0.485
268.000	214.826	80.009	19.992	103.246	19.981	2.162	0.469
270.000	215.810	80.010	19.994	103.244	19.975	2.589	0.468
272.000	216.804	80.012	19.994	103.243	19.979	2.243	0.471
274.000	217.807	80.011	19.992	103.243	19.979	2.249	0.503
276.000	218.796	80.011	19.993	103.243	19.982	2.058	0.516
278.000	219.774	80.011	19.993	103.245	19.981	2.138	0.501
280.000	220.791	80.010	19.993	103.245	19.984	1.928	0.505
282.000	221.789	80.010	19.993	103.248	19.983	1.971	0.511
284.001	222.746	80.007	19.994	103.247	19.982	2.083	0.492
286.000	223.782	80.008	19.994	103.249	19.980	2.195	0.488
288.000	224.766	80.008	19.994	103.249	19.982	2.026	0.486
290.000	225.732	80.007	19.994	103.249	19.978	2.335	0.469
292.000	226.724	80.008	19.994	103.249	19.983	1.995	0.497
294.000	227.740	80.009	19.995	103.249	19.984	1.892	0.515
296.000	228.766	80.007	19.994	103.249	19.981	2.103	0.512
298.000	229.766	80.009	19.993	103.249	19.983	1.987	0.524
300.000	230.741	80.007	19.994	103.250	19.983	1.952	0.536
302.000	231.726	80.006	19.994	103.249	19.988	1.603	0.493
304.000	232.709	80.008	19.993	103.250	19.987	1.696	0.509
306.000	233.680	80.007	19.994	103.249	19.987	1.666	0.501
308.000	234.709	80.007	19.994	103.248	19.986	1.757	0.502
310.000	235.680	80.008	19.994	103.247	19.984	1.900	0.477
312.000	236.697	80.009	19.993	103.247	19.989	1.544	0.496
314.000	237.687	80.009	19.994	103.247	19.987	1.680	0.508
316.000	238.710	80.007	19.993	103.245	19.985	1.818	0.511
318.000	239.669	80.007	19.994	103.243	19.987	1.664	0.451
320.000	240.689	80.007	19.994	103.240	19.986	1.743	0.522
322.000	241.659	80.007	19.994	103.241	19.987	1.670	0.508
324.000	242.626	80.007	19.995	103.240	19.987	1.684	0.486
326.000	243.671	80.007	19.994	103.242	19.983	1.971	0.524
328.000	244.657	80.008	19.994	103.245	19.985	1.792	0.516
330.000	245.663	80.010	19.994	103.244	19.989	1.564	0.528
332.000	246.661	80.008	19.993	103.242	19.985	1.820	0.497
334.000	247.687	80.009	19.993	103.239	19.984	1.903	0.487
336.000	248.670	80.007	19.994	103.235	19.987	1.708	0.509
338.000	249.703	80.006	19.994	103.235	19.983	1.981	0.527
340.000	250.700	80.009	19.994	103.238	19.987	1.714	0.505
342.001	251.718	80.009	19.994	103.232	19.985	1.804	0.521
344.000	252.742	80.008	19.995	103.235	19.986	1.728	0.485
346.001	253.700	80.006	19.995	103.218	19.986	1.771	0.483
348.000	254.716	80.007	19.994	103.218	19.986	1.749	0.472
350.000	255.740	80.007	19.995	103.234	19.986	1.785	0.511
352.000	256.741	80.007	19.995	103.234	19.985	1.793	0.515
354.000	257.744	80.010	19.994	103.230	19.982	2.058	0.511
356.000	258.756	80.008	19.994	103.224	19.985	1.803	0.503
358.000	259.762	80.010	19.994	103.226	19.983	1.995	0.499
360.000	260.716	80.009	19.993	103.215	19.982	2.078	0.491
362.000	261.717	80.007	19.994	103.214	19.983	1.964	0.499
364.000	262.717	80.005	19.993	103.212	19.983	2.001	0.489
366.001	263.711	80.007	19.994	103.212	19.984	1.923	0.507
368.000	264.703	80.005	19.994	103.213	19.983	1.968	0.498
370.000	265.697	80.003	19.995	103.217	19.983	1.970	0.469
372.000	266.750	80.007	19.994	103.212	19.981	2.141	0.492
374.000	267.736	80.004	19.994	103.210	19.979	2.297	0.483
376.001	268.721	80.007	19.994	103.208	19.981	2.137	0.476
378.000	269.719	80.008	19.993	103.207	19.977	2.405	0.481
380.000	270.763	80.005	19.995	103.207	19.978	2.344	0.491
382.000	271.799	80.009	19.994	103.208	19.975	2.568	0.520
384.000	272.827	80.006	19.994	103.205	19.975	2.580	0.509
386.000	273.795	80.010	19.995	103.204	19.976	2.527	0.488
388.000	274.810	80.007	19.994	103.205	19.974	2.684	0.491
390.000	275.843	80.004	19.993	103.206	19.977	2.387	0.528
392.000	276.831	80.007	19.994	103.203	19.977	2.411	0.493
394.001	277.833	80.007	19.994	103.203	19.973	2.688	0.513
396.000	278.844	80.008	19.993	103.203	19.974	2.639	0.502
398.000	279.806	80.008	19.994	103.199	19.975	2.549	0.492
400.000	280.832	80.007	19.994	103.204	19.974	2.671	0.506
402.000	281.841	80.008	19.994	103.207	19.970	2.950	0.507
404.000	282.854	80.008	19.994	103.200	19.970	2.968	0.490
406.000	283.857	80.008	19.995	103.205	19.971	2.879	0.491
408.000	284.852	80.007	19.994	103.206	19.970	2.972	0.494
410.000	285.866	80.008	19.994	103.205	19.966	3.235	0.505
412.000	286.908	80.008	19.994	103.204	19.968	3.102	0.538
414.000	287.896	80.008	19.994	103.192	19.966	3.228	0.492
416.000	288.876	80.009	19.994	103.198	19.961	3.623	0.500
418.000	289.898	80.008	19.995	103.201	19.961	3.592	0.515
420.000	290.949	80.007	19.994	103.202	19.959	3.771	0.516
422.000	291.961	80.008	19.994	103.207	19.955	4.051	0.515
424.000	292.952	80.008	19.994	103.195	19.953	4.226	0.494
426.000	293.986	80.009	19.993	103.199	19.952	4.275	0.513
428.000	294.974	80.008	19.995	103.204	19.946	4.730	0.491
430.000	295.958	80.007	19.995	103.205	19.946	4.759	0.474
432.000	296.990	80.008	19.994	103.206	19.944	4.915	0.506
434.000	298.008	80.009	19.994	103.192	19.940	5.182	0.518
436.000	299.024	80.009	19.995	103.201	19.930	5.936	0.493
438.000	300.020	80.009	19.993	103.198	19.929	5.980	0.513
440.000	301.078	80.009	19.995	103.198	19.924	6.408	0.495
442.000	302.071	80.009	19.995	103.195	19.920	6.675	0.514
444.000	303.058	80.007	19.995	103.200	19.912	7.248	0.503
446.000	304.038	80.006	19.994	103.200	19.907	7.653	0.478
448.000	305.052	80.007	19.996	103.185	19.901	8.079	0.489
450.000	306.080	80.008	19.995	103.194	19.893	8.649	0.491
452.000	307.108	80.007	19.995	103.190	19.887	9.137	0.504
454.000	308.102	80.006	19.993	103.187	19.877	9.843	0.460
456.000	309.137	80.007	19.994	103.185	19.871	10.340	0.521
458.000	310.138	80.008	19.995	103.200	19.862	10.982	0.519
460.000	311.178	80.006	19.994	103.189	19.855	11.539	0.498
462.000	312.209	80.008	19.994	103.187	19.840	12.612	0.504
464.000	313.234	80.007	19.995	103.196	19.833	13.139	0.525
466.000	314.239	80.006	19.994	103.190	19.817	14.352	0.524
468.000	315.270	80.006	19.994	103.184	19.809	14.958	0.517
470.000	316.320	80.006	19.995	103.188	19.796	15.927	0.509
472.001	317.287	80.007	19.994	103.186	19.785	16.707	0.497
474.001	318.273	80.007	19.995	103.179	19.775	17.478	0.481
476.000	319.334	80.007	19.994	103.182	19.760	18.580	0.525
478.000	320.331	80.006	19.995	103.183	19.743	19.826	0.518
480.000	321.334	80.006	19.995	103.174	19.731	20.787	0.485
482.000	322.382	80.007	19.994	103.184	19.717	21.811	0.498
484.000	323.357	80.007	19.994	103.174	19.702	22.947	0.492
486.000	324.398	80.006	19.994	103.171	19.688	23.974	0.516
488.000	325.411	80.009	19.994	103.173	19.670	25.333	0.540
490.000	326.410	80.008	19.993	103.171	19.653	26.551	0.502
492.000	327.421	80.009	19.994	103.172	19.636	27.814	0.505
494.000	328.397	80.009	19.994	103.172	19.616	29.323	0.482
496.000	329.425	80.006	19.994	103.173	19.597	30.740	0.504
498.000	330.439	80.009	19.993	103.172	19.576	32.334	0.514
500.000	331.416	80.008	19.995	103.172	19.553	34.031	0.482
502.000	332.448	80.008	19.994	103.171	19.529	35.791	0.508
504.000	333.467	80.009	19.995	103.168	19.505	37.611	0.528
506.000	334.449	80.008	19.995	103.162	19.482	39.272	0.504
508.000	335.459	80.008	19.996	103.163	19.457	41.162	0.525
510.000	336.473	80.009	19.995	103.160	19.429	43.263	0.500
512.000	337.479	80.009	19.995	103.163	19.399	45.450	0.518
514.000	338.460	80.009	19.995	103.165	19.370	47.646	0.496
516.001	339.498	80.009	19.994	103.157	19.335	50.271	0.502
518.000	340.463	80.009	19.994	103.146	19.300	52.830	0.495
520.001	341.446	80.010	19.994	103.157	19.259	55.867	0.488
522.000	342.432	80.009	19.994	103.145	19.222	58.632	0.503
524.000	343.468	80.009	19.994	103.133	19.184	61.495	0.491
526.000	344.427	80.009	19.995	103.138	19.142	64.637	0.508
528.000	345.448	80.006	19.995	103.133	19.101	67.628	0.524
530.000	346.409	80.008	19.995	103.130	19.049	71.530	0.496
532.000	347.421	80.006	19.995	103.131	18.999	75.240	0.525
534.000	348.385	80.005	19.996	103.130	18.948	79.032	0.478
536.000	349.436	80.006	19.996	103.131	18.893	83.178	0.520
538.000	350.420	80.005	19.995	103.127	18.837	87.349	0.495
540.000	351.433	80.005	19.994	103.125	18.774	91.986	0.488
542.000	352.454	80.006	19.994	103.128	18.711	96.705	0.512
544.000	353.439	80.006	19.995	103.118	18.647	101.437	0.504
546.000	354.444	80.007	19.994	103.109	18.573	106.978	0.499
548.000	355.442	80.007	19.994	103.107	18.505	112.029	0.497
550.000	356.455	80.006	19.995	103.105	18.427	117.790	0.484
552.000	357.448	80.008	19.994	103.093	18.353	123.328	0.490
554.000	358.468	80.007	19.994	103.094	18.277	128.940	0.520
556.000	359.435	80.007	19.995	103.093	18.195	135.032	0.487
558.000	360.462	80.007	19.993	103.091	18.107	141.588	0.496
560.000	361.442	80.006	19.994	103.088	18.032	147.142	0.480
562.000	362.464	80.007	19.994	103.074	17.948	153.389	0.502
564.000	363.506	80.007	19.996	103.063	17.865	159.538	0.511
566.000	364.472	80.007	19.994	103.058	17.780	165.845	0.529
568.000	365.470	80.007	19.994	103.053	17.699	171.866	0.501
570.001	366.474	80.008	19.995	103.043	17.621	177.656	0.528
572.000	367.418	80.009	19.994	103.021	17.540	183.681	0.480
574.000	368.519	80.008	19.995	103.013	17.463	189.374	0.522
576.000	369.520	80.009	19.993	103.013	17.390	194.829	0.502
578.000	370.524	80.009	19.995	103.012	17.322	199.883	0.526
580.000	371.526	80.009	19.994	103.008	17.262	204.278	0.514
582.000	372.577	80.007	19.994	102.997	17.203	208.710	0.528
584.001	373.591	80.008	19.995	102.992	17.156	212.180	0.526
586.000	374.589	80.008	19.994	102.978	17.117	215.049	0.490
588.000	375.601	80.009	19.994	102.973	17.084	217.490	0.510
590.000	376.566	80.009	19.995	102.966	17.059	219.398	0.464
592.000	377.588	80.009	19.995	102.960	17.045	220.410	0.486
594.000	378.640	80.010	19.994	102.958	17.035	221.134	0.511
596.000	379.630	80.008	19.995	102.945	17.039	220.865	0.513
598.000	380.650	80.010	19.995	102.942	17.049	220.116	0.509
600.000	381.654	80.010	19.994	102.942	17.069	218.657	0.479
602.000	382.668	80.010	19.995	102.940	17.098	216.492	0.483
604.000	383.685	80.009	19.994	102.942	17.137	213.609	0.502
606.000	384.684	80.007	19.996	102.947	17.176	210.710	0.506
608.000	385.665	80.006	19.995	102.947	17.227	206.961	0.501
610.000	386.677	80.008	19.996	102.966	17.275	203.398	0.481
612.000	387.707	80.006	19.994	102.974	17.333	199.116	0.531
614.000	388.712	80.008	19.994	102.975	17.391	194.805	0.498
616.000	389.731	80.007	19.994	102.976	17.451	190.343	0.515
618.000	390.697	80.006	19.994	102.976	17.522	185.066	0.512
620.000	391.753	80.009	19.994	102.980	17.585	180.401	0.496
622.000	392.730	80.006	19.995	102.986	17.654	175.279	0.497
624.000	393.754	80.007	19.995	103.008	17.723	170.091	0.523
626.000	394.729	80.006	19.996	103.014	17.792	165.051	0.494
628.000	395.771	80.008	19.996	103.015	17.857	160.157	0.528
630.000	396.779	80.006	19.995	103.013	17.926	155.038	0.481
632.000	397.731	80.006	19.995	103.013	18.000	149.530	0.474
634.000	398.758	80.008	19.995	103.014	18.064	144.775	0.504
636.000	399.778	80.007	19.994	103.031	18.121	140.534	0.497
638.000	400.790	80.006	19.994	103.048	18.182	136.052	0.539
640.000	401.754	80.008	19.995	103.044	18.239	131.792	0.491
642.000	402.753	80.007	19.995	103.052	18.299	127.341	0.492
644.000	403.748	80.007	19.995	103.053	18.351	123.504	0.470
646.000	404.780	80.007	19.994	103.053	18.401	119.769	0.479
648.000	405.807	80.008	19.994	103.054	18.444	116.505	0.542
650.000	406.751	80.008	19.995	103.058	18.491	113.034	0.493
652.000	407.748	80.007	19.994	103.067	18.537	109.599	0.498
654.000	408.755	80.007	19.993	103.077	18.576	106.755	0.488
656.000	409.774	80.010	19.994	103.078	18.611	104.104	0.507
658.000	410.783	80.010	19.994	103.066	18.643	101.744	0.496
660.000	411.800	80.009	19.995	103.078	18.675	99.345	0.519
662.000	412.773	80.009	19.994	103.087	18.706	97.083	0.471
664.001	413.822	80.008	19.994	103.086	18.735	94.899	0.515
666.000	414.827	80.008	19.994	103.088	18.755	93.371	0.496
668.000	415.832	80.007	19.993	103.092	18.777	91.782	0.501
670.000	416.824	80.009	19.993	103.095	18.800	90.050	0.495
672.000	417.851	80.009	19.993	103.096	18.818	88.695	0.522
674.000	418.836	80.009	19.994	103.094	18.835	87.459	0.493
676.000	419.893	80.010	19.993	103.095	18.852	86.162	0.524
678.000	420.936	80.010	19.993	103.093	18.869	84.923	0.525
680.000	421.953	80.009	19.996	103.094	18.883	83.900	0.503
682.000	422.976	80.010	19.994	103.093	18.899	82.656	0.516
684.000	423.949	80.009	19.994	103.093	18.911	81.793	0.494
686.000	424.993	80.008	19.993	103.094	18.920	81.107	0.529
688.000	425.967	80.008	19.995	103.094	18.933	80.135	0.488
690.000	427.054	80.006	19.996	103.099	18.942	79.494	0.523
692.000	428.052	80.007	19.994	103.100	18.958	78.285	0.522
694.000	429.053	80.005	19.995	103.098	18.969	77.456	0.496
696.000	430.081	80.006	19.995	103.098	18.979	76.722	0.521
698.000	431.052	80.007	19.994	103.099	18.989	75.993	0.498
700.000	432.043	80.008	19.994	103.105	19.000	75.179	0.478
702.000	433.107	80.008	19.994	103.114	19.013	74.211	0.509
704.000	434.133	80.007	19.995	103.108	19.022	73.515	0.531
706.000	435.165	80.006	19.995	103.106	19.035	72.565	0.492
708.000	436.185	80.007	19.994	103.107	19.048	71.623	0.504
710.000	437.228	80.007	19.995	103.104	19.062	70.583	0.536
712.000	438.256	80.007	19.995	103.102	19.073	69.714	0.492
714.000	439.230	80.007	19.995	103.113	19.088	68.622	0.505
716.000	440.322	80.007	19.996	103.123	19.103	67.537	0.562
718.000	441.306	80.006	19.996	103.119	19.119	66.323	0.512
720.000	442.316	80.006	19.995	103.122	19.134	65.213	0.522
722.000	443.350	80.007	19.995	103.127	19.148	64.186	0.490
724.000	444.359	80.006	19.995	103.124	19.165	62.894	0.538
726.000	445.399	80.006	19.995	103.128	19.184	61.470	0.482
728.000	446.430	80.006	19.996	103.129	19.199	60.370	0.541
730.000	447.416	80.007	19.995	103.129	19.217	59.056	0.529
732.000	448.432	80.007	19.994	103.125	19.233	57.848	0.549
734.000	449.461	80.008	19.994	103.130	19.253	56.380	0.524
736.000	450.462	80.009	19.995	103.130	19.277	54.579	0.541
738.000	451.500	80.007	19.993	103.132	19.295	53.201	0.532
740.000	452.458	80.009	19.996	103.133	19.324	51.083	0.536
742.000	453.497	80.008	19.994	103.132	19.341	49.766	0.488
744.000	454.548	80.007	19.995	103.131	19.364	48.112	0.502
746.000	455.425	80.008	19.994	103.130	19.391	46.086	0.514
748.000	456.584	80.008	19.994	103.130	19.413	44.467	0.487
750.000	457.636	80.007	19.994	103.134	19.439	42.496	0.630
752.000	458.212	80.006	19.995	103.134	19.460	40.938	0.217
754.000	460.127	80.008	19.995	103.133	19.485	39.036	0.583
756.000	460.649	80.009	19.995	103.135	19.507	37.397	0.626
758.000	461.716	80.010	19.994	103.142	19.531	35.639	0.675
760.000	462.643	80.009	19.993	103.132	19.560	33.471	0.526
762.000	463.705	80.010	19.993	103.133	19.588	31.392	0.535
764.000	464.733	80.010	19.994	103.135	19.612	29.630	0.467
766.000	465.775	80.010	19.995	103.132	19.638	27.657	0.490
768.000	466.778	80.009	19.993	103.140	19.668	25.436	0.535
770.001	467.812	80.007	19.994	103.136	19.695	23.420	0.503
772.000	468.833	80.008	19.994	103.152	19.719	21.608	0.491
774.000	469.913	80.008	19.994	103.149	19.747	19.554	0.496
776.000	470.950	80.008	19.995	103.147	19.772	17.684	0.565
778.000	471.961	80.007	19.994	103.156	19.799	15.655	0.501
780.000	473.000	80.007	19.993	103.162	19.826	13.644	0.530
782.000	474.092	80.008	19.994	103.161	19.849	11.987	0.504
784.000	475.155	80.008	19.995	103.164	19.870	10.363	0.546
786.000	476.189	80.008	19.995	103.159	19.895	8.541	0.493
788.000	477.233	80.008	19.996	103.154	19.918	6.852	0.536
790.000	478.258	80.008	19.996	103.163	19.937	5.394	0.558
792.000	479.318	80.008	19.995	103.158	19.957	3.922	0.510
794.000	480.385	80.007	19.995	103.164	19.978	2.353	0.491
796.000	481.412	80.008	19.995	103.153	19.993	1.201	0.509
798.000	482.421	80.005	19.994	103.164	20.004	0.388	0.509
800.000	483.467	80.006	19.995	103.165	20.024	-1.081	0.514
802.000	484.546	80.007	19.995	103.169	20.032	-1.681	0.556
804.000	485.581	80.007	19.995	103.170	20.042	-2.388	0.548
806.000	486.587	80.006	19.995	103.166	20.055	-3.380	0.534
808.000	487.606	80.006	19.995	103.164	20.064	-4.034	0.541
810.000	488.664	80.006	19.996	103.163	20.072	-4.641	0.508
812.000	489.639	80.008	19.995	103.164	20.079	-5.199	0.496
814.000	490.751	80.008	19.994	103.164	20.084	-5.519	0.557
816.000	491.741	80.008	19.995	103.159	20.090	-6.011	0.515
818.000	492.749	80.009	19.995	103.164	20.089	-5.936	0.497
820.000	493.808	80.008	19.995	103.160	20.095	-6.375	0.516
822.000	494.843	80.010	19.994	103.169	20.099	-6.688	0.524
824.000	495.860	80.008	19.994	103.166	20.101	-6.788	0.506
826.000	496.910	80.009	19.994	103.166	20.105	-7.089	0.501
828.000	497.931	80.009	19.994	103.166	20.106	-7.208	0.503
830.000	498.979	80.008	19.994	103.164	20.106	-7.208	0.526
832.000	499.998	80.010	19.994	103.157	20.111	-7.562	0.540
834.000	501.031	80.009	19.994	103.168	20.111	-7.548	0.512
836.000	502.025	80.010	19.995	103.167	20.113	-7.704	0.516
838.000	503.046	80.011	19.995	103.165	20.114	-7.761	0.520
840.000	504.090	80.011	19.994	103.166	20.114	-7.787	0.545
842.000	505.065	80.011	19.994	103.163	20.116	-7.950	0.512
844.000	506.082	80.011	19.995	103.166	20.114	-7.812	0.535
846.000	507.122	80.009	19.995	103.163	20.117	-8.008	0.496
848.000	508.091	80.009	19.994	103.164	20.117	-8.001	0.488
850.000	509.108	80.008	19.995	103.160	20.116	-7.971	0.536
852.000	510.125	80.006	19.995	103.162	20.121	-8.275	0.530
854.000	511.141	80.008	19.993	103.167	20.118	-8.112	0.525
856.000	512.139	80.008	19.993	103.160	20.117	-8.033	0.504
858.000	513.137	80.007	19.993	103.159	20.120	-8.258	0.496
860.000	514.161	80.007	19.994	103.170	20.122	-8.356	0.500
862.000	515.210	80.009	19.994	103.163	20.121	-8.343	0.539
864.000	516.250	80.007	19.994	103.161	20.118	-8.114	0.533
866.000	517.195	80.008	19.993	103.158	20.121	-8.316	0.489
868.000	518.279	80.007	19.994	103.158	20.121	-8.273	0.516
870.000	519.242	80.009	19.995	103.151	20.123	-8.460	0.505
872.000	520.285	80.007	19.995	103.165	20.124	-8.554	0.524
874.000	521.335	80.007	19.994	103.168	20.128	-8.830	0.531
876.000	522.338	80.007	19.995	103.162	20.124	-8.515	0.506
878.000	523.344	80.007	19.995	103.162	20.127	-8.756	0.474
880.000	524.367	80.006	19.995	103.164	20.124	-8.498	0.486
882.000	525.439	80.007	19.995	103.164	20.124	-8.548	0.553
884.000	526.448	80.007	19.995	103.166	20.126	-8.701	0.514
886.000	527.522	80.007	19.995	103.164	20.123	-8.470	0.540
888.000	528.563	80.007	19.995	103.159	20.129	-8.887	0.552
890.000	529.578	80.008	19.994	103.159	20.128	-8.795	0.509
892.000	530.624	80.009	19.996	103.147	20.126	-8.703	0.513
894.000	531.639	80.008	19.994	103.148	20.128	-8.829	0.479
896.000	532.686	80.008	19.995	103.163	20.125	-8.570	0.515
898.000	533.725	80.008	19.996	103.165	20.124	-8.561	0.531
900.000	534.758	80.008	19.995	103.165	20.129	-8.874	0.545
902.000	535.818	80.006	19.996	103.162	20.126	-8.694	0.519
904.000	536.862	80.007	19.996	103.154	20.124	-8.559	0.561
906.000	537.868	80.007	19.996	103.147	20.127	-8.722	0.521
908.000	538.914	80.007	19.995	103.153	20.127	-8.739	0.507
910.000	539.928	80.008	19.995	103.162	20.128	-8.824	0.505
912.000	540.984	80.009	19.995	103.162	20.122	-8.406	0.514
914.000	541.958	80.009	19.996	103.169	20.126	-8.683	0.498
916.000	543.065	80.009	19.996	103.149	20.126	-8.657	0.514
918.000	544.086	80.028	19.996	103.162	20.128	-8.815	0.531
920.000	545.105	80.027	19.996	103.173	20.129	-8.932	0.532
922.000	546.215	80.011	19.996	103.155	20.125	-8.579	0.518
924.000	547.254	80.009	19.993	103.153	20.129	-8.927	0.526
926.000	548.313	80.010	19.995	103.163	20.133	-9.192	0.522
928.001	549.317	80.009	19.994	103.164	20.130	-8.944	0.528
930.000	550.358	80.008	19.993	103.156	20.132	-9.110	0.500
932.000	551.402	80.007	19.995	103.141	20.133	-9.234	0.530
934.000	552.439	80.007	19.995	103.157	20.130	-8.992	0.527
936.000	553.507	80.006	19.995	103.159	20.133	-9.187	0.558
938.000	554.542	80.006	19.994	103.167	20.130	-8.973	0.516
940.000	555.625	80.006	19.994	103.166	20.131	-9.046	0.551
942.000	556.641	80.007	19.995	103.166	20.130	-9.009	0.504
944.000	557.678	80.006	19.995	103.155	20.129	-8.881	0.535
946.000	558.762	80.008	19.994	103.173	20.131	-9.051	0.547
948.000	559.801	80.007	19.994	103.147	20.133	-9.202	0.523
950.000	560.810	80.007	19.994	103.161	20.129	-8.878	0.503
952.000	561.824	80.007	19.993	103.163	20.133	-9.195	0.508
954.000	562.883	80.008	19.994	103.144	20.132	-9.101	0.512
956.000	563.896	80.009	19.995	103.149	20.134	-9.291	0.530
958.000	564.902	80.008	19.994	103.163	20.136	-9.459	0.492
960.000	565.960	80.008	19.994	103.159	20.137	-9.523	0.491
962.000	566.991	80.006	19.995	103.158	20.138	-9.557	0.496
964.000	567.993	80.006	19.996	103.161	20.136	-9.410	0.495
966.000	569.054	80.006	19.995	103.138	20.137	-9.524	0.509
968.001	570.111	80.007	19.995	103.147	20.136	-9.448	0.545
970.000	571.150	80.006	19.995	103.164	20.138	-9.550	0.544
972.000	572.196	80.009	19.995	103.151	20.136	-9.434	0.559
974.000	573.222	80.010	19.995	103.146	20.137	-9.497	0.524
976.000	574.306	80.010	19.994	103.154	20.135	-9.358	0.549
978.000	575.370	80.008	19.994	103.151	20.139	-9.635	0.553
980.000	576.404	80.009	19.996	103.146	20.136	-9.420	0.523
982.001	577.403	80.008	19.995	103.155	20.139	-9.654	0.491
984.000	578.457	80.007	19.996	103.165	20.138	-9.583	0.518
986.000	579.433	80.008	19.995	103.168	20.137	-9.518	0.492
988.001	580.481	80.008	19.994	103.157	20.140	-9.696	0.539
990.000	581.509	80.007	19.996	103.150	20.142	-9.862	0.491
992.000	582.572	80.009	19.995	103.148	20.138	-9.599	0.517
994.000	583.575	80.007	19.996	103.146	20.137	-9.501	0.516
996.000	584.584	80.008	19.995	103.157	20.136	-9.454	0.494
998.000	585.638	80.009	19.996	103.154	20.137	-9.479	0.525
1000.000	586.615	80.009	19.996	103.137	20.138	-9.596	0.516
1002.000	587.603	80.010	19.996	103.149	20.137	-9.530	0.510
1004.000	588.683	80.010	19.995	103.150	20.141	-9.790	0.519
1006.000	589.649	80.007	19.995	103.151	20.141	-9.772	0.464
1008.000	590.721	80.008	19.994	103.150	20.141	-9.800	0.531
1010.000	591.710	80.005	19.993	103.144	20.138	-9.557	0.497
1012.000	592.734	80.008	19.995	103.144	20.140	-9.690	0.507
1014.000	593.740	80.008	19.994	103.154	20.138	-9.570	0.511
1016.000	594.779	80.008	19.994	103.154	20.138	-9.573	0.522
1018.000	595.811	80.006	19.995	103.150	20.139	-9.616	0.510
1020.000	596.824	80.007	19.993	103.155	20.137	-9.528	0.507
1022.000	597.792	80.007	19.995	103.151	20.140	-9.711	0.483
1024.000	598.828	80.006	19.995	103.144	20.139	-9.669	0.489
1026.000	599.819	80.008	19.995	103.144	20.138	-9.576	0.491
1028.000	600.827	80.007	19.993	103.156	20.140	-9.724	0.500
1030.001	601.832	80.009	19.995	103.158	20.138	-9.586	0.506
1032.000	602.822	80.008	19.995	103.149	20.137	-9.506	0.510
1034.000	603.815	80.008	19.995	103.165	20.136	-9.388	0.511
1036.000	604.853	80.008	19.996	103.161	20.139	-9.658	0.519
1038.000	605.881	80.007	19.994	103.164	20.137	-9.464	0.497
1040.000	606.872	80.008	19.995	103.161	20.142	-9.861	0.463
1042.000	607.914	80.008	19.994	103.159	20.143	-9.909	0.504
1044.000	608.913	80.006	19.994	103.152	20.144	-10.040	0.520
1046.001	609.915	80.007	19.993	103.153	20.141	-9.808	0.507
1048.000	610.901	80.007	19.994	103.143	20.143	-9.941	0.495
1050.001	611.926	80.007	19.994	103.147	20.140	-9.731	0.491
1052.000	612.948	80.008	19.994	103.144	20.142	-9.862	0.504
1054.000	614.045	80.009	19.995	103.152	20.143	-9.972	0.535
1056.000	615.054	80.009	19.994	103.152	20.143	-9.921	0.502
1058.001	616.118	80.007	19.995	103.145	20.139	-9.643	0.506
1060.000	617.159	80.009	19.994	103.151	20.143	-9.931	0.514
1062.000	618.189	80.010	19.995	103.143	20.144	-10.020	0.523
1064.000	619.211	80.008	19.995	103.138	20.144	-9.982	0.503
1066.000	620.202	80.008	19.995	103.149	20.144	-10.045	0.511
1068.000	621.207	80.007	19.993	103.141	20.140	-9.742	0.516
1070.000	622.255	80.007	19.994	103.147	20.141	-9.831	0.507
1072.000	623.269	80.007	19.994	103.142	20.141	-9.785	0.518
1074.001	624.274	80.008	19.994	103.144	20.141	-9.800	0.485
1076.000	625.259	80.007	19.995	103.141	20.141	-9.780	0.497
1078.000	626.263	80.010	19.994	103.139	20.143	-9.961	0.490
1080.000	627.303	80.010	19.994	103.137	20.140	-9.705	0.514
1082.000	628.309	80.011	19.995	103.134	20.144	-10.024	0.513
1084.000	629.319	80.008	19.995	103.143	20.144	-10.024	0.493
1086.000	630.355	80.009	19.995	103.144	20.144	-10.013	0.522
1088.000	631.369	80.008	19.997	103.133	20.139	-9.647	0.511
1090.000	632.417	80.007	19.995	103.133	20.141	-9.825	0.502
1092.000	633.422	80.008	19.995	103.134	20.141	-9.815	0.502
1094.000	634.442	80.006	19.996	103.136	20.142	-9.880	0.515
1096.000	635.450	80.006	19.994	103.129	20.142	-9.838	0.511
1098.000	636.494	80.006	19.994	103.133	20.142	-9.890	0.497
1100.000	637.468	80.007	19.997	103.141	20.145	-10.067	0.477
1102.001	638.502	80.007	19.992	103.139	20.142	-9.882	0.494
1104.001	639.546	80.008	19.993	103.135	20.143	-9.967	0.514
1106.001	640.568	80.008	19.993	103.145	20.140	-9.705	0.541
1108.000	641.560	80.007	19.992	103.135	20.142	-9.894	0.513
1110.001	642.559	80.008	19.993	103.131	20.142	-9.839	0.501
1112.000	643.558	80.008	19.994	103.138	20.145	-10.065	0.504
1114.001	644.581	80.008	19.993	103.137	20.145	-10.110	0.499
1116.000	645.583	80.008	19.994	103.136	20.148	-10.281	0.524
1118.000	646.623	80.007	19.994	103.135	20.148	-10.306	0.536
1120.000	647.605	80.007	19.993	103.138	20.148	-10.319	0.515
1122.000	648.634	80.005	19.995	103.138	20.147	-10.228	0.508
1124.000	649.685	80.006	19.994	103.145	20.148	-10.290	0.551
1126.000	650.716	80.006	19.994	103.137	20.150	-10.449	0.514
1128.000	651.752	80.006	19.994	103.154	20.147	-10.231	0.545
1130.000	652.803	80.006	19.994	103.136	20.149	-10.422	0.461
1132.000	653.764	80.006	19.994	103.138	20.153	-10.670	0.489
1134.000	654.810	80.009	19.994	103.135	20.148	-10.319	0.548
1136.000	655.850	80.008	19.993	103.137	20.150	-10.457	0.530
1138.000	656.815	80.008	19.994	103.135	20.148	-10.319	0.458
1140.000	657.899	80.008	19.992	103.135	20.154	-10.783	0.500
1142.000	658.870	80.008	19.993	103.134	20.149	-10.383	0.515
1144.000	659.925	80.007	19.994	103.138	20.151	-10.523	0.504
1146.000	660.932	80.007	19.995	103.134	20.150	-10.432	0.501
1148.001	661.919	80.007	19.995	103.131	20.150	-10.442	0.529
1150.001	662.947	80.007	19.994	103.136	20.147	-10.265	0.510
1152.000	663.970	80.007	19.995	103.129	20.146	-10.186	0.497
1154.000	665.014	80.008	19.994	103.132	20.148	-10.280	0.495
1156.001	666.009	80.007	19.995	103.131	20.151	-10.552	0.527
1158.000	667.080	80.009	19.993	103.131	20.151	-10.556	0.553
1160.000	668.096	80.009	19.994	103.132	20.151	-10.513	0.520
1162.000	669.079	80.009	19.994	103.130	20.150	-10.471	0.520
1164.000	670.116	80.009	19.995	103.131	20.151	-10.515	0.495
1166.000	671.141	80.009	19.995	103.134	20.153	-10.712	0.471
1168.000	672.153	80.008	19.994	103.130	20.150	-10.443	0.506
1170.000	673.179	80.008	19.994	103.129	20.152	-10.591	0.508
1172.000	674.191	80.007	19.996	103.137	20.151	-10.572	0.506
1174.000	675.240	80.006	19.994	103.131	20.150	-10.432	0.521
1176.001	676.245	80.007	19.996	103.131	20.152	-10.597	0.522
1178.000	677.254	80.005	19.996	103.130	20.151	-10.540	0.514
1180.000	678.286	80.006	19.996	103.140	20.150	-10.460	0.500
1182.000	679.303	80.008	19.996	103.138	20.152	-10.633	0.525
1184.000	680.276	80.008	19.995	103.133	20.151	-10.542	0.484
1186.000	681.362	80.007	19.994	103.131	20.152	-10.611	0.502
1188.000	682.296	80.006	19.995	103.131	20.152	-10.631	0.474
1190.000	683.332	80.007	19.993	103.130	20.152	-10.621	0.507
1192.000	684.349	80.008	19.994	103.131	20.152	-10.589	0.502
1194.000	685.317	80.008	19.993	103.131	20.153	-10.682	0.503
1196.000	686.370	80.007	19.995	103.131	20.152	-10.650	0.484
1198.000	687.340	80.006	19.994	103.134	20.154	-10.753	0.486
1200.001	688.353	80.007	19.993	103.134	20.149	-10.363	0.514
1202.000	689.338	80.006	19.992	103.134	20.151	-10.553	0.497
1204.000	690.379	80.006	19.994	103.134	20.151	-10.521	0.555
1206.001	691.423	80.007	19.994	103.134	20.153	-10.664	0.531
1208.000	692.395	80.006	19.992	103.131	20.153	-10.720	0.501
1210.000	693.391	80.007	19.993	103.130	20.152	-10.635	0.506
1212.000	694.419	80.007	19.993	103.130	20.151	-10.513	0.496
1214.000	695.381	80.007	19.995	103.126	20.154	-10.728	0.482
1216.001	696.439	80.008	19.993	103.130	20.153	-10.672	0.534
1218.000	697.447	80.008	19.993	103.131	20.152	-10.590	0.511
1220.000	698.476	80.009	19.995	103.131	20.152	-10.613	0.509
1222.000	699.493	80.009	19.994	103.129	20.150	-10.464	0.519
1224.000	700.481	80.008	19.992	103.129	20.149	-10.412	0.494
1226.001	701.510	80.007	19.994	103.129	20.157	-10.972	0.519
1228.001	702.504	80.008	19.995	103.129	20.152	-10.633	0.497
1230.000	703.483	80.008	19.994	103.129	20.154	-10.769	0.464
1232.000	704.503	80.009	19.993	103.130	20.156	-10.920	0.480
1234.001	705.488	80.008	19.993	103.130	20.154	-10.747	0.538
1236.000	706.483	80.008	19.994	103.129	20.154	-10.763	0.482
1238.001	707.468	80.008	19.993	103.130	20.154	-10.749	0.512
1240.000	708.496	80.009	19.995	103.130	20.156	-10.907	0.516
1242.000	709.479	80.009	19.994	103.131	20.156	-10.885	0.507
1244.001	710.437	80.008	19.993	103.132	20.157	-10.954	0.462
1246.000	711.456	80.009	19.995	103.129	20.157	-10.969	0.501
1248.000	712.436	80.007	19.993	103.130	20.152	-10.636	0.493
1250.000	713.467	80.007	19.995	103.131	20.153	-10.690	0.511
1252.000	714.468	80.006	19.995	103.131	20.152	-10.642	0.503
1254.000	715.502	80.006	19.995	103.133	20.156	-10.877	0.524
1256.000	716.519	80.007	19.995	103.134	20.153	-10.715	0.510
1258.000	717.533	80.005	19.995	103.135	20.155	-10.812	0.502
1260.000	718.500	80.006	19.994	103.134	20.154	-10.798	0.501
1262.000	719.539	80.005	19.995	103.136	20.156	-10.932	0.512
1264.000	720.497	80.007	19.994	103.135	20.160	-11.206	0.470
1266.000	721.552	80.005	19.995	103.133	20.155	-10.844	0.508
1268.001	722.513	80.005	19.995	103.134	20.158	-11.033	0.491
1270.000	723.504	80.006	19.996	103.133	20.157	-10.958	0.488
1272.001	724.531	80.008	19.994	103.132	20.156	-10.893	0.488
1274.000	725.595	80.008	19.995	103.131	20.157	-10.972	0.506
1276.000	726.612	80.006	19.994	103.129	20.158	-11.053	0.489
1278.000	727.690	80.006	19.994	103.128	20.155	-10.858	0.539
1280.001	728.641	80.007	19.996	103.129	20.152	-10.586	0.499
1282.000	729.684	80.007	19.995	103.131	20.154	-10.763	0.527
1284.001	730.743	80.006	19.994	103.131	20.155	-10.834	0.533
1286.000	731.752	80.008	19.998	103.128	20.159	-11.098	0.528
1288.000	732.792	80.007	19.997	103.129	20.159	-11.104	0.514
1290.000	733.822	80.006	19.996	103.128	20.157	-11.021	0.515
1292.000	734.872	80.007	19.994	103.133	20.157	-10.988	0.514
1294.000	735.846	80.007	19.993	103.132	20.158	-11.086	0.517
1296.000	736.857	80.007	19.997	103.129	20.159	-11.141	0.526
1298.001	737.876	80.011	19.995	103.131	20.159	-11.113	0.484
1300.000	738.931	80.009	19.995	103.128	20.156	-10.918	0.532
1302.001	739.974	80.008	19.992	103.128	20.160	-11.204	0.533
1304.000	740.984	80.008	19.996	103.129	20.158	-11.093	0.504
1306.000	741.985	80.007	19.992	103.130	20.158	-11.078	0.491
1308.000	743.060	80.008	19.993	103.130	20.157	-10.962	0.530
1309.001	743.569	80.008	19.993	103.130	20.159	-11.107	0.503