File: 01_Data/LatexPillow_C_Foam/MCC/LatexPillow_C_Foam_MCC_30K_min_211213_R2.txt
Sample ID:	C:\MCC\MCC Cal\Test\LatexPillow_C_Foam_MCC_30K_min_211213_R2.txt
Sample Weight (mg):	4.57
Heating Rate (C/s):	0.5
Combustor Temp (C):	900
N2 Flow Rate (cc/min):	80
O2 Flow Rate (cc/min):	20
Calibration File:	C:\MCC\MCC Cal\Coeff1 JN10440_30_210304.txt.txt
T Correction Coefficients:	0	1.024463	0
Time Shift (s):	14
*
Time (s)	Temperature (C)	N2 flow rate (cc/min)	O2 flow rate (cc/min)	Flow Rate (cc/min)	Oxygen (%)	HRR (W/g)	Heating rate (C/s)
0.000	109.017	80.006	19.997	103.020	20.327	-0.163	0.000
2.000	109.023	80.006	19.996	103.015	20.326	-0.129	0.008
4.000	109.039	80.006	19.996	103.030	20.326	-0.079	0.010
6.000	109.053	80.005	19.996	103.038	20.323	0.083	0.043
8.000	109.074	80.006	19.996	103.038	20.324	0.017	0.011
10.001	109.066	80.005	19.995	103.050	20.321	0.269	-0.004
12.000	109.086	80.007	19.995	103.091	20.314	0.736	-0.003
14.000	109.147	80.009	19.995	103.128	20.313	0.797	0.026
16.001	109.211	80.008	19.994	103.116	20.311	0.978	0.050
18.000	109.308	80.006	19.994	103.119	20.310	1.032	0.043
20.000	109.364	80.007	19.993	103.126	20.304	1.434	0.039
22.000	109.492	80.007	19.994	103.146	20.301	1.648	0.091
24.000	109.656	80.007	19.995	103.184	20.298	1.869	0.081
26.000	109.809	80.005	19.995	103.198	20.292	2.303	0.098
28.000	110.019	80.006	19.995	103.217	20.289	2.528	0.097
30.000	110.228	80.006	19.993	103.225	20.283	2.940	0.128
32.000	110.499	80.004	19.994	103.169	20.282	3.030	0.140
34.000	110.768	80.004	19.995	103.225	20.285	2.815	0.117
36.000	111.091	80.005	19.995	103.288	20.281	3.062	0.139
38.000	111.438	80.005	19.994	103.247	20.282	2.976	0.166
40.000	111.815	80.003	19.997	103.249	20.279	3.201	0.190
42.000	112.203	80.005	19.996	103.250	20.280	3.109	0.198
44.000	112.583	80.005	19.995	103.246	20.283	2.919	0.204
46.000	113.048	80.006	19.994	103.245	20.280	3.163	0.243
48.000	113.455	80.005	19.993	103.241	20.280	3.103	0.203
50.000	113.916	80.004	19.994	103.245	20.278	3.266	0.227
52.000	114.408	80.005	19.994	103.248	20.276	3.411	0.223
54.001	114.934	80.004	19.994	103.248	20.275	3.484	0.294
56.000	115.426	80.005	19.994	103.249	20.277	3.342	0.257
58.000	115.950	80.004	19.995	103.247	20.276	3.441	0.268
60.000	116.512	80.003	19.994	103.242	20.272	3.672	0.280
62.001	117.060	80.006	19.994	103.247	20.274	3.533	0.272
64.000	117.609	80.004	19.994	103.252	20.272	3.691	0.281
66.000	118.232	80.005	19.995	103.271	20.269	3.937	0.303
68.000	118.821	80.005	19.996	103.282	20.268	3.951	0.294
70.001	119.428	80.006	19.995	103.285	20.269	3.941	0.307
72.000	120.142	80.005	19.996	103.286	20.264	4.264	0.315
74.000	120.770	80.005	19.994	103.285	20.268	4.016	0.273
76.000	121.507	80.007	19.995	103.287	20.268	4.012	0.354
78.001	122.193	80.006	19.995	103.287	20.263	4.337	0.335
80.000	122.936	80.007	19.995	103.287	20.264	4.239	0.352
82.000	123.653	80.007	19.994	103.286	20.265	4.170	0.367
84.000	124.422	80.007	19.995	103.288	20.264	4.299	0.406
86.000	125.169	80.004	19.994	103.288	20.262	4.429	0.395
88.000	125.988	80.005	19.995	103.288	20.264	4.249	0.398
90.000	126.787	80.005	19.994	103.291	20.264	4.283	0.405
92.000	127.560	80.003	19.995	103.292	20.262	4.401	0.379
94.000	128.409	80.005	19.997	103.291	20.264	4.293	0.416
96.000	129.240	80.005	19.995	103.289	20.266	4.102	0.425
98.000	130.060	80.005	19.995	103.289	20.264	4.289	0.435
100.001	130.922	80.004	19.996	103.290	20.264	4.289	0.459
102.001	131.745	80.006	19.996	103.291	20.260	4.522	0.425
104.000	132.619	80.006	19.994	103.285	20.263	4.328	0.451
106.001	133.436	80.006	19.993	103.288	20.264	4.241	0.426
108.000	134.419	80.006	19.993	103.289	20.263	4.351	0.485
110.000	135.259	80.003	19.994	103.290	20.262	4.391	0.471
112.000	136.135	80.004	19.996	103.290	20.259	4.610	0.450
114.001	137.067	80.003	19.994	103.295	20.260	4.576	0.441
116.000	137.977	80.005	19.995	103.286	20.260	4.518	0.463
118.000	138.888	80.006	19.995	103.291	20.261	4.510	0.449
120.001	139.818	80.004	19.995	103.293	20.261	4.448	0.449
122.001	140.751	80.005	19.995	103.287	20.263	4.366	0.467
124.001	141.711	80.004	19.994	103.286	20.261	4.474	0.482
126.000	142.597	80.005	19.994	103.285	20.264	4.279	0.454
128.000	143.543	80.005	19.996	103.287	20.260	4.529	0.447
130.000	144.563	80.005	19.995	103.286	20.263	4.364	0.508
132.000	145.542	80.004	19.995	103.280	20.262	4.396	0.507
134.000	146.483	80.006	19.993	103.287	20.262	4.421	0.491
136.000	147.450	80.006	19.995	103.284	20.263	4.362	0.511
138.000	148.399	80.005	19.994	103.286	20.263	4.342	0.492
140.000	149.390	80.006	19.994	103.284	20.260	4.527	0.506
142.000	150.369	80.004	19.994	103.288	20.261	4.464	0.474
144.000	151.340	80.005	19.994	103.276	20.263	4.312	0.497
146.001	152.321	80.005	19.994	103.283	20.262	4.429	0.513
148.000	153.299	80.004	19.994	103.275	20.261	4.473	0.477
150.000	154.270	80.006	19.995	103.274	20.260	4.513	0.497
152.001	155.246	80.005	19.995	103.278	20.261	4.450	0.487
154.000	156.227	80.005	19.994	103.286	20.260	4.533	0.485
156.000	157.191	80.005	19.994	103.279	20.260	4.534	0.472
158.000	158.225	80.005	19.994	103.279	20.259	4.610	0.481
160.001	159.200	80.005	19.995	103.270	20.265	4.229	0.473
162.000	160.180	80.006	19.994	103.270	20.264	4.299	0.481
164.000	161.162	80.004	19.994	103.277	20.262	4.423	0.497
166.000	162.156	80.005	19.994	103.275	20.260	4.538	0.498
168.000	163.159	80.005	19.995	103.275	20.263	4.330	0.497
170.000	164.165	80.005	19.994	103.286	20.260	4.567	0.500
172.000	165.259	80.004	19.995	103.266	20.261	4.491	0.549
174.000	166.227	80.005	19.994	103.267	20.263	4.368	0.509
176.000	167.272	80.005	19.994	103.274	20.260	4.567	0.528
178.000	168.255	80.005	19.994	103.256	20.261	4.511	0.511
180.000	169.204	80.006	19.994	103.261	20.260	4.560	0.503
182.000	170.236	80.006	19.994	103.261	20.264	4.249	0.520
184.001	171.201	80.005	19.995	103.251	20.262	4.439	0.482
186.000	172.226	80.007	19.994	103.252	20.261	4.487	0.465
188.000	173.261	80.007	19.994	103.257	20.260	4.570	0.508
190.000	174.268	80.004	19.996	103.249	20.256	4.807	0.525
192.000	175.207	80.003	19.996	103.249	20.257	4.783	0.493
194.000	176.233	80.004	19.996	103.252	20.255	4.885	0.490
196.000	177.244	80.003	19.995	103.246	20.257	4.768	0.493
198.000	178.268	80.005	19.994	103.246	20.254	4.935	0.505
200.000	179.252	80.005	19.995	103.248	20.252	5.143	0.503
202.000	180.242	80.006	19.995	103.248	20.255	4.922	0.504
204.000	181.256	80.004	19.994	103.247	20.251	5.178	0.496
206.000	182.259	80.005	19.993	103.248	20.250	5.233	0.519
208.000	183.217	80.005	19.995	103.249	20.247	5.462	0.496
210.000	184.234	80.006	19.994	103.248	20.250	5.233	0.503
212.000	185.263	80.005	19.994	103.248	20.250	5.218	0.486
214.000	186.248	80.005	19.994	103.246	20.248	5.393	0.503
216.000	187.239	80.004	19.994	103.246	20.246	5.512	0.467
218.000	188.260	80.004	19.995	103.245	20.243	5.751	0.509
220.000	189.227	80.005	19.996	103.249	20.245	5.618	0.491
222.000	190.176	80.005	19.995	103.250	20.240	5.933	0.459
224.000	191.186	80.004	19.995	103.250	20.243	5.737	0.502
226.000	192.208	80.005	19.995	103.250	20.242	5.850	0.480
228.000	193.166	80.003	19.996	103.250	20.239	6.023	0.508
230.000	194.176	80.003	19.994	103.243	20.239	6.026	0.507
232.000	195.138	80.005	19.993	103.245	20.237	6.169	0.493
234.000	196.157	80.005	19.995	103.247	20.235	6.344	0.491
236.000	197.125	80.005	19.994	103.246	20.237	6.197	0.472
238.000	198.130	80.005	19.994	103.241	20.236	6.207	0.486
240.000	199.102	80.006	19.993	103.239	20.237	6.140	0.486
242.000	200.126	80.005	19.994	103.235	20.232	6.515	0.489
244.000	201.062	80.006	19.994	103.249	20.230	6.646	0.491
246.000	202.073	80.006	19.994	103.240	20.233	6.449	0.514
248.000	203.068	80.005	19.994	103.229	20.230	6.654	0.485
250.000	204.078	80.006	19.993	103.235	20.231	6.624	0.474
252.000	205.072	80.005	19.995	103.234	20.230	6.679	0.485
254.000	206.077	80.006	19.996	103.238	20.227	6.855	0.508
256.000	207.041	80.006	19.995	103.242	20.227	6.891	0.475
258.000	208.060	80.006	19.995	103.231	20.226	6.934	0.497
260.000	209.025	80.007	19.995	103.238	20.227	6.879	0.499
262.000	210.010	80.006	19.995	103.230	20.224	7.059	0.487
264.000	211.017	80.008	19.994	103.231	20.223	7.177	0.520
266.000	212.005	80.007	19.993	103.226	20.220	7.399	0.483
268.000	212.953	80.008	19.994	103.229	20.223	7.152	0.466
270.000	213.955	80.006	19.993	103.223	20.223	7.132	0.491
272.000	214.965	80.005	19.995	103.215	20.222	7.230	0.527
274.000	215.951	80.005	19.995	103.219	20.223	7.147	0.498
276.000	216.888	80.005	19.995	103.226	20.221	7.308	0.448
278.000	217.875	80.005	19.994	103.222	20.220	7.365	0.493
280.000	218.872	80.003	19.997	103.224	20.220	7.377	0.484
282.000	219.843	80.004	19.996	103.236	20.220	7.375	0.499
284.000	220.860	80.005	19.995	103.226	20.220	7.369	0.506
286.000	221.789	80.004	19.996	103.224	20.218	7.501	0.465
288.000	222.806	80.003	19.994	103.223	20.220	7.389	0.560
290.000	223.770	80.004	19.995	103.217	20.217	7.575	0.482
292.000	224.744	80.004	19.994	103.223	20.217	7.583	0.516
294.000	225.703	80.004	19.994	103.225	20.217	7.571	0.445
296.000	226.713	80.004	19.995	103.224	20.216	7.617	0.497
298.000	227.681	80.004	19.995	103.234	20.216	7.623	0.485
300.000	228.695	80.003	19.995	103.216	20.214	7.796	0.511
302.000	229.709	80.004	19.994	103.224	20.217	7.553	0.506
304.000	230.731	80.004	19.994	103.217	20.214	7.755	0.516
306.000	231.718	80.005	19.993	103.218	20.216	7.672	0.514
308.000	232.704	80.005	19.995	103.216	20.217	7.584	0.508
310.000	233.661	80.004	19.996	103.217	20.216	7.621	0.487
312.000	234.659	80.005	19.995	103.214	20.215	7.751	0.529
314.000	235.630	80.004	19.995	103.214	20.218	7.474	0.496
316.000	236.635	80.005	19.995	103.216	20.214	7.761	0.496
318.000	237.621	80.006	19.996	103.211	20.217	7.596	0.492
320.000	238.601	80.006	19.996	103.211	20.218	7.502	0.499
322.000	239.589	80.006	19.995	103.218	20.219	7.418	0.510
324.000	240.588	80.006	19.996	103.211	20.216	7.614	0.501
326.000	241.561	80.006	19.994	103.214	20.214	7.782	0.491
328.000	242.535	80.007	19.994	103.220	20.216	7.630	0.464
330.000	243.563	80.006	19.995	103.220	20.214	7.763	0.505
332.000	244.584	80.005	19.994	103.212	20.214	7.778	0.496
334.000	245.571	80.005	19.994	103.209	20.215	7.743	0.485
336.000	246.619	80.006	19.995	103.210	20.215	7.712	0.506
338.000	247.565	80.006	19.995	103.211	20.218	7.539	0.479
340.000	248.553	80.006	19.996	103.214	20.214	7.757	0.507
342.000	249.548	80.006	19.995	103.211	20.214	7.782	0.500
344.000	250.600	80.006	19.994	103.211	20.212	7.914	0.477
346.000	251.634	80.006	19.994	103.208	20.209	8.134	0.499
348.000	252.629	80.007	19.996	103.208	20.212	7.895	0.519
350.000	253.600	80.006	19.994	103.208	20.211	8.001	0.505
352.000	254.631	80.006	19.995	103.210	20.212	7.958	0.534
354.000	255.629	80.005	19.994	103.209	20.210	8.091	0.485
356.000	256.605	80.005	19.996	103.211	20.207	8.254	0.487
358.000	257.588	80.004	19.995	103.210	20.208	8.220	0.479
360.000	258.611	80.005	19.995	103.213	20.206	8.335	0.516
362.000	259.584	80.005	19.995	103.208	20.206	8.370	0.510
364.000	260.613	80.006	19.993	103.206	20.203	8.583	0.531
366.000	261.618	80.006	19.994	103.208	20.201	8.705	0.514
368.000	262.575	80.005	19.994	103.209	20.202	8.628	0.460
370.000	263.616	80.005	19.994	103.211	20.200	8.760	0.505
372.000	264.618	80.004	19.994	103.213	20.199	8.837	0.505
374.000	265.613	80.005	19.994	103.211	20.199	8.855	0.507
376.000	266.596	80.006	19.995	103.202	20.192	9.327	0.502
378.000	267.616	80.003	19.997	103.184	20.193	9.244	0.491
380.000	268.632	80.005	19.995	103.199	20.193	9.263	0.507
382.000	269.606	80.004	19.996	103.199	20.188	9.615	0.487
384.000	270.650	80.005	19.995	103.197	20.189	9.568	0.485
386.000	271.652	80.005	19.995	103.190	20.191	9.439	0.523
388.000	272.651	80.006	19.995	103.181	20.193	9.286	0.514
390.000	273.610	80.004	19.994	103.188	20.190	9.485	0.497
392.000	274.575	80.005	19.994	103.178	20.186	9.759	0.497
394.000	275.646	80.006	19.995	103.183	20.187	9.653	0.517
396.000	276.611	80.004	19.994	103.183	20.186	9.776	0.488
398.000	277.638	80.005	19.996	103.193	20.184	9.909	0.469
400.000	278.643	80.008	19.996	103.185	20.184	9.931	0.507
402.000	279.642	80.007	19.996	103.191	20.182	10.067	0.500
404.000	280.657	80.007	19.995	103.180	20.183	9.981	0.504
406.000	281.623	80.006	19.997	103.182	20.181	10.108	0.500
408.000	282.662	80.006	19.993	103.172	20.178	10.305	0.514
410.000	283.658	80.006	19.995	103.172	20.172	10.751	0.487
412.001	284.694	80.006	19.996	103.176	20.175	10.545	0.532
414.000	285.684	80.006	19.995	103.174	20.172	10.777	0.513
416.000	286.715	80.005	19.996	103.183	20.168	11.011	0.518
418.000	287.722	80.007	19.993	103.177	20.168	11.018	0.518
420.000	288.751	80.006	19.993	103.182	20.166	11.185	0.501
422.000	289.726	80.008	19.994	103.186	20.162	11.457	0.488
424.000	290.726	80.007	19.995	103.187	20.160	11.584	0.499
426.000	291.782	80.006	19.995	103.180	20.159	11.636	0.497
428.000	292.773	80.009	19.994	103.191	20.155	11.950	0.505
430.000	293.852	80.007	19.993	103.185	20.149	12.389	0.535
432.000	294.823	80.007	19.994	103.199	20.148	12.459	0.509
434.000	295.893	80.004	19.994	103.188	20.143	12.793	0.525
436.000	296.857	80.005	19.995	103.181	20.137	13.225	0.524
438.000	297.923	80.004	19.996	103.188	20.133	13.461	0.528
440.000	298.940	80.005	19.995	103.182	20.127	13.912	0.536
442.000	299.945	80.005	19.995	103.177	20.121	14.331	0.506
444.000	300.993	80.003	19.996	103.172	20.116	14.699	0.530
446.000	301.987	80.006	19.996	103.176	20.112	14.979	0.538
448.000	303.016	80.005	19.994	103.179	20.103	15.600	0.521
450.000	304.000	80.004	19.996	103.180	20.097	15.996	0.490
452.000	305.034	80.006	19.996	103.173	20.093	16.325	0.481
454.000	306.034	80.007	19.995	103.175	20.081	17.142	0.504
456.000	307.063	80.006	19.995	103.171	20.073	17.715	0.505
458.000	308.107	80.006	19.995	103.172	20.063	18.403	0.492
460.000	309.140	80.006	19.995	103.174	20.055	18.962	0.534
462.000	310.177	80.004	19.995	103.179	20.039	20.105	0.528
464.000	311.191	80.005	19.996	103.175	20.031	20.678	0.489
466.000	312.244	80.006	19.995	103.170	20.021	21.401	0.493
468.000	313.249	80.004	19.996	103.172	20.008	22.262	0.481
470.000	314.325	80.003	19.996	103.172	19.995	23.228	0.543
472.000	315.347	80.003	19.996	103.168	19.983	24.073	0.511
474.000	316.326	80.003	19.996	103.170	19.969	25.072	0.509
476.000	317.376	80.004	19.995	103.169	19.951	26.279	0.510
478.000	318.390	80.004	19.995	103.163	19.939	27.149	0.529
480.000	319.431	80.005	19.995	103.168	19.923	28.309	0.531
482.000	320.457	80.005	19.996	103.168	19.906	29.474	0.537
484.000	321.476	80.006	19.995	103.170	19.889	30.640	0.522
486.000	322.486	80.007	19.994	103.167	19.872	31.884	0.523
488.000	323.504	80.006	19.995	103.170	19.855	33.086	0.518
490.000	324.487	80.007	19.994	103.170	19.833	34.600	0.462
492.000	325.533	80.006	19.994	103.168	19.812	36.089	0.530
494.000	326.544	80.007	19.994	103.172	19.794	37.369	0.516
496.000	327.571	80.006	19.993	103.167	19.772	38.914	0.506
498.000	328.590	80.006	19.994	103.166	19.751	40.384	0.515
500.000	329.587	80.006	19.994	103.162	19.730	41.832	0.511
502.000	330.594	80.006	19.996	103.154	19.706	43.544	0.490
504.000	331.589	80.005	19.995	103.166	19.679	45.455	0.495
506.000	332.605	80.006	19.995	103.148	19.653	47.283	0.524
508.000	333.620	80.008	19.995	103.152	19.625	49.285	0.524
510.000	334.656	80.007	19.994	103.147	19.597	51.220	0.546
512.000	335.673	80.008	19.994	103.142	19.570	53.138	0.513
514.000	336.657	80.008	19.994	103.141	19.539	55.305	0.469
516.000	337.649	80.007	19.994	103.140	19.501	57.953	0.469
518.000	338.717	80.007	19.995	103.144	19.469	60.268	0.509
520.000	339.728	80.006	19.995	103.134	19.433	62.744	0.518
522.000	340.736	80.006	19.994	103.137	19.395	65.470	0.489
524.000	341.760	80.006	19.994	103.131	19.357	68.097	0.503
526.000	342.767	80.005	19.995	103.129	19.314	71.136	0.488
528.000	343.799	80.007	19.994	103.131	19.268	74.362	0.502
530.000	344.794	80.006	19.995	103.127	19.225	77.363	0.495
532.000	345.814	80.006	19.996	103.123	19.175	80.886	0.478
534.000	346.776	80.006	19.996	103.121	19.124	84.538	0.485
536.000	347.817	80.005	19.995	103.120	19.073	88.099	0.534
538.000	348.816	80.005	19.994	103.117	19.015	92.182	0.511
540.000	349.819	80.006	19.995	103.106	18.957	96.279	0.502
542.000	350.827	80.007	19.995	103.103	18.898	100.414	0.474
544.000	351.845	80.006	19.994	103.116	18.827	105.415	0.511
546.000	352.866	80.005	19.995	103.115	18.759	110.179	0.520
548.000	353.878	80.006	19.994	103.098	18.686	115.324	0.499
550.000	354.858	80.006	19.994	103.094	18.612	120.485	0.501
552.000	355.875	80.004	19.995	103.095	18.530	126.239	0.537
554.000	356.884	80.005	19.995	103.094	18.445	132.258	0.482
556.000	357.916	80.005	19.994	103.093	18.360	138.184	0.530
558.000	358.921	80.004	19.995	103.076	18.278	143.956	0.519
560.001	359.937	80.004	19.994	103.073	18.193	149.888	0.514
562.000	360.928	80.005	19.994	103.060	18.104	156.142	0.502
564.000	361.902	80.004	19.995	103.058	18.019	162.119	0.471
566.000	362.939	80.005	19.996	103.052	17.928	168.533	0.489
568.000	363.908	80.007	19.996	103.034	17.836	174.932	0.499
570.000	364.952	80.005	19.996	103.022	17.751	180.897	0.515
572.000	365.944	80.008	19.994	103.017	17.667	186.796	0.505
574.000	366.944	80.004	19.995	103.012	17.580	192.895	0.487
576.000	367.966	80.007	19.994	103.012	17.495	198.828	0.529
578.000	368.958	80.007	19.993	102.997	17.418	204.228	0.483
580.000	369.983	80.005	19.996	102.974	17.342	209.574	0.486
582.000	370.947	80.006	19.994	102.975	17.277	214.145	0.495
584.000	371.980	80.006	19.995	102.967	17.213	218.599	0.490
586.000	372.990	80.008	19.993	102.946	17.156	222.605	0.497
588.000	374.018	80.008	19.994	102.936	17.107	226.034	0.482
590.000	374.996	80.007	19.993	102.935	17.068	228.761	0.512
592.000	376.027	80.008	19.994	102.926	17.037	230.939	0.481
594.000	377.050	80.006	19.995	102.923	17.019	232.261	0.507
596.000	378.069	80.008	19.994	102.909	17.009	232.996	0.488
598.000	379.070	80.007	19.996	102.916	17.003	233.374	0.510
600.000	380.063	80.007	19.994	102.902	17.015	232.563	0.521
602.000	381.105	80.004	19.995	102.901	17.030	231.509	0.512
604.000	382.107	80.007	19.994	102.906	17.056	229.700	0.504
606.000	383.080	80.004	19.995	102.912	17.089	227.425	0.486
608.000	384.145	80.006	19.994	102.926	17.129	224.596	0.537
610.000	385.119	80.005	19.994	102.925	17.175	221.414	0.483
612.000	386.129	80.005	19.994	102.936	17.228	217.711	0.506
614.000	387.157	80.006	19.993	102.943	17.283	213.846	0.509
616.000	388.166	80.006	19.994	102.948	17.340	209.853	0.507
618.000	389.204	80.007	19.995	102.951	17.403	205.420	0.493
620.000	390.205	80.005	19.994	102.947	17.467	200.955	0.526
622.000	391.204	80.006	19.994	102.975	17.537	196.044	0.490
624.001	392.221	80.007	19.994	102.977	17.608	191.054	0.508
626.000	393.293	80.006	19.994	102.978	17.678	186.127	0.551
628.000	394.311	80.006	19.995	102.985	17.752	180.931	0.478
630.000	395.305	80.005	19.994	103.001	17.821	176.105	0.506
632.000	396.336	80.006	19.995	103.006	17.890	171.258	0.513
634.000	397.349	80.004	19.994	103.006	17.960	166.298	0.509
636.000	398.401	80.005	19.995	103.011	18.024	161.811	0.528
638.000	399.387	80.005	19.995	103.012	18.094	156.947	0.501
640.000	400.431	80.006	19.997	103.015	18.157	152.521	0.482
642.000	401.459	80.007	19.995	103.031	18.219	148.163	0.476
644.000	402.456	80.007	19.994	103.023	18.281	143.789	0.496
646.000	403.474	80.007	19.995	103.029	18.336	139.921	0.497
648.000	404.518	80.007	19.996	103.045	18.390	136.114	0.546
650.000	405.498	80.006	19.997	103.052	18.435	132.976	0.494
652.000	406.514	80.008	19.995	103.050	18.483	129.593	0.504
654.000	407.561	80.008	19.995	103.052	18.531	126.168	0.524
656.000	408.539	80.006	19.995	103.052	18.575	123.118	0.498
658.000	409.602	80.007	19.995	103.054	18.616	120.250	0.515
660.000	410.607	80.005	19.996	103.060	18.649	117.924	0.515
662.000	411.660	80.006	19.995	103.064	18.684	115.464	0.506
664.000	412.642	80.006	19.996	103.057	18.717	113.170	0.506
666.000	413.638	80.006	19.996	103.059	18.743	111.263	0.487
668.000	414.665	80.007	19.995	103.071	18.771	109.332	0.494
670.000	415.649	80.008	19.995	103.086	18.793	107.806	0.494
672.001	416.701	80.008	19.994	103.076	18.821	105.836	0.529
674.000	417.706	80.007	19.994	103.088	18.841	104.434	0.502
676.000	418.763	80.008	19.995	103.080	18.859	103.143	0.518
678.000	419.734	80.009	19.994	103.080	18.875	102.009	0.495
680.000	420.749	80.007	19.993	103.086	18.896	100.571	0.504
682.000	421.784	80.006	19.994	103.086	18.914	99.313	0.554
684.000	422.766	80.007	19.993	103.088	18.927	98.347	0.501
686.000	423.810	80.006	19.994	103.087	18.942	97.278	0.485
688.000	424.810	80.005	19.994	103.094	18.957	96.234	0.481
690.000	425.834	80.005	19.994	103.094	18.971	95.250	0.534
692.000	426.871	80.005	19.994	103.094	18.985	94.258	0.476
694.000	427.864	80.006	19.994	103.098	18.998	93.370	0.495
696.000	428.916	80.004	19.993	103.097	19.007	92.768	0.523
698.000	429.929	80.006	19.994	103.096	19.022	91.676	0.502
700.001	430.983	80.005	19.995	103.097	19.033	90.904	0.531
702.000	431.957	80.008	19.995	103.100	19.043	90.199	0.491
704.000	433.067	80.007	19.994	103.092	19.054	89.397	0.542
706.000	434.087	80.007	19.994	103.094	19.070	88.274	0.525
708.000	435.086	80.006	19.995	103.096	19.082	87.487	0.518
710.000	436.106	80.007	19.994	103.091	19.094	86.597	0.528
712.000	437.105	80.006	19.994	103.094	19.109	85.534	0.495
714.000	438.123	80.006	19.994	103.099	19.124	84.527	0.507
716.001	439.118	80.006	19.994	103.096	19.138	83.499	0.492
718.000	440.146	80.004	19.995	103.099	19.152	82.514	0.503
720.000	441.142	80.004	19.994	103.101	19.169	81.361	0.498
722.000	442.148	80.005	19.995	103.095	19.187	80.050	0.494
724.000	443.182	80.005	19.995	103.098	19.203	78.939	0.508
726.000	444.182	80.006	19.996	103.104	19.228	77.150	0.515
728.000	445.176	80.007	19.994	103.110	19.248	75.811	0.515
730.000	446.131	80.009	19.995	103.098	19.263	74.752	0.497
732.000	447.117	80.008	19.995	103.095	19.283	73.283	0.491
734.000	448.166	80.008	19.994	103.101	19.305	71.771	0.545
736.000	449.195	80.007	19.996	103.100	19.327	70.247	0.528
738.000	450.141	80.006	19.995	103.115	19.349	68.657	0.502
740.000	451.197	80.006	19.994	103.118	19.367	67.420	0.537
742.000	452.253	80.006	19.994	103.102	19.392	65.679	0.529
744.000	453.220	80.006	19.994	103.118	19.415	64.043	0.496
746.000	454.221	80.005	19.995	103.114	19.435	62.602	0.535
748.000	455.206	80.006	19.996	103.115	19.460	60.891	0.539
750.000	456.259	80.006	19.996	103.119	19.485	59.116	0.541
752.001	457.253	80.007	19.995	103.130	19.510	57.377	0.527
754.000	458.235	80.008	19.995	103.118	19.534	55.659	0.480
756.000	459.286	80.009	19.995	103.112	19.563	53.644	0.478
758.000	460.300	80.008	19.995	103.112	19.585	52.066	0.488
760.000	461.286	80.008	19.995	103.126	19.614	50.033	0.487
762.000	462.299	80.006	19.996	103.125	19.640	48.200	0.506
764.000	463.288	80.006	19.995	103.126	19.670	46.101	0.503
766.000	464.299	80.007	19.994	103.131	19.694	44.426	0.507
768.000	465.300	80.006	19.994	103.126	19.720	42.542	0.489
770.000	466.348	80.006	19.994	103.130	19.745	40.813	0.532
772.000	467.334	80.006	19.994	103.126	19.775	38.706	0.513
774.000	468.315	80.006	19.993	103.127	19.803	36.719	0.471
776.000	469.328	80.006	19.994	103.132	19.832	34.649	0.473
778.000	470.354	80.005	19.995	103.138	19.857	32.904	0.505
780.000	471.423	80.007	19.993	103.130	19.883	31.068	0.496
782.001	472.411	80.006	19.993	103.143	19.911	29.148	0.499
784.000	473.419	80.006	19.995	103.137	19.937	27.315	0.523
786.000	474.498	80.006	19.994	103.138	19.962	25.539	0.520
788.000	475.540	80.006	19.994	103.138	19.987	23.735	0.505
790.000	476.561	80.006	19.995	103.136	20.010	22.143	0.508
792.000	477.554	80.005	19.994	103.144	20.031	20.688	0.501
794.000	478.631	80.007	19.996	103.149	20.053	19.109	0.498
796.000	479.672	80.007	19.995	103.146	20.074	17.659	0.523
798.000	480.720	80.007	19.995	103.150	20.093	16.324	0.533
800.000	481.717	80.005	19.995	103.136	20.106	15.387	0.514
802.000	482.690	80.007	19.995	103.154	20.121	14.304	0.482
804.000	483.782	80.007	19.994	103.164	20.138	13.113	0.520
806.000	484.743	80.007	19.994	103.156	20.146	12.565	0.531
808.000	485.852	80.007	19.995	103.151	20.167	11.114	0.531
810.000	486.933	80.006	19.995	103.153	20.163	11.350	0.510
812.000	487.854	80.007	19.994	103.141	20.181	10.132	0.507
814.000	488.958	80.007	19.995	103.152	20.180	10.179	0.559
816.000	489.984	80.007	19.995	103.137	20.185	9.798	0.522
818.000	490.928	80.007	19.996	103.151	20.186	9.749	0.550
820.000	491.990	80.006	19.997	103.153	20.193	9.269	0.429
822.000	493.310	80.006	19.994	103.153	20.199	8.842	0.945
824.000	493.647	80.005	19.996	103.160	20.203	8.581	-0.057
826.000	495.432	80.007	19.995	103.162	20.208	8.201	0.294
828.000	496.063	80.008	19.994	103.148	20.205	8.399	0.526
830.000	497.195	80.006	19.995	103.142	20.207	8.285	0.482
832.000	498.200	80.007	19.995	103.146	20.209	8.117	0.525
834.000	499.201	80.007	19.994	103.154	20.208	8.210	0.471
836.000	500.287	80.009	19.995	103.123	20.209	8.102	0.503
838.000	501.318	80.008	19.994	103.103	20.211	7.998	0.508
840.000	502.428	80.009	19.995	103.205	20.214	7.750	0.568
842.000	503.398	80.008	19.995	103.142	20.212	7.927	0.516
844.000	504.487	80.007	19.995	103.156	20.214	7.798	0.559
846.000	505.493	80.006	19.995	103.149	20.213	7.823	0.511
848.000	506.556	80.005	19.996	103.146	20.215	7.743	0.516
850.000	507.641	80.005	19.996	103.146	20.214	7.789	0.553
852.000	508.624	80.006	19.995	103.143	20.210	8.051	0.501
854.000	509.727	80.005	19.995	103.154	20.212	7.906	0.505
856.000	510.703	80.005	19.995	103.141	20.216	7.664	0.512
858.000	511.754	80.007	19.995	103.150	20.216	7.658	0.529
860.000	512.808	80.007	19.995	103.146	20.214	7.790	0.525
862.000	513.887	80.004	19.994	103.159	20.219	7.461	0.550
864.000	514.962	80.006	19.995	103.151	20.213	7.851	0.523
866.000	515.916	80.006	19.994	103.146	20.215	7.711	0.491
868.000	517.060	80.006	19.994	103.155	20.214	7.760	0.555
870.000	518.085	80.006	19.993	103.140	20.215	7.690	0.507
872.000	519.162	80.005	19.994	103.153	20.214	7.756	0.519
874.000	520.253	80.006	19.994	103.150	20.217	7.578	0.545
876.000	521.273	80.005	19.994	103.139	20.220	7.383	0.562
878.000	522.339	80.004	19.994	103.145	20.216	7.665	0.531
880.000	523.417	80.006	19.996	103.143	20.214	7.762	0.575
882.000	524.480	80.004	19.995	103.139	20.213	7.821	0.559
884.000	525.538	80.005	19.995	103.143	20.214	7.788	0.546
886.000	526.592	80.006	19.994	103.140	20.216	7.667	0.556
888.001	527.658	80.005	19.995	103.144	20.214	7.792	0.535
890.001	528.734	80.005	19.993	103.115	20.212	7.940	0.566
892.000	529.774	80.007	19.994	103.096	20.212	7.937	0.557
894.000	530.815	80.007	19.995	103.188	20.214	7.761	0.518
896.000	531.869	80.009	19.994	103.148	20.215	7.688	0.536
898.000	532.922	80.008	19.994	103.137	20.216	7.653	0.499
900.000	533.941	80.008	19.994	103.143	20.212	7.926	0.521
902.000	535.054	80.007	19.994	103.142	20.214	7.755	0.559
904.000	536.061	80.007	19.995	103.131	20.213	7.860	0.498
906.000	537.147	80.006	19.994	103.138	20.216	7.668	0.522
908.000	538.196	80.007	19.995	103.133	20.212	7.930	0.522
910.000	539.289	80.007	19.994	103.135	20.212	7.928	0.543
912.000	540.344	80.006	19.995	103.134	20.213	7.870	0.522
914.000	541.370	80.008	19.994	103.136	20.211	7.964	0.562
916.000	542.394	80.009	19.996	103.132	20.212	7.939	0.542
918.000	543.448	80.007	19.994	103.129	20.213	7.852	0.530
920.000	544.500	80.008	19.994	103.133	20.214	7.762	0.506
922.000	545.542	80.009	19.994	103.132	20.214	7.801	0.525
924.000	546.564	80.007	19.995	103.137	20.214	7.799	0.482
926.000	547.647	80.006	19.994	103.135	20.212	7.929	0.545
928.000	548.654	80.007	19.994	103.130	20.208	8.175	0.514
930.000	549.703	80.006	19.994	103.129	20.210	8.084	0.511
932.000	550.730	80.005	19.995	103.131	20.208	8.214	0.507
934.000	551.779	80.004	19.994	103.131	20.207	8.279	0.522
936.000	552.816	80.004	19.994	103.132	20.208	8.237	0.511
938.000	553.845	80.005	19.996	103.132	20.209	8.145	0.527
940.000	554.914	80.005	19.997	103.135	20.208	8.218	0.559
942.000	555.905	80.004	19.996	103.138	20.211	8.026	0.484
944.000	556.944	80.004	19.996	103.136	20.208	8.204	0.532
946.000	557.986	80.003	19.997	103.139	20.209	8.112	0.527
948.000	558.969	80.005	19.995	103.141	20.207	8.273	0.499
950.000	560.037	80.005	19.994	103.135	20.207	8.260	0.521
952.000	561.050	80.005	19.995	103.134	20.212	7.943	0.516
954.000	562.079	80.005	19.994	103.133	20.208	8.237	0.500
956.000	563.096	80.004	19.995	103.136	20.208	8.197	0.494
958.000	564.171	80.005	19.994	103.134	20.208	8.206	0.525
960.000	565.190	80.006	19.994	103.133	20.210	8.091	0.531
962.000	566.227	80.005	19.993	103.134	20.207	8.298	0.537
964.000	567.248	80.006	19.995	103.133	20.207	8.280	0.528
966.000	568.253	80.006	19.994	103.131	20.204	8.508	0.514
968.000	569.259	80.006	19.994	103.136	20.209	8.148	0.482
970.000	570.297	80.007	19.994	103.133	20.207	8.256	0.540
972.001	571.331	80.006	19.993	103.140	20.207	8.242	0.506
974.000	572.318	80.008	19.994	103.149	20.205	8.417	0.455
976.000	573.361	80.008	19.994	103.134	20.207	8.296	0.513
978.000	574.422	80.008	19.995	103.132	20.205	8.398	0.546
980.000	575.446	80.008	19.994	103.132	20.201	8.706	0.498
982.000	576.439	80.008	19.994	103.130	20.201	8.690	0.479
984.000	577.451	80.007	19.995	103.129	20.203	8.569	0.486
986.000	578.493	80.007	19.994	103.131	20.200	8.788	0.492
988.000	579.505	80.008	19.994	103.131	20.198	8.880	0.537
990.000	580.487	80.007	19.994	103.142	20.198	8.933	0.472
992.000	581.520	80.006	19.993	103.139	20.199	8.808	0.495
994.000	582.511	80.007	19.995	103.132	20.200	8.773	0.503
996.000	583.503	80.008	19.993	103.135	20.199	8.824	0.474
998.000	584.552	80.007	19.994	103.132	20.194	9.202	0.505
1000.000	585.551	80.008	19.995	103.144	20.196	9.036	0.507
1002.000	586.515	80.008	19.995	103.146	20.196	9.065	0.480
1004.000	587.556	80.009	19.995	103.137	20.196	9.068	0.495
1006.000	588.539	80.008	19.997	103.138	20.197	9.001	0.489
1008.000	589.556	80.007	19.995	103.163	20.197	8.986	0.500
1010.000	590.620	80.008	19.994	103.150	20.195	9.121	0.527
1012.000	591.599	80.006	19.995	103.131	20.192	9.325	0.514
1014.000	592.603	80.004	19.996	103.148	20.194	9.220	0.472
1016.000	593.615	80.005	19.994	103.138	20.193	9.253	0.524
1018.000	594.646	80.006	19.994	103.134	20.192	9.337	0.489
1020.000	595.705	80.006	19.994	103.135	20.191	9.414	0.524
1022.000	596.716	80.005	19.994	103.145	20.193	9.230	0.492
1024.000	597.715	80.005	19.994	103.146	20.196	9.066	0.521
1026.000	598.709	80.005	19.995	103.135	20.192	9.359	0.509
1028.000	599.710	80.006	19.995	103.134	20.192	9.312	0.502
1030.000	600.712	80.007	19.995	103.131	20.192	9.332	0.533
1032.000	601.739	80.006	19.995	103.133	20.194	9.195	0.531
1034.000	602.753	80.006	19.996	103.140	20.192	9.336	0.510
1036.000	603.731	80.006	19.995	103.080	20.194	9.225	0.513
1038.000	604.775	80.005	19.997	103.182	20.190	9.447	0.515
1040.000	605.765	80.006	19.995	103.149	20.191	9.389	0.527
1042.000	606.796	80.005	19.997	103.130	20.189	9.557	0.488
1044.000	607.806	80.007	19.994	103.132	20.190	9.448	0.527
1046.000	608.884	80.007	19.994	103.135	20.187	9.672	0.540
1048.001	609.888	80.006	19.994	103.154	20.189	9.577	0.516
1050.000	610.913	80.007	19.995	103.144	20.185	9.836	0.508
1052.001	611.926	80.007	19.994	103.136	20.187	9.703	0.498
1054.000	612.950	80.008	19.993	103.139	20.187	9.675	0.512
1056.001	614.018	80.007	19.995	103.130	20.188	9.587	0.539
1058.001	615.052	80.008	19.994	103.144	20.188	9.627	0.540
1060.000	616.113	80.007	19.996	103.151	20.185	9.847	0.532
1062.000	617.159	80.007	19.995	103.144	20.183	9.983	0.519
1064.000	618.222	80.007	19.994	103.138	20.182	10.025	0.502
1066.001	619.309	80.007	19.993	103.136	20.179	10.248	0.527
1068.000	620.427	80.007	19.995	103.136	20.182	10.043	0.556
1070.000	621.408	80.006	19.994	103.137	20.182	10.046	0.517
1072.000	622.574	80.007	19.994	103.145	20.180	10.209	0.572
1074.000	623.635	80.006	19.994	103.136	20.179	10.265	0.552
1076.000	624.720	80.006	19.996	103.132	20.180	10.147	0.555
1078.000	625.812	80.008	19.994	103.138	20.179	10.278	0.562
1080.000	626.817	80.008	19.994	103.136	20.178	10.299	0.513
1082.000	627.895	80.009	19.994	103.152	20.178	10.313	0.545
1084.000	628.956	80.009	19.993	103.142	20.178	10.288	0.516
1086.001	630.031	80.009	19.993	103.145	20.175	10.516	0.529
1088.000	631.042	80.009	19.994	103.137	20.176	10.480	0.498
1090.000	632.109	80.008	19.993	103.133	20.176	10.474	0.518
1092.000	633.072	80.007	19.993	103.132	20.176	10.472	0.505
1094.000	634.133	80.007	19.995	103.132	20.175	10.520	0.538
1096.000	635.174	80.008	19.995	103.131	20.179	10.219	0.512
1098.000	636.144	80.006	19.994	103.130	20.180	10.192	0.481
1100.000	637.135	80.007	19.996	103.131	20.175	10.549	0.491
1102.000	638.114	80.005	19.996	103.130	20.177	10.420	0.469
1104.001	639.120	80.006	19.995	103.130	20.180	10.174	0.488
1106.000	640.101	80.006	19.996	103.130	20.176	10.450	0.485
1108.001	641.071	80.006	19.995	103.137	20.176	10.439	0.477
1110.000	642.048	80.006	19.996	103.129	20.178	10.295	0.498
1112.000	643.034	80.006	19.995	103.129	20.178	10.282	0.491
1114.001	643.993	80.006	19.994	103.131	20.175	10.539	0.470
1116.000	644.957	80.006	19.995	103.124	20.175	10.556	0.481
1118.000	645.943	80.008	19.994	103.124	20.175	10.505	0.510
1120.000	646.906	80.007	19.997	103.130	20.176	10.457	0.477
1122.001	647.861	80.006	19.996	103.130	20.177	10.403	0.491
1124.000	648.872	80.006	19.996	103.130	20.174	10.594	0.526
1126.000	649.861	80.006	19.995	103.128	20.176	10.476	0.501
1128.000	650.792	80.005	19.996	103.134	20.175	10.547	0.474
1130.001	651.781	80.006	19.995	103.139	20.174	10.624	0.464
1132.000	652.766	80.005	19.995	103.133	20.175	10.495	0.478
1134.000	653.752	80.006	19.996	103.136	20.172	10.756	0.486
1136.000	654.797	80.006	19.996	103.134	20.174	10.582	0.518
1138.000	655.755	80.006	19.995	103.132	20.171	10.804	0.500
1140.000	656.771	80.008	19.995	103.130	20.174	10.599	0.512
1142.001	657.749	80.009	19.994	103.130	20.171	10.807	0.563
1144.000	658.753	80.008	19.994	103.130	20.173	10.668	0.461
1146.000	659.705	80.009	19.994	103.132	20.172	10.709	0.469
1148.000	660.720	80.006	19.994	103.132	20.172	10.721	0.514
1150.001	661.731	80.006	19.995	103.133	20.170	10.876	0.525
1152.000	662.710	80.005	19.995	103.135	20.167	11.071	0.500
1154.000	663.754	80.006	19.994	103.137	20.168	11.038	0.543
1156.000	664.809	80.008	19.994	103.136	20.172	10.743	0.521
1158.000	665.826	80.007	19.993	103.143	20.166	11.154	0.492
1160.000	666.868	80.007	19.995	103.143	20.169	10.963	0.518
1162.000	667.968	80.009	19.993	103.149	20.169	10.971	0.516
1164.000	669.003	80.007	19.995	103.148	20.166	11.146	0.524
1166.001	670.069	80.009	19.994	103.136	20.166	11.170	0.518
1168.000	671.163	80.009	19.995	103.135	20.166	11.140	0.525
1170.000	672.241	80.010	19.994	103.140	20.166	11.138	0.546
1172.000	673.316	80.009	19.993	103.138	20.165	11.230	0.540
1174.000	674.408	80.010	19.994	103.133	20.162	11.438	0.550
1176.000	675.510	80.007	19.994	103.136	20.162	11.456	0.578
1178.000	676.590	80.008	19.993	103.133	20.160	11.615	0.541
1180.000	677.692	80.006	19.996	103.141	20.158	11.697	0.557
1182.000	678.765	80.008	19.994	103.142	20.162	11.451	0.531
1184.000	680.020	80.006	19.994	103.134	20.160	11.605	0.667
1186.001	680.919	80.007	19.996	103.139	20.164	11.331	0.520
1188.000	681.965	80.007	19.995	103.137	20.162	11.458	0.510
1190.000	683.043	80.007	19.995	103.135	20.159	11.654	0.547
1192.000	684.093	80.006	19.996	103.130	20.157	11.786	0.519
1194.000	685.181	80.005	19.995	103.131	20.154	11.973	0.538
1196.000	686.253	80.007	19.994	103.138	20.156	11.898	0.545
1198.000	687.293	80.006	19.996	103.141	20.156	11.867	0.521
1200.000	688.356	80.007	19.996	103.138	20.159	11.688	0.560
1202.000	689.397	80.006	19.996	103.140	20.154	12.024	0.522
1204.001	690.429	80.007	19.996	103.132	20.154	11.986	0.526
1206.000	691.439	80.007	19.995	103.143	20.157	11.798	0.501
1208.000	692.467	80.006	19.995	103.135	20.153	12.093	0.500
1210.001	693.519	80.006	19.994	103.138	20.156	11.846	0.504
1212.001	694.580	80.006	19.996	103.138	20.152	12.132	0.545
1214.000	695.635	80.006	19.996	103.140	20.153	12.057	0.547
1216.000	696.646	80.006	19.995	103.137	20.153	12.087	0.504
1218.000	697.679	80.007	19.996	103.134	20.153	12.066	0.537
1220.000	698.679	80.008	19.996	103.137	20.153	12.111	0.511
1222.000	699.692	80.008	19.996	103.138	20.149	12.350	0.464
1224.000	700.734	80.008	19.997	103.143	20.150	12.259	0.508
1226.000	701.745	80.008	19.997	103.132	20.152	12.165	0.495
1228.000	702.737	80.007	19.996	103.132	20.150	12.299	0.487
1230.001	703.715	80.006	19.996	103.130	20.154	12.007	0.473
1232.001	704.758	80.008	19.995	103.136	20.154	11.994	0.498
1234.000	705.767	80.007	19.995	103.128	20.150	12.266	0.486
1236.000	706.724	80.007	19.995	103.147	20.151	12.218	0.475
1238.000	707.766	80.007	19.995	103.134	20.151	12.215	0.528
1240.000	708.736	80.009	19.995	103.131	20.149	12.380	0.502
1242.000	709.750	80.008	19.995	103.141	20.148	12.426	0.537
1244.000	710.748	80.009	19.994	103.139	20.146	12.566	0.534
1246.001	711.718	80.009	19.993	103.131	20.148	12.405	0.482
1248.001	712.724	80.010	19.993	103.136	20.146	12.540	0.460
1250.000	713.730	80.008	19.994	103.139	20.151	12.230	0.489
1252.000	714.715	80.010	19.995	103.141	20.147	12.525	0.512
1254.000	715.681	80.010	19.994	103.134	20.153	12.095	0.468
1256.001	716.696	80.011	19.995	103.144	20.147	12.466	0.485
1258.000	717.676	80.007	19.995	103.151	20.145	12.641	0.480
1260.000	718.671	80.007	19.995	103.136	20.143	12.794	0.457
1262.001	719.679	80.008	19.996	103.132	20.147	12.488	0.487
1264.000	720.660	80.008	19.994	103.135	20.147	12.486	0.488
1266.000	721.673	80.006	19.995	103.136	20.146	12.597	0.504
1268.000	722.619	80.007	19.995	103.137	20.145	12.654	0.491
1270.001	723.585	80.007	19.996	103.141	20.145	12.630	0.444
1272.000	724.547	80.006	19.993	103.151	20.144	12.683	0.469
1274.000	725.554	80.008	19.994	103.139	20.143	12.783	0.490
1276.001	726.593	80.006	19.994	103.145	20.144	12.687	0.535
1278.000	727.597	80.006	19.995	103.152	20.141	12.928	0.496
1280.000	728.592	80.007	19.994	103.146	20.143	12.790	0.486
1282.000	729.541	80.006	19.994	103.136	20.138	13.141	0.502
1284.001	730.543	80.007	19.995	103.138	20.139	13.030	0.462
1286.000	731.560	80.006	19.994	103.144	20.138	13.143	0.518
1288.000	732.573	80.007	19.995	103.157	20.138	13.141	0.495
1290.000	733.607	80.007	19.994	103.154	20.137	13.169	0.518
1292.000	734.603	80.006	19.995	103.133	20.135	13.329	0.485
1294.000	735.634	80.007	19.996	103.132	20.133	13.489	0.494
1296.000	736.582	80.006	19.995	103.132	20.137	13.213	0.500
1298.000	737.613	80.006	19.996	103.134	20.132	13.548	0.513
1300.000	738.591	80.007	19.996	103.141	20.133	13.469	0.477
1302.000	739.631	80.007	19.996	103.144	20.134	13.439	0.505
1304.000	740.655	80.007	19.996	103.143	20.133	13.497	0.515
1306.001	741.663	80.008	19.995	103.149	20.134	13.412	0.490
1308.001	742.715	80.008	19.995	103.135	20.136	13.289	0.530
1309.500	743.473	80.008	19.994	103.148	20.134	13.406	0.506