File: 01_Data/Pipe_Heat_Cable/MCC/Pipe_Heat_Cable_MCC_30K_min_220126_R3.txt
Sample ID:	C:\MCC\MCC Cal\Test\Pipe_Heat_Cable_MCC_30K_min_220126_R3.txt
Sample Weight (mg):	4.82
Heating Rate (C/s):	0.5
Combustor Temp (C):	900
N2 Flow Rate (cc/min):	80
O2 Flow Rate (cc/min):	20
Calibration File:	C:\MCC\MCC Cal\Coeff1 JN10440_30_210304.txt.txt
T Correction Coefficients:	0	1.024463	0
Time Shift (s):	14
*
Time (s)	Temperature (C)	N2 flow rate (cc/min)	O2 flow rate (cc/min)	Flow Rate (cc/min)	Oxygen (%)	HRR (W/g)	Heating rate (C/s)
0.000	112.968	80.009	19.993	103.746	20.128	-0.145	0.013
1.500	112.919	80.008	19.993	103.740	20.130	-0.285	-0.014
3.000	112.932	80.008	19.993	103.735	20.128	-0.129	-0.001
4.500	112.902	80.008	19.993	103.745	20.127	-0.064	-0.004
6.000	112.903	80.008	19.993	103.749	20.130	-0.274	-0.010
7.500	112.865	80.008	19.993	103.749	20.127	-0.077	-0.012
9.000	112.924	80.009	19.994	103.768	20.124	0.092	0.023
10.500	113.034	80.007	19.993	103.788	20.122	0.259	0.097
12.000	112.935	80.009	19.993	103.805	20.122	0.267	-0.027
13.500	112.965	80.011	19.993	103.815	20.119	0.458	-0.005
15.000	113.030	80.010	19.993	103.793	20.118	0.526	0.029
16.500	113.070	80.011	19.994	103.799	20.113	0.833	0.044
18.000	113.101	80.010	19.994	103.821	20.114	0.756	0.021
19.500	113.186	80.009	19.993	103.826	20.115	0.688	0.059
21.000	113.266	80.009	19.993	103.834	20.114	0.791	0.042
22.500	113.381	80.008	19.993	103.836	20.110	1.061	0.066
24.000	113.439	80.007	19.995	103.844	20.107	1.271	0.037
25.500	113.541	80.007	19.994	103.883	20.106	1.341	0.082
27.000	113.639	80.007	19.993	103.880	20.105	1.391	0.048
28.500	113.757	80.008	19.993	103.869	20.101	1.661	0.086
30.000	113.914	80.007	19.994	103.888	20.100	1.755	0.096
31.500	114.080	80.008	19.993	103.900	20.102	1.619	0.111
33.000	114.225	80.007	19.993	103.917	20.099	1.797	0.109
34.500	114.420	80.006	19.993	103.939	20.097	1.900	0.140
36.001	114.626	80.007	19.993	103.934	20.095	2.088	0.145
37.500	114.834	80.007	19.993	103.941	20.092	2.229	0.137
39.000	115.032	80.007	19.994	103.904	20.088	2.516	0.147
40.500	115.285	80.007	19.992	103.908	20.090	2.419	0.184
42.000	115.537	80.007	19.996	104.032	20.088	2.558	0.167
43.501	115.850	80.008	19.994	104.055	20.086	2.671	0.208
45.000	116.145	80.007	19.993	103.999	20.083	2.901	0.188
46.500	116.444	80.008	19.995	104.005	20.083	2.856	0.209
48.000	116.817	80.008	19.995	103.987	20.080	3.055	0.254
49.500	117.166	80.009	19.993	103.982	20.080	3.069	0.243
51.000	117.546	80.008	19.995	103.983	20.081	3.021	0.277
52.500	117.927	80.007	19.995	103.979	20.081	2.986	0.240
54.000	118.363	80.006	19.994	103.979	20.081	2.979	0.299
55.500	118.781	80.007	19.993	103.984	20.080	3.090	0.266
57.000	119.183	80.008	19.995	104.003	20.080	3.075	0.277
58.500	119.624	80.006	19.994	104.019	20.078	3.209	0.299
60.000	120.069	80.007	19.994	104.019	20.079	3.147	0.292
61.500	120.538	80.007	19.994	103.996	20.080	3.092	0.305
63.000	121.049	80.005	19.993	103.989	20.080	3.045	0.330
64.500	121.523	80.007	19.994	104.005	20.080	3.045	0.322
66.000	122.011	80.007	19.993	104.021	20.080	3.097	0.326
67.500	122.559	80.007	19.994	104.019	20.081	3.031	0.356
69.000	123.054	80.007	19.994	104.002	20.081	2.983	0.333
70.500	123.547	80.008	19.994	104.005	20.078	3.178	0.342
72.000	124.115	80.006	19.993	104.020	20.079	3.167	0.372
73.501	124.676	80.008	19.994	104.019	20.077	3.274	0.379
75.000	125.246	80.009	19.994	104.005	20.076	3.325	0.366
76.500	125.800	80.007	19.994	104.004	20.074	3.467	0.367
78.001	126.391	80.009	19.995	104.019	20.076	3.320	0.360
79.501	126.984	80.008	19.995	104.025	20.080	3.062	0.400
81.000	127.539	80.006	19.995	104.027	20.077	3.279	0.352
82.500	128.135	80.007	19.994	104.021	20.078	3.216	0.392
84.000	128.777	80.008	19.994	104.022	20.077	3.277	0.426
85.500	129.380	80.007	19.995	104.021	20.074	3.461	0.417
87.001	129.968	80.007	19.994	104.017	20.075	3.428	0.393
88.500	130.570	80.009	19.993	104.018	20.074	3.465	0.391
90.000	131.261	80.010	19.994	104.019	20.076	3.338	0.436
91.500	131.927	80.009	19.994	104.019	20.072	3.602	0.449
93.000	132.578	80.009	19.993	104.013	20.077	3.288	0.438
94.500	133.218	80.010	19.994	104.013	20.074	3.474	0.435
96.000	133.881	80.010	19.994	104.015	20.076	3.325	0.439
97.500	134.564	80.010	19.993	104.015	20.073	3.509	0.465
99.000	135.205	80.010	19.993	104.021	20.076	3.373	0.421
100.500	135.900	80.008	19.992	104.019	20.075	3.428	0.451
102.000	136.591	80.011	19.993	104.020	20.076	3.373	0.436
103.500	137.265	80.009	19.994	104.019	20.074	3.450	0.442
105.000	137.963	80.009	19.993	104.017	20.077	3.264	0.476
106.500	138.659	80.008	19.993	104.014	20.074	3.445	0.480
108.000	139.385	80.007	19.994	104.015	20.075	3.377	0.484
109.500	140.082	80.007	19.994	104.017	20.081	2.990	0.471
111.000	140.797	80.009	19.994	104.010	20.076	3.354	0.489
112.500	141.512	80.007	19.993	104.012	20.078	3.219	0.473
114.000	142.190	80.008	19.993	104.011	20.077	3.255	0.467
115.501	142.935	80.008	19.993	104.010	20.079	3.119	0.505
117.000	143.683	80.007	19.994	104.004	20.080	3.102	0.488
118.500	144.403	80.008	19.993	104.014	20.079	3.105	0.490
120.000	145.140	80.007	19.994	104.008	20.076	3.332	0.489
121.500	145.896	80.007	19.993	104.002	20.076	3.317	0.489
123.000	146.651	80.006	19.994	103.993	20.079	3.160	0.513
124.500	147.379	80.008	19.994	104.004	20.078	3.232	0.489
126.000	148.108	80.007	19.993	104.009	20.079	3.146	0.496
127.501	148.850	80.009	19.994	104.000	20.081	2.993	0.473
129.000	149.619	80.009	19.992	103.994	20.083	2.862	0.518
130.500	150.382	80.007	19.993	103.988	20.081	3.006	0.493
132.000	151.119	80.008	19.994	103.999	20.081	3.035	0.524
133.500	151.832	80.008	19.993	103.991	20.081	3.028	0.480
135.000	152.574	80.007	19.995	103.985	20.085	2.742	0.490
136.500	153.308	80.006	19.993	103.985	20.081	3.000	0.503
138.000	154.021	80.008	19.993	103.984	20.083	2.855	0.464
139.500	154.777	80.007	19.995	103.984	20.081	2.973	0.496
141.000	155.521	80.006	19.994	103.982	20.085	2.755	0.495
142.501	156.287	80.007	19.993	103.981	20.087	2.586	0.496
144.000	157.018	80.007	19.994	103.979	20.084	2.816	0.491
145.500	157.724	80.007	19.994	103.976	20.082	2.961	0.485
147.000	158.480	80.007	19.993	103.982	20.085	2.766	0.499
148.500	159.229	80.007	19.994	103.978	20.085	2.740	0.490
150.000	159.941	80.007	19.994	103.981	20.084	2.814	0.456
151.500	160.649	80.010	19.993	103.976	20.088	2.542	0.475
153.000	161.425	80.009	19.994	103.975	20.087	2.597	0.516
154.500	162.126	80.009	19.994	103.983	20.087	2.606	0.457
156.000	162.877	80.008	19.994	103.981	20.088	2.549	0.491
157.500	163.526	80.009	19.993	103.969	20.087	2.626	0.451
159.000	164.324	80.008	19.994	103.964	20.085	2.753	0.527
160.500	165.027	80.007	19.993	103.959	20.086	2.659	0.452
162.000	165.806	80.007	19.994	103.970	20.087	2.573	0.550
163.500	166.491	80.008	19.994	103.968	20.086	2.663	0.459
165.000	167.280	80.007	19.995	103.962	20.083	2.861	0.519
166.500	167.935	80.008	19.994	103.955	20.086	2.685	0.426
168.000	168.719	80.007	19.995	103.957	20.086	2.668	0.512
169.500	169.417	80.008	19.995	103.952	20.083	2.868	0.466
171.000	170.123	80.008	19.995	103.966	20.085	2.758	0.467
172.500	170.831	80.009	19.994	103.961	20.084	2.817	0.481
174.000	171.558	80.008	19.995	103.947	20.086	2.640	0.478
175.500	172.267	80.009	19.995	103.948	20.083	2.865	0.476
177.001	173.015	80.008	19.995	103.953	20.084	2.767	0.503
178.500	173.714	80.008	19.995	103.943	20.085	2.729	0.456
180.000	174.399	80.010	19.994	103.942	20.086	2.661	0.453
181.500	175.133	80.012	19.993	103.946	20.084	2.777	0.490
183.000	175.842	80.011	19.994	103.945	20.082	2.959	0.459
184.501	176.578	80.009	19.993	103.944	20.081	3.001	0.484
186.000	177.291	80.010	19.992	103.943	20.082	2.957	0.468
187.500	178.005	80.009	19.993	103.945	20.086	2.674	0.475
189.000	178.691	80.007	19.994	103.949	20.085	2.740	0.481
190.500	179.389	80.007	19.993	103.942	20.083	2.834	0.460
192.000	180.082	80.008	19.994	103.952	20.081	3.003	0.441
193.501	180.845	80.008	19.993	103.950	20.082	2.928	0.515
195.000	181.578	80.007	19.993	103.950	20.083	2.858	0.518
196.500	182.256	80.007	19.993	103.945	20.080	3.041	0.461
198.001	182.977	80.006	19.994	103.949	20.081	2.990	0.453
199.501	183.677	80.007	19.994	103.951	20.083	2.892	0.477
201.000	184.437	80.008	19.994	103.951	20.082	2.927	0.512
202.500	185.117	80.007	19.994	103.950	20.081	2.990	0.457
204.001	185.886	80.008	19.994	103.956	20.083	2.894	0.494
205.500	186.584	80.006	19.994	103.952	20.083	2.885	0.459
207.000	187.359	80.008	19.993	103.947	20.081	3.016	0.516
208.500	188.072	80.007	19.994	103.943	20.084	2.817	0.489
210.000	188.773	80.007	19.994	103.944	20.082	2.966	0.464
211.500	189.510	80.007	19.994	103.945	20.084	2.784	0.496
213.000	190.235	80.007	19.992	103.946	20.080	3.069	0.470
214.501	190.974	80.007	19.993	103.950	20.081	3.030	0.487
216.000	191.676	80.006	19.993	103.950	20.083	2.869	0.462
217.500	192.400	80.008	19.994	103.948	20.080	3.051	0.495
219.000	193.151	80.008	19.994	103.948	20.078	3.214	0.498
220.500	193.830	80.007	19.992	103.951	20.078	3.176	0.458
222.000	194.553	80.007	19.995	103.951	20.079	3.119	0.494
223.500	195.319	80.007	19.995	103.949	20.075	3.393	0.503
225.000	196.030	80.006	19.993	103.943	20.080	3.058	0.492
226.500	196.760	80.008	19.994	103.946	20.075	3.405	0.476
228.000	197.449	80.007	19.995	103.946	20.075	3.389	0.458
229.501	198.161	80.006	19.994	103.942	20.074	3.492	0.473
231.000	198.902	80.009	19.994	103.941	20.074	3.483	0.496
232.500	199.658	80.009	19.993	103.944	20.074	3.472	0.503
234.000	200.362	80.008	19.995	103.943	20.071	3.708	0.457
235.501	201.086	80.008	19.994	103.947	20.067	3.943	0.485
237.000	201.837	80.009	19.993	103.966	20.067	3.914	0.488
238.500	202.606	80.009	19.994	103.956	20.068	3.851	0.494
240.000	203.349	80.009	19.993	103.941	20.068	3.870	0.492
241.500	204.063	80.008	19.994	103.942	20.068	3.910	0.475
243.000	204.807	80.008	19.995	103.955	20.064	4.123	0.480
244.500	205.526	80.010	19.995	103.955	20.064	4.155	0.509
246.001	206.285	80.007	19.994	103.947	20.061	4.337	0.509
247.500	207.066	80.010	19.994	103.947	20.060	4.429	0.520
249.000	207.800	80.008	19.994	103.949	20.061	4.372	0.490
250.500	208.537	80.008	19.995	103.953	20.059	4.495	0.500
252.000	209.266	80.009	19.994	103.948	20.054	4.828	0.487
253.500	210.016	80.010	19.994	103.942	20.053	4.901	0.497
255.000	210.747	80.009	19.993	103.945	20.053	4.889	0.486
256.500	211.546	80.008	19.994	103.944	20.053	4.883	0.529
258.000	212.249	80.008	19.994	103.942	20.048	5.212	0.451
259.500	212.999	80.010	19.992	103.940	20.049	5.139	0.484
261.000	213.747	80.008	19.993	103.940	20.047	5.315	0.508
262.501	214.513	80.009	19.995	103.941	20.043	5.545	0.493
264.000	215.234	80.009	19.995	103.940	20.041	5.714	0.482
265.500	215.976	80.011	19.995	103.940	20.039	5.804	0.481
267.000	216.710	80.008	19.994	103.939	20.037	5.970	0.495
268.500	217.510	80.009	19.993	103.938	20.036	6.046	0.548
270.000	218.240	80.009	19.993	103.938	20.032	6.320	0.502
271.500	219.004	80.007	19.994	103.940	20.030	6.404	0.531
273.000	219.751	80.006	19.994	103.938	20.029	6.527	0.484
274.500	220.461	80.006	19.995	103.933	20.024	6.819	0.477
276.000	221.238	80.006	19.995	103.925	20.022	6.993	0.516
277.500	222.012	80.007	19.994	103.926	20.021	7.011	0.522
279.000	222.784	80.007	19.993	103.926	20.018	7.248	0.525
280.500	223.519	80.006	19.993	103.920	20.014	7.512	0.479
282.000	224.270	80.009	19.994	103.923	20.011	7.713	0.527
283.500	224.978	80.008	19.994	103.926	20.009	7.860	0.486
285.000	225.752	80.007	19.993	103.923	20.009	7.833	0.513
286.500	226.494	80.009	19.994	103.929	20.004	8.151	0.478
288.000	227.264	80.007	19.995	103.915	20.001	8.392	0.527
289.500	227.990	80.007	19.994	103.916	19.996	8.743	0.471
291.000	228.801	80.007	19.994	103.932	19.993	8.919	0.553
292.500	229.578	80.008	19.994	103.919	19.993	8.921	0.532
294.000	230.309	80.007	19.993	103.916	19.989	9.181	0.503
295.500	231.085	80.008	19.993	103.924	19.986	9.369	0.512
297.000	231.796	80.006	19.994	103.929	19.982	9.673	0.490
298.500	232.593	80.008	19.994	103.921	19.978	9.954	0.505
300.000	233.327	80.007	19.993	103.916	19.976	10.092	0.503
301.500	234.060	80.007	19.993	103.908	19.968	10.591	0.505
303.000	234.848	80.007	19.994	103.910	19.966	10.710	0.509
304.500	235.617	80.008	19.993	103.923	19.962	11.010	0.508
306.000	236.371	80.006	19.993	103.914	19.956	11.413	0.498
307.500	237.137	80.007	19.993	103.903	19.954	11.515	0.501
309.000	237.933	80.007	19.994	103.915	19.947	11.986	0.513
310.500	238.628	80.008	19.994	103.924	19.944	12.202	0.478
312.000	239.378	80.008	19.995	103.914	19.934	12.862	0.513
313.500	240.189	80.007	19.995	103.908	19.931	13.083	0.531
315.000	240.908	80.008	19.994	103.906	19.924	13.567	0.480
316.500	241.663	80.010	19.994	103.910	19.920	13.852	0.512
318.000	242.446	80.009	19.994	103.906	19.914	14.231	0.512
319.500	243.210	80.011	19.994	103.903	19.908	14.656	0.492
321.000	243.975	80.010	19.992	103.907	19.905	14.844	0.507
322.500	244.746	80.009	19.994	103.911	19.895	15.511	0.511
324.000	245.510	80.010	19.994	103.909	19.890	15.878	0.544
325.500	246.263	80.009	19.994	103.910	19.885	16.202	0.514
327.000	247.043	80.010	19.994	103.910	19.878	16.627	0.515
328.500	247.788	80.008	19.993	103.912	19.872	17.059	0.512
330.000	248.542	80.008	19.993	103.907	19.866	17.487	0.483
331.500	249.350	80.009	19.994	103.915	19.856	18.133	0.535
333.000	250.166	80.008	19.994	103.922	19.851	18.490	0.547
334.500	250.946	80.007	19.995	103.918	19.842	19.044	0.557
336.000	251.684	80.008	19.994	103.905	19.837	19.406	0.497
337.500	252.491	80.010	19.994	103.904	19.828	20.047	0.524
339.000	253.243	80.009	19.994	103.903	19.818	20.669	0.511
340.500	253.957	80.006	19.994	103.903	19.810	21.229	0.477
342.000	254.719	80.010	19.994	103.904	19.804	21.613	0.509
343.500	255.504	80.010	19.994	103.905	19.798	22.012	0.502
345.000	256.245	80.011	19.994	103.905	19.788	22.724	0.493
346.500	256.934	80.010	19.993	103.905	19.779	23.333	0.483
348.000	257.700	80.011	19.993	103.903	19.764	24.322	0.498
349.500	258.447	80.010	19.994	103.902	19.756	24.882	0.500
351.000	259.188	80.010	19.994	103.901	19.742	25.829	0.487
352.500	259.904	80.008	19.995	103.895	19.732	26.452	0.468
354.000	260.607	80.008	19.995	103.895	19.723	27.053	0.455
355.500	261.359	80.009	19.995	103.896	19.708	28.098	0.505
357.000	262.068	80.009	19.993	103.898	19.696	28.879	0.472
358.500	262.790	80.007	19.996	103.896	19.688	29.434	0.495
360.000	263.471	80.007	19.996	103.898	19.674	30.346	0.473
361.500	264.269	80.008	19.995	103.898	19.661	31.228	0.511
363.000	264.931	80.008	19.995	103.895	19.650	31.983	0.457
364.500	265.645	80.009	19.995	103.898	19.638	32.794	0.447
366.000	266.357	80.008	19.995	103.891	19.625	33.695	0.463
367.500	267.060	80.008	19.996	103.894	19.613	34.445	0.472
369.000	267.783	80.008	19.996	103.893	19.600	35.352	0.460
370.500	268.483	80.009	19.993	103.893	19.587	36.226	0.495
372.000	269.187	80.009	19.994	103.896	19.579	36.783	0.490
373.500	269.915	80.010	19.993	103.894	19.561	37.965	0.501
375.000	270.677	80.009	19.994	103.897	19.550	38.727	0.494
376.500	271.412	80.008	19.994	103.900	19.537	39.585	0.507
378.000	272.122	80.009	19.993	103.899	19.525	40.413	0.454
379.500	272.807	80.008	19.994	103.901	19.507	41.665	0.461
381.000	273.545	80.009	19.993	103.904	19.492	42.662	0.473
382.500	274.240	80.009	19.995	103.907	19.474	43.882	0.479
384.000	274.978	80.008	19.994	103.917	19.451	45.427	0.505
385.500	275.662	80.007	19.995	103.918	19.426	47.175	0.442
387.000	276.355	80.008	19.993	103.936	19.396	49.225	0.473
388.500	277.094	80.008	19.993	103.954	19.364	51.390	0.513
390.000	277.794	80.008	19.994	103.972	19.332	53.515	0.440
391.500	278.534	80.008	19.994	103.983	19.293	56.099	0.503
393.000	279.248	80.008	19.993	103.993	19.245	59.265	0.484
394.500	279.978	80.007	19.994	104.029	19.185	63.258	0.480
396.000	280.693	80.008	19.994	104.092	19.108	68.385	0.493
397.500	281.421	80.008	19.994	104.162	19.016	74.580	0.479
399.000	282.118	80.008	19.994	104.202	18.911	81.631	0.484
400.500	282.827	80.008	19.993	104.197	18.799	89.118	0.472
402.000	283.585	80.008	19.994	104.134	18.689	96.522	0.504
403.500	284.303	80.008	19.994	104.048	18.588	103.373	0.486
405.000	285.014	80.008	19.993	103.955	18.500	109.305	0.462
406.500	285.760	80.010	19.995	103.871	18.429	114.043	0.492
408.000	286.474	80.007	19.993	103.808	18.376	117.605	0.487
409.500	287.226	80.010	19.994	103.788	18.337	120.271	0.487
411.000	287.966	80.009	19.993	103.788	18.310	122.114	0.487
412.500	288.701	80.008	19.994	103.799	18.287	123.643	0.485
414.000	289.445	80.009	19.992	103.820	18.273	124.602	0.495
415.500	290.170	80.008	19.994	103.849	18.257	125.596	0.466
417.000	290.932	80.008	19.994	103.869	18.249	126.176	0.513
418.500	291.679	80.010	19.994	103.869	18.238	126.899	0.499
420.000	292.423	80.007	19.993	103.876	18.227	127.582	0.502
421.500	293.207	80.009	19.994	103.891	18.212	128.515	0.533
423.000	293.920	80.009	19.994	103.897	18.205	128.965	0.488
424.500	294.680	80.008	19.993	103.891	18.194	129.732	0.520
426.000	295.434	80.010	19.994	103.866	18.197	129.565	0.509
427.500	296.183	80.009	19.994	103.846	18.195	129.692	0.483
429.000	296.944	80.010	19.995	103.840	18.207	128.951	0.511
430.500	297.676	80.009	19.994	103.817	18.225	127.722	0.493
432.000	298.472	80.009	19.995	103.780	18.253	125.824	0.513
433.500	299.227	80.009	19.994	103.757	18.286	123.663	0.485
435.000	299.934	80.008	19.994	103.749	18.321	121.309	0.472
436.500	300.739	80.009	19.994	103.772	18.357	118.899	0.543
438.000	301.525	80.007	19.995	103.793	18.396	116.289	0.530
439.500	302.266	80.007	19.994	103.813	18.433	113.746	0.484
441.000	303.037	80.007	19.995	103.820	18.472	111.147	0.503
442.500	303.796	80.007	19.994	103.822	18.510	108.607	0.499
444.001	304.566	80.008	19.995	103.825	18.551	105.794	0.516
445.500	305.302	80.008	19.994	103.830	18.584	103.614	0.503
447.000	306.098	80.008	19.995	103.845	18.620	101.180	0.537
448.500	306.879	80.007	19.995	103.851	18.660	98.480	0.530
450.000	307.627	80.008	19.995	103.843	18.701	95.725	0.500
451.500	308.388	80.007	19.995	103.834	18.743	92.910	0.501
453.000	309.178	80.007	19.995	103.831	18.794	89.491	0.525
454.500	309.946	80.007	19.995	103.824	18.839	86.447	0.533
456.000	310.695	80.007	19.996	103.823	18.891	82.965	0.490
457.500	311.488	80.007	19.995	103.825	18.946	79.264	0.521
459.000	312.283	80.007	19.995	103.828	18.999	75.709	0.526
460.501	313.013	80.006	19.994	103.828	19.054	72.013	0.476
462.000	313.766	80.009	19.996	103.833	19.111	68.190	0.514
463.500	314.568	80.008	19.995	103.830	19.169	64.277	0.514
465.000	315.314	80.007	19.994	103.824	19.232	60.069	0.501
466.500	316.084	80.005	19.994	103.824	19.290	56.153	0.495
468.000	316.843	80.006	19.994	103.823	19.350	52.172	0.504
469.500	317.584	80.008	19.994	103.823	19.409	48.192	0.491
471.000	318.408	80.006	19.994	103.826	19.466	44.327	0.535
472.500	319.132	80.007	19.993	103.827	19.517	40.876	0.486
474.000	319.896	80.007	19.994	103.828	19.575	36.987	0.489
475.500	320.650	80.007	19.995	103.829	19.624	33.694	0.507
477.000	321.394	80.008	19.993	103.850	19.672	30.469	0.502
478.500	322.147	80.006	19.994	103.867	19.713	27.752	0.503
480.000	322.940	80.007	19.995	103.867	19.749	25.307	0.532
481.501	323.683	80.007	19.993	103.863	19.790	22.580	0.505
483.000	324.426	80.009	19.993	103.850	19.825	20.199	0.486
484.500	325.197	80.008	19.993	103.829	19.855	18.186	0.518
486.000	325.972	80.008	19.993	103.834	19.883	16.286	0.511
487.500	326.749	80.009	19.994	103.830	19.909	14.578	0.512
489.000	327.514	80.009	19.994	103.827	19.930	13.170	0.509
490.500	328.255	80.010	19.993	103.839	19.951	11.751	0.505
492.000	329.038	80.010	19.993	103.832	19.967	10.678	0.503
493.500	329.813	80.008	19.993	103.829	19.978	9.941	0.519
495.000	330.534	80.008	19.995	103.837	19.989	9.161	0.485
496.500	331.301	80.007	19.994	103.836	20.005	8.078	0.516
498.000	332.116	80.007	19.994	103.825	20.018	7.224	0.558
499.500	332.902	80.008	19.993	103.823	20.020	7.117	0.528
501.000	333.686	80.008	19.994	103.824	20.032	6.292	0.525
502.500	334.463	80.009	19.993	103.825	20.037	5.930	0.531
504.000	335.184	80.009	19.993	103.824	20.046	5.347	0.513
505.500	335.977	80.009	19.993	103.820	20.049	5.134	0.526
507.000	336.722	80.009	19.993	103.827	20.055	4.758	0.500
508.500	337.541	80.010	19.993	103.844	20.057	4.603	0.526
510.000	338.323	80.011	19.994	103.848	20.065	4.083	0.535
511.500	339.028	80.012	19.992	103.835	20.067	3.947	0.464
513.000	339.794	80.011	19.993	103.847	20.069	3.775	0.531
514.501	340.566	80.011	19.994	103.856	20.073	3.530	0.506
516.000	341.330	80.010	19.994	103.837	20.079	3.155	0.479
517.500	342.104	80.009	19.994	103.850	20.078	3.168	0.521
519.000	342.851	80.008	19.994	103.862	20.082	2.966	0.520
520.500	343.567	80.007	19.994	103.854	20.085	2.713	0.491
522.000	344.344	80.007	19.995	103.856	20.086	2.679	0.526
523.500	345.149	80.007	19.995	103.864	20.089	2.429	0.535
525.000	345.870	80.007	19.996	103.867	20.087	2.598	0.499
526.500	346.644	80.006	19.995	103.875	20.092	2.228	0.529
528.000	347.395	80.006	19.994	103.879	20.094	2.135	0.509
529.500	348.152	80.007	19.994	103.888	20.091	2.333	0.516
531.000	348.902	80.006	19.994	103.902	20.096	2.019	0.497
532.500	349.731	80.007	19.993	103.889	20.094	2.120	0.546
534.000	350.465	80.007	19.994	103.879	20.096	1.964	0.512
535.500	351.247	80.007	19.993	103.871	20.096	1.980	0.536
537.000	351.963	80.008	19.992	103.864	20.098	1.848	0.465
538.500	352.745	80.007	19.994	103.868	20.101	1.655	0.530
540.000	353.574	80.007	19.993	103.869	20.100	1.723	0.527
541.500	354.302	80.007	19.995	103.870	20.099	1.782	0.486
543.000	355.068	80.007	19.994	103.872	20.097	1.909	0.502
544.500	355.796	80.007	19.995	103.868	20.103	1.543	0.458
546.000	356.526	80.006	19.993	103.867	20.100	1.719	0.490
547.500	357.283	80.007	19.995	103.877	20.102	1.556	0.501
549.000	358.018	80.006	19.994	103.879	20.103	1.548	0.475
550.500	358.795	80.006	19.995	103.881	20.103	1.487	0.521
552.000	359.549	80.007	19.997	103.887	20.103	1.537	0.509
553.500	360.260	80.006	19.994	103.884	20.103	1.554	0.481
555.000	360.999	80.006	19.995	103.891	20.105	1.414	0.475
556.500	361.789	80.007	19.996	103.882	20.102	1.605	0.530
558.000	362.518	80.005	19.996	103.875	20.099	1.789	0.477
559.500	363.276	80.007	19.995	103.868	20.100	1.690	0.496
561.001	363.996	80.007	19.994	103.864	20.102	1.565	0.490
562.500	364.739	80.009	19.994	103.869	20.099	1.764	0.492
564.000	365.439	80.008	19.994	103.873	20.101	1.624	0.465
565.500	366.215	80.009	19.993	103.880	20.101	1.682	0.514
567.000	366.985	80.010	19.993	103.878	20.099	1.771	0.515
568.500	367.707	80.008	19.993	103.868	20.098	1.846	0.480
570.000	368.451	80.008	19.994	103.873	20.102	1.581	0.487
571.500	369.185	80.009	19.994	103.877	20.102	1.574	0.496
573.000	369.905	80.008	19.993	103.888	20.100	1.731	0.488
574.501	370.666	80.009	19.994	103.899	20.100	1.727	0.499
576.000	371.500	80.009	19.993	103.880	20.102	1.578	0.531
577.500	372.198	80.008	19.995	103.864	20.100	1.699	0.490
579.000	372.944	80.009	19.994	103.872	20.100	1.708	0.492
580.500	373.687	80.008	19.992	103.885	20.099	1.769	0.490
582.000	374.463	80.007	19.995	103.889	20.096	2.002	0.527
583.500	375.225	80.008	19.994	103.902	20.095	2.061	0.493
585.000	375.988	80.009	19.994	103.906	20.097	1.937	0.477
586.500	376.729	80.007	19.994	103.901	20.096	1.986	0.496
588.000	377.488	80.008	19.994	103.903	20.095	2.075	0.507
589.500	378.280	80.009	19.993	103.896	20.089	2.452	0.508
591.000	379.022	80.010	19.993	103.890	20.090	2.409	0.505
592.500	379.774	80.010	19.992	103.875	20.090	2.383	0.518
594.000	380.520	80.011	19.993	103.882	20.090	2.369	0.501
595.500	381.268	80.011	19.994	103.900	20.089	2.457	0.519
597.000	382.005	80.010	19.993	103.895	20.087	2.619	0.495
598.500	382.746	80.009	19.993	103.898	20.085	2.731	0.488
600.000	383.533	80.009	19.994	103.903	20.085	2.699	0.531
601.500	384.256	80.008	19.993	103.902	20.080	3.055	0.470
603.000	385.035	80.008	19.993	103.890	20.080	3.082	0.520
604.500	385.789	80.008	19.994	103.896	20.083	2.889	0.505
606.000	386.529	80.007	19.993	103.905	20.077	3.282	0.516
607.500	387.317	80.007	19.994	103.905	20.074	3.470	0.528
609.000	388.061	80.009	19.994	103.901	20.076	3.331	0.503
610.500	388.812	80.008	19.993	103.886	20.074	3.446	0.509
612.000	389.566	80.007	19.993	103.891	20.073	3.551	0.499
613.500	390.282	80.007	19.995	103.898	20.071	3.654	0.476
615.000	391.070	80.006	19.995	103.901	20.068	3.877	0.526
616.500	391.822	80.007	19.995	103.889	20.065	4.057	0.519
618.000	392.573	80.007	19.995	103.888	20.064	4.177	0.499
619.500	393.324	80.007	19.995	103.899	20.063	4.228	0.511
621.000	394.117	80.007	19.994	103.895	20.059	4.480	0.528
622.500	394.856	80.009	19.995	103.896	20.055	4.739	0.508
624.000	395.643	80.006	19.995	103.901	20.053	4.857	0.509
625.500	396.369	80.006	19.994	103.899	20.050	5.102	0.503
627.000	397.119	80.008	19.995	103.898	20.047	5.275	0.493
628.500	397.861	80.007	19.994	103.899	20.045	5.407	0.517
630.000	398.637	80.008	19.995	103.900	20.044	5.468	0.521
631.500	399.401	80.007	19.995	103.897	20.041	5.711	0.486
633.000	400.166	80.007	19.995	103.898	20.040	5.760	0.527
634.500	400.934	80.006	19.995	103.899	20.039	5.815	0.518
636.000	401.695	80.005	19.994	103.901	20.037	5.962	0.518
637.500	402.439	80.006	19.995	103.902	20.033	6.229	0.520
639.000	403.236	80.006	19.994	103.901	20.028	6.546	0.530
640.500	404.003	80.006	19.994	103.896	20.026	6.715	0.511
642.000	404.745	80.006	19.994	103.902	20.024	6.818	0.502
643.500	405.516	80.007	19.996	103.906	20.020	7.085	0.513
645.000	406.267	80.006	19.995	103.900	20.018	7.256	0.500
646.500	407.018	80.006	19.996	103.897	20.011	7.684	0.495
648.000	407.772	80.007	19.995	103.895	20.006	8.069	0.531
649.500	408.574	80.008	19.996	103.898	20.005	8.104	0.521
651.000	409.320	80.008	19.994	103.898	19.998	8.558	0.513
652.500	410.080	80.007	19.994	103.901	19.993	8.905	0.513
654.000	410.869	80.006	19.994	103.902	19.987	9.312	0.523
655.500	411.606	80.008	19.994	103.901	19.985	9.486	0.504
657.000	412.389	80.009	19.994	103.902	19.980	9.817	0.525
658.500	413.153	80.008	19.994	103.903	19.975	10.155	0.494
660.000	413.897	80.007	19.993	103.902	19.969	10.553	0.499
661.500	414.630	80.008	19.993	103.901	19.964	10.840	0.490
663.000	415.405	80.007	19.994	103.899	19.957	11.361	0.518
664.500	416.131	80.007	19.994	103.898	19.953	11.581	0.499
666.000	416.915	80.007	19.993	103.892	19.949	11.889	0.524
667.500	417.691	80.007	19.993	103.892	19.940	12.457	0.523
669.000	418.434	80.008	19.994	103.906	19.935	12.803	0.497
670.500	419.243	80.007	19.993	103.904	19.928	13.285	0.530
672.000	419.980	80.007	19.995	103.894	19.923	13.607	0.497
673.500	420.750	80.009	19.993	103.899	19.915	14.149	0.504
675.001	421.503	80.008	19.995	103.899	19.907	14.702	0.492
676.500	422.235	80.010	19.993	103.892	19.898	15.332	0.484
678.000	422.981	80.009	19.994	103.882	19.890	15.829	0.509
679.500	423.695	80.009	19.994	103.876	19.883	16.289	0.496
681.000	424.462	80.009	19.994	103.876	19.876	16.810	0.489
682.500	425.207	80.008	19.993	103.885	19.866	17.472	0.491
684.000	425.956	80.008	19.993	103.891	19.857	18.090	0.516
685.500	426.710	80.006	19.993	103.887	19.848	18.659	0.475
687.000	427.401	80.007	19.994	103.879	19.837	19.412	0.476
688.500	428.144	80.006	19.994	103.882	19.833	19.662	0.492
690.000	428.908	80.007	19.995	103.893	19.824	20.281	0.523
691.500	429.616	80.007	19.993	103.891	19.811	21.176	0.482
693.000	430.370	80.007	19.995	103.882	19.803	21.671	0.478
694.500	431.086	80.007	19.993	103.886	19.793	22.387	0.470
696.000	431.816	80.009	19.994	103.885	19.785	22.886	0.492
697.500	432.575	80.008	19.994	103.878	19.777	23.410	0.500
699.000	433.303	80.008	19.994	103.880	19.769	23.963	0.488
700.500	434.071	80.007	19.994	103.887	19.763	24.407	0.518
702.000	434.786	80.008	19.995	103.886	19.749	25.338	0.470
703.500	435.511	80.007	19.994	103.898	19.743	25.749	0.496
705.000	436.224	80.007	19.996	103.896	19.732	26.456	0.477
706.500	436.900	80.008	19.996	103.895	19.729	26.690	0.463
708.000	437.642	80.007	19.994	103.887	19.718	27.443	0.478
709.500	438.374	80.006	19.993	103.878	19.708	28.084	0.472
711.000	439.107	80.006	19.993	103.882	19.702	28.484	0.492
712.500	439.861	80.006	19.994	103.878	19.696	28.913	0.489
714.000	440.574	80.005	19.995	103.874	19.686	29.593	0.485
715.500	441.292	80.007	19.994	103.877	19.678	30.134	0.489
717.000	442.031	80.005	19.995	103.879	19.670	30.617	0.489
718.500	442.733	80.006	19.993	103.881	19.666	30.898	0.487
720.000	443.496	80.006	19.993	103.893	19.658	31.443	0.474
721.500	444.234	80.007	19.993	103.902	19.649	32.017	0.491
723.000	444.962	80.008	19.994	103.903	19.648	32.102	0.482
724.500	445.687	80.007	19.994	103.903	19.642	32.494	0.494
726.000	446.427	80.008	19.993	103.901	19.639	32.740	0.498
727.500	447.173	80.007	19.996	103.897	19.631	33.236	0.508
729.000	447.935	80.007	19.995	103.896	19.630	33.341	0.504
730.500	448.626	80.007	19.995	103.875	19.627	33.544	0.472
732.000	449.399	80.007	19.993	103.877	19.624	33.700	0.504
733.500	450.159	80.007	19.994	103.894	19.623	33.808	0.532
735.000	450.935	80.007	19.993	103.896	19.622	33.873	0.502
736.500	451.671	80.007	19.994	103.891	19.620	34.028	0.506
738.000	452.407	80.008	19.994	103.881	19.622	33.881	0.512
739.500	453.194	80.007	19.995	103.885	19.622	33.833	0.522
741.001	453.951	80.008	19.994	103.896	19.624	33.706	0.513
742.500	454.706	80.008	19.995	103.875	19.624	33.705	0.507
744.000	455.481	80.007	19.995	103.880	19.624	33.719	0.534
745.500	456.248	80.007	19.994	103.895	19.623	33.813	0.512
747.000	457.045	80.007	19.995	103.895	19.619	34.082	0.520
748.500	457.792	80.008	19.994	103.881	19.623	33.811	0.507
750.000	458.593	80.008	19.995	103.880	19.626	33.590	0.533
751.500	459.381	80.007	19.994	103.894	19.625	33.643	0.519
753.000	460.166	80.009	19.994	103.885	19.629	33.398	0.516
754.500	460.948	80.008	19.993	103.893	19.627	33.503	0.523
756.000	461.706	80.009	19.993	103.897	19.629	33.404	0.500
757.500	462.529	80.010	19.994	103.877	19.632	33.184	0.529
759.000	463.268	80.010	19.992	103.871	19.633	33.122	0.502
760.500	464.059	80.010	19.992	103.879	19.639	32.705	0.529
762.000	464.836	80.011	19.994	103.888	19.636	32.938	0.534
763.500	465.610	80.010	19.994	103.879	19.640	32.668	0.522
765.000	466.399	80.009	19.994	103.881	19.643	32.449	0.514
766.500	467.175	80.008	19.993	103.883	19.650	31.986	0.538
768.000	467.955	80.006	19.994	103.870	19.653	31.777	0.537
769.500	468.738	80.006	19.994	103.880	19.653	31.769	0.512
771.000	469.524	80.007	19.995	103.888	19.659	31.372	0.538
772.500	470.269	80.008	19.994	103.892	19.668	30.797	0.502
774.000	471.065	80.008	19.994	103.885	19.671	30.548	0.535
775.500	471.814	80.006	19.993	103.877	19.677	30.147	0.498
777.000	472.621	80.007	19.994	103.881	19.678	30.113	0.526
778.500	473.403	80.007	19.993	103.886	19.688	29.415	0.533
780.000	474.188	80.007	19.994	103.893	19.697	28.794	0.535
781.500	474.999	80.007	19.995	103.895	19.705	28.295	0.550
783.000	475.767	80.007	19.993	103.883	19.709	27.990	0.513
784.500	476.541	80.008	19.994	103.870	19.715	27.636	0.529
786.000	477.321	80.008	19.995	103.871	19.723	27.076	0.521
787.500	478.130	80.008	19.993	103.872	19.734	26.365	0.532
789.000	478.893	80.008	19.993	103.875	19.739	25.997	0.526
790.500	479.692	80.005	19.993	103.878	19.746	25.520	0.531
792.000	480.453	80.006	19.992	103.871	19.757	24.816	0.525
793.500	481.265	80.006	19.993	103.867	19.760	24.549	0.521
795.000	482.057	80.008	19.993	103.867	19.770	23.888	0.530
796.500	482.822	80.006	19.992	103.871	19.777	23.467	0.524
798.000	483.602	80.006	19.993	103.880	19.789	22.624	0.518
799.500	484.392	80.006	19.995	103.896	19.795	22.241	0.524
801.000	485.177	80.005	19.993	103.882	19.807	21.452	0.535
802.500	485.912	80.006	19.995	103.870	19.814	20.970	0.493
804.000	486.742	80.005	19.995	103.868	19.827	20.102	0.551
805.500	487.502	80.005	19.995	103.864	19.833	19.666	0.531
807.001	488.279	80.006	19.995	103.866	19.842	19.093	0.505
808.500	489.071	80.007	19.994	103.866	19.851	18.442	0.525
810.000	489.859	80.007	19.994	103.865	19.858	17.960	0.552
811.500	490.630	80.007	19.994	103.862	19.866	17.445	0.526
813.000	491.414	80.008	19.995	103.863	19.879	16.583	0.528
814.500	492.183	80.009	19.994	103.862	19.887	16.067	0.531
816.000	492.985	80.008	19.994	103.861	19.893	15.638	0.516
817.500	493.745	80.008	19.994	103.864	19.901	15.124	0.508
819.000	494.606	80.008	19.995	103.864	19.911	14.434	0.571
820.500	495.357	80.008	19.993	103.868	19.917	14.023	0.520
822.000	496.123	80.007	19.995	103.873	19.927	13.324	0.506
823.500	496.930	80.008	19.995	103.865	19.932	13.022	0.539
825.000	497.648	80.008	19.994	103.865	19.939	12.542	0.484
826.500	498.472	80.008	19.994	103.862	19.946	12.066	0.557
828.000	499.212	80.007	19.994	103.863	19.954	11.540	0.506
829.500	499.971	80.008	19.994	103.872	19.956	11.382	0.501
831.000	500.790	80.007	19.995	103.871	19.967	10.647	0.561
832.500	501.489	80.007	19.995	103.861	19.976	10.075	0.526
834.000	502.277	80.008	19.996	103.865	19.984	9.531	0.520
835.500	503.021	80.008	19.996	103.863	19.979	9.865	0.501
837.000	503.749	80.009	19.995	103.862	19.985	9.429	0.463
838.500	504.593	80.006	19.995	103.862	19.994	8.830	0.498
840.000	505.294	80.009	19.995	103.860	19.996	8.744	0.456
841.500	505.954	80.009	19.996	103.861	20.005	8.101	0.459
843.000	506.887	80.009	19.995	103.861	20.010	7.803	0.500
844.500	507.542	80.008	19.995	103.861	20.011	7.698	0.475
846.000	508.345	80.009	19.994	103.864	20.018	7.232	0.249
847.500	508.913	80.007	19.994	103.859	20.022	6.941	0.371
849.001	510.169	80.008	19.992	103.860	20.025	6.747	0.714
850.500	510.486	80.005	19.995	103.862	20.031	6.331	-0.070
852.000	511.304	80.007	19.994	103.864	20.032	6.288	0.672
853.500	512.137	80.007	19.995	103.864	20.037	5.956	0.582
855.000	512.893	80.007	19.994	103.864	20.041	5.674	0.616
856.500	513.481	80.005	19.994	103.879	20.042	5.610	0.386
858.000	514.365	80.007	19.994	103.897	20.046	5.367	0.495
859.500	515.104	80.006	19.994	103.892	20.047	5.297	0.501
861.000	515.876	80.007	19.994	103.881	20.047	5.299	0.478
862.500	516.618	80.007	19.994	103.867	20.052	4.916	0.531
864.000	517.467	80.007	19.994	103.856	20.054	4.789	0.530
865.500	518.268	80.006	19.994	103.865	20.058	4.576	0.549
867.000	518.986	80.007	19.992	103.867	20.061	4.350	0.507
868.500	519.768	80.007	19.993	103.866	20.058	4.561	0.519
870.000	520.530	80.009	19.993	103.865	20.060	4.398	0.511
871.500	521.373	80.008	19.993	103.862	20.062	4.280	0.553
873.000	522.136	80.007	19.994	103.861	20.061	4.312	0.526
874.500	522.937	80.008	19.995	103.860	20.063	4.234	0.525
876.000	523.703	80.008	19.994	103.862	20.067	3.933	0.549
877.500	524.494	80.007	19.995	103.863	20.068	3.903	0.502
879.000	525.274	80.007	19.994	103.865	20.072	3.593	0.509
880.500	526.097	80.007	19.994	103.864	20.072	3.578	0.543
882.000	526.855	80.006	19.994	103.864	20.077	3.274	0.498
883.500	527.666	80.007	19.994	103.868	20.077	3.289	0.567
885.000	528.475	80.006	19.995	103.870	20.080	3.074	0.540
886.500	529.252	80.007	19.995	103.867	20.077	3.278	0.506
888.000	530.009	80.008	19.994	103.862	20.083	2.879	0.509
889.500	530.820	80.007	19.994	103.872	20.084	2.809	0.533
891.000	531.609	80.008	19.995	103.872	20.082	2.914	0.543
892.500	532.428	80.008	19.993	103.863	20.085	2.747	0.536
894.000	533.257	80.008	19.994	103.863	20.086	2.646	0.526
895.500	534.039	80.008	19.994	103.863	20.089	2.460	0.547
897.000	534.822	80.008	19.993	103.864	20.084	2.769	0.539
898.500	535.652	80.009	19.995	103.863	20.087	2.609	0.556
900.000	536.470	80.008	19.993	103.861	20.088	2.515	0.529
901.500	537.263	80.008	19.994	103.861	20.091	2.350	0.541
903.000	538.050	80.009	19.994	103.861	20.089	2.432	0.531
904.500	538.863	80.007	19.993	103.861	20.091	2.324	0.536
906.000	539.665	80.007	19.993	103.856	20.094	2.155	0.543
907.500	540.447	80.008	19.994	103.858	20.093	2.195	0.519
909.000	541.214	80.007	19.994	103.859	20.094	2.158	0.517
910.500	542.051	80.007	19.995	103.856	20.095	2.074	0.529
912.000	542.775	80.006	19.994	103.865	20.098	1.877	0.498
913.500	543.582	80.007	19.994	103.865	20.098	1.870	0.530
915.000	544.334	80.009	19.994	103.868	20.100	1.734	0.489
916.500	545.124	80.009	19.994	103.865	20.100	1.728	0.515
918.000	545.880	80.008	19.993	103.858	20.100	1.745	0.506
919.500	546.682	80.008	19.994	103.860	20.103	1.491	0.543
921.000	547.458	80.010	19.993	103.863	20.105	1.419	0.521
922.500	548.236	80.010	19.994	103.864	20.106	1.309	0.511
924.000	549.011	80.009	19.993	103.863	20.105	1.360	0.510
925.500	549.799	80.009	19.993	103.862	20.106	1.302	0.529
927.000	550.585	80.009	19.995	103.863	20.107	1.239	0.517
928.500	551.342	80.007	19.993	103.863	20.107	1.267	0.506
930.001	552.141	80.006	19.994	103.861	20.107	1.263	0.541
931.501	552.943	80.006	19.994	103.859	20.105	1.353	0.553
933.000	553.728	80.006	19.995	103.858	20.105	1.366	0.533
934.500	554.534	80.006	19.995	103.859	20.106	1.289	0.547
936.000	555.296	80.005	19.995	103.856	20.106	1.346	0.513
937.500	556.081	80.006	19.994	103.858	20.107	1.230	0.536
939.000	556.860	80.007	19.994	103.855	20.106	1.318	0.512
940.500	557.622	80.006	19.993	103.857	20.106	1.307	0.515
942.000	558.435	80.006	19.994	103.855	20.109	1.112	0.535
943.500	559.199	80.007	19.995	103.854	20.105	1.397	0.518
945.000	559.960	80.008	19.995	103.848	20.105	1.394	0.503
946.500	560.699	80.007	19.993	103.857	20.105	1.392	0.497
948.000	561.496	80.008	19.995	103.861	20.104	1.429	0.539
949.500	562.301	80.007	19.994	103.861	20.110	1.076	0.542
951.000	563.058	80.007	19.994	103.862	20.108	1.171	0.494
952.500	563.797	80.007	19.993	103.860	20.106	1.298	0.504
954.000	564.540	80.009	19.994	103.864	20.108	1.187	0.503
955.500	565.333	80.007	19.995	103.864	20.111	1.004	0.498
957.000	566.087	80.008	19.993	103.863	20.110	1.051	0.480
958.500	566.859	80.007	19.995	103.862	20.111	1.007	0.513
960.000	567.600	80.006	19.995	103.861	20.111	1.011	0.512
961.500	568.356	80.007	19.993	103.861	20.111	0.991	0.506
963.000	569.174	80.007	19.994	103.849	20.110	1.031	0.540
964.500	569.928	80.007	19.995	103.838	20.108	1.162	0.505
966.000	570.703	80.008	19.993	103.855	20.111	0.963	0.488
967.500	571.478	80.008	19.995	103.845	20.109	1.142	0.541
969.001	572.244	80.008	19.994	103.838	20.108	1.197	0.502
970.500	573.005	80.007	19.994	103.844	20.113	0.853	0.498
972.000	573.791	80.008	19.993	103.862	20.110	1.050	0.537
973.501	574.558	80.009	19.994	103.862	20.109	1.105	0.499
975.000	575.370	80.008	19.994	103.861	20.111	0.967	0.549
976.500	576.105	80.009	19.993	103.861	20.113	0.860	0.485
978.000	576.862	80.008	19.994	103.866	20.112	0.897	0.503
979.500	577.653	80.009	19.993	103.855	20.113	0.859	0.534
981.000	578.412	80.010	19.992	103.854	20.111	0.954	0.501
982.500	579.198	80.009	19.994	103.863	20.114	0.789	0.542
984.000	579.930	80.009	19.994	103.859	20.112	0.890	0.488
985.500	580.683	80.009	19.993	103.858	20.115	0.721	0.500
987.000	581.471	80.009	19.993	103.866	20.118	0.524	0.520
988.500	582.217	80.008	19.994	103.867	20.123	0.167	0.519
990.000	583.013	80.008	19.994	103.864	20.116	0.618	0.539
991.500	583.762	80.007	19.994	103.859	20.114	0.789	0.510
993.000	584.543	80.007	19.994	103.857	20.116	0.656	0.530
994.500	585.296	80.007	19.995	103.860	20.117	0.553	0.507
996.000	586.030	80.006	19.996	103.866	20.117	0.581	0.517
997.500	586.803	80.006	19.994	103.859	20.118	0.483	0.496
999.000	587.558	80.009	19.994	103.854	20.122	0.250	0.497
1000.500	588.314	80.009	19.993	103.859	20.116	0.632	0.514
1002.000	589.086	80.009	19.996	103.863	20.122	0.261	0.520
1003.500	589.839	80.010	19.994	103.858	20.118	0.524	0.506
1005.000	590.568	80.011	19.994	103.860	20.115	0.706	0.466
1006.500	591.332	80.009	19.994	103.851	20.118	0.506	0.518
1008.000	592.076	80.009	19.993	103.853	20.120	0.403	0.499
1009.500	592.825	80.009	19.995	103.853	20.119	0.441	0.487
1011.000	593.578	80.008	19.993	103.854	20.120	0.358	0.475
1012.500	594.329	80.007	19.993	103.853	20.120	0.395	0.511
1014.000	595.095	80.007	19.994	103.849	20.121	0.325	0.504
1015.500	595.855	80.007	19.992	103.844	20.125	0.061	0.517
1017.000	596.619	80.007	19.996	103.843	20.121	0.290	0.516
1018.500	597.356	80.006	19.994	103.862	20.123	0.154	0.475
1020.000	598.067	80.007	19.994	103.855	20.126	-0.037	0.483
1021.500	598.839	80.006	19.995	103.850	20.126	0.006	0.480
1023.000	599.585	80.006	19.995	103.854	20.123	0.199	0.497
1024.500	600.352	80.006	19.995	103.850	20.122	0.219	0.502
1026.000	601.120	80.006	19.995	103.858	20.122	0.210	0.493
1027.500	601.846	80.006	19.997	103.855	20.123	0.149	0.475
1029.000	602.622	80.006	19.996	103.854	20.125	0.018	0.498
1030.500	603.402	80.006	19.995	103.851	20.125	0.035	0.509
1032.000	604.161	80.007	19.994	103.847	20.123	0.156	0.507
1033.500	604.895	80.005	19.994	103.839	20.125	0.031	0.493
1035.000	605.615	80.007	19.994	103.849	20.124	0.142	0.485
1036.500	606.409	80.006	19.994	103.856	20.125	0.053	0.521
1038.001	607.142	80.008	19.994	103.856	20.128	-0.167	0.474
1039.500	607.913	80.006	19.993	103.855	20.127	-0.079	0.504
1041.000	608.660	80.006	19.992	103.861	20.126	-0.044	0.481
1042.501	609.474	80.007	19.995	103.862	20.124	0.110	0.533
1044.001	610.202	80.008	19.993	103.852	20.128	-0.138	0.498
1045.501	610.996	80.007	19.992	103.841	20.124	0.103	0.510
1047.000	611.762	80.007	19.994	103.854	20.126	-0.031	0.511
1048.501	612.531	80.006	19.995	103.851	20.125	0.055	0.536
1050.000	613.285	80.007	19.992	103.842	20.125	0.051	0.513
1051.500	614.140	80.006	19.993	103.847	20.126	-0.017	0.564
1053.000	614.898	80.008	19.994	103.849	20.126	-0.017	0.517
1054.500	615.705	80.007	19.994	103.849	20.127	-0.116	0.526
1056.000	616.487	80.007	19.994	103.861	20.125	0.009	0.494
1057.500	617.265	80.008	19.994	103.862	20.126	-0.020	0.516
1059.001	618.003	80.008	19.994	103.861	20.125	0.068	0.499
1060.500	618.793	80.007	19.992	103.854	20.129	-0.244	0.526
1062.000	619.604	80.008	19.995	103.859	20.125	0.015	0.527
1063.500	620.347	80.009	19.994	103.855	20.127	-0.110	0.519
1065.000	621.120	80.009	19.993	103.854	20.126	-0.039	0.511
1066.500	621.886	80.009	19.994	103.844	20.128	-0.175	0.524
1068.000	622.642	80.009	19.993	103.842	20.128	-0.169	0.510
1069.500	623.447	80.009	19.995	103.832	20.131	-0.395	0.532
1071.000	624.228	80.010	19.994	103.840	20.128	-0.180	0.508
1072.500	624.987	80.008	19.993	103.852	20.129	-0.200	0.494
1074.000	625.773	80.008	19.993	103.854	20.129	-0.195	0.523
1075.501	626.528	80.010	19.993	103.849	20.129	-0.256	0.515
1077.000	627.291	80.008	19.993	103.857	20.131	-0.384	0.509
1078.500	628.015	80.009	19.993	103.861	20.132	-0.449	0.495
1080.000	628.816	80.009	19.993	103.854	20.129	-0.254	0.502
1081.500	629.591	80.010	19.994	103.851	20.128	-0.167	0.516
1083.001	630.384	80.010	19.994	103.839	20.131	-0.364	0.516
1084.500	631.111	80.009	19.994	103.846	20.131	-0.392	0.490
1086.000	631.901	80.011	19.994	103.847	20.133	-0.509	0.533
1087.500	632.665	80.010	19.994	103.845	20.129	-0.197	0.497
1089.000	633.427	80.010	19.993	103.845	20.135	-0.642	0.531
1090.500	634.165	80.009	19.995	103.851	20.133	-0.491	0.494
1092.000	634.966	80.009	19.993	103.854	20.133	-0.500	0.524
1093.500	635.743	80.008	19.995	103.852	20.132	-0.421	0.511
1095.000	636.486	80.009	19.994	103.851	20.131	-0.377	0.500
1096.500	637.265	80.007	19.995	103.832	20.134	-0.573	0.506
1098.000	638.029	80.007	19.993	103.838	20.132	-0.419	0.515
1099.500	638.782	80.007	19.994	103.854	20.138	-0.802	0.508
1101.000	639.573	80.007	19.994	103.857	20.136	-0.732	0.526
1102.501	640.332	80.006	19.995	103.849	20.137	-0.774	0.504
1104.000	641.096	80.007	19.994	103.854	20.138	-0.825	0.525
1105.500	641.848	80.007	19.992	103.849	20.139	-0.923	0.503
1107.000	642.600	80.007	19.995	103.839	20.140	-0.983	0.514
1108.501	643.376	80.007	19.995	103.842	20.140	-0.963	0.515
1110.000	644.101	80.007	19.995	103.856	20.141	-1.018	0.507
1111.500	644.871	80.007	19.994	103.851	20.138	-0.857	0.509
1113.000	645.684	80.007	19.995	103.845	20.139	-0.869	0.539
1114.501	646.406	80.007	19.995	103.848	20.141	-1.004	0.492
1116.000	647.149	80.006	19.995	103.843	20.141	-1.015	0.476
1117.500	647.928	80.006	19.995	103.845	20.140	-0.982	0.523
1119.000	648.691	80.007	19.995	103.850	20.143	-1.164	0.497
1120.501	649.463	80.006	19.993	103.843	20.141	-1.048	0.522
1122.000	650.225	80.006	19.995	103.849	20.143	-1.154	0.508
1123.501	650.999	80.007	19.996	103.845	20.144	-1.222	0.506
1125.000	651.711	80.007	19.995	103.835	20.143	-1.169	0.473
1126.500	652.453	80.006	19.995	103.836	20.143	-1.158	0.498
1128.000	653.239	80.007	19.996	103.843	20.142	-1.088	0.504
1129.501	654.017	80.007	19.994	103.845	20.143	-1.187	0.528
1131.000	654.803	80.007	19.995	103.837	20.145	-1.325	0.527
1132.501	655.578	80.007	19.994	103.830	20.141	-1.062	0.526
1134.000	656.366	80.008	19.994	103.832	20.144	-1.222	0.510
1135.500	657.126	80.008	19.993	103.834	20.142	-1.130	0.506
1137.000	657.852	80.007	19.994	103.841	20.144	-1.233	0.529
1138.500	658.627	80.008	19.993	103.850	20.147	-1.424	0.519
1140.000	659.444	80.010	19.994	103.837	20.147	-1.445	0.544
1141.500	660.210	80.011	19.993	103.831	20.146	-1.384	0.519
1143.000	661.018	80.009	19.994	103.826	20.145	-1.288	0.516
1144.500	661.518	80.009	19.994	103.829	20.143	-1.147	0.478
1146.000	662.361	80.007	19.994	103.840	20.142	-1.094	0.565
1147.500	663.118	80.009	19.995	103.836	20.143	-1.154	0.488
1149.000	663.885	80.007	19.995	103.828	20.146	-1.349	0.515
1150.500	664.556	80.008	19.994	103.824	20.144	-1.226	0.470
1152.001	665.360	80.008	19.993	103.824	20.144	-1.209	0.530
1153.500	666.096	80.008	19.995	103.825	20.145	-1.309	0.469
1155.000	666.809	80.009	19.994	103.826	20.145	-1.281	0.465
1156.500	667.595	80.008	19.994	103.831	20.143	-1.143	0.539
1158.001	668.296	80.009	19.994	103.828	20.144	-1.242	0.464
1159.500	669.043	80.009	19.994	103.828	20.144	-1.206	0.483
1161.001	669.722	80.010	19.993	103.825	20.143	-1.162	0.476
1162.500	670.450	80.010	19.995	103.829	20.147	-1.413	0.477
1164.000	671.173	80.009	19.994	103.829	20.145	-1.309	0.468
1165.500	671.892	80.010	19.993	103.824	20.147	-1.454	0.478
1167.000	672.651	80.011	19.992	103.823	20.147	-1.458	0.502
1168.500	673.382	80.012	19.993	103.827	20.149	-1.572	0.469
1170.000	674.127	80.010	19.994	103.830	20.151	-1.680	0.502
1171.500	674.895	80.010	19.994	103.837	20.148	-1.496	0.509
1173.001	675.690	80.009	19.994	103.834	20.149	-1.586	0.534
1174.500	676.519	80.009	19.994	103.828	20.149	-1.539	0.537
1176.001	677.294	80.007	19.995	103.838	20.145	-1.274	0.545
1177.501	678.160	80.007	19.994	103.845	20.147	-1.414	0.570
1179.000	678.981	80.006	19.995	103.846	20.149	-1.601	0.544
1180.500	679.824	80.007	19.992	103.840	20.146	-1.399	0.561
1182.000	680.650	80.008	19.995	103.845	20.149	-1.566	0.561
1183.500	681.511	80.007	19.994	103.846	20.144	-1.253	0.572
1185.000	682.338	80.008	19.995	103.839	20.149	-1.546	0.559
1186.501	683.193	80.006	19.995	103.843	20.147	-1.434	0.574
1188.000	684.035	80.007	19.994	103.843	20.145	-1.285	0.565
1189.501	684.882	80.007	19.995	103.845	20.147	-1.423	0.564
1191.001	685.729	80.007	19.995	103.842	20.148	-1.514	0.583
1192.500	686.593	80.008	19.994	103.833	20.147	-1.467	0.569
1194.000	687.369	80.007	19.994	103.829	20.146	-1.378	0.528
1195.500	688.214	80.007	19.994	103.826	20.146	-1.353	0.551
1197.000	689.085	80.008	19.994	103.831	20.149	-1.553	0.581
1198.500	689.892	80.007	19.994	103.828	20.150	-1.641	0.550
1200.000	690.673	80.006	19.994	103.826	20.148	-1.520	0.532
1201.500	691.500	80.008	19.994	103.829	20.149	-1.553	0.553
1203.001	692.364	80.007	19.995	103.827	20.149	-1.538	0.580
1204.500	693.137	80.007	19.994	103.827	20.147	-1.465	0.527
1206.000	693.981	80.005	19.995	103.834	20.147	-1.460	0.561
1207.500	694.779	80.005	19.994	103.840	20.149	-1.577	0.549
1209.001	695.632	80.006	19.995	103.834	20.149	-1.566	0.565
1210.500	696.490	80.007	19.996	103.835	20.150	-1.649	0.550
1212.000	697.320	80.006	19.996	103.833	20.147	-1.461	0.566
1213.500	698.159	80.005	19.997	103.831	20.148	-1.531	0.562
1215.000	699.013	80.008	19.997	103.844	20.149	-1.588	0.581
1216.501	699.805	80.007	19.995	103.850	20.147	-1.423	0.527
1218.000	700.654	80.009	19.994	103.836	20.149	-1.586	0.576
1219.500	701.506	80.007	19.994	103.829	20.148	-1.472	0.572
1221.000	702.323	80.008	19.996	103.841	20.148	-1.476	0.558
1222.500	703.184	80.011	19.994	103.846	20.147	-1.452	0.576
1224.000	704.024	80.009	19.995	103.831	20.144	-1.224	0.563
1225.500	704.894	80.009	19.994	103.824	20.147	-1.450	0.570
1227.000	705.699	80.009	19.993	103.829	20.145	-1.305	0.550
1228.500	706.543	80.008	19.994	103.825	20.147	-1.404	0.564
1230.001	707.392	80.007	19.993	103.828	20.149	-1.544	0.567
1231.501	708.177	80.008	19.994	103.838	20.146	-1.351	0.522
1233.000	709.050	80.007	19.993	103.841	20.145	-1.323	0.592
1234.500	709.846	80.009	19.993	103.839	20.142	-1.121	0.529
1236.001	710.693	80.008	19.993	103.841	20.145	-1.288	0.558
1237.500	711.526	80.008	19.993	103.833	20.144	-1.237	0.556
1239.001	712.329	80.009	19.994	103.832	20.146	-1.347	0.528
1240.500	713.157	80.006	19.993	103.834	20.146	-1.347	0.554
1242.000	713.982	80.008	19.994	103.847	20.148	-1.492	0.558
1243.501	714.845	80.010	19.994	103.845	20.148	-1.531	0.560
1245.000	715.700	80.010	19.994	103.836	20.148	-1.494	0.575
1246.500	716.498	80.010	19.993	103.835	20.145	-1.329	0.536
1248.000	717.294	80.009	19.993	103.829	20.147	-1.450	0.530
1249.500	718.130	80.010	19.994	103.827	20.146	-1.360	0.551
1251.000	718.930	80.010	19.992	103.828	20.148	-1.529	0.550
1252.501	719.746	80.008	19.993	103.834	20.147	-1.413	0.524
1254.000	720.574	80.010	19.994	103.836	20.147	-1.456	0.523
1255.501	721.393	80.007	19.993	103.837	20.146	-1.382	0.553
1257.001	722.185	80.007	19.993	103.841	20.147	-1.432	0.526
1258.500	722.983	80.009	19.994	103.841	20.149	-1.588	0.525
1260.000	723.793	80.008	19.994	103.840	20.150	-1.658	0.541
1261.500	724.612	80.008	19.994	103.829	20.145	-1.323	0.531
1263.001	725.391	80.009	19.994	103.828	20.147	-1.465	0.522
1264.500	726.207	80.009	19.994	103.830	20.148	-1.504	0.541
1266.000	727.038	80.007	19.993	103.829	20.151	-1.729	0.554
1267.501	727.797	80.008	19.994	103.825	20.148	-1.516	0.517
1269.000	728.583	80.008	19.994	103.831	20.148	-1.516	0.518
1270.500	729.396	80.008	19.994	103.832	20.147	-1.421	0.560
1272.001	730.200	80.008	19.994	103.827	20.147	-1.450	0.542
1273.500	730.981	80.008	19.995	103.836	20.147	-1.454	0.529
1275.000	731.759	80.009	19.995	103.840	20.150	-1.641	0.529
1276.500	732.559	80.007	19.996	103.826	20.150	-1.621	0.536
1278.001	733.337	80.007	19.996	103.826	20.148	-1.536	0.513
1279.500	734.139	80.008	19.995	103.827	20.149	-1.571	0.526
1281.000	734.899	80.009	19.994	103.824	20.149	-1.538	0.503
1282.501	735.700	80.008	19.994	103.836	20.152	-1.786	0.543
1284.000	736.477	80.008	19.994	103.841	20.150	-1.639	0.508
1285.500	737.223	80.007	19.995	103.839	20.149	-1.603	0.488
1287.001	738.001	80.007	19.994	103.842	20.149	-1.538	0.534
1288.500	738.766	80.008	19.995	103.827	20.150	-1.652	0.513
1290.000	739.571	80.006	19.994	103.828	20.146	-1.402	0.534
1291.500	740.332	80.007	19.995	103.830	20.150	-1.623	0.490
1293.000	741.122	80.006	19.995	103.829	20.146	-1.373	0.532
1294.500	741.871	80.007	19.995	103.828	20.150	-1.660	0.515
1296.000	742.626	80.008	19.995	103.827	20.147	-1.450	0.509
1297.500	743.390	80.007	19.995	103.825	20.147	-1.417	0.524
1298.500	743.879	80.007	19.995	103.831	20.149	-1.538	0.503