File: 01_Data/Pipe_Heat_Cable/MCC/Pipe_Heat_Cable_MCC_30K_min_220201_R4.txt
Sample ID:	C:\MCC\MCC Cal\Test\Pipe_Heat_Cable\Pipe_Heat_Cable_MCC_30K_min_220201_R4.txt
Sample Weight (mg):	4.73
Heating Rate (C/s):	0.5
Combustor Temp (C):	900
N2 Flow Rate (cc/min):	80
O2 Flow Rate (cc/min):	20
Calibration File:	C:\MCC\MCC Cal\Coeff1 JN10440_30_210304.txt.txt
T Correction Coefficients:	0	1.024463	0
Time Shift (s):	14
*
Time (s)	Temperature (C)	N2 flow rate (cc/min)	O2 flow rate (cc/min)	Flow Rate (cc/min)	Oxygen (%)	HRR (W/g)	Heating rate (C/s)
0.000	114.176	80.011	19.993	103.795	20.042	0.158	0.012
2.000	114.214	80.011	19.994	103.787	20.039	0.326	0.028
4.000	114.160	80.009	19.994	103.795	20.038	0.419	-0.003
6.000	114.183	80.009	19.995	103.798	20.038	0.434	-0.012
8.000	114.202	80.009	19.994	103.786	20.039	0.319	0.016
10.000	114.201	80.009	19.995	103.797	20.039	0.315	0.014
12.000	114.207	80.012	19.994	103.805	20.042	0.149	0.004
14.000	114.194	80.011	19.995	103.814	20.039	0.360	0.013
16.000	114.222	80.012	19.993	103.824	20.035	0.582	0.022
18.000	114.207	80.010	19.993	103.826	20.030	0.966	0.007
20.000	114.244	80.010	19.994	103.860	20.027	1.184	-0.016
22.000	114.283	80.010	19.993	103.895	20.023	1.423	-0.004
24.000	114.366	80.009	19.994	103.897	20.018	1.753	0.033
26.000	114.467	80.009	19.993	103.903	20.019	1.708	0.039
28.000	114.556	80.007	19.994	103.918	20.020	1.642	0.051
30.000	114.641	80.008	19.993	103.918	20.017	1.830	0.033
32.000	114.811	80.008	19.995	103.897	20.020	1.657	0.078
34.000	114.944	80.008	19.995	103.897	20.018	1.806	0.066
36.000	115.116	80.008	19.994	103.903	20.018	1.795	0.090
38.000	115.349	80.007	19.997	103.940	20.013	2.146	0.122
40.000	115.512	80.009	19.995	103.959	20.007	2.542	0.104
42.000	115.786	80.008	19.994	103.971	20.007	2.527	0.104
44.000	116.030	80.007	19.994	103.976	20.006	2.581	0.123
46.000	116.322	80.007	19.994	103.976	20.002	2.865	0.136
48.001	116.635	80.008	19.993	103.979	20.003	2.808	0.139
50.000	116.956	80.008	19.993	103.980	20.001	2.922	0.167
52.000	117.288	80.009	19.993	103.982	20.001	2.961	0.173
54.000	117.664	80.008	19.994	103.985	19.999	3.069	0.204
56.000	118.062	80.008	19.994	103.992	19.998	3.178	0.222
58.000	118.470	80.009	19.994	104.017	19.999	3.100	0.234
60.001	118.866	80.009	19.993	104.018	19.997	3.236	0.202
62.000	119.327	80.008	19.993	104.021	19.995	3.353	0.240
64.000	119.799	80.008	19.996	104.024	19.992	3.592	0.241
66.000	120.332	80.010	19.995	104.030	19.995	3.342	0.272
68.001	120.852	80.007	19.993	104.036	19.994	3.450	0.270
70.001	121.419	80.010	19.994	104.040	19.991	3.618	0.269
72.000	122.042	80.009	19.994	104.025	19.994	3.433	0.332
74.000	122.609	80.012	19.993	104.033	19.989	3.773	0.291
76.000	123.237	80.011	19.994	104.025	19.989	3.785	0.318
78.000	123.839	80.009	19.994	104.028	19.989	3.755	0.311
80.000	124.456	80.011	19.994	104.023	19.986	4.007	0.320
82.000	125.114	80.010	19.993	104.024	19.990	3.705	0.328
84.000	125.780	80.010	19.994	104.032	19.989	3.776	0.322
86.000	126.421	80.009	19.994	103.999	19.989	3.793	0.335
88.000	127.161	80.009	19.993	104.004	19.987	3.920	0.330
90.000	127.872	80.010	19.994	104.107	19.989	3.786	0.333
92.000	128.598	80.010	19.994	104.055	19.989	3.774	0.348
94.000	129.334	80.010	19.992	104.058	19.985	4.034	0.359
96.000	130.152	80.011	19.993	104.060	19.987	3.933	0.386
98.000	130.930	80.011	19.993	104.050	19.984	4.114	0.373
100.000	131.695	80.012	19.994	104.057	19.985	4.045	0.388
102.000	132.490	80.011	19.994	104.057	19.987	3.916	0.412
104.000	133.333	80.013	19.995	104.056	19.987	3.922	0.422
106.000	134.158	80.011	19.994	104.053	19.985	4.073	0.422
108.000	134.992	80.011	19.995	104.056	19.985	4.052	0.421
110.000	135.870	80.009	19.994	104.057	19.982	4.237	0.442
112.000	136.758	80.009	19.993	104.056	19.981	4.308	0.470
114.000	137.623	80.008	19.993	104.056	19.982	4.271	0.429
116.000	138.515	80.009	19.994	104.056	19.981	4.345	0.447
118.000	139.435	80.009	19.994	104.058	19.983	4.172	0.478
120.000	140.286	80.008	19.993	104.055	19.982	4.271	0.403
122.001	141.227	80.008	19.994	104.057	19.982	4.283	0.458
124.000	142.116	80.009	19.994	104.055	19.982	4.261	0.426
126.000	143.068	80.010	19.994	104.037	19.985	4.074	0.471
128.000	144.014	80.006	19.994	104.051	19.987	3.882	0.475
130.000	144.987	80.008	19.996	104.054	19.985	4.075	0.514
132.000	145.913	80.009	19.995	104.041	19.983	4.171	0.481
134.000	146.847	80.008	19.996	104.036	19.986	3.950	0.478
136.000	147.741	80.009	19.995	104.040	19.984	4.121	0.452
138.000	148.728	80.010	19.994	104.044	19.983	4.178	0.483
140.000	149.692	80.008	19.996	104.014	19.983	4.175	0.471
142.000	150.692	80.009	19.995	103.958	19.978	4.537	0.481
144.000	151.624	80.010	19.995	104.093	19.982	4.244	0.461
146.000	152.607	80.008	19.995	104.057	19.984	4.098	0.455
148.000	153.596	80.009	19.994	104.033	19.980	4.389	0.485
150.000	154.518	80.011	19.994	104.028	19.981	4.311	0.474
152.000	155.523	80.010	19.995	104.026	19.981	4.290	0.475
154.000	156.481	80.010	19.993	104.028	19.981	4.304	0.475
156.000	157.488	80.012	19.993	104.028	19.980	4.372	0.494
158.000	158.465	80.011	19.993	104.026	19.980	4.414	0.482
160.000	159.470	80.011	19.995	104.026	19.978	4.498	0.480
162.000	160.469	80.010	19.993	104.027	19.976	4.658	0.498
164.000	161.444	80.010	19.993	104.030	19.976	4.667	0.452
166.000	162.452	80.010	19.994	104.030	19.978	4.492	0.491
168.000	163.506	80.010	19.994	104.025	19.976	4.664	0.504
170.000	164.500	80.011	19.994	104.034	19.974	4.774	0.504
172.000	165.483	80.011	19.993	104.020	19.973	4.873	0.507
174.000	166.533	80.010	19.993	104.018	19.975	4.736	0.529
176.000	167.486	80.010	19.995	104.022	19.974	4.777	0.475
178.000	168.553	80.008	19.993	103.969	19.974	4.794	0.521
180.000	169.536	80.011	19.994	103.960	19.975	4.710	0.484
182.000	170.519	80.011	19.993	104.079	19.975	4.723	0.504
184.000	171.562	80.011	19.993	104.022	19.974	4.771	0.532
186.000	172.544	80.012	19.992	104.017	19.976	4.644	0.519
188.000	173.565	80.010	19.992	104.016	19.974	4.786	0.514
190.000	174.561	80.012	19.994	104.018	19.976	4.636	0.494
192.000	175.588	80.010	19.993	104.011	19.974	4.830	0.536
194.000	176.603	80.010	19.994	104.010	19.974	4.823	0.530
196.000	177.592	80.010	19.994	103.996	19.976	4.667	0.481
198.000	178.638	80.010	19.993	104.003	19.974	4.794	0.501
200.000	179.662	80.009	19.994	103.991	19.976	4.638	0.515
202.000	180.650	80.010	19.993	103.993	19.972	4.905	0.487
204.000	181.641	80.009	19.995	103.997	19.977	4.624	0.493
206.000	182.605	80.008	19.994	103.986	19.973	4.843	0.480
208.000	183.619	80.009	19.994	103.982	19.973	4.888	0.509
210.000	184.664	80.010	19.995	103.988	19.970	5.061	0.513
212.000	185.639	80.010	19.994	103.993	19.969	5.165	0.494
214.000	186.671	80.010	19.993	103.986	19.973	4.863	0.515
216.000	187.645	80.009	19.994	103.984	19.971	5.028	0.487
218.000	188.654	80.009	19.994	103.986	19.973	4.859	0.485
220.000	189.652	80.009	19.994	103.979	19.973	4.872	0.471
222.000	190.634	80.010	19.994	103.979	19.970	5.042	0.487
224.000	191.624	80.010	19.994	103.980	19.968	5.220	0.495
226.000	192.576	80.009	19.995	103.989	19.968	5.192	0.475
228.000	193.592	80.009	19.995	103.981	19.971	4.996	0.502
230.000	194.605	80.008	19.993	103.978	19.968	5.237	0.539
232.000	195.558	80.008	19.995	103.979	19.964	5.468	0.496
234.000	196.506	80.008	19.995	103.979	19.964	5.467	0.471
236.000	197.461	80.008	19.996	103.988	19.963	5.565	0.461
238.000	198.418	80.009	19.994	103.983	19.963	5.555	0.502
240.000	199.425	80.009	19.994	103.990	19.962	5.605	0.489
242.000	200.385	80.010	19.994	103.986	19.957	5.935	0.458
244.000	201.376	80.011	19.993	103.993	19.959	5.839	0.483
246.000	202.326	80.010	19.993	103.988	19.954	6.194	0.450
248.000	203.381	80.010	19.993	103.984	19.954	6.189	0.504
250.000	204.335	80.008	19.994	104.008	19.953	6.240	0.473
252.000	205.346	80.010	19.993	103.984	19.951	6.375	0.500
254.000	206.338	80.010	19.994	103.983	19.947	6.640	0.508
256.000	207.379	80.009	19.993	103.982	19.946	6.733	0.524
258.000	208.337	80.011	19.993	103.982	19.945	6.761	0.503
260.000	209.366	80.010	19.994	103.984	19.940	7.149	0.506
262.000	210.400	80.010	19.994	103.977	19.944	6.833	0.523
264.000	211.390	80.012	19.993	103.981	19.939	7.195	0.511
266.000	212.382	80.012	19.992	103.977	19.935	7.444	0.476
268.000	213.422	80.013	19.993	103.978	19.930	7.834	0.501
270.000	214.415	80.013	19.994	103.975	19.931	7.753	0.504
272.000	215.433	80.013	19.994	103.970	19.925	8.185	0.521
274.000	216.414	80.012	19.993	103.972	19.922	8.369	0.496
276.000	217.452	80.012	19.993	103.973	19.921	8.417	0.505
278.000	218.425	80.011	19.993	103.974	19.915	8.853	0.490
280.000	219.440	80.010	19.993	103.975	19.913	8.988	0.506
282.000	220.446	80.009	19.993	103.975	19.909	9.240	0.491
284.000	221.425	80.010	19.996	103.971	19.904	9.571	0.505
286.000	222.431	80.009	19.993	103.967	19.904	9.622	0.520
288.000	223.430	80.011	19.994	103.969	19.899	9.933	0.507
290.000	224.404	80.010	19.993	103.958	19.892	10.413	0.497
292.000	225.394	80.009	19.993	103.966	19.883	11.044	0.487
294.000	226.410	80.010	19.993	103.966	19.882	11.127	0.507
296.000	227.358	80.009	19.993	103.966	19.878	11.355	0.498
298.000	228.355	80.008	19.995	103.971	19.874	11.680	0.492
300.000	229.415	80.009	19.994	103.973	19.869	12.004	0.525
302.000	230.372	80.008	19.995	103.950	19.861	12.522	0.490
304.000	231.330	80.008	19.995	103.967	19.856	12.857	0.484
306.000	232.334	80.010	19.994	103.971	19.851	13.218	0.501
308.000	233.332	80.009	19.993	103.968	19.845	13.640	0.514
310.000	234.291	80.010	19.995	103.963	19.837	14.161	0.493
312.000	235.338	80.009	19.995	103.972	19.834	14.375	0.505
314.000	236.288	80.009	19.994	103.969	19.825	15.042	0.482
316.000	237.293	80.009	19.996	103.975	19.816	15.659	0.457
318.000	238.296	80.009	19.995	103.954	19.812	15.895	0.497
320.000	239.253	80.009	19.992	103.968	19.806	16.311	0.489
322.000	240.257	80.010	19.994	103.957	19.797	16.929	0.467
324.000	241.185	80.010	19.994	103.948	19.788	17.519	0.463
326.000	242.221	80.011	19.993	103.955	19.784	17.841	0.491
328.000	243.199	80.011	19.995	103.960	19.776	18.358	0.496
330.000	244.194	80.010	19.995	103.954	19.765	19.108	0.482
332.000	245.194	80.010	19.994	103.946	19.757	19.707	0.508
334.000	246.157	80.010	19.994	103.943	19.746	20.438	0.510
336.000	247.114	80.011	19.993	103.949	19.738	20.994	0.480
338.000	248.140	80.009	19.995	103.955	19.729	21.580	0.504
340.000	249.196	80.010	19.994	103.954	19.719	22.258	0.505
342.000	250.217	80.009	19.994	103.951	19.708	23.001	0.547
344.000	251.210	80.010	19.994	103.939	19.697	23.795	0.526
346.000	252.156	80.010	19.995	103.941	19.684	24.671	0.489
348.000	253.171	80.011	19.993	103.943	19.671	25.540	0.495
350.000	254.129	80.012	19.993	103.939	19.659	26.378	0.519
352.000	255.145	80.013	19.993	103.943	19.646	27.306	0.499
354.000	256.131	80.013	19.993	103.936	19.631	28.339	0.519
356.000	257.118	80.013	19.993	103.939	19.620	29.083	0.476
358.000	258.052	80.013	19.993	103.940	19.601	30.373	0.483
360.000	259.053	80.014	19.993	103.936	19.586	31.378	0.491
362.000	260.043	80.012	19.994	103.943	19.571	32.462	0.492
364.000	261.018	80.011	19.993	103.944	19.554	33.611	0.506
366.000	261.947	80.010	19.994	103.941	19.535	34.868	0.482
368.000	262.889	80.009	19.994	103.948	19.521	35.888	0.461
370.000	263.934	80.009	19.994	103.946	19.505	36.969	0.532
372.000	264.900	80.009	19.995	103.948	19.486	38.249	0.474
374.000	265.834	80.010	19.994	103.953	19.469	39.467	0.458
376.000	266.786	80.009	19.994	103.948	19.448	40.918	0.467
378.000	267.784	80.010	19.992	103.949	19.431	42.084	0.500
380.000	268.716	80.009	19.993	103.951	19.407	43.715	0.489
382.000	269.677	80.009	19.993	103.964	19.386	45.187	0.480
384.000	270.707	80.009	19.993	103.980	19.356	47.261	0.539
386.000	271.669	80.009	19.993	103.991	19.320	49.704	0.478
388.000	272.629	80.009	19.993	104.018	19.280	52.488	0.477
390.000	273.589	80.010	19.994	104.045	19.229	55.990	0.501
392.000	274.592	80.011	19.992	104.084	19.162	60.539	0.490
394.000	275.631	80.008	19.993	104.112	19.076	66.426	0.502
396.000	276.466	80.008	19.993	104.139	18.979	73.053	0.428
398.000	277.496	80.009	19.994	104.170	18.858	81.304	0.470
400.000	278.514	80.009	19.995	104.167	18.737	89.556	0.335
402.000	279.611	80.008	19.995	104.134	18.619	97.638	0.461
404.000	280.540	80.010	19.994	104.056	18.513	104.930	0.265
406.000	281.501	80.009	19.994	103.971	18.415	111.640	0.467
408.000	282.489	80.009	19.995	103.933	18.341	116.684	0.446
410.000	283.507	80.009	19.995	103.924	18.277	121.110	0.523
412.000	284.457	80.010	19.994	103.911	18.229	124.410	0.498
414.000	285.495	80.013	19.994	103.906	18.192	126.973	0.519
416.000	286.509	80.010	19.993	103.901	18.167	128.626	0.526
418.000	287.562	80.011	19.995	103.897	18.153	129.566	0.502
420.000	288.554	80.011	19.996	103.903	18.142	130.323	0.483
422.000	289.579	80.010	19.994	103.905	18.126	131.415	0.504
424.000	290.606	80.010	19.994	103.925	18.122	131.652	0.501
426.000	291.629	80.009	19.993	103.917	18.111	132.466	0.514
428.000	292.695	80.009	19.994	103.902	18.108	132.663	0.534
430.000	293.709	80.009	19.996	103.899	18.108	132.700	0.515
432.000	294.734	80.010	19.994	103.881	18.106	132.922	0.498
434.000	295.775	80.011	19.996	103.867	18.116	132.264	0.511
436.000	296.793	80.009	19.995	103.865	18.122	131.846	0.495
438.000	297.854	80.011	19.995	103.884	18.132	131.109	0.541
440.000	298.883	80.010	19.995	103.909	18.131	131.084	0.502
442.000	299.930	80.013	19.994	103.946	18.120	131.785	0.503
444.000	300.951	80.010	19.994	103.976	18.100	133.245	0.484
446.000	301.980	80.011	19.993	103.997	18.081	134.539	0.505
448.000	303.049	80.011	19.993	103.959	18.064	135.551	0.531
450.000	304.075	80.008	19.993	103.915	18.067	135.063	0.516
452.000	305.159	80.009	19.995	103.874	18.076	134.317	0.528
454.000	306.187	80.011	19.994	103.891	18.101	132.792	0.505
456.000	307.201	80.010	19.994	103.941	18.168	128.474	0.516
458.000	308.219	80.010	19.993	103.879	18.310	118.913	0.511
460.000	309.241	80.008	19.994	103.676	18.527	104.067	0.507
462.000	310.266	80.010	19.993	103.490	18.771	87.265	0.513
464.000	311.356	80.010	19.994	103.509	19.002	71.397	0.536
466.000	312.396	80.010	19.994	103.697	19.204	57.533	0.519
468.000	313.415	80.011	19.994	103.895	19.368	46.325	0.527
470.000	314.479	80.011	19.995	103.975	19.497	37.502	0.524
472.000	315.512	80.013	19.994	103.966	19.596	30.659	0.490
474.000	316.544	80.011	19.993	103.923	19.677	25.115	0.497
476.000	317.552	80.010	19.993	103.898	19.739	20.885	0.484
478.000	318.580	80.011	19.993	103.891	19.787	17.613	0.512
480.000	319.594	80.011	19.993	103.875	19.818	15.449	0.515
482.000	320.616	80.010	19.993	103.860	19.850	13.317	0.492
484.000	321.640	80.011	19.994	103.860	19.868	12.068	0.498
486.000	322.637	80.009	19.994	103.857	19.885	10.910	0.492
488.000	323.642	80.010	19.993	103.858	19.897	10.060	0.532
490.000	324.719	80.010	19.995	103.862	19.910	9.155	0.530
492.000	325.703	80.010	19.994	103.862	19.921	8.432	0.510
494.000	326.714	80.011	19.995	103.861	19.929	7.848	0.495
496.000	327.699	80.011	19.993	103.869	19.938	7.287	0.479
498.000	328.700	80.012	19.994	103.886	19.941	7.030	0.499
500.000	329.704	80.011	19.995	103.872	19.944	6.832	0.469
502.000	330.734	80.011	19.995	103.871	19.949	6.539	0.479
504.000	331.672	80.013	19.994	103.888	19.953	6.219	0.514
506.000	332.721	80.011	19.996	103.899	19.956	6.006	0.531
508.000	333.716	80.011	19.994	103.900	19.958	5.924	0.489
510.000	334.745	80.010	19.995	103.900	19.960	5.740	0.488
512.000	335.702	80.010	19.994	103.897	19.961	5.667	0.513
514.000	336.691	80.011	19.994	103.899	19.963	5.557	0.473
516.000	337.686	80.011	19.995	103.903	19.963	5.540	0.482
518.000	338.684	80.011	19.993	103.903	19.964	5.480	0.504
520.000	339.619	80.010	19.993	103.902	19.965	5.424	0.466
522.000	340.655	80.011	19.993	103.908	19.965	5.378	0.509
524.000	341.632	80.011	19.994	103.905	19.967	5.291	0.503
526.000	342.649	80.013	19.997	103.905	19.969	5.160	0.526
528.000	343.627	80.012	19.995	103.908	19.969	5.113	0.508
530.000	344.586	80.013	19.995	103.899	19.973	4.871	0.481
532.000	345.575	80.011	19.995	103.900	19.972	4.933	0.513
534.000	346.568	80.012	19.997	103.918	19.972	4.899	0.514
536.000	347.579	80.011	19.996	103.908	19.974	4.783	0.489
538.000	348.606	80.009	19.996	103.905	19.974	4.780	0.501
540.000	349.591	80.011	19.995	103.902	19.973	4.865	0.512
542.000	350.601	80.010	19.993	103.910	19.974	4.783	0.489
544.000	351.596	80.011	19.995	103.905	19.971	5.005	0.474
546.000	352.626	80.010	19.994	103.905	19.974	4.824	0.508
548.000	353.606	80.011	19.994	103.903	19.970	5.067	0.470
550.000	354.625	80.011	19.996	103.910	19.971	5.030	0.522
552.000	355.661	80.011	19.995	103.900	19.971	5.011	0.510
554.000	356.659	80.011	19.997	103.902	19.968	5.216	0.526
556.000	357.632	80.011	19.993	103.908	19.970	5.075	0.480
558.000	358.691	80.010	19.992	103.905	19.973	4.875	0.523
560.000	359.652	80.012	19.996	103.913	19.972	4.940	0.521
562.000	360.663	80.010	19.993	103.910	19.968	5.207	0.477
564.000	361.674	80.010	19.993	103.912	19.970	5.087	0.507
566.000	362.695	80.011	19.993	103.907	19.969	5.152	0.485
568.000	363.677	80.010	19.993	103.921	19.970	5.077	0.520
570.000	364.714	80.010	19.994	103.911	19.966	5.361	0.490
572.000	365.741	80.009	19.995	103.906	19.966	5.348	0.501
574.000	366.785	80.010	19.994	103.909	19.964	5.464	0.497
576.000	367.799	80.011	19.993	103.913	19.966	5.309	0.478
578.000	368.812	80.010	19.994	103.929	19.964	5.453	0.536
580.000	369.837	80.009	19.995	103.911	19.964	5.496	0.511
582.000	370.862	80.010	19.993	103.904	19.961	5.697	0.545
584.000	371.857	80.011	19.993	103.904	19.961	5.683	0.508
586.000	372.866	80.012	19.994	103.905	19.959	5.818	0.538
588.000	373.940	80.012	19.991	103.904	19.959	5.799	0.496
590.000	374.913	80.011	19.994	103.907	19.958	5.895	0.523
592.000	375.944	80.011	19.994	103.906	19.955	6.062	0.502
594.000	376.941	80.011	19.993	103.920	19.955	6.073	0.516
596.000	377.949	80.012	19.994	103.910	19.950	6.413	0.506
598.000	378.983	80.011	19.994	103.902	19.948	6.575	0.516
600.000	380.041	80.013	19.992	103.902	19.943	6.895	0.521
602.000	381.055	80.012	19.995	103.906	19.942	6.979	0.521
604.000	382.077	80.011	19.994	103.900	19.939	7.209	0.525
606.001	383.100	80.011	19.994	103.903	19.937	7.362	0.502
608.000	384.139	80.011	19.996	103.901	19.937	7.308	0.513
610.000	385.187	80.013	19.994	103.906	19.936	7.420	0.491
612.000	386.237	80.012	19.994	103.923	19.935	7.487	0.541
614.000	387.221	80.013	19.993	103.902	19.930	7.789	0.503
616.000	388.254	80.014	19.994	103.903	19.928	7.940	0.503
618.000	389.251	80.012	19.994	103.898	19.924	8.227	0.479
620.000	390.306	80.014	19.994	103.899	19.924	8.230	0.526
622.000	391.316	80.012	19.994	103.899	19.921	8.423	0.531
624.000	392.336	80.010	19.995	103.900	19.915	8.815	0.525
626.000	393.367	80.012	19.994	103.898	19.913	9.005	0.523
628.000	394.443	80.010	19.994	103.908	19.912	9.050	0.520
630.000	395.424	80.009	19.996	103.934	19.911	9.119	0.480
632.000	396.515	80.010	19.993	103.930	19.910	9.167	0.540
634.000	397.515	80.008	19.993	103.933	19.912	9.027	0.514
636.000	398.560	80.009	19.994	103.929	19.909	9.231	0.533
638.000	399.502	80.009	19.994	103.925	19.904	9.617	0.475
640.000	400.528	80.009	19.994	103.906	19.899	9.947	0.522
642.000	401.558	80.010	19.995	103.913	19.891	10.482	0.514
644.000	402.556	80.011	19.993	103.901	19.884	10.968	0.515
646.000	403.580	80.009	19.995	103.904	19.877	11.427	0.521
648.000	404.594	80.010	19.993	103.907	19.868	12.063	0.512
650.000	405.610	80.010	19.994	103.901	19.861	12.535	0.493
652.000	406.599	80.010	19.993	103.903	19.851	13.217	0.495
654.000	407.600	80.009	19.993	103.901	19.845	13.602	0.492
656.000	408.617	80.010	19.994	103.899	19.835	14.352	0.477
658.000	409.578	80.010	19.993	103.899	19.827	14.852	0.470
660.000	410.627	80.010	19.994	103.901	19.821	15.247	0.492
662.000	411.603	80.009	19.994	103.903	19.813	15.801	0.483
664.000	412.590	80.010	19.994	103.895	19.804	16.443	0.471
666.000	413.561	80.010	19.992	103.896	19.792	17.276	0.445
668.000	414.554	80.010	19.994	103.894	19.786	17.674	0.482
670.000	415.577	80.009	19.995	103.898	19.776	18.388	0.519
672.000	416.563	80.013	19.993	103.897	19.765	19.137	0.511
674.000	417.597	80.012	19.993	103.899	19.756	19.704	0.517
676.000	418.572	80.012	19.993	103.899	19.742	20.720	0.475
678.000	419.582	80.012	19.993	103.897	19.734	21.257	0.507
680.000	420.602	80.011	19.993	103.892	19.727	21.718	0.510
682.000	421.574	80.012	19.993	103.897	19.718	22.350	0.467
684.000	422.575	80.011	19.993	103.896	19.704	23.313	0.489
686.000	423.602	80.011	19.991	103.898	19.696	23.820	0.536
688.000	424.662	80.011	19.993	103.894	19.684	24.691	0.520
690.000	425.623	80.014	19.993	103.896	19.672	25.517	0.490
692.000	426.664	80.012	19.993	103.897	19.658	26.420	0.512
694.000	427.687	80.012	19.993	103.876	19.645	27.325	0.504
696.000	428.708	80.014	19.993	103.830	19.633	28.136	0.506
698.000	429.708	80.013	19.993	103.947	19.620	29.022	0.487
700.000	430.757	80.012	19.994	103.910	19.609	29.794	0.499
702.000	431.740	80.013	19.993	103.901	19.599	30.462	0.504
704.000	432.804	80.012	19.994	103.893	19.589	31.201	0.524
706.000	433.808	80.011	19.992	103.894	19.574	32.219	0.513
708.000	434.853	80.011	19.993	103.899	19.566	32.770	0.525
710.000	435.831	80.011	19.994	103.898	19.556	33.459	0.477
712.000	436.815	80.010	19.993	103.900	19.547	34.046	0.481
714.000	437.850	80.009	19.995	103.903	19.534	34.936	0.517
716.000	438.906	80.010	19.994	103.901	19.527	35.426	0.563
718.000	439.862	80.009	19.994	103.900	19.515	36.245	0.487
720.000	440.877	80.010	19.993	103.900	19.509	36.651	0.454
722.000	441.901	80.008	19.994	103.901	19.502	37.175	0.500
724.000	442.880	80.009	19.994	103.901	19.496	37.519	0.480
726.000	443.924	80.009	19.993	103.903	19.493	37.753	0.521
728.000	444.895	80.010	19.993	103.902	19.489	38.002	0.494
730.000	445.881	80.011	19.994	103.902	19.485	38.275	0.508
732.000	446.878	80.010	19.994	103.899	19.484	38.387	0.488
734.000	447.886	80.009	19.994	103.898	19.481	38.557	0.501
736.000	448.905	80.011	19.995	103.895	19.477	38.838	0.526
738.000	449.894	80.008	19.995	103.898	19.478	38.761	0.509
740.000	450.916	80.008	19.994	103.897	19.476	38.934	0.529
742.000	451.959	80.009	19.995	103.896	19.475	39.009	0.542
744.000	452.922	80.009	19.995	103.896	19.476	38.922	0.485
746.000	453.968	80.009	19.994	103.891	19.480	38.679	0.506
748.000	454.977	80.009	19.994	103.889	19.477	38.870	0.500
750.000	456.007	80.009	19.993	103.895	19.478	38.783	0.513
752.000	456.994	80.011	19.994	103.889	19.478	38.774	0.515
754.000	458.003	80.011	19.993	103.894	19.481	38.591	0.472
756.000	459.033	80.011	19.993	103.891	19.485	38.278	0.517
758.000	460.069	80.013	19.994	103.896	19.489	38.045	0.521
760.000	461.113	80.014	19.993	103.897	19.495	37.600	0.541
762.000	462.126	80.012	19.993	103.894	19.498	37.438	0.511
764.000	463.142	80.012	19.993	103.892	19.503	37.060	0.524
766.000	464.143	80.011	19.994	103.897	19.509	36.694	0.498
768.000	465.188	80.012	19.994	103.889	19.516	36.190	0.537
770.000	466.205	80.011	19.994	103.897	19.526	35.489	0.536
772.000	467.246	80.011	19.994	103.896	19.533	35.018	0.531
774.000	468.288	80.011	19.994	103.896	19.537	34.758	0.531
776.000	469.357	80.011	19.994	103.900	19.547	34.074	0.521
778.000	470.356	80.013	19.993	103.900	19.556	33.424	0.548
780.000	471.391	80.012	19.993	103.900	19.567	32.671	0.534
782.000	472.434	80.013	19.993	103.890	19.579	31.888	0.524
784.000	473.441	80.012	19.993	103.882	19.590	31.109	0.508
786.000	474.537	80.013	19.992	103.897	19.599	30.505	0.531
788.000	475.576	80.012	19.992	103.891	19.609	29.822	0.533
790.000	476.589	80.013	19.994	103.890	19.620	29.025	0.505
792.000	477.599	80.013	19.992	103.886	19.631	28.304	0.503
794.000	478.654	80.011	19.993	103.879	19.646	27.281	0.543
796.000	479.681	80.011	19.994	103.894	19.657	26.513	0.519
798.000	480.693	80.010	19.994	103.888	19.668	25.777	0.488
800.000	481.719	80.011	19.995	103.883	19.677	25.114	0.498
802.000	482.747	80.010	19.994	103.887	19.691	24.160	0.488
804.000	483.730	80.010	19.995	103.886	19.700	23.553	0.480
806.000	484.818	80.012	19.994	103.888	19.716	22.461	0.581
808.000	485.806	80.012	19.994	103.889	19.725	21.881	0.520
810.000	486.809	80.010	19.993	103.883	19.737	20.999	0.520
812.000	487.835	80.010	19.993	103.876	19.749	20.211	0.501
814.000	488.835	80.012	19.993	103.878	19.757	19.636	0.485
816.000	489.878	80.010	19.995	103.875	19.767	18.988	0.511
818.000	490.867	80.012	19.993	103.889	19.777	18.307	0.497
820.000	491.861	80.011	19.994	103.885	19.786	17.640	0.488
822.000	492.875	80.012	19.995	103.875	19.798	16.877	0.455
824.000	493.885	80.011	19.994	103.877	19.804	16.423	0.518
826.000	494.920	80.011	19.994	103.876	19.814	15.735	0.557
828.000	495.862	80.010	19.994	103.866	19.821	15.253	0.403
830.000	496.903	80.009	19.994	103.870	19.830	14.661	0.518
832.000	497.891	80.009	19.995	103.882	19.835	14.304	0.505
834.000	498.893	80.009	19.994	103.890	19.844	13.684	0.487
836.000	499.863	80.009	19.994	103.881	19.851	13.230	0.471
838.000	500.903	80.009	19.994	103.861	19.857	12.826	0.511
840.000	501.918	80.010	19.994	103.882	19.863	12.388	0.514
842.000	502.927	80.010	19.995	103.871	19.869	11.991	0.497
844.000	503.945	80.012	19.993	103.879	19.873	11.699	0.502
846.000	504.926	80.011	19.994	103.871	19.880	11.247	0.516
848.000	505.954	80.012	19.992	103.880	19.885	10.906	0.527
850.000	506.956	80.013	19.994	103.887	19.890	10.580	0.510
852.000	507.961	80.012	19.993	103.892	19.890	10.530	0.489
854.000	509.019	80.011	19.994	103.882	19.894	10.286	0.517
856.000	510.003	80.012	19.993	103.879	19.898	9.970	0.488
858.000	511.020	80.011	19.993	103.888	19.900	9.857	0.516
860.000	512.032	80.012	19.994	103.869	19.902	9.734	0.508
862.000	513.059	80.011	19.993	103.894	19.907	9.360	0.493
864.000	514.057	80.011	19.994	103.871	19.914	8.911	0.492
866.000	515.114	80.012	19.993	103.869	19.913	8.998	0.520
868.000	516.143	80.012	19.994	103.867	19.917	8.692	0.490
870.001	517.186	80.014	19.993	103.863	19.919	8.563	0.522
872.000	518.204	80.014	19.993	103.872	19.921	8.419	0.507
874.000	519.204	80.015	19.994	103.871	19.919	8.534	0.507
876.000	520.234	80.012	19.994	103.870	19.923	8.319	0.509
878.000	521.263	80.011	19.994	103.860	19.925	8.127	0.522
880.000	522.291	80.013	19.994	103.877	19.925	8.129	0.522
882.000	523.298	80.012	19.993	103.879	19.927	7.987	0.528
884.000	524.337	80.011	19.994	103.863	19.924	8.183	0.523
886.001	525.329	80.012	19.994	103.866	19.928	7.957	0.514
888.000	526.335	80.013	19.994	103.861	19.934	7.530	0.490
890.000	527.419	80.012	19.993	103.861	19.932	7.639	0.548
892.000	528.425	80.011	19.993	103.865	19.933	7.572	0.520
894.000	529.440	80.012	19.993	103.862	19.934	7.514	0.487
896.000	530.463	80.010	19.993	103.863	19.935	7.446	0.503
898.000	531.499	80.012	19.993	103.859	19.938	7.273	0.499
900.000	532.487	80.014	19.994	103.863	19.939	7.186	0.512
902.000	533.511	80.011	19.994	103.865	19.938	7.232	0.500
904.000	534.523	80.013	19.995	103.861	19.941	7.024	0.495
906.000	535.523	80.012	19.994	103.876	19.940	7.089	0.488
908.000	536.549	80.011	19.993	103.871	19.943	6.917	0.502
910.000	537.552	80.007	19.996	103.864	19.942	7.006	0.485
912.000	538.597	80.011	19.994	103.861	19.945	6.768	0.508
914.000	539.599	80.010	19.995	103.861	19.943	6.925	0.505
916.000	540.600	80.010	19.995	103.860	19.944	6.880	0.490
918.000	541.585	80.009	19.995	103.861	19.943	6.899	0.491
920.000	542.618	80.011	19.993	103.867	19.945	6.747	0.511
922.000	543.598	80.007	19.994	103.870	19.946	6.682	0.480
924.000	544.600	80.011	19.994	103.864	19.946	6.744	0.528
926.000	545.577	80.011	19.995	103.864	19.949	6.483	0.484
928.000	546.559	80.011	19.994	103.862	19.948	6.548	0.495
930.000	547.541	80.013	19.994	103.867	19.948	6.570	0.506
932.000	548.513	80.011	19.994	103.869	19.950	6.416	0.495
934.000	549.513	80.013	19.993	103.859	19.951	6.336	0.525
936.000	550.552	80.010	19.995	103.859	19.949	6.485	0.516
938.000	551.531	80.013	19.996	103.862	19.947	6.629	0.508
940.000	552.566	80.010	19.996	103.865	19.949	6.517	0.501
942.000	553.583	80.013	19.995	103.876	19.952	6.315	0.511
944.000	554.611	80.011	19.995	103.863	19.953	6.262	0.516
946.000	555.659	80.012	19.994	103.862	19.952	6.319	0.537
948.000	556.645	80.012	19.994	103.862	19.951	6.388	0.532
950.000	557.709	80.012	19.993	103.864	19.953	6.201	0.501
952.000	558.727	80.013	19.993	103.862	19.952	6.278	0.521
954.000	559.725	80.013	19.993	103.867	19.952	6.295	0.508
956.000	560.840	80.015	19.993	103.868	19.952	6.321	0.541
958.000	561.834	80.014	19.993	103.863	19.953	6.217	0.491
960.000	562.900	80.014	19.993	103.859	19.955	6.103	0.509
962.000	563.901	80.015	19.994	103.861	19.953	6.202	0.488
964.000	564.961	80.012	19.992	103.863	19.948	6.561	0.509
966.000	566.029	80.012	19.995	103.861	19.956	5.997	0.535
968.000	567.071	80.011	19.994	103.861	19.952	6.292	0.525
970.000	568.094	80.013	19.995	103.864	19.954	6.163	0.525
972.000	569.134	80.011	19.994	103.865	19.951	6.356	0.538
974.000	570.178	80.011	19.993	103.861	19.955	6.092	0.511
976.000	571.219	80.011	19.993	103.861	19.956	6.032	0.517
978.000	572.219	80.009	19.992	103.862	19.955	6.090	0.518
980.000	573.326	80.012	19.994	103.870	19.958	5.872	0.538
982.000	574.363	80.011	19.993	103.863	19.956	6.006	0.521
984.000	575.384	80.012	19.993	103.861	19.953	6.252	0.510
986.000	576.422	80.013	19.994	103.863	19.953	6.215	0.516
988.000	577.459	80.012	19.992	103.864	19.956	5.997	0.533
990.000	578.511	80.012	19.993	103.866	19.956	6.012	0.524
992.000	579.489	80.011	19.993	103.863	19.954	6.155	0.479
994.000	580.536	80.012	19.993	103.862	19.955	6.114	0.506
996.000	581.554	80.011	19.993	103.864	19.953	6.259	0.503
998.000	582.539	80.011	19.994	103.873	19.954	6.142	0.466
1000.000	583.568	80.010	19.994	103.866	19.955	6.127	0.508
1002.000	584.621	80.010	19.995	103.862	19.955	6.071	0.509
1004.000	585.623	80.011	19.994	103.859	19.952	6.270	0.513
1006.000	586.640	80.011	19.994	103.859	19.957	5.931	0.510
1008.000	587.654	80.011	19.995	103.858	19.957	5.942	0.527
1010.000	588.669	80.011	19.993	103.859	19.952	6.276	0.517
1012.000	589.694	80.011	19.994	103.860	19.960	5.749	0.523
1014.000	590.710	80.013	19.994	103.859	19.961	5.670	0.529
1016.000	591.733	80.013	19.994	103.859	19.959	5.814	0.514
1018.000	592.756	80.013	19.993	103.858	19.956	6.011	0.484
1020.000	593.769	80.013	19.993	103.858	19.960	5.741	0.510
1022.000	594.837	80.013	19.996	103.857	19.960	5.745	0.502
1024.000	595.879	80.012	19.995	103.863	19.963	5.562	0.520
1026.000	596.909	80.013	19.995	103.859	19.958	5.890	0.520
1028.000	597.934	80.012	19.994	103.859	19.963	5.575	0.507
1030.000	598.958	80.011	19.996	103.859	19.961	5.698	0.519
1032.000	599.958	80.011	19.994	103.862	19.960	5.724	0.486
1034.000	600.970	80.014	19.996	103.862	19.959	5.816	0.488
1036.000	602.004	80.013	19.996	103.864	19.962	5.603	0.501
1038.000	603.017	80.013	19.995	103.857	19.957	5.937	0.494
1040.000	604.005	80.013	19.996	103.858	19.960	5.776	0.523
1042.000	605.043	80.014	19.994	103.860	19.961	5.663	0.524
1044.000	606.049	80.015	19.995	103.861	19.963	5.558	0.500
1046.001	607.074	80.013	19.994	103.858	19.966	5.363	0.516
1048.000	608.066	80.013	19.995	103.856	19.959	5.853	0.491
1050.000	609.114	80.014	19.993	103.855	19.960	5.717	0.507
1052.000	610.155	80.011	19.993	103.856	19.960	5.728	0.500
1054.000	611.162	80.010	19.994	103.859	19.962	5.590	0.513
1056.000	612.169	80.010	19.994	103.860	19.961	5.699	0.508
1058.000	613.225	80.010	19.993	103.863	19.961	5.715	0.515
1060.000	614.204	80.011	19.994	103.864	19.962	5.633	0.506
1062.000	615.187	80.010	19.994	103.863	19.963	5.575	0.514
1064.000	616.195	80.010	19.994	103.865	19.963	5.512	0.512
1066.000	617.186	80.011	19.994	103.866	19.961	5.711	0.476
1068.000	618.163	80.011	19.994	103.867	19.965	5.381	0.498
1070.000	619.122	80.011	19.995	103.860	19.964	5.505	0.469
1072.000	620.133	80.011	19.993	103.854	19.961	5.674	0.507
1074.000	621.127	80.011	19.993	103.860	19.960	5.782	0.514
1076.000	622.092	80.011	19.994	103.857	19.959	5.788	0.488
1078.000	623.075	80.012	19.994	103.860	19.961	5.670	0.486
1080.000	624.103	80.011	19.993	103.862	19.958	5.917	0.504
1082.000	625.084	80.012	19.994	103.862	19.962	5.592	0.491
1084.001	626.047	80.012	19.994	103.860	19.965	5.441	0.480
1086.000	627.079	80.011	19.992	103.861	19.964	5.508	0.500
1088.000	628.044	80.010	19.992	103.858	19.966	5.359	0.486
1090.000	629.077	80.011	19.994	103.870	19.964	5.504	0.507
1092.000	630.078	80.011	19.993	103.866	19.969	5.159	0.524
1094.000	631.030	80.011	19.994	103.859	19.966	5.310	0.475
1096.000	632.044	80.012	19.994	103.860	19.967	5.247	0.525
1098.000	633.087	80.013	19.993	103.858	19.965	5.413	0.492
1100.001	634.122	80.012	19.993	103.844	19.965	5.378	0.528
1102.000	635.169	80.013	19.995	103.858	19.968	5.234	0.537
1104.000	636.169	80.012	19.995	103.858	19.968	5.229	0.502
1106.000	637.221	80.011	19.995	103.859	19.968	5.206	0.481
1108.000	638.239	80.012	19.995	103.860	19.968	5.221	0.516
1110.000	639.199	80.012	19.994	103.860	19.967	5.251	0.480
1112.000	640.258	80.012	19.994	103.860	19.970	5.080	0.521
1114.000	641.250	80.012	19.995	103.859	19.968	5.227	0.499
1116.000	642.302	80.012	19.994	103.865	19.971	4.979	0.548
1118.000	643.354	80.012	19.994	103.862	19.967	5.277	0.543
1120.000	644.373	80.012	19.993	103.861	19.971	4.978	0.516
1122.000	645.413	80.013	19.994	103.863	19.964	5.445	0.529
1124.000	646.500	80.013	19.994	103.862	19.970	5.074	0.529
1126.001	647.559	80.013	19.994	103.864	19.969	5.141	0.556
1128.000	648.632	80.012	19.994	103.862	19.968	5.208	0.547
1130.000	649.713	80.014	19.995	103.855	19.971	4.995	0.571
1132.000	650.751	80.013	19.994	103.860	19.966	5.368	0.523
1134.001	651.853	80.012	19.996	103.859	19.968	5.180	0.552
1136.000	652.870	80.011	19.994	103.860	19.969	5.129	0.543
1138.000	653.976	80.012	19.994	103.861	19.968	5.197	0.527
1140.000	655.054	80.010	19.994	103.862	19.969	5.165	0.506
1142.000	656.141	80.012	19.995	103.856	19.971	5.010	0.550
1144.000	657.235	80.010	19.993	103.857	19.970	5.057	0.540
1146.000	658.293	80.010	19.993	103.852	19.971	4.980	0.512
1148.000	659.384	80.011	19.992	103.858	19.973	4.859	0.565
1150.000	660.426	80.010	19.995	103.857	19.969	5.105	0.561
1152.001	661.512	80.011	19.994	103.858	19.972	4.918	0.530
1154.000	662.555	80.012	19.994	103.855	19.976	4.645	0.550
1156.000	663.645	80.011	19.994	103.859	19.973	4.829	0.532
1158.001	664.689	80.013	19.994	103.859	19.975	4.701	0.535
1160.000	665.756	80.011	19.994	103.859	19.973	4.843	0.519
1162.000	666.761	80.010	19.994	103.847	19.975	4.757	0.538
1164.000	667.830	80.011	19.993	103.854	19.975	4.746	0.564
1166.000	668.793	80.011	19.994	103.850	19.978	4.550	0.500
1168.000	669.805	80.011	19.995	103.857	19.974	4.772	0.476
1170.001	670.886	80.012	19.995	103.859	19.975	4.714	0.539
1172.000	671.902	80.011	19.995	103.859	19.977	4.572	0.514
1174.000	672.929	80.012	19.995	103.856	19.976	4.652	0.516
1176.000	673.970	80.012	19.994	103.860	19.980	4.398	0.537
1178.000	674.967	80.012	19.995	103.864	19.975	4.715	0.523
1180.000	676.050	80.012	19.994	103.862	19.978	4.507	0.514
1182.000	677.077	80.012	19.994	103.853	19.975	4.741	0.513
1184.000	678.053	80.013	19.994	103.851	19.979	4.479	0.500
1186.000	679.067	80.013	19.993	103.846	19.979	4.470	0.505
1188.000	680.113	80.014	19.994	103.836	19.975	4.727	0.517
1190.000	681.092	80.013	19.994	103.857	19.977	4.600	0.477
1192.000	682.110	80.012	19.993	103.853	19.980	4.367	0.501
1194.001	683.097	80.012	19.994	103.852	19.978	4.550	0.491
1196.000	684.065	80.012	19.995	103.862	19.977	4.583	0.490
1198.001	685.101	80.013	19.994	103.861	19.980	4.348	0.478
1200.000	686.096	80.012	19.995	103.858	19.980	4.401	0.498
1202.000	687.128	80.012	19.994	103.852	19.978	4.501	0.503
1204.000	688.129	80.014	19.995	103.854	19.981	4.322	0.522
1206.000	689.137	80.012	19.994	103.850	19.976	4.630	0.506
1208.000	690.146	80.013	19.993	103.848	19.981	4.321	0.507
1210.000	691.104	80.012	19.995	103.855	19.978	4.486	0.474
1212.000	692.139	80.012	19.995	103.854	19.987	3.903	0.483
1214.000	693.172	80.014	19.995	103.846	19.982	4.270	0.521
1216.000	694.166	80.014	19.993	103.853	19.981	4.298	0.502
1218.000	695.220	80.010	19.994	103.855	19.980	4.373	0.518
1220.000	696.254	80.011	19.995	103.854	19.981	4.332	0.509
1222.000	697.304	80.011	19.995	103.849	19.985	4.054	0.522
1224.000	698.415	80.010	19.993	103.857	19.981	4.294	0.557
1226.000	699.483	80.012	19.995	103.850	19.982	4.226	0.519
1228.000	700.541	80.012	19.997	103.853	19.985	4.070	0.559
1230.000	701.624	80.012	19.996	103.856	19.986	3.998	0.523
1232.001	702.704	80.010	19.995	103.855	19.978	4.512	0.530
1234.000	703.766	80.011	19.995	103.855	19.983	4.184	0.523
1236.000	704.900	80.012	19.996	103.855	19.984	4.120	0.544
1238.001	705.913	80.011	19.996	103.851	19.978	4.510	0.500
1240.000	706.987	80.011	19.995	103.847	19.981	4.314	0.542
1242.000	708.009	80.010	19.995	103.850	19.979	4.469	0.488
1244.000	709.052	80.012	19.995	103.835	19.988	3.841	0.506
1246.000	710.108	80.011	19.994	103.825	19.990	3.725	0.531
1248.000	711.098	80.012	19.994	103.828	19.988	3.850	0.491
1250.000	712.134	80.010	19.995	103.828	19.989	3.789	0.527
1252.000	713.133	80.010	19.993	103.837	19.987	3.873	0.520
1254.000	714.135	80.012	19.995	103.826	19.982	4.245	0.517
1256.001	715.140	80.011	19.993	103.834	19.987	3.902	0.503
1258.000	716.175	80.010	19.993	103.829	19.981	4.286	0.540
1260.000	717.204	80.010	19.995	103.840	19.988	3.800	0.510
1262.000	718.196	80.012	19.994	103.854	19.981	4.299	0.499
1264.000	719.150	80.013	19.995	103.836	19.986	3.977	0.471
1266.000	720.148	80.012	19.994	103.836	19.987	3.899	0.488
1268.001	721.121	80.012	19.993	103.832	19.982	4.225	0.468
1270.000	722.134	80.010	19.994	103.850	19.985	4.051	0.495
1272.000	723.055	80.012	19.994	103.839	19.984	4.111	0.453
1274.000	724.040	80.013	19.995	103.840	19.980	4.409	0.470
1276.000	725.060	80.011	19.994	103.841	19.987	3.915	0.513
1278.000	726.031	80.011	19.995	103.849	19.988	3.824	0.505
1280.000	726.998	80.013	19.993	103.844	19.992	3.576	0.479
1282.001	728.000	80.014	19.994	103.831	19.988	3.831	0.476
1284.001	728.967	80.012	19.994	103.821	19.988	3.859	0.478
1286.001	729.961	80.012	19.993	103.836	19.986	3.965	0.507
1288.000	730.941	80.013	19.992	103.831	19.988	3.842	0.502
1290.000	731.912	80.014	19.993	103.835	19.990	3.710	0.458
1292.000	732.910	80.013	19.994	103.832	19.988	3.846	0.512
1294.000	733.938	80.013	19.993	103.833	19.988	3.860	0.517
1296.000	734.936	80.013	19.994	103.831	19.990	3.682	0.477
1298.000	735.882	80.013	19.996	103.820	19.989	3.731	0.485
1300.000	736.859	80.012	19.995	103.826	19.988	3.848	0.461
1302.000	737.917	80.010	19.995	103.828	19.984	4.118	0.511
1304.000	738.879	80.011	19.995	103.831	19.987	3.896	0.472
1306.000	739.872	80.011	19.995	103.846	19.987	3.880	0.515
1308.000	740.865	80.012	19.994	103.838	19.984	4.122	0.495
1310.000	741.881	80.011	19.994	103.833	19.988	3.854	0.497
1312.001	742.867	80.012	19.995	103.834	19.985	4.008	0.488
1313.501	743.611	80.010	19.994	103.827	19.988	3.809	0.499