File: 01_Data/Pipe_Heat_Cable/MCC/Pipe_Heat_Cable_MCC_30K_min_220126_R2.txt
Sample ID:	C:\MCC\MCC Cal\Test\Pipe_Heat_Cable_MCC_30K_min_220126_R2.txt
Sample Weight (mg):	4.21
Heating Rate (C/s):	0.5
Combustor Temp (C):	900
N2 Flow Rate (cc/min):	80
O2 Flow Rate (cc/min):	20
Calibration File:	C:\MCC\MCC Cal\Coeff1 JN10440_30_210304.txt.txt
T Correction Coefficients:	0	1.024463	0
Time Shift (s):	14
*
Time (s)	Temperature (C)	N2 flow rate (cc/min)	O2 flow rate (cc/min)	Flow Rate (cc/min)	Oxygen (%)	HRR (W/g)	Heating rate (C/s)
0.000	113.380	80.008	19.995	103.715	20.048	-0.147	0.035
2.000	113.294	79.996	19.994	103.711	20.046	-0.027	0.005
4.000	113.281	80.010	19.994	103.724	20.048	-0.133	-0.049
6.000	113.298	80.004	19.988	103.730	20.046	-0.034	-0.017
8.000	113.367	80.014	19.996	103.726	20.045	0.053	0.053
10.000	113.277	79.991	19.994	103.744	20.042	0.316	-0.030
12.001	113.309	80.009	19.994	103.747	20.042	0.324	-0.011
14.000	113.301	79.995	20.000	103.783	20.036	0.751	0.010
16.000	113.314	80.008	19.996	103.805	20.034	0.892	-0.014
18.000	113.413	80.003	19.991	103.799	20.030	1.200	0.029
20.000	113.471	80.004	19.994	103.815	20.028	1.356	0.043
22.000	113.555	80.006	19.995	103.818	20.026	1.508	0.041
24.000	113.597	80.010	19.996	103.833	20.022	1.881	0.015
26.000	113.748	80.002	19.994	103.838	20.017	2.218	0.060
28.000	113.897	80.015	19.992	103.885	20.015	2.357	0.087
30.000	114.064	79.996	19.994	103.915	20.012	2.633	0.071
32.000	114.285	80.013	19.997	103.914	20.009	2.806	0.066
34.001	114.514	80.011	19.995	103.936	20.010	2.770	0.154
36.000	114.743	80.011	19.993	103.939	20.005	3.139	0.124
38.000	115.056	80.007	19.995	103.934	20.009	2.838	0.130
40.000	115.385	80.000	19.995	103.935	20.007	2.987	0.136
42.000	115.712	80.007	19.992	103.928	20.004	3.234	0.175
44.000	116.142	80.008	19.997	103.935	20.004	3.231	0.224
46.000	116.504	80.026	19.996	103.945	20.007	2.998	0.201
48.001	116.967	80.015	19.998	103.948	20.005	3.137	0.206
50.001	117.315	80.006	20.004	103.949	20.002	3.350	0.178
52.001	117.827	80.001	19.999	103.945	20.004	3.261	0.212
54.000	118.282	80.001	19.995	103.944	19.998	3.722	0.222
56.000	118.818	80.016	19.990	103.945	20.003	3.335	0.233
58.000	119.327	80.011	19.989	103.944	19.999	3.607	0.252
60.001	119.849	80.021	19.991	103.948	20.001	3.449	0.282
62.001	120.364	80.019	19.996	103.945	20.000	3.514	0.237
64.000	120.949	80.007	19.994	103.936	20.001	3.426	0.265
66.000	121.494	80.010	19.995	103.943	20.002	3.400	0.263
68.000	122.086	79.992	19.995	103.951	19.997	3.731	0.298
70.000	122.701	80.009	19.994	103.955	20.000	3.573	0.292
72.001	123.378	80.014	19.989	103.956	20.001	3.444	0.309
74.000	123.977	80.007	19.991	103.953	19.996	3.813	0.334
76.000	124.660	80.007	19.995	103.955	19.994	4.001	0.336
78.000	125.320	80.008	19.993	103.954	19.998	3.676	0.339
80.001	125.995	80.010	19.992	103.959	19.997	3.776	0.312
82.000	126.665	80.016	19.990	103.953	19.996	3.846	0.289
84.000	127.346	79.998	19.997	103.949	20.000	3.533	0.327
86.000	128.089	80.015	19.992	103.940	19.998	3.725	0.367
88.001	128.826	80.008	19.990	103.962	19.996	3.826	0.376
90.000	129.459	80.005	19.994	103.955	19.996	3.874	0.351
92.000	130.218	80.021	19.995	103.984	19.998	3.673	0.360
94.000	130.942	80.013	19.996	103.967	19.996	3.883	0.357
96.000	131.727	79.995	19.998	103.951	19.999	3.634	0.391
98.000	132.453	80.012	19.991	103.958	19.999	3.592	0.358
100.000	133.185	80.012	19.990	103.951	19.999	3.654	0.359
102.001	133.996	80.007	19.992	103.966	19.999	3.609	0.404
104.000	134.717	79.997	19.996	103.963	20.000	3.522	0.374
106.000	135.518	80.016	19.995	103.959	20.000	3.525	0.386
108.000	136.313	80.008	19.994	103.960	19.999	3.608	0.398
110.001	137.128	80.006	19.993	103.961	19.998	3.715	0.428
112.000	137.872	80.006	19.996	103.967	20.000	3.554	0.376
114.000	138.716	79.996	19.997	103.944	19.996	3.812	0.426
116.000	139.544	80.019	19.992	103.962	20.004	3.243	0.425
118.000	140.370	80.009	19.996	103.979	20.002	3.355	0.377
120.001	141.203	79.999	19.997	103.981	19.998	3.682	0.439
122.001	142.020	80.006	19.996	103.973	19.997	3.747	0.438
124.000	142.858	80.007	19.994	103.968	19.996	3.863	0.407
126.001	143.739	80.016	19.991	103.980	19.995	3.898	0.446
128.000	144.529	79.988	19.997	103.987	19.994	4.002	0.402
130.000	145.424	80.019	19.994	103.976	19.994	3.977	0.427
132.000	146.284	80.029	19.992	103.984	19.992	4.189	0.422
134.000	147.137	80.011	19.994	103.976	19.995	3.894	0.446
136.000	147.982	80.001	20.002	103.986	19.995	3.922	0.412
138.000	148.930	80.015	19.988	103.969	19.992	4.177	0.493
140.000	149.828	80.019	19.993	103.989	19.991	4.257	0.464
142.000	150.601	79.999	19.993	103.991	19.994	3.975	0.397
144.001	151.527	80.005	19.994	103.978	19.992	4.177	0.426
146.000	152.463	80.005	19.994	103.985	19.990	4.307	0.478
148.000	153.403	80.013	19.996	103.983	19.991	4.242	0.485
150.000	154.275	80.013	19.993	103.984	19.992	4.166	0.465
152.000	155.174	80.008	19.992	103.984	19.993	4.088	0.462
154.000	156.102	80.008	19.994	103.987	19.992	4.194	0.457
156.000	157.044	79.996	19.995	103.986	19.992	4.156	0.483
158.000	157.952	80.002	19.996	103.990	19.992	4.134	0.467
160.000	158.913	80.007	19.993	103.987	19.993	4.099	0.475
162.000	159.833	80.000	19.995	103.981	19.991	4.211	0.452
164.000	160.863	80.011	19.994	103.985	19.993	4.110	0.479
166.000	161.813	80.010	19.993	103.982	19.995	3.941	0.491
168.000	162.776	79.997	19.992	103.980	19.993	4.097	0.503
170.000	163.771	80.016	19.991	103.986	19.989	4.413	0.501
172.000	164.725	80.009	19.992	103.992	19.992	4.181	0.485
174.000	165.741	80.013	19.991	103.989	19.992	4.187	0.488
176.001	166.729	80.010	19.993	103.988	19.990	4.276	0.527
178.000	167.704	80.015	19.995	103.978	19.990	4.316	0.495
180.000	168.710	80.005	19.995	103.982	19.993	4.105	0.481
182.000	169.666	80.020	19.993	103.981	19.992	4.155	0.459
184.001	170.628	80.008	19.996	103.982	19.990	4.288	0.504
186.001	171.686	80.003	19.995	103.979	19.992	4.164	0.501
188.001	172.679	80.013	19.994	103.978	19.993	4.090	0.484
190.000	173.722	80.001	19.995	103.979	19.989	4.353	0.518
192.000	174.693	79.997	19.996	103.976	19.987	4.538	0.482
194.000	175.702	80.010	19.994	103.965	19.990	4.332	0.487
196.000	176.721	80.012	19.994	103.966	19.991	4.261	0.501
198.000	177.732	80.006	19.994	103.961	19.992	4.154	0.535
200.000	178.692	80.012	19.993	103.967	19.991	4.196	0.536
202.000	179.725	80.007	19.993	103.956	19.989	4.422	0.521
204.000	180.711	80.003	19.996	103.961	19.991	4.201	0.451
206.000	181.742	80.007	19.993	103.972	19.992	4.116	0.506
208.000	182.751	80.010	19.994	103.960	19.991	4.240	0.482
210.000	183.786	80.007	19.995	103.950	19.991	4.197	0.496
212.000	184.808	80.005	19.993	103.949	19.986	4.639	0.499
214.000	185.812	80.007	19.995	103.952	19.989	4.348	0.546
216.000	186.845	80.013	19.994	103.950	19.988	4.487	0.535
218.000	187.844	80.006	19.994	103.949	19.986	4.596	0.482
220.000	188.866	80.010	19.994	103.947	19.985	4.676	0.504
222.001	189.844	80.007	19.995	103.954	19.987	4.548	0.489
224.000	190.838	80.006	19.995	103.944	19.986	4.630	0.488
226.000	191.842	80.006	19.995	103.946	19.986	4.641	0.514
228.000	192.821	80.008	19.995	103.942	19.983	4.874	0.513
230.000	193.828	80.011	19.994	103.941	19.985	4.689	0.499
232.000	194.838	80.004	19.995	103.941	19.985	4.710	0.513
234.000	195.808	80.010	19.994	103.941	19.982	4.915	0.482
236.000	196.757	80.010	19.994	103.943	19.982	4.955	0.432
238.000	197.768	80.009	19.994	103.941	19.982	4.938	0.486
240.000	198.767	80.003	19.995	103.938	19.981	5.035	0.469
242.000	199.771	80.002	19.994	103.937	19.978	5.264	0.468
244.000	200.754	80.007	19.994	103.943	19.976	5.416	0.470
246.000	201.747	80.007	19.994	103.945	19.978	5.199	0.496
248.000	202.791	80.012	19.993	103.945	19.976	5.418	0.509
250.000	203.759	80.008	19.994	103.943	19.975	5.485	0.507
252.000	204.746	80.004	19.995	103.942	19.969	5.909	0.519
254.000	205.742	80.005	19.994	103.933	19.970	5.858	0.499
256.000	206.754	80.008	19.993	103.941	19.968	5.978	0.503
258.000	207.709	80.006	19.994	103.936	19.962	6.450	0.489
260.000	208.710	79.998	19.996	103.937	19.964	6.330	0.493
262.000	209.736	80.003	19.994	103.940	19.963	6.412	0.511
264.000	210.743	80.005	19.995	103.940	19.957	6.825	0.515
266.000	211.720	80.008	19.994	103.944	19.956	6.926	0.476
268.000	212.694	80.004	19.993	103.936	19.953	7.177	0.475
270.000	213.725	80.007	19.994	103.940	19.952	7.257	0.504
272.000	214.659	80.009	19.994	103.939	19.951	7.300	0.484
274.000	215.666	80.006	19.994	103.937	19.950	7.399	0.514
276.000	216.607	80.007	19.997	103.943	19.941	8.053	0.456
278.000	217.628	80.008	19.995	103.944	19.941	8.085	0.505
280.000	218.626	80.004	19.994	103.946	19.939	8.262	0.471
282.000	219.600	80.009	19.994	103.929	19.938	8.324	0.508
284.000	220.614	80.012	19.994	103.925	19.935	8.575	0.509
286.000	221.624	80.022	19.992	103.930	19.932	8.735	0.514
288.000	222.595	80.008	19.994	103.924	19.925	9.348	0.509
290.000	223.557	80.010	19.993	103.916	19.921	9.586	0.473
292.000	224.579	80.009	19.994	103.928	19.917	9.932	0.477
294.000	225.538	80.011	19.994	103.920	19.912	10.298	0.471
296.000	226.586	80.005	19.994	103.908	19.910	10.464	0.488
298.000	227.556	80.011	19.995	103.921	19.904	10.948	0.498
300.000	228.608	80.003	19.995	103.932	19.900	11.244	0.535
302.000	229.575	80.006	19.995	103.928	19.897	11.473	0.475
304.000	230.565	80.009	19.994	103.913	19.891	11.955	0.519
306.000	231.598	80.008	19.995	103.917	19.885	12.374	0.508
308.000	232.531	80.008	19.995	103.909	19.881	12.729	0.481
310.000	233.567	80.008	19.994	103.902	19.876	13.104	0.502
312.000	234.545	80.006	19.995	103.929	19.870	13.532	0.547
314.000	235.525	80.009	19.995	103.916	19.864	13.978	0.470
316.000	236.518	80.009	19.995	103.919	19.860	14.287	0.481
318.000	237.537	80.004	19.994	103.926	19.853	14.895	0.513
320.000	238.524	80.007	19.994	103.915	19.848	15.227	0.506
322.000	239.497	80.007	19.994	103.909	19.840	15.865	0.493
324.000	240.473	80.006	19.995	103.908	19.832	16.484	0.500
326.000	241.474	80.008	19.995	103.903	19.825	17.019	0.519
328.000	242.496	80.005	19.994	103.912	19.816	17.706	0.517
330.000	243.513	80.008	19.994	103.906	19.806	18.500	0.485
332.000	244.475	80.006	19.994	103.906	19.806	18.487	0.471
334.000	245.472	80.007	19.994	103.907	19.791	19.622	0.507
336.000	246.480	80.004	19.994	103.908	19.782	20.346	0.503
338.000	247.464	80.006	19.993	103.907	19.774	20.951	0.479
340.000	248.460	80.007	19.993	103.908	19.764	21.685	0.487
342.000	249.474	80.006	19.994	103.908	19.753	22.533	0.548
344.000	250.484	80.009	19.994	103.908	19.744	23.280	0.511
346.000	251.532	80.003	19.993	103.907	19.731	24.248	0.522
348.000	252.502	80.006	19.994	103.908	19.725	24.742	0.493
350.000	253.440	80.006	19.994	103.910	19.711	25.815	0.485
352.000	254.447	80.006	19.993	103.914	19.702	26.505	0.509
354.000	255.489	80.005	19.994	103.912	19.692	27.256	0.500
356.000	256.448	80.004	19.993	103.908	19.679	28.240	0.490
358.000	257.412	80.005	19.995	103.905	19.664	29.442	0.506
360.000	258.387	80.007	19.994	103.905	19.651	30.442	0.476
362.000	259.393	80.008	19.994	103.906	19.635	31.644	0.495
364.000	260.349	80.006	19.994	103.906	19.618	32.962	0.467
366.000	261.358	80.007	19.994	103.903	19.604	34.053	0.477
368.000	262.389	80.009	19.992	103.903	19.588	35.260	0.516
370.000	263.330	80.009	19.993	103.904	19.574	36.333	0.499
372.000	264.373	80.007	19.993	103.902	19.552	38.049	0.527
374.000	265.362	80.009	19.993	103.894	19.540	38.942	0.506
376.000	266.266	80.009	19.994	103.896	19.523	40.289	0.488
378.000	267.289	80.008	19.995	103.901	19.510	41.297	0.508
380.000	268.275	80.007	19.994	103.895	19.490	42.797	0.475
382.000	269.253	80.008	19.994	103.888	19.475	43.989	0.531
384.000	270.288	80.009	19.995	103.901	19.461	45.029	0.517
386.000	271.262	80.007	19.994	103.902	19.443	46.404	0.478
388.000	272.304	80.006	19.994	103.903	19.424	47.903	0.540
390.000	273.231	80.010	19.994	103.903	19.404	49.457	0.486
392.000	274.274	80.008	19.995	103.906	19.383	51.121	0.496
394.000	275.266	80.009	19.993	103.905	19.357	53.096	0.516
396.000	276.263	80.010	19.994	103.917	19.331	55.177	0.477
398.000	277.286	80.008	19.994	103.909	19.300	57.620	0.517
400.000	278.242	80.008	19.994	103.924	19.270	59.924	0.513
402.000	279.254	80.007	19.994	103.959	19.218	63.853	0.484
404.000	280.224	80.009	19.994	104.013	19.148	69.159	0.506
406.000	281.190	80.009	19.994	104.095	19.039	77.520	0.489
408.000	282.159	80.008	19.995	104.179	18.915	87.050	0.460
410.000	283.141	80.007	19.995	104.183	18.776	97.713	0.505
412.000	284.175	80.005	19.995	104.116	18.638	108.314	0.526
414.000	285.201	80.005	19.995	104.030	18.503	118.666	0.508
416.000	286.165	80.006	19.994	103.944	18.395	127.009	0.463
418.000	287.189	80.005	19.995	103.872	18.309	133.630	0.496
420.000	288.151	80.005	19.995	103.826	18.253	137.945	0.467
422.000	289.178	80.007	19.993	103.789	18.222	140.384	0.517
424.000	290.123	80.006	19.994	103.786	18.209	141.383	0.495
426.000	291.128	80.007	19.992	103.790	18.214	140.985	0.507
428.000	292.159	80.007	19.994	103.797	18.223	140.241	0.514
430.000	293.192	80.006	19.994	103.821	18.243	138.710	0.490
432.000	294.146	80.004	19.994	103.844	18.260	137.393	0.490
434.000	295.214	80.006	19.994	103.851	18.283	135.608	0.526
436.001	296.190	80.008	19.994	103.843	18.311	133.472	0.497
438.000	297.176	80.006	19.994	103.831	18.344	130.983	0.483
440.000	298.205	80.005	19.995	103.825	18.386	127.739	0.494
442.000	299.241	80.007	19.993	103.805	18.428	124.553	0.542
444.000	300.225	80.006	19.993	103.784	18.482	120.358	0.492
446.000	301.198	80.007	19.995	103.790	18.538	116.103	0.487
448.000	302.220	80.007	19.993	103.809	18.599	111.340	0.495
450.000	303.220	80.007	19.994	103.823	18.651	107.358	0.489
452.000	304.244	80.009	19.995	103.842	18.697	103.820	0.516
454.000	305.287	80.008	19.994	103.866	18.739	100.547	0.526
456.000	306.275	80.008	19.993	103.866	18.784	97.147	0.487
458.000	307.294	80.008	19.993	103.862	18.830	93.568	0.497
460.000	308.292	80.010	19.992	103.834	18.882	89.625	0.495
462.000	309.293	80.009	19.993	103.824	18.940	85.128	0.518
464.000	310.289	80.009	19.993	103.818	19.000	80.508	0.536
466.000	311.317	80.008	19.993	103.832	19.064	75.522	0.505
468.000	312.311	80.007	19.993	103.857	19.124	70.934	0.516
470.000	313.364	80.009	19.993	103.866	19.185	66.228	0.525
472.000	314.339	80.008	19.993	103.849	19.247	61.496	0.509
474.000	315.384	80.007	19.995	103.830	19.314	56.335	0.490
476.000	316.382	80.008	19.994	103.830	19.373	51.794	0.470
478.000	317.373	80.008	19.996	103.830	19.433	47.136	0.515
480.000	318.405	80.009	19.995	103.827	19.491	42.694	0.524
482.000	319.419	80.009	19.994	103.829	19.543	38.675	0.526
484.000	320.368	80.010	19.993	103.828	19.598	34.453	0.497
486.000	321.396	80.007	19.994	103.828	19.647	30.692	0.480
488.000	322.399	80.007	19.994	103.826	19.695	27.022	0.510
490.000	323.376	80.006	19.993	103.827	19.735	23.932	0.489
492.000	324.379	80.006	19.994	103.826	19.771	21.188	0.467
494.000	325.396	80.006	19.994	103.835	19.806	18.425	0.476
496.000	326.407	80.006	19.994	103.827	19.834	16.325	0.496
498.000	327.406	80.005	19.995	103.829	19.857	14.538	0.472
500.000	328.393	80.006	19.994	103.829	19.870	13.557	0.476
502.000	329.403	80.007	19.995	103.847	19.894	11.701	0.519
504.000	330.405	80.006	19.994	103.830	19.909	10.538	0.470
506.001	331.412	80.007	19.995	103.832	19.925	9.311	0.495
508.000	332.434	80.006	19.994	103.825	19.940	8.186	0.523
510.000	333.485	80.009	19.995	103.835	19.943	7.902	0.542
512.000	334.564	80.007	19.994	103.836	19.950	7.392	0.535
514.000	335.454	80.007	19.995	103.827	19.957	6.862	0.468
516.001	336.428	80.008	19.993	103.840	19.967	6.108	0.489
518.000	337.505	80.005	19.994	103.855	19.971	5.799	0.540
520.001	338.508	80.007	19.994	103.857	19.969	5.910	0.514
522.000	339.508	80.006	19.993	103.822	19.977	5.330	0.509
524.000	340.432	80.006	19.994	103.834	19.977	5.296	0.464
526.000	341.510	80.006	19.995	103.841	19.981	4.997	0.506
528.000	342.430	80.005	19.994	103.857	19.984	4.776	0.465
530.000	343.476	80.007	19.994	103.866	19.987	4.540	0.486
532.000	344.462	80.006	19.994	103.858	19.989	4.412	0.536
534.000	345.399	80.009	19.993	103.867	19.991	4.208	0.416
536.000	346.411	80.008	19.994	103.862	19.994	3.961	0.478
538.000	347.393	80.008	19.994	103.863	19.996	3.839	0.499
540.000	348.399	80.007	19.994	103.861	19.998	3.711	0.498
542.000	349.420	80.007	19.994	103.866	19.998	3.688	0.507
544.000	350.436	80.008	19.994	103.867	19.997	3.768	0.517
546.000	351.437	80.008	19.993	103.865	19.994	4.031	0.499
548.000	352.411	80.007	19.994	103.859	19.997	3.789	0.469
550.000	353.458	80.007	19.994	103.856	19.999	3.629	0.530
552.000	354.460	80.009	19.993	103.868	20.004	3.265	0.530
554.000	355.425	80.008	19.993	103.867	20.001	3.496	0.467
556.000	356.449	80.008	19.993	103.866	19.998	3.719	0.495
558.000	357.468	80.009	19.993	103.866	19.997	3.787	0.505
560.000	358.458	80.008	19.993	103.864	19.998	3.726	0.514
562.000	359.434	80.009	19.992	103.863	20.002	3.379	0.483
564.000	360.469	80.010	19.994	103.864	20.000	3.530	0.524
566.000	361.442	80.008	19.994	103.862	20.003	3.330	0.500
568.000	362.500	80.007	19.995	103.862	20.000	3.521	0.515
570.000	363.437	80.007	19.995	103.866	20.000	3.500	0.496
572.000	364.417	80.006	19.994	103.872	20.005	3.151	0.472
574.000	365.421	80.007	19.994	103.869	20.000	3.505	0.496
576.000	366.433	80.007	19.995	103.864	20.003	3.294	0.508
578.000	367.439	80.006	19.995	103.863	20.004	3.246	0.496
580.000	368.438	80.006	19.995	103.863	20.001	3.440	0.513
582.000	369.473	80.007	19.995	103.865	19.998	3.709	0.484
584.000	370.440	80.005	19.994	103.865	20.000	3.536	0.472
586.000	371.461	80.006	19.994	103.865	20.000	3.560	0.528
588.000	372.443	80.005	19.994	103.868	19.998	3.711	0.490
590.000	373.503	80.007	19.995	103.871	20.001	3.471	0.534
592.000	374.511	80.006	19.996	103.866	19.998	3.654	0.506
594.000	375.456	80.005	19.994	103.867	19.998	3.713	0.462
596.000	376.456	80.006	19.994	103.867	19.995	3.939	0.505
598.000	377.463	80.005	19.998	103.875	19.995	3.958	0.524
600.000	378.430	80.004	19.995	103.870	19.995	3.958	0.495
602.000	379.444	80.006	19.995	103.867	19.991	4.221	0.490
604.000	380.499	80.006	19.995	103.869	19.991	4.244	0.489
606.000	381.462	80.005	19.994	103.877	19.991	4.242	0.475
608.000	382.447	80.006	19.995	103.884	19.991	4.248	0.519
610.000	383.444	80.005	19.994	103.872	19.989	4.368	0.500
612.000	384.437	80.005	19.993	103.872	19.988	4.437	0.493
614.000	385.434	80.008	19.994	103.867	19.990	4.328	0.499
616.000	386.445	80.008	19.994	103.871	19.987	4.541	0.494
618.000	387.439	80.008	19.993	103.869	19.986	4.585	0.514
620.000	388.415	80.009	19.994	103.872	19.983	4.850	0.482
622.000	389.438	80.009	19.993	103.863	19.985	4.705	0.510
624.000	390.447	80.007	19.993	103.864	19.981	4.982	0.500
626.000	391.451	80.008	19.995	103.867	19.977	5.313	0.508
628.000	392.476	80.008	19.993	103.870	19.975	5.470	0.532
630.000	393.493	80.010	19.992	103.865	19.975	5.431	0.508
632.000	394.493	80.009	19.994	103.864	19.973	5.597	0.511
634.000	395.514	80.007	19.992	103.866	19.967	6.048	0.555
636.001	396.499	80.008	19.994	103.866	19.968	6.026	0.508
638.000	397.509	80.009	19.994	103.861	19.964	6.323	0.498
640.000	398.446	80.009	19.994	103.864	19.964	6.294	0.475
642.000	399.472	80.009	19.991	103.863	19.960	6.578	0.483
644.000	400.513	80.010	19.993	103.863	19.956	6.887	0.537
646.000	401.448	80.010	19.993	103.865	19.954	7.041	0.473
648.001	402.455	80.009	19.994	103.862	19.955	6.986	0.481
650.000	403.509	80.008	19.995	103.862	19.948	7.542	0.500
652.000	404.512	80.009	19.994	103.869	19.945	7.738	0.502
654.000	405.505	80.007	19.993	103.864	19.944	7.818	0.526
656.000	406.508	80.007	19.994	103.866	19.938	8.308	0.504
658.000	407.479	80.005	19.996	103.867	19.940	8.170	0.472
660.000	408.492	80.005	19.994	103.868	19.933	8.688	0.508
662.000	409.497	80.007	19.994	103.868	19.931	8.864	0.516
664.000	410.476	80.007	19.994	103.866	19.926	9.254	0.511
666.000	411.541	80.005	19.994	103.867	19.923	9.428	0.538
668.000	412.510	80.006	19.994	103.868	19.919	9.776	0.482
670.000	413.494	80.006	19.993	103.881	19.914	10.163	0.486
672.000	414.521	80.006	19.994	103.870	19.910	10.477	0.488
674.000	415.505	80.008	19.995	103.867	19.905	10.818	0.490
676.000	416.524	80.007	19.993	103.869	19.898	11.356	0.514
678.000	417.510	80.008	19.993	103.869	19.893	11.779	0.515
680.000	418.550	80.007	19.995	103.873	19.886	12.301	0.511
682.000	419.530	80.005	19.994	103.866	19.876	13.084	0.504
684.000	420.546	80.006	19.995	103.868	19.870	13.554	0.489
686.000	421.564	80.006	19.995	103.865	19.862	14.143	0.509
688.000	422.562	80.006	19.995	103.866	19.853	14.860	0.525
690.000	423.556	80.007	19.994	103.867	19.845	15.492	0.503
692.000	424.553	80.007	19.995	103.863	19.839	15.932	0.508
694.000	425.570	80.006	19.996	103.866	19.827	16.889	0.490
696.000	426.573	80.006	19.995	103.862	19.819	17.450	0.534
698.000	427.556	80.007	19.994	103.859	19.808	18.310	0.493
700.000	428.543	80.008	19.995	103.858	19.796	19.216	0.490
702.000	429.583	80.009	19.995	103.860	19.788	19.865	0.478
704.000	430.531	80.008	19.994	103.868	19.777	20.675	0.494
706.000	431.569	80.009	19.994	103.869	19.766	21.530	0.499
708.000	432.531	80.008	19.994	103.864	19.753	22.531	0.480
710.000	433.625	80.009	19.994	103.863	19.744	23.269	0.530
712.000	434.598	80.009	19.994	103.864	19.732	24.154	0.496
714.000	435.650	80.007	19.993	103.867	19.722	24.919	0.504
716.000	436.651	80.008	19.994	103.868	19.708	25.978	0.507
718.000	437.687	80.007	19.995	103.865	19.697	26.821	0.506
720.000	438.663	80.009	19.994	103.866	19.683	27.923	0.466
722.000	439.706	80.008	19.994	103.865	19.670	28.949	0.497
724.000	440.733	80.008	19.994	103.866	19.659	29.747	0.500
726.001	441.741	80.009	19.994	103.869	19.645	30.861	0.520
728.000	442.733	80.009	19.994	103.866	19.635	31.625	0.493
730.000	443.737	80.010	19.993	103.863	19.624	32.489	0.475
732.000	444.768	80.008	19.993	103.859	19.614	33.233	0.494
734.001	445.748	80.007	19.993	103.865	19.607	33.781	0.470
736.000	446.764	80.007	19.992	103.866	19.594	34.766	0.491
738.000	447.733	80.007	19.994	103.864	19.584	35.523	0.469
740.001	448.722	80.006	19.993	103.868	19.577	36.111	0.488
742.000	449.734	80.007	19.993	103.867	19.571	36.575	0.484
744.000	450.715	80.004	19.994	103.866	19.567	36.896	0.486
746.000	451.743	80.007	19.993	103.868	19.558	37.593	0.497
748.000	452.716	80.008	19.994	103.867	19.551	38.097	0.512
750.001	453.674	80.007	19.993	103.866	19.547	38.440	0.479
752.000	454.652	80.008	19.995	103.868	19.547	38.367	0.464
754.000	455.647	80.007	19.994	103.864	19.540	38.910	0.472
756.000	456.636	80.007	19.994	103.873	19.541	38.851	0.464
758.000	457.663	80.008	19.995	103.867	19.539	39.015	0.499
760.000	458.603	80.008	19.994	103.863	19.540	38.977	0.483
762.000	459.604	80.007	19.995	103.865	19.537	39.159	0.477
764.000	460.623	80.007	19.994	103.867	19.542	38.816	0.508
766.000	461.594	80.008	19.994	103.871	19.542	38.764	0.498
768.000	462.584	80.006	19.994	103.867	19.545	38.592	0.495
770.000	463.554	80.007	19.996	103.871	19.547	38.387	0.496
772.001	464.558	80.007	19.996	103.874	19.550	38.173	0.485
774.000	465.619	80.007	19.995	103.868	19.553	37.930	0.523
776.000	466.637	80.007	19.995	103.864	19.559	37.481	0.532
778.000	467.572	80.008	19.996	103.868	19.562	37.214	0.477
780.000	468.581	80.008	19.994	103.869	19.564	37.131	0.492
782.000	469.641	80.008	19.994	103.871	19.571	36.532	0.515
784.000	470.672	80.007	19.995	103.872	19.573	36.431	0.495
786.000	471.668	80.008	19.995	103.870	19.578	35.986	0.511
788.000	472.652	80.008	19.995	103.866	19.583	35.607	0.522
790.000	473.686	80.008	19.996	103.869	19.591	35.024	0.498
792.000	474.728	80.008	19.994	103.871	19.599	34.389	0.531
794.000	475.732	80.008	19.994	103.865	19.605	33.928	0.457
796.000	476.730	80.006	19.995	103.867	19.615	33.165	0.496
798.000	477.718	80.007	19.993	103.869	19.623	32.554	0.519
800.000	478.756	80.007	19.993	103.863	19.631	31.977	0.502
802.000	479.736	80.007	19.993	103.867	19.638	31.399	0.542
804.000	480.809	80.010	19.993	103.869	19.651	30.421	0.518
806.000	481.853	80.008	19.993	103.878	19.663	29.490	0.518
808.000	482.888	80.010	19.994	103.874	19.670	28.940	0.537
810.000	483.874	80.009	19.993	103.868	19.684	27.894	0.535
812.000	484.962	80.009	19.993	103.865	19.699	26.711	0.473
814.000	485.990	80.009	19.992	103.866	19.706	26.143	0.570
816.000	486.856	80.009	19.994	103.864	19.716	25.389	0.474
818.000	488.003	80.008	19.993	103.860	19.729	24.363	0.635
820.000	488.961	80.008	19.993	103.862	19.739	23.637	0.665
822.000	489.708	80.006	19.994	103.863	19.750	22.744	0.522
824.000	490.903	80.007	19.994	103.864	19.764	21.685	0.710
826.000	492.176	80.008	19.993	103.864	19.774	20.940	0.598
828.000	493.262	80.007	19.993	103.864	19.787	19.932	0.590
830.000	494.176	80.007	19.994	103.867	19.801	18.873	0.580
832.000	495.271	80.007	19.994	103.864	19.811	18.052	0.513
834.000	496.284	80.007	19.994	103.864	19.820	17.353	0.508
836.000	497.341	80.009	19.994	103.866	19.828	16.744	0.502
838.000	498.363	80.008	19.995	103.865	19.842	15.732	0.508
840.000	499.332	80.008	19.996	103.863	19.848	15.216	0.494
842.000	500.373	80.008	19.993	103.864	19.859	14.421	0.515
844.000	501.405	80.007	19.994	103.865	19.864	13.973	0.468
846.000	502.436	80.007	19.994	103.862	19.870	13.527	0.527
848.000	503.383	80.007	19.995	103.864	19.880	12.792	0.484
850.000	504.404	80.007	19.995	103.860	19.884	12.466	0.497
852.000	505.480	80.006	19.994	103.861	19.894	11.674	0.499
854.000	506.471	80.007	19.993	103.866	19.902	11.041	0.507
856.000	507.472	80.008	19.994	103.867	19.905	10.813	0.490
858.000	508.469	80.008	19.994	103.865	19.910	10.493	0.507
860.000	509.510	80.008	19.995	103.867	19.917	9.938	0.510
862.000	510.514	80.008	19.996	103.867	19.921	9.584	0.517
864.000	511.483	80.009	19.995	103.867	19.922	9.546	0.489
866.000	512.513	80.009	19.994	103.867	19.927	9.165	0.506
868.000	513.559	80.010	19.994	103.867	19.932	8.773	0.544
870.000	514.552	80.009	19.994	103.870	19.935	8.512	0.515
872.000	515.599	80.009	19.994	103.869	19.939	8.266	0.498
874.000	516.624	80.008	19.994	103.867	19.943	7.925	0.520
876.000	517.599	80.006	19.994	103.867	19.946	7.653	0.475
878.000	518.651	80.009	19.993	103.858	19.950	7.396	0.520
880.000	519.639	80.008	19.995	103.863	19.951	7.341	0.523
882.000	520.654	80.008	19.996	103.862	19.958	6.738	0.515
884.000	521.705	80.007	19.994	103.861	19.959	6.689	0.519
886.000	522.700	80.008	19.995	103.855	19.962	6.445	0.496
888.000	523.739	80.008	19.994	103.854	19.967	6.113	0.512
890.000	524.754	80.009	19.995	103.860	19.970	5.873	0.476
892.000	525.790	80.010	19.993	103.858	19.969	5.917	0.512
894.000	526.780	80.010	19.994	103.860	19.975	5.466	0.481
896.000	527.852	80.011	19.993	103.863	19.975	5.454	0.530
898.000	528.893	80.010	19.996	103.863	19.975	5.439	0.515
900.000	529.899	80.011	19.995	103.867	19.973	5.650	0.480
902.000	530.972	80.010	19.993	103.863	19.976	5.403	0.550
904.000	532.009	80.007	19.993	103.865	19.972	5.658	0.529
906.000	533.043	80.008	19.993	103.861	19.977	5.321	0.513
908.000	534.184	80.009	19.994	103.865	19.977	5.302	0.561
910.000	535.246	80.007	19.993	103.865	19.982	4.888	0.565
912.000	536.274	80.007	19.993	103.860	19.980	5.052	0.478
914.000	537.370	80.008	19.994	103.865	19.980	5.054	0.531
916.000	538.416	80.009	19.994	103.864	19.981	4.964	0.527
918.000	539.498	80.007	19.993	103.863	19.984	4.741	0.510
920.000	540.574	80.008	19.994	103.867	19.985	4.669	0.554
922.000	541.681	80.008	19.995	103.866	19.989	4.416	0.560
924.000	542.711	80.008	19.994	103.866	19.988	4.496	0.529
926.000	543.761	80.008	19.993	103.869	19.987	4.543	0.525
928.000	544.852	80.008	19.995	103.870	19.989	4.368	0.563
930.000	545.895	80.007	19.993	103.869	19.993	4.096	0.534
932.000	547.003	80.007	19.993	103.869	19.991	4.254	0.559
934.000	548.096	80.007	19.994	103.866	19.987	4.507	0.539
936.000	549.147	80.007	19.993	103.865	19.990	4.284	0.559
938.000	550.222	80.008	19.993	103.870	19.992	4.134	0.530
940.000	551.278	80.007	19.994	103.868	19.996	3.835	0.546
942.000	552.342	80.008	19.992	103.869	19.997	3.778	0.528
944.000	553.446	80.008	19.994	103.868	19.993	4.043	0.538
946.000	554.505	80.009	19.994	103.866	19.997	3.782	0.514
948.000	555.563	80.009	19.994	103.864	19.996	3.823	0.524
950.000	556.656	80.009	19.994	103.864	19.998	3.719	0.538
952.000	557.704	80.009	19.995	103.865	19.999	3.637	0.513
954.000	558.756	80.010	19.994	103.864	19.999	3.635	0.552
956.000	559.817	80.009	19.994	103.856	20.000	3.557	0.553
958.001	560.865	80.008	19.997	103.863	20.002	3.368	0.521
960.000	561.922	80.008	19.996	103.865	20.002	3.408	0.535
962.002	562.960	80.008	19.995	103.866	20.001	3.477	0.500
964.000	563.992	80.007	19.994	103.865	20.000	3.568	0.533
966.000	565.073	80.009	19.994	103.865	19.997	3.751	0.535
968.000	566.104	80.009	19.995	103.868	20.000	3.570	0.522
970.000	567.186	80.009	19.995	103.864	20.001	3.490	0.527
972.000	568.251	80.009	19.994	103.864	19.998	3.688	0.535
974.000	569.291	80.011	19.995	103.866	20.001	3.469	0.508
976.000	570.340	80.009	19.996	103.866	19.999	3.637	0.559
978.000	571.399	80.009	19.994	103.864	20.001	3.429	0.515
980.000	572.400	80.009	19.993	103.866	20.003	3.317	0.512
982.000	573.510	80.009	19.994	103.864	20.003	3.271	0.536
984.000	574.581	80.007	19.996	103.864	20.002	3.357	0.511
986.000	575.610	80.007	19.994	103.860	20.002	3.370	0.513
988.000	576.652	80.008	19.995	103.866	20.005	3.134	0.507
990.000	577.663	80.007	19.996	103.864	20.003	3.292	0.502
992.000	578.707	80.008	19.993	103.858	20.006	3.098	0.515
994.000	579.730	80.007	19.995	103.863	20.005	3.185	0.508
996.000	580.777	80.006	19.994	103.858	20.004	3.227	0.510
998.000	581.752	80.007	19.993	103.856	20.003	3.312	0.477
1000.000	582.745	80.009	19.993	103.866	20.006	3.071	0.489
1002.000	583.759	80.006	19.993	103.855	20.004	3.249	0.495
1004.000	584.725	80.006	19.993	103.867	20.004	3.228	0.507
1006.000	585.732	80.008	19.993	103.861	20.008	2.903	0.528
1008.000	586.698	80.009	19.993	103.851	20.004	3.231	0.494
1010.000	587.661	80.009	19.993	103.842	20.003	3.330	0.460
1012.000	588.656	80.007	19.994	103.845	20.005	3.166	0.488
1014.000	589.606	80.008	19.994	103.836	20.008	2.955	0.484
1016.000	590.568	80.008	19.993	103.855	20.003	3.273	0.474
1018.000	591.499	80.007	19.996	103.854	20.007	2.995	0.460
1020.000	592.492	80.007	19.995	103.854	20.005	3.172	0.477
1022.000	593.448	80.007	19.995	103.864	20.005	3.153	0.472
1024.001	594.430	80.008	19.994	103.861	20.008	2.919	0.482
1026.001	595.401	80.009	19.993	103.854	20.006	3.107	0.503
1028.000	596.332	80.008	19.994	103.848	20.009	2.803	0.466
1030.000	597.297	80.008	19.994	103.850	20.006	3.085	0.443
1032.000	598.259	80.010	19.992	103.845	20.002	3.363	0.463
1034.000	599.192	80.010	19.993	103.858	20.011	2.726	0.494
1036.000	600.205	80.010	19.993	103.856	20.006	3.084	0.515
1038.001	601.182	80.010	19.994	103.854	20.010	2.774	0.509
1040.002	602.156	80.009	19.994	103.854	20.009	2.818	0.507
1042.000	603.149	80.009	19.994	103.856	20.011	2.719	0.484
1044.001	604.063	80.008	19.995	103.852	20.008	2.919	0.459
1046.000	605.060	80.007	19.996	103.863	20.009	2.835	0.490
1048.000	606.114	80.008	19.994	103.859	20.011	2.721	0.500
1050.000	607.067	80.008	19.994	103.853	20.007	2.993	0.482
1052.000	608.081	80.009	19.995	103.857	20.008	2.936	0.530
1054.001	609.115	80.010	19.992	103.860	20.011	2.684	0.546
1056.000	610.092	80.011	19.993	103.859	20.008	2.923	0.494
1058.001	611.098	80.011	19.995	103.859	20.012	2.618	0.536
1060.000	612.091	80.011	19.993	103.856	20.009	2.845	0.498
1062.000	613.096	80.009	19.993	103.860	20.008	2.942	0.476
1064.000	614.138	80.008	19.993	103.862	20.009	2.837	0.535
1066.001	615.150	80.008	19.993	103.859	20.008	2.888	0.525
1068.000	616.176	80.009	19.995	103.850	20.008	2.886	0.498
1070.001	617.209	80.006	19.996	103.859	20.012	2.625	0.531
1072.000	618.227	80.006	19.994	103.846	20.012	2.587	0.495
1074.000	619.217	80.006	19.995	103.863	20.012	2.604	0.487
1076.001	620.252	80.007	19.995	103.862	20.013	2.524	0.482
1078.000	621.308	80.008	19.998	103.856	20.015	2.374	0.536
1080.001	622.294	80.007	19.996	103.864	20.013	2.513	0.502
1082.001	623.354	80.008	19.995	103.859	20.011	2.650	0.530
1084.000	624.401	80.009	19.995	103.860	20.013	2.539	0.521
1086.000	625.404	80.009	19.995	103.861	20.014	2.488	0.515
1088.000	626.473	80.009	19.994	103.862	20.013	2.515	0.523
1090.001	627.479	80.007	19.996	103.852	20.015	2.362	0.506
1092.000	628.548	80.009	19.994	103.853	20.011	2.658	0.538
1094.000	629.574	80.008	19.994	103.858	20.011	2.713	0.519
1096.000	630.630	80.008	19.994	103.867	20.013	2.532	0.497
1098.000	631.648	80.007	19.994	103.857	20.010	2.776	0.524
1100.001	632.685	80.006	19.994	103.849	20.015	2.402	0.550
1102.000	633.691	80.007	19.995	103.860	20.013	2.501	0.503
1104.000	634.783	80.007	19.994	103.862	20.016	2.317	0.537
1106.000	635.775	80.007	19.993	103.863	20.016	2.309	0.497
1108.000	636.821	80.007	19.994	103.856	20.013	2.500	0.526
1110.000	637.822	80.010	19.994	103.850	20.013	2.511	0.501
1112.000	638.896	80.009	19.994	103.863	20.015	2.418	0.518
1114.000	639.905	80.008	19.994	103.856	20.016	2.339	0.533
1116.001	640.930	80.009	19.992	103.855	20.013	2.553	0.527
1118.001	641.955	80.009	19.994	103.848	20.016	2.334	0.477
1120.000	642.944	80.008	19.995	103.858	20.014	2.475	0.519
1122.000	643.958	80.008	19.994	103.863	20.016	2.275	0.485
1124.000	644.950	80.009	19.995	103.861	20.018	2.130	0.471
1126.000	645.992	80.007	19.994	103.863	20.016	2.286	0.532
1128.000	647.005	80.008	19.994	103.850	20.017	2.206	0.560
1130.000	648.028	80.008	19.993	103.857	20.015	2.357	0.539
1132.000	649.049	80.008	19.993	103.850	20.018	2.143	0.518
1134.000	650.072	80.007	19.995	103.865	20.020	1.974	0.508
1136.001	651.108	80.008	19.994	103.860	20.020	1.978	0.525
1138.001	652.173	80.009	19.997	103.846	20.019	2.107	0.540
1140.000	653.179	80.010	19.995	103.847	20.019	2.092	0.527
1142.000	654.168	80.008	19.995	103.849	20.020	1.957	0.520
1144.000	655.176	80.010	19.994	103.856	20.016	2.292	0.490
1146.000	656.216	80.009	19.996	103.847	20.020	2.002	0.507
1148.000	657.254	80.009	19.993	103.845	20.018	2.128	0.517
1150.000	658.296	80.008	19.995	103.839	20.020	2.016	0.518
1152.000	659.305	80.008	19.994	103.840	20.022	1.850	0.502
1154.000	660.375	80.007	19.994	103.854	20.020	2.016	0.518
1156.000	661.442	80.008	19.995	103.853	20.018	2.132	0.530
1158.000	662.504	80.007	19.994	103.860	20.019	2.060	0.526
1160.000	663.585	80.008	19.995	103.854	20.021	1.921	0.560
1162.001	664.614	80.007	19.994	103.838	20.021	1.930	0.554
1164.000	665.685	80.009	19.995	103.848	20.019	2.047	0.520
1166.000	666.747	80.007	19.994	103.849	20.022	1.852	0.514
1168.000	667.747	80.007	19.995	103.837	20.021	1.942	0.490
1170.000	668.841	80.007	19.995	103.841	20.023	1.732	0.523
1172.000	669.838	80.007	19.995	103.843	20.026	1.511	0.521
1174.001	670.875	80.007	19.996	103.826	20.025	1.633	0.504
1176.001	671.871	80.008	19.994	103.830	20.024	1.679	0.487
1178.000	672.901	80.007	19.995	103.832	20.026	1.547	0.523
1180.000	673.912	80.006	19.994	103.845	20.021	1.890	0.528
1182.000	674.817	80.007	19.995	103.839	20.020	1.982	0.384
1184.000	675.959	80.007	19.994	103.839	20.023	1.795	0.511
1186.000	676.965	80.008	19.994	103.836	20.019	2.077	0.524
1188.000	677.946	80.008	19.993	103.838	20.021	1.955	0.496
1190.001	678.912	80.008	19.992	103.830	20.021	1.886	0.493
1192.000	679.867	80.008	19.993	103.834	20.026	1.528	0.456
1194.000	680.852	80.009	19.993	103.844	20.024	1.698	0.470
1196.000	681.821	80.008	19.994	103.841	20.023	1.740	0.497
1198.000	682.817	80.009	19.996	103.832	20.024	1.688	0.500
1200.000	683.810	80.010	19.993	103.850	20.022	1.806	0.491
1202.001	684.791	80.009	19.995	103.857	20.019	2.039	0.488
1204.001	685.785	80.009	19.992	103.851	20.022	1.829	0.519
1206.000	686.742	80.008	19.994	103.846	20.022	1.821	0.487
1208.000	687.723	80.008	19.994	103.840	20.024	1.665	0.476
1210.000	688.750	80.009	19.993	103.854	20.021	1.917	0.514
1212.000	689.746	80.008	19.994	103.839	20.020	2.027	0.471
1214.000	690.812	80.010	19.993	103.850	20.021	1.901	0.557
1216.000	691.846	80.009	19.992	103.859	20.022	1.842	0.567
1218.000	692.910	80.010	19.993	103.861	20.021	1.911	0.522
1220.000	694.017	80.010	19.994	103.839	20.021	1.923	0.546
1222.001	695.051	80.010	19.993	103.847	20.021	1.926	0.532
1224.000	696.147	80.011	19.993	103.852	20.026	1.547	0.525
1226.000	697.207	80.011	19.994	103.857	20.022	1.835	0.519
1228.000	698.295	80.010	19.994	103.847	20.025	1.601	0.553
1230.000	699.352	80.009	19.994	103.830	20.023	1.791	0.516
1232.000	700.452	80.008	19.995	103.834	20.022	1.805	0.539
1234.000	701.497	80.009	19.995	103.841	20.021	1.938	0.519
1236.000	702.567	80.009	19.995	103.834	20.022	1.804	0.534
1238.000	703.641	80.007	19.995	103.838	20.020	1.987	0.524
1240.000	704.678	80.008	19.995	103.849	20.026	1.528	0.545
1242.000	705.779	80.008	19.994	103.840	20.025	1.621	0.501
1244.000	706.732	80.007	19.995	103.827	20.022	1.873	0.485
1246.000	707.827	80.008	19.994	103.848	20.024	1.665	0.528
1248.000	708.905	80.008	19.994	103.848	20.022	1.871	0.536
1250.001	709.953	80.006	19.993	103.843	20.022	1.875	0.506
1252.000	711.017	80.009	19.994	103.859	20.022	1.804	0.533
1254.001	712.087	80.009	19.994	103.842	20.022	1.862	0.543
1256.000	713.208	80.006	19.995	103.843	20.024	1.679	0.552
1258.000	714.257	80.007	19.995	103.856	20.025	1.595	0.526
1260.000	715.379	80.008	19.995	103.857	20.028	1.387	0.572
1262.000	716.442	80.007	19.996	103.851	20.023	1.753	0.527
1264.000	717.512	80.006	19.996	103.850	20.025	1.593	0.528
1266.001	718.529	80.006	19.996	103.836	20.024	1.700	0.528
1268.000	719.587	80.006	19.996	103.851	20.025	1.631	0.511
1270.000	720.610	80.007	19.995	103.837	20.027	1.442	0.477
1272.000	721.662	80.007	19.995	103.830	20.026	1.496	0.508
1274.000	722.670	80.009	19.994	103.830	20.025	1.574	0.494
1276.000	723.650	80.010	19.994	103.825	20.027	1.433	0.464
1278.000	724.624	80.010	19.994	103.828	20.025	1.608	0.485
1280.000	725.653	80.009	19.994	103.841	20.023	1.793	0.479
1282.000	726.633	80.010	19.994	103.839	20.025	1.639	0.483
1284.001	727.631	80.009	19.992	103.838	20.022	1.839	0.509
1286.000	728.653	80.010	19.994	103.827	20.024	1.707	0.507
1288.000	729.655	80.010	19.994	103.830	20.024	1.652	0.506
1290.000	730.687	80.008	19.994	103.826	20.027	1.450	0.498
1292.000	731.684	80.008	19.994	103.834	20.022	1.820	0.532
1294.000	732.664	80.009	19.994	103.826	20.025	1.633	0.504
1296.000	733.673	80.008	19.994	103.831	20.026	1.570	0.512
1298.000	734.666	80.009	19.993	103.843	20.025	1.597	0.499
1300.000	735.618	80.009	19.993	103.831	20.027	1.454	0.497
1302.000	736.651	80.010	19.993	103.844	20.026	1.505	0.515
1304.001	737.647	80.011	19.994	103.832	20.026	1.547	0.486
1306.000	738.693	80.011	19.993	103.842	20.030	1.210	0.516
1308.000	739.674	80.010	19.994	103.850	20.029	1.322	0.509
1310.000	740.677	80.009	19.992	103.836	20.028	1.400	0.480
1312.000	741.705	80.009	19.994	103.847	20.028	1.345	0.507
1314.000	742.716	80.008	19.994	103.843	20.026	1.517	0.458
1315.500	743.473	80.008	19.993	103.835	20.028	1.408	0.494