File: 01_Data/Pipe_Heat_Cable/MCC/Pipe_Heat_Cable_MCC_30K_min_220126_O1.txt
Sample ID:	C:\MCC\MCC Cal\Test\Pipe_Heat_Cable_MCC_30K_min_220126_R1.txt
Sample Weight (mg):	4.98
Heating Rate (C/s):	0.5
Combustor Temp (C):	900
N2 Flow Rate (cc/min):	80
O2 Flow Rate (cc/min):	20
Calibration File:	C:\MCC\MCC Cal\Coeff1 JN10440_30_210304.txt.txt
T Correction Coefficients:	0	1.024463	0
Time Shift (s):	14
*
Time (s)	Temperature (C)	N2 flow rate (cc/min)	O2 flow rate (cc/min)	Flow Rate (cc/min)	Oxygen (%)	HRR (W/g)	Heating rate (C/s)
0.000	113.143	80.003	19.995	103.675	19.949	0.201	0.016
1.500	113.106	80.004	19.996	103.674	19.949	0.203	-0.018
3.000	113.110	80.002	19.995	103.674	19.947	0.334	-0.007
4.500	113.135	80.004	19.996	103.676	19.953	-0.043	0.012
6.000	113.112	80.004	19.995	103.684	19.948	0.274	-0.022
7.500	113.126	80.003	19.995	103.684	19.948	0.261	0.015
9.000	113.109	80.004	19.994	103.688	19.947	0.304	-0.016
10.500	113.147	80.003	19.995	103.691	19.947	0.340	0.032
12.001	113.132	80.003	19.994	103.694	19.944	0.516	-0.015
13.500	113.124	80.003	19.994	103.699	19.945	0.436	-0.023
15.000	113.091	80.003	19.995	103.702	19.943	0.592	-0.018
16.500	113.134	80.002	19.997	103.738	19.938	0.886	0.013
18.000	113.162	80.003	19.995	103.772	19.938	0.890	-0.006
19.500	113.210	80.002	19.995	103.784	19.928	1.543	0.018
21.000	113.279	80.002	19.995	103.804	19.928	1.550	0.042
22.501	113.366	80.004	19.994	103.831	19.924	1.794	0.079
24.000	113.441	80.002	19.993	103.853	19.922	1.917	0.030
25.500	113.576	80.004	19.993	103.853	19.922	1.946	0.075
27.000	113.681	80.002	19.993	103.855	19.920	2.092	0.065
28.500	113.789	80.005	19.994	103.868	19.918	2.215	0.071
30.000	113.974	80.004	19.993	103.869	19.916	2.314	0.107
31.500	114.118	80.005	19.993	103.869	19.919	2.140	0.114
33.000	114.312	80.004	19.994	103.870	19.913	2.508	0.120
34.500	114.493	80.004	19.993	103.877	19.915	2.409	0.125
36.000	114.753	80.005	19.994	103.893	19.912	2.569	0.167
37.501	114.950	80.003	19.993	103.907	19.909	2.775	0.161
39.000	115.218	80.006	19.998	103.908	19.910	2.758	0.180
40.500	115.490	80.004	19.996	103.909	19.907	2.941	0.197
42.000	115.766	80.004	19.995	103.909	19.904	3.139	0.197
43.500	116.067	80.005	19.995	103.906	19.902	3.262	0.203
45.001	116.358	80.004	19.995	103.907	19.900	3.405	0.191
46.500	116.670	80.003	19.993	103.910	19.904	3.132	0.188
48.000	117.046	80.004	19.993	103.912	19.904	3.114	0.224
49.500	117.377	80.004	19.993	103.914	19.903	3.191	0.219
51.000	117.753	80.005	19.994	103.917	19.903	3.204	0.252
52.500	118.090	80.006	19.993	103.911	19.904	3.134	0.231
54.000	118.534	80.007	19.993	103.931	19.904	3.129	0.278
55.500	118.918	80.006	19.993	103.936	19.904	3.122	0.261
57.001	119.301	80.008	19.993	103.935	19.902	3.270	0.263
58.500	119.758	80.008	19.994	103.936	19.902	3.266	0.283
60.000	120.179	80.007	19.993	103.942	19.896	3.612	0.288
61.500	120.628	80.007	19.993	103.945	19.898	3.518	0.287
63.000	121.115	80.005	19.993	103.944	19.897	3.590	0.318
64.500	121.559	80.006	19.994	103.944	19.895	3.682	0.332
66.000	122.081	80.005	19.993	103.946	19.892	3.892	0.339
67.500	122.556	80.004	19.993	103.948	19.892	3.880	0.311
69.000	123.078	80.005	19.994	103.954	19.895	3.711	0.363
70.500	123.629	80.006	19.994	103.953	19.892	3.891	0.350
72.000	124.127	80.003	19.994	103.965	19.888	4.136	0.372
73.500	124.673	80.004	19.993	103.980	19.893	3.853	0.351
75.000	125.209	80.004	19.995	103.982	19.891	3.951	0.359
76.500	125.793	80.005	19.994	103.965	19.894	3.750	0.394
78.000	126.345	80.003	19.994	103.969	19.893	3.830	0.337
79.500	126.964	80.004	19.995	103.977	19.890	4.044	0.389
81.001	127.533	80.004	19.994	103.978	19.890	4.052	0.370
82.500	128.165	80.004	19.994	103.979	19.887	4.248	0.422
84.000	128.800	80.004	19.994	103.976	19.888	4.140	0.417
85.500	129.391	80.006	19.994	103.977	19.886	4.316	0.410
87.000	130.009	80.004	19.993	103.975	19.885	4.372	0.425
88.500	130.618	80.004	19.996	103.968	19.886	4.277	0.425
90.000	131.315	80.005	19.993	103.974	19.887	4.197	0.444
91.500	131.966	80.004	19.994	103.975	19.891	3.987	0.436
93.002	132.588	80.005	19.995	103.962	19.886	4.318	0.420
94.500	133.285	80.004	19.994	103.965	19.887	4.216	0.460
96.001	133.975	80.005	19.992	103.968	19.884	4.413	0.451
97.500	134.623	80.002	19.994	103.977	19.883	4.475	0.437
99.000	135.333	80.003	19.996	103.982	19.889	4.074	0.457
100.500	136.039	80.003	19.995	103.990	19.886	4.305	0.467
102.000	136.737	80.003	19.996	103.985	19.889	4.079	0.437
103.500	137.435	80.004	19.996	103.977	19.889	4.100	0.488
105.001	138.194	80.004	19.995	103.973	19.889	4.070	0.517
106.501	138.891	80.003	19.995	103.978	19.893	3.815	0.454
108.001	139.643	80.003	19.994	103.980	19.885	4.349	0.498
109.500	140.351	80.003	19.994	103.976	19.887	4.258	0.480
111.000	141.126	80.004	19.994	103.964	19.888	4.139	0.516
112.500	141.815	80.005	19.994	103.966	19.887	4.226	0.466
114.000	142.594	80.005	19.994	103.961	19.888	4.153	0.517
115.500	143.337	80.005	19.995	103.954	19.886	4.276	0.502
117.000	144.118	80.006	19.993	103.956	19.890	4.022	0.517
118.500	144.867	80.004	19.994	103.956	19.888	4.176	0.481
120.000	145.648	80.006	19.994	103.950	19.889	4.067	0.525
121.500	146.375	80.006	19.995	103.948	19.889	4.112	0.492
123.001	147.144	80.006	19.993	103.949	19.888	4.135	0.514
124.500	147.917	80.005	19.994	103.948	19.891	3.964	0.544
126.000	148.644	80.008	19.994	103.952	19.887	4.226	0.461
127.500	149.453	80.004	19.993	103.956	19.887	4.224	0.531
129.000	150.200	80.005	19.992	103.946	19.889	4.114	0.516
130.500	150.974	80.005	19.994	103.945	19.889	4.067	0.507
132.000	151.726	80.005	19.992	103.945	19.888	4.162	0.521
133.500	152.547	80.006	19.993	103.946	19.888	4.163	0.538
135.000	153.335	80.006	19.994	103.945	19.888	4.133	0.515
136.500	154.086	80.005	19.993	103.943	19.885	4.363	0.487
138.000	154.804	80.006	19.993	103.943	19.890	4.008	0.493
139.500	155.604	80.007	19.993	103.943	19.888	4.161	0.517
141.000	156.353	80.005	19.993	103.935	19.890	4.049	0.508
142.500	157.174	80.007	19.992	103.938	19.888	4.192	0.543
144.000	157.911	80.007	19.992	103.940	19.893	3.811	0.511
145.500	158.728	80.006	19.992	103.939	19.889	4.105	0.537
147.001	159.462	80.006	19.993	103.942	19.894	3.780	0.496
148.500	160.247	80.005	19.994	103.932	19.888	4.162	0.535
150.000	161.033	80.003	19.992	103.931	19.893	3.862	0.538
151.500	161.814	80.005	19.993	103.932	19.890	4.023	0.512
153.000	162.553	80.005	19.993	103.938	19.893	3.863	0.479
154.500	163.339	80.004	19.993	103.940	19.891	3.959	0.544
156.000	164.074	80.003	19.994	103.942	19.890	4.023	0.494
157.500	164.857	80.006	19.994	103.923	19.892	3.883	0.532
159.000	165.635	80.006	19.995	103.913	19.890	4.045	0.493
160.500	166.391	80.005	19.996	103.919	19.896	3.623	0.513
162.000	167.177	80.004	19.994	103.913	19.889	4.090	0.537
163.500	167.917	80.004	19.995	103.910	19.890	4.055	0.534
165.000	168.652	80.004	19.994	103.910	19.890	4.037	0.499
166.500	169.412	80.003	19.994	103.907	19.891	3.963	0.506
168.001	170.185	80.004	19.995	103.908	19.889	4.073	0.463
169.500	170.993	80.004	19.994	103.914	19.892	3.876	0.531
171.000	171.704	80.002	19.993	103.920	19.892	3.916	0.465
172.500	172.452	80.003	19.996	103.921	19.886	4.265	0.528
174.000	173.192	80.004	19.997	103.912	19.894	3.797	0.481
175.500	173.940	80.004	19.995	103.901	19.888	4.159	0.512
177.000	174.695	80.004	19.996	103.904	19.894	3.780	0.487
178.500	175.435	80.004	19.994	103.909	19.892	3.913	0.498
180.000	176.176	80.003	19.994	103.913	19.889	4.118	0.480
181.500	176.880	80.003	19.993	103.911	19.888	4.160	0.474
183.000	177.623	80.004	19.994	103.897	19.888	4.185	0.488
184.500	178.343	80.004	19.993	103.895	19.888	4.193	0.511
186.000	179.108	80.003	19.994	103.907	19.886	4.278	0.486
187.500	179.843	80.003	19.993	103.913	19.886	4.260	0.485
189.000	180.620	80.003	19.994	103.913	19.890	4.059	0.520
190.500	181.335	80.005	19.996	103.909	19.888	4.191	0.455
192.000	182.054	80.006	19.994	103.908	19.888	4.189	0.498
193.500	182.798	80.004	19.993	103.907	19.887	4.227	0.522
195.000	183.489	80.006	19.994	103.913	19.885	4.340	0.445
196.500	184.213	80.007	19.995	103.917	19.883	4.459	0.495
198.000	184.966	80.007	19.994	103.907	19.884	4.445	0.500
199.500	185.704	80.005	19.993	103.907	19.885	4.351	0.501
201.000	186.432	80.005	19.994	103.895	19.884	4.395	0.486
202.500	187.171	80.006	19.995	103.827	19.889	4.110	0.478
204.000	187.880	80.003	19.992	103.823	19.885	4.361	0.457
205.500	188.531	80.005	19.995	103.880	19.888	4.179	0.448
207.000	189.272	80.004	19.994	103.900	19.888	4.139	0.479
208.500	189.958	80.004	19.993	103.899	19.886	4.317	0.463
210.000	190.633	80.005	19.995	103.903	19.887	4.228	0.481
211.500	191.364	80.005	19.993	103.902	19.885	4.345	0.491
213.000	192.040	80.007	19.995	103.903	19.880	4.698	0.448
214.500	192.751	80.005	19.994	103.904	19.877	4.860	0.467
216.000	193.433	80.007	19.996	103.897	19.887	4.246	0.449
217.500	194.154	80.005	19.994	103.895	19.875	5.025	0.466
219.000	194.856	80.006	19.996	103.898	19.874	5.050	0.466
220.500	195.552	80.006	19.995	103.905	19.876	4.919	0.463
222.000	196.259	80.007	19.994	103.907	19.874	5.083	0.484
223.500	196.930	80.007	19.993	103.905	19.874	5.049	0.451
225.001	197.655	80.006	19.994	103.904	19.874	5.049	0.468
226.501	198.358	80.006	19.993	103.903	19.871	5.273	0.484
228.000	199.080	80.006	19.994	103.899	19.869	5.413	0.445
229.500	199.789	80.005	19.993	103.895	19.872	5.200	0.478
231.000	200.503	80.006	19.993	103.883	19.868	5.471	0.514
232.500	201.167	80.004	19.992	103.883	19.873	5.138	0.422
234.000	201.876	80.004	19.994	103.903	19.867	5.501	0.466
235.500	202.609	80.003	19.994	103.907	19.866	5.592	0.473
237.000	203.346	80.004	19.993	103.906	19.866	5.569	0.487
238.500	204.050	80.004	19.993	103.891	19.868	5.486	0.482
240.000	204.745	80.004	19.993	103.898	19.862	5.868	0.469
241.500	205.467	80.005	19.994	103.906	19.860	6.008	0.472
243.000	206.185	80.004	19.993	103.908	19.862	5.860	0.479
244.500	206.967	80.004	19.993	103.908	19.853	6.424	0.528
246.000	207.683	80.004	19.994	103.905	19.856	6.260	0.460
247.500	208.398	80.004	19.994	103.893	19.853	6.422	0.472
249.000	209.125	80.005	19.993	103.889	19.856	6.226	0.489
250.500	209.908	80.006	19.994	103.905	19.852	6.501	0.513
252.000	210.592	80.005	19.992	103.907	19.852	6.530	0.470
253.500	211.343	80.007	19.994	103.894	19.845	6.937	0.494
255.000	212.060	80.006	19.993	103.884	19.844	7.002	0.477
256.500	212.788	80.005	19.993	103.892	19.846	6.907	0.475
258.000	213.501	80.004	19.993	103.902	19.844	7.010	0.470
259.500	214.244	80.005	19.992	103.898	19.841	7.242	0.489
261.001	215.005	80.005	19.993	103.894	19.837	7.465	0.481
262.501	215.718	80.003	19.992	103.889	19.834	7.645	0.461
264.000	216.466	80.005	19.994	103.877	19.838	7.410	0.508
265.500	217.204	80.002	19.995	103.888	19.833	7.717	0.485
267.000	217.951	80.003	19.995	103.881	19.830	7.939	0.498
268.500	218.672	80.003	19.994	103.880	19.830	7.962	0.474
270.000	219.379	80.004	19.994	103.875	19.827	8.149	0.485
271.500	220.138	80.003	19.993	103.891	19.823	8.385	0.495
273.000	220.856	80.003	19.994	103.898	19.820	8.590	0.497
274.500	221.615	80.003	19.994	103.896	19.819	8.672	0.512
276.000	222.356	80.004	19.993	103.898	19.817	8.766	0.516
277.500	223.064	80.005	19.993	103.903	19.814	8.975	0.485
279.000	223.813	80.004	19.996	103.899	19.813	9.049	0.481
280.500	224.586	80.005	19.995	103.894	19.803	9.664	0.503
282.000	225.343	80.004	19.994	103.884	19.802	9.756	0.499
283.500	226.080	80.007	19.994	103.890	19.802	9.783	0.491
285.000	226.814	80.006	19.994	103.898	19.801	9.847	0.478
286.500	227.586	80.006	19.993	103.894	19.800	9.911	0.511
288.000	228.305	80.005	19.994	103.882	19.792	10.425	0.488
289.500	229.126	80.005	19.994	103.884	19.789	10.583	0.546
291.000	229.863	80.004	19.993	103.882	19.786	10.812	0.478
292.500	230.592	80.004	19.994	103.889	19.779	11.258	0.481
294.001	231.341	80.002	19.994	103.898	19.776	11.459	0.478
295.500	232.092	80.004	19.993	103.884	19.776	11.467	0.507
297.000	232.854	80.005	19.994	103.873	19.770	11.834	0.526
298.500	233.579	80.003	19.994	103.876	19.763	12.304	0.490
300.000	234.325	80.004	19.995	103.883	19.754	12.861	0.515
301.500	235.068	80.005	19.994	103.884	19.754	12.898	0.513
303.000	235.789	80.005	19.995	103.876	19.749	13.224	0.478
304.500	236.541	80.005	19.994	103.874	19.739	13.834	0.508
306.000	237.278	80.005	19.993	103.870	19.737	14.016	0.468
307.500	238.001	80.006	19.993	103.880	19.730	14.422	0.475
309.000	238.747	80.006	19.993	103.880	19.726	14.711	0.493
310.500	239.492	80.006	19.993	103.870	19.719	15.154	0.501
312.000	240.236	80.007	19.993	103.877	19.715	15.434	0.496
313.500	240.972	80.005	19.992	103.884	19.710	15.727	0.485
315.001	241.710	80.004	19.991	103.881	19.702	16.270	0.493
316.500	242.447	80.004	19.993	103.887	19.696	16.673	0.502
318.000	243.192	80.004	19.993	103.876	19.687	17.256	0.482
319.500	243.914	80.005	19.993	103.877	19.682	17.569	0.491
321.000	244.658	80.005	19.993	103.876	19.676	17.963	0.510
322.500	245.427	80.003	19.993	103.871	19.669	18.399	0.521
324.000	246.166	80.005	19.993	103.872	19.664	18.710	0.515
325.500	246.900	80.005	19.994	103.879	19.655	19.314	0.511
327.000	247.666	80.005	19.994	103.871	19.650	19.621	0.507
328.500	248.355	80.004	19.994	103.876	19.645	19.967	0.455
330.001	249.102	80.004	19.993	103.881	19.631	20.883	0.482
331.500	249.872	80.004	19.992	103.870	19.630	20.972	0.518
333.000	250.677	80.005	19.994	103.868	19.619	21.683	0.536
334.500	251.415	80.004	19.993	103.869	19.613	22.057	0.480
336.001	252.145	80.005	19.993	103.866	19.599	22.945	0.481
337.500	252.915	80.006	19.993	103.865	19.591	23.488	0.503
339.000	253.671	80.005	19.998	103.868	19.584	23.945	0.518
340.500	254.428	80.005	19.996	103.872	19.575	24.535	0.513
342.000	255.174	80.003	19.993	103.870	19.568	24.952	0.499
343.500	255.933	80.004	19.993	103.866	19.558	25.615	0.500
345.000	256.637	80.005	19.994	103.868	19.549	26.216	0.482
346.500	257.412	80.005	19.993	103.873	19.536	27.084	0.507
348.000	258.136	80.005	19.993	103.875	19.524	27.835	0.510
349.500	258.902	80.005	19.993	103.874	19.511	28.677	0.534
351.000	259.639	80.005	19.994	103.873	19.499	29.486	0.495
352.500	260.380	80.003	19.994	103.869	19.489	30.104	0.498
354.000	261.125	80.005	19.993	103.868	19.475	31.010	0.490
355.500	261.887	80.003	19.992	103.873	19.462	31.907	0.502
357.000	262.644	80.004	19.993	103.874	19.448	32.824	0.519
358.500	263.383	80.004	19.993	103.872	19.430	33.987	0.504
360.000	264.098	80.006	19.995	103.874	19.417	34.794	0.482
361.500	264.855	80.004	19.994	103.871	19.400	35.895	0.505
363.000	265.612	80.005	19.993	103.873	19.385	36.886	0.500
364.500	266.375	80.006	19.994	103.874	19.367	38.089	0.491
366.000	267.141	80.006	19.993	103.876	19.353	38.965	0.518
367.500	267.886	80.007	19.993	103.874	19.333	40.257	0.498
369.000	268.647	80.006	19.994	103.880	19.316	41.398	0.499
370.500	269.379	80.004	19.994	103.884	19.297	42.646	0.485
372.000	270.118	80.005	19.993	103.878	19.281	43.684	0.491
373.500	270.856	80.022	19.998	103.892	19.263	44.839	0.492
375.000	271.642	80.024	19.999	103.904	19.243	46.151	0.528
376.500	272.407	80.008	19.996	103.905	19.219	47.719	0.502
378.000	273.121	80.004	19.996	103.902	19.193	49.420	0.472
379.500	273.900	80.005	19.994	103.887	19.167	51.099	0.531
381.000	274.639	80.005	19.993	103.895	19.143	52.760	0.485
382.500	275.387	80.005	19.993	103.909	19.110	54.906	0.478
384.000	276.096	80.004	19.995	103.903	19.087	56.489	0.477
385.500	276.858	80.006	19.994	103.890	19.061	58.191	0.500
387.000	277.625	80.006	19.994	103.882	19.030	60.219	0.514
388.500	278.369	80.006	19.994	103.908	18.994	62.474	0.486
390.000	279.108	80.007	19.994	103.952	18.949	65.364	0.486
391.500	279.894	80.008	19.994	104.019	18.884	69.526	0.512
393.000	280.596	80.006	19.994	104.107	18.804	74.692	0.462
394.500	281.382	80.005	19.994	104.192	18.701	81.370	0.507
396.000	282.102	80.005	19.995	104.236	18.577	89.427	0.490
397.500	282.852	80.004	19.994	104.229	18.440	98.283	0.486
399.000	283.574	80.004	19.995	104.167	18.306	106.979	0.482
400.500	284.288	80.005	19.997	104.087	18.171	115.754	0.486
402.000	285.014	80.005	19.994	103.997	18.039	124.358	0.495
403.500	285.784	80.006	19.995	103.912	17.924	131.815	0.499
405.000	286.509	80.006	19.995	103.850	17.821	138.527	0.473
406.500	287.240	80.004	19.993	103.807	17.734	144.136	0.494
408.000	287.978	80.004	19.994	103.776	17.662	148.834	0.499
409.500	288.685	80.005	19.994	103.755	17.600	152.838	0.475
411.000	289.421	80.006	19.994	103.759	17.552	155.924	0.506
412.500	290.096	80.004	19.994	103.765	17.515	158.349	0.447
414.000	290.889	80.005	19.994	103.775	17.485	160.305	0.526
415.500	291.614	80.005	19.993	103.778	17.467	161.438	0.508
417.000	292.335	80.006	19.993	103.758	17.456	162.086	0.470
418.500	293.064	80.006	19.993	103.744	17.459	161.926	0.471
420.000	293.808	80.005	19.994	103.729	17.467	161.422	0.486
421.500	294.538	80.004	19.993	103.720	17.484	160.338	0.495
423.000	295.289	80.004	19.993	103.715	17.521	158.015	0.477
424.500	295.989	80.004	19.993	103.708	17.555	155.844	0.465
426.000	296.735	80.004	19.994	103.690	17.601	152.955	0.493
427.500	297.479	80.003	19.993	103.675	17.656	149.559	0.489
429.001	298.260	80.005	19.992	103.671	17.711	146.010	0.508
430.500	299.008	80.003	19.993	103.679	17.764	142.502	0.497
432.000	299.739	80.003	19.994	103.707	17.813	139.097	0.500
433.501	300.492	80.004	19.993	103.745	17.864	135.523	0.512
435.000	301.254	80.005	19.992	103.761	17.891	133.577	0.505
436.500	302.024	80.004	19.994	103.800	17.905	132.597	0.506
438.000	302.792	80.003	19.992	103.917	17.911	132.218	0.500
439.500	303.526	80.004	19.993	104.013	17.913	132.183	0.498
441.000	304.299	80.005	19.993	103.994	17.939	130.569	0.527
442.500	305.022	80.005	19.992	103.859	17.998	126.756	0.487
444.000	305.784	80.005	19.993	103.664	18.079	121.579	0.525
445.500	306.576	80.005	19.992	103.496	18.191	114.447	0.508
447.000	307.308	80.007	19.993	103.413	18.322	105.962	0.482
448.500	308.050	80.006	19.992	103.417	18.464	96.812	0.506
450.000	308.851	80.007	19.992	103.467	18.622	86.542	0.528
451.500	309.594	80.007	19.993	103.509	18.788	75.704	0.495
453.000	310.384	80.006	19.993	103.546	18.939	65.859	0.525
454.500	311.118	80.006	19.994	103.608	19.077	56.881	0.484
456.000	311.930	80.005	19.994	103.687	19.196	49.133	0.554
457.500	312.701	80.007	19.994	103.767	19.299	42.446	0.520
459.000	313.491	80.006	19.997	103.818	19.386	36.788	0.535
460.500	314.229	80.006	19.995	103.836	19.458	32.113	0.501
462.000	315.023	80.006	19.994	103.825	19.518	28.187	0.505
463.500	315.763	80.006	19.994	103.806	19.567	25.026	0.488
465.000	316.575	80.007	19.994	103.793	19.610	22.202	0.516
466.500	317.362	80.007	19.994	103.787	19.649	19.721	0.536
468.000	318.112	80.007	19.993	103.783	19.679	17.714	0.496
469.500	318.898	80.007	19.993	103.785	19.703	16.183	0.519
471.000	319.612	80.007	19.994	103.789	19.722	14.981	0.475
472.500	320.411	80.008	19.992	103.785	19.741	13.697	0.539
474.000	321.168	80.008	19.993	103.787	19.759	12.553	0.513
475.500	321.910	80.008	19.994	103.788	19.772	11.693	0.496
477.000	322.685	80.008	19.992	103.787	19.780	11.184	0.523
478.500	323.445	80.005	19.993	103.786	19.788	10.659	0.492
480.000	324.235	80.006	19.994	103.786	19.800	9.891	0.509
481.500	324.974	80.005	19.993	103.790	19.807	9.445	0.506
483.000	325.729	80.004	19.995	103.789	19.812	9.122	0.504
484.500	326.532	80.004	19.995	103.791	19.823	8.371	0.523
486.000	327.253	80.004	19.994	103.798	19.826	8.219	0.468
487.500	328.019	80.006	19.995	103.796	19.829	7.972	0.510
489.000	328.802	80.004	19.995	103.796	19.831	7.853	0.520
490.500	329.553	80.004	19.994	103.795	19.836	7.554	0.495
492.000	330.331	80.005	19.995	103.796	19.840	7.255	0.531
493.500	331.061	80.003	19.994	103.811	19.845	6.973	0.486
495.000	331.818	80.005	19.995	103.810	19.846	6.911	0.521
496.500	332.594	80.004	19.993	103.806	19.845	6.971	0.511
498.000	333.387	80.005	19.994	103.818	19.849	6.672	0.550
499.500	334.166	80.005	19.994	103.825	19.849	6.674	0.506
501.000	334.923	80.006	19.993	103.823	19.851	6.551	0.519
502.500	335.673	80.005	19.993	103.819	19.854	6.399	0.498
504.000	336.405	80.005	19.993	103.812	19.856	6.223	0.479
505.500	337.205	80.006	19.993	103.804	19.861	5.890	0.516
507.000	337.918	80.006	19.993	103.811	19.862	5.847	0.489
508.500	338.687	80.006	19.993	103.824	19.861	5.929	0.486
510.000	339.441	80.006	19.993	103.832	19.865	5.684	0.496
511.500	340.220	80.004	19.992	103.827	19.865	5.648	0.533
513.000	340.954	80.007	19.993	103.826	19.866	5.620	0.480
514.500	341.724	80.005	19.995	103.830	19.871	5.253	0.520
516.000	342.501	80.006	19.993	103.830	19.870	5.336	0.530
517.500	343.204	80.005	19.993	103.831	19.866	5.580	0.499
519.000	343.993	80.006	19.996	103.829	19.868	5.435	0.506
520.500	344.777	80.005	19.995	103.830	19.870	5.358	0.511
522.000	345.499	80.005	19.994	103.832	19.873	5.157	0.487
523.500	346.271	80.007	19.993	103.833	19.874	5.048	0.529
525.000	347.038	80.007	19.993	103.830	19.874	5.093	0.494
526.500	347.787	80.006	19.994	103.828	19.871	5.249	0.507
528.000	348.559	80.006	19.993	103.827	19.867	5.499	0.519
529.500	349.265	80.007	19.994	103.835	19.875	5.015	0.463
531.000	350.041	80.006	19.993	103.833	19.877	4.848	0.510
532.500	350.825	80.008	19.994	103.834	19.875	5.028	0.520
534.000	351.616	80.008	19.993	103.847	19.871	5.241	0.519
535.500	352.362	80.007	19.994	103.857	19.876	4.932	0.484
537.000	353.154	80.006	19.993	103.856	19.877	4.903	0.523
538.500	353.896	80.008	19.993	103.850	19.876	4.944	0.490
540.000	354.659	80.007	19.993	103.847	19.873	5.120	0.511
541.500	355.424	80.007	19.992	103.838	19.873	5.136	0.502
543.000	356.208	80.007	19.993	103.844	19.873	5.127	0.519
544.500	356.990	80.007	19.993	103.847	19.873	5.123	0.514
546.000	357.709	80.007	19.994	103.840	19.876	4.921	0.483
547.500	358.482	80.007	19.993	103.848	19.872	5.207	0.515
549.000	359.262	80.007	19.993	103.845	19.877	4.873	0.526
550.500	360.019	80.008	19.993	103.837	19.871	5.246	0.526
552.000	360.788	80.008	19.996	103.839	19.876	4.933	0.521
553.500	361.554	80.008	19.993	103.833	19.875	5.020	0.498
555.000	362.295	80.009	19.993	103.835	19.877	4.882	0.499
556.500	363.079	80.009	19.993	103.834	19.872	5.205	0.532
558.000	363.830	80.007	19.994	103.831	19.872	5.170	0.517
559.500	364.595	80.008	19.993	103.838	19.872	5.199	0.520
561.000	365.406	80.008	19.994	103.839	19.873	5.156	0.518
562.500	366.096	80.006	19.993	103.830	19.869	5.378	0.480
564.000	366.882	80.006	19.992	103.835	19.872	5.182	0.529
565.500	367.624	80.005	19.994	103.835	19.877	4.887	0.505
567.000	368.389	80.006	19.992	103.839	19.873	5.159	0.518
568.500	369.190	80.005	19.993	103.840	19.870	5.353	0.520
570.000	369.925	80.006	19.994	103.843	19.868	5.462	0.492
571.500	370.671	80.005	19.994	103.846	19.871	5.269	0.505
573.000	371.448	80.005	19.994	103.839	19.865	5.664	0.509
574.500	372.221	80.005	19.992	103.833	19.865	5.673	0.523
576.000	373.006	80.005	19.993	103.833	19.868	5.427	0.515
577.500	373.804	80.006	19.993	103.833	19.861	5.890	0.533
579.000	374.590	80.006	19.997	103.834	19.864	5.744	0.515
580.500	375.306	80.005	19.996	103.847	19.862	5.818	0.464
582.000	376.069	80.005	19.994	103.842	19.864	5.687	0.513
583.500	376.821	80.004	19.996	103.840	19.862	5.852	0.504
585.000	377.597	80.004	19.995	103.831	19.863	5.799	0.523
586.500	378.335	80.005	19.995	103.827	19.857	6.165	0.493
588.000	379.108	80.004	19.995	103.831	19.861	5.909	0.515
589.500	379.878	80.005	19.994	103.828	19.859	6.057	0.505
591.000	380.614	80.005	19.994	103.824	19.856	6.251	0.518
592.500	381.362	80.005	19.995	103.826	19.855	6.315	0.501
594.000	382.176	80.006	19.995	103.827	19.856	6.240	0.529
595.500	382.903	80.004	19.994	103.826	19.853	6.465	0.500
597.000	383.659	80.006	19.993	103.826	19.849	6.712	0.497
598.500	384.408	80.006	19.994	103.825	19.850	6.648	0.504
600.000	385.191	80.004	19.995	103.827	19.848	6.735	0.497
601.500	385.932	80.006	19.994	103.827	19.846	6.918	0.486
603.000	386.680	80.006	19.996	103.828	19.846	6.862	0.481
604.500	387.433	80.005	19.995	103.829	19.843	7.081	0.490
606.000	388.166	80.005	19.995	103.832	19.844	6.991	0.487
607.500	388.931	80.004	19.994	103.830	19.841	7.197	0.523
609.000	389.671	80.006	19.994	103.829	19.838	7.428	0.492
610.500	390.445	80.008	19.993	103.829	19.836	7.543	0.521
612.000	391.174	80.007	19.993	103.827	19.838	7.400	0.473
613.500	391.925	80.006	19.993	103.821	19.832	7.772	0.512
615.000	392.682	80.006	19.992	103.822	19.833	7.738	0.508
616.500	393.465	80.006	19.994	103.830	19.829	7.980	0.531
618.000	394.181	80.006	19.992	103.829	19.827	8.115	0.490
619.500	394.934	80.008	19.994	103.829	19.824	8.289	0.495
621.000	395.645	80.007	19.992	103.830	19.820	8.559	0.496
622.500	396.471	80.005	19.993	103.830	19.816	8.818	0.532
624.000	397.172	80.007	19.993	103.826	19.815	8.882	0.475
625.500	397.911	80.006	19.993	103.831	19.813	9.040	0.494
627.000	398.696	80.007	19.993	103.829	19.811	9.181	0.504
628.500	399.423	80.007	19.992	103.825	19.807	9.458	0.488
630.000	400.162	80.007	19.992	103.825	19.804	9.633	0.499
631.500	400.898	80.006	19.993	103.823	19.801	9.843	0.472
633.000	401.616	80.007	19.992	103.806	19.799	9.946	0.487
634.500	402.432	80.007	19.995	103.820	19.794	10.266	0.516
636.000	403.164	80.008	19.992	103.824	19.793	10.312	0.491
637.500	403.839	80.008	19.994	103.827	19.789	10.590	0.452
639.000	404.614	80.008	19.997	103.831	19.786	10.796	0.510
640.500	405.332	80.008	19.994	103.834	19.778	11.313	0.474
642.000	406.095	80.009	19.993	103.832	19.781	11.107	0.502
643.500	406.858	80.006	19.995	103.829	19.771	11.786	0.492
645.000	407.634	80.006	19.993	103.829	19.772	11.694	0.495
646.500	408.388	80.005	19.994	103.829	19.764	12.191	0.496
648.000	409.140	80.005	19.993	103.829	19.761	12.427	0.489
649.500	409.871	80.005	19.994	103.828	19.756	12.752	0.492
651.000	410.641	80.005	19.994	103.827	19.755	12.813	0.540
652.500	411.376	80.005	19.993	103.827	19.746	13.387	0.504
654.000	412.152	80.006	19.994	103.827	19.742	13.648	0.505
655.500	412.895	80.005	19.994	103.824	19.737	13.956	0.507
657.000	413.606	80.006	19.994	103.822	19.731	14.382	0.478
658.500	414.374	80.005	19.994	103.814	19.725	14.789	0.539
660.000	415.106	80.005	19.994	103.819	19.720	15.099	0.485
661.500	415.850	80.006	19.994	103.827	19.712	15.601	0.497
663.000	416.642	80.004	19.993	103.826	19.707	15.913	0.549
664.500	417.390	80.006	19.994	103.820	19.702	16.263	0.511
666.000	418.140	80.005	19.994	103.820	19.694	16.790	0.508
667.500	418.881	80.006	19.994	103.826	19.689	17.117	0.491
669.000	419.656	80.006	19.994	103.824	19.680	17.705	0.532
670.500	420.414	80.005	19.994	103.823	19.669	18.430	0.504
672.000	421.201	80.005	19.994	103.820	19.667	18.503	0.545
673.500	421.916	80.006	19.995	103.825	19.654	19.350	0.495
675.000	422.658	80.005	19.996	103.823	19.652	19.540	0.496
676.500	423.423	80.005	19.995	103.826	19.642	20.126	0.498
678.000	424.190	80.005	19.997	103.827	19.637	20.497	0.512
679.500	424.918	80.004	19.995	103.821	19.629	21.010	0.490
681.000	425.705	80.005	19.998	103.822	19.619	21.656	0.521
682.500	426.440	80.004	19.996	103.824	19.607	22.435	0.506
684.000	427.188	80.004	19.997	103.825	19.598	23.003	0.503
685.500	427.964	80.004	19.995	103.823	19.593	23.371	0.510
687.000	428.760	80.005	19.994	103.820	19.584	23.949	0.523
688.500	429.489	80.006	19.995	103.822	19.574	24.571	0.499
690.000	430.271	80.005	19.994	103.829	19.564	25.232	0.519
691.500	431.038	80.006	19.994	103.828	19.557	25.671	0.508
693.000	431.761	80.006	19.994	103.828	19.546	26.397	0.493
694.500	432.539	80.007	19.993	103.830	19.536	27.023	0.522
696.000	433.324	80.007	19.993	103.829	19.528	27.564	0.507
697.500	434.032	80.007	19.994	103.831	19.519	28.151	0.480
699.001	434.841	80.007	19.996	103.829	19.509	28.815	0.517
700.501	435.599	80.007	19.994	103.830	19.505	29.063	0.494
702.000	436.331	80.008	19.992	103.828	19.496	29.677	0.484
703.500	437.074	80.006	19.992	103.824	19.486	30.336	0.483
705.000	437.840	80.005	19.995	103.831	19.478	30.840	0.526
706.500	438.590	80.006	19.993	103.827	19.465	31.682	0.501
708.000	439.345	80.006	19.994	103.819	19.457	32.174	0.500
709.500	440.105	80.006	19.993	103.823	19.447	32.841	0.537
711.000	440.835	80.006	19.994	103.830	19.444	33.028	0.475
712.500	441.609	80.006	19.994	103.831	19.435	33.608	0.514
714.000	442.363	80.005	19.994	103.827	19.426	34.205	0.500
715.500	443.141	80.007	19.993	103.827	19.420	34.629	0.514
717.000	443.860	80.008	19.994	103.816	19.409	35.318	0.476
718.500	444.634	80.008	19.994	103.819	19.405	35.567	0.510
720.001	445.334	80.008	19.995	103.828	19.397	36.125	0.479
721.500	446.090	80.008	19.993	103.824	19.391	36.474	0.516
723.000	446.848	80.008	19.994	103.820	19.383	36.978	0.494
724.500	447.624	80.008	19.993	103.817	19.379	37.265	0.532
726.000	448.415	80.008	19.992	103.822	19.375	37.498	0.527
727.500	449.168	80.008	19.993	103.824	19.368	37.966	0.513
729.000	449.937	80.008	19.993	103.826	19.366	38.123	0.500
730.500	450.675	80.006	19.993	103.827	19.359	38.578	0.500
732.000	451.450	80.007	19.993	103.838	19.357	38.678	0.514
733.500	452.191	80.005	19.992	103.839	19.354	38.921	0.519
735.000	452.991	80.006	19.994	103.843	19.356	38.764	0.527
736.500	453.758	80.006	19.993	103.835	19.351	39.108	0.493
738.000	454.542	80.005	19.993	103.813	19.350	39.164	0.534
739.500	455.296	80.005	19.993	103.823	19.350	39.143	0.494
741.000	456.077	80.006	19.993	103.828	19.347	39.311	0.527
742.500	456.862	80.004	19.994	103.826	19.348	39.247	0.529
744.000	457.625	80.005	19.994	103.819	19.350	39.170	0.516
745.500	458.413	80.005	19.992	103.820	19.350	39.160	0.510
747.000	459.192	80.006	19.994	103.819	19.351	39.101	0.518
748.500	459.973	80.006	19.993	103.805	19.353	38.947	0.537
750.000	460.766	80.005	19.994	103.799	19.354	38.873	0.539
751.500	461.497	80.006	19.995	103.806	19.354	38.924	0.478
753.000	462.286	80.007	19.994	103.815	19.359	38.574	0.531
754.500	463.035	80.007	19.994	103.817	19.360	38.480	0.527
756.000	463.801	80.006	19.994	103.825	19.366	38.080	0.517
757.500	464.547	80.007	19.994	103.830	19.368	37.968	0.504
759.000	465.301	80.005	19.995	103.824	19.372	37.719	0.518
760.500	466.045	80.004	19.995	103.815	19.377	37.379	0.484
762.000	466.810	80.005	19.995	103.821	19.382	37.044	0.502
763.500	467.562	80.004	19.994	103.824	19.389	36.611	0.508
765.000	468.282	80.005	19.994	103.818	19.394	36.306	0.466
766.500	469.069	80.004	19.994	103.814	19.400	35.888	0.533
768.000	469.797	80.005	19.994	103.824	19.408	35.389	0.475
769.500	470.551	80.003	19.994	103.831	19.414	34.962	0.489
771.000	471.310	80.004	19.995	103.826	19.422	34.467	0.487
772.500	472.053	80.005	19.994	103.822	19.431	33.894	0.506
774.000	472.764	80.003	19.995	103.825	19.439	33.378	0.471
775.500	473.546	80.006	19.995	103.825	19.448	32.803	0.514
777.000	474.335	80.006	19.995	103.829	19.457	32.201	0.530
778.500	475.068	80.006	19.994	103.825	19.463	31.819	0.483
780.000	475.824	80.007	19.995	103.827	19.472	31.178	0.518
781.500	476.610	80.007	19.993	103.834	19.480	30.674	0.522
783.000	477.386	80.007	19.995	103.834	19.488	30.146	0.496
784.500	478.120	80.006	19.994	103.818	19.498	29.545	0.505
786.000	478.866	80.006	19.993	103.813	19.505	29.090	0.492
787.500	479.622	80.008	19.992	103.822	19.512	28.624	0.503
789.000	480.382	80.007	19.993	103.802	19.520	28.092	0.515
790.500	481.157	80.006	19.994	103.801	19.530	27.467	0.511
792.000	481.901	80.007	19.993	103.814	19.541	26.742	0.501
793.500	482.652	80.007	19.994	103.806	19.553	25.922	0.494
795.000	483.413	80.006	19.994	103.815	19.564	25.259	0.497
796.500	484.161	80.006	19.993	103.812	19.570	24.816	0.491
798.000	484.927	80.006	19.993	103.816	19.579	24.244	0.494
799.500	485.679	80.008	19.993	103.810	19.590	23.536	0.500
801.000	486.444	80.006	19.993	103.806	19.599	22.941	0.500
802.500	487.148	80.007	19.993	103.816	19.610	22.209	0.466
804.000	487.929	80.008	19.993	103.819	19.617	21.761	0.506
805.500	488.716	80.007	19.993	103.809	19.627	21.116	0.525
807.000	489.471	80.010	19.993	103.812	19.633	20.763	0.499
808.500	490.247	80.008	19.994	103.819	19.645	19.986	0.526
810.000	490.975	80.006	19.993	103.806	19.654	19.398	0.468
811.500	491.763	80.008	19.993	103.809	19.659	19.033	0.508
813.000	492.539	80.009	19.993	103.820	19.670	18.332	0.524
814.500	493.323	80.006	19.992	103.824	19.678	17.847	0.527
816.000	494.096	80.005	19.993	103.814	19.685	17.360	0.514
817.500	494.863	80.006	19.994	103.799	19.693	16.818	0.506
819.000	495.676	80.005	19.996	103.806	19.701	16.339	0.525
820.500	496.448	80.006	19.994	103.816	19.709	15.806	0.499
822.000	497.226	80.005	19.994	103.823	19.712	15.626	0.539
823.500	498.006	80.005	19.994	103.820	19.721	14.996	0.551
825.000	498.765	80.005	19.993	103.813	19.727	14.614	0.511
826.500	499.561	80.004	19.993	103.828	19.731	14.366	0.542
828.000	500.335	80.006	19.993	103.833	19.736	14.040	0.521
829.500	501.124	80.005	19.993	103.831	19.746	13.379	0.535
831.000	501.947	80.006	19.993	103.828	19.748	13.233	0.555
832.500	502.720	80.004	19.994	103.821	19.754	12.859	0.513
834.000	503.472	80.005	19.992	103.819	19.760	12.471	0.495
835.500	504.250	80.006	19.993	103.810	19.763	12.285	0.532
837.000	505.054	80.005	19.994	103.803	19.768	11.989	0.557
838.500	505.804	80.004	19.994	103.804	19.776	11.417	0.508
840.000	506.585	80.004	19.994	103.813	19.778	11.289	0.517
841.500	507.348	80.003	19.994	103.819	19.779	11.262	0.515
843.000	508.179	80.005	19.994	103.807	19.780	11.207	0.537
844.500	508.933	80.006	19.994	103.806	19.789	10.563	0.516
846.000	509.731	80.004	19.994	103.815	19.793	10.367	0.536
847.500	510.508	80.005	19.995	103.813	19.793	10.322	0.507
849.000	511.224	80.004	19.995	103.802	19.794	10.279	0.471
850.500	512.006	80.005	19.995	103.795	19.799	9.957	0.536
852.000	512.817	80.004	19.993	103.813	19.800	9.849	0.536
853.500	513.609	80.006	19.994	103.808	19.804	9.599	0.512
855.000	514.414	80.005	19.993	103.790	19.811	9.158	0.528
856.500	515.152	80.005	19.992	103.804	19.812	9.079	0.501
858.000	515.943	80.005	19.993	103.803	19.813	9.056	0.528
859.500	516.737	80.006	19.993	103.803	19.815	8.932	0.508
861.000	517.508	80.006	19.994	103.802	19.816	8.864	0.522
862.500	518.269	80.007	19.994	103.799	19.821	8.504	0.517
864.000	519.035	80.005	19.995	103.797	19.823	8.396	0.501
865.500	519.808	80.006	19.994	103.790	19.824	8.313	0.522
867.000	520.585	80.005	19.994	103.802	19.825	8.237	0.538
868.500	521.380	80.005	19.994	103.808	19.827	8.136	0.537
870.000	522.120	80.004	19.994	103.798	19.829	8.006	0.505
871.500	522.862	80.005	19.994	103.788	19.827	8.144	0.528
873.000	523.639	80.005	19.994	103.794	19.833	7.761	0.511
874.500	524.409	80.005	19.996	103.804	19.834	7.694	0.495
876.000	525.181	80.006	19.994	103.810	19.831	7.835	0.527
877.500	525.923	80.005	19.993	103.801	19.835	7.610	0.477
879.000	526.702	80.008	19.994	103.790	19.838	7.385	0.511
880.500	527.462	80.007	19.995	103.801	19.835	7.586	0.501
882.000	528.241	80.006	19.994	103.795	19.838	7.439	0.514
883.500	529.005	80.009	19.993	103.795	19.840	7.266	0.523
885.000	529.801	80.008	19.992	103.810	19.834	7.649	0.500
886.500	530.532	80.009	19.993	103.823	19.844	7.017	0.507
888.000	531.280	80.008	19.991	103.823	19.847	6.843	0.506
889.500	532.065	80.008	19.993	103.825	19.845	6.940	0.540
891.000	532.817	80.007	19.993	103.816	19.846	6.891	0.519
892.500	533.609	80.008	19.992	103.816	19.849	6.719	0.513
894.000	534.382	80.005	19.994	103.820	19.848	6.783	0.515
895.500	535.165	80.008	19.991	103.821	19.848	6.728	0.538
897.000	535.951	80.005	19.994	103.824	19.848	6.727	0.528
898.500	536.709	80.004	19.993	103.804	19.849	6.681	0.512
900.000	537.468	80.005	19.993	103.791	19.851	6.549	0.466
901.500	538.223	80.005	19.993	103.794	19.851	6.546	0.481
903.000	539.029	80.005	19.993	103.798	19.850	6.598	0.522
904.500	539.781	80.003	19.994	103.806	19.852	6.491	0.503
906.001	540.577	80.003	19.995	103.812	19.853	6.461	0.533
907.501	541.290	80.007	19.993	103.814	19.856	6.226	0.474
909.000	542.121	80.004	19.994	103.811	19.854	6.399	0.555
910.500	542.855	80.006	19.994	103.818	19.854	6.381	0.489
912.000	543.610	80.006	19.994	103.806	19.858	6.094	0.514
913.500	544.382	80.004	19.994	103.799	19.858	6.088	0.523
915.000	545.112	80.005	19.994	103.815	19.854	6.357	0.483
916.500	545.918	80.005	19.993	103.814	19.856	6.216	0.518
918.001	546.664	80.007	19.994	103.799	19.857	6.150	0.491
919.500	547.522	80.006	19.993	103.805	19.859	6.047	0.574
921.000	548.197	80.007	19.994	103.803	19.860	5.983	0.503
922.500	548.932	80.007	19.993	103.819	19.860	5.978	0.500
924.000	549.727	80.007	19.993	103.820	19.851	6.592	0.513
925.500	550.518	80.006	19.992	103.818	19.862	5.856	0.532
927.000	551.294	80.006	19.994	103.823	19.861	5.886	0.475
928.500	551.993	80.003	19.993	103.805	19.859	6.050	0.521
930.000	552.868	80.005	19.994	103.808	19.858	6.103	0.583
931.500	553.641	80.005	19.994	103.817	19.857	6.174	0.487
933.000	554.543	80.004	19.993	103.821	19.860	5.961	0.539
934.500	555.101	80.004	19.995	103.816	19.857	6.173	0.444
936.000	555.989	80.003	19.995	103.825	19.858	6.128	0.607
937.500	556.455	80.005	19.994	103.827	19.861	5.904	0.538
939.000	557.616	80.003	19.995	103.827	19.860	5.966	0.718
940.500	557.972	80.005	19.995	103.827	19.860	6.003	0.497
942.000	559.082	80.005	19.995	103.823	19.860	5.952	0.614
943.500	559.784	80.010	19.994	103.828	19.861	5.923	0.767
945.000	560.771	80.006	19.995	103.827	19.864	5.735	0.642
946.500	561.373	80.005	19.994	103.821	19.863	5.782	0.353
948.000	562.329	80.007	19.993	103.821	19.863	5.808	0.646
949.500	562.922	80.007	19.994	103.828	19.861	5.943	0.441
951.000	563.644	80.008	19.993	103.825	19.862	5.877	0.456
952.500	564.482	80.006	19.993	103.825	19.859	6.032	0.572
954.000	565.329	80.006	19.994	103.828	19.863	5.789	0.553
955.500	566.055	80.005	19.993	103.822	19.857	6.159	0.533
957.000	566.875	80.008	19.993	103.815	19.863	5.815	0.580
958.500	567.662	80.006	19.995	103.796	19.857	6.176	0.541
960.000	568.407	80.006	19.993	103.800	19.860	5.985	0.504
961.500	569.200	80.006	19.995	103.795	19.858	6.089	0.531
963.000	569.986	80.007	19.994	103.791	19.857	6.152	0.529
964.500	570.674	80.006	19.993	103.797	19.858	6.091	0.462
966.000	571.561	80.005	19.994	103.808	19.861	5.942	0.557
967.500	572.266	80.005	19.995	103.822	19.859	6.024	0.501
969.000	573.068	80.005	19.994	103.824	19.859	6.051	0.540
970.500	573.827	80.006	19.995	103.821	19.859	6.012	0.497
972.000	574.678	80.009	19.993	103.807	19.860	5.966	0.550
973.500	575.505	80.006	19.994	103.804	19.858	6.137	0.551
975.000	576.288	80.006	19.995	103.808	19.862	5.815	0.498
976.500	577.016	80.007	19.994	103.810	19.861	5.915	0.512
978.000	577.820	80.008	19.994	103.818	19.860	5.954	0.549
979.500	578.577	80.006	19.993	103.819	19.861	5.943	0.538
981.000	579.410	80.006	19.993	103.813	19.858	6.091	0.557
982.501	580.159	80.003	19.994	103.801	19.858	6.115	0.510
984.000	580.949	80.007	19.994	103.792	19.862	5.866	0.494
985.500	581.715	80.008	19.993	103.798	19.858	6.124	0.483
987.000	582.516	80.007	19.995	103.809	19.861	5.882	0.532
988.500	583.329	80.005	19.994	103.809	19.864	5.697	0.535
990.000	584.065	80.005	19.994	103.802	19.862	5.827	0.485
991.500	584.846	80.007	19.995	103.799	19.864	5.693	0.512
993.000	585.640	80.005	19.996	103.811	19.860	5.978	0.542
994.500	586.422	80.006	19.995	103.810	19.864	5.718	0.514
996.000	587.175	80.004	19.994	103.818	19.862	5.818	0.512
997.500	587.924	79.999	19.994	103.822	19.865	5.674	0.510
999.000	588.680	80.005	19.994	103.809	19.865	5.649	0.526
1000.500	589.452	80.005	19.995	103.812	19.865	5.675	0.505
1002.000	590.247	80.006	19.994	103.811	19.863	5.783	0.543
1003.500	591.004	80.005	19.994	103.813	19.861	5.924	0.510
1005.000	591.811	80.006	19.995	103.811	19.865	5.638	0.510
1006.500	592.502	80.004	19.994	103.797	19.864	5.746	0.470
1008.000	593.286	80.003	19.994	103.789	19.867	5.524	0.527
1009.500	594.101	80.005	19.994	103.793	19.865	5.661	0.527
1011.000	594.879	80.006	19.993	103.795	19.864	5.706	0.529
1012.500	595.618	80.004	19.994	103.796	19.861	5.904	0.501
1014.000	596.371	80.006	19.993	103.809	19.867	5.535	0.499
1015.500	597.146	80.006	19.993	103.814	19.863	5.772	0.505
1017.000	597.915	80.007	19.992	103.806	19.864	5.733	0.515
1018.500	598.647	80.007	19.993	103.812	19.868	5.485	0.466
1020.000	599.403	80.006	19.995	103.813	19.867	5.523	0.510
1021.500	600.179	80.008	19.992	103.813	19.869	5.425	0.516
1023.000	600.955	80.004	19.993	103.828	19.867	5.552	0.523
1024.500	601.671	80.005	19.993	103.819	19.867	5.548	0.509
1026.000	602.412	80.006	19.994	103.825	19.868	5.484	0.483
1027.501	603.212	80.001	19.995	103.822	19.865	5.632	0.525
1029.001	603.941	80.006	19.994	103.819	19.868	5.436	0.471
1030.500	604.717	80.003	19.993	103.819	19.863	5.773	0.509
1032.000	605.507	80.008	19.994	103.822	19.865	5.640	0.501
1033.501	606.272	80.005	19.993	103.828	19.867	5.541	0.497
1035.000	607.030	80.006	19.994	103.829	19.865	5.632	0.481
1036.500	607.790	80.004	19.994	103.822	19.867	5.528	0.486
1038.000	608.546	80.002	19.994	103.807	19.868	5.448	0.515
1039.500	609.329	80.006	19.994	103.818	19.869	5.421	0.510
1041.000	610.081	80.001	19.993	103.819	19.865	5.677	0.516
1042.500	610.836	80.006	19.993	103.813	19.870	5.328	0.489
1044.000	611.588	80.004	19.994	103.805	19.871	5.279	0.475
1045.500	612.362	80.006	19.993	103.795	19.867	5.536	0.518
1047.000	613.161	80.007	19.993	103.803	19.869	5.377	0.535
1048.500	613.883	80.004	19.995	103.813	19.872	5.173	0.506
1050.001	614.668	79.997	19.994	103.807	19.872	5.173	0.512
1051.501	615.458	80.008	19.994	103.807	19.870	5.304	0.520
1053.000	616.242	80.007	19.993	103.805	19.872	5.196	0.534
1054.500	617.015	80.009	19.994	103.810	19.874	5.062	0.528
1056.000	617.754	80.010	19.994	103.807	19.870	5.345	0.500
1057.500	618.541	80.004	19.994	103.816	19.872	5.182	0.541
1059.001	619.313	79.985	19.997	103.827	19.869	5.419	0.503
1060.500	620.130	80.018	19.995	103.821	19.870	5.335	0.540
1062.000	620.863	80.004	19.996	103.825	19.870	5.340	0.501
1063.500	621.655	80.011	19.996	103.827	19.870	5.340	0.519
1065.000	622.484	80.014	19.993	103.823	19.872	5.190	0.568
1066.501	623.196	80.009	19.994	103.820	19.872	5.217	0.473
1068.000	623.991	79.993	19.995	103.822	19.873	5.156	0.532
1069.500	624.796	80.021	19.993	103.826	19.873	5.146	0.519
1071.000	625.502	80.007	19.996	103.834	19.876	4.944	0.477
1072.500	626.283	80.000	19.996	103.824	19.872	5.198	0.512
1074.000	627.055	80.006	19.997	103.825	19.875	4.999	0.498
1075.500	627.823	80.014	19.992	103.818	19.873	5.119	0.496
1077.000	628.546	80.000	19.994	103.826	19.872	5.224	0.483
1078.500	629.321	80.002	19.995	103.823	19.874	5.056	0.517
1080.000	630.091	80.003	19.994	103.798	19.875	4.997	0.508
1081.501	630.857	80.011	19.994	103.810	19.873	5.121	0.505
1083.001	631.644	80.005	19.995	103.809	19.875	4.980	0.533
1084.500	632.368	80.007	19.993	103.797	19.875	4.999	0.489
1086.000	633.176	80.007	19.993	103.817	19.880	4.647	0.542
1087.500	633.946	80.004	19.994	103.825	19.878	4.823	0.503
1089.000	634.680	80.011	19.993	103.804	19.876	4.935	0.504
1090.500	635.487	80.017	19.992	103.799	19.879	4.715	0.529
1092.000	636.234	80.024	19.991	103.819	19.878	4.803	0.495
1093.501	636.972	80.013	19.993	103.807	19.878	4.785	0.509
1095.000	637.701	80.004	19.995	103.795	19.877	4.894	0.510
1096.500	638.469	79.994	19.993	103.796	19.876	4.945	0.500
1098.000	639.240	80.008	19.992	103.791	19.880	4.682	0.482
1099.500	639.983	80.014	19.992	103.797	19.877	4.853	0.492
1101.000	640.734	80.016	19.991	103.799	19.875	4.979	0.494
1102.501	641.444	80.005	19.994	103.814	19.879	4.743	0.479
1104.000	642.213	80.000	19.994	103.825	19.878	4.790	0.523
1105.501	643.013	80.015	19.991	103.824	19.877	4.874	0.532
1107.001	643.690	79.998	19.996	103.827	19.882	4.570	0.452
1108.500	644.478	80.023	19.990	103.818	19.879	4.736	0.498
1110.000	645.201	80.012	19.993	103.825	19.884	4.384	0.488
1111.500	645.951	79.999	19.994	103.822	19.885	4.344	0.516
1113.000	646.733	80.003	19.993	103.807	19.884	4.433	0.505
1114.500	647.492	80.011	19.995	103.790	19.881	4.592	0.511
1116.001	648.252	80.011	19.993	103.790	19.884	4.436	0.492
1117.501	648.957	80.012	19.994	103.792	19.883	4.492	0.454
1119.000	649.750	80.009	19.994	103.788	19.880	4.648	0.532
1120.501	650.443	79.988	19.999	103.806	19.880	4.695	0.482
1122.000	651.205	80.007	19.995	103.789	19.878	4.831	0.516
1123.500	652.017	80.005	19.993	103.790	19.876	4.952	0.496
1125.000	652.774	80.011	19.994	103.811	19.882	4.578	0.490
1126.500	653.538	80.010	19.993	103.817	19.882	4.575	0.525
1128.000	654.331	80.003	19.993	103.803	19.879	4.749	0.532
1129.500	655.125	80.009	19.994	103.792	19.885	4.375	0.533
1131.000	655.890	80.012	19.994	103.794	19.886	4.311	0.563
1132.500	656.693	80.007	19.994	103.810	19.884	4.405	0.543
1134.000	657.525	80.001	19.995	103.824	19.881	4.621	0.577
1135.501	658.570	80.004	19.994	103.815	19.883	4.469	0.657
1137.000	659.333	80.009	19.995	103.820	19.881	4.583	0.856
1138.500	660.181	80.023	19.994	103.817	19.881	4.580	0.852
1140.000	660.800	80.006	19.994	103.812	19.884	4.446	0.546
1141.500	661.577	80.010	19.993	103.806	19.881	4.619	0.527
1143.000	662.341	80.016	19.994	103.807	19.884	4.412	0.555
1144.500	664.161	80.016	19.995	103.813	19.872	5.196	1.234
1146.001	664.324	80.007	19.993	103.803	19.864	5.685	0.326
1147.500	664.897	80.003	19.997	103.803	19.883	4.503	0.576
1149.000	665.759	80.002	19.995	103.811	19.884	4.419	0.329
1150.500	666.694	79.988	19.995	103.801	19.885	4.344	0.714
1152.000	667.560	80.013	19.995	103.806	19.885	4.335	0.547
1153.501	668.405	80.003	19.994	103.801	19.886	4.314	0.585
1155.000	669.268	80.002	19.995	103.797	19.891	3.981	0.607
1156.500	669.972	80.007	19.995	103.792	19.882	4.522	0.480
1158.000	671.005	80.021	19.992	103.794	19.885	4.370	0.661
1159.500	670.899	80.001	19.996	103.797	19.881	4.635	0.580
1161.000	672.428	80.007	19.995	103.792	19.882	4.529	0.902
1162.501	673.256	80.012	19.994	103.790	19.887	4.209	0.576
1164.000	674.115	80.003	19.994	103.788	19.886	4.306	0.511
1165.500	674.913	80.015	19.991	103.790	19.882	4.521	0.505
1167.000	675.657	80.008	19.993	103.798	19.881	4.592	0.522
1168.500	676.503	80.002	19.996	103.798	19.884	4.397	0.530
1170.001	677.310	80.004	19.993	103.812	19.885	4.361	0.505
1171.500	678.102	80.007	19.993	103.824	19.885	4.373	0.551
1173.000	678.885	80.009	19.993	103.820	19.886	4.300	0.521
1174.500	679.701	80.008	19.992	103.814	19.886	4.261	0.532
1176.000	680.495	80.005	19.994	103.803	19.888	4.181	0.547
1177.500	681.273	80.001	19.994	103.810	19.882	4.572	0.513
1179.000	682.103	80.006	19.995	103.814	19.883	4.481	0.555
1180.500	682.879	80.016	19.993	103.812	19.884	4.392	0.512
1182.000	683.646	79.987	19.995	103.811	19.883	4.485	0.532
1183.500	684.441	80.008	19.994	103.808	19.883	4.511	0.527
1185.000	685.144	80.013	19.993	103.815	19.884	4.403	0.480
1186.500	686.026	80.010	19.995	103.797	19.881	4.584	0.554
1188.000	686.857	80.014	19.994	103.785	19.884	4.391	0.548
1189.500	687.603	80.002	19.994	103.792	19.882	4.577	0.515
1191.000	688.401	80.002	19.993	103.792	19.883	4.483	0.523
1192.500	689.142	80.023	19.993	103.790	19.885	4.338	0.471
1194.000	689.972	80.011	19.995	103.789	19.879	4.743	0.542
1195.500	690.737	80.005	19.994	103.788	19.885	4.370	0.504
1197.001	691.523	80.018	19.991	103.791	19.882	4.562	0.512
1198.500	692.317	79.996	19.995	103.798	19.881	4.593	0.527
1200.000	693.089	80.001	19.996	103.795	19.879	4.730	0.518
1201.500	693.855	80.008	19.995	103.796	19.878	4.814	0.537
1203.000	694.646	80.009	19.992	103.801	19.882	4.577	0.523
1204.500	695.470	79.991	19.995	103.808	19.882	4.577	0.531
1206.000	696.209	79.993	19.995	103.813	19.878	4.830	0.486
1207.500	697.028	80.013	19.994	103.816	19.883	4.495	0.560
1209.000	697.768	80.012	19.993	103.820	19.878	4.781	0.494
1210.500	698.567	80.009	19.994	103.819	19.884	4.395	0.524
1212.001	699.351	80.010	19.993	103.829	19.883	4.505	0.504
1213.500	700.121	80.002	19.997	103.813	19.879	4.719	0.519
1215.000	700.879	80.017	19.993	103.792	19.879	4.746	0.503
1216.500	701.663	80.008	19.993	103.797	19.879	4.719	0.537
1218.000	702.412	80.014	19.991	103.792	19.887	4.250	0.486
1219.500	703.194	80.000	19.994	103.806	19.877	4.844	0.524
1221.000	704.002	80.019	19.991	103.813	19.878	4.796	0.530
1222.500	704.732	79.998	19.997	103.803	19.882	4.561	0.464
1224.000	705.528	80.011	19.994	103.790	19.879	4.725	0.545
1225.500	706.267	80.017	19.993	103.788	19.879	4.736	0.506
1227.000	707.045	80.017	19.998	103.790	19.880	4.670	0.523
1228.501	707.785	80.008	19.994	103.792	19.886	4.273	0.474
1230.000	708.581	80.009	19.993	103.796	19.883	4.498	0.530
1231.500	709.351	80.011	19.992	103.799	19.884	4.427	0.527
1233.000	710.058	79.991	19.996	103.800	19.883	4.490	0.449
1234.500	710.870	80.008	19.993	103.796	19.882	4.563	0.538
1236.000	711.608	80.000	19.994	103.816	19.881	4.609	0.463
1237.500	712.379	80.004	19.993	103.761	19.879	4.769	0.507
1239.001	713.104	80.020	19.994	103.743	19.878	4.774	0.493
1240.500	713.859	80.006	19.994	103.842	19.881	4.629	0.487
1242.000	714.621	80.020	19.992	103.836	19.886	4.264	0.530
1243.500	715.350	80.009	19.995	103.792	19.884	4.397	0.498
1245.000	716.099	79.989	19.996	103.788	19.885	4.348	0.516
1246.501	716.888	80.005	19.995	103.789	19.885	4.330	0.519
1248.000	717.626	80.002	19.996	103.789	19.884	4.431	0.487
1249.501	718.320	80.010	19.996	103.783	19.885	4.364	0.480
1251.000	718.994	80.009	19.993	103.788	19.886	4.294	0.456
1252.501	719.710	80.004	19.996	103.789	19.886	4.296	0.455
1254.001	720.461	80.003	19.995	103.792	19.888	4.154	0.505
1255.500	721.139	80.003	19.995	103.790	19.886	4.285	0.479
1257.000	721.880	80.007	19.994	103.789	19.882	4.556	0.507
1258.500	722.565	80.007	19.994	103.793	19.886	4.253	0.450
1260.000	723.274	80.007	19.996	103.791	19.885	4.335	0.449
1261.500	723.924	80.002	19.997	103.790	19.887	4.252	0.437
1263.000	724.659	80.008	19.995	103.789	19.886	4.316	0.499
1264.500	725.375	80.006	19.996	103.789	19.882	4.515	0.479
1266.001	726.056	80.006	19.994	103.791	19.888	4.138	0.471
1267.500	726.750	80.007	19.994	103.791	19.884	4.384	0.456
1269.000	727.417	80.002	19.996	103.789	19.887	4.250	0.456
1270.501	728.096	80.008	19.994	103.789	19.884	4.405	0.447
1272.000	728.798	80.008	19.991	103.792	19.886	4.296	0.477
1273.500	729.516	80.007	19.994	103.806	19.886	4.262	0.472
1275.000	730.197	80.009	19.994	103.803	19.882	4.531	0.457
1276.500	730.910	80.009	19.993	103.799	19.883	4.455	0.454
1278.000	731.683	80.010	19.993	103.803	19.883	4.478	0.501
1279.502	732.404	80.002	19.993	103.802	19.885	4.341	0.484
1281.001	733.130	80.010	19.990	103.802	19.882	4.543	0.490
1282.500	733.895	80.009	19.995	103.801	19.881	4.619	0.500
1284.000	734.651	80.009	19.998	103.797	19.882	4.553	0.525
1285.500	735.388	80.007	19.994	103.797	19.881	4.599	0.488
1287.000	736.122	80.008	19.992	103.796	19.881	4.592	0.489
1288.500	736.922	80.009	19.992	103.795	19.880	4.671	0.531
1290.000	737.641	79.999	19.994	103.806	19.881	4.599	0.472
1291.500	738.410	80.007	19.996	103.821	19.887	4.238	0.509
1293.000	739.212	80.005	19.994	103.827	19.884	4.399	0.533
1294.501	739.998	80.007	19.992	103.818	19.887	4.252	0.542
1296.000	740.759	80.009	19.993	103.799	19.886	4.258	0.502
1297.501	741.542	80.010	19.992	103.796	19.888	4.166	0.538
1299.000	742.302	80.002	19.994	103.815	19.881	4.598	0.508
1300.501	743.115	80.006	19.994	103.820	19.883	4.458	0.539
1301.001	743.336	80.008	19.989	103.813	19.882	4.552	0.509