File: 01_Data/Fiberglass_Insulation_R30_Paper_Faced/Cone/Fiberglass_Insulation_3_Cone_HF75Scan_220509_R3.csv
Names,Time,Stack TC,Smoke TC,Exh Press,Smoke Comp,Smoke Meas,CO Meter,CO2 Meter,O2 Meter,Sample Mass,Ext Coeff,Start Test,Flame Verif
Chan Gain,,500,500,1,1,1,1,1,1,1,1,1.0,1.0
Offset,,0,0,0.134207,0,0,0,0,0,0,0,0.0,0.0
Gain,,1,1,25.011,13.8443,15.4071,1,1,1,1.00079,1.02936,1.0,1.0
Units,sec,C,C,Pa,%,%,%,%,%,g,/m,,
Baseline,,42.6558,44.12,133.367,105.238,107.341,0.000124151,0.0414501,21.0068,-447.96,-0.178598,,
2,0.25,41.3127,43.0055,131.949,104.883,105.938,0.00171621,0.0563745,20.9431,438.716,-0.0903542,0.0,0.0
4,0.75,40.2946,41.6829,142.957,104.867,106.802,0.00228139,0.0854127,20.8991,438.636,-0.165061,0.0,0.0
6,1.25,39.9913,41.8997,120.019,104.877,107.322,0.00287225,0.108934,20.8408,438.356,-0.208119,0.0,1.0
8,1.75,40.2656,42.0007,103.889,104.86,101.567,0.00335085,0.154432,20.7732,438.206,0.288051,0.0,1.0
10,2.25,40.2831,41.3626,97.0369,104.863,74.1007,0.00389716,0.191286,20.7185,438.096,3.13533,0.0,1.0
12,2.75,41.3238,42.1909,100.163,104.855,63.608,0.00433967,0.232437,20.6742,438.166,4.51327,0.0,1.0
14,3.25,42.8385,42.9337,111.842,104.846,84.2742,0.00469811,0.263857,20.6383,438.016,1.97216,0.0,1.0
16,3.75,43.936,43.5954,125.267,104.835,99.623,0.00496485,0.287584,20.6092,438.096,0.460425,0.0,1.0
18,4.25,44.9124,44.1365,123.042,104.829,106.353,0.00518091,0.306804,20.5857,437.945,-0.130329,0.0,1.0
20,4.75,45.8286,45.3295,125.259,104.827,107.561,0.00525735,0.31245,20.5757,437.996,-0.232489,0.0,1.0
22,5.25,46.0457,46.0768,126.683,104.82,108.797,0.00538806,0.317024,20.5865,437.966,-0.336283,0.0,1.0
24,5.75,46.3904,46.4765,128.035,104.817,108.567,0.00550699,0.320728,20.5954,437.976,-0.317435,0.0,1.0
26,6.25,45.1412,45.4617,126.695,104.821,108.865,0.00561508,0.31285,20.6205,437.976,-0.341791,0.0,1.0
28,6.75,45.219,45.5514,126.849,104.803,108.388,0.0057471,0.306468,20.6408,437.935,-0.303725,0.0,1.0
30,7.25,45.25,45.7812,129.38,104.8,108.735,0.00589405,0.297439,20.67,437.945,-0.33288,0.0,1.0
32,7.75,45.8322,45.9509,129.421,104.804,108.992,0.00607144,0.291762,20.6937,437.895,-0.353849,0.0,0.0
34,8.25,45.4771,46.1847,127.62,104.793,108.786,0.00626763,0.279725,20.719,437.895,-0.337678,0.0,0.0
36,8.75,45.3011,45.9257,128.167,104.775,108.61,0.00642655,0.26788,20.7394,437.855,-0.324636,0.0,0.0
38,9.25,45.5967,46.7193,129.531,104.782,107.938,0.00667021,0.2563,20.7604,437.855,-0.267945,0.0,0.0
40,9.75,45.699,46.3932,126.621,104.768,108.693,0.00686757,0.245132,20.7774,437.825,-0.332057,0.0,0.0
42,10.25,45.6616,46.3719,128.474,104.774,107.431,0.00707491,0.236086,20.7912,437.815,-0.226139,0.0,0.0
44,10.75,45.925,47.123,131.109,104.751,107.485,0.00728557,0.225973,20.8054,437.785,-0.232609,0.0,0.0
46,11.25,45.6958,46.5693,132.695,104.754,107.328,0.00745027,0.217781,20.8169,437.765,-0.219153,0.0,0.0
48,11.75,46.0701,46.3534,126.491,104.747,106.635,0.00757833,0.208802,20.8274,437.755,-0.161352,0.0,0.0
50,12.25,45.9985,46.2714,129.322,104.743,107.921,0.00768205,0.201529,20.8369,437.745,-0.269955,0.0,0.0
52,12.75,45.8213,46.3315,132.688,104.737,107.437,0.00772454,0.194248,20.8446,437.735,-0.229778,0.0,0.0
54,13.25,46.0999,47.2711,131.411,104.754,107.324,0.00772158,0.187099,20.8535,437.695,-0.218832,0.0,0.0
56,13.75,45.6546,46.6956,129.678,104.727,106.74,0.00767906,0.181307,20.8607,437.695,-0.171861,0.0,0.0
58,14.25,45.4705,46.7088,132.064,104.715,107.068,0.00760849,0.174564,20.8687,437.675,-0.200678,0.0,0.0
60,14.75,45.8284,46.5506,130.655,104.711,107.007,0.00751063,0.169101,20.8752,437.655,-0.195849,0.0,0.0
62,15.25,45.7404,46.9,129.326,104.707,108.129,0.00739473,0.163272,20.8818,437.655,-0.290347,0.0,0.0
64,15.75,45.2975,46.9866,129.272,104.702,106.985,0.00726807,0.158551,20.8871,437.655,-0.194786,0.0,0.0
66,16.25,45.6538,46.6846,129.915,104.705,107.265,0.007136,0.154042,20.8932,437.645,-0.218115,0.0,0.0
68,16.75,46.1792,46.584,128.344,104.68,107.527,0.00702901,0.149774,20.8981,437.655,-0.242357,0.0,0.0
70,17.25,45.4608,46.7215,130.004,104.692,108.49,0.00687523,0.145769,20.9021,437.635,-0.321763,0.0,0.0
72,17.75,45.2595,47.3029,131.99,104.673,108.153,0.00675067,0.14203,20.9058,437.635,-0.295301,0.0,0.0
74,18.25,45.1753,46.5234,131.414,104.674,107.943,0.00664977,0.138515,20.9092,437.615,-0.277664,0.0,0.0
76,18.75,45.4087,46.8812,129.317,104.651,108.183,0.00653949,0.135228,20.9116,437.615,-0.299747,0.0,0.0
78,19.25,45.3086,46.9206,132.158,104.661,107.407,0.00645017,0.132565,20.9131,437.625,-0.233847,0.0,0.0
80,19.75,45.6181,46.9157,129.382,104.633,107.112,0.00637037,0.129386,20.9149,437.595,-0.211435,0.0,0.0
82,20.25,45.6599,46.7365,133.7,104.635,107.462,0.00630573,0.126811,20.9167,437.595,-0.240694,0.0,0.0
84,20.75,44.9698,46.7276,134.243,104.619,106.956,0.00624841,0.124725,20.9182,437.585,-0.199466,0.0,0.0
86,21.25,45.7226,47.0557,131.516,104.637,106.405,0.00620198,0.121611,20.9211,437.585,-0.151256,0.0,0.0
88,21.75,45.3916,46.9799,131.958,104.609,106.544,0.00616372,0.119088,20.9235,437.575,-0.165506,0.0,0.0
90,22.25,45.1085,46.4331,131.034,104.607,107.454,0.00613214,0.116224,20.9263,437.585,-0.242426,0.0,0.0
92,22.75,45.245,46.6111,132.467,104.596,106.495,0.00610656,0.113903,20.9286,437.555,-0.162415,0.0,0.0
94,23.25,45.4557,46.39,130.275,104.599,107.389,0.00608715,0.111644,20.9309,437.555,-0.237705,0.0,0.0
96,23.75,45.3651,46.8379,130.417,104.578,106.919,0.0060726,0.109471,20.9332,437.555,-0.199907,0.0,0.0
98,24.25,45.0308,46.8536,132.368,104.585,106.994,0.00606081,0.107339,20.935,437.525,-0.205602,0.0,0.0
100,24.75,45.205,46.6424,133.481,104.569,106.595,0.00605623,0.105276,20.937,437.545,-0.173237,0.0,0.0
102,25.25,44.8937,46.4512,131.255,104.562,106.408,0.00605252,0.103606,20.939,437.525,-0.157991,0.0,0.0
104,25.75,45.2198,46.6257,128.839,104.547,107.28,0.00605448,0.101602,20.9409,437.495,-0.233012,0.0,0.0
106,26.25,45.1685,46.597,133.981,104.547,106.349,0.00605606,0.099979,20.9426,437.465,-0.154312,0.0,0.0
108,26.75,44.7347,46.7312,131.508,104.54,106.85,0.00605486,0.0986643,20.9444,437.485,-0.197355,0.0,0.0
110,27.25,45.0047,46.6304,131.309,104.539,107.707,0.00605389,0.0968114,20.9463,437.465,-0.269534,0.0,0.0
112,27.75,45.1547,46.2924,129.92,104.522,106.579,0.0060407,0.0953106,20.9483,437.465,-0.176046,0.0,0.0
114,28.25,44.865,46.0921,129.592,104.528,107.152,0.00603001,0.0938116,20.9504,437.435,-0.223847,0.0,0.0
116,28.75,44.7418,46.4331,131.967,104.51,106.948,0.00600151,0.0923424,20.952,437.415,-0.208168,0.0,0.0
118,29.25,45.1905,46.9924,134.502,104.503,107.817,0.00597843,0.0907251,20.9538,437.415,-0.281856,0.0,0.0
120,29.75,44.7841,46.3033,128.743,104.5,106.93,0.00594538,0.089415,20.9552,437.395,-0.207535,0.0,0.0
122,30.25,45.1702,46.7763,130.683,104.513,106.713,0.0059057,0.0881364,20.9564,437.395,-0.188121,0.0,0.0
124,30.75,44.8582,46.4247,133.354,104.488,106.437,0.00587355,0.086905,20.9573,437.385,-0.166811,0.0,0.0
126,31.25,44.9726,46.6294,130.569,104.479,107.012,0.00581779,0.0856831,20.9586,437.395,-0.216343,0.0,0.0
128,31.75,45.1645,46.3125,132.284,104.456,107.76,0.00577262,0.0844913,20.96,437.375,-0.281176,0.0,0.0
130,32.25,44.2007,46.2915,130.642,104.468,106.756,0.00572242,0.0832945,20.9614,437.365,-0.195611,0.0,0.0
132,32.75,43.9823,46.1382,132.116,104.455,106.715,0.00568176,0.0821167,20.9627,437.355,-0.193283,0.0,0.0
134,33.25,44.1468,45.8621,133.728,104.449,106.607,0.00564882,0.0811627,20.9637,437.355,-0.184639,0.0,0.0
136,33.75,43.9179,46.056,132.05,104.44,107.813,0.00559747,0.0799643,20.9648,437.355,-0.287015,0.0,0.0
138,34.25,44.3072,45.7079,130.748,104.437,106.965,0.00555587,0.0789935,20.9659,437.355,-0.215953,0.0,0.0
140,34.75,43.9476,46.136,129.935,104.42,107.372,0.00549003,0.0780195,20.9667,437.355,-0.251682,0.0,0.0
142,35.25,44.1899,45.2333,131.347,104.415,107.063,0.00543671,0.0770616,20.9673,437.365,-0.226105,0.0,0.0
144,35.75,44.1077,45.7873,134.215,104.409,106.351,0.00535399,0.0762856,20.968,437.335,-0.166379,0.0,0.0
146,36.25,43.9307,45.658,130.92,104.404,106.242,0.00528699,0.0753144,20.9688,437.315,-0.157588,0.0,0.0
148,36.75,43.7407,46.1461,130.285,104.397,108.424,0.00518585,0.0745277,20.9696,437.295,-0.341717,0.0,0.0
150,37.25,44.1009,45.564,130.932,104.387,106.503,0.00510392,0.0735746,20.9705,437.275,-0.181201,0.0,0.0
152,37.75,43.9285,45.5151,131.704,104.375,106.54,0.00503756,0.0728026,20.9713,437.275,-0.18537,0.0,0.0
154,38.25,44.5344,45.7985,133.708,104.37,106.757,0.0049013,0.0719582,20.9718,437.275,-0.2042,0.0,0.0
156,38.75,43.9984,45.432,131.74,104.357,106.462,0.00479093,0.0712742,20.9723,437.275,-0.18029,0.0,0.0
158,39.25,44.2039,45.7398,134.01,104.354,106.825,0.00466096,0.0705978,20.9729,437.275,-0.21132,0.0,0.0
160,39.75,43.4394,45.4909,125.906,104.353,106.952,0.00455568,0.0699397,20.9736,437.285,-0.222153,0.0,0.0
162,40.25,44.2857,45.55,129.949,104.349,106.44,0.00444584,0.0694066,20.9742,437.275,-0.179187,0.0,0.0
164,40.75,44.5146,45.1987,131.455,104.324,106.891,0.00435686,0.0687286,20.9747,437.285,-0.219515,0.0,0.0
166,41.25,43.8001,45.888,131.588,104.315,106.967,0.0042848,0.0681795,20.9755,437.275,-0.226715,0.0,0.0
168,41.75,43.874,45.5792,133.17,104.296,106.545,0.00421609,0.0676124,20.9762,437.275,-0.192649,0.0,0.0
170,42.25,43.9458,45.4108,131.797,104.299,106.272,0.00412343,0.0670429,20.9773,437.285,-0.169288,0.0,0.0
172,42.75,43.8237,45.5957,132.793,104.294,107.056,0.00409269,0.0664522,20.9776,437.275,-0.236042,0.0,0.0
174,43.25,43.9768,45.6745,128.742,104.271,106.528,0.00404013,0.0658573,20.9782,437.255,-0.193332,0.0,0.0
176,43.75,44.2064,45.6311,133.629,104.265,106.488,0.00399756,0.0653754,20.9786,437.245,-0.190493,0.0,0.0
178,44.25,43.9079,45.6815,134.166,104.264,106.681,0.00394583,0.0648628,20.9792,437.255,-0.206897,0.0,0.0
180,44.75,43.1244,45.5888,128.464,104.252,106.478,0.00390393,0.0643377,20.9799,437.265,-0.19079,0.0,0.0
182,45.25,43.771,45.4156,133.596,104.249,106.586,0.00386999,0.06354,20.9804,437.265,-0.200176,0.0,0.0
184,45.75,44.1119,45.8911,131.988,104.23,106.734,0.00381063,0.0632953,20.9812,437.275,-0.214357,0.0,0.0
186,46.25,43.936,45.8163,133.01,104.216,106.973,0.00376254,0.0628769,20.9821,437.245,-0.23575,0.0,0.0
188,46.75,44.046,44.8551,127.366,104.206,106.77,0.00369052,0.0623743,20.9828,437.245,-0.219509,0.0,0.0
190,47.25,43.6437,45.6491,131.79,104.191,107.052,0.00363219,0.0619672,20.9834,437.225,-0.244654,0.0,0.0
192,47.75,43.5538,45.7,132.568,104.185,107.084,0.00355924,0.0615373,20.9841,437.215,-0.247787,0.0,0.0
194,48.25,43.9251,45.5088,130.005,104.17,106.074,0.00350015,0.0610991,20.9849,437.225,-0.163539,0.0,0.0
196,48.75,43.4856,44.9524,133.619,104.165,106.74,0.00343149,0.0607441,20.9856,437.225,-0.220553,0.0,0.0
198,49.25,43.8912,45.5833,136.201,104.15,106.428,0.00336301,0.0602929,20.9861,437.225,-0.19535,0.0,0.0
200,49.75,42.828,45.4381,132.463,104.153,106.743,0.00329597,0.0599275,20.9869,437.215,-0.22174,0.0,0.0
202,50.25,43.5926,44.8916,128.911,104.122,106.484,0.00322623,0.0595088,20.9876,437.225,-0.202586,0.0,0.0
204,50.75,42.7863,44.9392,132.47,104.112,106.191,0.00315586,0.0591697,20.9882,437.215,-0.178515,0.0,0.0
206,51.25,43.7628,45.4951,132.918,104.092,106.704,0.00309886,0.0587451,20.9886,437.195,-0.223791,0.0,0.0
208,51.75,43.5957,45.2539,134.806,104.095,105.954,0.00303342,0.0584011,20.9892,437.195,-0.159885,0.0,0.0
210,52.25,43.8704,45.4869,132.87,104.07,106.232,0.00296307,0.0580272,20.9899,437.215,-0.185697,0.0,0.0
212,52.75,43.3011,45.1082,132.335,104.063,106.757,0.00289711,0.0577243,20.9905,437.205,-0.230739,0.0,0.0
214,53.25,43.3858,45.4806,133.808,104.051,105.994,0.00283559,0.05737,20.9909,437.195,-0.167026,0.0,0.0
216,53.75,43.5816,44.9028,132.52,104.044,105.981,0.00277806,0.057083,20.9913,437.195,-0.166607,0.0,0.0
218,54.25,43.1979,44.7315,132.67,104.02,105.806,0.00272453,0.0567688,20.9916,437.195,-0.153784,0.0,0.0
220,54.75,42.8666,45.0447,133.603,104.021,105.624,0.00268117,0.0565143,20.9918,437.205,-0.138088,0.0,0.0
222,55.25,43.5545,45.2246,129.278,104.002,106.755,0.00263509,0.0562509,20.992,437.215,-0.235933,0.0,0.0
224,55.75,43.5761,45.2004,129.43,103.999,106.297,0.00259776,0.0559859,20.9922,437.205,-0.197371,0.0,0.0
226,56.25,43.5564,45.8155,131.939,103.977,106.034,0.00255778,0.0557139,20.9923,437.205,-0.176885,0.0,0.0
228,56.75,43.4588,45.4408,131.729,103.969,106.906,0.00252539,0.0554421,20.9924,437.185,-0.251591,0.0,0.0
230,57.25,43.566,45.116,134.649,103.951,105.717,0.00248942,0.0552219,20.9927,437.205,-0.152097,0.0,0.0
232,57.75,43.0835,44.7735,128.979,103.953,107.414,0.00246028,0.0549754,20.9932,437.205,-0.295698,0.0,0.0
234,58.25,43.2032,45.3264,132.494,103.916,106.864,0.00243667,0.0547758,20.9936,437.195,-0.252568,0.0,0.0
236,58.75,43.0473,45.0028,130.025,103.918,106.456,0.00240173,0.054564,20.9939,437.185,-0.217834,0.0,0.0
238,59.25,42.969,45.306,130.205,103.897,106.601,0.00237342,0.0543473,20.9941,437.185,-0.231944,0.0,0.0
240,59.75,43.1531,45.015,130.874,103.903,106.041,0.00235415,0.0541073,20.9943,437.155,-0.183949,0.0,0.0
242,60.25,42.6997,44.865,133.155,103.882,106.033,0.00233853,0.053855,20.9945,437.165,-0.185031,0.0,0.0
244,60.75,42.8215,45.0787,132.612,103.89,105.699,0.00233358,0.0536076,20.9946,437.135,-0.15582,0.0,0.0
246,61.25,43.0066,44.943,128.893,103.849,106.065,0.00233648,0.0533686,20.9947,437.145,-0.190578,0.0,0.0
248,61.75,42.9869,44.9056,131.023,103.857,105.533,0.0023414,0.0531749,20.9948,437.135,-0.144568,0.0,0.0
250,62.25,42.8246,44.8265,134.059,103.864,106.219,0.00234769,0.0528957,20.9949,437.145,-0.202451,0.0,0.0
252,62.75,42.6427,44.8571,130.713,103.83,106.726,0.00234183,0.0526696,20.9949,437.165,-0.248376,0.0,0.0
254,63.25,43.1503,45.1933,132.475,103.818,106.023,0.00233708,0.0524506,20.995,437.165,-0.189773,0.0,0.0
256,63.75,43.091,44.7452,131.783,103.799,105.777,0.00233323,0.052241,20.9955,437.175,-0.170457,0.0,0.0
258,64.25,43.0563,44.8694,132.989,103.793,106.277,0.00230194,0.052014,20.9958,437.145,-0.213576,0.0,0.0
260,64.75,42.6942,45.2038,132.426,103.791,106.625,0.00225123,0.0517786,20.9956,437.145,-0.243233,0.0,0.0
262,65.25,42.6038,44.566,132.757,103.774,105.549,0.00221016,0.0515522,20.9954,437.205,-0.153138,0.0,0.0
264,65.75,42.5884,44.723,132.046,103.767,106.245,0.0021769,0.0513366,20.9953,437.185,-0.213139,0.0,0.0
266,66.25,42.5379,44.5419,133.189,103.772,105.853,0.00211862,0.0511619,20.9952,437.215,-0.179309,0.0,0.0
268,66.75,42.0616,44.8679,132.801,103.754,105.669,0.00204322,0.0509704,20.9951,437.195,-0.165157,0.0,0.0
270,67.25,42.6735,44.5837,138.659,103.738,106.022,0.00197704,0.0507702,20.995,437.205,-0.196677,0.0,0.0
272,67.75,42.9042,44.7858,131.632,103.735,107.388,0.00191884,0.0506081,20.9949,437.215,-0.31248,0.0,0.0
274,68.25,42.4837,44.8411,136.73,103.718,106.562,0.00187169,0.050491,20.9949,437.195,-0.244224,0.0,0.0
276,68.75,42.9301,44.4272,128.62,103.74,107.087,0.0018335,0.0504091,20.9948,437.195,-0.286741,0.0,0.0
278,69.25,42.948,44.8326,133.808,103.686,105.766,0.00180257,0.0503427,20.9948,437.225,-0.179315,0.0,0.0
280,69.75,42.3818,44.8104,132.934,103.695,106.192,0.00177751,0.050221,20.9948,437.185,-0.214834,0.0,0.0
282,70.25,42.6791,44.8387,137.208,103.697,105.433,0.00175722,0.0501225,20.9952,437.165,-0.149891,0.0,0.0
284,70.75,42.6113,44.4117,131.442,103.676,105.987,0.00172986,0.0499711,20.9955,437.165,-0.199082,0.0,0.0
286,71.25,42.2168,44.8283,131.57,103.667,105.642,0.0017077,0.0497842,20.9958,437.165,-0.170368,0.0,0.0
288,71.75,42.8104,44.8823,134.549,103.664,106.752,0.00166428,0.0496256,20.996,437.195,-0.265011,0.0,0.0
290,72.25,42.3774,44.5077,134.424,103.655,106.347,0.00162911,0.0494907,20.9962,437.195,-0.231513,0.0,0.0
292,72.75,42.7119,44.6935,130.767,103.645,105.771,0.00160063,0.0493671,20.9964,437.185,-0.183363,0.0,0.0
294,73.25,42.0429,44.4128,128.904,103.635,105.942,0.00153515,0.0492542,20.9965,437.205,-0.198769,0.0,0.0
296,73.75,42.7512,44.9419,130.801,103.63,105.987,0.00148212,0.0491484,20.9966,437.175,-0.203093,0.0,0.0
298,74.25,42.1238,44.6642,133.602,103.611,105.07,0.0014089,0.0490499,20.9966,437.175,-0.126299,0.0,0.0
300,74.75,42.7394,44.5651,131.58,103.624,105.842,0.00134959,0.04897,20.9967,437.135,-0.191262,0.0,0.0
302,75.25,42.5858,44.4916,132.815,103.606,106.197,0.00129455,0.0487967,20.9968,437.135,-0.223079,0.0,0.0
304,75.75,42.2944,44.5807,131.232,103.588,105.399,0.00124367,0.0486563,20.9968,437.155,-0.156527,0.0,0.0
306,76.25,42.0748,44.2857,130.344,103.594,105.41,0.00120245,0.0485141,20.9971,437.155,-0.156861,0.0,0.0
308,76.75,42.3836,44.7575,128.546,103.587,105.603,0.00116786,0.0483731,20.9975,437.145,-0.174102,0.0,0.0
310,77.25,42.2283,44.7021,130.993,103.588,105.182,0.00113983,0.0482589,20.9978,437.155,-0.137821,0.0,0.0
312,77.75,42.2689,44.8628,131.832,103.565,105.723,0.00110504,0.0481121,20.9981,437.185,-0.186226,0.0,0.0
314,78.25,42.7747,44.3495,133.483,103.564,105.057,0.00107686,0.0479931,20.9983,437.165,-0.129177,0.0,0.0
316,78.75,42.0803,44.9651,133.997,103.556,106.242,0.00104195,0.0478682,20.9985,437.155,-0.231225,0.0,0.0
318,79.25,42.5794,44.1485,134.418,103.552,105.814,0.00101367,0.0477414,20.9987,437.155,-0.195039,0.0,0.0
320,79.75,42.8044,44.5823,128.617,103.55,105.896,0.000990766,0.0476386,20.9988,437.155,-0.202319,0.0,0.0
322,80.25,42.4619,43.9032,130.067,103.546,106.091,0.000968587,0.047501,20.9989,437.165,-0.21927,0.0,0.0
324,80.75,42.3171,43.7691,128.388,103.533,106.536,0.000950622,0.0473896,20.9989,437.135,-0.25819,0.0,0.0
326,81.25,41.8471,44.3394,133.287,103.547,106.545,0.000939887,0.0472858,20.999,437.135,-0.257771,0.0,0.0
328,81.75,42.2573,44.5335,133.805,103.528,106.216,0.000934626,0.0472017,20.9991,437.125,-0.231456,0.0,0.0
330,82.25,42.2771,44.5934,135.298,103.53,106.345,0.00093291,0.0471121,20.9991,437.125,-0.24218,0.0,0.0
332,82.75,42.5457,44.2484,131.884,103.53,105.198,0.000933809,0.0470203,20.9991,437.155,-0.14424,0.0,0.0
334,83.25,42.4749,44.4763,133.433,103.525,105.555,0.000941538,0.0469459,20.9992,437.135,-0.17538,0.0,0.0
336,83.75,42.2516,44.6973,134.767,103.514,105.844,0.000954098,0.0468214,20.9992,437.155,-0.200959,0.0,0.0
338,84.25,42.5112,44.6384,135.766,103.517,105.467,0.000972547,0.0466627,20.9992,437.165,-0.168438,0.0,0.0
340,84.75,42.7244,44.2531,131.303,103.498,105.759,0.000994938,0.0465056,20.9992,437.145,-0.195134,0.0,0.0
342,85.25,41.8058,44.29,134.473,103.501,106.112,0.00101308,0.0463526,20.9992,437.145,-0.2249,0.0,0.0
344,85.75,42.3598,44.4145,133.013,103.512,105.862,0.00102777,0.0462144,20.9992,437.145,-0.202668,0.0,0.0
346,86.25,41.9502,44.1363,130.674,103.507,105.554,0.00103967,0.0460896,20.9992,437.155,-0.176766,0.0,0.0
348,86.75,42.2455,44.7354,133.209,103.505,105.132,0.00104931,0.0460171,20.9993,437.165,-0.1408,0.0,0.0
350,87.25,41.9431,44.1944,133.095,103.499,106,0.00105711,0.045984,20.9997,437.145,-0.215557,0.0,0.0
352,87.75,42.4023,44.3874,133.018,103.5,106.146,0.00104053,0.0459573,21.0001,437.105,-0.22797,0.0,0.0
354,88.25,42.7123,44.4268,132.457,103.501,105.391,0.00100648,0.0459492,21.0003,437.075,-0.163355,0.0,0.0
356,88.75,42.1697,44.3303,130.842,103.487,106.18,0.000965546,0.0459426,21.0006,437.095,-0.231956,0.0,0.0
358,89.25,41.9087,43.8063,131.461,103.5,105.006,0.000920377,0.0459373,21.0008,437.125,-0.13049,0.0,0.0
360,89.75,41.646,44.2092,132.213,103.496,104.864,0.000870448,0.0458902,21.0009,437.135,-0.118603,0.0,0.0
362,90.25,42.1626,44.3295,133.48,103.502,105.928,0.000817999,0.0458134,21.0011,437.135,-0.209206,0.0,0.0
364,90.75,42.1464,44.0841,132.189,103.499,106.23,0.000775515,0.0457512,21.0012,437.135,-0.235198,0.0,0.0
366,91.25,42.212,44.3935,131.045,103.5,105.604,0.000727833,0.0456509,21.0012,437.175,-0.181733,0.0,0.0
368,91.75,42.6793,44.3553,129.61,103.503,105.012,0.00068921,0.0455246,21.0013,437.185,-0.130721,0.0,0.0
370,92.25,42.2341,44.4912,133.502,103.517,105.839,0.000660339,0.0454224,21.0014,437.155,-0.200264,0.0,0.0
372,92.75,41.9897,44.2588,133.43,103.512,106.944,0.000640762,0.0453395,21.0014,437.135,-0.294484,0.0,0.0
374,93.25,41.7596,44.1133,129.059,103.534,105.682,0.000628334,0.0452724,21.0014,437.105,-0.185419,0.0,0.0
376,93.75,41.9172,44.1282,131.837,103.512,105.357,0.000618267,0.0452452,21.0015,437.125,-0.159533,0.0,0.0
378,94.25,41.8195,44.0933,129.044,103.515,105.598,0.00061964,0.0452232,21.0015,437.085,-0.179887,0.0,0.0
380,94.75,42.208,44.8477,130.648,103.504,105.863,0.000629327,0.0451511,21.0015,437.095,-0.203492,0.0,0.0
382,95.25,42.9463,44.2522,131.161,103.523,106.021,0.000637173,0.0450926,21.0015,437.105,-0.215299,0.0,0.0
384,95.75,42.4859,44.3849,132.654,103.517,105.823,0.000656729,0.0449911,21.0015,437.105,-0.198937,0.0,0.0
386,96.25,42.8757,44.1297,129.164,103.537,105.308,0.000672569,0.0449088,21.0015,437.145,-0.153129,0.0,0.0
388,96.75,42.5305,44.2571,130.874,103.506,105.562,0.000685399,0.044835,21.0019,437.135,-0.177678,0.0,0.0
390,97.25,41.4782,43.8474,131.767,103.533,106.504,0.000695792,0.0447689,21.0024,437.095,-0.25548,0.0,0.0
392,97.75,42.0706,44.3049,131.526,103.531,106.21,0.000695758,0.0447081,21.0029,437.095,-0.230642,0.0,0.0
394,98.25,41.9111,44.4267,129.939,103.549,106.22,0.000695731,0.0446525,21.0032,437.095,-0.229896,0.0,0.0
396,98.75,41.9125,44.2812,132.54,103.541,106.987,0.000684845,0.0446074,21.0035,437.095,-0.295589,0.0,0.0
398,99.25,42.1429,44.0686,133.396,103.555,105.391,0.000676027,0.0446124,21.0037,437.115,-0.158639,0.0,0.0
400,99.75,42.128,44.3123,133.892,103.547,106.676,0.000658723,0.0446163,21.0039,437.095,-0.268845,0.0,0.0
402,100.25,42.2213,43.77,126.779,103.578,106.23,0.000635563,0.0445839,21.0041,437.105,-0.228231,0.0,0.0
404,100.75,41.9298,43.6763,131.002,103.549,106.764,0.000616803,0.0445255,21.0042,437.125,-0.27606,0.0,0.0
406,101.25,42.0394,43.2911,130.304,103.563,106.326,0.000594625,0.044471,21.0043,437.085,-0.237746,0.0,0.0
408,101.75,42.1806,44.2296,130.406,103.575,105.761,0.000570377,0.0444205,21.0044,437.105,-0.188592,0.0,0.0
410,102.25,42.409,43.794,133.656,103.593,105.975,0.000557083,0.0443582,21.0045,437.125,-0.205295,0.0,0.0
412,102.75,42.2214,44.0808,132.187,103.585,105.365,0.000552029,0.0442884,21.0045,437.105,-0.153804,0.0,0.0
414,103.25,42.0966,43.3825,129.553,103.612,107.247,0.000560635,0.0442319,21.0046,437.075,-0.311357,0.0,0.0
416,103.75,41.9744,44.0683,142.385,103.593,105.986,0.000579038,0.044179,21.0046,437.095,-0.206177,0.0,0.0
418,104.25,41.5684,44.5912,130.449,103.607,107.114,0.000599663,0.0441297,21.0046,437.045,-0.300588,0.0,0.0
420,104.75,42.0657,43.8641,137.38,103.599,105.69,0.000621515,0.0440612,21.0047,437.095,-0.180392,0.0,0.0
422,105.25,42.3487,44.3977,133.515,103.633,104.865,0.000639216,0.0439801,21.0047,437.075,-0.106749,0.0,0.0
424,105.75,41.9607,43.973,131.056,103.612,106.542,0.000639067,0.0439144,21.0047,437.025,-0.251786,0.0,0.0
426,106.25,42.3866,44.4294,135.211,103.63,106.194,0.000638947,0.0438476,21.0047,437.055,-0.220704,0.0,0.0
428,106.75,42.0405,44.1967,127.73,103.64,105.568,0.000600249,0.0437935,21.0049,437.095,-0.166448,0.0,0.0
430,107.25,42.5968,43.6682,132.995,103.648,105.278,0.000568904,0.0437497,21.0053,437.095,-0.140941,0.0,0.0
432,107.75,42.3388,44.2334,134.544,103.64,107.379,0.000543514,0.0437142,21.0057,437.105,-0.320009,0.0,0.0
434,108.25,42.4099,43.973,132.802,103.663,105.783,0.000478368,0.0436583,21.0059,437.095,-0.182861,0.0,0.0
436,108.75,42.1146,44.3882,135.971,103.668,106.026,0.000425599,0.043613,21.0061,437.125,-0.203067,0.0,0.0
438,109.25,42.2534,44.0738,130.748,103.691,106.978,0.000359986,0.0435693,21.0063,437.095,-0.281765,0.0,0.0
440,109.75,42.4226,44.3988,131.877,103.688,106.351,0.000306839,0.0435274,21.0065,437.115,-0.228968,0.0,0.0
442,110.25,41.891,43.7282,130.346,103.692,106.011,0.00026379,0.0434863,21.0066,437.095,-0.199766,0.0,0.0
444,110.75,42.348,43.993,128.593,103.716,105.191,0.000215623,0.0434466,21.0067,437.045,-0.127554,0.0,0.0
446,111.25,42.241,44.167,131.335,103.709,105.877,0.000164641,0.0434145,21.0067,437.035,-0.186837,0.0,0.0
448,111.75,42.5195,43.8821,129.388,103.717,105.94,0.00012398,0.0433742,21.0067,437.015,-0.19143,0.0,0.0
450,112.25,42.4611,43.9235,134.765,103.74,105.989,9.16133e-05,0.0433287,21.0068,437.005,-0.193688,0.0,0.0
452,112.75,42.1556,44.2152,131.329,103.741,105.828,8.22466e-05,0.0432918,21.0068,436.985,-0.17979,0.0,0.0
454,113.25,42.1408,43.8902,131.642,103.749,105.892,6.62295e-05,0.043212,21.0068,437.015,-0.184582,0.0,0.0
456,113.75,42.3045,44.1486,131.368,103.756,106.2,5.64213e-05,0.0431025,21.0068,437.075,-0.210217,0.0,0.0
458,114.25,41.9587,44.442,133.459,103.761,105.894,5.13256e-05,0.0430208,21.0068,437.065,-0.183717,0.0,0.0
460,114.75,42.5728,43.7467,135.175,103.774,107.016,4.71981e-05,0.0429612,21.0068,437.055,-0.277811,0.0,0.0
462,115.25,42.4277,43.9554,136.637,103.773,107.948,5.27213e-05,0.0429271,21.0068,437.105,-0.356137,0.0,0.0
464,115.75,42.2297,44.3323,129.926,103.784,106.018,6.51751e-05,0.0429193,21.0068,437.135,-0.192346,0.0,0.0
466,116.25,42.5506,44.1866,128.951,103.793,107.455,8.66687e-05,0.0429203,21.0068,437.105,-0.313134,0.0,0.0
468,116.75,42.3217,44.0784,132.16,103.812,106.291,0.000114344,0.0429339,21.0068,437.045,-0.213121,0.0,0.0
470,117.25,42.227,44.113,129.91,103.813,106.6,0.000136761,0.042945,21.0068,437.105,-0.239215,0.0,0.0
472,117.75,41.9738,43.9285,133.986,103.817,106.093,0.000176685,0.0429539,21.0065,437.105,-0.195808,0.0,0.0
474,118.25,42.0341,44.1757,134.103,103.83,106.28,0.000209024,0.0429612,21.006,437.085,-0.210658,0.0,0.0
476,118.75,41.9202,44.3354,131.893,103.838,106.955,0.000249811,0.0429742,21.0055,437.105,-0.267103,0.0,0.0
478,119.25,42.1058,44.0927,128.14,103.84,106.105,0.000295983,0.0429911,21.0052,437.075,-0.194828,0.0,0.0
480,119.75,41.8294,44.1213,133.151,103.859,106.618,0.000345445,0.0430048,21.0049,437.075,-0.236723,0.0,0.0
482,120.25,41.8364,43.806,133.251,103.87,106.327,0.000396367,0.0430288,21.0047,437.095,-0.211126,0.0,0.0
484,120.75,41.9424,43.9089,131.278,103.879,106.433,0.000440154,0.0430482,21.0045,437.065,-0.219334,0.0,0.0
486,121.25,42.2876,44.0517,132.088,103.872,105.908,0.000477908,0.0430232,21.0043,437.065,-0.175292,0.0,0.0
488,121.75,42.6942,44.2364,131.708,103.894,106.491,0.000508489,0.043003,21.0042,437.095,-0.222917,0.0,0.0
490,122.25,42.319,44.3099,131.264,103.893,106.674,0.000522464,0.0429581,21.0041,437.085,-0.238485,0.0,0.0
492,122.75,41.9197,43.8266,130.611,103.915,108.101,0.000524068,0.0428961,21.004,437.075,-0.356603,0.0,0.0
494,123.25,41.7717,44.1254,131.271,103.912,106.684,0.000513309,0.0428601,21.004,437.055,-0.237709,0.0,0.0
496,123.75,42.0461,44.1844,133.457,103.927,106.13,0.000493742,0.0428437,21.0039,437.065,-0.189423,0.0,0.0
498,124.25,41.9959,43.9325,132.032,103.923,105.998,0.000472817,0.0428305,21.0039,437.115,-0.178502,0.0,0.0
500,124.75,42.6763,43.9511,134.44,103.954,105.515,0.000451301,0.0428198,21.0038,437.125,-0.134558,0.0,0.0
502,125.25,41.7913,43.7679,133.539,103.939,106.323,0.000433872,0.0428111,21.0038,437.105,-0.204745,0.0,0.0
504,125.75,42.1922,44.2439,131.677,103.968,106.779,0.000419755,0.0428113,21.0038,437.045,-0.240859,0.0,0.0
506,126.25,42.2596,44.5982,129.344,103.975,106.212,0.000410223,0.0428178,21.0038,437.025,-0.192235,0.0,0.0
508,126.75,42.4658,43.87,131.732,103.98,107.297,0.000404216,0.0428088,21.0037,437.025,-0.283502,0.0,0.0
510,127.25,42.3166,43.7863,132.325,103.985,107.32,0.000401252,0.0427886,21.0037,437.045,-0.285041,0.0,0.0
512,127.75,42.3695,44.4573,131.529,104.005,105.933,0.000400565,0.0427795,21.0037,437.015,-0.165931,0.0,0.0
514,128.25,42.1604,44.024,133.213,104.009,106.461,0.000400008,0.0427785,21.0037,437.035,-0.210344,0.0,0.0
516,128.75,42.6231,44.0823,132.763,104.03,106.368,0.000402729,0.0427777,21.0037,436.975,-0.20069,0.0,0.0
518,129.25,41.8543,44.033,134.47,104.018,106.843,0.000407788,0.042777,21.0037,436.985,-0.241973,0.0,0.0
520,129.75,42.1198,44.0339,131.393,104.038,107.01,0.000411886,0.0427765,21.0037,437.065,-0.254348,0.0,0.0
522,130.25,41.9,43.7565,131.413,104.043,107.122,0.000418822,0.0427896,21.0037,437.055,-0.263308,0.0,0.0
524,130.75,42.1661,44.3074,134.39,104.064,106.288,0.000424441,0.0428002,21.0037,437.075,-0.190969,0.0,0.0
526,131.25,42.3283,43.6925,133.742,104.077,106.22,0.000433815,0.0427874,21.0037,437.085,-0.184039,0.0,0.0
528,131.75,42.2914,43.9382,131.529,104.082,106.281,0.000441408,0.0427578,21.0037,437.105,-0.18883,0.0,0.0
530,132.25,41.8298,43.7591,125.39,104.079,106.161,0.000451176,0.0427338,21.0037,437.105,-0.178855,0.0,0.0
532,132.75,42.4381,44.5149,130.446,104.101,107.181,0.000459088,0.0427144,21.0037,437.095,-0.26324,0.0,0.0
534,133.25,41.7713,43.4554,132.081,104.106,106.644,0.000465497,0.0426986,21.0037,437.095,-0.21749,0.0,0.0
536,133.75,42.2908,43.7129,132.611,104.125,106.134,0.000464976,0.0426859,21.0037,437.005,-0.172504,0.0,0.0
538,134.25,42.451,43.9756,129.091,104.116,107.261,0.000459414,0.0426755,21.0041,437.075,-0.268725,0.0,0.0
540,134.75,42.0544,43.832,131.123,104.136,106.346,0.00044793,0.0426536,21.0044,437.135,-0.189651,0.0,0.0
542,135.25,42.0881,44.066,129.281,104.127,106.51,0.000432347,0.0426359,21.0047,437.125,-0.204266,0.0,0.0
544,135.75,41.735,43.9763,134.171,104.162,107.001,0.000419725,0.0426215,21.0049,437.055,-0.242818,0.0,0.0
546,136.25,42.2023,43.8934,127.285,104.144,107.018,0.000396247,0.0426312,21.0051,437.035,-0.245784,0.0,0.0
548,136.75,42.2,43.3728,134.16,104.161,107.256,0.000377229,0.0426584,21.0052,437.055,-0.264371,0.0,0.0
550,137.25,42.1937,44.3483,132.949,104.172,106.72,0.000354852,0.0426733,21.0054,437.035,-0.21818,0.0,0.0
552,137.75,42.0694,44.251,129.374,104.178,107.261,0.00033045,0.0426789,21.0054,437.045,-0.263343,0.0,0.0
554,138.25,42.1356,43.8254,132.622,104.183,107.115,0.000302447,0.0426834,21.0055,436.965,-0.250547,0.0,0.0
556,138.75,42.6063,43.8321,131.895,104.196,107.041,0.000272349,0.0427142,21.0056,436.995,-0.243263,0.0,0.0
558,139.25,42.2562,43.2374,130.1,104.194,106.642,0.00024417,0.0427392,21.0056,436.955,-0.209669,0.0,0.0
560,139.75,42.081,43.9463,135.783,104.217,105.921,0.000217924,0.0427808,21.0057,436.995,-0.146381,0.0,0.0
562,140.25,42.384,44.1731,133.584,104.223,106.296,0.000196664,0.0428337,21.0057,437.075,-0.177912,0.0,0.0
564,140.75,42.1724,44.3314,128.734,104.231,106.572,0.000189074,0.0429052,21.0057,437.035,-0.200594,0.0,0.0
566,141.25,42.7581,44.3239,132.62,104.235,106.848,,0.0429887,,437.055,-0.223579,0.0,0.0
568,141.75,42.0575,43.9182,129.479,104.246,107.584,,0.0430421,,437.075,-0.284599,0.0,0.0
570,142.25,42.2924,43.9748,127.248,104.244,106.75,,0.0430725,,437.065,-0.214465,0.0,0.0
572,142.75,42.3211,43.8772,132.892,104.255,106.942,,0.0430972,,437.035,-0.22973,0.0,0.0
574,143.25,42.1096,43.8025,132.828,104.269,107.077,,0.0431849,,437.025,-0.239981,0.0,0.0
576,143.75,41.9605,44.5239,129.031,104.274,106.3,,0.043256,,437.035,-0.173763,0.0,0.0
578,144.25,42.7272,44.265,132.032,104.284,107.196,,,,437.025,-0.24869,0.0,0.0
580,144.75,42.0127,44.3653,127.076,104.295,107.085,,,,437.045,-0.238351,0.0,0.0
582,145.25,42.4837,44.0322,132.438,104.3,106.915,,,,437.045,-0.223588,0.0,0.0
584,145.75,42.3126,44.0306,131.92,104.319,107.122,,,,437.035,-0.239398,0.0,0.0
586,146.25,42.0833,44.1849,129.997,104.31,107.195,,,,437.045,-0.246344,0.0,0.0
588,146.75,42.0032,44.6765,132.358,104.324,106.654,,,,436.985,-0.199438,0.0,0.0
590,147.25,42.2714,44.0786,131.955,104.331,107.737,,,,436.975,-0.290062,0.0,0.0
592,147.75,42.1092,44.1127,128.784,104.348,106.744,,,,437.005,-0.204987,0.0,0.0
594,148.25,42.0402,44.3331,130.661,104.348,106.515,,,,436.965,-0.18556,0.0,0.0
596,148.75,42.6652,44.1731,130.366,104.364,106.494,,,,436.975,-0.182417,0.0,0.0
598,149.25,42.4441,44.3238,131.567,104.368,107.055,,,,437.065,-0.229527,0.0,0.0
600,149.75,41.9319,44.053,128.824,104.37,106.847,,,,437.015,-0.211835,0.0,0.0
602,150.25,42.3399,44.2108,129.798,104.381,107.808,,,,437.005,-0.291736,0.0,0.0
604,150.75,42.036,44.3542,134.692,104.386,107.084,,,,437.005,-0.230372,0.0,0.0
606,151.25,42.5186,44.4216,130.811,104.405,106.712,,,,437.015,-0.197275,0.0,0.0
608,151.75,42.8688,43.539,128.441,104.415,107.374,,,,436.975,-0.252279,0.0,0.0