File: 01_Data/Fiberglass_Insulation_R30_Paper_Faced/Cone/Fiberglass_Insulation_R30_Paper_Faced_Cone_HF50Scan_220509_R3.csv
Names,Time,Stack TC,Smoke TC,Exh Press,Smoke Comp,Smoke Meas,CO Meter,CO2 Meter,O2 Meter,Sample Mass,Ext Coeff,Start Test,Flame Verif
Chan Gain,,500,500,1,1,1,1,1,1,1,1,1.0,1.0
Offset,,0,0,0.134207,0,0,0,0,0,0,0,0.0,0.0
Gain,,1,1,25.011,13.8443,15.4071,1,1,1,1.00079,1.02936,1.0,1.0
Units,sec,C,C,Pa,%,%,%,%,%,g,/m,,
Baseline,,31.0505,32.0022,138.056,103.875,104.104,0.000314975,0.041263,21.0076,-445.664,-0.0198737,,
2,0.25,30.0289,31.1882,136.922,104.127,104.079,0.000695376,0.049555,20.9923,438.736,0.00420557,0.0,0.0
4,0.75,29.2011,29.9281,141.689,104.123,103.935,0.000892823,0.0546229,20.986,438.576,0.0163668,0.0,0.0
6,1.25,28.9195,29.9716,139.367,104.131,103.749,0.00106472,0.0587279,20.9833,439.006,0.0331351,0.0,0.0
8,1.75,28.8466,29.8146,120.798,104.141,106.191,0.00135867,0.0796953,20.9389,438.376,-0.17595,0.0,1.0
10,2.25,28.3922,29.7775,126.906,104.149,107.383,0.00175686,0.0966789,20.9029,438.666,-0.27608,0.0,1.0
12,2.75,29.6259,30.4097,114.947,104.157,105.381,0.00207939,0.119291,20.8575,438.346,-0.105445,0.0,1.0
14,3.25,29.2815,30.1949,111.079,104.16,98.0009,0.00248175,0.145576,20.8208,437.955,0.550395,0.0,1.0
16,3.75,29.7486,30.3698,111.175,104.158,84.2394,0.00280766,0.169372,20.791,438.206,1.91645,0.0,1.0
18,4.25,30.4729,30.7435,118.36,104.158,84.4491,0.00307164,0.180703,20.7669,438.006,1.894,0.0,1.0
20,4.75,31.7685,31.5958,124.782,104.179,99.5088,0.00348763,0.198764,20.7474,438.016,0.41417,0.0,1.0
22,5.25,32.2812,31.7752,129.428,104.165,104.451,0.00382458,0.212212,20.7316,438.056,-0.0247506,0.0,1.0
24,5.75,32.9316,32.564,128.095,104.176,106.242,0.00426474,0.220478,20.7188,437.955,-0.177304,0.0,1.0
26,6.25,33.0046,32.7826,133.754,104.176,106.457,0.00462127,0.224811,20.7164,438.016,-0.195552,0.0,1.0
28,6.75,32.9491,32.7556,132.105,104.187,105.922,0.00491006,0.22832,20.7218,437.865,-0.149098,0.0,1.0
30,7.25,32.6634,33.3862,135.778,104.21,105.62,0.00514398,0.225072,20.7262,437.875,-0.121355,0.0,0.0
32,7.75,32.8598,32.9932,131.91,104.206,105.467,0.00557393,0.222442,20.7415,437.845,-0.10853,0.0,0.0
34,8.25,32.9966,33.3759,136.399,104.195,105.791,0.00592219,0.217589,20.7539,437.895,-0.137216,0.0,0.0
36,8.75,33.4206,33.3037,134.422,104.205,104.859,0.00627681,0.211209,20.7689,437.875,-0.0564803,0.0,0.0
38,9.25,33.6808,33.537,135.301,104.222,104.856,0.00656405,0.20604,20.7854,437.865,-0.0547734,0.0,0.0
40,9.75,33.3634,33.9898,138.689,104.22,104.752,0.00680298,0.198837,20.7988,437.865,-0.0459669,0.0,0.0
42,10.25,32.9164,33.4516,133.763,104.218,104.971,0.00699651,0.190287,20.8162,437.835,-0.0650169,0.0,0.0
44,10.75,33.3934,33.5447,137.91,104.236,104.594,0.00713022,0.183361,20.8303,437.835,-0.0309811,0.0,0.0
46,11.25,33.1334,33.3748,137.939,104.242,104.961,0.00721778,0.174538,20.847,437.805,-0.0620418,0.0,0.0
48,11.75,33.7132,33.7701,136.575,104.257,105.025,0.00728871,0.16739,20.8605,437.815,-0.0662556,0.0,0.0
50,12.25,32.4118,33.0175,141.747,104.255,104.9,0.00725374,0.15964,20.8726,437.835,-0.0557243,0.0,0.0
52,12.75,33.2273,33.572,138.845,104.276,104.427,0.00722541,0.153363,20.8834,437.825,-0.0130877,0.0,0.0
54,13.25,32.3293,32.9365,137.639,104.259,104.736,0.00712023,0.147296,20.8928,437.825,-0.0412224,0.0,0.0
56,13.75,33.1484,33.3972,140.582,104.273,104.827,0.00703503,0.141498,20.9011,437.795,-0.0478712,0.0,0.0
58,14.25,32.7097,33.1563,137.764,104.272,104.408,0.00687154,0.136801,20.9088,437.855,-0.0117829,0.0,0.0
60,14.75,32.8201,33.0749,139.951,104.293,104.958,0.00673911,0.131418,20.9158,437.855,-0.0574043,0.0,0.0
62,15.25,33.11,33.1849,135.365,104.296,104.639,0.00662653,0.127058,20.9188,437.835,-0.0297218,0.0,0.0
64,15.75,32.3991,33.3764,135.24,104.302,104.861,0.00635195,0.122219,20.9279,437.815,-0.0482998,0.0,0.0
66,16.25,32.3898,33.024,133.751,104.31,104.846,0.00622798,0.118299,20.9304,437.775,-0.0462731,0.0,0.0
68,16.75,32.0772,33.0338,134.558,104.313,104.568,0.00601598,0.114277,20.9355,437.735,-0.0220569,0.0,0.0
70,17.25,32.7583,32.8122,133.302,104.321,104.583,0.00579232,0.111019,20.9396,437.735,-0.0225803,0.0,0.0
72,17.75,32.2595,33.0675,133.439,104.349,105.254,0.00556443,0.107591,20.9439,437.725,-0.077988,0.0,0.0
74,18.25,32.2588,33.3307,137.167,104.338,105.154,0.00537983,0.10613,20.9473,437.675,-0.0703065,0.0,0.0
76,18.75,32.3,32.6598,140.403,104.35,105.034,0.00515263,0.101777,20.95,437.725,-0.0590223,0.0,0.0
78,19.25,32.9527,33.1416,137.25,104.345,104.738,0.00489868,0.100483,20.9527,437.775,-0.0339232,0.0,0.0
80,19.75,32.2318,32.9996,135.178,104.361,104.89,0.00469298,0.0979346,20.9549,437.755,-0.0456905,0.0,0.0
82,20.25,32.2396,33.3401,133.037,104.361,104.771,0.00444058,0.0955699,20.9572,437.765,-0.0354036,0.0,0.0
84,20.75,32.0605,32.8808,138.732,104.377,104.656,0.00423613,0.0936546,20.9595,437.745,-0.0240857,0.0,0.0
86,21.25,31.9004,32.6022,135.895,104.367,104.901,0.00401304,0.0916251,20.9619,437.725,-0.0460729,0.0,0.0
88,21.75,31.3652,32.5694,132.115,104.386,104.981,0.00383234,0.0895511,20.9643,437.705,-0.0513466,0.0,0.0
90,22.25,32.3917,33.041,135.219,104.381,104.651,0.00367253,0.0878711,20.9664,437.625,-0.0233141,0.0,0.0
92,22.75,32.1434,32.8707,139.064,104.412,105.124,0.00354308,0.0858092,20.9683,437.735,-0.0614035,0.0,0.0
94,23.25,32.1708,32.6057,135.555,104.4,105.307,0.00343244,0.084139,20.9699,437.745,-0.078159,0.0,0.0
96,23.75,31.7654,33.2455,138.082,104.418,104.752,0.00333762,0.0824321,20.9716,437.705,-0.0288126,0.0,0.0
98,24.25,32.1925,33.1792,137.904,104.413,105.125,0.00325374,0.080731,20.9729,437.705,-0.0612967,0.0,0.0
100,24.75,32.3606,33.2452,136.951,104.419,104.958,0.00317944,0.0788732,20.9754,437.735,-0.0464375,0.0,0.0
102,25.25,32.0463,32.7211,137.928,104.411,104.882,0.00314776,0.0773684,20.9764,437.755,-0.0406531,0.0,0.0
104,25.75,31.5178,32.6682,138.522,104.435,105.2,0.00308331,0.075854,20.9782,437.705,-0.0659336,0.0,0.0
106,26.25,32.1517,32.879,135.287,104.439,105.17,0.00302186,0.0743614,20.9796,437.705,-0.0629452,0.0,0.0
108,26.75,31.545,32.7254,136.684,104.463,104.925,0.00296374,0.072922,20.9808,437.725,-0.0398839,0.0,0.0
110,27.25,31.8437,32.7767,134.505,104.459,105.147,0.00290914,0.0715488,20.9822,437.755,-0.0593267,0.0,0.0
112,27.75,31.9605,32.5694,139.97,104.462,104.712,0.00285722,0.0704365,20.9833,437.725,-0.0215676,0.0,0.0
114,28.25,31.6144,33.0018,138.217,104.455,105.32,0.00280823,0.0697393,20.9844,437.695,-0.0744253,0.0,0.0
116,28.75,31.9968,32.6058,138.177,104.476,105.138,0.00276855,0.0685471,20.9855,437.715,-0.0570994,0.0,0.0
118,29.25,31.6344,32.3574,137.169,104.475,105.314,0.0027035,0.0675815,20.9864,437.715,-0.0722257,0.0,0.0
120,29.75,31.5821,31.9947,136.814,104.479,104.854,0.00265081,0.0663897,20.9874,437.675,-0.0323843,0.0,0.0
122,30.25,31.445,32.7664,138.755,104.49,105.365,0.00260813,0.0652448,20.9884,437.685,-0.0752996,0.0,0.0
124,30.75,30.9253,32.3072,137.697,104.498,104.864,0.0024969,0.0641559,20.9892,437.685,-0.0316276,0.0,0.0
126,31.25,31.341,32.721,136.456,104.497,105.511,0.00240679,0.0632738,20.9896,437.705,-0.0871981,0.0,0.0
128,31.75,31.3466,32.4717,136.991,104.501,104.839,0.00233381,0.0622594,20.9899,437.685,-0.0291128,0.0,0.0
130,32.25,31.4174,32.4347,135.637,104.504,105.093,0.0021994,0.0614378,20.9906,437.675,-0.050735,0.0,0.0
132,32.75,31.6402,32.4624,136.714,104.528,105.027,0.00209053,0.0607722,20.9911,437.725,-0.0430739,0.0,0.0
134,33.25,32.1928,31.8013,137.571,104.518,105.13,0.00197491,0.0600109,20.9916,437.735,-0.0527621,0.0,0.0
136,33.75,31.4985,32.4091,137.306,104.521,104.756,0.00185657,0.0591941,20.9919,437.685,-0.0203037,0.0,0.0
138,34.25,31.5651,33.0216,135.828,104.526,104.915,0.00176007,0.0585325,20.9922,437.725,-0.033517,0.0,0.0
140,34.75,31.4718,32.5971,137.616,104.534,105.162,0.00168133,0.0577788,20.9929,437.685,-0.054121,0.0,0.0
142,35.25,31.5895,32.2272,139.061,104.537,105.361,0.00162457,0.0571682,20.9935,437.685,-0.0709259,0.0,0.0
144,35.75,31.3448,32.8195,137.399,104.547,105.112,0.00158491,0.0564424,20.9944,437.685,-0.0486726,0.0,0.0
146,36.25,31.6018,32.427,139.465,104.531,105.299,0.00155724,0.0558544,20.9951,437.685,-0.0660398,0.0,0.0
148,36.75,31.721,32.2746,138.597,104.536,105.166,0.00153886,0.0552994,20.9961,437.655,-0.0542206,0.0,0.0
150,37.25,31.7857,32.7082,136.781,104.561,104.894,0.00152205,0.054779,20.9969,437.675,-0.0287434,0.0,0.0
152,37.75,31.3913,32.4656,135.943,104.565,105.154,0.00151398,0.0542715,20.9973,437.675,-0.0507301,0.0,0.0
154,38.25,31.3399,33.065,140.193,104.571,105.081,0.00150017,0.0537832,20.9979,437.695,-0.0439992,0.0,0.0
156,38.75,31.2418,32.4946,136.569,104.569,104.829,0.00147445,0.0533018,20.9983,437.685,-0.0224637,0.0,0.0
158,39.25,31.7685,32.691,139.274,104.574,105.855,0.00145362,0.0528345,20.9987,437.675,-0.109889,0.0,0.0
160,39.75,31.3014,32.9187,139.099,104.572,105.075,0.00143674,0.0524561,20.9991,437.645,-0.043288,0.0,0.0
162,40.25,31.0571,32.6791,137.313,104.58,104.907,0.00140611,0.0520272,20.9993,437.615,-0.0282721,0.0,0.0
164,40.75,31.3296,32.656,135.771,104.577,105.034,0.00138131,0.0518444,20.9995,437.625,-0.0393298,0.0,0.0
166,41.25,31.7037,32.0398,134.202,104.586,105.385,0.00136242,0.051423,20.9999,437.655,-0.0687081,0.0,0.0
168,41.75,31.1621,32.6657,137.111,104.595,104.945,0.00134713,0.0510817,21.0005,437.665,-0.0301959,0.0,0.0
170,42.25,31.3543,32.5231,142.317,104.595,105.573,0.00132626,0.0507481,21.0009,437.705,-0.0840419,0.0,0.0
172,42.75,31.3541,32.3325,135.943,104.599,104.954,0.00130936,0.0504263,21.0012,437.695,-0.0306366,0.0,0.0
174,43.25,31.5554,32.2906,138.328,104.603,105.32,0.00127631,0.0501657,21.0015,437.655,-0.0617286,0.0,0.0
176,43.75,31.4182,32.5014,132.699,104.608,105.077,0.00124953,0.0498595,21.0017,437.665,-0.0403861,0.0,0.0
178,44.25,31.3801,32.0689,139.185,104.61,104.738,0.00119398,0.0496115,21.0019,437.675,-0.011029,0.0,0.0
180,44.75,31.328,32.6078,139.654,104.607,105.399,0.00114898,0.0493749,21.0021,437.685,-0.0680568,0.0,0.0
182,45.25,31.6039,31.832,136.813,104.626,104.883,0.00104529,0.0491511,21.0023,437.665,-0.0221557,0.0,0.0
184,45.75,31.5251,32.0713,138.022,104.611,105.246,0.0010174,0.0489412,21.0023,437.695,-0.0545877,0.0,0.0
186,46.25,31.6486,32.7257,136.833,104.624,105.334,0.000969704,0.0487455,21.0024,437.705,-0.061074,0.0,0.0
188,46.75,31.0532,32.596,135.938,104.62,104.889,0.000887619,0.048544,21.0024,437.605,-0.0231927,0.0,0.0
190,47.25,31.2395,32.6005,135.427,104.627,104.921,0.00082113,0.0483423,21.0025,437.575,-0.0253243,0.0,0.0
192,47.75,30.8663,32.5801,134.895,104.63,104.668,0.000757626,0.0481289,21.0025,437.605,-0.00326906,0.0,0.0
194,48.25,31.2488,31.9347,135.877,104.629,105.188,0.000706188,0.0478181,21.0026,437.655,-0.0480557,0.0,0.0
196,48.75,31.4484,32.0322,134.128,104.633,105.05,0.000664522,0.0477345,21.0026,437.615,-0.0359304,0.0,0.0
198,49.25,31.2226,32.2355,141.253,104.642,104.702,0.000630773,0.0475644,21.0026,437.595,-0.0051364,0.0,0.0
200,49.75,31.2068,32.3773,136.891,104.64,104.884,0.00060788,0.0474266,21.0026,437.615,-0.0210697,0.0,0.0
202,50.25,30.5627,32.2648,141.3,104.651,104.778,0.000593336,0.0472936,21.0027,437.595,-0.0108965,0.0,0.0
204,50.75,31.0389,32.5351,137.745,104.642,105.277,0.000600859,0.0471665,21.0027,437.595,-0.0545514,0.0,0.0
206,51.25,31.0057,32.2529,137.434,104.651,104.97,0.000606953,0.0469822,21.0027,437.615,-0.0275303,0.0,0.0
208,51.75,30.8344,32.3667,135.562,104.642,105.102,0.000626503,0.0468329,21.0027,437.645,-0.0395368,0.0,0.0
210,52.25,31.1889,32.6159,135.868,104.654,105,0.000655493,0.0466762,21.0027,437.645,-0.0297461,0.0,0.0
212,52.75,31.0211,32.1438,138.649,104.645,104.987,0.000678974,0.0465172,21.0027,437.565,-0.0294967,0.0,0.0
214,53.25,31.1195,31.7785,134.863,104.652,105.438,0.000697994,0.0463956,21.0027,437.625,-0.0675347,0.0,0.0
216,53.75,30.8835,31.8667,134.766,104.646,105.136,0.000747121,0.0463034,21.0027,437.615,-0.0421568,0.0,0.0
218,54.25,31.0258,32.4378,138.543,104.657,105.097,0.000784037,0.0462288,21.0028,437.575,-0.037898,0.0,0.0
220,54.75,31.2167,32.1965,134.521,104.667,104.92,0.000847164,0.0461684,21.0029,437.545,-0.0218174,0.0,0.0
222,55.25,31.3041,32.1249,137.078,104.66,105.134,0.00091524,0.0461194,21.003,437.605,-0.0408294,0.0,0.0
224,55.75,30.9919,32.5613,135.604,104.658,105.255,0.000970381,0.0460798,21.0031,437.595,-0.0513834,0.0,0.0
226,56.25,30.9023,32.1993,136.443,104.665,105.018,0.00101626,0.0459834,21.0031,437.615,-0.0303752,0.0,0.0
228,56.75,31.1595,31.6144,139.975,104.657,105.376,0.0010445,0.0458475,21.0032,437.615,-0.0618576,0.0,0.0
230,57.25,31.3328,32.3473,138.172,104.662,104.971,0.00105935,0.0457895,21.0032,437.615,-0.0266272,0.0,0.0
232,57.75,31.2511,31.865,139.249,104.661,105.155,0.00105864,0.0456226,21.0032,437.645,-0.0425731,0.0,0.0
234,58.25,31.0645,32.1768,137.629,104.673,104.893,0.00104661,0.0454875,21.0033,437.655,-0.019,0.0,0.0
236,58.75,30.4982,31.9021,138.666,104.67,105.112,0.00102733,0.0453644,21.0033,437.685,-0.0381336,0.0,0.0
238,59.25,31.2541,32.3152,137.703,104.678,105.706,0.00100311,0.0452647,21.0033,437.685,-0.0882697,0.0,0.0
240,59.75,30.7948,31.8247,136.7,104.678,104.643,0.000983502,0.0451568,21.0033,437.645,0.0029596,0.0,0.0
242,60.25,30.6778,31.9674,139.66,104.682,105.081,0.000967617,0.0450694,21.0033,437.615,-0.0343333,0.0,0.0
244,60.75,31.4963,31.7995,137.423,104.667,106.064,0.000927418,0.0449716,21.0033,437.595,-0.119771,0.0,0.0
246,61.25,30.8193,32.2859,139.593,104.672,105.201,0.000870259,0.0448923,21.0033,437.585,-0.0455044,0.0,0.0
248,61.75,30.9799,31.7845,136.994,104.67,105.004,0.000800474,0.044828,21.0038,437.625,-0.0287256,0.0,0.0
250,62.25,30.7269,31.5992,137.79,104.677,105.312,0.00072281,0.044776,21.0041,437.605,-0.0546267,0.0,0.0
252,62.75,30.5916,31.4926,138.32,104.674,105.537,0.000659903,0.0447339,21.0044,437.605,-0.0741676,0.0,0.0
254,63.25,30.4608,32.1288,138.036,104.681,105.457,0.000528807,0.0446726,21.0047,437.645,-0.0667436,0.0,0.0
256,63.75,30.923,32.0504,135.73,104.679,105.132,0.000493542,0.044623,21.0049,437.665,-0.0389509,0.0,0.0
258,64.25,30.9802,32.2333,137.035,104.684,104.966,0.000418794,0.0445471,21.005,437.625,-0.0243237,0.0,0.0
260,64.75,30.8111,32.3106,136.941,104.694,104.846,0.000358249,0.0444535,21.0051,437.595,-0.0131297,0.0,0.0
262,65.25,30.6171,31.8994,135.839,104.676,105.031,0.00031041,0.0443492,21.0052,437.585,-0.0305561,0.0,0.0
264,65.75,30.6617,31.4711,135.904,104.689,105.142,0.000271661,0.044239,21.0053,437.535,-0.0389606,0.0,0.0
266,66.25,31.2719,32.2009,137.184,104.691,105.069,0.000240274,0.0441117,21.0054,437.585,-0.0324804,0.0,0.0
268,66.75,30.8636,31.7015,140.054,104.705,104.941,0.00021485,0.0440774,21.0054,437.635,-0.0203943,0.0,0.0
270,67.25,30.4592,31.998,136.501,104.681,104.576,0.000182859,0.0440474,21.0055,437.625,0.00905439,0.0,0.0
272,67.75,30.6152,31.9844,134.433,104.701,104.781,0.000146688,0.0440488,21.0055,437.635,-0.0068797,0.0,0.0
274,68.25,30.7425,31.8417,138.287,104.691,105.493,0.000109793,0.0440427,21.0056,437.615,-0.0688909,0.0,0.0
276,68.75,30.4892,31.8765,141.053,104.693,105.218,7.3071e-05,0.0440314,21.0056,437.595,-0.0452118,0.0,0.0
278,69.25,30.5994,31.8365,137.52,104.693,105.219,4.58587e-05,0.0440223,21.006,437.605,-0.0452523,0.0,0.0
280,69.75,30.6464,32.128,134.66,104.69,105.415,2.60959e-05,0.0439606,21.0064,437.605,-0.0623215,0.0,0.0
282,70.25,30.3037,32.146,138.223,104.696,105.151,1.0088e-05,0.0439107,21.0065,437.565,-0.0391487,0.0,0.0
284,70.75,30.6422,31.7022,135.952,104.699,105.033,2.96031e-05,0.0438631,21.0063,437.605,-0.0287499,0.0,0.0
286,71.25,30.3566,31.9813,139.602,104.695,105.295,4.54103e-05,0.0438181,21.0062,437.645,-0.0516048,0.0,0.0
288,71.75,30.0735,31.9925,136.103,104.697,104.896,7.53247e-05,0.0437888,21.0061,437.625,-0.0170889,0.0,0.0
290,72.25,30.5168,31.3232,136.038,104.691,105.042,0.000114955,0.0437715,21.006,437.595,-0.0302175,0.0,0.0
292,72.75,30.6414,31.4417,136.081,104.703,104.954,0.000154031,0.0437361,21.006,437.595,-0.0215957,0.0,0.0
294,73.25,30.4152,31.723,138.706,104.686,105.475,0.000191961,0.0436882,21.0059,437.575,-0.0677998,0.0,0.0
296,73.75,30.9323,32.3283,137.623,104.704,105.166,0.000222684,0.0436493,21.0059,437.605,-0.0397487,0.0,0.0
298,74.25,30.395,31.8604,135.98,104.696,104.81,0.000238058,0.0435965,21.0058,437.575,-0.00982906,0.0,0.0
300,74.75,30.7841,32.1024,137.436,104.699,105.098,0.000241951,0.0435344,21.0058,437.585,-0.0343662,0.0,0.0
302,75.25,30.6629,31.8386,138.04,104.697,105.01,0.000245104,0.0434841,21.0058,437.575,-0.0269911,0.0,0.0
304,75.75,30.7053,31.896,136.9,104.7,106.058,0.000238786,0.0434433,21.0058,437.595,-0.116294,0.0,0.0
306,76.25,30.9524,32.5119,139.528,104.692,105.32,0.000225682,0.0434103,21.0057,437.615,-0.0539965,0.0,0.0
308,76.75,30.9429,31.7355,139.032,104.702,105.035,0.000217603,0.043343,21.0056,437.605,-0.0287008,0.0,0.0
310,77.25,30.6711,31.6937,139.222,104.691,105.316,0.000213339,0.0432884,21.0055,437.615,-0.0537425,0.0,0.0
312,77.75,30.4242,31.8387,139.955,104.703,105.189,0.000214323,0.043237,21.0058,437.575,-0.0417588,0.0,0.0
314,78.25,30.9038,31.8044,134.685,104.696,105.565,0.000219112,0.043189,21.0061,437.565,-0.0746098,0.0,0.0
316,78.75,30.3726,31.6985,139.261,104.704,105.404,0.000227429,0.0431501,21.0064,437.555,-0.0602288,0.0,0.0
318,79.25,30.4549,31.8921,136.762,104.698,105.827,0.000238159,0.0431543,21.0065,437.575,-0.0968408,0.0,0.0
320,79.75,30.6342,31.5877,139.797,104.698,104.851,0.000247485,0.0431898,21.0067,437.555,-0.0132057,0.0,0.0
322,80.25,30.9062,31.7965,135.383,104.697,105.183,0.00025561,0.0432399,21.0068,437.625,-0.0417447,0.0,0.0
324,80.75,30.8128,31.7618,136.807,104.708,104.846,0.000262191,0.0432998,21.0069,437.545,-0.0118907,0.0,0.0
326,81.25,30.5968,31.5443,135.775,104.691,105.386,0.000267521,0.043334,21.007,437.565,-0.0597108,0.0,0.0
328,81.75,30.4934,31.9617,141.06,104.702,105.127,0.0002561,0.0433489,21.0071,437.575,-0.0365794,0.0,0.0
330,82.25,30.6412,32.1771,137.423,104.701,105.188,0.000246849,0.0433396,21.0071,437.525,-0.0419005,0.0,0.0
332,82.75,30.7395,31.9257,137.164,104.713,105.496,0.000222501,0.0433127,21.0072,437.505,-0.067315,0.0,0.0
334,83.25,30.7925,31.9726,139.88,104.695,105.269,0.000202779,0.043291,21.0073,437.515,-0.0493501,0.0,0.0
336,83.75,30.1397,31.5905,138.082,104.7,105.321,0.000183194,0.0432327,21.0075,437.505,-0.0533885,0.0,0.0
338,84.25,30.0439,31.4918,135.188,104.694,105.84,0.00016733,0.0431855,21.0076,437.565,-0.0983646,0.0,0.0
340,84.75,30.5666,32.098,136.663,104.692,104.923,0.000176149,0.0431473,21.0077,437.495,-0.0198733,0.0,0.0
342,85.25,30.1414,31.8351,137.619,104.693,105.022,0.000183292,0.0431306,21.0078,437.505,-0.0283704,0.0,0.0
344,85.75,30.6437,32.0983,140.728,104.708,105.382,0.000220401,0.0430957,21.0079,437.495,-0.0579308,0.0,0.0
346,86.25,30.3084,32.1239,137.745,104.685,105.092,0.00025046,0.0430482,21.0079,437.505,-0.0350437,0.0,0.0
348,86.75,30.6827,32.061,136.497,104.691,105.162,0.00032302,0.0430097,21.008,437.585,-0.0405548,0.0,0.0
350,87.25,31.267,31.9891,136.298,104.676,105.258,0.000342539,0.0429378,21.008,437.525,-0.050099,0.0,0.0
352,87.75,30.724,32.2039,137.951,104.693,105.117,0.000375917,0.0428796,21.0081,437.555,-0.0364956,0.0,0.0
354,88.25,30.0476,32.3477,139.746,104.678,105.812,0.000419842,0.042846,21.0081,437.525,-0.0973059,0.0,0.0
356,88.75,30.5637,32.002,139.152,104.683,105.31,0.000455421,0.0428188,21.0081,437.565,-0.0538378,0.0,0.0
358,89.25,30.4714,31.3138,135.076,104.682,105.173,0.000483034,0.0428103,21.0081,437.535,-0.0422449,0.0,0.0
360,89.75,30.2533,31.5222,141.494,104.684,105.431,0.0005054,0.0428005,21.0081,437.515,-0.0642005,0.0,0.0
362,90.25,30.9234,31.6006,136.774,104.675,105.154,0.000519897,0.0427765,21.0081,437.505,-0.041217,0.0,0.0
364,90.75,31.1432,32.0994,134.985,104.68,104.882,0.000531639,0.0427354,21.0077,437.565,-0.0174086,0.0,0.0
366,91.25,30.8694,31.7898,140.584,104.676,104.95,0.000536325,0.0426807,21.0074,437.575,-0.0236411,0.0,0.0
368,91.75,30.5827,32.1277,139.652,104.672,104.944,0.00054012,0.0426171,21.0071,437.585,-0.0233659,0.0,0.0
370,92.25,30.6259,31.6276,140.404,104.67,105.225,0.000534798,0.0425871,21.0069,437.575,-0.047822,0.0,0.0
372,92.75,30.1027,31.5344,136.788,104.676,105.412,0.000525697,0.042582,21.0068,437.585,-0.0632422,0.0,0.0
374,93.25,30.2954,31.8528,136.791,104.662,105.344,0.000510076,0.0425921,21.0064,437.555,-0.0586393,0.0,0.0
376,93.75,30.6383,31.7376,137.705,104.671,105.396,0.000489998,0.0426131,21.0062,437.555,-0.0623057,0.0,0.0
378,94.25,30.1047,31.7613,139.259,104.66,105.157,0.000473735,0.0426302,21.0059,437.555,-0.0427672,0.0,0.0
380,94.75,30.5127,31.8027,138.624,104.675,105.71,0.000460562,0.0426169,21.0058,437.555,-0.088773,0.0,0.0
382,95.25,30.0663,31.3672,134.866,104.665,105.5,0.000420975,0.0426061,21.0056,437.575,-0.0717949,0.0,0.0
384,95.75,31.2576,31.9196,139.277,104.678,105.632,0.000388908,0.0426011,21.0055,437.585,-0.0819219,0.0,0.0
386,96.25,30.0969,32.01,138.535,104.671,105.822,0.000337652,0.0425926,21.0056,437.555,-0.0988081,0.0,0.0
388,96.75,30.5599,31.5496,136.052,104.674,105.37,0.000296134,0.0425857,21.006,437.585,-0.0598354,0.0,0.0
390,97.25,30.2771,31.647,136.797,104.654,105.084,0.000244455,0.0425259,21.0062,437.565,-0.0370582,0.0,0.0
392,97.75,30.2286,31.4903,133.579,104.672,104.826,0.000202595,0.0424775,21.0064,437.555,-0.0132828,0.0,0.0
394,98.25,30.4195,31.7352,142.407,104.659,104.874,0.000168688,0.0424383,21.0066,437.615,-0.0185066,0.0,0.0
396,98.75,30.6167,31.5222,138.232,104.672,104.915,0.000140021,0.04242,21.0069,437.605,-0.0208571,0.0,0.0
398,99.25,30.8786,31.6069,137.58,104.657,105.56,0.000116801,0.0424053,21.0073,437.615,-0.0775602,0.0,0.0
400,99.75,30.3719,31.9785,135.918,104.669,105.183,0.000116041,0.0424204,21.0076,437.605,-0.0443026,0.0,0.0
402,100.25,30.6596,31.8308,134.459,104.654,105.52,0.000115425,0.0424327,21.0079,437.595,-0.0744329,0.0,0.0
404,100.75,30.7448,31.9925,138.205,104.647,104.885,0.000129372,0.0424426,21.0081,437.575,-0.0204952,0.0,0.0
406,101.25,30.6965,31.6139,138.994,104.678,105.287,0.000140668,0.0424507,21.0083,437.505,-0.0524535,0.0,0.0
408,101.75,30.5059,32.0645,138.469,104.643,104.828,0.000149819,0.0424572,21.0084,437.565,-0.0159603,0.0,0.0
410,102.25,30.7017,31.8924,134.322,104.65,105.318,0.000175295,0.0424489,21.0083,437.615,-0.0575197,0.0,0.0
412,102.75,30.3839,32.1269,132.596,104.655,105.761,0.000195931,0.0424422,21.008,437.595,-0.0948994,0.0,0.0
414,103.25,30.2537,31.7359,138.567,104.637,105.358,0.000223489,0.0424368,21.0077,437.545,-0.0620402,0.0,0.0
416,103.75,30.2603,31.822,136.173,104.635,105.448,0.000245812,0.0424324,21.0075,437.555,-0.0698384,0.0,0.0
418,104.25,30.8114,31.8202,136.723,104.647,105.535,0.000275944,0.0424217,21.0074,437.565,-0.0762993,0.0,0.0
420,104.75,31.2295,32.1376,137.186,104.631,105.528,0.000300352,0.0424066,21.0072,437.545,-0.0770852,0.0,0.0
422,105.25,31.0526,31.6802,135.642,104.638,104.889,0.000327736,0.0423944,21.0071,437.515,-0.021621,0.0,0.0
424,105.75,30.5788,31.8701,136.673,104.628,105.584,0.000356771,0.0423774,21.007,437.465,-0.0821631,0.0,0.0
426,106.25,31.1234,31.6577,135.664,104.631,105.246,0.000389177,0.0423572,21.007,437.495,-0.0528379,0.0,0.0
428,106.75,30.8111,31.8757,136.567,104.624,105.213,0.000423424,0.0423266,21.0069,437.475,-0.050709,0.0,0.0
430,107.25,30.7858,32.0466,139.59,104.619,105.266,0.000460056,0.0422889,21.0069,437.505,-0.055629,0.0,0.0
432,107.75,30.4841,31.7843,138.825,104.619,104.88,0.000497731,0.0422584,21.0073,437.505,-0.0224557,0.0,0.0
434,108.25,30.1768,31.9639,138.939,104.611,105.44,0.000528248,0.0422337,21.0076,437.485,-0.0713089,0.0,0.0
436,108.75,30.3253,31.5853,138.209,104.611,104.635,0.000562497,0.0422137,21.0079,437.475,-0.00207499,0.0,0.0
438,109.25,30.4266,31.5756,135.705,104.621,105.001,0.000598817,0.0421839,21.0081,437.535,-0.0327073,0.0,0.0
440,109.75,30.7278,31.9754,135.871,104.611,104.75,0.000631415,0.0421598,21.0082,437.515,-0.0119656,0.0,0.0
442,110.25,30.7295,32.0311,134.112,104.621,105.196,0.000660679,0.0421403,21.0084,437.505,-0.0495124,0.0,0.0
444,110.75,30.8176,31.4303,138.385,104.618,105.057,0.000682476,0.0421245,21.0085,437.495,-0.0378537,0.0,0.0
446,111.25,31.1243,31.6107,134.915,104.618,105.119,0.000698415,0.0421117,21.0086,437.525,-0.0431469,0.0,0.0
448,111.75,30.3967,31.3969,140.663,104.602,104.825,0.000708784,0.0421013,21.0087,437.515,-0.0192541,0.0,0.0
450,112.25,30.2611,31.6156,134.179,104.621,105.03,0.000714894,0.0420858,21.0087,437.535,-0.0352907,0.0,0.0
452,112.75,30.7001,31.5411,137.221,104.612,104.845,0.000719844,0.0420668,21.0088,437.515,-0.0201203,0.0,0.0
454,113.25,30.6798,31.6392,137.265,104.615,105.139,0.000726268,0.0420514,21.0088,437.505,-0.0450609,0.0,0.0
456,113.75,30.0817,31.5897,137.498,104.604,105.009,0.000731472,0.0420389,21.0088,437.485,-0.0348898,0.0,0.0
458,114.25,30.4107,31.3374,139.294,104.608,105.168,0.000738101,0.0420288,21.0089,437.495,-0.048184,0.0,0.0
460,114.75,30.0792,31.8169,136.879,104.596,105.516,0.000743472,0.0420613,21.0089,437.525,-0.0791058,0.0,0.0
462,115.25,30.7454,32.3337,136.687,104.608,105.429,0.000747821,0.0420876,21.0089,437.475,-0.0705614,0.0,0.0
464,115.75,29.8953,31.5761,138.525,104.606,105.58,0.000742892,0.0421089,21.0089,437.485,-0.0836611,0.0,0.0
466,116.25,30.0898,31.2871,137.865,104.607,105.281,0.0007389,0.0421261,21.0089,437.505,-0.0580136,0.0,0.0
468,116.75,30.2042,31.8053,137.12,104.593,105.225,0.000728041,0.0421045,21.0089,437.555,-0.0543435,0.0,0.0
470,117.25,30.6927,31.5005,136.762,104.61,105.489,0.000712384,0.0420548,21.0089,437.535,-0.0756046,0.0,0.0
472,117.75,29.8842,31.5693,137.779,104.611,105.567,0.000690811,0.0420146,21.009,437.535,-0.0821381,0.0,0.0
474,118.25,30.7267,31.1458,142.133,104.595,105.262,0.000665335,0.0419956,21.0085,437.565,-0.0574216,0.0,0.0
476,118.75,30.7539,31.7435,134.082,104.583,105.851,0.000632005,0.0419802,21.0082,437.525,-0.108763,0.0,0.0
478,119.25,30.7067,31.8119,136.784,104.607,105.547,0.000593583,0.0419605,21.0079,437.565,-0.0808124,0.0,0.0
480,119.75,30.4307,31.4191,135.842,104.592,105.818,0.000535949,0.0419382,21.0077,437.545,-0.105229,0.0,0.0
482,120.25,30.1083,32.0848,139.264,104.599,105.388,0.000489266,0.0419344,21.0075,437.555,-0.0679001,0.0,0.0
484,120.75,30.7949,32.0801,135.432,104.588,105.235,,0.0419442,,437.555,-0.0557427,0.0,0.0
486,121.25,30.6636,32.1169,134.411,104.6,105.285,,0.0419592,,437.505,-0.0589605,0.0,0.0
488,121.75,30.8416,31.6811,136.063,104.601,105.27,,0.0419778,,437.515,-0.0575603,0.0,0.0
490,122.25,30.2948,31.8387,138.111,104.595,105.215,,0.0419857,,437.495,-0.0533468,0.0,0.0
492,122.75,30.8684,31.8369,135.478,104.588,105.455,,0.0419857,,437.475,-0.0745664,0.0,0.0
494,123.25,30.6151,31.6978,139.703,104.596,104.949,,0.0419857,,437.465,-0.0304146,0.0,0.0
496,123.75,30.5544,31.5996,134.244,104.583,105.033,,,,437.495,-0.0387795,0.0,0.0
498,124.25,30.9928,31.8892,140.585,104.586,104.877,,,,437.515,-0.0250987,0.0,0.0
500,124.75,30.5175,32.0234,138.263,104.58,105.264,,,,437.565,-0.0589004,0.0,0.0
502,125.25,30.7554,32.0376,133.067,104.599,105.269,,,,437.555,-0.057622,0.0,0.0
504,125.75,30.2706,31.7709,142.847,104.584,105.628,,,,437.525,-0.0897346,0.0,0.0
506,126.25,30.8884,31.9844,139.572,104.588,104.914,,,,437.565,-0.0280729,0.0,0.0
508,126.75,30.8691,31.5539,138.667,104.579,105.233,,,,437.545,-0.0562702,0.0,0.0
510,127.25,30.2919,31.7998,139.552,104.596,105.091,,,,437.535,-0.0426596,0.0,0.0
512,127.75,30.3721,31.848,138.248,104.582,105.241,,,,437.485,-0.0566644,0.0,0.0
514,128.25,30.2897,31.7765,134.988,104.589,105.257,,,,437.455,-0.0574888,0.0,0.0
516,128.75,30.7576,32.1688,138.684,104.575,105.325,,,,437.505,-0.0645431,0.0,0.0
518,129.25,30.3151,31.5868,134.443,104.582,105.099,,,,437.565,-0.0445497,0.0,0.0
520,129.75,30.8211,31.7338,136.826,104.569,105.041,,,,437.495,-0.0406699,0.0,0.0
522,130.25,30.7254,32.027,136.582,104.576,105.23,,,,437.505,-0.0562837,0.0,0.0
524,130.75,30.4799,31.9275,136.881,104.578,105.1,,,,437.505,-0.0449592,0.0,0.0
526,131.25,30.6348,31.7805,135.697,104.579,104.97,,,,437.505,-0.0337298,0.0,0.0