File: 01_Data/Fiberglass_Insulation_R30_Paper_Faced/Cone/Fiberglass_Insulation_3_Cone_HF75Scan_220509_R2.csv
Names,Time,Stack TC,Smoke TC,Exh Press,Smoke Comp,Smoke Meas,CO Meter,CO2 Meter,O2 Meter,Sample Mass,Ext Coeff,Start Test,Flame Verif
Chan Gain,,500,500,1,1,1,1,1,1,1,1,1.0,1.0
Offset,,0,0,0.134207,0,0,0,0,0,0,0,0.0,0.0
Gain,,1,1,25.011,13.8443,15.4071,1,1,1,1.00079,1.02936,1.0,1.0
Units,sec,C,C,Pa,%,%,%,%,%,g,/m,,
Baseline,,42.8775,44.3903,133.206,104.692,106.698,0.000256913,0.0419559,21.005,-447.875,-0.171359,,
2,0.25,41.931,43.7766,137.832,104.629,105.688,0.00134949,0.0775908,20.9693,441.038,-0.090899,0.0,0.0
4,0.75,40.8825,42.2538,128.05,104.628,106.064,0.00155643,0.1096,20.946,440.798,-0.123084,0.0,0.0
6,1.25,40.8077,42.0939,97.7361,104.629,105.098,0.00201515,0.135528,20.9038,440.738,-0.0404212,0.0,1.0
8,1.75,39.8458,42.2565,99.5679,104.627,92.7677,0.00238671,0.156529,20.8484,440.658,1.08629,0.0,1.0
10,2.25,41.0906,42.2514,110.974,104.627,78.6066,0.00279135,0.19015,20.8035,440.538,2.58196,0.0,1.0
12,2.75,41.8436,42.8829,117.451,104.623,92.0478,0.00301297,0.217383,20.7844,440.548,1.15627,0.0,1.0
14,3.25,43.3013,43.3415,120.313,104.637,102.049,0.00347331,0.248846,20.7517,440.478,0.226193,0.0,1.0
16,3.75,44.2589,44.1563,122.71,104.621,106.361,0.00391943,0.260146,20.7252,440.548,-0.148931,0.0,1.0
18,4.25,45.0124,44.7449,122.907,104.626,107.59,0.00436774,0.269299,20.7038,440.457,-0.252239,0.0,1.0
20,4.75,44.9733,44.9703,123.746,104.622,108.124,0.00480912,0.273085,20.7079,440.538,-0.297281,0.0,1.0
22,5.25,44.9148,45.5268,132.011,104.622,107.349,0.0052474,0.272888,20.7112,440.467,-0.232374,0.0,1.0
24,5.75,45.5364,46.0844,129.116,104.621,107.91,0.00567508,0.272803,20.7261,440.508,-0.279543,0.0,1.0
26,6.25,44.1935,44.6865,126.385,104.624,107.952,0.0060215,0.266441,20.7382,440.478,-0.282716,0.0,1.0
28,6.75,44.3055,44.3248,130.636,104.637,106.703,0.00638252,0.261287,20.748,440.427,-0.176557,0.0,0.0
30,7.25,44.1917,44.4709,130.809,104.627,107.512,0.00674732,0.252057,20.763,440.447,-0.245613,0.0,0.0
32,7.75,44.6159,45.1251,127.279,104.629,107.181,0.00706395,0.24458,20.7751,440.387,-0.217548,0.0,0.0
34,8.25,44.7299,45.3073,127.513,104.62,108.093,0.00733945,0.233886,20.7906,440.377,-0.29491,0.0,0.0
36,8.75,44.0012,45.5836,126.577,104.635,106.874,0.00754873,0.225224,20.8032,440.357,-0.191175,0.0,0.0
38,9.25,44.099,45.015,128.03,104.65,107.407,0.00770575,0.214456,20.8169,440.407,-0.234755,0.0,0.0
40,9.75,43.4782,44.8204,131.6,104.642,107.174,0.00783294,0.205734,20.8279,440.357,-0.2159,0.0,0.0
42,10.25,43.7861,44.8773,133.443,104.635,107.738,0.00784318,0.197071,20.839,440.317,-0.263892,0.0,0.0
44,10.75,43.5932,44.9503,132.815,104.628,107.904,0.00785148,0.188613,20.8498,440.277,-0.278414,0.0,0.0
46,11.25,43.8664,44.643,132.54,104.642,108.056,0.00775939,0.180722,20.8595,440.287,-0.289908,0.0,0.0
48,11.75,44.0245,44.8439,129.973,104.637,107.666,0.00768481,0.173394,20.8682,440.297,-0.257642,0.0,0.0
50,12.25,43.747,45.1217,130.555,104.631,108.18,0.00756138,0.167458,20.8752,440.287,-0.301189,0.0,0.0
52,12.75,44.1186,45.3357,130.283,104.63,106.623,0.00740469,0.160669,20.8831,440.257,-0.170371,0.0,0.0
54,13.25,43.7158,45.0326,131.032,104.64,106.786,0.00727777,0.15517,20.8895,440.287,-0.183266,0.0,0.0
56,13.75,43.771,45.2614,129.787,104.646,107.167,0.00710105,0.14965,20.8946,440.257,-0.214978,0.0,0.0
58,14.25,43.2778,44.9792,132.796,104.659,107.886,0.00689138,0.144219,20.901,440.237,-0.274179,0.0,0.0
60,14.75,43.6437,45.198,129.078,104.639,107.224,0.00666156,0.139084,20.9062,440.217,-0.22039,0.0,0.0
62,15.25,43.8179,44.961,127.171,104.643,107.285,0.00642143,0.13426,20.9121,440.247,-0.225171,0.0,0.0
64,15.75,43.8655,44.869,132.772,104.644,106.943,0.00616648,0.130353,20.9169,440.247,-0.196207,0.0,0.0
66,16.25,44.0602,44.8054,128.539,104.655,106.833,0.00590556,0.126315,20.9221,440.217,-0.186002,0.0,0.0
68,16.75,43.9675,45.0795,130.357,104.645,106.612,0.00565661,0.122258,20.9263,440.227,-0.168146,0.0,0.0
70,17.25,43.5061,44.6241,130.451,104.656,107.716,0.00542112,0.118292,20.932,440.227,-0.260217,0.0,0.0
72,17.75,43.3029,44.8037,130.48,104.642,106.671,0.00521289,0.114468,20.9365,440.217,-0.173374,0.0,0.0
74,18.25,43.9628,44.5892,133.237,104.653,107.084,0.00502849,0.11137,20.9411,440.227,-0.207303,0.0,0.0
76,18.75,43.5079,44.6365,132.533,104.664,107.796,0.00487071,0.107766,20.9447,440.217,-0.266258,0.0,0.0
78,19.25,43.1646,45.0756,134.302,104.66,106.835,0.00473534,0.104848,20.9486,440.177,-0.185723,0.0,0.0
80,19.75,43.5252,44.7383,132.619,104.659,106.672,0.00462569,0.101599,20.9517,440.187,-0.172071,0.0,0.0
82,20.25,43.8587,45.0538,129.939,104.675,107.83,0.0045149,0.0989675,20.9543,440.197,-0.268146,0.0,0.0
84,20.75,43.6317,44.7661,135.298,104.663,107.203,0.00440537,0.0960776,20.9572,440.187,-0.21653,0.0,0.0
86,21.25,43.1901,44.8577,130.02,104.677,108.701,0.00429146,0.093389,20.9596,440.187,-0.340589,0.0,0.0
88,21.75,43.1821,44.4682,134.337,104.666,106.687,0.00423097,0.0908981,20.9608,440.177,-0.17269,0.0,0.0
90,22.25,43.6035,44.5226,133.581,104.675,106.797,0.00412754,0.0888805,20.9629,440.137,-0.181194,0.0,0.0
92,22.75,43.2434,44.8755,133.924,104.664,107.374,0.00401538,0.0865452,20.9647,440.167,-0.230861,0.0,0.0
94,23.25,43.7746,44.6996,130.42,104.672,106.767,0.003899,0.0846536,20.9661,440.167,-0.178978,0.0,0.0
96,23.75,43.1685,44.612,133.706,104.675,107.33,0.00380473,0.0827603,20.9681,440.117,-0.226199,0.0,0.0
98,24.25,43.3717,44.9087,131.513,104.676,107.115,0.00370003,0.0809016,20.9697,440.157,-0.207994,0.0,0.0
100,24.75,43.0686,45.1047,130.671,104.675,107.279,0.00358973,0.0801092,20.9712,440.107,-0.221887,0.0,0.0
102,25.25,42.9556,45.0404,134.422,104.681,106.962,0.00349524,0.0782882,20.9724,440.117,-0.19466,0.0,0.0
104,25.75,43.0382,44.3779,131.848,104.677,106.999,0.00341407,0.0768132,20.9743,440.117,-0.198087,0.0,0.0
106,26.25,43.1698,44.5346,130.381,104.683,106.864,0.00334125,0.0756184,20.9758,440.097,-0.186222,0.0,0.0
108,26.75,43.5497,44.7466,133.326,104.679,106.786,0.00327589,0.0742976,20.977,440.087,-0.179949,0.0,0.0
110,27.25,42.8888,44.7215,134.715,104.692,106.917,0.00322296,0.07291,20.978,440.127,-0.189865,0.0,0.0
112,27.75,42.8903,44.4142,128.058,104.683,106.508,0.00315951,0.071786,20.9788,440.117,-0.15602,0.0,0.0
114,28.25,43.1541,44.813,133.03,104.699,106.924,0.00308961,0.0705064,20.9799,440.117,-0.189917,0.0,0.0
116,28.75,42.9055,44.5171,132.599,104.706,107.015,0.0030195,0.0693405,20.9808,440.057,-0.196958,0.0,0.0
118,29.25,42.9942,44.7777,136.129,104.705,106.995,0.00295058,0.0682795,20.9819,440.087,-0.195325,0.0,0.0
120,29.75,42.5607,44.4178,133.103,104.699,106.526,0.00288384,0.0674202,20.9829,440.057,-0.156187,0.0,0.0
122,30.25,42.6993,44.3988,133.999,104.713,106.18,0.00281997,0.0663827,20.9841,440.037,-0.125567,0.0,0.0
124,30.75,42.93,44.5474,131.884,104.696,106.735,0.00276823,0.0655423,20.985,440.047,-0.174156,0.0,0.0
126,31.25,42.4444,45.0067,135.824,104.704,107.024,0.00272144,0.0647251,20.9858,440.097,-0.197934,0.0,0.0
128,31.75,42.6605,44.5086,132.558,104.709,106.962,0.00268355,0.0639403,20.9864,440.087,-0.192219,0.0,0.0
130,32.25,42.8592,44.4472,131.685,104.717,107.183,0.0026626,0.0632185,20.987,440.097,-0.210126,0.0,0.0
132,32.75,43.4738,44.8162,130.844,104.711,107.347,0.00264564,0.0625563,20.9874,440.077,-0.224562,0.0,0.0
134,33.25,43.1346,44.6318,133.862,104.718,107.562,0.00263841,0.0620199,20.9876,440.077,-0.241959,0.0,0.0
136,33.75,42.8724,44.7662,129.471,104.72,106.866,0.00263457,0.0614354,20.9879,440.077,-0.183211,0.0,0.0
138,34.25,42.9625,44.4879,128.937,104.739,107.021,0.00263147,0.060962,20.9881,440.037,-0.194556,0.0,0.0
140,34.75,42.6518,44.3142,131.536,104.724,106.946,0.00262896,0.0604558,20.9883,440.047,-0.189561,0.0,0.0
142,35.25,42.3622,44.1676,136.155,104.731,107.023,0.00262692,0.0600458,20.9885,440.017,-0.195483,0.0,0.0
144,35.75,42.674,44.5399,132.989,104.724,107.592,0.00262527,0.0596347,20.9886,440.037,-0.243975,0.0,0.0
146,36.25,42.7364,44.2116,130.923,104.743,107.811,0.00261174,0.0594221,20.9887,440.027,-0.260669,0.0,0.0
148,36.75,42.2301,44.2257,140.712,104.743,107.805,0.00260079,0.0590586,20.9888,440.017,-0.260157,0.0,0.0
150,37.25,42.7499,44.7805,136.446,104.733,107.049,0.00258421,0.0586852,20.9889,439.997,-0.197482,0.0,0.0
152,37.75,41.8683,43.8974,137.904,104.727,107.457,0.00256386,0.0583118,20.9889,439.967,-0.232388,0.0,0.0
154,38.25,42.6481,44.0404,134.037,104.75,107.607,0.00254372,0.0580093,20.989,440.027,-0.242979,0.0,0.0
156,38.75,42.6491,44.1098,133.965,104.754,106.453,0.0025274,0.0576009,20.9894,440.057,-0.145308,0.0,0.0
158,39.25,42.2769,44.1774,130.443,104.746,106.931,0.00251419,0.05727,20.9898,440.037,-0.186396,0.0,0.0
160,39.75,42.4954,44.3213,131.101,104.755,107.063,0.00250349,0.0569375,20.9901,440.047,-0.196818,0.0,0.0
162,40.25,42.5315,43.8569,128.172,104.77,106.741,0.00249417,0.0566101,20.9904,439.997,-0.168299,0.0,0.0
164,40.75,42.7194,44.2079,132.254,104.751,107.316,0.00248605,0.0563163,20.991,440.037,-0.218491,0.0,0.0
166,41.25,42.0642,43.9755,131.493,104.763,107.452,0.00247948,0.0560525,20.9915,440.037,-0.228821,0.0,0.0
168,41.75,42.2542,44.4192,132.024,104.761,107.483,0.00246389,0.0557815,20.992,440.047,-0.23165,0.0,0.0
170,42.25,42.7149,43.7685,134.164,104.764,107.083,0.00244204,0.0555104,20.9923,440.037,-0.197642,0.0,0.0
172,42.75,42.5048,44.6768,131.13,104.767,107.811,0.00241537,0.0552478,20.9926,440.017,-0.258632,0.0,0.0
174,43.25,42.5847,44.6023,129.521,104.776,107.308,0.00238569,0.0549965,20.9932,440.007,-0.215631,0.0,0.0
176,43.75,42.4458,44.0268,128.998,104.77,107.061,0.00236165,0.0547929,20.9938,440.007,-0.195309,0.0,0.0
178,44.25,42.1755,44.3776,134.416,104.77,107.555,0.00232757,0.0545463,20.9942,440.017,-0.236926,0.0,0.0
180,44.75,42.2506,43.9907,132.404,104.765,107.134,0.00229997,0.0543466,20.9946,440.037,-0.20193,0.0,0.0
182,45.25,42.2963,44.2638,131.672,104.781,107.158,0.00226666,0.0540846,20.9949,440.037,-0.202567,0.0,0.0
184,45.75,42.4931,43.8557,132.01,104.781,107.96,0.00223969,0.0537821,20.9951,440.047,-0.269866,0.0,0.0
186,46.25,42.4397,44.2436,129.755,104.789,108.045,0.00220203,0.0535371,20.9953,440.057,-0.276326,0.0,0.0
188,46.75,41.9913,44.4198,133.979,104.783,107.217,0.00217152,0.0532435,20.9954,440.057,-0.207296,0.0,0.0
190,47.25,42.7799,44.6574,133.164,104.798,106.84,0.00214681,0.0530056,20.9955,440.067,-0.174285,0.0,0.0
192,47.75,42.289,44.2193,130.355,104.796,107.609,0.00209399,0.0526362,20.9959,440.047,-0.239132,0.0,0.0
194,48.25,42.0625,43.2829,132.97,104.792,108.18,0.0020512,0.052337,20.9963,440.007,-0.287305,0.0,0.0
196,48.75,42.2064,44.4976,131.072,104.794,106.74,0.00198971,0.0519451,20.9967,439.987,-0.166147,0.0,0.0
198,49.25,42.3486,43.4484,131.974,104.815,107.059,0.00191575,0.0516277,20.997,439.967,-0.191214,0.0,0.0
200,49.75,42.5343,43.9757,133.72,104.815,106.993,0.00185584,0.0513705,20.9973,439.977,-0.185737,0.0,0.0
202,50.25,41.8731,43.4859,132.773,104.818,107.084,0.00175399,0.0509856,20.9977,439.987,-0.193062,0.0,0.0
204,50.75,42.482,44.0378,131.036,104.828,107.12,0.00164409,0.0506738,20.9983,440.027,-0.195353,0.0,0.0
206,51.25,41.9863,43.4979,131.465,104.826,107.904,0.00153042,0.0503498,20.9987,440.027,-0.261252,0.0,0.0
208,51.75,41.9751,43.968,132.877,104.834,107.646,0.00143835,0.050023,20.9991,440.017,-0.238972,0.0,0.0
210,52.25,42.0332,44.2803,130.052,104.831,107.709,0.00132146,0.0497583,20.9996,440.007,-0.24455,0.0,0.0
212,52.75,42.0804,43.9127,132.719,104.824,107.551,0.00122679,0.0494624,21.0003,440.047,-0.231951,0.0,0.0
214,53.25,42.5759,44.0856,130.402,104.84,106.711,0.00112957,0.0492227,21.0008,440.037,-0.159714,0.0,0.0
216,53.75,42.3724,43.401,132.519,104.844,107.483,0.00105082,0.0489335,21.0012,440.037,-0.224515,0.0,0.0
218,54.25,42.6771,44.16,133.125,104.845,107.19,0.000942938,0.0486992,21.0017,440.037,-0.199764,0.0,0.0
220,54.75,42.1534,44.1226,130.883,104.838,107.422,0.00091126,0.0484552,21.0018,440.037,-0.219849,0.0,0.0
222,55.25,42.0023,43.9359,134.752,104.851,107.096,0.00085709,0.0482575,21.002,440.007,-0.191291,0.0,0.0
224,55.75,42.1858,43.9052,131.741,104.853,106.756,0.000808132,0.0480023,21.0022,439.997,-0.162405,0.0,0.0
226,56.25,41.8972,43.849,130.567,104.845,106.934,0.000763903,0.0477957,21.0024,439.977,-0.178152,0.0,0.0
228,56.75,42.4779,43.762,131.891,104.852,107.837,0.000723634,0.0475925,21.0025,439.967,-0.253482,0.0,0.0
230,57.25,42.4711,44.2779,130.275,104.869,108.306,0.000687016,0.047312,21.0026,439.937,-0.291233,0.0,0.0
232,57.75,41.7658,43.1738,132.442,104.863,107.341,0.000653546,0.0472366,21.0027,439.997,-0.210868,0.0,0.0
234,58.25,42.018,43.8537,132.668,104.869,107.156,0.000623008,0.0470125,21.0027,440.007,-0.1948,0.0,0.0
236,58.75,42.2275,43.8313,130.502,104.872,108.099,0.000593829,0.0468311,21.0028,440.027,-0.273675,0.0,0.0
238,59.25,41.7567,43.658,136.4,104.872,107.51,0.000566196,0.0466627,21.0024,440.007,-0.224368,0.0,0.0
240,59.75,42.2499,43.9575,133.18,104.877,106.815,0.000538738,0.046507,21.002,439.967,-0.165301,0.0,0.0
242,60.25,42.1632,44.128,131.957,104.866,106.987,0.000511928,0.0463309,21.0018,439.957,-0.180818,0.0,0.0
244,60.75,41.8546,43.6312,134.653,104.893,107.581,0.000494654,0.0461432,21.0016,439.947,-0.228511,0.0,0.0
246,61.25,41.5695,43.6701,135.53,104.888,106.288,0.000484658,0.0460056,21.0014,439.957,-0.119766,0.0,0.0
248,61.75,41.8766,43.742,131.342,104.897,106.603,0.000476562,0.0459069,21.0013,439.957,-0.145688,0.0,0.0
250,62.25,41.6481,44.0918,135.928,104.881,107.541,0.000483335,0.0458269,21.0012,439.997,-0.226211,0.0,0.0
252,62.75,41.9652,43.9228,131.138,104.912,107.882,0.000500818,0.0457622,21.0013,439.957,-0.252096,0.0,0.0
254,63.25,41.7382,43.4078,132.199,104.898,107.875,0.000514979,0.0457097,21.0016,439.987,-0.252706,0.0,0.0
256,63.75,41.5948,43.7815,130.08,104.917,107.688,0.000528862,0.0456537,21.0019,439.897,-0.235352,0.0,0.0
258,64.25,42.3595,44.0492,132.883,104.91,107.484,0.000534781,0.0456083,21.002,439.787,-0.218884,0.0,0.0
260,64.75,42.0999,43.8688,130.626,104.918,107.964,0.000544902,0.0455444,21.0022,439.877,-0.258395,0.0,0.0
262,65.25,41.7223,43.4453,138.828,104.908,107.569,0.000543449,0.0454926,21.0023,439.957,-0.226172,0.0,0.0
264,65.75,41.9444,43.7993,135.23,104.926,107.052,0.000542272,0.0454507,21.0025,440.027,-0.181169,0.0,0.0
266,66.25,41.7931,43.3662,131.21,104.939,106.789,0.000535287,0.0454096,21.0026,439.987,-0.157769,0.0,0.0
268,66.75,41.8409,43.7944,131.783,104.94,107.658,0.00052963,0.0453699,21.0026,439.947,-0.230865,0.0,0.0
270,67.25,42.2259,43.4016,138.449,104.926,107.577,0.000529872,0.045353,21.0027,440.007,-0.225244,0.0,0.0
272,67.75,41.8499,43.785,133.315,104.933,106.964,0.000530069,0.045324,21.0028,440.037,-0.173052,0.0,0.0
274,68.25,41.7718,43.7043,129.757,104.935,107.601,0.000535307,0.0453005,21.0028,439.997,-0.226532,0.0,0.0
276,68.75,41.8093,43.4224,133.292,104.953,108.06,0.000544122,0.0452002,21.0028,439.987,-0.263433,0.0,0.0
278,69.25,41.47,43.5724,128.727,104.942,106.771,0.000551261,0.0451189,21.0029,439.937,-0.156001,0.0,0.0
280,69.75,41.965,43.844,132.38,104.954,107.123,0.00056149,0.0450173,21.0029,439.957,-0.18468,0.0,0.0
282,70.25,41.6181,43.4769,133.058,104.949,107.508,0.000573776,0.0449029,21.0029,439.957,-0.217478,0.0,0.0
284,70.75,42.0673,43.5703,130.271,104.962,108.155,0.000583728,0.0448031,21.0029,439.967,-0.270566,0.0,0.0
286,71.25,42.3433,43.9485,133.031,104.954,107.468,0.00059433,0.0447159,21.0029,439.947,-0.21372,0.0,0.0
288,71.75,42.4588,44.0682,133.218,104.971,108.682,0.000605205,0.0446452,21.0029,439.967,-0.313697,0.0,0.0
290,72.25,41.6824,43.5974,130.937,104.958,107.465,0.000612743,0.044588,21.0029,439.957,-0.213155,0.0,0.0
292,72.75,42.4495,43.7498,132.432,104.972,107.317,0.000617705,0.0445416,21.0034,439.927,-0.19947,0.0,0.0
294,73.25,41.5656,42.3197,130.923,104.971,107.541,0.000621724,0.0445041,21.0038,439.987,-0.218388,0.0,0.0
296,73.75,41.971,44.2699,130.523,104.968,108.775,0.000612994,0.0444808,21.004,439.957,-0.321647,0.0,0.0
298,74.25,42.0813,43.6925,130.7,104.97,107.593,0.000605922,0.0444683,21.0043,439.967,-0.222804,0.0,0.0
300,74.75,41.9163,43.8901,131.546,104.974,107.633,0.000586925,0.044444,21.0044,439.977,-0.225868,0.0,0.0
302,75.25,41.7281,43.7217,130.358,104.979,107.505,0.000571537,0.0444114,21.0044,439.977,-0.21466,0.0,0.0
304,75.75,41.8254,44.0224,130.575,104.981,107.47,0.000554631,0.044385,21.0044,439.937,-0.211555,0.0,0.0
306,76.25,41.7996,43.7189,128.505,104.98,107.57,0.000536939,0.044323,21.0044,439.927,-0.219999,0.0,0.0
308,76.75,41.9483,43.8956,139.125,104.991,107.709,0.000522608,0.0442727,21.0044,439.957,-0.230805,0.0,0.0
310,77.25,41.2031,43.4456,132.93,104.98,107.451,0.000504654,0.0441906,21.0044,439.957,-0.210045,0.0,0.0
312,77.75,42.2373,43.7296,130.489,104.993,108.227,0.000484402,0.0441241,21.0044,440.007,-0.273917,0.0,0.0
314,78.25,41.9423,43.5642,133.334,104.988,109.228,0.00046546,0.0440845,21.0044,439.987,-0.357522,0.0,0.0
316,78.75,41.8006,43.7612,131.212,104.991,107.23,0.000447833,0.0440652,21.0044,439.997,-0.190513,0.0,0.0
318,79.25,42.2275,43.8787,132.258,104.994,107.711,0.000433555,0.0440497,21.0044,439.987,-0.230705,0.0,0.0
320,79.75,42.2135,43.8854,134.146,105.002,107.377,0.000426811,0.0439964,21.0044,439.977,-0.20195,0.0,0.0
322,80.25,42.4308,44.0655,131.914,104.997,107.408,0.000421349,0.0439532,21.0044,439.997,-0.204998,0.0,0.0
324,80.75,41.8682,43.6608,131.891,105.002,107.156,0.000431392,0.0439182,21.0044,439.977,-0.183423,0.0,0.0
326,81.25,42.0927,43.4456,134.517,104.995,107.296,0.000439526,0.0438899,21.0044,439.997,-0.195688,0.0,0.0
328,81.75,41.2893,43.2863,133.795,104.991,106.61,0.00045335,0.043867,21.0044,439.997,-0.138139,0.0,0.0
330,82.25,41.995,43.636,133.875,105.011,107.46,0.000464548,0.0438619,21.0044,439.987,-0.208145,0.0,0.0
332,82.75,41.7297,43.6252,131.915,105.011,106.673,0.000472412,0.0438579,21.0044,439.997,-0.141726,0.0,0.0
334,83.25,41.9967,43.7937,134.149,105.006,107.37,0.000478782,0.0438275,21.0044,439.987,-0.201033,0.0,0.0
336,83.75,41.9303,43.6442,133.879,105.016,107.844,0.000483942,0.0438028,21.0044,440.037,-0.240004,0.0,0.0
338,84.25,41.6695,43.4847,130.787,105.015,108.464,0.000489327,0.0437829,21.0044,439.977,-0.291737,0.0,0.0
340,84.75,41.863,43.3302,134.195,105.021,107.386,0.000493689,0.0437667,21.0044,439.957,-0.201142,0.0,0.0
342,85.25,42.0383,44.042,133.725,105.031,107.511,0.000505585,0.0437536,21.0045,439.947,-0.210741,0.0,0.0
344,85.75,41.7724,43.6573,131.013,105.023,107.348,0.000515221,0.043743,21.0047,439.937,-0.197721,0.0,0.0
346,86.25,42.089,43.0464,133.188,105.017,107.517,0.000526836,0.0437416,21.0048,439.957,-0.212416,0.0,0.0
348,86.75,42.1045,43.5093,132.087,105.024,107.677,0.000539673,0.0437468,21.0049,439.977,-0.22529,0.0,0.0
350,87.25,41.3893,43.6152,133.436,105.025,106.895,0.000550071,0.043751,21.005,439.937,-0.159329,0.0,0.0
352,87.75,42.0288,43.4055,132.548,105.026,107.331,0.000558493,0.0437552,21.005,439.897,-0.196003,0.0,0.0
354,88.25,42.2095,43.6321,133.18,105.038,106.825,0.000563411,0.0437586,21.0051,439.957,-0.152327,0.0,0.0
356,88.75,41.626,44.0294,131.426,105.035,107.676,0.000565679,0.0437613,21.0051,439.977,-0.224267,0.0,0.0
358,89.25,41.9008,43.7023,131.407,105.042,107.856,0.000564977,0.0437636,21.0051,439.977,-0.238699,0.0,0.0
360,89.75,41.6701,43.5373,130.269,105.04,106.874,0.000562122,0.0437511,21.0052,439.967,-0.156274,0.0,0.0
362,90.25,41.2494,44.0027,131.27,105.042,107.131,0.00055981,0.0437281,21.0052,439.967,-0.177832,0.0,0.0
364,90.75,41.9917,43.8198,137.426,105.05,107.039,0.000553493,0.0437096,21.0052,439.967,-0.169372,0.0,0.0
366,91.25,41.7326,43.6947,132.521,105.045,107.304,0.000544376,0.0437352,21.0052,439.937,-0.192111,0.0,0.0
368,91.75,41.8956,43.7611,134.284,105.046,107.556,0.000533819,0.0437559,21.0052,439.917,-0.21326,0.0,0.0
370,92.25,41.5841,43.1423,127.837,105.053,107.783,0.000522411,0.0437727,21.0052,439.927,-0.231688,0.0,0.0
372,92.75,41.9714,43.3824,130.646,105.055,107.588,0.000505936,0.0437863,21.0053,439.947,-0.215106,0.0,0.0
374,93.25,41.6732,43.2717,130.212,105.062,107.47,0.000492591,0.0437838,21.0053,439.967,-0.204615,0.0,0.0
376,93.75,41.3672,43.5039,134.005,105.056,107.334,0.000481782,0.0437817,21.0053,439.977,-0.193701,0.0,0.0
378,94.25,41.4886,43.9611,129.965,105.056,107.462,0.000473026,0.0437658,21.0053,439.977,-0.204454,0.0,0.0
380,94.75,41.328,43.4859,133.077,105.055,107.946,0.000445445,0.0437401,21.0051,439.947,-0.245125,0.0,0.0
382,95.25,41.7977,43.3084,130.932,105.057,107.514,0.000423104,0.0437192,21.0048,439.957,-0.208801,0.0,0.0
384,95.75,41.9426,43.7695,131.476,105.047,107.607,0.000396575,0.0437023,21.0046,439.957,-0.217453,0.0,0.0
386,96.25,42.0297,43.9859,130.099,105.061,107.831,0.000375086,0.0436886,21.0044,439.947,-0.234939,0.0,0.0
388,96.75,41.8762,43.6306,130.457,105.057,107.85,0.000362753,0.0436918,21.0043,439.927,-0.236952,0.0,0.0
390,97.25,42.0157,43.6926,132.059,105.059,107.717,0.000357329,0.0437072,21.0041,439.917,-0.225627,0.0,0.0
392,97.75,41.6305,43.4209,134.711,105.058,107.115,0.000352935,0.0437197,21.0041,439.897,-0.175029,0.0,0.0
394,98.25,41.5957,44.0383,129.789,105.057,107.174,0.000375895,0.0437434,21.004,439.917,-0.180171,0.0,0.0
396,98.75,42.0264,44.2113,131.121,105.066,107.25,0.000394493,0.0437626,21.0039,439.907,-0.185823,0.0,0.0
398,99.25,41.905,43.7394,132.103,105.056,107.93,0.000419205,0.0437425,21.0039,439.887,-0.243755,0.0,0.0
400,99.75,41.9945,43.4039,132.666,105.062,107.74,0.000439222,0.043694,21.0038,439.897,-0.227264,0.0,0.0
402,100.25,42.1972,43.4415,134.976,105.062,107.53,0.000450358,0.0436548,21.0038,439.907,-0.209632,0.0,0.0
404,100.75,41.8875,43.8795,132.475,105.061,107.061,0.000454808,0.0436095,21.0038,439.937,-0.170292,0.0,0.0
406,101.25,41.6939,43.6803,133.85,105.066,107.909,0.000450798,0.0435728,21.0037,439.917,-0.241076,0.0,0.0
408,101.75,41.7034,43.4104,131.667,105.066,108.137,0.000440697,0.0435359,21.0037,439.907,-0.260174,0.0,0.0
410,102.25,41.4779,43.8046,130.141,105.077,107.929,0.000429343,0.0434996,21.0037,439.897,-0.241785,0.0,0.0
412,102.75,41.5853,43.6534,129.447,105.066,108.047,0.000417292,0.0434916,21.0037,439.947,-0.252635,0.0,0.0
414,103.25,41.6585,43.5972,129.533,105.084,107.039,0.000401823,0.0435044,21.0037,439.957,-0.166507,0.0,0.0
416,103.75,41.3757,43.7769,132.148,105.066,107.759,0.000384155,0.0435148,21.0037,439.947,-0.228553,0.0,0.0
418,104.25,42.0585,43.9193,131.423,105.092,107.369,0.000369845,0.0435232,21.0037,439.957,-0.193618,0.0,0.0
420,104.75,42.2575,43.6874,133.983,105.075,107.591,0.000344309,0.0435014,21.0037,439.937,-0.213639,0.0,0.0
422,105.25,41.7434,43.6495,131.271,105.081,107.47,0.000311074,0.0434581,21.0037,439.907,-0.20306,0.0,0.0
424,105.75,42.1914,43.4238,131.129,105.081,107.163,0.000273384,0.0434231,21.0037,439.907,-0.177186,0.0,0.0
426,106.25,41.5355,43.5637,133.003,105.094,107.353,0.000233164,0.043354,21.0036,439.907,-0.192016,0.0,0.0
428,106.75,42.2273,43.2635,131.771,105.089,107.436,0.000200585,0.043298,21.0036,439.887,-0.199485,0.0,0.0
430,107.25,41.6575,43.277,133.896,105.1,107.665,0.000150139,0.0432256,21.0036,439.887,-0.217693,0.0,0.0
432,107.75,41.632,43.9331,129.926,105.078,107.568,0.000109277,0.0431669,21.0036,439.907,-0.211526,0.0,0.0
434,108.25,41.946,43.3865,133.185,105.1,108.452,6.29474e-05,0.0431194,21.0039,439.917,-0.283424,0.0,0.0
436,108.75,41.5102,43.3735,130.551,105.095,107.077,2.54206e-05,0.0431352,21.0043,439.927,-0.168663,0.0,0.0
438,109.25,41.9732,43.1627,130.931,105.101,108.036,-9.78707e-06,0.0431479,21.0046,439.937,-0.248716,0.0,0.0
440,109.75,42.0498,44,131.807,105.101,107.59,-3.83053e-05,0.0431511,21.0048,439.917,-0.211346,0.0,0.0
442,110.25,42.1172,43.5607,135.008,105.111,107.384,-5.29858e-05,0.0431472,21.0051,439.907,-0.193213,0.0,0.0
444,110.75,41.7055,43.5536,131.032,105.103,107.894,-6.4877e-05,0.0431299,21.0052,439.917,-0.236695,0.0,0.0
446,111.25,41.9234,43.7889,132.216,105.115,107.346,-7.45088e-05,0.0431029,21.0054,439.927,-0.189648,0.0,0.0
448,111.75,41.9338,44.0312,132.207,105.109,107.356,-4.62231e-05,0.043054,21.0055,439.917,-0.190986,0.0,0.0
450,112.25,42.0815,43.4744,131.701,105.113,108.136,-2.33116e-05,0.0430144,21.0056,439.957,-0.25603,0.0,0.0
452,112.75,42.1002,43.5702,133.988,105.106,108.38,2.89555e-05,0.0429752,21.0056,439.957,-0.276997,0.0,0.0
454,113.25,42.2977,43.8226,132.326,105.111,106.736,7.12919e-05,0.042937,21.0057,439.947,-0.138525,0.0,0.0
456,113.75,41.8862,43.6362,133.055,105.108,107.332,0.000129681,0.0429275,21.0057,439.947,-0.189114,0.0,0.0
458,114.25,42.1257,43.4576,134.115,105.117,107.367,0.000176976,0.042939,21.0058,439.937,-0.191167,0.0,0.0
460,114.75,41.7003,43.6017,129.475,105.112,107.846,0.000238192,0.0429483,21.0058,439.927,-0.231882,0.0,0.0
462,115.25,42.3171,43.6905,127.986,105.102,108.17,0.000287777,0.0429017,21.0058,439.857,-0.259797,0.0,0.0
464,115.75,42.0958,43.2613,135.717,105.103,107.407,0.000346357,0.0428639,21.0059,439.917,-0.195837,0.0,0.0
466,116.25,41.8708,43.5761,134.976,105.118,107.45,0.000410382,0.0428197,21.0059,439.937,-0.19813,0.0,0.0
468,116.75,41.8105,44.135,133.509,105.108,107.296,0.000462242,0.042784,21.0059,439.867,-0.186068,0.0,0.0
470,117.25,41.8666,43.8141,131.614,105.114,108.401,0.000504249,0.0427835,21.0059,439.877,-0.277958,0.0,0.0
472,117.75,42.0906,43.757,134.511,105.108,107.254,,0.0428089,,439.817,-0.18247,0.0,0.0
474,118.25,41.5438,43.4896,130.524,105.115,107.772,,0.04287,,439.887,-0.22537,0.0,0.0
476,118.75,41.6172,43.4786,133.122,105.116,107.636,,0.0429196,,439.947,-0.213866,0.0,0.0
478,119.25,41.5475,43.2603,136.578,105.113,107.689,,0.0429597,,439.907,-0.218615,0.0,0.0
480,119.75,41.7485,43.6113,131.902,105.115,107.776,,0.0429923,,439.917,-0.225721,0.0,0.0
482,120.25,41.9903,43.9357,131.069,105.106,107.1,,0.0429508,,439.917,-0.169662,0.0,0.0
484,120.75,42.1084,44.0274,132.549,105.105,107.343,,,,439.907,-0.190238,0.0,0.0
486,121.25,41.8126,43.8521,132.622,105.106,107.606,,,,439.907,-0.212291,0.0,0.0
488,121.75,41.435,43.0779,134.397,105.108,106.889,,,,439.917,-0.15174,0.0,0.0
490,122.25,41.6657,43.7869,132.983,105.113,107.337,,,,439.927,-0.189075,0.0,0.0
492,122.75,41.7308,43.7644,132.303,105.127,107.589,,,,439.937,-0.209056,0.0,0.0
494,123.25,41.774,43.6979,132.484,105.098,107.268,,,,439.927,-0.184528,0.0,0.0
496,123.75,41.8047,43.5856,131.122,105.114,107.605,,,,439.927,-0.211447,0.0,0.0
498,124.25,41.9033,43.8566,130.642,105.111,108.318,,,,439.887,-0.271429,0.0,0.0
500,124.75,41.9385,43.7284,133.212,105.113,107.932,,,,439.907,-0.238974,0.0,0.0
502,125.25,41.7645,43.4669,128.862,105.095,109.436,,,,439.907,-0.365497,0.0,0.0
504,125.75,41.2878,43.3307,130.868,105.098,108.609,,,,439.957,-0.296744,0.0,0.0
506,126.25,41.7058,43.4555,132.867,105.097,107.897,,,,439.967,-0.237439,0.0,0.0
508,126.75,41.0178,43.5339,131.003,105.108,107.257,,,,439.947,-0.182711,0.0,0.0
510,127.25,41.7781,43.5427,131.307,105.096,108.261,,,,439.947,-0.26788,0.0,0.0
512,127.75,42.0221,43.6958,133.647,105.091,107.489,,,,439.957,-0.203732,0.0,0.0
514,128.25,41.0814,43.3328,130.065,105.09,107.346,,,,439.947,-0.191749,0.0,0.0
515,128.5,41.742,43.8368,130.583,105.103,107.344,,,,439.937,-0.190426,0.0,0.0