File: 01_Data/Fiberglass_Insulation_R30_Paper_Faced/Cone/Fiberglass_Insulation_R30_Paper_Faced_Cone_HF75Scan_220509_R1.csv
Names,Time,Stack TC,Smoke TC,Exh Press,Smoke Comp,Smoke Meas,CO Meter,CO2 Meter,O2 Meter,Sample Mass,Ext Coeff,Start Test,Flame Verif
Chan Gain,,500,500,1,1,1,1,1,1,1,1,1.0,1.0
Offset,,0,0,0.134207,0,0,0,0,0,0,0,0.0,0.0
Gain,,1,1,25.011,13.8443,15.4071,1,1,1,1.00079,1.02936,1.0,1.0
Units,sec,C,C,Pa,%,%,%,%,%,g,/m,,
Baseline,,42.7356,44.3096,132.942,104.814,106.837,0.00051114,0.0431875,20.9977,-447.756,-0.172545,,
2,0.25,42.0559,43.2632,134.444,104.727,106.596,0.00114298,0.0606838,20.9856,437.645,-0.159755,0.0,0.0
4,0.75,40.1559,41.9002,139.635,104.736,106.465,0.00155032,0.0779579,20.968,438.266,-0.147874,0.0,0.0
6,1.25,39.9333,41.603,110.732,104.724,107.373,0.0020095,0.101923,20.9538,438.566,-0.225608,0.0,1.0
8,1.75,40.6149,42.2582,115.796,104.741,103.832,0.00249774,0.121335,20.8923,438.226,0.0786872,0.0,1.0
10,2.25,40.5464,42.1051,105.967,104.74,87.7578,0.00289321,0.137058,20.8426,436.735,1.59728,0.0,1.0
12,2.75,41.1537,41.9581,111.893,104.727,82.4687,0.00347311,0.171098,20.8022,437.375,2.15748,0.0,1.0
14,3.25,42.0557,42.7554,117.774,104.728,90.7793,0.00394282,0.19867,20.7696,437.075,1.29061,0.0,1.0
16,3.75,42.7751,43.5516,118.396,104.715,99.8342,0.00452225,0.220164,20.7431,437.025,0.431006,0.0,1.0
18,4.25,43.6252,43.5419,124.403,104.728,106.078,0.00499159,0.236819,20.7217,437.205,-0.115652,0.0,1.0
20,4.75,44.0907,44.443,127.714,104.723,108.157,0.00556048,0.250309,20.7127,436.885,-0.291357,0.0,1.0
22,5.25,44.7237,44.6034,125.746,104.726,107.339,0.00602128,0.255039,20.7128,437.275,-0.222578,0.0,1.0
24,5.75,44.4686,44.993,131.899,104.723,107.612,0.00655649,0.25887,20.7189,436.905,-0.245669,0.0,1.0
26,6.25,43.6177,44.448,125.348,104.719,107.821,0.00699001,0.256769,20.7292,437.185,-0.263575,0.0,1.0
28,6.75,44.2537,44.4587,131.889,104.718,107.22,0.00734116,0.255067,20.7376,437.035,-0.213221,0.0,1.0
30,7.25,44.7057,44.7087,130.312,104.733,108.186,0.00770494,0.249186,20.7483,437.055,-0.292914,0.0,1.0
32,7.75,44.6574,45.3461,128.124,104.723,107.595,0.0079996,0.244422,20.7605,437.025,-0.244248,0.0,1.0
34,8.25,44.2987,44.9133,126.415,104.722,107.656,0.00821042,0.238205,20.7731,436.955,-0.249525,0.0,0.0
36,8.75,44.0285,45.378,130.713,104.722,107.872,0.00835613,0.231047,20.7858,436.985,-0.267611,0.0,0.0
38,9.25,44.6098,45.5804,129.515,104.718,107.336,0.0083924,0.223009,20.7987,436.885,-0.223033,0.0,0.0
40,9.75,44.3362,45.4851,131.253,104.719,107.682,0.00842177,0.214481,20.8114,436.935,-0.251873,0.0,0.0
42,10.25,44.5786,45.3756,130.911,104.714,107.71,0.00838938,0.207574,20.8168,436.865,-0.254715,0.0,0.0
44,10.75,44.4631,45.5021,132.667,104.71,106.832,0.008334,0.198265,20.8308,436.895,-0.181187,0.0,0.0
46,11.25,44.2308,45.3099,131.858,104.717,107.084,0.00824366,0.190724,20.8422,436.855,-0.20188,0.0,0.0
48,11.75,44.1209,45.2832,131.11,104.71,106.875,0.00812956,0.183131,20.8545,436.845,-0.1848,0.0,0.0
50,12.25,44.1003,45.0192,128.049,104.707,106.605,0.00803714,0.175643,20.8645,436.865,-0.162264,0.0,0.0
52,12.75,44.4341,45.5487,130.806,104.697,106.881,0.00786733,0.167638,20.8737,436.845,-0.186413,0.0,0.0
54,13.25,44.0591,45.428,131.168,104.711,107.307,0.00772979,0.164225,20.8822,436.845,-0.221126,0.0,0.0
56,13.75,44.6758,45.906,131.824,104.7,107.013,0.00761838,0.158389,20.8891,436.815,-0.197309,0.0,0.0
58,14.25,44.2257,45.1757,126.318,104.701,108.435,0.00741104,0.15186,20.8964,436.845,-0.316458,0.0,0.0
60,14.75,44.4252,45.4968,131.004,104.697,106.896,0.00724309,0.145634,20.9024,436.865,-0.187684,0.0,0.0
62,15.25,44.2742,45.6144,130.744,104.7,107.145,0.00703746,0.139747,20.9079,436.845,-0.208374,0.0,0.0
64,15.75,44.3618,45.8192,134.047,104.708,107.627,0.00687089,0.13498,20.9129,436.795,-0.248319,0.0,0.0
66,16.25,44.4284,45.5919,136.218,104.701,106.696,0.00667147,0.130083,20.9182,436.785,-0.17042,0.0,0.0
68,16.75,44.7546,45.6094,133.947,104.701,106.851,0.00650994,0.125185,20.9235,436.785,-0.183539,0.0,0.0
70,17.25,43.3753,45.2411,133.307,104.688,106.825,0.00633326,0.121218,20.9285,436.735,-0.182486,0.0,0.0
72,17.75,43.6206,45.1466,130.69,104.697,106.619,0.00619016,0.116629,20.9331,436.715,-0.164296,0.0,0.0
74,18.25,43.4423,44.4551,129.744,104.702,106.688,0.00601239,0.112913,20.9369,436.755,-0.169595,0.0,0.0
76,18.75,43.9133,44.7387,134.144,104.69,106.531,0.0058684,0.108864,20.9413,436.755,-0.15739,0.0,0.0
78,19.25,43.6072,45.1913,135.969,104.7,107.48,0.00572057,0.105584,20.9453,436.715,-0.236656,0.0,0.0
80,19.75,43.6391,44.9884,132.187,104.695,106.974,0.00557275,0.102448,20.949,436.725,-0.194493,0.0,0.0
82,20.25,43.5775,45.3971,135.299,104.702,107.304,0.00550973,0.0994761,20.9505,436.725,-0.221615,0.0,0.0
84,20.75,43.2602,44.9378,129.728,104.692,106.65,0.00537081,0.0967203,20.9532,436.745,-0.167245,0.0,0.0
86,21.25,42.963,44.7051,131.428,104.691,106.745,0.00523026,0.0941747,20.9553,436.745,-0.175396,0.0,0.0
88,21.75,43.2411,44.738,130.083,104.686,106.257,0.00510668,0.0917867,20.9571,436.715,-0.134527,0.0,0.0
90,22.25,43.2476,44.7354,131.352,104.693,107.075,0.00499784,0.0895591,20.9585,436.715,-0.203127,0.0,0.0
92,22.75,43.2612,45.0398,132.381,104.675,107.106,0.00490967,0.0877546,20.9599,436.695,-0.207312,0.0,0.0
94,23.25,43.646,45.0208,133.977,104.692,106.937,0.00483826,0.0867177,20.9612,436.674,-0.191573,0.0,0.0
96,23.75,43.1478,44.7306,135.585,104.68,106.962,0.00476317,0.0849444,20.9625,436.695,-0.194733,0.0,0.0
98,24.25,43.3678,44.9994,136.133,104.698,106.767,0.00470236,0.0832479,20.9638,436.695,-0.176718,0.0,0.0
100,24.75,43.0158,44.7102,130.359,104.682,106.826,0.00463956,0.0816396,20.965,436.674,-0.183072,0.0,0.0
102,25.25,43.2696,44.8185,128.37,104.7,106.737,0.00458869,0.0803368,20.9662,436.695,-0.173994,0.0,0.0
104,25.75,43.273,45.1527,132.752,104.687,106.458,0.00453027,0.0792816,20.9672,436.695,-0.151467,0.0,0.0
106,26.25,43.3363,44.5807,131.805,104.685,106.731,0.00448294,0.0778096,20.9685,436.664,-0.174749,0.0,0.0
108,26.75,43.0451,44.7083,136.746,104.684,107.257,0.00443814,0.0766174,20.9695,436.614,-0.219185,0.0,0.0
110,27.25,43.809,44.9536,130.389,104.686,107.141,0.00439602,0.0754498,20.9707,436.644,-0.209332,0.0,0.0
112,27.75,42.7981,44.3191,132.605,104.683,106.734,0.00433572,0.0743223,20.9722,436.664,-0.175173,0.0,0.0
114,28.25,42.8215,44.6244,135.86,104.686,106.601,0.00431215,0.0732865,20.9726,436.614,-0.163687,0.0,0.0
116,28.75,42.3713,44.4079,130.229,104.665,106.648,0.00427185,0.0723373,20.9732,436.604,-0.169418,0.0,0.0
118,29.25,43.0425,45.0012,131.631,104.677,106.688,0.00422046,0.0714893,20.9738,436.564,-0.171818,0.0,0.0
120,29.75,42.8688,44.2979,129.043,104.664,107.512,0.00416196,0.070731,20.9744,436.594,-0.242439,0.0,0.0
122,30.25,42.2662,44.2154,132.649,104.678,107.011,0.00411458,0.0701168,20.9752,436.594,-0.199046,0.0,0.0
124,30.75,43.2261,44.2166,136.163,104.662,107.141,0.00404062,0.0691341,20.9758,436.614,-0.211373,0.0,0.0
126,31.25,42.7416,44.8462,130.052,104.669,106.867,0.00398071,0.0688697,20.9763,436.584,-0.187663,0.0,0.0
128,31.75,42.7467,44.3852,133.396,104.656,107.794,0.00390153,0.0682953,20.9769,436.594,-0.266833,0.0,0.0
130,32.25,42.5033,43.8508,129.731,104.672,107.354,0.0038374,0.0677199,20.9776,436.604,-0.228468,0.0,0.0
132,32.75,43.0595,44.3398,132.013,104.667,106.317,0.00375851,0.0672539,20.9782,436.634,-0.141207,0.0,0.0
134,33.25,42.5639,44.4609,132.677,104.662,107.24,0.00368622,0.0666714,20.9787,436.574,-0.219691,0.0,0.0
136,33.75,43.043,44.463,132.744,104.656,106.942,0.00362014,0.0661995,20.9791,436.574,-0.195107,0.0,0.0
138,34.25,42.4526,43.7037,132.303,104.658,107.004,0.00356661,0.0656807,20.9794,436.574,-0.20016,0.0,0.0
140,34.75,42.8644,44.6138,129.756,104.655,107.121,0.00352325,0.0652605,20.9796,436.574,-0.210329,0.0,0.0
142,35.25,42.2442,43.7555,131.684,104.652,107.179,0.00346366,0.0647835,20.98,436.554,-0.215421,0.0,0.0
144,35.75,43.2987,44.3844,134.237,104.654,106.621,0.00341539,0.0643972,20.9806,436.574,-0.168097,0.0,0.0
146,36.25,43.0751,44.5574,131.863,104.658,107.104,0.00335183,0.0639341,20.9811,436.594,-0.20861,0.0,0.0
148,36.75,42.5876,44.3451,131.76,104.646,106.906,0.00330035,0.0635589,20.9814,436.574,-0.192964,0.0,0.0
150,37.25,42.9181,44.6099,129.749,104.651,108.06,0.00322567,0.0631473,20.9817,436.594,-0.28942,0.0,0.0
152,37.75,42.3765,44.0674,129.154,104.65,107,0.00316517,0.0627169,20.982,436.604,-0.200575,0.0,0.0
154,38.25,42.4811,44.5045,129.84,104.658,106.989,0.00309053,0.0623683,20.9824,436.624,-0.198894,0.0,0.0
156,38.75,42.031,44.0327,127.494,104.653,107.319,0.00303008,0.0618267,20.9829,436.564,-0.227182,0.0,0.0
158,39.25,42.5836,44.4971,134.672,104.656,107.214,0.00295549,0.061388,20.9836,436.544,-0.21806,0.0,0.0
160,39.75,42.3419,44.9011,131.05,104.643,106.886,0.00289507,0.0608827,20.9844,436.524,-0.191511,0.0,0.0
162,40.25,43.127,44.492,132.947,104.651,106.607,0.00283201,0.0604733,20.985,436.534,-0.167157,0.0,0.0
164,40.75,42.524,44.3245,132.86,104.645,107.586,0.00276823,0.0600464,20.9855,436.534,-0.25028,0.0,0.0
166,41.25,42.6954,44.0221,135.347,104.652,106.05,0.00271657,0.0597005,20.9859,436.524,-0.119809,0.0,0.0
168,41.75,42.3596,44.2659,134.611,104.643,106.25,0.00264306,0.0593113,20.9862,436.494,-0.137649,0.0,0.0
170,42.25,42.6371,44.292,135.879,104.654,106.985,0.00258351,0.0589961,20.9865,436.424,-0.19894,0.0,0.0
172,42.75,42.1774,44.3231,129.707,104.645,107.904,0.0025231,0.0586762,20.9869,436.414,-0.276992,0.0,0.0
174,43.25,42.3418,44.2598,133.701,104.643,106.876,0.00247417,0.058359,20.9875,436.454,-0.190601,0.0,0.0
176,43.75,42.6506,44.3502,135.114,104.649,106.799,0.00243332,0.058102,20.9879,436.464,-0.183649,0.0,0.0
178,44.25,42.2892,44.3127,130.259,104.642,106.549,0.00240023,0.0578122,20.9883,436.534,-0.163064,0.0,0.0
180,44.75,42.8546,44.8167,131.292,104.651,106.06,0.00237022,0.0575774,20.9886,436.564,-0.120795,0.0,0.0
182,45.25,42.3789,44.0758,130.3,104.64,106.226,0.00234304,0.0572646,20.9889,436.534,-0.135903,0.0,0.0
184,45.75,42.11,43.6736,133.966,104.635,107.501,0.00232101,0.0570113,20.9895,436.534,-0.243973,0.0,0.0
186,46.25,42.8811,44.245,130.579,104.648,106.799,0.00229741,0.0566426,20.99,436.474,-0.183722,0.0,0.0
188,46.75,42.3589,44.3096,132.569,104.648,106.882,0.00227311,0.0563441,20.9899,436.454,-0.190717,0.0,0.0
190,47.25,42.0858,43.93,129.542,104.637,107.664,0.00225342,0.0560306,20.9897,436.544,-0.257557,0.0,0.0
192,47.75,42.1447,44.3867,130.454,104.64,106.287,0.00223748,0.0557121,20.9901,436.524,-0.14098,0.0,0.0
194,48.25,42.1348,43.3806,134.411,104.642,106.753,0.00222456,0.0554542,20.9904,436.564,-0.180333,0.0,0.0
196,48.75,42.1324,44.0225,131.425,104.637,106.73,0.0022141,0.0552023,20.9906,436.594,-0.178865,0.0,0.0
198,49.25,42.4729,44.2083,131.968,104.642,106.148,0.00220562,0.0549596,20.9908,436.464,-0.129007,0.0,0.0
200,49.75,42.5588,44.2036,132.074,104.64,106.964,0.00219876,0.0547057,20.9909,436.454,-0.198354,0.0,0.0
202,50.25,41.8942,43.394,133.064,104.644,107.334,0.00217374,0.0544485,20.991,436.464,-0.229213,0.0,0.0
204,50.75,41.6826,43.5262,133.776,104.632,106.714,0.00215347,0.0542401,20.9911,436.494,-0.177949,0.0,0.0
206,51.25,41.8344,44.1318,137.747,104.644,106.958,0.00211031,0.0539625,20.9914,436.504,-0.197554,0.0,0.0
208,51.75,42.6159,43.7868,132.048,104.642,108.081,0.00209192,0.0537377,20.9917,436.474,-0.292029,0.0,0.0
210,52.25,42.0894,43.7983,134.329,104.634,106.601,0.00203373,0.053484,20.9921,436.484,-0.168171,0.0,0.0
212,52.75,41.5485,43.5464,130.033,104.631,106.607,0.0019866,0.053214,20.9924,436.464,-0.168871,0.0,0.0
214,53.25,41.9027,43.2851,132.029,104.628,107.851,0.00193143,0.0529954,20.9927,436.464,-0.274004,0.0,0.0
216,53.75,42.4476,44.0984,132.372,104.63,106.911,0.00188675,0.0527503,20.9929,436.464,-0.19471,0.0,0.0
218,54.25,42.0019,44.0306,130.551,104.629,106.65,0.00183478,0.0525517,20.9931,436.454,-0.172829,0.0,0.0
220,54.75,41.5838,43.696,132.591,104.627,106.746,0.00179268,0.0524242,20.9932,436.484,-0.181016,0.0,0.0
222,55.25,42.0202,43.9104,133.93,104.647,107.049,0.00175858,0.052206,20.9934,436.454,-0.204879,0.0,0.0
224,55.75,41.8512,43.6614,133.599,104.628,106.872,0.00171565,0.0519792,20.9934,436.424,-0.191596,0.0,0.0
226,56.25,41.9957,43.6721,133.103,104.621,106.75,0.00166709,0.0517504,20.9935,436.414,-0.181845,0.0,0.0
228,56.75,42.0647,43.533,135.817,104.629,107.212,0.00162073,0.0515243,20.9936,436.434,-0.220275,0.0,0.0
230,57.25,41.8901,43.8503,131.192,104.623,107.372,0.00157687,0.0513412,20.9936,436.444,-0.234163,0.0,0.0
232,57.75,42.2247,43.8473,133.225,104.622,106.684,0.00154135,0.0511929,20.9937,436.414,-0.176242,0.0,0.0
234,58.25,42.2832,44.4229,131.005,104.622,107.2,0.00151257,0.0509912,20.9937,436.424,-0.219789,0.0,0.0
236,58.75,41.9272,44.2917,132.062,104.629,107.533,0.00149245,0.0508278,20.9937,436.464,-0.247242,0.0,0.0
238,59.25,41.874,43.5715,132.447,104.626,107.175,0.00147902,0.0506411,20.9938,436.464,-0.217362,0.0,0.0
240,59.75,41.6599,43.7112,131.773,104.621,107.266,0.00146687,0.0504899,20.9938,436.454,-0.225481,0.0,0.0
242,60.25,41.5049,43.6544,131.087,104.631,106.939,0.00145588,0.0503603,20.9938,436.494,-0.196984,0.0,0.0
244,60.75,41.9663,43.9298,131.837,104.633,107.264,0.00144698,0.0502488,20.9938,436.484,-0.224265,0.0,0.0
246,61.25,42.1632,43.8828,130.168,104.632,106.762,0.00142886,0.0501228,20.9938,436.474,-0.181967,0.0,0.0
248,61.75,41.7951,43.8836,130.971,104.631,107.363,0.00141419,0.0499885,20.9938,436.454,-0.232759,0.0,0.0
250,62.25,42.3427,43.4233,132.66,104.628,106.434,0.0014023,0.0498369,20.9938,436.464,-0.154496,0.0,0.0
252,62.75,41.7972,44.0818,133.17,104.624,107.569,0.00138177,0.0496755,20.9938,436.514,-0.250682,0.0,0.0
254,63.25,42.1694,44.4637,132.665,104.623,108.004,0.00136514,0.0495447,20.9938,436.464,-0.287114,0.0,0.0
256,63.75,42.0199,43.713,131.559,104.637,106.309,0.00133351,0.049398,20.9938,436.444,-0.143154,0.0,0.0
258,64.25,41.6533,43.4817,132.604,104.626,106.911,0.00130789,0.0492792,20.9938,436.414,-0.195111,0.0,0.0
260,64.75,42.2933,44.0336,131.229,104.633,107.497,0.00126657,0.0491329,20.9938,436.464,-0.243839,0.0,0.0
262,65.25,41.6329,43.8035,134.32,104.621,106.876,0.0012331,0.0489694,20.9938,436.424,-0.192497,0.0,0.0
264,65.75,42.3076,44.1398,133.776,104.632,106.566,0.00120407,0.048837,20.9938,436.364,-0.165333,0.0,0.0
266,66.25,41.812,43.7756,132.281,104.613,107.035,0.00117885,0.0486618,20.9938,436.404,-0.206642,0.0,0.0
268,66.75,41.0933,43.6718,132.315,104.644,106.276,0.00116542,0.0485199,20.9938,436.424,-0.139734,0.0,0.0
270,67.25,41.8119,43.5943,135.511,104.625,107.045,0.00116084,0.0483506,20.9938,436.434,-0.206458,0.0,0.0
272,67.75,41.5841,43.658,130.81,104.625,107.519,0.00115714,0.0482135,20.9938,436.404,-0.246385,0.0,0.0
274,68.25,42.2631,44.0847,132.059,104.641,106.832,0.00116051,0.0481025,20.9938,436.354,-0.187088,0.0,0.0
276,68.75,41.9742,43.8798,134.446,104.631,107.727,0.00116897,0.0480126,20.9938,436.394,-0.263238,0.0,0.0
278,69.25,41.8832,44.1376,133.441,104.622,106.542,0.00117582,0.047904,20.9945,436.404,-0.164216,0.0,0.0
280,69.75,41.9324,43.7992,130.639,104.635,106.331,0.00117691,0.0477839,20.9956,436.454,-0.145211,0.0,0.0
282,70.25,41.3878,43.5781,131.432,104.619,106.995,0.00117379,0.047658,20.9965,436.404,-0.2028,0.0,0.0
284,70.75,41.7619,43.7658,135.815,104.633,106.677,0.00117125,0.0475303,20.9973,436.424,-0.174693,0.0,0.0
286,71.25,41.95,43.7129,131.448,104.634,107.724,0.00115468,0.0474269,20.9979,436.464,-0.262819,0.0,0.0
288,71.75,41.8322,43.512,132.825,104.62,106.932,0.00114126,0.0473432,20.9986,436.504,-0.197372,0.0,0.0
290,72.25,41.7052,43.7417,133.838,104.612,106.075,0.00112312,0.0472074,20.9994,436.484,-0.125395,0.0,0.0
292,72.75,41.9451,43.9396,130.181,104.623,107.324,0.00110844,0.0470975,21,436.444,-0.230205,0.0,0.0
294,73.25,41.9628,43.8935,130.947,104.624,106.44,0.00109463,0.0469799,21.0005,436.484,-0.155382,0.0,0.0
296,73.75,41.6313,43.4869,130.873,104.628,107.068,0.00108173,0.0468589,21.0009,436.444,-0.208183,0.0,0.0
298,74.25,41.8417,43.6911,131.69,104.616,107.125,0.00107491,0.0467609,21.0013,436.424,-0.214003,0.0,0.0
300,74.75,41.6636,43.6363,131.338,104.63,106.883,0.00106939,0.0466273,21.0015,436.444,-0.192403,0.0,0.0
302,75.25,41.8235,43.8496,135.799,104.606,107.058,0.00107701,0.046519,21.0018,436.434,-0.209246,0.0,0.0
304,75.75,41.705,43.486,135.363,104.617,107.252,0.00108318,0.0464177,21.002,436.444,-0.224585,0.0,0.0
306,76.25,41.6577,43.9322,130.603,104.607,107.079,0.00108818,0.0463357,21.0023,436.474,-0.210957,0.0,0.0
308,76.75,41.3245,43.4418,131.905,104.621,106.858,0.00109928,0.0462964,21.0028,436.464,-0.19106,0.0,0.0
310,77.25,41.8028,44.0057,132.835,104.607,106.491,0.00111461,0.0462646,21.0032,436.444,-0.161184,0.0,0.0
312,77.75,41.2614,43.5005,130.233,104.613,107.26,0.00111939,0.0461981,21.0034,436.394,-0.225626,0.0,0.0
314,78.25,41.3956,43.8024,129.529,104.611,106.234,0.00111638,0.0461442,21.0035,436.394,-0.138985,0.0,0.0
316,78.75,41.6349,44.0594,132.522,104.614,106.967,0.00110439,0.0461006,21.0036,436.404,-0.200859,0.0,0.0
318,79.25,41.9063,43.6589,133.005,104.621,107.186,0.00108609,0.0460246,21.0037,436.424,-0.21875,0.0,0.0
320,79.75,41.8616,43.641,132.864,104.611,106.88,0.0010649,0.045963,21.0038,436.474,-0.193766,0.0,0.0
322,80.25,42.0845,43.2025,127.535,104.607,107.19,0.00104201,0.0458716,21.0039,436.494,-0.220236,0.0,0.0
324,80.75,42.1398,43.3514,131.763,104.616,106.58,0.00101863,0.0457977,21.0039,436.464,-0.167953,0.0,0.0
326,81.25,41.4708,43.4557,134.402,104.602,107.741,0.0009997,0.0457377,21.004,436.474,-0.266976,0.0,0.0
328,81.75,42.2658,43.4624,132.609,104.62,107.736,0.000981946,0.0456892,21.004,436.464,-0.265047,0.0,0.0
330,82.25,41.9858,43.8215,129.864,104.617,107.255,0.000967564,0.0456906,21.004,436.434,-0.224862,0.0,0.0
332,82.75,41.4584,43.2189,130.893,104.628,107.425,0.000955915,0.0456917,21.0041,436.454,-0.238193,0.0,0.0
334,83.25,41.1915,43.7654,128.876,104.618,107.239,0.000942855,0.045679,21.0041,436.444,-0.22344,0.0,0.0
336,83.75,42.1222,43.6028,132.248,104.636,106.855,0.000932276,0.0456688,21.0041,436.434,-0.189509,0.0,0.0
338,84.25,41.9042,43.5662,132.299,104.623,106.595,0.000915249,0.0456062,21.0041,436.404,-0.168601,0.0,0.0
340,84.75,42.0753,43.7293,131.135,104.629,107.144,0.000901456,0.0455555,21.0041,436.414,-0.214458,0.0,0.0
342,85.25,42.3587,44.1226,129.804,104.626,106.824,0.000883036,0.0455145,21.0041,436.414,-0.187685,0.0,0.0
344,85.75,41.9622,44.1022,133.621,104.637,106.81,0.000868115,0.045427,21.0041,436.404,-0.185588,0.0,0.0
346,86.25,42.1362,43.8543,135.208,104.628,107.197,0.000852851,0.0453561,21.0041,436.404,-0.219004,0.0,0.0
348,86.75,42.264,44.2047,134.336,104.631,108.141,0.000837626,0.0452715,21.0041,436.364,-0.297928,0.0,0.0
350,87.25,42.0205,44.0106,131.051,104.639,107.838,0.000820845,0.045203,21.0042,436.354,-0.271917,0.0,0.0
352,87.75,41.843,43.5067,134.531,104.646,107.392,0.000803249,0.0451262,21.0042,436.404,-0.233898,0.0,0.0
354,88.25,41.9598,43.5514,128.624,104.637,107.897,0.000788996,0.0450446,21.0042,436.384,-0.277022,0.0,0.0
356,88.75,40.9605,43.2473,129.354,104.646,106.619,0.000764172,0.0449643,21.0042,436.404,-0.168707,0.0,0.0
358,89.25,41.4009,43.7941,131.806,104.668,106.403,0.000744065,0.0448864,21.0042,436.444,-0.148439,0.0,0.0
360,89.75,42.3002,43.602,130.297,104.642,106.796,0.000718251,0.0448233,21.0042,436.384,-0.184031,0.0,0.0
362,90.25,41.9926,43.4447,131.771,104.648,106.687,0.000688768,0.044745,21.0042,436.354,-0.174257,0.0,0.0
364,90.75,41.5554,43.5221,135.099,104.649,107.372,0.000661078,0.0446816,21.0042,436.364,-0.231903,0.0,0.0
366,91.25,41.4211,43.5916,134.559,104.654,106.821,0.00063522,0.0446574,21.0042,436.404,-0.185041,0.0,0.0
368,91.75,42.0582,43.9369,133.032,104.653,106.704,0.000614275,0.0446378,21.0042,436.404,-0.175212,0.0,0.0
370,92.25,41.7461,43.6204,131.873,104.664,106.816,0.00059731,0.0445862,21.0042,436.374,-0.183692,0.0,0.0
372,92.75,41.6489,42.9217,128.19,104.646,106.832,0.000583568,0.0445123,21.0039,436.374,-0.18669,0.0,0.0
374,93.25,42.043,43.6514,130.059,104.654,107.063,0.000572437,0.0444525,21.0034,436.404,-0.205489,0.0,0.0
376,93.75,41.6447,43.7287,136.654,104.649,107.054,0.000562786,0.0443633,21.003,436.414,-0.20517,0.0,0.0
378,94.25,41.781,43.8617,131.654,104.656,107.517,0.000554398,0.0442911,21.0027,436.434,-0.243526,0.0,0.0
380,94.75,41.5144,43.5006,135.457,104.648,107.14,0.000540621,0.0442326,21.0025,436.825,-0.212538,0.0,0.0
382,95.25,41.415,43.2677,132.461,104.642,107.291,0.000523179,0.0442123,21.0023,436.364,-0.225758,0.0,0.0
384,95.75,41.764,43.8809,131.079,104.637,106.855,0.000500803,0.0441959,21.0021,436.374,-0.18944,0.0,0.0
386,96.25,42.2317,43.7996,134.473,104.638,107.264,0.000475256,0.0441755,21.002,436.384,-0.223788,0.0,0.0
388,96.75,41.8126,43.4033,134.312,104.637,106.726,0.000454563,0.0441525,21.0019,436.424,-0.178467,0.0,0.0
390,97.25,42.0606,43.9884,132.802,104.64,107.384,0.000437801,0.0441553,21.0018,436.424,-0.233736,0.0,0.0
392,97.75,41.8898,43.1968,130.69,104.629,107.194,0.000431375,0.0441769,21.0017,436.454,-0.218694,0.0,0.0
394,98.25,41.7004,43.9673,131.244,104.631,107.071,0.00042617,0.04418,21.0017,436.414,-0.208093,0.0,0.0
396,98.75,41.8882,43.4746,131.958,104.629,106.161,0.000444864,0.0441698,21.0018,436.444,-0.131221,0.0,0.0
398,99.25,41.8952,43.8781,130.564,104.653,106.39,0.000460005,0.0441614,21.0019,436.434,-0.148671,0.0,0.0
400,99.75,41.6496,43.8022,131.738,104.622,106.524,0.000489161,0.0441404,21.0019,436.474,-0.162662,0.0,0.0
402,100.25,41.8633,44.0334,131.044,104.625,106.934,0.000512777,0.0441105,21.002,436.444,-0.197093,0.0,0.0
404,100.75,41.9149,43.816,129.233,104.619,107.46,0.000534319,0.0440864,21.0021,436.434,-0.241921,0.0,0.0
406,101.25,41.9366,43.7532,131.312,104.64,107.168,0.000553491,0.0439861,21.0021,436.404,-0.215527,0.0,0.0
408,101.75,41.9196,43.9739,130.561,104.607,107.32,0.000555042,0.043905,21.0021,436.374,-0.231198,0.0,0.0
410,102.25,41.9202,43.9997,131.459,104.633,107.341,0.00055071,0.0438121,21.0022,436.384,-0.230717,0.0,0.0
412,102.75,42.1045,43.8183,134.953,104.626,106.603,0.000540917,0.0437369,21.0022,436.434,-0.169103,0.0,0.0
414,103.25,42.3916,43.8436,129.761,104.616,106.71,0.000532984,0.043676,21.0022,436.414,-0.178901,0.0,0.0
416,103.75,41.5808,43.7885,129.855,104.606,107.516,0.000526558,0.0436266,21.0022,436.444,-0.247713,0.0,0.0
418,104.25,41.7359,43.5586,130.896,104.622,107.209,0.000523765,0.043589,21.0024,436.404,-0.220505,0.0,0.0
420,104.75,41.6145,44.3243,130.149,104.608,107.699,0.000521503,0.0435788,21.0029,436.434,-0.262954,0.0,0.0
422,105.25,41.8403,44.0994,132.234,104.617,107.229,0.000545008,0.0435615,21.0032,436.414,-0.222722,0.0,0.0
424,105.75,41.9232,43.4098,132.843,104.615,107.404,0.000564047,0.0435474,21.0034,436.354,-0.237583,0.0,0.0
426,106.25,41.8601,43.5162,134.304,104.622,106.567,0.000598785,0.0435004,21.0037,436.374,-0.166288,0.0,0.0
428,106.75,41.3941,43.7033,131.93,104.602,107.983,0.000626922,0.0434302,21.0038,436.384,-0.287207,0.0,0.0
430,107.25,42.1069,44.1757,134.317,104.623,107.401,0.000643676,0.0433733,21.004,436.364,-0.236618,0.0,0.0
432,107.75,42.3021,43.3575,135.456,104.609,107.218,0.000657247,0.0433544,21.0041,436.404,-0.222428,0.0,0.0
434,108.25,42.1454,43.6377,133.57,104.618,106.6,0.000652994,0.043339,21.0042,436.414,-0.169441,0.0,0.0
436,108.75,42.005,44.4333,134.656,104.609,107.8,0.000635828,0.0433408,21.0043,436.404,-0.271317,0.0,0.0
438,109.25,42.2934,44.3069,131.474,104.62,107.52,0.000609864,0.0433552,21.0043,436.394,-0.246865,0.0,0.0
440,109.75,42.3439,44.0796,133.964,104.607,107.323,0.000564386,0.0433939,21.0038,436.384,-0.231475,0.0,0.0
442,110.25,42.2184,43.6616,130.096,104.629,107.666,0.000552152,0.0434252,21.0036,436.414,-0.258295,0.0,0.0
444,110.75,41.6634,43.5648,132.392,104.623,106.933,0.000522985,0.0434364,21.0034,436.414,-0.19716,0.0,0.0
446,111.25,41.9407,43.549,133.278,104.613,106.33,0.000491936,0.0434326,21.0032,436.414,-0.146992,0.0,0.0
448,111.75,41.443,43.6819,129.774,104.612,106.75,0.00046869,0.0433938,21.003,436.394,-0.182723,0.0,0.0
450,112.25,41.5959,44.0692,132.109,104.608,107.497,0.000451574,0.0433303,21.0028,436.354,-0.246027,0.0,0.0
452,112.75,41.7972,43.7253,131.207,104.615,107.553,0.000437709,0.0432569,21.0027,436.344,-0.25003,0.0,0.0
454,113.25,41.4915,43.5746,130.674,104.614,106.739,0.000434916,0.0432229,21.0026,436.324,-0.181626,0.0,0.0
456,113.75,41.831,43.4962,130.68,104.615,106.599,0.000432654,0.0431647,21.0026,436.344,-0.169653,0.0,0.0
458,114.25,41.8459,43.6404,131.321,104.622,107.117,0.000432091,0.0431462,21.0025,436.384,-0.212816,0.0,0.0
460,114.75,41.9041,43.8277,133.662,104.612,106.57,0.000432777,0.0431568,21.0025,436.384,-0.167477,0.0,0.0
462,115.25,42.5118,43.7691,129.929,104.616,108.156,0.000433332,0.0431654,21.0029,436.384,-0.300458,0.0,0.0
464,115.75,41.6237,43.8415,136.656,104.621,106.882,0.000431879,0.0431453,21.0032,436.344,-0.193126,0.0,0.0
466,116.25,41.3332,43.2603,128.708,104.621,106.821,0.000428988,0.043129,21.0029,436.334,-0.187884,0.0,0.0
468,116.75,41.6606,43.2336,134.012,104.618,107.071,0.000427281,0.0431087,21.0027,436.334,-0.20926,0.0,0.0
470,117.25,41.7038,43.2545,132.764,104.612,106.858,0.00042647,0.0430858,21.0025,436.384,-0.19179,0.0,0.0
472,117.75,42.1909,43.6504,132.666,104.619,106.521,0.000425812,0.0430672,21.0024,436.384,-0.162674,0.0,0.0
474,118.25,41.5431,43.4804,131.79,104.621,107.407,0.0004348,0.0430237,21.0023,436.434,-0.237346,0.0,0.0
476,118.75,41.9601,43.6681,127.224,104.624,107.463,0.000450648,0.0429627,21.0022,436.384,-0.241758,0.0,0.0
478,119.25,41.6702,43.4961,130.483,104.618,107.133,0.000463485,0.0429062,21.0021,436.394,-0.214528,0.0,0.0
480,119.75,41.8987,43.2233,133.661,104.622,107.178,0.000489566,0.042854,21.002,436.394,-0.217967,0.0,0.0
482,120.25,42.2305,43.5639,133.26,104.626,107.267,0.000510691,0.0428117,21.002,436.384,-0.225049,0.0,0.0
484,120.75,41.7145,43.2192,130.883,104.624,107.469,0.000537457,0.0427775,21.0019,436.394,-0.242232,0.0,0.0
486,121.25,42.0603,43.6241,133.24,104.631,107.652,0.000559138,0.0427498,21.0019,436.414,-0.257003,0.0,0.0
488,121.75,42.1224,44.0244,131.913,104.617,107.034,0.000576699,0.0427273,21.0019,436.424,-0.206199,0.0,0.0
490,122.25,41.6402,43.3988,130.445,104.626,107.928,0.000592194,0.0427091,21.0019,436.384,-0.280528,0.0,0.0
492,122.75,41.4552,43.2082,128.717,104.629,106.844,0.000605889,0.0426944,21.0018,436.354,-0.189215,0.0,0.0
494,123.25,42.1827,44.2068,129.909,104.626,107.312,0.000616981,0.0426689,21.0018,436.364,-0.228848,0.0,0.0
496,123.75,42.0698,44.008,134.969,104.634,107.759,0.000630795,0.0426482,21.0018,436.364,-0.265698,0.0,0.0
498,124.25,41.9489,43.5662,134.495,104.621,106.561,0.000641983,0.0426179,21.0018,436.344,-0.165879,0.0,0.0
500,124.75,41.4787,43.7831,131.277,104.628,107.476,0.000651046,0.0425934,21.0018,436.354,-0.2425,0.0,0.0
502,125.25,41.8187,44.186,132.376,104.615,106.883,0.000654766,0.0426142,21.0018,436.344,-0.193603,0.0,0.0
504,125.75,41.8689,43.6097,134.137,104.629,107.809,,0.042631,,436.414,-0.270311,0.0,0.0
506,126.25,41.3963,43.6367,133.076,104.611,107.261,,0.0426447,,436.384,-0.225923,0.0,0.0
508,126.75,41.9796,43.8762,129.977,104.63,107.293,,0.0426557,,436.364,-0.226898,0.0,0.0
510,127.25,41.9312,43.9617,128.513,104.624,107.689,,0.0426718,,436.344,-0.260701,0.0,0.0
512,127.75,41.8782,43.6696,134.356,104.636,107.281,,0.0426913,,436.354,-0.225398,0.0,0.0
514,128.25,41.4723,43.2355,129.529,104.634,106.788,,0.042707,,436.374,-0.184048,0.0,0.0
516,128.75,41.7152,43.6637,132.197,104.652,108.28,,,,436.354,-0.307755,0.0,0.0
518,129.25,42.1532,43.1879,130.561,104.625,107.581,,,,436.384,-0.251559,0.0,0.0
520,129.75,41.7717,43.5287,133.045,104.629,107.265,,,,436.364,-0.224749,0.0,0.0
522,130.25,42.1767,43.8901,129.665,104.633,107.45,,,,436.394,-0.239925,0.0,0.0
524,130.75,41.7647,44.1084,134.692,104.642,107.66,,,,436.374,-0.256764,0.0,0.0
526,131.25,41.7212,43.9719,129.384,104.635,107.194,,,,436.394,-0.218222,0.0,0.0
528,131.75,42.2349,43.9486,134.533,104.637,107.099,,,,436.374,-0.210034,0.0,0.0
530,132.25,42.1143,43.3776,133.074,104.634,107.531,,,,436.364,-0.246609,0.0,0.0
532,132.75,41.5604,43.6714,132.73,104.644,107.136,,,,436.354,-0.212469,0.0,0.0
534,133.25,41.9439,43.8986,129.127,104.638,107.865,,,,436.324,-0.274194,0.0,0.0
536,133.75,41.9109,43.5091,135.012,104.642,107.117,,,,436.344,-0.211106,0.0,0.0
538,134.25,41.6992,43.4773,131.786,104.639,107.095,,,,436.364,-0.209458,0.0,0.0
540,134.75,41.9596,43.776,130.984,104.642,107.237,,,,436.374,-0.221206,0.0,0.0
542,135.25,41.6227,44.2551,133.285,104.629,107.201,,,,436.354,-0.219251,0.0,0.0
544,135.75,41.9121,44.2367,132.428,104.637,107.248,,,,436.334,-0.222591,0.0,0.0
546,136.25,41.737,44.0053,129.508,104.648,106.725,,,,436.264,-0.177516,0.0,0.0