File: 01_Data/Fiberglass_Insulation_R30_Paper_Faced/Cone/Fiberglass_Insulation_R30_Paper_Faced_Cone_HF25Scan_220506_R3.csv
Names,Time,Stack TC,Smoke TC,Exh Press,Smoke Comp,Smoke Meas,CO Meter,CO2 Meter,O2 Meter,Sample Mass,Ext Coeff,Start Test,Flame Verif
Chan Gain,,500,500,1,1,1,1,1,1,1,1,1.0,1.0
Offset,,0,0,0.134207,0,0,0,0,0,0,0,0.0,0.0
Gain,,1,1,25.011,13.8443,15.4071,1,1,1,1.00079,1.02936,1.0,1.0
Units,sec,C,C,Pa,%,%,%,%,%,g,/m,,
Baseline,,19.0707,19.5403,144.22,104.832,104.095,0.000348015,0.041063,21.0076,-444.24,0.0636706,,
2,0.25,19.0658,19.0688,142.168,105.197,104.62,0.000358233,0.0463554,21.0022,440.978,0.0497032,0.0,0.0
4,0.75,17.8175,18.0517,145.045,105.212,104.88,0.000357763,0.0465009,21.0017,441.148,0.0285557,0.0,0.0
6,1.25,17.3254,18.6484,141.955,105.232,104.5,0.000352244,0.0466045,21.0013,440.988,0.0630263,0.0,0.0
8,1.75,17.6294,18.3046,138.941,105.251,104.662,0.000347774,0.0466755,21.001,441.078,0.0506966,0.0,0.0
10,2.25,17.4036,18.1684,143.933,105.273,104.816,0.000329698,0.046733,21.0008,441.048,0.0392814,0.0,0.0
12,2.75,17.2156,17.9729,142.846,105.287,104.66,0.000315057,0.0467117,21.0006,440.998,0.0539756,0.0,0.0
14,3.25,17.8364,18.0934,143.865,105.311,104.527,0.000303197,0.0466945,21.0004,441.058,0.0674879,0.0,0.0
16,3.75,18.0844,17.6343,145.569,105.338,104.739,0.000309445,0.0467077,21.0003,440.958,0.05151,0.0,0.0
18,4.25,17.6245,18.5732,138.32,105.323,104.423,0.000328774,0.0467183,21.0013,441.108,0.0774866,0.0,0.0
20,4.75,17.857,18.7783,143.58,105.346,104.219,0.000379992,0.0468413,21.0022,441.048,0.0971784,0.0,0.0
22,5.25,17.6998,18.3141,141.556,105.35,104.213,0.000453484,0.0470438,21.0024,441.088,0.0979919,0.0,0.0
24,5.75,17.4594,18.3186,148.933,105.362,104.052,0.000513012,0.0472078,21.0027,441.038,0.112913,0.0,0.0
26,6.25,17.7633,18.2772,147.06,105.366,103.785,0.00065745,0.0500851,20.9989,440.988,0.136558,0.0,0.0
28,6.75,17.8211,18.1694,144.945,105.359,103.713,0.000861043,0.0548858,20.9924,440.928,0.142204,0.0,0.0
30,7.25,17.7096,18.149,139.684,105.362,104.789,0.00113615,0.0631898,20.987,440.918,0.0491616,0.0,1.0
32,7.75,17.7706,18.5946,137.885,105.366,105.172,0.00145815,0.0738899,20.9547,440.798,0.0166043,0.0,1.0
34,8.25,17.7895,18.548,133.061,105.355,106.257,0.00171898,0.082557,20.9286,440.818,-0.0769512,0.0,1.0
36,8.75,18.016,18.8885,127.826,105.347,105.569,0.00213959,0.100785,20.8963,440.528,-0.0190308,0.0,1.0
38,9.25,18.3093,18.9522,125.924,105.345,101.325,0.00248028,0.11555,20.8603,440.437,0.351309,0.0,1.0
40,9.75,19.0092,18.6689,126.04,105.338,92.188,0.00286196,0.131663,20.831,440.417,1.20406,0.0,1.0
42,10.25,19.9213,19.3669,126.741,105.316,85.2094,0.00317113,0.148451,20.8074,440.387,1.91295,0.0,1.0
44,10.75,19.605,19.6369,128.011,105.294,85.3984,0.00346221,0.163039,20.7882,440.337,1.89102,0.0,1.0
46,11.25,20.5081,20.2986,132.953,105.284,87.1184,0.00369798,0.175744,20.7727,440.327,1.71014,0.0,1.0
48,11.75,21.1813,20.4789,127.869,105.267,90.878,0.00391114,0.186035,20.7601,440.287,1.32712,0.0,1.0
50,12.25,21.0631,20.4809,133.695,105.246,92.9948,0.0040838,0.192761,20.7521,440.297,1.11748,0.0,1.0
52,12.75,21.2153,20.4847,140.461,105.221,99.3499,0.00422366,0.198208,20.7456,440.317,0.518453,0.0,1.0
54,13.25,21.591,20.9788,132.63,105.189,102.415,0.00442213,0.19972,20.7468,440.277,0.241295,0.0,0.0
56,13.75,22.1639,20.9502,138.705,105.166,103.936,0.0045829,0.200945,20.7536,440.297,0.106294,0.0,0.0
58,14.25,21.6386,21.7128,134.939,105.12,104.929,0.00480593,0.198728,20.7637,440.237,0.0164012,0.0,0.0
60,14.75,22.2848,21.2805,140.114,105.095,105.201,0.00498658,0.196933,20.776,440.237,-0.0091319,0.0,0.0
62,15.25,22.2684,22.5561,142.337,105.051,104.803,0.00524583,0.195478,20.7904,440.267,0.0213713,0.0,0.0
64,15.75,22.3653,22.2275,142.724,105.015,104.439,0.00545583,0.190086,20.8059,440.227,0.0496561,0.0,0.0
66,16.25,22.3262,22.2535,146.019,104.967,104.603,0.00573046,0.185719,20.8213,440.237,0.0313021,0.0,0.0
68,16.75,22.3676,21.4757,142.633,104.923,104.44,0.0059529,0.180681,20.8362,440.227,0.0416935,0.0,0.0
70,17.25,22.2611,22.1944,142.233,104.868,104.206,0.00617116,0.17525,20.8483,440.157,0.0571133,0.0,0.0
72,17.75,22.6039,21.942,145.976,104.835,104.165,0.00638222,0.16886,20.8612,440.207,0.0579026,0.0,0.0
74,18.25,21.8856,21.7478,143.683,104.83,104.261,0.00655187,0.163684,20.8716,440.227,0.0491509,0.0,0.0
76,18.75,22.3231,22.3019,142.327,104.864,104.434,0.0066881,0.158494,20.8827,440.197,0.0371259,0.0,0.0
78,19.25,21.7085,21.8857,143.021,104.858,104.304,0.00679844,0.153392,20.8917,440.197,0.0478072,0.0,0.0
80,19.75,21.6941,21.9939,138.502,104.874,104.244,0.00684057,0.148356,20.8989,440.187,0.0544057,0.0,0.0
82,20.25,21.3406,21.2452,139.97,104.892,104.109,0.00683216,0.143464,20.9065,440.177,0.067661,0.0,0.0
84,20.75,20.9763,20.9672,140.888,104.915,104.238,0.00678213,0.138807,20.9127,440.177,0.0584181,0.0,0.0
86,21.25,22.0342,21.207,145.37,104.928,104.481,0.00670272,0.134412,20.9199,440.177,0.0385933,0.0,0.0
88,21.75,21.6595,22.0488,137.211,104.953,104.513,0.006592,0.130852,20.9257,440.177,0.0378945,0.0,0.0
90,22.25,21.6577,21.7895,142.817,104.967,104.641,0.00646057,0.127152,20.9312,440.167,0.0280556,0.0,0.0
92,22.75,21.8745,21.4988,140.102,104.988,104.815,0.00635411,0.123422,20.9362,440.187,0.0149097,0.0,0.0
94,23.25,21.3642,22.0019,141.511,105.012,104.534,0.00616016,0.119697,20.9411,440.197,0.0411996,0.0,0.0
96,23.75,21.566,21.5251,143.572,105.032,104.621,0.00600306,0.116048,20.946,440.187,0.0353966,0.0,0.0
98,24.25,21.5074,21.6316,140.96,105.061,104.828,0.00582641,0.112581,20.9499,440.167,0.0200643,0.0,0.0
100,24.75,21.3386,21.3931,143.971,105.085,104.461,0.00563888,0.109313,20.954,440.097,0.0537381,0.0,0.0
102,25.25,21.2188,21.3764,142.435,105.107,104.715,0.00544806,0.106666,20.9573,440.057,0.0337057,0.0,0.0
104,25.75,21.96,21.2723,143.477,105.134,104.457,0.00525848,0.103961,20.96,440.057,0.058355,0.0,0.0
106,26.25,21.9403,21.4404,145.28,105.159,104.669,0.00510492,0.101266,20.9634,440.057,0.0422196,0.0,0.0
108,26.75,21.0615,21.407,140.683,105.175,104.639,0.00498054,0.098654,20.9662,440.087,0.0460768,0.0,0.0
110,27.25,21.2737,21.3237,144.71,105.208,104.79,0.00481124,0.0961527,20.9685,440.087,0.0359274,0.0,0.0
112,27.75,21.2898,21.7534,145.51,105.24,104.795,0.00461241,0.0941266,20.97,440.047,0.0382825,0.0,0.0
114,28.25,21.5901,21.2825,145.952,105.277,104.58,0.00442362,0.0917829,20.9712,440.077,0.0599281,0.0,0.0
116,28.75,21.2961,21.9793,143.65,105.293,104.956,0.00424573,0.0898844,20.973,440.107,0.0288872,0.0,0.0
118,29.25,21.0056,21.3193,145.305,105.329,105.074,0.00410165,0.0883467,20.9745,440.097,0.0218588,0.0,0.0
120,29.75,21.0264,21.4809,145.709,105.351,104.853,0.00393223,0.0865728,20.9758,440.097,0.0427478,0.0,0.0
122,30.25,20.8328,21.2874,143.688,105.374,104.986,0.003795,0.0846605,20.9767,440.077,0.0332917,0.0,0.0
124,30.75,20.7103,21.8966,146.478,105.404,105.083,0.00363984,0.0831116,20.9783,440.057,0.0275363,0.0,0.0
126,31.25,21.158,20.8806,145.717,105.443,104.901,0.00348718,0.0812393,20.9803,440.077,0.0465501,0.0,0.0
128,31.75,20.9523,21.6706,143.464,105.456,105.101,0.00333923,0.0797228,20.9819,440.037,0.0304107,0.0,0.0
130,32.25,21.1449,21.5676,143.565,105.481,105.192,0.00321939,0.0780557,20.9832,440.017,0.0247887,0.0,0.0
132,32.75,20.5193,20.9545,143.121,105.497,104.943,0.00307112,0.0767054,20.9847,440.047,0.0475781,0.0,0.0
134,33.25,20.8598,20.8204,140.563,105.53,105.001,0.00295102,0.0751058,20.9863,440.027,0.0453475,0.0,0.0
136,33.75,20.8092,21.4957,143.601,105.543,104.974,0.00285374,0.0738101,20.9876,440.047,0.0488489,0.0,0.0
138,34.25,20.6925,20.9956,143.691,105.564,104.981,0.00270921,0.0724869,20.9887,440.057,0.0500137,0.0,0.0
140,34.75,20.608,20.9764,148.032,105.582,105.217,0.00259214,0.0714152,20.9896,440.027,0.0312539,0.0,0.0
142,35.25,20.2293,21.1601,145.473,105.613,105.225,0.00246815,0.0702462,20.9905,440.027,0.033163,0.0,0.0
144,35.75,20.9482,20.6011,141.882,105.62,105.481,0.00236771,0.0692993,20.9915,440.017,0.0118552,0.0,0.0
146,36.25,20.8884,20.8687,144.45,105.634,105.316,0.00231594,0.0682735,20.9919,439.947,0.0272583,0.0,0.0
148,36.75,20.2312,20.5618,145.611,105.643,105.227,0.00222741,0.0672096,20.9926,439.867,0.035639,0.0,0.0
150,37.25,20.2626,20.8448,146.195,105.664,105.355,0.00215059,0.0663478,20.9932,439.907,0.026477,0.0,0.0
152,37.75,20.5131,20.5995,144.676,105.678,105.344,0.00208376,0.0652949,20.9941,439.917,0.0286351,0.0,0.0
154,38.25,20.9647,20.7737,142.879,105.686,105.37,0.00202644,0.064442,20.995,439.937,0.0271049,0.0,0.0
156,38.75,20.4939,21.1062,142.237,105.693,105.243,0.00197713,0.0635192,20.996,440.007,0.0385312,0.0,0.0
158,39.25,20.4172,20.8145,141.581,105.694,105.269,0.00193233,0.0631259,20.9968,440.037,0.036457,0.0,0.0
160,39.75,20,21.2022,140.731,105.695,105.355,0.00189605,0.062324,20.9974,440.017,0.0290761,0.0,0.0
162,40.25,20.6114,20.8813,144.237,105.706,105.028,0.00186666,0.0615582,20.9982,440.037,0.0581005,0.0,0.0
164,40.75,20.6771,20.762,143.145,105.707,105.649,0.00181991,0.0608447,20.999,440.037,0.00501245,0.0,0.0
166,41.25,20.825,21.1448,140.243,105.705,105.523,0.00176139,0.0601828,20.9997,440.027,0.0155276,0.0,0.0
168,41.75,20.4235,21.171,146.419,105.696,105.445,0.00169358,0.0595606,21,440.087,0.0214905,0.0,0.0
170,42.25,20.5328,20.9269,146.65,105.703,105.475,0.00162029,0.0589792,21.0004,440.077,0.0195316,0.0,0.0
172,42.75,20.3326,21.174,144.77,105.682,105.258,0.00154881,0.0585083,21.0006,440.097,0.0363026,0.0,0.0
174,43.25,20.33,20.6665,144.426,105.681,105.204,0.00148002,0.0578544,21.0008,440.107,0.0408331,0.0,0.0
176,43.75,20.2923,20.8867,142.785,105.675,105.322,0.0014507,0.0573248,21.0011,440.087,0.0302004,0.0,0.0
178,44.25,19.874,21.2537,142.875,105.66,105.603,0.00139163,0.0567808,21.0016,440.097,0.0048683,0.0,0.0
180,44.75,20.1397,20.5431,144.104,105.643,105.405,0.00133577,0.0562366,21.0021,440.077,0.0203639,0.0,0.0
182,45.25,20.2009,20.2752,145.629,105.631,105.311,0.00128606,0.0556884,21.0024,439.987,0.0274129,0.0,0.0
184,45.75,19.1752,19.9639,141.605,105.609,105.323,0.00124178,0.0551477,21.0027,439.917,0.0245267,0.0,0.0
186,46.25,20.1067,20.924,142.044,105.591,105.171,0.00120465,0.0547097,21.003,439.917,0.0359981,0.0,0.0
188,46.75,19.9864,20.6568,145.823,105.556,104.871,0.00117342,0.0544228,21.0031,439.987,0.0587914,0.0,0.0
190,47.25,20.0962,20.2464,144.322,105.543,105.077,0.00114813,0.0539321,21.0033,439.917,0.0399555,0.0,0.0
192,47.75,20.2769,20.8347,141.377,105.526,105.232,0.00112319,0.0533852,21.0034,439.977,0.0251504,0.0,0.0
194,48.25,19.975,20.8697,144.879,105.49,104.998,0.00109897,0.0529421,21.0035,439.957,0.0422314,0.0,0.0
196,48.75,20.034,20.8665,139.554,105.456,105.268,0.00107936,0.0525117,21.0036,440.017,0.0161218,0.0,0.0
198,49.25,20.1851,20.7324,141.958,105.432,105.272,0.00105966,0.0520987,21.0037,440.047,0.0136975,0.0,0.0
200,49.75,20.0555,20.5635,144.837,105.397,105.196,0.00104026,0.0517641,21.0037,440.017,0.0171887,0.0,0.0
202,50.25,19.9988,20.1975,142.986,105.369,105.156,0.00102455,0.0513844,21.0041,440.057,0.018307,0.0,0.0
204,50.75,20.2146,20.7272,143.391,105.319,105.159,0.00100336,0.0510769,21.0044,439.937,0.0137555,0.0,0.0
206,51.25,19.5371,20.826,149.063,105.294,104.925,0.000986199,0.0507777,21.0046,439.907,0.031669,0.0,0.0
208,51.75,19.8036,20.389,141.847,105.253,105.065,0.000960214,0.0504903,21.0048,439.917,0.0161809,0.0,0.0
210,52.25,20.7528,20.2646,142.374,105.224,104.889,0.000939166,0.0502576,21.0049,439.877,0.0288057,0.0,0.0
212,52.75,19.533,20.155,144.339,105.203,104.896,0.000907622,0.0499904,21.0051,439.797,0.0263858,0.0,0.0
214,53.25,19.5418,20.4094,143.109,105.133,104.938,0.000882072,0.0497032,21.0054,439.827,0.0168352,0.0,0.0
216,53.75,19.6135,20.7236,140.652,105.098,104.656,0.000848093,0.0494705,21.0059,439.947,0.0379759,0.0,0.0
218,54.25,20.004,20.4407,140.882,105.05,104.653,0.00082057,0.0491463,21.0063,439.927,0.0341582,0.0,0.0
220,54.75,19.6308,20.2088,143.144,104.994,104.599,0.000798277,0.0488837,21.0061,439.817,0.0340295,0.0,0.0
222,55.25,19.1216,20.6248,140.244,104.945,104.588,0.000762437,0.048576,21.006,439.877,0.0307883,0.0,0.0
224,55.75,19.5545,20.5599,142.937,104.901,104.717,0.000717402,0.0483267,21.0059,439.877,0.0158908,0.0,0.0
226,56.25,20.2075,20.6261,141.226,104.861,104.56,0.0006695,0.0480569,21.0059,439.997,0.0259833,0.0,0.0
228,56.75,19.7108,19.9125,144.429,104.789,104.944,0.000620419,0.0478384,21.0058,439.957,-0.0133534,0.0,0.0
230,57.25,20.6479,20.8904,144.936,104.74,104.434,0.000570515,0.0476042,21.0058,440.037,0.0263461,0.0,0.0
232,57.75,19.4423,20.9151,145.693,104.694,104.407,0.000520959,0.0473631,21.0057,440.047,0.0248101,0.0,0.0
234,58.25,19.9432,20.286,136.235,104.642,104.045,0.000476381,0.0471678,21.0057,440.007,0.0516888,0.0,0.0
236,58.75,19.2647,20.014,143.056,104.579,104.229,0.000436279,0.0469811,21.0057,439.967,0.0302787,0.0,0.0
238,59.25,19.9128,20.7878,143.396,104.547,103.936,0.000408234,0.0468041,21.0057,439.967,0.0529537,0.0,0.0
240,59.75,19.6872,20.7687,141.52,104.464,104.134,0.000389512,0.0466465,21.0057,440.007,0.028546,0.0,0.0
242,60.25,19.7828,20.0286,142.691,104.421,104.044,0.000374347,0.0465059,21.0056,439.867,0.0326514,0.0,0.0
244,60.75,19.8827,20.2437,145.246,104.363,103.943,0.000375318,0.0463707,21.0056,439.877,0.0364184,0.0,0.0
246,61.25,19.7694,20.6158,143.713,104.318,103.972,0.000376105,0.0462418,21.0056,439.967,0.0300105,0.0,0.0
248,61.75,19.934,20.0584,141.401,104.269,103.807,0.000376742,0.0460946,21.0056,439.907,0.0400391,0.0,0.0
250,62.25,19.6981,20.4885,141.84,104.213,103.646,0.000388025,0.0459368,21.0056,439.917,0.0492461,0.0,0.0
252,62.75,19.2552,20.4295,144.012,104.184,103.56,0.000397165,0.0457948,21.0057,439.907,0.0542196,0.0,0.0
254,63.25,19.6536,20.6061,141.012,104.125,103.682,0.000404568,0.0456668,21.0058,439.967,0.0385119,0.0,0.0
256,63.75,19.796,20.0554,142.43,104.094,103.69,0.000410564,0.0455632,21.006,439.987,0.0351458,0.0,0.0
258,64.25,19.2708,20.6953,143.954,104.045,103.709,0.000406984,0.0454582,21.0061,440.007,0.0292145,0.0,0.0
260,64.75,19.1661,20.3647,143.613,104.007,103.478,0.000404083,0.0453543,21.0061,439.967,0.0460768,0.0,0.0
262,65.25,19.346,20.3641,146.866,103.978,103.536,0.000399197,0.0452701,21.0062,439.987,0.0384197,0.0,0.0
264,65.75,19.6343,20.2214,144.121,103.942,103.345,0.000392955,0.0451476,21.0062,440.007,0.0520452,0.0,0.0
266,66.25,19.9129,20.2254,141.203,103.901,103.591,0.000387899,0.0450484,21.0063,439.977,0.0269428,0.0,0.0
268,66.75,19.2585,20.2781,145.011,103.879,103.713,0.000387419,0.044941,21.0063,440.007,0.0144659,0.0,0.0
270,67.25,19.0566,19.9004,139.701,103.829,103.91,0.00038703,0.0448539,21.0063,440.017,-0.00708222,0.0,0.0
272,67.75,19.7457,19.7532,146.379,103.817,103.6,0.000396359,0.0447691,21.0064,439.977,0.0189322,0.0,0.0
274,68.25,19.1659,20.3297,144.436,103.779,103.37,0.000403915,0.0446876,21.0064,439.947,0.0356079,0.0,0.0
276,68.75,19.0527,20.2892,142.226,103.759,104.055,0.000415112,0.0446287,21.0064,439.977,-0.0257183,0.0,0.0
278,69.25,18.6876,20.0747,143.027,103.738,103.542,0.000428751,0.0445874,21.0064,439.977,0.0171049,0.0,0.0
280,69.75,19.3923,19.5334,139.406,103.724,103.708,0.000441069,0.0445397,21.0064,439.957,0.00135077,0.0,0.0
282,70.25,19.7907,20.2048,142.887,103.702,103.22,0.000452188,0.0444882,21.0064,439.957,0.0421049,0.0,0.0
284,70.75,19.5103,20.1871,141.271,103.701,103.403,0.000459925,0.0444465,21.0064,439.937,0.0259715,0.0,0.0
286,71.25,19.4051,20.2533,140.974,103.669,103.735,0.00046505,0.0443314,21.0064,439.947,-0.005732,0.0,0.0
288,71.75,19.4233,20.1698,142.359,103.667,103.452,0.000469201,0.0442381,21.0064,439.947,0.0186809,0.0,0.0
290,72.25,19.3986,20.3681,145.501,103.66,103.393,0.000472563,0.0441697,21.0064,439.947,0.0233426,0.0,0.0
292,72.75,18.9008,20.4741,142.352,103.663,103.582,0.000472156,0.0441207,21.0064,439.917,0.00710894,0.0,0.0
294,73.25,19.2742,20.9216,143.285,103.661,103.829,0.000469009,0.0440668,21.0067,439.947,-0.0146093,0.0,0.0
296,73.75,19.4588,19.7638,142.185,103.663,103.469,0.00046646,0.0440102,21.0072,439.917,0.0168739,0.0,0.0
298,74.25,19.1217,19.9138,140.473,103.659,103.299,0.000464395,0.0439644,21.0076,439.927,0.031404,0.0,0.0
300,74.75,19.1579,20.1624,139.783,103.697,103.233,0.000465261,0.0438452,21.0079,439.887,0.0405117,0.0,0.0
302,75.25,18.8283,20.0089,137.695,103.697,103.378,0.000468247,0.0437487,21.0081,439.947,0.0278217,0.0,0.0
304,75.75,19.5609,19.8613,142.435,103.703,103.539,0.000470666,0.0436705,21.0083,439.967,0.0142574,0.0,0.0
306,76.25,19.476,20.0722,144.787,103.709,103.026,0.000477704,0.043553,21.0085,439.917,0.0596554,0.0,0.0
308,76.75,19.407,20.4264,143.425,103.74,103.006,0.000487974,0.0434577,21.0086,439.887,0.0640759,0.0,0.0
310,77.25,18.9073,19.7162,141.761,103.74,103.054,0.000498197,0.0433942,21.0087,439.907,0.0599046,0.0,0.0
312,77.75,19.0821,20.0486,140.487,103.77,103.473,0.000503457,0.0433427,21.0088,439.857,0.0258502,0.0,0.0
314,78.25,18.9466,20.1907,144.328,103.79,103.143,0.000511183,0.043301,21.0089,439.907,0.0564234,0.0,0.0
316,78.75,19.4622,19.884,145.826,103.821,103.545,0.000516298,0.0432536,21.0089,439.957,0.0240233,0.0,0.0
318,79.25,19.4486,20.3255,138.535,103.849,103.523,0.000520441,0.0432153,21.009,439.977,0.0284473,0.0,0.0
320,79.75,18.9845,20.2032,142.743,103.872,103.618,0.000518972,0.04313,21.009,439.967,0.0221508,0.0,0.0
322,80.25,18.6067,19.1045,143.897,103.899,103.52,0.000517783,0.0430609,21.0091,439.927,0.0329914,0.0,0.0
324,80.75,18.8684,20.1714,143.884,103.946,103.706,0.000519232,0.0430315,21.0091,439.957,0.0208397,0.0,0.0
326,81.25,19.7398,20.0781,141.467,103.962,103.561,0.000520406,0.0429405,21.0091,439.917,0.034852,0.0,0.0
328,81.75,19.2642,20.2854,141.16,104.005,103.553,0.000532213,0.042881,21.0091,439.937,0.0393693,0.0,0.0
330,82.25,18.9542,19.446,145.646,104.037,103.84,0.000541777,0.0428457,21.0091,439.937,0.0171404,0.0,0.0
332,82.75,19.0473,19.5739,146.199,104.074,103.838,0.000549524,0.0428171,21.0091,439.947,0.0204928,0.0,0.0
334,83.25,19.2591,20.5881,143.282,104.116,103.881,0.000579937,0.0427804,21.0092,439.997,0.0204423,0.0,0.0
336,83.75,18.7745,20.3877,141.664,104.149,103.85,0.000604572,0.0427506,21.0092,440.007,0.0259984,0.0,0.0
338,84.25,19.0206,20.2832,148.604,104.194,104.055,0.000639016,0.0426994,21.0092,439.957,0.0121088,0.0,0.0
340,84.75,19.1268,20.1312,143.757,104.23,104.021,0.000666916,0.042658,21.0092,439.957,0.0180825,0.0,0.0
342,85.25,19.3091,19.8463,142.964,104.256,104.133,0.000680081,0.0426172,21.0092,439.887,0.0106833,0.0,0.0
344,85.75,18.9662,20.3305,143.487,104.312,104.045,0.000702594,0.0425778,21.0092,439.807,0.0231354,0.0,0.0
346,86.25,19.1056,19.9553,140.673,104.316,104.094,0.000710026,0.042553,21.0092,439.797,0.0192577,0.0,0.0
348,86.75,18.9343,19.813,142.553,104.364,104.09,0.000706322,0.0425394,21.0092,439.917,0.0236787,0.0,0.0
350,87.25,18.6661,19.5194,139.643,104.402,104.199,0.000691254,0.0425283,21.0092,439.867,0.017511,0.0,0.0
352,87.75,19.0229,20.0231,146.048,104.453,104.406,0.000668187,0.0425329,21.0092,439.887,0.00409906,0.0,0.0
354,88.25,19.3159,20.0746,142.036,104.475,104.197,0.00064252,0.0425349,21.0092,439.857,0.0240705,0.0,0.0
356,88.75,18.5899,19.7298,143.999,104.526,104.315,0.000615444,0.0425168,21.0092,439.887,0.0182297,0.0,0.0
358,89.25,19.2349,20.0741,146.786,104.552,104.095,0.000593513,0.0424829,21.0092,439.897,0.0396008,0.0,0.0
360,89.75,19.6856,20.165,141.128,104.59,104.629,0.000580192,0.0424555,21.0092,439.847,-0.00336651,0.0,0.0
362,90.25,19.0078,19.9365,145.342,104.628,104.251,0.000573402,0.0424333,21.0092,439.847,0.0325989,0.0,0.0
364,90.75,18.2666,19.9028,145.532,104.657,104.298,0.000574886,0.0424424,21.0092,439.867,0.0310018,0.0,0.0
366,91.25,18.7592,20.1692,147.58,104.684,104.382,0.000582375,0.0424497,21.0092,439.957,0.0260917,0.0,0.0
368,91.75,19.3368,20.5095,138.297,104.719,104.427,0.000591617,0.0424343,21.0092,439.947,0.0252084,0.0,0.0
370,92.25,19.109,19.9103,141.734,104.732,104.331,0.000601961,0.0424025,21.0092,439.957,0.0346397,0.0,0.0
372,92.75,19.5038,20.0364,143.505,104.779,104.253,0.000612203,0.0423768,21.0092,439.997,0.0454438,0.0,0.0
374,93.25,19.3878,19.9205,141.714,104.806,104.533,0.000622176,0.0423417,21.0092,439.927,0.023494,0.0,0.0
376,93.75,18.9181,20.0139,141.663,104.833,104.836,0.000630254,0.0423005,21.0092,439.977,-0.000221202,0.0,0.0
378,94.25,19.1265,20.1478,142.814,104.845,104.734,0.000636797,0.042267,21.0092,439.897,0.00958881,0.0,0.0
380,94.75,19.5088,20.0551,141.621,104.872,104.952,0.000642097,0.04224,21.0093,439.957,-0.00687216,0.0,0.0
382,95.25,19.2008,20.0005,146.905,104.893,104.909,0.00064639,0.0422109,21.0094,439.947,-0.00144356,0.0,0.0
384,95.75,18.954,19.3457,140.067,104.923,104.872,0.000647454,0.042181,21.0095,439.927,0.00441214,0.0,0.0
386,96.25,19.2366,19.9528,144.761,104.934,104.66,0.000648316,0.0421567,21.0094,439.937,0.0235971,0.0,0.0
388,96.75,18.996,19.9809,143.099,104.947,104.768,0.000648683,0.0421107,21.0093,439.977,0.0153589,0.0,0.0
390,97.25,18.965,20.1653,142.791,104.97,105.048,0.000649311,0.0420734,21.0093,439.987,-0.00672082,0.0,0.0
392,97.75,19.0989,19.6483,140.856,104.965,105.263,0.000630514,0.0420432,21.0092,439.957,-0.0256125,0.0,0.0
394,98.25,19.3909,20.1889,140.864,104.987,104.678,0.000615288,0.0420323,21.0091,439.937,0.0265962,0.0,0.0
396,98.75,18.6612,19.9361,143.059,104.986,104.75,0.000586071,0.0420234,21.0091,439.907,0.0203242,0.0,0.0
398,99.25,19.0173,20.1374,144.271,104.999,104.742,0.000562405,0.0420163,21.009,439.917,0.0220982,0.0,0.0
400,99.75,19.2698,20.1999,141.736,105.002,105.189,0.000533591,0.041999,21.009,439.877,-0.0160719,0.0,0.0
402,100.25,19.6345,20.4688,144.925,105.004,104.776,0.000510251,0.0419694,21.009,439.927,0.0196121,0.0,0.0
404,100.75,18.8881,19.9839,140.236,105.01,104.893,0.000484114,0.0419454,21.0089,439.927,0.0100372,0.0,0.0
406,101.25,19.0028,20.1941,143.184,105.005,104.843,0.000462942,0.0419395,21.0089,439.947,0.0140102,0.0,0.0
408,101.75,18.9623,19.6772,144.791,105.009,104.988,0.000445794,0.0419347,21.0089,439.917,0.00183291,0.0,0.0
410,102.25,18.6854,19.8237,143.309,105.005,104.784,0.000431903,0.0419444,21.0089,439.917,0.0189601,0.0,0.0
412,102.75,19.313,20.0929,141.556,104.993,104.718,0.000430804,0.0419523,21.0089,439.917,0.0237334,0.0,0.0
414,103.25,19.0241,20.0059,140.866,104.99,104.879,0.00043905,0.041918,21.0089,439.897,0.00958451,0.0,0.0
416,103.75,18.7426,19.852,141.15,104.98,104.675,0.00044573,0.0418902,21.0089,439.877,0.0262581,0.0,0.0
418,104.25,18.7639,20.1875,143.095,104.978,105.005,0.000479721,0.0418463,21.0089,439.887,-0.00238883,0.0,0.0
420,104.75,18.887,20.2178,147.505,104.948,104.542,0.000532976,0.0417915,21.0093,439.807,0.0349849,0.0,0.0
422,105.25,18.8017,19.8398,145.724,104.95,104.734,0.000594554,0.0417614,21.0097,439.797,0.0186035,0.0,0.0
424,105.75,18.8162,19.7663,141.435,104.933,104.915,0.00066103,0.0417499,21.0099,439.847,0.00156171,0.0,0.0
426,106.25,18.9342,20.2985,141.794,104.911,104.736,0.000721875,0.0417405,21.0102,439.837,0.0150656,0.0,0.0
428,106.75,18.8734,20.2316,146.058,104.886,104.56,0.000777459,0.0417329,21.0104,439.897,0.0280932,0.0,0.0
430,107.25,19.0777,20.1659,145.848,104.881,104.865,0.000822483,0.0417267,21.0105,439.977,0.00134216,0.0,0.0
432,107.75,19.1736,19.7821,138.999,104.844,105.096,0.000856533,0.0417432,21.0106,439.937,-0.0216388,0.0,0.0
434,108.25,18.4715,19.598,142.556,104.823,104.93,0.000884113,0.0417757,21.0107,439.927,-0.0092278,0.0,0.0
436,108.75,18.6467,19.3739,142.972,104.798,104.833,0.000896782,0.0418021,21.0108,439.877,-0.00303164,0.0,0.0
438,109.25,19.1268,20.0587,141.918,104.777,104.738,0.000907043,0.0418234,21.0109,439.917,0.00340507,0.0,0.0
440,109.75,18.391,19.2837,141.798,104.739,104.645,0.000904476,0.0418407,21.0109,439.887,0.00815646,0.0,0.0
442,110.25,19.0294,20.0159,141.616,104.738,104.487,0.000902396,0.0418412,21.011,439.957,0.0216537,0.0,0.0
444,110.75,19.0328,19.4517,139.358,104.708,104.661,0.000900712,0.0418415,21.011,439.957,0.00411842,0.0,0.0
446,111.25,19.0379,19.3749,141.534,104.704,104.536,0.000884849,0.0418283,21.011,439.947,0.01451,0.0,0.0
448,111.75,19.1914,19.3917,141.572,104.661,104.603,0.000872,0.0418176,21.0111,439.897,0.00502321,0.0,0.0
450,112.25,18.8631,19.4369,141.178,104.659,104.892,0.000844684,0.0417818,21.0111,439.847,-0.0201176,0.0,0.0
452,112.75,18.8816,19.0926,145.405,104.627,104.641,0.000822558,0.0417528,21.0111,439.827,-0.00121264,0.0,0.0
454,113.25,18.9975,19.5256,141.759,104.625,104.934,0.000790068,0.0417293,21.0111,439.807,-0.0265992,0.0,0.0
456,113.75,18.6293,19.8982,141.048,104.602,104.646,0.00075064,0.0416968,21.0111,439.907,-0.00376978,0.0,0.0
458,114.25,19.0033,19.5634,143.497,104.583,104.381,0.00070918,0.0416704,21.0111,439.857,0.017496,0.0,0.0
460,114.75,19.2316,20.5273,144.855,104.577,104.547,0.000667028,0.0416775,21.011,439.857,0.00263893,0.0,0.0
462,115.25,18.6756,19.1706,145.533,104.547,104.214,0.000632884,0.041709,21.0108,439.897,0.0287327,0.0,0.0
464,115.75,19.0862,19.634,143.353,104.53,104.789,0.000599199,0.0417345,21.0107,439.807,-0.0223332,0.0,0.0
466,116.25,19.0423,20.3868,140.495,104.513,104.77,0.000571913,0.0417551,21.0106,439.787,-0.0221724,0.0,0.0
468,116.75,18.8323,19.438,142.145,104.482,104.568,0.000548607,0.0417718,21.0106,439.837,-0.0073957,0.0,0.0
470,117.25,18.6593,19.558,145.022,104.471,104.244,0.000529729,0.0417711,21.0105,439.867,0.0196723,0.0,0.0
472,117.75,18.7431,19.5842,143.582,104.448,104.654,0.000514437,0.0417705,21.0105,439.897,-0.0177807,0.0,0.0
474,118.25,18.2759,19.1745,142.434,104.449,104.668,0.000498434,0.0417429,21.0104,439.927,-0.0189245,0.0,0.0
476,118.75,18.8531,19.5983,143.694,104.424,104.696,0.000485472,0.0417206,21.0102,439.897,-0.0234808,0.0,0.0
478,119.25,18.7789,19.6807,144.428,104.412,104.604,0.000474973,0.0417025,21.0098,439.917,-0.0165879,0.0,0.0
480,119.75,19.0785,19.625,143.64,104.396,104.526,0.00047732,0.0416879,21.0094,439.957,-0.0111971,0.0,0.0
482,120.25,18.7657,19.9664,142.959,104.394,104.811,0.000479221,0.0416689,21.0091,439.937,-0.0360368,0.0,0.0
484,120.75,19.0893,19.6691,145.487,104.434,104.586,0.000494027,0.041647,21.0089,439.867,-0.013147,0.0,0.0
486,121.25,19.1431,19.7184,141.218,104.514,104.94,0.00050602,0.0416294,21.0087,439.837,-0.0367566,0.0,0.0
488,121.75,18.8801,19.63,146.593,104.57,104.708,0.000522974,0.0416151,21.0085,439.737,-0.0118955,0.0,0.0
490,122.25,19.148,20.0722,144.619,104.632,104.643,0.000536706,0.0415821,21.0084,439.857,-0.000900449,0.0,0.0
492,122.75,18.2077,19.5486,145.8,104.699,104.621,0.00054421,0.0415361,21.0083,439.917,0.00668839,0.0,0.0
494,123.25,19.2085,19.5804,150.607,104.754,104.495,0.000550288,0.0415666,21.0082,439.937,0.0224193,0.0,0.0
496,123.75,18.7312,19.8697,144.343,104.808,104.493,0.000548863,0.0415914,21.0081,439.917,0.027165,0.0,0.0
498,124.25,18.7502,19.8659,142.788,104.855,104.726,0.000541994,0.0416114,21.0081,439.967,0.0111919,0.0,0.0
500,124.75,19.0486,19.5782,142.784,104.896,104.698,0.000536431,0.0416276,21.008,439.997,0.0171124,0.0,0.0
502,125.25,18.8308,19.696,141.063,104.956,104.94,0.000523674,0.0415865,21.008,439.907,0.00137983,0.0,0.0
504,125.75,19.1402,19.6456,144.573,104.984,105.257,0.000505916,0.0415533,21.008,439.807,-0.0234533,0.0,0.0
506,126.25,18.6808,19.2956,142.919,105.04,104.915,0.000489629,0.0415406,21.008,439.877,0.0107178,0.0,0.0
508,126.75,18.4775,19.1547,142.063,105.071,105.349,0.000474724,0.0415432,21.0079,439.947,-0.0238273,0.0,0.0
510,127.25,19.4648,19.5133,144.425,105.104,105.114,0.00046265,0.0415452,21.0079,439.847,-0.000864386,0.0,0.0
512,127.75,19.2617,19.7504,141.398,105.14,105.264,,0.0415469,,439.847,-0.0106545,0.0,0.0
514,128.25,18.7542,19.5118,145.274,105.171,105.154,,0.0415483,,439.907,0.00150898,0.0,0.0
516,128.75,19.0536,19.4998,139.566,105.211,105.257,,0.0415494,,439.877,-0.00392,0.0,0.0
518,129.25,18.502,20.0989,144.435,105.235,105.129,,0.0415503,,439.877,0.00904794,0.0,0.0
520,129.75,18.5163,19.2011,141.417,105.268,105.478,,0.041551,,439.867,-0.0180406,0.0,0.0
522,130.25,18.3498,19.6626,140.865,105.27,105.354,,0.0415787,,439.797,-0.00722711,0.0,0.0
524,130.75,18.0407,19.193,142.456,105.289,105.028,,,,439.827,0.0224139,0.0,0.0
526,131.25,18.4908,19.9892,140.904,105.303,105.241,,,,439.917,0.00527602,0.0,0.0
528,131.75,18.5327,19.5439,142.417,105.316,105.544,,,,439.937,-0.0195437,0.0,0.0
530,132.25,18.5801,19.2421,142.331,105.317,105.43,,,,439.867,-0.009731,0.0,0.0
532,132.75,18.7358,19.0759,145.916,105.318,105.634,,,,439.857,-0.027078,0.0,0.0
534,133.25,19.2334,19.5051,144.893,105.328,105.459,,,,439.837,-0.0112499,0.0,0.0
536,133.75,18.5892,19.8795,141.897,105.326,105.562,,,,439.897,-0.0201257,0.0,0.0
538,134.25,18.6282,20.2629,138.651,105.323,105.48,,,,439.897,-0.0134547,0.0,0.0
540,134.75,18.8648,19.6283,142.637,105.328,105.507,,,,439.947,-0.0153107,0.0,0.0
542,135.25,19.1834,19.9969,145.28,105.318,105.458,,,,439.957,-0.0119613,0.0,0.0
544,135.75,18.5955,19.4229,144.665,105.306,105.538,,,,439.947,-0.0198128,0.0,0.0
546,136.25,18.6485,19.57,140.877,105.296,105.362,,,,439.957,-0.00566146,0.0,0.0
548,136.75,18.7023,19.484,143.266,105.276,105.3,,,,439.957,-0.00200716,0.0,0.0
550,137.25,18.9443,19.3906,144.492,105.255,105.13,,,,439.967,0.0107113,0.0,0.0
552,137.75,18.7866,19.4925,146.732,105.247,105.354,,,,439.987,-0.00918362,0.0,0.0
554,138.25,18.7887,19.9057,142.931,105.216,105.117,,,,439.947,0.00854253,0.0,0.0