File: 01_Data/Luan_Panel/STA/N2/30K_min/Luan_Panel_STA_N2_30KData_221103_R1.csv
##Temp./Â°C,Time/min,Mass loss(subtr.2)/mg,DSC(subtr.2)/(mW/mg),Sensit./(uV/mW)
48.778,10.00917,-0.01513,0.02294641,1.08891
49.478,10.55021,-0.01553954,0.06440019,1.08832
50.178,10.67486,-0.01515563,0.10528,1.08773
50.878,10.76402,-0.01591567,0.13757,1.08714
51.578,10.8375,-0.01601275,0.17131,1.08655
52.278,10.90012,-0.01458899,0.19839,1.08596
52.978,10.9563,-0.01621925,0.22506,1.08537
53.678,11.00719,-0.01559353,0.25181,1.08479
54.378,11.05455,-0.01551897,0.27403,1.0842
55.078,11.10022,-0.01465253,0.29811,1.08362
55.778,11.14299,-0.01463458,0.31986,1.08303
56.478,11.1834,-0.01391964,0.34049,1.08245
57.178,11.22213,-0.01453139,0.36145,1.08187
57.878,11.25941,-0.01568675,0.37745,1.08129
58.578,11.2956,-0.0159908,0.39814,1.08071
59.278,11.33076,-0.01572062,0.41236,1.08013
59.978,11.36492,-0.01530681,0.43292,1.07955
60.678,11.39833,-0.01608506,0.44988,1.07898
61.378,11.43084,-0.01613832,0.46421,1.0784
62.078,11.46283,-0.01652231,0.47941,1.07782
62.778,11.49417,-0.01556504,0.49489,1.07725
63.478,11.52477,-0.01584049,0.51068,1.07667
64.178,11.555,-0.01630879,0.5245,1.0761
64.878,11.58475,-0.01665967,0.53912,1.07553
65.578,11.6142,-0.01695078,0.5516,1.07496
66.278,11.64322,-0.01682026,0.56607,1.07439
66.978,11.67182,-0.0173136,0.57983,1.07382
67.678,11.7002,-0.01708674,0.59297,1.07325
68.378,11.72833,-0.01727099,0.60565,1.07268
69.078,11.75629,-0.01735691,0.61672,1.07211
69.778,11.7839,-0.01755981,0.62995,1.07155
70.478,11.8112,-0.01746102,0.63987,1.07098
71.178,11.83822,-0.01688402,0.65277,1.07042
71.878,11.8651,-0.01673348,0.66486,1.06985
72.578,11.89185,-0.01673484,0.67835,1.06929
73.278,11.9185,-0.01639957,0.68943,1.06873
73.978,11.9449,-0.01717565,0.69942,1.06816
74.678,11.97123,-0.01829843,0.7111,1.0676
75.378,11.99734,-0.01823093,0.72247,1.06704
76.078,12.0234,-0.01820038,0.73238,1.06649
76.778,12.0493,-0.01841597,0.74354,1.06593
77.478,12.07506,-0.0192691,0.7554,1.06537
78.178,12.1008,-0.01916541,0.76587,1.06481
78.878,12.12627,-0.01861548,0.77686,1.06426
79.578,12.1518,-0.01984055,0.78519,1.0637
80.278,12.17713,-0.01995688,0.79563,1.06315
80.978,12.20228,-0.019073,0.8075,1.0626
81.678,12.22745,-0.02003363,0.81652,1.06204
82.378,12.2524,-0.01996308,0.82535,1.06149
83.078,12.27743,-0.02151613,0.8375,1.06094
83.778,12.3023,-0.02112513,0.84675,1.06039
84.478,12.3271,-0.02172655,0.85689,1.05984
85.178,12.3519,-0.02171863,0.86694,1.0593
85.878,12.3766,-0.02161175,0.87506,1.05875
86.578,12.40117,-0.02142262,0.88645,1.0582
87.278,12.42566,-0.0215641,0.89379,1.05766
87.978,12.45008,-0.02201198,0.90408,1.05711
88.678,12.47436,-0.02288997,0.91371,1.05657
89.378,12.49868,-0.02289552,0.92133,1.05603
90.078,12.52294,-0.02432333,0.93069,1.05548
90.778,12.54707,-0.02556895,0.9387,1.05494
91.478,12.5712,-0.02467786,0.94706,1.0544
92.178,12.59535,-0.02593179,0.95595,1.05386
92.878,12.61941,-0.02588978,0.96289,1.05332
93.578,12.64343,-0.0258428,0.97099,1.05279
94.278,12.66747,-0.0245337,0.9774,1.05225
94.978,12.69132,-0.02596383,0.98623,1.05171
95.678,12.71524,-0.02589943,0.99214,1.05118
96.378,12.73917,-0.02654,0.99902,1.05064
97.078,12.7629,-0.02718752,1.00614,1.05011
97.778,12.78669,-0.0272226,1.01107,1.04958
98.478,12.8104,-0.0282729,1.0162,1.04904
99.178,12.83415,-0.02850998,1.02115,1.04851
99.878,12.85798,-0.02852459,1.02574,1.04798
100.578,12.88181,-0.02967562,1.03272,1.04745
101.278,12.9055,-0.02985426,1.03574,1.04692
101.978,12.92914,-0.03081749,1.04062,1.04639
102.678,12.95273,-0.03114814,1.04354,1.04587
103.378,12.9763,-0.03114979,1.04673,1.04534
104.078,12.99987,-0.03115087,1.04993,1.04482
104.778,13.02356,-0.0312906,1.0528,1.04429
105.478,13.04721,-0.03378696,1.05197,1.04377
106.178,13.0708,-0.03377997,1.05609,1.04324
106.878,13.0943,-0.03379312,1.05732,1.04272
107.578,13.1178,-0.0343242,1.05923,1.0422
108.278,13.14124,-0.03508855,1.06012,1.04168
108.978,13.1648,-0.03509915,1.06051,1.04116
109.678,13.18821,-0.03510002,1.05782,1.04064
110.378,13.21164,-0.03509816,1.05933,1.04012
111.078,13.23499,-0.03504748,1.05891,1.0396
111.778,13.2584,-0.03639365,1.05861,1.03909
112.478,13.2818,-0.03642348,1.05796,1.03857
113.178,13.3053,-0.0364203,1.05696,1.03806
113.878,13.32886,-0.03642023,1.05333,1.03754
114.578,13.35227,-0.03637638,1.0512,1.03703
115.278,13.37566,-0.03832119,1.0532,1.03652
115.978,13.399,-0.03903947,1.04941,1.036
116.678,13.4223,-0.03929823,1.0483,1.03549
117.378,13.44556,-0.04036503,1.04791,1.03498
118.078,13.4688,-0.04036004,1.04489,1.03447
118.778,13.4921,-0.04035779,1.0433,1.03396
119.478,13.5154,-0.04030793,1.04377,1.03346
120.178,13.53873,-0.04166568,1.04505,1.03295
120.878,13.56199,-0.04168357,1.04833,1.03244
121.578,13.58515,-0.04168023,1.05112,1.03194
122.278,13.60829,-0.04168006,1.05297,1.03143
122.978,13.6314,-0.0416769,1.05653,1.03093
123.678,13.6545,-0.04256908,1.061,1.03043
124.378,13.6777,-0.04298265,1.06224,1.02992
125.078,13.70076,-0.04299034,1.06485,1.02942
125.778,13.72386,-0.04298991,1.0642,1.02892
126.478,13.7469,-0.04298842,1.06593,1.02842
127.178,13.76995,-0.04300373,1.06269,1.02792
127.878,13.79297,-0.04557401,1.06363,1.02743
128.578,13.81591,-0.04562144,1.05914,1.02693
129.278,13.83879,-0.04562001,1.05864,1.02643
129.978,13.8617,-0.04562,1.05626,1.02594
130.678,13.88456,-0.04562001,1.0542,1.02544
131.378,13.9072,-0.04562011,1.05122,1.02495
132.078,13.9301,-0.04561889,1.05124,1.02445
132.778,13.9529,-0.0455469,1.04896,1.02396
133.478,13.9757,-0.04690835,1.04796,1.02347
134.178,13.99872,-0.04693986,1.04561,1.02298
134.878,14.02147,-0.04694009,1.04813,1.02249
135.578,14.04415,-0.04694171,1.04378,1.022
136.278,14.0668,-0.04710799,1.04379,1.02151
136.978,14.08941,-0.04825635,1.04273,1.02102
137.678,14.112,-0.04825823,1.04226,1.02053
138.378,14.13459,-0.04825988,1.04202,1.02004
139.078,14.1572,-0.04826,1.03993,1.01956
139.778,14.17971,-0.04825995,1.03872,1.01907
140.478,14.20229,-0.04825524,1.03953,1.01859
141.178,14.2248,-0.04815602,1.03768,1.01811
141.878,14.24731,-0.04927799,1.03942,1.01762
142.578,14.26984,-0.04923905,1.03863,1.01714
143.278,14.2922,-0.04921275,1.04039,1.01666
143.978,14.3147,-0.04780108,1.03831,1.01618
144.678,14.3371,-0.04825857,1.03846,1.0157
145.378,14.35945,-0.04825914,1.0408,1.01522
146.078,14.3819,-0.04961865,1.04201,1.01474
146.778,14.4043,-0.04957347,1.04317,1.01427
147.478,14.42646,-0.04957015,1.04288,1.01379
148.178,14.4485,-0.04957,1.04508,1.01331
148.878,14.47061,-0.04957002,1.04568,1.01284
149.578,14.49285,-0.04957056,1.04871,1.01236
150.278,14.51529,-0.04958043,1.05126,1.01189
150.978,14.5379,-0.04987567,1.05289,1.01142
151.678,14.5603,-0.05065652,1.05529,1.01094
152.378,14.58271,-0.05120606,1.0568,1.01047
153.078,14.60488,-0.05121915,1.06,1.01
153.778,14.6269,-0.05121997,1.06155,1.00953
154.478,14.649,-0.05122,1.0602,1.00906
155.178,14.67106,-0.05121999,1.06519,1.00859
155.878,14.69319,-0.05121975,1.06877,1.00813
156.578,14.7155,-0.0512156,1.07255,1.00766
157.278,14.73763,-0.05117817,1.07522,1.00719
157.978,14.75971,-0.0522148,1.07928,1.00673
158.678,14.7818,-0.0522111,1.08054,1.00626
159.378,14.8039,-0.0522102,1.08199,1.0058
160.078,14.8259,-0.05221185,1.08567,1.00533
160.778,14.84791,-0.0522254,1.08795,1.00487
161.478,14.8699,-0.05325582,1.09307,1.00441
162.178,14.89189,-0.05351855,1.09664,1.00395
162.878,14.9139,-0.05351989,1.09861,1.00349
163.578,14.93591,-0.05352,1.102,1.00303
164.278,14.9579,-0.05352,1.1043,1.00257
164.978,14.9799,-0.05352002,1.10743,1.00211
165.678,15.00189,-0.05352101,1.11459,1.00165
166.378,15.02386,-0.05354295,1.11732,1.0012
167.078,15.04589,-0.0541704,1.12193,1.00074
167.778,15.0678,-0.05483183,1.12573,1.00028
168.478,15.08971,-0.05482979,1.12762,0.99983
169.178,15.1116,-0.05481738,1.13474,0.99938
169.878,15.1334,-0.05532366,1.13959,0.99892
170.578,15.15525,-0.05646312,1.14242,0.99847
171.278,15.1771,-0.0567992,1.1502,0.99802
171.978,15.1989,-0.05680988,1.15436,0.99757
172.678,15.2207,-0.05681203,1.1591,0.99712
173.378,15.24244,-0.05687419,1.1628,0.99667
174.078,15.26418,-0.055557,1.16848,0.99622
174.778,15.2859,-0.055517,1.17224,0.99577
175.478,15.30776,-0.05634937,1.18041,0.99532
176.178,15.32959,-0.05680957,1.18501,0.99487
176.878,15.3514,-0.05681034,1.19059,0.99443
177.578,15.37324,-0.0559715,1.19825,0.99398
178.278,15.39492,-0.0552973,1.20396,0.99353
178.978,15.4165,-0.05526823,1.20982,0.99309
179.678,15.43818,-0.0552479,1.21664,0.99265
180.378,15.45974,-0.05683313,1.22511,0.9922
181.078,15.48138,-0.05682995,1.23072,0.99176
181.778,15.50314,-0.05822883,1.2402,0.99132
182.478,15.52471,-0.05813583,1.24817,0.99088
183.178,15.5464,-0.05812686,1.25442,0.99044
183.878,15.5679,-0.05810038,1.26622,0.99
184.578,15.58947,-0.05944876,1.27186,0.98956
185.278,15.6111,-0.05942358,1.28149,0.98912
185.978,15.6326,-0.06038199,1.29104,0.98868
186.678,15.6542,-0.06074878,1.29813,0.98825
187.378,15.6757,-0.06087957,1.30879,0.98781
188.078,15.6972,-0.06210708,1.31778,0.98737
188.778,15.7187,-0.06207052,1.33128,0.98694
189.478,15.7402,-0.06207002,1.34082,0.9865
190.178,15.76171,-0.06207328,1.34981,0.98607
190.878,15.78311,-0.06216085,1.36132,0.98564
191.578,15.80449,-0.06364817,1.37104,0.98521
192.278,15.82595,-0.06402754,1.38311,0.98477
192.978,15.84733,-0.06397452,1.39409,0.98434
193.678,15.8688,-0.06536891,1.40796,0.98391
194.378,15.8903,-0.06535097,1.41628,0.98348
195.078,15.9116,-0.06651233,1.42794,0.98305
195.778,15.9331,-0.06663965,1.44175,0.98262
196.478,15.95452,-0.06781272,1.45358,0.9822
197.178,15.97596,-0.06799499,1.46829,0.98177
197.878,15.9974,-0.06961823,1.47835,0.98134
198.578,16.01877,-0.0696382,1.4927,0.98092
199.278,16.0402,-0.07100872,1.50533,0.98049
199.978,16.06159,-0.07095451,1.51783,0.98007
200.678,16.083,-0.07229053,1.53128,0.97964
201.378,16.1044,-0.0731309,1.54454,0.97922
202.078,16.12579,-0.07473956,1.55786,0.9788
202.778,16.14721,-0.07615802,1.57093,0.97837
203.478,16.16854,-0.07661415,1.58606,0.97795
204.178,16.1899,-0.07773679,1.59969,0.97753
204.878,16.21132,-0.07904968,1.60962,0.97711
205.578,16.23265,-0.07962067,1.62406,0.97669
206.278,16.254,-0.08093607,1.63967,0.97627
206.978,16.27535,-0.08132433,1.652,0.97585
207.678,16.29663,-0.08226965,1.66582,0.97543
208.378,16.31796,-0.08270449,1.67924,0.97502
209.078,16.33929,-0.08390121,1.69079,0.9746
209.778,16.3607,-0.08546838,1.70357,0.97418
210.478,16.38201,-0.0881951,1.71536,0.97377
211.178,16.40334,-0.08869689,1.73019,0.97335
211.878,16.4248,-0.08987796,1.74217,0.97294
212.578,16.44613,-0.0916143,1.75343,0.97252
213.278,16.46754,-0.09316757,1.76461,0.97211
213.978,16.4889,-0.09440965,1.77665,0.9717
214.678,16.51026,-0.09586977,1.78692,0.97129
215.378,16.53156,-0.09787089,1.79786,0.97087
216.078,16.55285,-0.09937502,1.81178,0.97046
216.778,16.5742,-0.09948171,1.82277,0.97005
217.478,16.5955,-0.10031,1.83324,0.96964
218.178,16.61688,-0.10219,1.84451,0.96923
218.878,16.6382,-0.10389,1.85275,0.96883
219.578,16.6595,-0.10467,1.86485,0.96842
220.278,16.68082,-0.10605,1.87349,0.96801
220.978,16.70211,-0.10746,1.88392,0.9676
221.678,16.7234,-0.11045,1.89116,0.9672
222.378,16.74476,-0.11208,1.89995,0.96679
223.078,16.76608,-0.11414,1.91103,0.96639
223.778,16.78736,-0.11604,1.9188,0.96598
224.478,16.80869,-0.11787,1.92824,0.96558
225.178,16.82998,-0.11939,1.9359,0.96517
225.878,16.8512,-0.12131,1.9451,0.96477
226.578,16.87248,-0.12319,1.9534,0.96437
227.278,16.8938,-0.12479,1.96411,0.96396
227.978,16.91509,-0.12658,1.97117,0.96356
228.678,16.93645,-0.12815,1.9816,0.96316
229.378,16.9578,-0.13016,1.98798,0.96276
230.078,16.97906,-0.13271,1.99716,0.96236
230.778,17.00035,-0.13475,2.0071,0.96196
231.478,17.02161,-0.13675,2.01628,0.96156
232.178,17.0428,-0.13879,2.02334,0.96117
232.878,17.06411,-0.14028,2.03462,0.96077
233.578,17.0854,-0.14087,2.04254,0.96037
234.278,17.10667,-0.14293,2.05041,0.95997
234.978,17.12794,-0.14498,2.0601,0.95958
235.678,17.1493,-0.14753,2.06712,0.95918
236.378,17.17057,-0.14966,2.076,0.95879
237.078,17.19179,-0.15186,2.08335,0.95839
237.778,17.21305,-0.15426,2.09219,0.958
238.478,17.23423,-0.15657,2.09939,0.9576
239.178,17.2554,-0.15901,2.10524,0.95721
239.878,17.2766,-0.16139,2.11473,0.95682
240.578,17.29782,-0.16399,2.12124,0.95643
241.278,17.31904,-0.16713,2.12629,0.95604
241.978,17.34023,-0.16963,2.13277,0.95564
242.678,17.36148,-0.1716,2.13614,0.95525
243.378,17.38275,-0.17361,2.14093,0.95486
244.078,17.404,-0.17641,2.14599,0.95447
244.778,17.42527,-0.17892,2.14764,0.95408
245.478,17.44651,-0.18151,2.14972,0.9537
246.178,17.46762,-0.18377,2.15023,0.95331
246.878,17.48884,-0.18708,2.15131,0.95292
247.578,17.5101,-0.19198,2.15139,0.95253
248.278,17.53129,-0.19527,2.14979,0.95215
248.978,17.55255,-0.19727,2.15033,0.95176
249.678,17.5738,-0.19941,2.14592,0.95137
250.378,17.59496,-0.20188,2.14201,0.95099
251.078,17.61617,-0.20496,2.1406,0.9506
251.778,17.6374,-0.20786,2.13737,0.95022
252.478,17.65871,-0.21084,2.13203,0.94984
253.178,17.67994,-0.21373,2.12874,0.94945
253.878,17.70112,-0.21697,2.12612,0.94907
254.578,17.72225,-0.22066,2.11998,0.94869
255.278,17.74342,-0.22387,2.11618,0.9483
255.978,17.7646,-0.22689,2.11072,0.94792
256.678,17.7858,-0.22922,2.10584,0.94754
257.378,17.807,-0.23236,2.10272,0.94716
258.078,17.82815,-0.23626,2.09708,0.94678
258.778,17.8493,-0.24012,2.0939,0.9464
259.478,17.87041,-0.24368,2.08806,0.94602
260.178,17.89161,-0.24654,2.08546,0.94564
260.878,17.9128,-0.25029,2.08061,0.94526
261.578,17.93395,-0.25349,2.07651,0.94489
262.278,17.95513,-0.25691,2.07364,0.94451
262.978,17.97628,-0.26076,2.06972,0.94413
263.678,17.9974,-0.26452,2.06566,0.94375
264.378,18.01848,-0.26838,2.06278,0.94338
265.078,18.0396,-0.27134,2.05959,0.943
265.778,18.0607,-0.27467,2.05524,0.94263
266.478,18.08181,-0.2783,2.05415,0.94225
267.178,18.10299,-0.28206,2.05038,0.94188
267.878,18.12415,-0.28592,2.04704,0.9415
268.578,18.14535,-0.28957,2.04382,0.94113
269.278,18.16647,-0.29413,2.03982,0.94075
269.978,18.18763,-0.29786,2.03496,0.94038
270.678,18.20881,-0.30199,2.03424,0.94001
271.378,18.23,-0.30624,2.0308,0.93963
272.078,18.25111,-0.31085,2.02854,0.93926
272.778,18.27222,-0.31687,2.02669,0.93889
273.478,18.29334,-0.32091,2.02225,0.93852
274.178,18.31444,-0.32582,2.01782,0.93815
274.878,18.33559,-0.33127,2.01355,0.93778
275.578,18.35673,-0.33632,2.01145,0.93741
276.278,18.37784,-0.34,2.00859,0.93704
276.978,18.39905,-0.34438,2.00497,0.93667
277.678,18.4202,-0.34924,1.99986,0.9363
278.378,18.44131,-0.35521,1.99787,0.93593
279.078,18.46245,-0.36048,1.99391,0.93556
279.778,18.48356,-0.36587,1.98874,0.9352
280.478,18.50471,-0.37104,1.98488,0.93483
281.178,18.52585,-0.37751,1.97954,0.93446
281.878,18.547,-0.38274,1.97503,0.93409
282.578,18.5681,-0.38927,1.96917,0.93373
283.278,18.5892,-0.39477,1.96484,0.93336
283.978,18.61028,-0.40132,1.95721,0.933
284.678,18.63145,-0.40693,1.95221,0.93263
285.378,18.65265,-0.41491,1.94703,0.93227
286.078,18.6738,-0.42151,1.94077,0.9319
286.778,18.695,-0.42939,1.93389,0.93154
287.478,18.7161,-0.43564,1.92517,0.93117
288.178,18.73718,-0.44301,1.91799,0.93081
288.878,18.75835,-0.45056,1.90801,0.93045
289.578,18.77956,-0.45848,1.89858,0.93008
290.278,18.80078,-0.46596,1.88896,0.92972
290.978,18.82195,-0.47328,1.878,0.92936
291.678,18.84308,-0.48157,1.86879,0.92899
292.378,18.8642,-0.48918,1.85635,0.92863
293.078,18.88535,-0.498,1.84791,0.92827
293.778,18.9065,-0.50531,1.8361,0.92791
294.478,18.92765,-0.51492,1.82003,0.92755
295.178,18.94877,-0.52303,1.80804,0.92719
295.878,18.96998,-0.5327,1.79493,0.92683
296.578,18.99109,-0.54001,1.7787,0.92647
297.278,19.01228,-0.54998,1.7651,0.92611
297.978,19.03345,-0.55791,1.75081,0.92575
298.678,19.05459,-0.5678,1.73358,0.92539
299.378,19.07576,-0.57659,1.71862,0.92503
300.078,19.09693,-0.5872,1.70019,0.92467
300.778,19.11802,-0.59783,1.68205,0.92432
301.478,19.1391,-0.60851,1.66493,0.92396
302.178,19.16028,-0.61881,1.64732,0.9236
302.878,19.18143,-0.62841,1.62992,0.92324
303.578,19.20259,-0.6386,1.60793,0.92289
304.278,19.22373,-0.64841,1.58779,0.92253
304.978,19.2449,-0.6598,1.56703,0.92217
305.678,19.266,-0.66929,1.54878,0.92182
306.378,19.28719,-0.68143,1.52661,0.92146
307.078,19.3083,-0.69137,1.50558,0.9211
307.778,19.32953,-0.70315,1.48446,0.92075
308.478,19.3507,-0.71251,1.46332,0.92039
309.178,19.37181,-0.72461,1.4428,0.92004
309.878,19.39293,-0.73508,1.42168,0.91968
310.578,19.41403,-0.748,1.4017,0.91933
311.278,19.4351,-0.75817,1.38165,0.91898
311.978,19.4562,-0.76955,1.36053,0.91862
312.678,19.47728,-0.78017,1.34212,0.91827
313.378,19.4985,-0.79289,1.32277,0.91792
314.078,19.5197,-0.80662,1.30146,0.91756
314.778,19.5408,-0.81837,1.28262,0.91721
315.478,19.56203,-0.831,1.26452,0.91686
316.178,19.5832,-0.84116,1.24331,0.9165
316.878,19.6044,-0.8544,1.22731,0.91615
317.578,19.6256,-0.86515,1.20543,0.9158
318.278,19.64685,-0.87901,1.18967,0.91545
318.978,19.668,-0.88999,1.17396,0.9151
319.678,19.68915,-0.9038,1.15704,0.91474
320.378,19.7104,-0.91564,1.1442,0.91439
321.078,19.73156,-0.93052,1.12961,0.91404
321.778,19.75274,-0.94339,1.114,0.91369
322.478,19.77395,-0.95772,1.09958,0.91334
323.178,19.7952,-0.96952,1.08489,0.91299
323.878,19.81638,-0.98323,1.075,0.91264
324.578,19.83761,-0.99527,1.06406,0.91229
325.278,19.8588,-1.00915,1.04951,0.91194
325.978,19.88,-1.02257,1.04069,0.91159
326.678,19.90121,-1.03603,1.03032,0.91124
327.378,19.92247,-1.05069,1.02227,0.91089
328.078,19.94374,-1.06432,1.01499,0.91054
328.778,19.965,-1.07992,1.00815,0.91019
329.478,19.9863,-1.09349,1.00084,0.90985
330.178,20.00754,-1.1096,0.99294,0.9095
330.878,20.0288,-1.12346,0.98653,0.90915
331.578,20.05011,-1.1396,0.98578,0.9088
332.278,20.07147,-1.15235,0.97966,0.90845
332.978,20.0928,-1.16862,0.97693,0.90811
333.678,20.1141,-1.18096,0.97197,0.90776
334.378,20.1354,-1.19667,0.96777,0.90741
335.078,20.15665,-1.21074,0.96712,0.90706
335.778,20.178,-1.22689,0.96464,0.90672
336.478,20.19924,-1.24214,0.96065,0.90637
337.178,20.2206,-1.25789,0.95784,0.90602
337.878,20.2419,-1.27468,0.96127,0.90568
338.578,20.2632,-1.29032,0.95591,0.90533
339.278,20.28458,-1.30752,0.9531,0.90498
339.978,20.30591,-1.32227,0.95297,0.90464
340.678,20.32732,-1.34218,0.95024,0.90429
341.378,20.34866,-1.35708,0.94938,0.90394
342.078,20.37,-1.37508,0.94977,0.9036
342.778,20.3913,-1.38944,0.94683,0.90325
343.478,20.41261,-1.40796,0.94853,0.90291
344.178,20.43395,-1.42385,0.94504,0.90256
344.878,20.4554,-1.44338,0.94497,0.90222
345.578,20.4768,-1.46046,0.94328,0.90187
346.278,20.49814,-1.47921,0.94342,0.90152
346.978,20.51953,-1.49547,0.94243,0.90118
347.678,20.54083,-1.51333,0.93902,0.90083
348.378,20.56224,-1.53271,0.93917,0.90049
349.078,20.58363,-1.55137,0.93924,0.90015
349.778,20.6051,-1.5723,0.93676,0.8998
350.478,20.62654,-1.59008,0.93744,0.89946
351.178,20.64796,-1.61135,0.93565,0.89911
351.878,20.66943,-1.62864,0.93095,0.89877
352.578,20.6908,-1.65195,0.93121,0.89842
353.278,20.71227,-1.67014,0.92973,0.89808
353.978,20.73378,-1.69268,0.92751,0.89773
354.678,20.75528,-1.71155,0.9247,0.89739
355.378,20.7767,-1.73179,0.92358,0.89705
356.078,20.79816,-1.75162,0.91908,0.8967
356.778,20.81956,-1.77351,0.91557,0.89636
357.478,20.84101,-1.7954,0.91108,0.89602
358.178,20.8626,-1.81652,0.90771,0.89567
358.878,20.884,-1.84074,0.90472,0.89533
359.578,20.90547,-1.86118,0.90066,0.89498
360.278,20.92698,-1.88521,0.89272,0.89464
360.978,20.9485,-1.90471,0.88611,0.8943
361.678,20.97,-1.92916,0.88259,0.89395
362.378,20.99158,-1.94909,0.8775,0.89361
363.078,21.01309,-1.97295,0.87065,0.89327
363.778,21.0346,-1.99266,0.86214,0.89292
364.478,21.05609,-2.01621,0.85483,0.89258
365.178,21.07762,-2.03776,0.84503,0.89224
365.878,21.0992,-2.06082,0.83808,0.8919
366.578,21.12085,-2.08365,0.82519,0.89155
367.278,21.14246,-2.10579,0.81574,0.89121
367.978,21.1641,-2.12991,0.80551,0.89087
368.678,21.18565,-2.15069,0.79577,0.89052
369.378,21.20715,-2.17464,0.78403,0.89018
370.078,21.22873,-2.19406,0.77176,0.88984
370.778,21.2503,-2.21789,0.75654,0.88949
371.478,21.27188,-2.23677,0.74334,0.88915
372.178,21.29351,-2.25749,0.72939,0.88881
372.878,21.31504,-2.27421,0.71298,0.88847
373.578,21.3366,-2.29668,0.6968,0.88812
374.278,21.35815,-2.31854,0.68451,0.88778
374.978,21.3797,-2.33954,0.66556,0.88744
375.678,21.40128,-2.35836,0.64923,0.88709
376.378,21.42287,-2.37627,0.62853,0.88675
377.078,21.44446,-2.39745,0.61408,0.88641
377.778,21.4661,-2.41453,0.59628,0.88607
378.478,21.48772,-2.43383,0.57252,0.88572
379.178,21.50939,-2.44734,0.55519,0.88538
379.878,21.53105,-2.46396,0.53625,0.88504
380.578,21.55265,-2.47747,0.51627,0.8847
381.278,21.5743,-2.49319,0.49269,0.88435
381.978,21.59594,-2.50573,0.47833,0.88401
382.678,21.6175,-2.51951,0.45955,0.88367
383.378,21.6392,-2.53126,0.44152,0.88332
384.078,21.66086,-2.5421,0.42732,0.88298
384.778,21.6825,-2.55248,0.41127,0.88264
385.478,21.7042,-2.56271,0.39444,0.88229
386.178,21.72589,-2.57209,0.38344,0.88195
386.878,21.74767,-2.57867,0.37308,0.88161
387.578,21.76942,-2.58694,0.36202,0.88127
388.278,21.79114,-2.59299,0.35098,0.88092
388.978,21.81286,-2.59959,0.34474,0.88058
389.678,21.83454,-2.60396,0.33307,0.88024
390.378,21.85622,-2.60878,0.32734,0.87989
391.078,21.878,-2.61377,0.32336,0.87955
391.778,21.89975,-2.61844,0.31372,0.87921
392.478,21.92146,-2.62454,0.30583,0.87886
393.178,21.94324,-2.62809,0.30241,0.87852
393.878,21.96495,-2.63167,0.29615,0.87817
394.578,21.98667,-2.63462,0.28965,0.87783
395.278,22.00848,-2.63804,0.28649,0.87749
395.978,22.03021,-2.64132,0.28313,0.87714
396.678,22.05196,-2.64368,0.27461,0.8768
397.378,22.07378,-2.64611,0.26937,0.87646
398.078,22.09555,-2.64882,0.26541,0.87611
398.778,22.11745,-2.65133,0.25804,0.87577
399.478,22.13934,-2.65453,0.25334,0.87542
400.178,22.16113,-2.6584,0.24903,0.87508
400.878,22.18296,-2.66106,0.24423,0.87473
401.578,22.20477,-2.6634,0.24218,0.87439
402.278,22.2266,-2.66589,0.2377,0.87405
402.978,22.24842,-2.66856,0.23242,0.8737
403.678,22.27025,-2.67107,0.2304,0.87336
404.378,22.2921,-2.67316,0.22705,0.87301
405.078,22.314,-2.6752,0.22192,0.87267
405.778,22.3358,-2.67764,0.21801,0.87232
406.478,22.35768,-2.67984,0.21542,0.87198
407.178,22.37949,-2.68185,0.2082,0.87163
407.878,22.4013,-2.68411,0.20746,0.87128
408.578,22.42318,-2.68687,0.20396,0.87094
409.278,22.44503,-2.68963,0.20052,0.87059
409.978,22.46688,-2.69313,0.19545,0.87025
410.678,22.4887,-2.6958,0.19454,0.8699
411.378,22.5106,-2.69805,0.1896,0.86956
412.078,22.53248,-2.6989,0.18952,0.86921
412.778,22.55441,-2.70069,0.18723,0.86886
413.478,22.57637,-2.70271,0.18619,0.86852
414.178,22.59825,-2.70515,0.18251,0.86817
414.878,22.6201,-2.70742,0.18021,0.86782
415.578,22.64201,-2.70986,0.17766,0.86748
416.278,22.6639,-2.71185,0.17515,0.86713
416.978,22.68581,-2.71518,0.17458,0.86678
417.678,22.7077,-2.71741,0.17238,0.86643
418.378,22.7297,-2.71917,0.17089,0.86609
419.078,22.75156,-2.72087,0.16798,0.86574
419.778,22.7735,-2.72307,0.16795,0.86539
420.478,22.7955,-2.72536,0.1674,0.86504
421.178,22.81741,-2.72768,0.16306,0.8647
421.878,22.83938,-2.72966,0.16139,0.86435
422.578,22.86133,-2.73109,0.16123,0.864
423.278,22.88328,-2.73281,0.16067,0.86365
423.978,22.9053,-2.73446,0.15804,0.8633
424.678,22.92728,-2.73657,0.15969,0.86295
425.378,22.9493,-2.73864,0.15918,0.8626
426.078,22.97133,-2.74068,0.15835,0.86225
426.778,22.99326,-2.74275,0.15588,0.8619
427.478,23.01521,-2.74483,0.15516,0.86155
428.178,23.03714,-2.74692,0.15682,0.8612
428.878,23.0591,-2.74883,0.15907,0.86085
429.578,23.08107,-2.75109,0.15642,0.8605
430.278,23.1031,-2.75296,0.15718,0.86015
430.978,23.12515,-2.7551,0.15688,0.8598
431.678,23.1471,-2.75668,0.15832,0.85945
432.378,23.1692,-2.75838,0.15852,0.8591
433.078,23.19121,-2.76023,0.15902,0.85875
433.778,23.2132,-2.76209,0.15996,0.8584
434.478,23.23524,-2.76402,0.16238,0.85805
435.178,23.25729,-2.76595,0.16307,0.85769
435.878,23.2793,-2.76749,0.1635,0.85734
436.578,23.30144,-2.76936,0.16543,0.85699
437.278,23.32357,-2.7713,0.16683,0.85664
437.978,23.34561,-2.77339,0.17015,0.85628
438.678,23.3677,-2.77469,0.16933,0.85593
439.378,23.38975,-2.77651,0.17053,0.85558
440.078,23.41177,-2.77845,0.17508,0.85523
440.778,23.43386,-2.77986,0.17542,0.85487
441.478,23.45593,-2.78137,0.17618,0.85452
442.178,23.47791,-2.78315,0.17834,0.85416
442.878,23.50001,-2.78414,0.18121,0.85381
443.578,23.52208,-2.78581,0.18222,0.85345
444.278,23.54417,-2.7881,0.18455,0.8531
444.978,23.56636,-2.79044,0.18854,0.85274
445.678,23.58848,-2.79264,0.18951,0.85239
446.378,23.61059,-2.79406,0.18998,0.85203
447.078,23.63269,-2.79513,0.19184,0.85168
447.778,23.6548,-2.79651,0.19785,0.85132
448.478,23.67695,-2.7981,0.19987,0.85097
449.178,23.69911,-2.79918,0.20542,0.85061
449.878,23.72126,-2.80124,0.20218,0.85025
450.578,23.7434,-2.80294,0.20766,0.84989
451.278,23.76557,-2.8044,0.20926,0.84954
451.978,23.78772,-2.80615,0.21249,0.84918
452.678,23.8099,-2.80776,0.21361,0.84882
453.378,23.83209,-2.80907,0.21535,0.84846
454.078,23.85425,-2.81042,0.21915,0.8481
454.778,23.87642,-2.81255,0.22166,0.84775
455.478,23.8986,-2.81459,0.22698,0.84739
456.178,23.92077,-2.81635,0.22906,0.84703
456.878,23.94294,-2.81806,0.23469,0.84667
457.578,23.9651,-2.82001,0.23362,0.84631
458.278,23.98735,-2.82114,0.23838,0.84595
458.978,24.0096,-2.82216,0.23785,0.84559
459.678,24.0318,-2.8235,0.24584,0.84523
460.378,24.05399,-2.82476,0.24653,0.84487
461.078,24.0762,-2.82645,0.251,0.8445
461.778,24.09842,-2.82798,0.25295,0.84414
462.478,24.1207,-2.82925,0.25528,0.84378
463.178,24.143,-2.83099,0.26052,0.84342
463.878,24.16518,-2.83291,0.26383,0.84306
464.578,24.18733,-2.83464,0.2647,0.84269
465.278,24.20954,-2.83586,0.26848,0.84233
465.978,24.23176,-2.83627,0.27097,0.84197
466.678,24.254,-2.83779,0.27492,0.8416
467.378,24.2762,-2.8392,0.27739,0.84124
468.078,24.29845,-2.84065,0.27904,0.84087
468.778,24.32067,-2.84108,0.28299,0.84051
469.478,24.34289,-2.84207,0.2826,0.84014
470.178,24.36515,-2.84366,0.28536,0.83978
470.878,24.38743,-2.84453,0.28947,0.83941
471.578,24.40972,-2.84553,0.2902,0.83905
472.278,24.43206,-2.84788,0.29315,0.83868
472.978,24.45433,-2.84993,0.29693,0.83831
473.678,24.47662,-2.85148,0.29916,0.83795
474.378,24.49889,-2.85214,0.29833,0.83758
475.078,24.52112,-2.85289,0.3014,0.83721
475.778,24.54339,-2.85462,0.30599,0.83684
476.478,24.56567,-2.85478,0.30841,0.83648
477.178,24.58793,-2.85612,0.31089,0.83611
477.878,24.61016,-2.85697,0.3127,0.83574
478.578,24.63249,-2.85786,0.31491,0.83537
479.278,24.6548,-2.85925,0.31752,0.835
479.978,24.67713,-2.86078,0.32069,0.83463
480.678,24.69945,-2.86327,0.32218,0.83426
481.378,24.72152,-2.8643,0.32367,0.83389
482.078,24.7438,-2.86537,0.32615,0.83352
482.778,24.766,-2.86638,0.3265,0.83315
483.478,24.78821,-2.86802,0.32798,0.83277
484.178,24.8107,-2.869,0.33146,0.8324
484.878,24.83297,-2.87005,0.33375,0.83203
485.578,24.85533,-2.87133,0.33485,0.83166
486.278,24.8777,-2.87282,0.33622,0.83128
486.978,24.90004,-2.87449,0.33872,0.83091
487.678,24.92238,-2.87518,0.33866,0.83053
488.378,24.9447,-2.87595,0.33954,0.83016
489.078,24.96699,-2.87747,0.3439,0.82979
489.778,24.98913,-2.87783,0.34471,0.82941
490.478,25.0115,-2.87874,0.34151,0.82903
491.178,25.03383,-2.88022,0.34506,0.82866
491.878,25.0562,-2.88158,0.34733,0.82828
492.578,25.07875,-2.88217,0.34878,0.8279
493.278,25.10117,-2.88338,0.35033,0.82753
493.978,25.1235,-2.88453,0.35074,0.82715
494.678,25.14592,-2.88531,0.35147,0.82677
495.378,25.16825,-2.88648,0.35061,0.82639
496.078,25.19057,-2.88796,0.35216,0.82602
496.778,25.21293,-2.88866,0.35505,0.82564
497.478,25.23532,-2.88895,0.35748,0.82526
498.178,25.2577,-2.89045,0.35814,0.82488
498.878,25.2801,-2.892,0.3547,0.8245
499.578,25.30254,-2.89365,0.36071,0.82412
500.278,25.32497,-2.89407,0.36099,0.82373
500.978,25.3474,-2.89485,0.36163,0.82335
501.678,25.36982,-2.89598,0.36266,0.82297
502.378,25.39224,-2.89716,0.36401,0.82259
503.078,25.41457,-2.89852,0.36516,0.82221
503.778,25.43692,-2.8999,0.36557,0.82182
504.478,25.45938,-2.89988,0.36624,0.82144
505.178,25.48179,-2.90114,0.36444,0.82105
505.878,25.50421,-2.90273,0.36645,0.82067
506.578,25.52666,-2.90274,0.36589,0.82028
507.278,25.54906,-2.90437,0.36967,0.8199
507.978,25.57149,-2.90567,0.37067,0.81951
508.678,25.594,-2.90615,0.3701,0.81913
509.378,25.61649,-2.90727,0.37108,0.81874
510.078,25.6389,-2.90819,0.37289,0.81835
510.778,25.66141,-2.90872,0.37245,0.81797
511.478,25.6839,-2.91103,0.37166,0.81758
512.178,25.70628,-2.91297,0.3706,0.81719
512.878,25.72873,-2.91377,0.37535,0.8168
513.578,25.75119,-2.91467,0.37282,0.81641
514.278,25.7737,-2.91569,0.37313,0.81602
514.978,25.79617,-2.91566,0.37073,0.81563
515.678,25.81866,-2.91654,0.37525,0.81524
516.378,25.84111,-2.91707,0.37555,0.81485
517.078,25.8636,-2.9179,0.37574,0.81446
517.778,25.88601,-2.9193,0.37514,0.81407
518.478,25.90849,-2.91978,0.37493,0.81367
519.178,25.93104,-2.92076,0.37556,0.81328
519.878,25.95354,-2.92223,0.37311,0.81289
520.578,25.97609,-2.92274,0.37218,0.81249
521.278,25.99869,-2.9239,0.37497,0.8121
521.978,26.0212,-2.92472,0.37719,0.8117
522.678,26.0437,-2.92513,0.37521,0.81131
523.378,26.06618,-2.92707,0.37691,0.81091
524.078,26.0886,-2.92757,0.37187,0.81052
524.778,26.11107,-2.92875,0.37426,0.81012
525.478,26.13356,-2.92988,0.37293,0.80972
526.178,26.15611,-2.93058,0.37197,0.80933
526.878,26.17875,-2.9319,0.36982,0.80893
527.578,26.20134,-2.93348,0.36998,0.80853
528.278,26.22395,-2.93449,0.36995,0.80813
528.978,26.2465,-2.93475,0.37067,0.80773
529.678,26.2691,-2.93508,0.36926,0.80733
530.378,26.29167,-2.93604,0.36791,0.80693
531.078,26.31424,-2.93598,0.36838,0.80653
531.778,26.33683,-2.93746,0.3656,0.80613
532.478,26.3594,-2.93785,0.3645,0.80573
533.178,26.38202,-2.93891,0.36671,0.80532
533.878,26.40462,-2.93941,0.36458,0.80492
534.578,26.42721,-2.93987,0.36458,0.80452
535.278,26.44987,-2.93975,0.3661,0.80411
535.978,26.4725,-2.94034,0.36547,0.80371
536.678,26.495,-2.94136,0.36297,0.80331
537.378,26.5177,-2.94176,0.36461,0.8029
538.078,26.5402,-2.94368,0.36285,0.80249
538.778,26.5629,-2.9445,0.36399,0.80209
539.478,26.58563,-2.94553,0.36431,0.80168
540.178,26.60833,-2.94583,0.36422,0.80127
540.878,26.63105,-2.94668,0.36586,0.80087
541.578,26.65372,-2.94726,0.36724,0.80046
542.278,26.67639,-2.94841,0.3649,0.80005
542.978,26.69905,-2.94836,0.36852,0.79964
543.678,26.7217,-2.94973,0.36663,0.79923
544.378,26.7442,-2.94994,0.36754,0.79882
545.078,26.76695,-2.95101,0.36931,0.79841
545.778,26.7897,-2.95137,0.37038,0.798
546.478,26.81243,-2.95231,0.37145,0.79759
547.178,26.8353,-2.95388,0.37041,0.79717
547.878,26.85795,-2.95395,0.37155,0.79676
548.578,26.88063,-2.95533,0.37275,0.79635
549.278,26.90339,-2.95527,0.37493,0.79593
549.978,26.92612,-2.95633,0.37673,0.79552
550.678,26.94884,-2.95688,0.37617,0.7951
551.378,26.9716,-2.95805,0.37848,0.79469
552.078,26.9943,-2.95936,0.37726,0.79427
552.778,27.017,-2.95943,0.38082,0.79385
553.478,27.03978,-2.95942,0.38249,0.79344
554.178,27.0625,-2.96063,0.38096,0.79302
554.878,27.0853,-2.96074,0.38314,0.7926
555.578,27.10806,-2.96072,0.38124,0.79218
556.278,27.13085,-2.96211,0.38269,0.79176
556.978,27.15362,-2.96207,0.38427,0.79134
557.678,27.17646,-2.96317,0.38346,0.79092
558.378,27.19919,-2.96338,0.38485,0.7905
559.078,27.22196,-2.9635,0.38622,0.79008
559.778,27.24475,-2.96475,0.38745,0.78966
560.478,27.26752,-2.9649,0.38948,0.78924
561.178,27.2904,-2.96611,0.38335,0.78881
561.878,27.3132,-2.96648,0.38769,0.78839
562.578,27.3361,-2.96745,0.39192,0.78797
563.278,27.3589,-2.96775,0.38889,0.78754
563.978,27.38162,-2.96869,0.3915,0.78712
564.678,27.40437,-2.97006,0.39168,0.78669
565.378,27.42721,-2.97017,0.39445,0.78626
566.078,27.4501,-2.97154,0.39338,0.78584
566.778,27.473,-2.97151,0.39346,0.78541
567.478,27.49588,-2.97149,0.39653,0.78498
568.178,27.51871,-2.97148,0.39827,0.78455
568.878,27.5414,-2.97284,0.3966,0.78412
569.578,27.5641,-2.97327,0.39566,0.78369
570.278,27.58695,-2.97413,0.39587,0.78326
570.978,27.60985,-2.97415,0.39775,0.78283
571.678,27.6329,-2.97551,0.39888,0.7824
572.378,27.65581,-2.97584,0.39964,0.78197
573.078,27.67867,-2.97677,0.39871,0.78154
573.778,27.70147,-2.97656,0.39901,0.7811
574.478,27.7243,-2.97698,0.40137,0.78067
575.178,27.74717,-2.97849,0.40104,0.78024
575.878,27.77,-2.97855,0.39803,0.7798
576.578,27.7927,-2.97989,0.39996,0.77937
577.278,27.8155,-2.9802,0.40247,0.77893
577.978,27.8385,-2.98116,0.40128,0.77849
578.678,27.8614,-2.98115,0.40263,0.77806
579.378,27.88457,-2.98114,0.4013,0.77762
580.078,27.9076,-2.98235,0.40075,0.77718
580.778,27.93042,-2.98245,0.40169,0.77674
581.478,27.95335,-2.98346,0.39867,0.7763
582.178,27.97628,-2.98377,0.40059,0.77586
582.878,27.9992,-2.98378,0.40192,0.77542
583.578,28.0221,-2.98511,0.39918,0.77498
584.278,28.04505,-2.98585,0.39717,0.77454
584.978,28.06795,-2.98663,0.40037,0.7741
585.678,28.0908,-2.98707,0.40019,0.77365
586.378,28.11376,-2.98729,0.39997,0.77321
587.078,28.13662,-2.98853,0.39994,0.77277
587.778,28.15956,-2.98852,0.39862,0.77232
588.478,28.18253,-2.98984,0.39877,0.77188
589.178,28.2055,-2.99015,0.39932,0.77143
589.878,28.2285,-2.99065,0.39997,0.77098
590.578,28.2514,-2.99049,0.40073,0.77054
591.278,28.2744,-2.99123,0.40081,0.77009
591.978,28.29737,-2.99145,0.39831,0.76964
592.678,28.3204,-2.99255,0.3981,0.76919
593.378,28.3433,-2.99256,0.39828,0.76874
594.078,28.36631,-2.99258,0.39588,0.76829
594.778,28.38934,-2.99356,0.39621,0.76784
595.478,28.4124,-2.99389,0.39554,0.76739
596.178,28.43543,-2.99424,0.39427,0.76694
596.878,28.45846,-2.99521,0.39455,0.76649
597.578,28.4815,-2.99529,0.39303,0.76604
598.278,28.5045,-2.99656,0.38984,0.76558
598.978,28.5275,-2.99651,0.38925,0.76513
599.678,28.55047,-2.99696,0.38938,0.76467
600.378,28.57348,-2.99781,0.39039,0.76422
601.078,28.59657,-2.99784,0.38849,0.76376
601.778,28.61968,-2.99853,0.38608,0.76331
602.478,28.64272,-2.99913,0.38768,0.76285
603.178,28.66572,-2.99905,0.38467,0.76239
603.878,28.6887,-3.00046,0.38522,0.76193
604.578,28.71175,-3.00043,0.38451,0.76147
605.278,28.7348,-3.00156,0.38428,0.76101
605.978,28.75795,-3.00178,0.38053,0.76055
606.678,28.78105,-3.00176,0.37886,0.76009
607.378,28.8041,-3.00283,0.37938,0.75963
608.078,28.8271,-3.00308,0.37869,0.75917
608.778,28.85026,-3.00316,0.37768,0.75871
609.478,28.8734,-3.00441,0.3766,0.75824
610.178,28.8964,-3.00432,0.37468,0.75778
610.878,28.9196,-3.00573,0.37316,0.75732
611.578,28.9427,-3.00573,0.37268,0.75685
612.278,28.9657,-3.00568,0.36929,0.75639
612.978,28.9889,-3.00703,0.37014,0.75592
613.678,29.01197,-3.00704,0.3679,0.75545
614.378,29.0351,-3.00704,0.36481,0.75499
615.078,29.05823,-3.00705,0.36671,0.75452
615.778,29.08131,-3.00788,0.3619,0.75405
616.478,29.1044,-3.00835,0.36238,0.75358
617.178,29.1275,-3.00836,0.35939,0.75311
617.878,29.1506,-3.00882,0.36066,0.75264
618.578,29.17372,-3.00965,0.35622,0.75217
619.278,29.1968,-3.00968,0.35681,0.7517
619.978,29.2199,-3.00971,0.35572,0.75122
620.678,29.24294,-3.01104,0.35543,0.75075
621.378,29.266,-3.01112,0.35397,0.75028
622.078,29.28913,-3.01231,0.3513,0.7498
622.778,29.31225,-3.01217,0.35319,0.74933
623.478,29.33548,-3.01269,0.3547,0.74885
624.178,29.3586,-3.01263,0.35557,0.74838
624.878,29.3817,-3.0135,0.3527,0.7479
625.578,29.4047,-3.01394,0.34952,0.74742
626.278,29.42783,-3.01395,0.35279,0.74695
626.978,29.45089,-3.01392,0.35212,0.74647
627.678,29.4739,-3.01525,0.3492,0.74599
628.378,29.49703,-3.01534,0.35109,0.74551
629.078,29.52011,-3.01671,0.35022,0.74503
629.778,29.54325,-3.01662,0.34805,0.74455
630.478,29.5664,-3.01799,0.34787,0.74406
631.178,29.5894,-3.01801,0.34888,0.74358
631.878,29.6123,-3.01803,0.35057,0.7431
632.578,29.6353,-3.01861,0.3513,0.74262
633.278,29.6583,-3.01932,0.34915,0.74213
633.978,29.6814,-3.01941,0.34919,0.74165
634.678,29.7046,-3.02069,0.34892,0.74116
635.378,29.72765,-3.02064,0.35134,0.74068
636.078,29.7508,-3.02065,0.34945,0.74019
636.778,29.7739,-3.02205,0.3498,0.7397
637.478,29.79699,-3.02196,0.35425,0.73921
638.178,29.82007,-3.02196,0.35066,0.73872
638.878,29.84311,-3.02192,0.34927,0.73824
639.578,29.8662,-3.02314,0.34958,0.73775
640.278,29.88922,-3.02327,0.34925,0.73725
640.978,29.91232,-3.02419,0.35238,0.73676
641.678,29.93549,-3.02457,0.35167,0.73627
642.378,29.95863,-3.02427,0.35614,0.73578
643.078,29.9817,-3.02567,0.35414,0.73529
643.778,30.00473,-3.02559,0.3526,0.73479
644.478,30.02773,-3.02559,0.35708,0.7343
645.178,30.0508,-3.02636,0.35642,0.7338
645.878,30.07387,-3.02688,0.35724,0.73331
646.578,30.09698,-3.02689,0.35876,0.73281
647.278,30.1201,-3.02689,0.35864,0.73231
647.978,30.1432,-3.02689,0.35846,0.73182
648.678,30.16625,-3.02703,0.36015,0.73132
649.378,30.18931,-3.02821,0.36041,0.73082
650.078,30.2124,-3.0282,0.36389,0.73032
650.778,30.2355,-3.02921,0.36111,0.72982
651.478,30.2586,-3.02952,0.3613,0.72932
652.178,30.28172,-3.02952,0.36318,0.72882
652.878,30.3048,-3.02953,0.36607,0.72832
653.578,30.32791,-3.03008,0.36612,0.72781
654.278,30.35107,-3.03076,0.36631,0.72731
654.978,30.3742,-3.03122,0.36883,0.72681
655.678,30.3973,-3.03139,0.36953,0.7263
656.378,30.42039,-3.03138,0.37123,0.7258
657.078,30.4435,-3.03239,0.37043,0.72529
657.778,30.4666,-3.03269,0.37022,0.72479
658.478,30.48964,-3.0327,0.37249,0.72428
659.178,30.51288,-3.03288,0.37415,0.72377
659.878,30.53605,-3.03405,0.37475,0.72326
660.578,30.55923,-3.03402,0.37763,0.72275
661.278,30.5823,-3.03402,0.37894,0.72224
661.978,30.6055,-3.03402,0.37862,0.72173
662.678,30.62861,-3.03402,0.3778,0.72122
663.378,30.6518,-3.03413,0.37634,0.72071
664.078,30.67502,-3.03538,0.37723,0.7202
664.778,30.6982,-3.03534,0.37761,0.71969
665.478,30.72128,-3.03669,0.37903,0.71917
666.178,30.74438,-3.03791,0.38101,0.71866
666.878,30.76748,-3.03917,0.38257,0.71815
667.578,30.79059,-3.03929,0.38083,0.71763
668.278,30.8137,-3.03918,0.38269,0.71711
668.978,30.83685,-3.03979,0.38273,0.7166
669.678,30.86,-3.03961,0.38186,0.71608
670.378,30.8832,-3.0396,0.3824,0.71556
671.078,30.9063,-3.03927,0.38281,0.71504
671.778,30.9294,-3.0406,0.38259,0.71453
672.478,30.95257,-3.0406,0.38236,0.71401
673.178,30.9757,-3.04072,0.3789,0.71349
673.878,30.9989,-3.04192,0.38264,0.71296
674.578,31.0221,-3.04192,0.38209,0.71244
675.278,31.04529,-3.04192,0.37869,0.71192
675.978,31.0684,-3.04192,0.37601,0.7114
676.678,31.0917,-3.04247,0.37542,0.71087
677.378,31.11491,-3.04181,0.37153,0.71035
678.078,31.1381,-3.04187,0.37403,0.70982
678.778,31.1613,-3.04325,0.37358,0.7093
679.478,31.1845,-3.04325,0.37164,0.70877
680.178,31.20767,-3.04378,0.36826,0.70825
680.878,31.23087,-3.04455,0.36976,0.70772
681.578,31.2541,-3.04456,0.36615,0.70719
682.278,31.27733,-3.04455,0.36339,0.70666
682.978,31.30058,-3.04466,0.36517,0.70613
683.678,31.3238,-3.04588,0.36099,0.7056
684.378,31.34693,-3.04587,0.35905,0.70507
685.078,31.37017,-3.04587,0.36013,0.70454
685.778,31.3933,-3.04608,0.35604,0.70401
686.478,31.41657,-3.04722,0.35595,0.70348
687.178,31.4397,-3.04718,0.35583,0.70294
687.878,31.46292,-3.04815,0.35462,0.70241
688.578,31.4862,-3.04848,0.35272,0.70188
689.278,31.5094,-3.04817,0.35267,0.70134
689.978,31.53264,-3.04816,0.34789,0.70081
690.678,31.55586,-3.04812,0.34861,0.70027
691.378,31.5791,-3.04949,0.3489,0.69973
692.078,31.6024,-3.04949,0.34891,0.6992
692.778,31.62562,-3.04949,0.34469,0.69866
693.478,31.64882,-3.04949,0.34352,0.69812
694.178,31.67202,-3.0495,0.34378,0.69758
694.878,31.6952,-3.05007,0.34065,0.69704
695.578,31.71841,-3.05081,0.33875,0.6965
696.278,31.7417,-3.05081,0.33563,0.69596
696.978,31.7649,-3.05079,0.33583,0.69541
697.678,31.78813,-3.05017,0.33108,0.69487
698.378,31.8114,-3.05114,0.33457,0.69433
699.078,31.8347,-3.05113,0.32948,0.69379
699.778,31.85797,-3.0511,0.32879,0.69324
700.478,31.8812,-3.05265,0.32928,0.6927
701.178,31.9045,-3.05378,0.3275,0.69215
701.878,31.9278,-3.05377,0.32542,0.6916
702.578,31.951,-3.05377,0.32788,0.69106
703.278,31.97428,-3.05375,0.32106,0.69051
703.978,31.99751,-3.05441,0.3234,0.68996
704.678,32.02074,-3.0541,0.32229,0.68941
705.378,32.04397,-3.05434,0.32318,0.68886
706.078,32.0672,-3.05546,0.32038,0.68831
706.778,32.0904,-3.05508,0.32246,0.68776
707.478,32.1136,-3.05508,0.32209,0.68721
708.178,32.13695,-3.05508,0.31907,0.68666
708.878,32.16025,-3.05551,0.31823,0.68611
709.578,32.18357,-3.05637,0.31797,0.68555
710.278,32.20689,-3.0564,0.32263,0.685
710.978,32.23016,-3.0564,0.31915,0.68444
711.678,32.2535,-3.0564,0.31502,0.68389
712.378,32.27684,-3.05639,0.31157,0.68333
713.078,32.30015,-3.05646,0.31231,0.68278
713.778,32.3235,-3.05772,0.31425,0.68222
714.478,32.3468,-3.05773,0.31446,0.68166
715.178,32.37005,-3.05877,0.31635,0.68111
715.878,32.39335,-3.05903,0.31688,0.68055
716.578,32.41665,-3.05898,0.31591,0.67999
717.278,32.43993,-3.06037,0.31616,0.67943
717.978,32.46318,-3.06035,0.31505,0.67887
718.678,32.48649,-3.06035,0.3146,0.67831
719.378,32.50976,-3.06035,0.31433,0.67774
720.078,32.5331,-3.05974,0.31394,0.67718
720.778,32.5565,-3.05937,0.31187,0.67662
721.478,32.5798,-3.05936,0.30965,0.67605
722.178,32.60313,-3.05899,0.31249,0.67549
722.878,32.62642,-3.05903,0.30802,0.67493
723.578,32.64976,-3.05903,0.30826,0.67436
724.278,32.6731,-3.06044,0.30626,0.67379
724.978,32.6964,-3.06034,0.30483,0.67323
725.678,32.71975,-3.06034,0.30493,0.67266
726.378,32.74306,-3.06004,0.30257,0.67209
727.078,32.76632,-3.0604,0.30167,0.67152
727.778,32.78974,-3.06035,0.30272,0.67095
728.478,32.81303,-3.06033,0.30291,0.67038
729.178,32.83637,-3.06103,0.30184,0.66981
729.878,32.8598,-3.06296,0.30062,0.66924
730.578,32.88316,-3.06296,0.29629,0.66867
731.278,32.90655,-3.06408,0.29947,0.6681
731.978,32.92994,-3.06429,0.29934,0.66753
732.678,32.95321,-3.06431,0.2978,0.66695
733.378,32.97653,-3.06502,0.29501,0.66638
734.078,32.99991,-3.06561,0.29315,0.6658
734.778,33.02324,-3.06561,0.29464,0.66523
735.478,33.04663,-3.06559,0.29189,0.66465
736.178,33.06995,-3.06457,0.29113,0.66408
736.878,33.09326,-3.06431,0.29203,0.6635
737.578,33.11667,-3.06476,0.29094,0.66292
738.278,33.14,-3.0656,0.29041,0.66234
738.978,33.16338,-3.06561,0.2896,0.66177
739.678,33.18679,-3.06561,0.28481,0.66119
740.378,33.21012,-3.06561,0.29044,0.66061
741.078,33.23352,-3.06561,0.28473,0.66003
741.778,33.2569,-3.0656,0.28548,0.65944
742.478,33.2802,-3.06698,0.28421,0.65886
743.178,33.3035,-3.06694,0.28199,0.65828
743.878,33.32675,-3.06693,0.27874,0.6577
744.578,33.35007,-3.06693,0.2786,0.65711
745.278,33.37343,-3.06693,0.28096,0.65653
745.978,33.39673,-3.06693,0.27855,0.65595
746.678,33.42007,-3.06693,0.2789,0.65536
747.378,33.44336,-3.06685,0.28254,0.65477
748.078,33.46674,-3.06824,0.27834,0.65419
748.778,33.4901,-3.06899,0.27881,0.6536
749.478,33.51351,-3.07094,0.27775,0.65301
750.178,33.53691,-3.07043,0.27083,0.65243
750.878,33.56023,-3.06935,0.27461,0.65184
751.578,33.58356,-3.06855,0.26791,0.65125
752.278,33.60695,-3.06803,0.26794,0.65066
752.978,33.6303,-3.06802,0.26717,0.65007
753.678,33.6537,-3.06794,0.26905,0.64948
754.378,33.67707,-3.06933,0.26764,0.64888
755.078,33.7004,-3.06934,0.26566,0.64829
755.778,33.72378,-3.06934,0.26633,0.6477
756.478,33.74714,-3.06934,0.26579,0.64711
757.178,33.77053,-3.06979,0.26322,0.64651
757.878,33.79396,-3.07063,0.26483,0.64592
758.578,33.8174,-3.07084,0.26396,0.64532
759.278,33.84085,-3.07217,0.26512,0.64473
759.978,33.86435,-3.0722,0.26278,0.64413
760.678,33.88782,-3.07226,0.2608,0.64353
761.378,33.91124,-3.07188,0.26311,0.64294
762.078,33.93465,-3.07205,0.26091,0.64234
762.778,33.95805,-3.0712,0.26168,0.64174
763.478,33.98142,-3.07077,0.25898,0.64114
764.178,34.00486,-3.07077,0.26225,0.64054
764.878,34.02835,-3.07104,0.25858,0.63994
765.578,34.05173,-3.07207,0.26331,0.63934
766.278,34.0752,-3.07209,0.25753,0.63874
766.978,34.09865,-3.07209,0.25685,0.63814
767.678,34.12213,-3.07209,0.25738,0.63754
768.378,34.14561,-3.07212,0.25301,0.63693
769.078,34.1691,-3.07307,0.2524,0.63633
769.778,34.1926,-3.0734,0.25449,0.63573
770.478,34.21621,-3.0734,0.25442,0.63512
771.178,34.2398,-3.0734,0.25301,0.63452
771.878,34.2632,-3.07341,0.25557,0.63391
772.578,34.28671,-3.07369,0.25517,0.6333
773.278,34.31023,-3.07341,0.25547,0.6327
773.978,34.33378,-3.0734,0.25507,0.63209
774.678,34.35745,-3.07342,0.25366,0.63148
775.378,34.38097,-3.07452,0.25566,0.63087
776.078,34.40442,-3.07472,0.25227,0.63026
776.778,34.42792,-3.07472,0.2538,0.62965
777.478,34.45143,-3.07472,0.25218,0.62904
778.178,34.47501,-3.07472,0.25249,0.62843
778.878,34.49858,-3.07472,0.25311,0.62782
779.578,34.52211,-3.07561,0.25045,0.62721
780.278,34.5457,-3.07602,0.24812,0.6266
780.978,34.56922,-3.07603,0.25013,0.62599
781.678,34.59274,-3.07603,0.24946,0.62537
782.378,34.61633,-3.07603,0.24715,0.62476
783.078,34.6399,-3.07603,0.24958,0.62415
783.778,34.6635,-3.07603,0.25161,0.62353
784.478,34.68705,-3.07599,0.25166,0.62292
785.178,34.71065,-3.0774,0.25134,0.6223
785.878,34.7342,-3.07646,0.25508,0.62168
786.578,34.75775,-3.07636,0.25538,0.62107
787.278,34.78134,-3.07637,0.25719,0.62045
787.978,34.8049,-3.07775,0.26032,0.61983
788.678,34.82848,-3.07767,0.25791,0.61921
789.378,34.852,-3.07767,0.2561,0.61859
790.078,34.87552,-3.07767,0.25462,0.61797
790.778,34.89902,-3.07767,0.25517,0.61735
791.478,34.92265,-3.07767,0.25448,0.61673
792.178,34.9463,-3.07875,0.25606,0.61611
792.878,34.96989,-3.079,0.25829,0.61549
793.578,34.99342,-3.07862,0.25671,0.61487
793.678,34.99686,-3.07864,0.25615,0.61478