File: 01_Data/Luan_Panel/STA/N2/30K_min/Luan_Panel_STA_N2_30KData_221103_R2.csv
##Temp./Â°C,Time/min,Mass loss(subtr.2)/mg,DSC(subtr.2)/(mW/mg),Sensit./(uV/mW)
48.651,10.01,-0.03949,0.02019232,1.08901
49.351,10.5514,-0.04275,0.06661398,1.08842
50.051,10.67574,-0.04614753,0.10464,1.08783
50.751,10.76398,-0.04155698,0.13814,1.08724
51.451,10.8369,-0.04212516,0.16753,1.08665
52.151,10.89981,-0.04124855,0.19747,1.08607
52.851,10.95665,-0.04322908,0.22339,1.08548
53.551,11.00794,-0.04282834,0.24904,1.08489
54.251,11.05573,-0.04244837,0.27401,1.08431
54.951,11.10057,-0.04254577,0.29836,1.08372
55.651,11.14297,-0.04283115,0.31908,1.08314
56.351,11.18319,-0.04284213,0.33988,1.08256
57.051,11.22195,-0.04437055,0.35857,1.08198
57.751,11.25929,-0.04399051,0.37621,1.0814
58.451,11.29538,-0.04388485,0.39655,1.08082
59.151,11.3307,-0.04374989,0.41421,1.08024
59.851,11.365,-0.04296509,0.4311,1.07966
60.551,11.3982,-0.04348137,0.4479,1.07908
61.251,11.43069,-0.04476465,0.46348,1.0785
61.951,11.4626,-0.04564064,0.47781,1.07793
62.651,11.49387,-0.0455051,0.49336,1.07735
63.351,11.52464,-0.04534382,0.50933,1.07678
64.051,11.55487,-0.04469217,0.52124,1.0762
64.751,11.58482,-0.04448917,0.53492,1.07563
65.451,11.61425,-0.04601596,0.54652,1.07506
66.151,11.6432,-0.04646345,0.56139,1.07449
66.851,11.67179,-0.04587705,0.5744,1.07392
67.551,11.70012,-0.04485037,0.5865,1.07335
68.251,11.7281,-0.04384173,0.59875,1.07278
68.951,11.75586,-0.04391403,0.61036,1.07221
69.651,11.78345,-0.04540131,0.62248,1.07165
70.351,11.81077,-0.0478223,0.63307,1.07108
71.051,11.83792,-0.04741272,0.64527,1.07052
71.751,11.86482,-0.04704378,0.65782,1.06995
72.451,11.8915,-0.04702087,0.66581,1.06939
73.151,11.91817,-0.04732958,0.67707,1.06883
73.851,11.94453,-0.04734406,0.68644,1.06827
74.551,11.9709,-0.04668085,0.69556,1.06771
75.251,11.9971,-0.04672712,0.70593,1.06715
75.951,12.02315,-0.04689889,0.71739,1.06659
76.651,12.04904,-0.04783933,0.72666,1.06603
77.351,12.07479,-0.04814827,0.73652,1.06547
78.051,12.1004,-0.04861209,0.74639,1.06491
78.751,12.1259,-0.04891046,0.75744,1.06436
79.451,12.15138,-0.04955783,0.76643,1.0638
80.151,12.17662,-0.05054708,0.77524,1.06325
80.851,12.2019,-0.05023356,0.78676,1.0627
81.551,12.22696,-0.05107455,0.7938,1.06214
82.251,12.25204,-0.05123438,0.80501,1.06159
82.951,12.27704,-0.0522008,0.81187,1.06104
83.651,12.30189,-0.05189684,0.82061,1.06049
84.351,12.32678,-0.05193267,0.83179,1.05994
85.051,12.35148,-0.05215636,0.84119,1.0594
85.751,12.37613,-0.05281222,0.84951,1.05885
86.451,12.4007,-0.05220593,0.85887,1.0583
87.151,12.4252,-0.05345667,0.86724,1.05776
87.851,12.44966,-0.05318442,0.87475,1.05721
88.551,12.47401,-0.05382282,0.88354,1.05667
89.251,12.4984,-0.05378443,0.89249,1.05612
89.951,12.52263,-0.05480987,0.90221,1.05558
90.651,12.54682,-0.05417185,0.90729,1.05504
91.351,12.57082,-0.05488447,0.91439,1.0545
92.051,12.59499,-0.05530176,0.92446,1.05396
92.751,12.61912,-0.05631185,0.93122,1.05342
93.451,12.6432,-0.05645381,0.93739,1.05288
94.151,12.6672,-0.05660219,0.9467,1.05235
94.851,12.69111,-0.05699268,0.95383,1.05181
95.551,12.71495,-0.05755811,0.95894,1.05127
96.251,12.73886,-0.05752719,0.96493,1.05074
96.951,12.76265,-0.05890434,0.97025,1.0502
97.651,12.7865,-0.0588485,0.97665,1.04967
98.351,12.81017,-0.06022477,0.97965,1.04914
99.051,12.83393,-0.06018362,0.98744,1.04861
99.751,12.85775,-0.06143773,0.99303,1.04808
100.451,12.88149,-0.06150513,0.99688,1.04755
101.151,12.90526,-0.06279453,1.00049,1.04702
101.851,12.92884,-0.06286379,1.00464,1.04649
102.551,12.95239,-0.06398984,1.00997,1.04596
103.251,12.97594,-0.06415837,1.00979,1.04544
103.951,12.99965,-0.06415999,1.01227,1.04491
104.651,13.02326,-0.06416021,1.01328,1.04439
105.351,13.04674,-0.06416441,1.01638,1.04386
106.051,13.07029,-0.06450861,1.01953,1.04334
106.751,13.09382,-0.06513403,1.02426,1.04282
107.451,13.1174,-0.06515815,1.02417,1.04229
108.151,13.14104,-0.06549822,1.0259,1.04177
108.851,13.16446,-0.06548251,1.02632,1.04125
109.551,13.18799,-0.06547965,1.02619,1.04073
110.251,13.21145,-0.06548842,1.02727,1.04022
110.951,13.23487,-0.0668902,1.02443,1.0397
111.651,13.2584,-0.06680261,1.0235,1.03918
112.351,13.2818,-0.06679018,1.02403,1.03866
113.051,13.3053,-0.06909609,1.02312,1.03815
113.751,13.32882,-0.06910061,1.02257,1.03764
114.451,13.35232,-0.06909679,1.02344,1.03712
115.151,13.37568,-0.0690043,1.01832,1.03661
115.851,13.39904,-0.0704187,1.018,1.0361
116.551,13.4224,-0.07022015,1.01638,1.03559
117.251,13.4457,-0.06889228,1.01471,1.03508
117.951,13.46909,-0.06978627,1.01433,1.03457
118.651,13.4923,-0.07028554,1.01695,1.03406
119.351,13.51552,-0.07180461,1.01805,1.03355
120.051,13.53876,-0.07173761,1.02105,1.03304
120.751,13.56199,-0.07314087,1.02389,1.03254
121.451,13.5852,-0.07446417,1.02651,1.03203
122.151,13.60835,-0.07437201,1.03021,1.03153
122.851,13.63142,-0.0743777,1.03149,1.03102
123.551,13.65453,-0.07578528,1.03285,1.03052
124.251,13.6776,-0.07569331,1.0367,1.03002
124.951,13.70059,-0.07568996,1.036,1.02951
125.651,13.7237,-0.07568999,1.03597,1.02901
126.351,13.74673,-0.07569,1.03638,1.02851
127.051,13.7698,-0.07569,1.03435,1.02801
127.751,13.79287,-0.07569,1.03309,1.02752
128.451,13.81584,-0.07569006,1.03266,1.02702
129.151,13.83879,-0.07569045,1.02868,1.02652
129.851,13.8617,-0.07567664,1.02761,1.02603
130.551,13.8847,-0.07598977,1.02727,1.02553
131.251,13.90753,-0.07667387,1.02346,1.02504
131.951,13.9303,-0.07699804,1.02237,1.02454
132.651,13.95311,-0.07699936,1.02182,1.02405
133.351,13.97589,-0.0770029,1.02193,1.02356
134.051,13.9986,-0.07723657,1.02073,1.02307
134.751,14.02142,-0.07907179,1.01751,1.02257
135.451,14.04415,-0.07961444,1.01847,1.02208
136.151,14.06684,-0.07962915,1.01507,1.0216
136.851,14.08949,-0.07962948,1.01355,1.02111
137.551,14.1121,-0.07966984,1.01349,1.02062
138.251,14.1347,-0.07841912,1.01309,1.02013
138.951,14.1572,-0.07903687,1.01209,1.01965
139.651,14.17975,-0.07964224,1.01105,1.01916
140.351,14.2023,-0.08048132,1.00988,1.01868
141.051,14.2248,-0.08093689,1.00855,1.01819
141.751,14.24734,-0.08095255,1.00825,1.01771
142.451,14.26994,-0.08095174,1.01075,1.01723
143.151,14.29224,-0.07935415,1.01111,1.01675
143.851,14.31465,-0.07929566,1.00872,1.01627
144.551,14.33707,-0.07874572,1.01028,1.01579
145.251,14.35943,-0.07876586,1.011,1.01531
145.951,14.3819,-0.08000122,1.0149,1.01483
146.651,14.40429,-0.08108549,1.01335,1.01435
147.351,14.42653,-0.08259519,1.01936,1.01387
148.051,14.44873,-0.08436768,1.01788,1.0134
148.751,14.471,-0.08570372,1.01993,1.01292
149.451,14.4933,-0.08553698,1.02106,1.01245
150.151,14.51556,-0.08411626,1.02421,1.01197
150.851,14.5379,-0.08289475,1.02546,1.0115
151.551,14.5601,-0.08280979,1.02752,1.01103
152.251,14.5823,-0.08280923,1.02876,1.01056
152.951,14.60455,-0.08279566,1.0331,1.01009
153.651,14.62675,-0.08238091,1.03377,1.00962
154.351,14.64894,-0.08181682,1.03553,1.00915
155.051,14.67111,-0.08182018,1.038,1.00868
155.751,14.69319,-0.08182016,1.04186,1.00821
156.451,14.71529,-0.08182277,1.04518,1.00774
157.151,14.73739,-0.08185652,1.04699,1.00728
157.851,14.7595,-0.08338497,1.04946,1.00681
158.551,14.7816,-0.08444871,1.05164,1.00635
159.251,14.80367,-0.08444668,1.05375,1.00588
159.951,14.8258,-0.08521126,1.0594,1.00542
160.651,14.8479,-0.08543999,1.06022,1.00496
161.351,14.87,-0.08544936,1.06276,1.00449
162.051,14.89201,-0.08681207,1.06794,1.00403
162.751,14.91399,-0.08677362,1.06874,1.00357
163.451,14.936,-0.08676785,1.0725,1.00311
164.151,14.958,-0.08674362,1.07704,1.00265
164.851,14.97996,-0.08710101,1.07952,1.00219
165.551,15.002,-0.0867771,1.08129,1.00174
166.251,15.02392,-0.08677206,1.08473,1.00128
166.951,15.0459,-0.08679565,1.09083,1.00082
167.651,15.06781,-0.08754011,1.09448,1.00037
168.351,15.08973,-0.08808032,1.09764,0.99991
169.051,15.11165,-0.0880799,1.10148,0.99946
169.751,15.1336,-0.08808008,1.10367,0.999
170.451,15.1555,-0.08808179,1.10869,0.99855
171.151,15.17735,-0.08810401,1.11357,0.9981
171.851,15.19927,-0.0889954,1.11993,0.99765
172.551,15.22105,-0.08938911,1.12006,0.9972
173.251,15.2429,-0.08939009,1.12575,0.99675
173.951,15.2648,-0.08939458,1.12978,0.9963
174.651,15.2866,-0.08946013,1.13695,0.99585
175.351,15.30846,-0.08871879,1.14139,0.9954
176.051,15.33019,-0.08874096,1.14566,0.99495
176.751,15.35193,-0.09013669,1.15074,0.99451
177.451,15.3736,-0.09006699,1.15852,0.99406
178.151,15.39529,-0.09006045,1.16385,0.99362
178.851,15.41699,-0.09006001,1.16911,0.99317
179.551,15.4387,-0.09005988,1.17725,0.99273
180.251,15.4604,-0.09006078,1.18197,0.99228
180.951,15.48214,-0.09157036,1.19178,0.99184
181.651,15.5039,-0.09148791,1.19811,0.9914
182.351,15.52551,-0.09148062,1.20486,0.99096
183.051,15.54713,-0.09148184,1.21363,0.99052
183.751,15.5687,-0.09171322,1.22275,0.99008
184.451,15.5903,-0.09279595,1.23047,0.98964
185.151,15.6118,-0.0927972,1.23953,0.9892
185.851,15.6333,-0.09276458,1.24786,0.98876
186.551,15.65489,-0.09384445,1.25738,0.98833
187.251,15.67637,-0.09410933,1.26768,0.98789
187.951,15.69789,-0.09437841,1.27529,0.98745
188.651,15.7194,-0.09442234,1.28432,0.98702
189.351,15.7409,-0.09578164,1.29605,0.98658
190.051,15.7623,-0.09572706,1.30715,0.98615
190.751,15.78377,-0.09717251,1.31692,0.98572
191.451,15.8052,-0.0980859,1.32511,0.98528
192.151,15.82668,-0.09844231,1.34043,0.98485
192.851,15.8481,-0.09938857,1.34757,0.98442
193.551,15.8696,-0.09936863,1.35715,0.98399
194.251,15.891,-0.10074,1.36935,0.98356
194.951,15.9124,-0.10069,1.37988,0.98313
195.651,15.9338,-0.10141,1.39429,0.9827
196.351,15.95519,-0.10199,1.40493,0.98227
197.051,15.9766,-0.10212,1.41591,0.98185
197.751,15.9981,-0.10335,1.4265,0.98142
198.451,16.01949,-0.10331,1.44172,0.98099
199.151,16.0409,-0.10492,1.45251,0.98057
199.851,16.06219,-0.10681,1.46645,0.98014
200.551,16.0836,-0.10764,1.47901,0.97972
201.251,16.10497,-0.10875,1.4917,0.9793
201.951,16.1264,-0.10865,1.50175,0.97887
202.651,16.14777,-0.10892,1.51591,0.97845
203.351,16.1692,-0.10939,1.53129,0.97803
204.051,16.19063,-0.11055,1.54253,0.97761
204.751,16.212,-0.11233,1.55431,0.97719
205.451,16.23336,-0.11252,1.57012,0.97677
206.151,16.25467,-0.11372,1.58131,0.97635
206.851,16.27597,-0.11504,1.59587,0.97593
207.551,16.2973,-0.11639,1.60852,0.97551
208.251,16.31865,-0.11719,1.62202,0.97509
208.951,16.34003,-0.11879,1.63832,0.97468
209.651,16.36139,-0.12,1.64795,0.97426
210.351,16.3828,-0.12103,1.65798,0.97384
211.051,16.40417,-0.12206,1.67143,0.97343
211.751,16.4255,-0.12361,1.68457,0.97301
212.451,16.4469,-0.12514,1.69492,0.9726
213.151,16.46819,-0.12709,1.70536,0.97219
213.851,16.48953,-0.12894,1.71703,0.97177
214.551,16.5109,-0.13077,1.72925,0.97136
215.251,16.53217,-0.1317,1.73982,0.97095
215.951,16.55347,-0.13343,1.75084,0.97054
216.651,16.57475,-0.13499,1.76101,0.97013
217.351,16.59601,-0.1368,1.77265,0.96972
218.051,16.61734,-0.13824,1.78355,0.96931
218.751,16.6387,-0.13999,1.79282,0.9689
219.451,16.6601,-0.14173,1.80537,0.96849
220.151,16.68146,-0.14264,1.81341,0.96808
220.851,16.7028,-0.14405,1.82163,0.96768
221.551,16.72409,-0.14544,1.83019,0.96727
222.251,16.74545,-0.14732,1.83791,0.96686
222.951,16.7668,-0.14897,1.84581,0.96646
223.651,16.78811,-0.15048,1.85714,0.96605
224.351,16.80946,-0.15386,1.86532,0.96565
225.051,16.8308,-0.15567,1.87125,0.96525
225.751,16.85206,-0.15705,1.88108,0.96484
226.451,16.87335,-0.15844,1.88929,0.96444
227.151,16.89463,-0.16014,1.89715,0.96404
227.851,16.9159,-0.16221,1.90527,0.96364
228.551,16.9372,-0.1641,1.9149,0.96324
229.251,16.95845,-0.16611,1.92592,0.96283
229.951,16.97971,-0.16823,1.93517,0.96243
230.651,17.00094,-0.17021,1.9415,0.96204
231.351,17.02214,-0.172,1.95005,0.96164
232.051,17.0434,-0.17378,1.95849,0.96124
232.751,17.0646,-0.17577,1.96847,0.96084
233.451,17.08578,-0.17777,1.97746,0.96044
234.151,17.10699,-0.17964,1.98514,0.96005
234.851,17.12799,-0.18141,1.99501,0.95965
235.551,17.14922,-0.18334,2.00499,0.95925
236.251,17.17047,-0.18531,2.01239,0.95886
236.951,17.19179,-0.18734,2.01724,0.95846
237.651,17.21321,-0.18991,2.02916,0.95807
238.351,17.23454,-0.19261,2.03541,0.95768
239.051,17.25583,-0.19571,2.04334,0.95728
239.751,17.2771,-0.1979,2.05064,0.95689
240.451,17.29828,-0.20018,2.05667,0.9565
241.151,17.31949,-0.20232,2.05965,0.95611
241.851,17.3407,-0.20477,2.06736,0.95572
242.551,17.36195,-0.20729,2.07095,0.95532
243.251,17.38316,-0.21032,2.07571,0.95493
243.951,17.40439,-0.21303,2.07999,0.95454
244.651,17.42558,-0.21525,2.08166,0.95416
245.351,17.44675,-0.21774,2.08364,0.95377
246.051,17.46783,-0.22003,2.08596,0.95338
246.751,17.4888,-0.22281,2.08715,0.95299
247.451,17.50978,-0.2256,2.08736,0.9526
248.151,17.5309,-0.22794,2.08674,0.95222
248.851,17.55217,-0.23118,2.08602,0.95183
249.551,17.5735,-0.23397,2.08337,0.95144
250.251,17.59496,-0.23679,2.08037,0.95106
250.951,17.6161,-0.23928,2.07585,0.95067
251.651,17.63728,-0.24179,2.07273,0.95029
252.351,17.65843,-0.24507,2.06793,0.94991
253.051,17.67953,-0.24848,2.06595,0.94952
253.751,17.70066,-0.2512,2.05964,0.94914
254.451,17.72182,-0.25395,2.05675,0.94876
255.151,17.74297,-0.2572,2.05298,0.94837
255.851,17.76414,-0.26104,2.04854,0.94799
256.551,17.78529,-0.26507,2.04256,0.94761
257.251,17.80643,-0.26818,2.03807,0.94723
257.951,17.82766,-0.27145,2.03235,0.94685
258.651,17.8488,-0.27443,2.02967,0.94647
259.351,17.86992,-0.2776,2.02554,0.94609
260.051,17.891,-0.28137,2.02138,0.94571
260.751,17.91209,-0.28536,2.01659,0.94533
261.451,17.9332,-0.28873,2.01408,0.94495
262.151,17.95437,-0.29218,2.00941,0.94458
262.851,17.97554,-0.2963,2.00793,0.9442
263.551,17.9967,-0.30017,2.0026,0.94382
264.251,18.01781,-0.30397,1.99834,0.94345
264.951,18.03891,-0.30788,1.99812,0.94307
265.651,18.06,-0.31184,1.99064,0.94269
266.351,18.08108,-0.31608,1.98933,0.94232
267.051,18.1022,-0.31919,1.98614,0.94194
267.751,18.12333,-0.32264,1.98474,0.94157
268.451,18.14449,-0.32615,1.97886,0.94119
269.151,18.16564,-0.33009,1.97652,0.94082
269.851,18.18672,-0.33471,1.97448,0.94045
270.551,18.20785,-0.33907,1.97232,0.94007
271.251,18.229,-0.34345,1.97098,0.9397
271.951,18.2502,-0.34677,1.96457,0.93933
272.651,18.27144,-0.35117,1.95996,0.93896
273.351,18.2926,-0.35564,1.95836,0.93859
274.051,18.31373,-0.36032,1.95398,0.93822
274.751,18.33485,-0.36517,1.95206,0.93785
275.451,18.35577,-0.36963,1.94826,0.93748
276.151,18.37688,-0.37462,1.9447,0.93711
276.851,18.39798,-0.37883,1.9426,0.93674
277.551,18.41912,-0.38356,1.93844,0.93637
278.251,18.44035,-0.3889,1.93353,0.936
278.951,18.4615,-0.39436,1.93015,0.93563
279.651,18.4825,-0.40133,1.92505,0.93526
280.351,18.5034,-0.40661,1.92189,0.93489
281.051,18.52454,-0.41217,1.91795,0.93453
281.751,18.54566,-0.41916,1.91226,0.93416
282.451,18.5669,-0.42509,1.90894,0.93379
283.151,18.5882,-0.43121,1.90468,0.93343
283.851,18.60932,-0.43626,1.89702,0.93306
284.551,18.63048,-0.44248,1.88975,0.9327
285.251,18.6516,-0.44705,1.88519,0.93233
285.951,18.6728,-0.45385,1.87945,0.93197
286.651,18.69396,-0.46039,1.87306,0.9316
287.351,18.71511,-0.46836,1.86514,0.93124
288.051,18.73625,-0.47489,1.85813,0.93087
288.751,18.75734,-0.48262,1.84948,0.93051
289.451,18.7785,-0.49009,1.84087,0.93015
290.151,18.79965,-0.49907,1.83357,0.92979
290.851,18.8208,-0.50643,1.82219,0.92942
291.551,18.842,-0.51408,1.81094,0.92906
292.251,18.8631,-0.52282,1.80185,0.9287
292.951,18.88426,-0.53108,1.7922,0.92834
293.651,18.90546,-0.5399,1.78079,0.92798
294.351,18.9266,-0.54724,1.76595,0.92762
295.051,18.94774,-0.55702,1.75435,0.92725
295.751,18.96895,-0.56532,1.74379,0.92689
296.451,18.9901,-0.57502,1.72893,0.92653
297.151,19.01131,-0.58278,1.71506,0.92617
297.851,19.0325,-0.59304,1.70103,0.92582
298.551,19.05367,-0.60165,1.68473,0.92546
299.251,19.07488,-0.61212,1.66837,0.9251
299.951,19.096,-0.62082,1.65206,0.92474
300.651,19.11725,-0.6309,1.63452,0.92438
301.351,19.1385,-0.6402,1.61851,0.92402
302.051,19.15962,-0.65029,1.59895,0.92367
302.751,19.1808,-0.66044,1.5797,0.92331
303.451,19.20196,-0.67066,1.5614,0.92295
304.151,19.22318,-0.68085,1.54313,0.92259
304.851,19.2444,-0.69053,1.52142,0.92224
305.551,19.26566,-0.70217,1.5017,0.92188
306.251,19.28673,-0.71232,1.48482,0.92153
306.951,19.30789,-0.72526,1.4618,0.92117
307.651,19.3291,-0.73495,1.44084,0.92081
308.351,19.3503,-0.74699,1.41966,0.92046
309.051,19.3716,-0.75664,1.39856,0.9201
309.751,19.3928,-0.76896,1.3805,0.91975
310.451,19.41394,-0.77925,1.35802,0.91939
311.151,19.4351,-0.79188,1.3377,0.91904
311.851,19.45637,-0.80321,1.31707,0.91869
312.551,19.4776,-0.81606,1.299,0.91833
313.251,19.4988,-0.82757,1.27723,0.91798
313.951,19.51999,-0.83986,1.25736,0.91763
314.651,19.5411,-0.8515,1.23886,0.91727
315.351,19.56233,-0.86377,1.22118,0.91692
316.051,19.58355,-0.8771,1.20129,0.91657
316.751,19.6048,-0.88886,1.18578,0.91622
317.451,19.62604,-0.9025,1.16588,0.91586
318.151,19.64725,-0.91404,1.14934,0.91551
318.851,19.66851,-0.92799,1.13553,0.91516
319.551,19.68969,-0.93863,1.11826,0.91481
320.251,19.711,-0.95279,1.10138,0.91446
320.951,19.7323,-0.96418,1.08702,0.91411
321.651,19.75356,-0.97869,1.07398,0.91376
322.351,19.7748,-0.9909,1.05976,0.9134
323.051,19.796,-1.00533,1.04627,0.91305
323.751,19.8173,-1.0177,1.03541,0.9127
324.451,19.83858,-1.03177,1.02256,0.91235
325.151,19.85989,-1.04435,1.0119,0.912
325.851,19.88114,-1.05743,1.00409,0.91165
326.551,19.9024,-1.07176,0.99479,0.91131
327.251,19.92365,-1.08562,0.98326,0.91096
327.951,19.94493,-1.10078,0.97806,0.91061
328.651,19.9663,-1.11398,0.97143,0.91026
329.351,19.98754,-1.12913,0.96555,0.90991
330.051,20.00887,-1.14165,0.95868,0.90956
330.751,20.0302,-1.15752,0.95348,0.90921
331.451,20.0515,-1.17089,0.94839,0.90886
332.151,20.0728,-1.18739,0.94692,0.90852
332.851,20.09412,-1.20077,0.94162,0.90817
333.551,20.1155,-1.21735,0.93917,0.90782
334.251,20.13675,-1.23143,0.93669,0.90747
334.951,20.15813,-1.24735,0.9355,0.90713
335.651,20.17943,-1.26233,0.9319,0.90678
336.351,20.20068,-1.27804,0.92739,0.90643
337.051,20.22198,-1.29379,0.92815,0.90608
337.751,20.24335,-1.30841,0.92653,0.90574
338.451,20.2648,-1.32488,0.92532,0.90539
339.151,20.28614,-1.33983,0.92465,0.90505
339.851,20.30753,-1.35772,0.9264,0.9047
340.551,20.3289,-1.37241,0.92577,0.90435
341.251,20.35016,-1.39061,0.92347,0.90401
341.951,20.37155,-1.40504,0.92417,0.90366
342.651,20.39291,-1.42347,0.92319,0.90331
343.351,20.4143,-1.43945,0.92185,0.90297
344.051,20.43565,-1.45855,0.92377,0.90262
344.751,20.45704,-1.47532,0.92099,0.90228
345.451,20.47845,-1.49417,0.92356,0.90193
346.151,20.49986,-1.51189,0.92172,0.90159
346.851,20.52127,-1.52968,0.92279,0.90124
347.551,20.54263,-1.5478,0.92372,0.9009
348.251,20.56397,-1.56609,0.92204,0.90055
348.951,20.58536,-1.58676,0.923,0.90021
349.651,20.60681,-1.60448,0.91957,0.89986
350.351,20.62815,-1.6253,0.91979,0.89952
351.051,20.64955,-1.64258,0.9203,0.89917
351.751,20.67095,-1.66447,0.91832,0.89883
352.451,20.69235,-1.68224,0.91862,0.89849
353.151,20.7138,-1.70397,0.91751,0.89814
353.851,20.73528,-1.72224,0.91484,0.8978
354.551,20.7567,-1.74387,0.91646,0.89745
355.251,20.77816,-1.76358,0.91366,0.89711
355.951,20.79962,-1.78484,0.91217,0.89677
356.651,20.8211,-1.80586,0.90842,0.89642
357.351,20.84256,-1.82654,0.9064,0.89608
358.051,20.864,-1.84854,0.90396,0.89573
358.751,20.8855,-1.86969,0.89921,0.89539
359.451,20.90699,-1.89346,0.89701,0.89505
360.151,20.9285,-1.91365,0.8891,0.8947
360.851,20.94999,-1.93803,0.88556,0.89436
361.551,20.97148,-1.95776,0.88145,0.89402
362.251,20.99296,-1.98224,0.87698,0.89367
362.951,21.0144,-2.00235,0.86963,0.89333
363.651,21.03594,-2.02643,0.86145,0.89299
364.351,21.05745,-2.04685,0.85554,0.89264
365.051,21.07899,-2.06961,0.84678,0.8923
365.751,21.10056,-2.09141,0.84083,0.89196
366.451,21.12209,-2.11351,0.82938,0.89161
367.151,21.1436,-2.13705,0.81883,0.89127
367.851,21.16518,-2.1581,0.80565,0.89093
368.551,21.18666,-2.18162,0.7991,0.89059
369.251,21.20823,-2.20183,0.78996,0.89024
369.951,21.22974,-2.22581,0.77307,0.8899
370.651,21.2512,-2.24455,0.76013,0.88956
371.351,21.27275,-2.2684,0.74518,0.88921
372.051,21.29428,-2.28761,0.73183,0.88887
372.751,21.3158,-2.31007,0.71343,0.88853
373.451,21.33739,-2.32945,0.70215,0.88819
374.151,21.359,-2.35079,0.6817,0.88784
374.851,21.38058,-2.37016,0.66517,0.8875
375.551,21.4023,-2.38873,0.64616,0.88716
376.251,21.42389,-2.40827,0.62728,0.88681
376.951,21.44547,-2.42605,0.60832,0.88647
377.651,21.46708,-2.44561,0.58595,0.88613
378.351,21.48869,-2.4609,0.56788,0.88579
379.051,21.5103,-2.47922,0.54809,0.88544
379.751,21.53192,-2.49395,0.52615,0.8851
380.451,21.55351,-2.51133,0.50325,0.88476
381.151,21.57507,-2.52484,0.48372,0.88441
381.851,21.5967,-2.53973,0.46336,0.88407
382.551,21.61836,-2.55207,0.44153,0.88373
383.251,21.64,-2.56433,0.42516,0.88339
383.951,21.66159,-2.57541,0.4059,0.88304
384.651,21.68319,-2.58601,0.38853,0.8827
385.351,21.70477,-2.597,0.36743,0.88236
386.051,21.72646,-2.60536,0.35392,0.88201
386.751,21.74812,-2.614,0.34273,0.88167
387.451,21.7698,-2.62055,0.32882,0.88133
388.151,21.79147,-2.62807,0.31644,0.88098
388.851,21.81312,-2.63362,0.30843,0.88064
389.551,21.8348,-2.63985,0.29832,0.8803
390.251,21.85649,-2.64478,0.2872,0.87995
390.951,21.8782,-2.64975,0.28185,0.87961
391.651,21.8999,-2.65428,0.27471,0.87927
392.351,21.92158,-2.65864,0.2674,0.87892
393.051,21.9433,-2.66257,0.26092,0.87858
393.751,21.96491,-2.66677,0.25287,0.87824
394.451,21.98665,-2.66973,0.24781,0.87789
395.151,22.00839,-2.67238,0.24139,0.87755
395.851,22.03015,-2.6757,0.23449,0.87721
396.551,22.05194,-2.67952,0.23044,0.87686
397.251,22.0737,-2.68446,0.22339,0.87652
397.951,22.0954,-2.68704,0.22006,0.87617
398.651,22.11715,-2.6894,0.21626,0.87583
399.351,22.13893,-2.69179,0.20819,0.87549
400.051,22.16069,-2.69464,0.20219,0.87514
400.751,22.1825,-2.69728,0.19869,0.8748
401.451,22.2043,-2.70034,0.19518,0.87445
402.151,22.22607,-2.70295,0.18931,0.87411
402.851,22.24783,-2.7053,0.18661,0.87376
403.551,22.2695,-2.70777,0.183,0.87342
404.251,22.29115,-2.70994,0.17801,0.87307
404.951,22.3129,-2.7124,0.17419,0.87273
405.651,22.3348,-2.71486,0.17074,0.87238
406.351,22.35669,-2.71718,0.16614,0.87204
407.051,22.37866,-2.7197,0.16362,0.87169
407.751,22.40044,-2.72201,0.1586,0.87135
408.451,22.42225,-2.72449,0.15628,0.871
409.151,22.44408,-2.72664,0.15316,0.87066
409.851,22.46588,-2.72936,0.15021,0.87031
410.551,22.4878,-2.7316,0.14492,0.86996
411.251,22.50958,-2.7339,0.14313,0.86962
411.951,22.53139,-2.73584,0.13975,0.86927
412.651,22.55324,-2.73811,0.13728,0.86893
413.351,22.57491,-2.74093,0.13251,0.86858
414.051,22.59684,-2.74285,0.13224,0.86823
414.751,22.61871,-2.74497,0.12977,0.86789
415.451,22.64065,-2.74736,0.12737,0.86754
416.151,22.6626,-2.74939,0.12546,0.86719
416.851,22.68444,-2.75106,0.12363,0.86684
417.551,22.70634,-2.75219,0.11933,0.8665
418.251,22.72818,-2.75366,0.11545,0.86615
418.951,22.7501,-2.7562,0.11702,0.8658
419.651,22.77196,-2.75868,0.11565,0.86545
420.351,22.79384,-2.76074,0.11289,0.86511
421.051,22.8157,-2.76282,0.11385,0.86476
421.751,22.8377,-2.76503,0.11033,0.86441
422.451,22.85967,-2.76723,0.10853,0.86406
423.151,22.88162,-2.76962,0.1082,0.86371
423.851,22.90355,-2.77183,0.10745,0.86336
424.551,22.9255,-2.77353,0.10412,0.86302
425.251,22.9474,-2.77513,0.1058,0.86267
425.951,22.9694,-2.77709,0.10455,0.86232
426.651,22.99139,-2.77905,0.1052,0.86197
427.351,23.01332,-2.78129,0.10168,0.86162
428.051,23.03523,-2.78363,0.10203,0.86127
428.751,23.0571,-2.78553,0.10007,0.86092
429.451,23.07902,-2.78705,0.10236,0.86057
430.151,23.101,-2.78877,0.10183,0.86022
430.851,23.123,-2.7909,0.10313,0.85987
431.551,23.145,-2.79282,0.10408,0.85952
432.251,23.16703,-2.79539,0.10347,0.85916
432.951,23.18908,-2.79691,0.10373,0.85881
433.651,23.21108,-2.79861,0.10489,0.85846
434.351,23.2331,-2.80076,0.10876,0.85811
435.051,23.2551,-2.803,0.10983,0.85776
435.751,23.27709,-2.80501,0.10907,0.85741
436.451,23.2991,-2.8069,0.10866,0.85705
437.151,23.32108,-2.80871,0.111,0.8567
437.851,23.34308,-2.8103,0.11273,0.85635
438.551,23.3651,-2.81214,0.11241,0.856
439.251,23.38711,-2.81381,0.11289,0.85564
439.951,23.40917,-2.81534,0.11702,0.85529
440.651,23.43124,-2.81677,0.1189,0.85494
441.351,23.45337,-2.81883,0.12117,0.85458
442.051,23.47543,-2.82089,0.1199,0.85423
442.751,23.4975,-2.82225,0.12342,0.85387
443.451,23.51957,-2.82327,0.12602,0.85352
444.151,23.54162,-2.82489,0.12747,0.85316
444.851,23.5637,-2.82645,0.13034,0.85281
445.551,23.58576,-2.8276,0.13251,0.85245
446.251,23.60781,-2.82964,0.13474,0.8521
446.951,23.62987,-2.83175,0.13986,0.85174
447.651,23.65195,-2.8335,0.13801,0.85139
448.351,23.67409,-2.83449,0.14048,0.85103
449.051,23.69622,-2.836,0.14284,0.85067
449.751,23.7183,-2.83782,0.1451,0.85032
450.451,23.74045,-2.84078,0.14937,0.84996
451.151,23.7625,-2.84205,0.15333,0.8496
451.851,23.78465,-2.8436,0.15389,0.84924
452.551,23.80678,-2.84549,0.15917,0.84889
453.251,23.8289,-2.84657,0.16228,0.84853
453.951,23.85098,-2.84758,0.16455,0.84817
454.651,23.87293,-2.84909,0.1646,0.84781
455.351,23.89496,-2.85078,0.16879,0.84745
456.051,23.91711,-2.85259,0.16814,0.84709
456.751,23.93929,-2.8543,0.17336,0.84673
457.451,23.9616,-2.85489,0.17519,0.84637
458.151,23.9838,-2.85616,0.17761,0.84601
458.851,24.00602,-2.85766,0.18118,0.84565
459.551,24.02818,-2.86027,0.18468,0.84529
460.251,24.05038,-2.86153,0.18765,0.84493
460.951,24.0726,-2.8634,0.19109,0.84457
461.651,24.09476,-2.86587,0.19308,0.84421
462.351,24.11693,-2.86773,0.19658,0.84385
463.051,24.13906,-2.86895,0.19675,0.84348
463.751,24.1612,-2.86959,0.20094,0.84312
464.451,24.18335,-2.87115,0.20175,0.84276
465.151,24.20549,-2.87218,0.20415,0.8424
465.851,24.22768,-2.8728,0.20692,0.84203
466.551,24.24986,-2.8742,0.21104,0.84167
467.251,24.27205,-2.87607,0.21538,0.84131
467.951,24.29429,-2.87772,0.21485,0.84094
468.651,24.3165,-2.87921,0.21867,0.84058
469.351,24.33875,-2.87979,0.22075,0.84021
470.051,24.361,-2.88085,0.22195,0.83985
470.751,24.38318,-2.88261,0.22523,0.83948
471.451,24.40545,-2.88444,0.22717,0.83911
472.151,24.42766,-2.8859,0.23035,0.83875
472.851,24.4499,-2.88736,0.23148,0.83838
473.551,24.4722,-2.88796,0.23443,0.83801
474.251,24.49447,-2.88988,0.23513,0.83765
474.951,24.51679,-2.89174,0.23709,0.83728
475.651,24.53911,-2.89326,0.23686,0.83691
476.351,24.5614,-2.89379,0.24024,0.83654
477.051,24.58365,-2.89498,0.24472,0.83617
477.751,24.6059,-2.89645,0.24444,0.83581
478.451,24.62816,-2.89696,0.24734,0.83544
479.151,24.65042,-2.89848,0.24967,0.83507
479.851,24.67279,-2.89872,0.25116,0.8347
480.551,24.69507,-2.90001,0.25156,0.83433
481.251,24.71733,-2.90158,0.25199,0.83396
481.951,24.7396,-2.90161,0.2544,0.83358
482.651,24.76183,-2.90294,0.25637,0.83321
483.351,24.7841,-2.9042,0.25985,0.83284
484.051,24.80643,-2.9051,0.25978,0.83247
484.751,24.8288,-2.90636,0.26218,0.8321
485.451,24.85115,-2.90795,0.26236,0.83172
486.151,24.8735,-2.90823,0.267,0.83135
486.851,24.8958,-2.91002,0.26658,0.83098
487.551,24.9181,-2.91248,0.26421,0.8306
488.251,24.94044,-2.91402,0.26899,0.83023
488.951,24.9628,-2.91548,0.26988,0.82985
489.651,24.98516,-2.91592,0.2702,0.82948
490.351,25.00751,-2.91725,0.27165,0.8291
491.051,25.02988,-2.91753,0.27206,0.82873
491.751,25.05227,-2.91859,0.27367,0.82835
492.451,25.07466,-2.91967,0.27348,0.82797
493.151,25.09705,-2.92006,0.27227,0.8276
493.851,25.11938,-2.92149,0.27627,0.82722
494.551,25.14172,-2.92328,0.27571,0.82684
495.251,25.1641,-2.92432,0.27748,0.82646
495.951,25.18652,-2.92466,0.27888,0.82608
496.651,25.20891,-2.92631,0.28114,0.8257
497.351,25.23133,-2.92792,0.27994,0.82533
498.051,25.25378,-2.92866,0.28452,0.82495
498.751,25.27617,-2.92945,0.28182,0.82457
499.451,25.29867,-2.93097,0.28756,0.82418
500.151,25.32108,-2.93211,0.28314,0.8238
500.851,25.34347,-2.93239,0.28847,0.82342
501.551,25.36585,-2.9338,0.28862,0.82304
502.251,25.38825,-2.93407,0.28977,0.82266
502.951,25.41069,-2.9353,0.29058,0.82227
503.651,25.4331,-2.93601,0.29162,0.82189
504.351,25.45554,-2.93678,0.29161,0.82151
505.051,25.47798,-2.93835,0.29359,0.82112
505.751,25.5004,-2.93852,0.29504,0.82074
506.451,25.5229,-2.94002,0.29561,0.82035
507.151,25.5454,-2.94123,0.29638,0.81997
507.851,25.56781,-2.94171,0.29658,0.81958
508.551,25.5903,-2.94309,0.2979,0.8192
509.251,25.61276,-2.94442,0.29559,0.81881
509.951,25.63524,-2.94488,0.30176,0.81842
510.651,25.6578,-2.94616,0.30147,0.81804
511.351,25.6803,-2.94772,0.29868,0.81765
512.051,25.7028,-2.94834,0.29881,0.81726
512.751,25.7253,-2.9491,0.30398,0.81687
513.451,25.74772,-2.95045,0.3018,0.81648
514.151,25.7701,-2.95067,0.30202,0.81609
514.851,25.79255,-2.95207,0.30517,0.8157
515.551,25.81508,-2.95223,0.30215,0.81531
516.251,25.83755,-2.95357,0.30185,0.81492
516.951,25.86,-2.95571,0.3033,0.81453
517.651,25.88256,-2.95614,0.30177,0.81414
518.351,25.90504,-2.95768,0.30519,0.81375
519.051,25.92756,-2.95833,0.30592,0.81335
519.751,25.95006,-2.9589,0.30366,0.81296
520.451,25.97259,-2.96043,0.30395,0.81257
521.151,25.99513,-2.96081,0.30136,0.81217
521.851,26.0177,-2.96167,0.30119,0.81178
522.551,26.04025,-2.96265,0.30183,0.81138
523.251,26.06277,-2.96223,0.30447,0.81099
523.951,26.08539,-2.96389,0.30358,0.81059
524.651,26.10792,-2.96525,0.3015,0.81019
525.351,26.1305,-2.96693,0.30047,0.8098
526.051,26.15305,-2.96757,0.29791,0.8094
526.751,26.1755,-2.9696,0.29852,0.809
527.451,26.19812,-2.96955,0.296,0.8086
528.151,26.22072,-2.97134,0.29691,0.8082
528.851,26.24338,-2.97231,0.29476,0.8078
529.551,26.266,-2.9729,0.29536,0.8074
530.251,26.28864,-2.97428,0.29659,0.807
530.951,26.3112,-2.97426,0.29532,0.8066
531.651,26.33387,-2.97568,0.29594,0.8062
532.351,26.35642,-2.97594,0.29926,0.8058
533.051,26.379,-2.9769,0.29846,0.8054
533.751,26.4017,-2.97738,0.29701,0.805
534.451,26.42425,-2.97819,0.29859,0.80459
535.151,26.447,-2.9786,0.29688,0.80419
535.851,26.46965,-2.97964,0.30017,0.80378
536.551,26.49229,-2.98048,0.29956,0.80338
537.251,26.51492,-2.98093,0.30163,0.80297
537.951,26.5376,-2.98094,0.30466,0.80257
538.651,26.56018,-2.98095,0.30349,0.80216
539.351,26.5828,-2.98232,0.301,0.80176
540.051,26.60544,-2.98255,0.30458,0.80135
540.751,26.6281,-2.98374,0.30414,0.80094
541.451,26.6507,-2.98484,0.30516,0.80053
542.151,26.67339,-2.98521,0.30778,0.80012
542.851,26.69606,-2.9862,0.31126,0.79971
543.551,26.71875,-2.98653,0.3137,0.7993
544.251,26.74144,-2.98659,0.31089,0.79889
544.951,26.7641,-2.98791,0.31388,0.79848
545.651,26.78677,-2.98796,0.31501,0.79807
546.351,26.8095,-2.98941,0.31814,0.79766
547.051,26.83223,-2.99051,0.3194,0.79725
547.751,26.8549,-2.99174,0.31866,0.79683
548.451,26.87756,-2.99313,0.32056,0.79642
549.151,26.9002,-2.99333,0.32337,0.79601
549.851,26.9229,-2.99356,0.32399,0.79559
550.551,26.9456,-2.9948,0.32626,0.79518
551.251,26.96835,-2.9956,0.32467,0.79476
551.951,26.9911,-2.99608,0.32547,0.79435
552.651,27.0139,-2.99586,0.32691,0.79393
553.351,27.03665,-2.9961,0.32979,0.79351
554.051,27.0594,-2.99638,0.32895,0.7931
554.751,27.0821,-2.99786,0.32932,0.79268
555.451,27.1049,-2.999,0.32861,0.79226
556.151,27.12759,-2.99981,0.32946,0.79184
556.851,27.1503,-3.00068,0.33181,0.79142
557.551,27.17285,-3.00068,0.33309,0.791
558.251,27.19565,-3.00161,0.33543,0.79058
558.951,27.2185,-3.00201,0.33525,0.79016
559.651,27.24124,-3.00307,0.33506,0.78974
560.351,27.2642,-3.00332,0.33571,0.78931
561.051,27.287,-3.00373,0.33752,0.78889
561.751,27.3098,-3.00463,0.33831,0.78847
562.451,27.33257,-3.00483,0.33765,0.78804
563.151,27.3553,-3.00608,0.33775,0.78762
563.851,27.37803,-3.00655,0.34,0.78719
564.551,27.4008,-3.00736,0.34022,0.78677
565.251,27.42359,-3.008,0.34334,0.78634
565.951,27.4464,-3.00995,0.3424,0.78591
566.651,27.46923,-3.00999,0.34379,0.78549
567.351,27.49206,-3.01136,0.34141,0.78506
568.051,27.51492,-3.01102,0.34442,0.78463
568.751,27.5378,-3.0112,0.34644,0.7842
569.451,27.56059,-3.01132,0.34458,0.78377
570.151,27.58343,-3.01161,0.34345,0.78334
570.851,27.60625,-3.01267,0.34337,0.78291
571.551,27.62912,-3.01354,0.3427,0.78248
572.251,27.65199,-3.01395,0.33953,0.78205
572.951,27.67479,-3.0139,0.34389,0.78161
573.651,27.69765,-3.01517,0.3424,0.78118
574.351,27.72045,-3.01527,0.34108,0.78075
575.051,27.74326,-3.01554,0.34436,0.78031
575.751,27.76608,-3.0166,0.34393,0.77988
576.451,27.78892,-3.01715,0.34535,0.77944
577.151,27.8118,-3.01839,0.34327,0.77901
577.851,27.8346,-3.01915,0.33949,0.77857
578.551,27.85752,-3.02052,0.34325,0.77814
579.251,27.88038,-3.02065,0.34034,0.7777
579.951,27.9032,-3.02104,0.34175,0.77726
580.651,27.92616,-3.02062,0.33768,0.77682
581.351,27.94902,-3.02065,0.33968,0.77638
582.051,27.9719,-3.02145,0.33978,0.77594
582.751,27.9948,-3.02186,0.33838,0.7755
583.451,28.01766,-3.02326,0.33749,0.77506
584.151,28.04056,-3.02327,0.33792,0.77462
584.851,28.0635,-3.02425,0.3365,0.77418
585.551,28.08638,-3.02597,0.33434,0.77373
586.251,28.1094,-3.02591,0.33378,0.77329
586.951,28.13235,-3.02601,0.33119,0.77285
587.651,28.15529,-3.02728,0.33038,0.7724
588.351,28.17825,-3.02725,0.32848,0.77196
589.051,28.2012,-3.0283,0.32716,0.77151
589.751,28.22413,-3.02846,0.32614,0.77107
590.451,28.24697,-3.02746,0.32457,0.77062
591.151,28.2697,-3.02897,0.32329,0.77017
591.851,28.29263,-3.0296,0.32118,0.76972
592.551,28.3156,-3.03038,0.32169,0.76927
593.251,28.33865,-3.03041,0.3197,0.76883
593.951,28.3618,-3.03179,0.32131,0.76838
594.651,28.3848,-3.03173,0.31676,0.76793
595.351,28.4078,-3.03171,0.31579,0.76747
596.051,28.43078,-3.03308,0.31674,0.76702
596.751,28.45372,-3.03328,0.31453,0.76657
597.451,28.47673,-3.03493,0.31311,0.76612
598.151,28.4998,-3.03567,0.30941,0.76566
598.851,28.52282,-3.03708,0.30913,0.76521
599.551,28.5458,-3.037,0.30892,0.76476
600.251,28.56877,-3.03699,0.3059,0.7643
600.951,28.5917,-3.03838,0.30416,0.76384
601.651,28.61477,-3.03833,0.30146,0.76339
602.351,28.63777,-3.03878,0.30084,0.76293
603.051,28.6607,-3.03962,0.29919,0.76247
603.751,28.68368,-3.03993,0.29807,0.76202
604.451,28.7066,-3.04094,0.29613,0.76156
605.151,28.72975,-3.04094,0.29667,0.7611
605.851,28.7529,-3.04117,0.29277,0.76064
606.551,28.7759,-3.04227,0.29478,0.76018
607.251,28.7989,-3.04226,0.29345,0.75972
607.951,28.82187,-3.04226,0.29004,0.75925
608.651,28.84485,-3.04219,0.28912,0.75879
609.351,28.8679,-3.0441,0.29167,0.75833
610.051,28.89088,-3.04423,0.28959,0.75787
610.751,28.9139,-3.04419,0.28956,0.7574
611.451,28.9369,-3.04541,0.2878,0.75694
612.151,28.96,-3.04555,0.28487,0.75647
612.851,28.9831,-3.04695,0.28218,0.756
613.551,29.0062,-3.04687,0.28091,0.75554
614.251,29.02924,-3.04717,0.283,0.75507
614.951,29.05224,-3.04719,0.27883,0.7546
615.651,29.0753,-3.04726,0.27915,0.75413
616.351,29.0984,-3.04854,0.27942,0.75367
617.051,29.12145,-3.04897,0.27508,0.7532
617.751,29.14455,-3.04979,0.2748,0.75272
618.451,29.1676,-3.04982,0.27679,0.75225
619.151,29.1907,-3.04982,0.2723,0.75178
619.851,29.21375,-3.04981,0.27394,0.75131
620.551,29.2368,-3.04966,0.27359,0.75084
621.251,29.25978,-3.05213,0.2742,0.75036
621.951,29.2828,-3.0521,0.27304,0.74989
622.651,29.30585,-3.05324,0.2716,0.74941
623.351,29.32896,-3.05345,0.26897,0.74894
624.051,29.35203,-3.05346,0.26973,0.74846
624.751,29.37517,-3.05372,0.26936,0.74799
625.451,29.3982,-3.05478,0.26998,0.74751
626.151,29.42128,-3.05476,0.27187,0.74703
626.851,29.44438,-3.05555,0.26801,0.74655
627.551,29.46742,-3.05607,0.26534,0.74607
628.251,29.49056,-3.05608,0.26566,0.74559
628.951,29.51363,-3.05608,0.26534,0.74511
629.651,29.53674,-3.05612,0.26398,0.74463
630.351,29.55985,-3.05476,0.26339,0.74415
631.051,29.583,-3.05607,0.26212,0.74367
631.751,29.60619,-3.05602,0.26374,0.74319
632.451,29.62936,-3.05737,0.26185,0.7427
633.151,29.6524,-3.05739,0.26295,0.74222
633.851,29.6755,-3.05739,0.26033,0.74173
634.551,29.6986,-3.05739,0.26065,0.74125
635.251,29.7217,-3.05739,0.26379,0.74076
635.951,29.74482,-3.0574,0.26112,0.74028
636.651,29.76802,-3.05789,0.2604,0.73979
637.351,29.7912,-3.0587,0.2618,0.7393
638.051,29.81435,-3.05949,0.26168,0.73881
638.751,29.8375,-3.06003,0.26332,0.73832
639.451,29.8606,-3.06107,0.26069,0.73783
640.151,29.8836,-3.06271,0.26076,0.73734
640.851,29.90669,-3.06267,0.26221,0.73685
641.551,29.92979,-3.06267,0.26296,0.73636
642.251,29.9529,-3.06131,0.26147,0.73587
642.951,29.9761,-3.06192,0.26421,0.73538
643.651,29.9992,-3.06265,0.26753,0.73488
644.351,30.02239,-3.06284,0.26414,0.73439
645.051,30.0455,-3.06398,0.26379,0.73389
645.751,30.0687,-3.06397,0.26319,0.7334
646.451,30.0918,-3.06536,0.26669,0.7329
647.151,30.11495,-3.06525,0.26417,0.73241
647.851,30.13815,-3.06653,0.26648,0.73191
648.551,30.16129,-3.0666,0.26599,0.73141
649.251,30.1844,-3.06661,0.26447,0.73091
649.951,30.20753,-3.06706,0.26724,0.73041
650.651,30.2306,-3.06791,0.26507,0.72991
651.351,30.2538,-3.06788,0.26704,0.72941
652.051,30.27695,-3.0691,0.26446,0.72891
652.751,30.30007,-3.06924,0.26617,0.72841
653.451,30.3232,-3.07042,0.2688,0.72791
654.151,30.34638,-3.07055,0.26287,0.7274
654.851,30.36954,-3.07084,0.26643,0.7269
655.551,30.3927,-3.07185,0.26644,0.7264
656.251,30.41589,-3.07186,0.26302,0.72589
656.951,30.43905,-3.07184,0.26764,0.72538
657.651,30.4622,-3.07251,0.26458,0.72488
658.351,30.48538,-3.07246,0.26444,0.72437
659.051,30.50859,-3.0732,0.26342,0.72386
659.751,30.5317,-3.07319,0.26294,0.72336
660.451,30.5549,-3.07363,0.26426,0.72285
661.151,30.5781,-3.0745,0.26311,0.72234
661.851,30.60118,-3.07451,0.26634,0.72183
662.551,30.6243,-3.07488,0.26142,0.72132
663.251,30.6474,-3.07583,0.26311,0.72081
663.951,30.6705,-3.07581,0.26331,0.72029
664.651,30.69363,-3.07702,0.26303,0.71978
665.351,30.71677,-3.07713,0.26198,0.71927
666.051,30.74,-3.07713,0.26231,0.71875
666.751,30.76316,-3.07727,0.26205,0.71824
667.451,30.78626,-3.07849,0.26204,0.71772
668.151,30.8094,-3.07845,0.26078,0.71721
668.851,30.8325,-3.07856,0.25854,0.71669
669.551,30.8557,-3.0798,0.26233,0.71617
670.251,30.8789,-3.0792,0.25733,0.71566
670.951,30.90203,-3.07847,0.25911,0.71514
671.651,30.9252,-3.07846,0.25725,0.71462
672.351,30.9483,-3.07848,0.2546,0.7141
673.051,30.9715,-3.07997,0.25458,0.71358
673.751,30.9947,-3.08074,0.25238,0.71306
674.451,31.0179,-3.08123,0.25181,0.71254
675.151,31.0411,-3.08206,0.25171,0.71202
675.851,31.06434,-3.08207,0.24664,0.71149
676.551,31.0876,-3.08209,0.24818,0.71097
677.251,31.1108,-3.08312,0.24391,0.71044
677.951,31.13393,-3.08338,0.24315,0.70992
678.651,31.15705,-3.08347,0.24027,0.70939
679.351,31.1802,-3.08207,0.23948,0.70887
680.051,31.20332,-3.08348,0.2396,0.70834
680.751,31.2264,-3.0834,0.23743,0.70782
681.451,31.2496,-3.08339,0.23657,0.70729
682.151,31.2728,-3.084,0.23398,0.70676
682.851,31.29603,-3.08469,0.23158,0.70623
683.551,31.31932,-3.08471,0.228,0.7057
684.251,31.34248,-3.08473,0.22579,0.70517
684.951,31.36556,-3.0861,0.2251,0.70464
685.651,31.3887,-3.08602,0.22384,0.70411
686.351,31.4119,-3.08603,0.22258,0.70357
687.051,31.43508,-3.08743,0.22106,0.70304
687.751,31.4584,-3.08734,0.2196,0.70251
688.451,31.4816,-3.08873,0.21598,0.70197
689.151,31.50475,-3.08869,0.21239,0.70144
689.851,31.528,-3.08945,0.21399,0.7009
690.551,31.55113,-3.08997,0.21201,0.70037
691.251,31.5743,-3.08997,0.21162,0.69983
691.951,31.59757,-3.08997,0.21262,0.69929
692.651,31.62075,-3.09,0.20847,0.69875
693.351,31.64398,-3.09133,0.20392,0.69822
694.051,31.66722,-3.09238,0.20581,0.69768
694.751,31.69039,-3.0926,0.20162,0.69714
695.451,31.71365,-3.09119,0.20282,0.6966
696.151,31.73688,-3.09129,0.20095,0.69606
696.851,31.76012,-3.09129,0.20318,0.69551
697.551,31.78336,-3.09129,0.19819,0.69497
698.251,31.8066,-3.09132,0.19675,0.69443
698.951,31.82984,-3.09227,0.19729,0.69388
699.651,31.8531,-3.0926,0.1956,0.69334
700.351,31.87639,-3.09263,0.19298,0.69279
701.051,31.89964,-3.09356,0.19646,0.69225
701.751,31.92288,-3.09392,0.19145,0.6917
702.451,31.94612,-3.09388,0.1958,0.69116
703.151,31.9694,-3.09425,0.19356,0.69061
703.851,31.9926,-3.09566,0.19085,0.69006
704.551,32.0158,-3.09558,0.19218,0.68951
705.251,32.0391,-3.09557,0.18654,0.68896
705.951,32.0624,-3.09559,0.18865,0.68841
706.651,32.08569,-3.09696,0.18531,0.68786
707.351,32.10908,-3.09689,0.18061,0.68731
708.051,32.13236,-3.0962,0.18033,0.68676
708.751,32.15566,-3.09653,0.17753,0.68621
709.451,32.179,-3.09755,0.17936,0.68565
710.151,32.20224,-3.09754,0.18034,0.6851
710.851,32.22547,-3.09755,0.17827,0.68455
711.551,32.24872,-3.09809,0.18028,0.68399
712.251,32.27195,-3.09885,0.18115,0.68344
712.951,32.29518,-3.09886,0.17829,0.68288
713.651,32.3185,-3.09886,0.17416,0.68232
714.351,32.34187,-3.09886,0.17359,0.68176
715.051,32.36521,-3.09886,0.17488,0.68121
715.751,32.3885,-3.09886,0.17429,0.68065
716.451,32.41185,-3.09886,0.17267,0.68009
717.151,32.43517,-3.09889,0.17002,0.67953
717.851,32.4585,-3.09843,0.16767,0.67897
718.551,32.48188,-3.0996,0.16714,0.67841
719.251,32.5052,-3.09962,0.1638,0.67785
719.951,32.52858,-3.09962,0.16527,0.67728
720.651,32.5519,-3.09962,0.16289,0.67672
721.351,32.57525,-3.09962,0.16116,0.67616
722.051,32.59855,-3.09984,0.15943,0.67559
722.751,32.62186,-3.10091,0.15537,0.67503
723.451,32.64523,-3.10093,0.15811,0.67446
724.151,32.6685,-3.10093,0.15598,0.6739
724.851,32.69174,-3.10094,0.15654,0.67333
725.551,32.715,-3.10123,0.15461,0.67276
726.251,32.73831,-3.10193,0.15244,0.67219
726.951,32.76164,-3.10192,0.15015,0.67163
727.651,32.7851,-3.10192,0.1488,0.67106
728.351,32.8085,-3.10192,0.14703,0.67049
729.051,32.83187,-3.10192,0.14652,0.66992
729.751,32.85522,-3.10192,0.14159,0.66935
730.451,32.87854,-3.10192,0.14137,0.66878
731.151,32.90183,-3.10197,0.13915,0.6682
731.851,32.92511,-3.10225,0.14144,0.66763
732.551,32.94849,-3.10231,0.13645,0.66706
733.251,32.97189,-3.10233,0.13812,0.66648
733.951,32.9953,-3.10227,0.13737,0.66591
734.651,33.01874,-3.10226,0.13249,0.66533
735.351,33.04207,-3.10227,0.135,0.66476
736.051,33.06542,-3.10254,0.1323,0.66418
736.751,33.08875,-3.10481,0.13224,0.6636
737.451,33.11209,-3.10488,0.13172,0.66303
738.151,33.1355,-3.10488,0.12725,0.66245
738.851,33.1588,-3.10489,0.12892,0.66187
739.551,33.18215,-3.10572,0.13127,0.66129
740.251,33.20547,-3.10619,0.12974,0.66071
740.951,33.2288,-3.10621,0.12465,0.66013
741.651,33.25223,-3.10528,0.1247,0.65955
742.351,33.27559,-3.10623,0.12257,0.65897
743.051,33.29899,-3.10652,0.12345,0.65839
743.751,33.32241,-3.10656,0.12213,0.6578
744.451,33.34583,-3.10631,0.11983,0.65722
745.151,33.3693,-3.10751,0.118,0.65664
745.851,33.39271,-3.10752,0.1208,0.65605
746.551,33.41604,-3.10752,0.11351,0.65547
747.251,33.43951,-3.10752,0.11599,0.65488
747.951,33.4629,-3.10752,0.11582,0.65429
748.651,33.48639,-3.10753,0.11427,0.65371
749.351,33.50987,-3.10817,0.11359,0.65312
750.051,33.53328,-3.10883,0.10946,0.65253
750.751,33.55676,-3.10884,0.10982,0.65194
751.451,33.58015,-3.10884,0.11005,0.65135
752.151,33.60362,-3.10883,0.10869,0.65076
752.851,33.62709,-3.10842,0.10703,0.65017
753.551,33.6505,-3.10752,0.10821,0.64958
754.251,33.67395,-3.10873,0.10833,0.64899
754.951,33.6973,-3.10884,0.10374,0.6484
755.651,33.7207,-3.10955,0.10366,0.64781
756.351,33.74418,-3.11014,0.10239,0.64721
757.051,33.76764,-3.11015,0.09981984,0.64662
757.751,33.7911,-3.11013,0.09646267,0.64603
758.451,33.81462,-3.11139,0.09560969,0.64543
759.151,33.83812,-3.11147,0.09561387,0.64484
759.851,33.86165,-3.11147,0.09806127,0.64424
760.551,33.88518,-3.11148,0.09507739,0.64364
761.251,33.90871,-3.11153,0.09512021,0.64305
761.951,33.93224,-3.11014,0.09521189,0.64245
762.651,33.95579,-3.11015,0.09112184,0.64185
763.351,33.97934,-3.11015,0.09043533,0.64125
764.051,34.0029,-3.11009,0.08773974,0.64065
764.751,34.02645,-3.11143,0.0920183,0.64005
765.451,34.04998,-3.11146,0.08791335,0.63945
766.151,34.07354,-3.11146,0.08807623,0.63885
766.851,34.09709,-3.11137,0.08855449,0.63825
767.551,34.12059,-3.11278,0.08080272,0.63764
768.251,34.14416,-3.11278,0.08771751,0.63704
768.951,34.16768,-3.11278,0.08721412,0.63644
769.651,34.19124,-3.11278,0.08527963,0.63583
770.351,34.2149,-3.11273,0.08719924,0.63523
771.051,34.23843,-3.11404,0.08261096,0.63463
771.751,34.262,-3.1141,0.08502207,0.63402
772.451,34.2856,-3.1141,0.08172602,0.63341
773.151,34.3091,-3.1141,0.08304312,0.63281
773.851,34.33262,-3.11387,0.08319066,0.6322
774.551,34.35618,-3.11391,0.0834993,0.63159
775.251,34.3797,-3.1141,0.08509381,0.63098
775.951,34.4033,-3.1141,0.07968775,0.63037
776.651,34.42677,-3.11409,0.08271123,0.62977
777.351,34.4504,-3.11412,0.08210672,0.62916
778.051,34.474,-3.11546,0.07880218,0.62855
778.751,34.4976,-3.11678,0.08096865,0.62793
779.451,34.5212,-3.11673,0.07909323,0.62732
780.151,34.5447,-3.11673,0.07678622,0.62671
780.851,34.56827,-3.11673,0.07997427,0.6261
781.551,34.59186,-3.11673,0.08090801,0.62548
782.251,34.6154,-3.11672,0.07607915,0.62487
782.951,34.63902,-3.11798,0.07661188,0.62426
783.651,34.6626,-3.11805,0.07696563,0.62364
784.351,34.68616,-3.11804,0.07741863,0.62303
785.051,34.70973,-3.11804,0.07861576,0.62241
785.751,34.73324,-3.11804,0.07721589,0.62179
786.451,34.7567,-3.11809,0.0768928,0.62118
787.151,34.78031,-3.11672,0.07759202,0.62056
787.851,34.8039,-3.11665,0.07522358,0.61994
788.551,34.82754,-3.11803,0.07770303,0.61932
789.251,34.85111,-3.11805,0.07672599,0.61871
789.951,34.87468,-3.11805,0.07871713,0.61809
790.651,34.89826,-3.11801,0.07810451,0.61747
791.351,34.9219,-3.11941,0.07919842,0.61685
792.051,34.94547,-3.11937,0.07374819,0.61622
792.751,34.96901,-3.11937,0.06995157,0.6156
793.451,34.99244,-3.11937,0.07260651,0.61498
793.651,34.9993,-3.11937,0.07326555,0.6148