File: 01_Data/Luan_Panel/STA/N2/30K_min/Luan_STA_N2_30KData_221103_R3.csv
##Temp./Â°C,Time/min,Mass loss(subtr.2)/mg,DSC(subtr.2)/(mW/mg),Sensit./(uV/mW)
48.786,10.01,-0.07787,0.02447033,1.0889
49.486,10.55434,-0.08001089,0.06866616,1.08831
50.186,10.67722,-0.08047975,0.10374,1.08772
50.886,10.76634,-0.08136165,0.13892,1.08713
51.586,10.8393,-0.08210781,0.16546,1.08654
52.286,10.90194,-0.08047743,0.19486,1.08595
52.986,10.9582,-0.0808945,0.21869,1.08537
53.686,11.00957,-0.0820461,0.24471,1.08478
54.386,11.05756,-0.08278769,0.26718,1.0842
55.086,11.10305,-0.08259392,0.28793,1.08361
55.786,11.14565,-0.08149173,0.31046,1.08303
56.486,11.18615,-0.0823481,0.32858,1.08245
57.186,11.22494,-0.08196504,0.34739,1.08186
57.886,11.26235,-0.08293021,0.36417,1.08128
58.586,11.2984,-0.08372638,0.38233,1.0807
59.286,11.33344,-0.08409908,0.39818,1.08012
59.986,11.36775,-0.08347028,0.4141,1.07955
60.686,11.40125,-0.08358334,0.42969,1.07897
61.386,11.43378,-0.08453597,0.44404,1.07839
62.086,11.4656,-0.08495815,0.45897,1.07782
62.786,11.4969,-0.08510378,0.47031,1.07724
63.486,11.52771,-0.08486317,0.48452,1.07667
64.186,11.5581,-0.08485971,0.49937,1.07609
64.886,11.5879,-0.08385646,0.51119,1.07552
65.586,11.61737,-0.08484738,0.52267,1.07495
66.286,11.6465,-0.08649567,0.53393,1.07438
66.986,11.67525,-0.08725401,0.54605,1.07381
67.686,11.70353,-0.0877368,0.55639,1.07324
68.386,11.7316,-0.0868516,0.5675,1.07267
69.086,11.75942,-0.086432,0.57742,1.07211
69.786,11.78713,-0.08668674,0.58983,1.07154
70.486,11.81455,-0.0862056,0.59926,1.07097
71.186,11.84135,-0.08612045,0.6104,1.07041
71.886,11.86819,-0.08623682,0.62001,1.06984
72.586,11.895,-0.08724213,0.63086,1.06928
73.286,11.92187,-0.08793812,0.63861,1.06872
73.986,11.9485,-0.08883733,0.64875,1.06816
74.686,11.9747,-0.09048699,0.65778,1.0676
75.386,12.00078,-0.09041202,0.6681,1.06704
76.086,12.0268,-0.09011449,0.67816,1.06648
76.786,12.05287,-0.08946853,0.68939,1.06592
77.486,12.0786,-0.08951379,0.69464,1.06536
78.186,12.10431,-0.08990685,0.70221,1.06481
78.886,12.12987,-0.08906764,0.71359,1.06425
79.586,12.15532,-0.08948056,0.72194,1.0637
80.286,12.1807,-0.08869728,0.73125,1.06314
80.986,12.2059,-0.08954904,0.73931,1.06259
81.686,12.2311,-0.09105954,0.75017,1.06204
82.386,12.25606,-0.09273159,0.75766,1.06149
83.086,12.281,-0.09272337,0.76682,1.06094
83.786,12.30593,-0.09309865,0.7743,1.06039
84.486,12.33077,-0.09299063,0.78236,1.05984
85.186,12.35552,-0.09274792,0.79132,1.05929
85.886,12.38027,-0.09421358,0.79946,1.05874
86.586,12.4049,-0.09525847,0.80731,1.0582
87.286,12.4293,-0.09552294,0.81708,1.05765
87.986,12.45374,-0.09460196,0.82444,1.05711
88.686,12.47798,-0.09557105,0.83241,1.05656
89.386,12.50222,-0.0956233,0.84126,1.05602
90.086,12.5265,-0.0958912,0.84772,1.05548
90.786,12.55066,-0.09625625,0.85758,1.05494
91.486,12.5749,-0.09685449,0.86369,1.0544
92.186,12.59901,-0.09827567,0.87083,1.05386
92.886,12.62315,-0.09892864,0.87724,1.05332
93.586,12.64724,-0.0995983,0.88536,1.05278
94.286,12.67124,-0.10035,0.89109,1.05224
94.986,12.6952,-0.1009,0.89797,1.05171
95.686,12.71905,-0.10091,0.90251,1.05117
96.386,12.74293,-0.10086,0.91137,1.05064
97.086,12.76671,-0.10069,0.91522,1.0501
97.786,12.7906,-0.10093,0.92053,1.04957
98.486,12.81438,-0.10227,0.92427,1.04904
99.186,12.83815,-0.10222,0.93214,1.04851
99.886,12.8619,-0.10223,0.93636,1.04797
100.586,12.88563,-0.10284,0.94169,1.04745
101.286,12.90934,-0.10487,0.94277,1.04692
101.986,12.933,-0.10488,0.94545,1.04639
102.686,12.9567,-0.10624,0.94849,1.04586
103.386,12.9803,-0.10618,0.95473,1.04533
104.086,13.00389,-0.10691,0.95544,1.04481
104.786,13.0275,-0.10748,0.95669,1.04428
105.486,13.05105,-0.10792,0.96013,1.04376
106.186,13.07468,-0.10902,0.96082,1.04324
106.886,13.0982,-0.11014,0.96164,1.04271
107.586,13.12178,-0.11012,0.96322,1.04219
108.286,13.1454,-0.1104,0.9611,1.04167
108.986,13.169,-0.11115,0.96359,1.04115
109.686,13.19255,-0.11115,0.95866,1.04063
110.386,13.21613,-0.11041,0.96155,1.04012
111.086,13.2396,-0.11046,0.96172,1.0396
111.786,13.26307,-0.11047,0.95984,1.03908
112.486,13.2866,-0.11083,0.9575,1.03857
113.186,13.31,-0.11177,0.9575,1.03805
113.886,13.33336,-0.11178,0.95465,1.03754
114.586,13.3567,-0.11229,0.95406,1.03702
115.286,13.38009,-0.1144,0.95299,1.03651
115.986,13.4035,-0.1144,0.94999,1.036
116.686,13.42692,-0.1144,0.95077,1.03549
117.386,13.4503,-0.1144,0.94701,1.03498
118.086,13.4736,-0.11429,0.94544,1.03447
118.786,13.4969,-0.11687,0.94585,1.03396
119.486,13.5203,-0.11703,0.9465,1.03345
120.186,13.54359,-0.11703,0.94808,1.03294
120.886,13.5668,-0.11703,0.94913,1.03244
121.586,13.59,-0.11703,0.95371,1.03193
122.286,13.61309,-0.11703,0.95405,1.03143
122.986,13.63619,-0.11703,0.95789,1.03092
123.686,13.65916,-0.11701,0.95968,1.03042
124.386,13.6822,-0.11839,0.9582,1.02992
125.086,13.7052,-0.11835,0.96056,1.02942
125.786,13.72825,-0.11835,0.96096,1.02892
126.486,13.75145,-0.11881,0.95942,1.02842
127.186,13.7745,-0.12044,0.95975,1.02792
127.886,13.7975,-0.12098,0.95649,1.02742
128.586,13.8205,-0.12099,0.95548,1.02692
129.286,13.84341,-0.12099,0.9538,1.02643
129.986,13.8664,-0.12099,0.95173,1.02593
130.686,13.8893,-0.12099,0.94878,1.02543
131.386,13.9121,-0.12099,0.94683,1.02494
132.086,13.9349,-0.12099,0.9461,1.02445
132.786,13.95764,-0.12099,0.94414,1.02395
133.486,13.98035,-0.12099,0.94151,1.02346
134.186,14.0031,-0.12264,0.94026,1.02297
134.886,14.0258,-0.12362,0.93803,1.02248
135.586,14.04854,-0.12361,0.93935,1.02199
136.286,14.07124,-0.12361,0.93549,1.0215
136.986,14.09384,-0.12361,0.93267,1.02101
137.686,14.1164,-0.12361,0.93208,1.02053
138.386,14.13892,-0.12361,0.92903,1.02004
139.086,14.1614,-0.12361,0.92913,1.01955
139.786,14.18401,-0.12353,0.92705,1.01907
140.486,14.20655,-0.1248,0.92778,1.01858
141.186,14.22904,-0.12626,0.92547,1.0181
141.886,14.2515,-0.12735,0.92491,1.01762
142.586,14.27396,-0.12757,0.92696,1.01714
143.286,14.2964,-0.12757,0.92486,1.01665
143.986,14.31875,-0.12757,0.92358,1.01617
144.686,14.34114,-0.12758,0.92339,1.01569
145.386,14.36348,-0.12786,0.92288,1.01522
146.086,14.38579,-0.12889,0.92283,1.01474
146.786,14.4082,-0.12888,0.92592,1.01426
147.486,14.4304,-0.12888,0.92599,1.01378
148.186,14.4526,-0.12888,0.92626,1.01331
148.886,14.4749,-0.12888,0.92771,1.01283
149.586,14.4971,-0.12888,0.92838,1.01236
150.286,14.5193,-0.12886,0.92982,1.01188
150.986,14.54159,-0.13024,0.93122,1.01141
151.686,14.56376,-0.1302,0.93205,1.01094
152.386,14.58595,-0.1302,0.93367,1.01047
153.086,14.6081,-0.13014,0.93564,1.01
153.786,14.63025,-0.13086,0.93713,1.00953
154.486,14.65235,-0.13086,0.9392,1.00906
155.186,14.67441,-0.13084,0.94136,1.00859
155.886,14.6965,-0.13144,0.94349,1.00812
156.586,14.71865,-0.13152,0.94695,1.00765
157.286,14.7407,-0.13152,0.94917,1.00719
157.986,14.76286,-0.13152,0.9516,1.00672
158.686,14.78485,-0.13153,0.95029,1.00626
159.386,14.80689,-0.13193,0.95466,1.00579
160.086,14.8289,-0.13284,0.95567,1.00533
160.786,14.85085,-0.13282,0.95779,1.00487
161.486,14.873,-0.13379,0.96228,1.0044
162.186,14.895,-0.13435,0.96201,1.00394
162.886,14.91702,-0.13437,0.96556,1.00348
163.586,14.93914,-0.13436,0.96897,1.00302
164.286,14.96119,-0.13361,0.9707,1.00256
164.986,14.98313,-0.13306,0.97378,1.00211
165.686,15.005,-0.13305,0.97634,1.00165
166.386,15.02689,-0.13304,0.98107,1.00119
167.086,15.04875,-0.13427,0.98324,1.00073
167.786,15.0707,-0.13436,0.98494,1.00028
168.486,15.0926,-0.13436,0.98976,0.99982
169.186,15.11459,-0.13436,0.99233,0.99937
169.886,15.13652,-0.13436,0.99428,0.99892
170.586,15.15841,-0.13436,0.99515,0.99846
171.286,15.18035,-0.13436,1.0017,0.99801
171.986,15.2022,-0.13436,1.0042,0.99756
172.686,15.224,-0.13434,1.00959,0.99711
173.386,15.2459,-0.13613,1.0155,0.99666
174.086,15.26774,-0.13758,1.01663,0.99621
174.786,15.2896,-0.13843,1.02202,0.99576
175.486,15.31131,-0.13843,1.02703,0.99531
176.186,15.333,-0.1378,1.03543,0.99487
176.886,15.3548,-0.13713,1.03667,0.99442
177.586,15.3765,-0.13711,1.04288,0.99397
178.286,15.39836,-0.13707,1.04803,0.99353
178.986,15.4201,-0.13842,1.0524,0.99309
179.686,15.4419,-0.13842,1.05697,0.99264
180.386,15.46357,-0.13842,1.06437,0.9922
181.086,15.48518,-0.13842,1.07092,0.99176
181.786,15.5068,-0.13837,1.07803,0.99131
182.486,15.52847,-0.13968,1.08595,0.99087
183.186,15.55008,-0.13974,1.09144,0.99043
183.886,15.5717,-0.13984,1.0975,0.98999
184.586,15.59329,-0.14067,1.10694,0.98955
185.286,15.6149,-0.14205,1.11303,0.98912
185.986,15.63655,-0.14236,1.1214,0.98868
186.686,15.65811,-0.1423,1.13157,0.98824
187.386,15.6797,-0.14369,1.14091,0.98781
188.086,15.7013,-0.14367,1.14862,0.98737
188.786,15.72284,-0.14486,1.15807,0.98693
189.486,15.7444,-0.14502,1.16832,0.9865
190.186,15.76595,-0.14534,1.17532,0.98607
190.886,15.7874,-0.14636,1.18428,0.98563
191.586,15.80885,-0.14633,1.19447,0.9852
192.286,15.83031,-0.14766,1.20759,0.98477
192.986,15.8518,-0.14765,1.21586,0.98434
193.686,15.87328,-0.14767,1.22687,0.98391
194.386,15.8948,-0.14905,1.23762,0.98348
195.086,15.9163,-0.14899,1.25135,0.98305
195.786,15.93775,-0.14972,1.2578,0.98262
196.486,15.9591,-0.15153,1.26966,0.98219
197.186,15.98049,-0.15229,1.2818,0.98176
197.886,16.0019,-0.15306,1.29435,0.98134
198.586,16.0234,-0.15459,1.30784,0.98091
199.286,16.0449,-0.1557,1.32227,0.98049
199.986,16.0665,-0.15606,1.33309,0.98006
200.686,16.08795,-0.1573,1.34784,0.97964
201.386,16.10935,-0.15669,1.35923,0.97921
202.086,16.1308,-0.15826,1.3726,0.97879
202.786,16.1522,-0.16006,1.38508,0.97837
203.486,16.1736,-0.16157,1.39948,0.97795
204.186,16.19495,-0.16305,1.41001,0.97753
204.886,16.21631,-0.16407,1.42431,0.9771
205.586,16.23772,-0.16456,1.43506,0.97669
206.286,16.2591,-0.16599,1.45045,0.97627
206.986,16.28046,-0.16709,1.46262,0.97585
207.686,16.30184,-0.16749,1.47484,0.97543
208.386,16.3232,-0.16915,1.48703,0.97501
209.086,16.34461,-0.17004,1.50231,0.97459
209.786,16.36577,-0.17074,1.51112,0.97418
210.486,16.3871,-0.17168,1.52404,0.97376
211.186,16.40847,-0.17331,1.53744,0.97335
211.886,16.42984,-0.17495,1.54599,0.97293
212.586,16.45141,-0.1763,1.56184,0.97252
213.286,16.47289,-0.1774,1.57428,0.97211
213.986,16.49421,-0.17831,1.58587,0.97169
214.686,16.51553,-0.18011,1.59779,0.97128
215.386,16.53687,-0.18174,1.60855,0.97087
216.086,16.55826,-0.18358,1.61425,0.97046
216.786,16.57956,-0.18608,1.62856,0.97005
217.486,16.60091,-0.18733,1.63926,0.96964
218.186,16.62227,-0.18874,1.64738,0.96923
218.886,16.64359,-0.1902,1.65688,0.96882
219.586,16.66499,-0.19193,1.6667,0.96841
220.286,16.6864,-0.1939,1.67607,0.968
220.986,16.7077,-0.19561,1.68434,0.9676
221.686,16.72907,-0.19704,1.69697,0.96719
222.386,16.75036,-0.19869,1.7037,0.96679
223.086,16.77163,-0.20144,1.71078,0.96638
223.786,16.7929,-0.2036,1.7202,0.96598
224.486,16.8142,-0.20542,1.72734,0.96557
225.186,16.83557,-0.20707,1.73699,0.96517
225.886,16.85689,-0.20881,1.74647,0.96476
226.586,16.87825,-0.21068,1.75583,0.96436
227.286,16.8996,-0.21253,1.76302,0.96396
227.986,16.92093,-0.21452,1.773,0.96356
228.686,16.9422,-0.21649,1.77856,0.96316
229.386,16.9635,-0.21795,1.7887,0.96276
230.086,16.9848,-0.21984,1.79829,0.96236
230.786,17.00602,-0.22152,1.80387,0.96196
231.486,17.0273,-0.22355,1.81473,0.96156
232.186,17.0486,-0.2256,1.82345,0.96116
232.886,17.06984,-0.22758,1.83236,0.96076
233.586,17.09113,-0.22958,1.83827,0.96037
234.286,17.1124,-0.23172,1.84689,0.95997
234.986,17.13368,-0.23372,1.85558,0.95957
235.686,17.15494,-0.23569,1.86343,0.95918
236.386,17.17621,-0.23786,1.8724,0.95878
237.086,17.19755,-0.24001,1.88045,0.95839
237.786,17.2188,-0.24161,1.88682,0.95799
238.486,17.24005,-0.24372,1.89573,0.9576
239.186,17.26128,-0.24706,1.90056,0.95721
239.886,17.2825,-0.24987,1.90906,0.95681
240.586,17.30377,-0.25245,1.91456,0.95642
241.286,17.32497,-0.25461,1.92143,0.95603
241.986,17.3462,-0.25715,1.92608,0.95564
242.686,17.36747,-0.25941,1.92896,0.95525
243.386,17.38867,-0.26194,1.93407,0.95486
244.086,17.40997,-0.26466,1.93506,0.95447
244.786,17.43126,-0.26753,1.94,0.95408
245.486,17.45252,-0.27051,1.94329,0.95369
246.186,17.47372,-0.27209,1.94289,0.9533
246.886,17.49494,-0.27487,1.9438,0.95292
247.586,17.51614,-0.27781,1.94252,0.95253
248.286,17.53729,-0.28008,1.94069,0.95214
248.986,17.55852,-0.28258,1.94016,0.95176
249.686,17.57969,-0.28515,1.93989,0.95137
250.386,17.6009,-0.2879,1.93646,0.95098
251.086,17.62213,-0.29121,1.9304,0.9506
251.786,17.64329,-0.29462,1.93036,0.95022
252.486,17.66451,-0.29809,1.92404,0.94983
253.186,17.68561,-0.30116,1.91963,0.94945
253.886,17.70674,-0.30416,1.91719,0.94906
254.586,17.72784,-0.30726,1.91074,0.94868
255.286,17.749,-0.31071,1.90488,0.9483
255.986,17.77019,-0.31406,1.9023,0.94792
256.686,17.7913,-0.31657,1.89767,0.94754
257.386,17.81255,-0.31997,1.89351,0.94716
258.086,17.8337,-0.3233,1.88842,0.94678
258.786,17.85482,-0.32693,1.88425,0.9464
259.486,17.876,-0.33108,1.87984,0.94602
260.186,17.89714,-0.3353,1.87673,0.94564
260.886,17.91826,-0.33962,1.8729,0.94526
261.586,17.93938,-0.34242,1.86697,0.94488
262.286,17.9605,-0.34606,1.86339,0.9445
262.986,17.9816,-0.34977,1.86163,0.94413
263.686,18.0027,-0.35317,1.8584,0.94375
264.386,18.02374,-0.3571,1.85354,0.94337
265.086,18.04487,-0.36059,1.84987,0.943
265.786,18.06602,-0.36501,1.84771,0.94262
266.486,18.08708,-0.36891,1.84344,0.94225
267.186,18.10815,-0.37301,1.84128,0.94187
267.886,18.12925,-0.37681,1.84053,0.9415
268.586,18.15035,-0.38032,1.83579,0.94112
269.286,18.17152,-0.38475,1.83193,0.94075
269.986,18.19272,-0.38853,1.82963,0.94038
270.686,18.2138,-0.39306,1.82722,0.94
271.386,18.23484,-0.39742,1.82541,0.93963
272.086,18.2559,-0.40222,1.82078,0.93926
272.786,18.27692,-0.40737,1.81778,0.93889
273.486,18.29797,-0.41182,1.81698,0.93852
274.186,18.3191,-0.41691,1.81212,0.93814
274.886,18.34021,-0.42092,1.80944,0.93777
275.586,18.36134,-0.42622,1.8069,0.9374
276.286,18.38247,-0.43139,1.80221,0.93703
276.986,18.40365,-0.43589,1.80035,0.93667
277.686,18.42475,-0.44147,1.7966,0.9363
278.386,18.4458,-0.44676,1.79169,0.93593
279.086,18.4669,-0.45299,1.78751,0.93556
279.786,18.48794,-0.45833,1.78457,0.93519
280.486,18.50899,-0.46468,1.78104,0.93482
281.186,18.53015,-0.47027,1.77259,0.93446
281.886,18.55124,-0.47551,1.7708,0.93409
282.586,18.57241,-0.48099,1.76556,0.93372
283.286,18.59359,-0.48667,1.75962,0.93336
283.986,18.6145,-0.49314,1.75523,0.93299
284.686,18.63567,-0.49908,1.74663,0.93263
285.386,18.65682,-0.50655,1.74173,0.93226
286.086,18.67793,-0.51308,1.73435,0.9319
286.786,18.69916,-0.52091,1.72712,0.93153
287.486,18.72031,-0.52725,1.72026,0.93117
288.186,18.74137,-0.53549,1.71345,0.9308
288.886,18.7624,-0.54153,1.70563,0.93044
289.586,18.7835,-0.54905,1.69612,0.93008
290.286,18.8046,-0.556,1.68505,0.92972
290.986,18.82563,-0.56533,1.67447,0.92935
291.686,18.84672,-0.57371,1.66524,0.92899
292.386,18.86786,-0.58222,1.65368,0.92863
293.086,18.88897,-0.58988,1.64195,0.92827
293.786,18.91009,-0.59804,1.63137,0.92791
294.486,18.9312,-0.60612,1.61775,0.92755
295.186,18.9524,-0.6148,1.60479,0.92719
295.886,18.9735,-0.62465,1.59167,0.92682
296.586,18.99468,-0.63339,1.57739,0.92647
297.286,19.01589,-0.64319,1.56201,0.92611
297.986,19.03697,-0.65162,1.54419,0.92575
298.686,19.05807,-0.66191,1.53035,0.92539
299.386,19.07919,-0.67049,1.51628,0.92503
300.086,19.1003,-0.68073,1.49964,0.92467
300.786,19.1214,-0.6897,1.47963,0.92431
301.486,19.14249,-0.70093,1.46322,0.92395
302.186,19.1636,-0.7099,1.44549,0.9236
302.886,19.1847,-0.72051,1.42759,0.92324
303.586,19.20586,-0.73013,1.40712,0.92288
304.286,19.22703,-0.74159,1.38967,0.92253
304.986,19.24813,-0.7517,1.36943,0.92217
305.686,19.26921,-0.76264,1.35115,0.92181
306.386,19.29038,-0.77296,1.32816,0.92146
307.086,19.31149,-0.78392,1.31045,0.9211
307.786,19.3326,-0.79564,1.29031,0.92075
308.486,19.3538,-0.80641,1.26646,0.92039
309.186,19.37491,-0.81882,1.24423,0.92004
309.886,19.39604,-0.82953,1.22869,0.91968
310.586,19.41723,-0.84216,1.2047,0.91933
311.286,19.4384,-0.85239,1.18577,0.91897
311.986,19.45956,-0.8655,1.16656,0.91862
312.686,19.48074,-0.87582,1.14645,0.91826
313.386,19.50187,-0.88916,1.12617,0.91791
314.086,19.52306,-0.89992,1.10833,0.91756
314.786,19.5442,-0.91311,1.08896,0.91721
315.486,19.56537,-0.92432,1.07104,0.91685
316.186,19.5866,-0.93646,1.05458,0.9165
316.886,19.60774,-0.94783,1.03281,0.91615
317.586,19.62895,-0.96088,1.01639,0.9158
318.286,19.6501,-0.97376,1.00061,0.91544
318.986,19.67128,-0.98672,0.98439,0.91509
319.686,19.69241,-0.99954,0.96938,0.91474
320.386,19.7136,-1.01179,0.95403,0.91439
321.086,19.73481,-1.02548,0.9412,0.91404
321.786,19.75596,-1.03768,0.92467,0.91369
322.486,19.77721,-1.05255,0.90931,0.91334
323.186,19.7984,-1.06447,0.89815,0.91299
323.886,19.81956,-1.07968,0.884,0.91264
324.586,19.84081,-1.0919,0.87598,0.91229
325.286,19.86202,-1.10733,0.86407,0.91194
325.986,19.88324,-1.11976,0.85466,0.91159
326.686,19.9045,-1.13468,0.84887,0.91124
327.386,19.9258,-1.14714,0.8385,0.91089
328.086,19.94707,-1.16204,0.82984,0.91054
328.786,19.96828,-1.17673,0.82717,0.91019
329.486,19.98955,-1.1916,0.81931,0.90984
330.186,20.01075,-1.20584,0.81231,0.90949
330.886,20.03201,-1.22024,0.80801,0.90915
331.586,20.0533,-1.23568,0.80343,0.9088
332.286,20.07451,-1.2498,0.80012,0.90845
332.986,20.0958,-1.26592,0.79781,0.9081
333.686,20.11704,-1.28006,0.79381,0.90775
334.386,20.13831,-1.29682,0.79251,0.90741
335.086,20.1596,-1.31014,0.78996,0.90706
335.786,20.18093,-1.32722,0.78919,0.90671
336.486,20.20223,-1.34126,0.78814,0.90636
337.186,20.2236,-1.35857,0.78566,0.90602
337.886,20.24494,-1.37279,0.78415,0.90567
338.586,20.2663,-1.39033,0.78333,0.90532
339.286,20.2877,-1.40586,0.78362,0.90498
339.986,20.30903,-1.42302,0.78445,0.90463
340.686,20.33034,-1.43906,0.78172,0.90429
341.386,20.35172,-1.45557,0.78264,0.90394
342.086,20.3731,-1.47302,0.77997,0.90359
342.786,20.3945,-1.48935,0.78161,0.90325
343.486,20.41582,-1.50731,0.78402,0.9029
344.186,20.4372,-1.52305,0.78209,0.90256
344.886,20.45851,-1.5426,0.78094,0.90221
345.586,20.4799,-1.5591,0.78113,0.90187
346.286,20.50131,-1.57958,0.78145,0.90152
346.986,20.52272,-1.59617,0.78157,0.90118
347.686,20.54413,-1.61632,0.7809,0.90083
348.386,20.56547,-1.63306,0.77879,0.90049
349.086,20.58673,-1.6527,0.78098,0.90014
349.786,20.608,-1.67113,0.78009,0.8998
350.486,20.62932,-1.6915,0.77831,0.89945
351.186,20.65074,-1.71126,0.77585,0.89911
351.886,20.67236,-1.73133,0.77767,0.89876
352.586,20.69397,-1.75228,0.77689,0.89842
353.286,20.71549,-1.77159,0.77517,0.89807
353.986,20.73695,-1.79345,0.77308,0.89773
354.686,20.75838,-1.8121,0.77107,0.89739
355.386,20.77981,-1.83561,0.77038,0.89704
356.086,20.8013,-1.85471,0.76937,0.8967
356.786,20.82273,-1.87777,0.76631,0.89636
357.486,20.8442,-1.89675,0.76486,0.89601
358.186,20.8657,-1.92007,0.7617,0.89567
358.886,20.88717,-1.93991,0.75983,0.89532
359.586,20.90865,-1.96228,0.75591,0.89498
360.286,20.9301,-1.98414,0.75036,0.89464
360.986,20.9516,-2.00661,0.74351,0.89429
361.686,20.9731,-2.02867,0.73956,0.89395
362.386,20.99459,-2.04965,0.73531,0.89361
363.086,21.01605,-2.07385,0.72754,0.89326
363.786,21.03752,-2.09403,0.72219,0.89292
364.486,21.05904,-2.1188,0.71444,0.89258
365.186,21.08051,-2.13907,0.70634,0.89223
365.886,21.10209,-2.16412,0.6985,0.89189
366.586,21.12365,-2.18421,0.69067,0.89155
367.286,21.14518,-2.20823,0.67959,0.89121
367.986,21.16677,-2.22936,0.67229,0.89086
368.686,21.18832,-2.25402,0.66022,0.89052
369.386,21.20986,-2.27648,0.65088,0.89018
370.086,21.2314,-2.29811,0.63717,0.88983
370.786,21.25293,-2.31998,0.6249,0.88949
371.486,21.27424,-2.34008,0.61315,0.88915
372.186,21.2957,-2.3628,0.59568,0.8888
372.886,21.31725,-2.38078,0.58331,0.88846
373.586,21.33879,-2.40355,0.56875,0.88812
374.286,21.3605,-2.42182,0.55217,0.88778
374.986,21.3822,-2.44445,0.53489,0.88743
375.686,21.40377,-2.46234,0.51822,0.88709
376.386,21.42539,-2.48268,0.50005,0.88675
377.086,21.447,-2.49921,0.48016,0.88641
377.786,21.46865,-2.51772,0.46322,0.88606
378.486,21.49025,-2.53532,0.44348,0.88572
379.186,21.51184,-2.55383,0.42368,0.88538
379.886,21.5334,-2.57053,0.40348,0.88503
380.586,21.55499,-2.58404,0.38126,0.88469
381.286,21.57665,-2.59842,0.36218,0.88435
381.986,21.59824,-2.61036,0.34378,0.88401
382.686,21.61984,-2.62459,0.32599,0.88366
383.386,21.64143,-2.63569,0.30781,0.88332
384.086,21.66304,-2.64848,0.29274,0.88298
384.786,21.68465,-2.65796,0.27675,0.88263
385.486,21.70632,-2.66863,0.25929,0.88229
386.186,21.72801,-2.67711,0.24502,0.88195
386.886,21.7497,-2.68567,0.23242,0.8816
387.586,21.7714,-2.69298,0.22125,0.88126
388.286,21.79301,-2.6995,0.2112,0.88092
388.986,21.81468,-2.70605,0.20211,0.88057
389.686,21.83633,-2.7118,0.1951,0.88023
390.386,21.85799,-2.71785,0.1868,0.87989
391.086,21.87966,-2.72213,0.17946,0.87954
391.786,21.9013,-2.72648,0.17225,0.8792
392.486,21.92306,-2.73095,0.16601,0.87886
393.186,21.94474,-2.73407,0.15871,0.87851
393.886,21.96651,-2.73777,0.15381,0.87817
394.586,21.9882,-2.74092,0.14895,0.87783
395.286,22.00994,-2.74509,0.14201,0.87748
395.986,22.0317,-2.74945,0.1371,0.87714
396.686,22.05335,-2.75307,0.13059,0.8768
397.386,22.0751,-2.75558,0.12567,0.87645
398.086,22.09686,-2.75753,0.119,0.87611
398.786,22.1186,-2.75984,0.11645,0.87576
399.486,22.14038,-2.76282,0.11091,0.87542
400.186,22.16215,-2.76596,0.10734,0.87507
400.886,22.18392,-2.76924,0.10155,0.87473
401.586,22.20574,-2.77194,0.09738934,0.87439
402.286,22.22764,-2.77472,0.09100204,0.87404
402.986,22.24945,-2.77695,0.09163167,0.8737
403.686,22.27121,-2.77987,0.08574786,0.87335
404.386,22.293,-2.78231,0.08073676,0.87301
405.086,22.31478,-2.78525,0.07752366,0.87266
405.786,22.33659,-2.78861,0.07439261,0.87232
406.486,22.35843,-2.79119,0.07050206,0.87197
407.186,22.38027,-2.79351,0.06859697,0.87163
407.886,22.40211,-2.79596,0.06499701,0.87128
408.586,22.4239,-2.79822,0.05728507,0.87093
409.286,22.4457,-2.80037,0.05555303,0.87059
409.986,22.46756,-2.80184,0.05263618,0.87024
410.686,22.4894,-2.80341,0.04952777,0.8699
411.386,22.51131,-2.80436,0.04660016,0.86955
412.086,22.5332,-2.80738,0.04401485,0.86921
412.786,22.55503,-2.81038,0.04224864,0.86886
413.486,22.57685,-2.81241,0.03571839,0.86851
414.186,22.5987,-2.81401,0.03583848,0.86817
414.886,22.62054,-2.81722,0.03063249,0.86782
415.586,22.64241,-2.81929,0.02843979,0.86747
416.286,22.6643,-2.8213,0.02662457,0.86712
416.986,22.6862,-2.82373,0.0237611,0.86678
417.686,22.70811,-2.82572,0.02163804,0.86643
418.386,22.72997,-2.82738,0.02213419,0.86608
419.086,22.7518,-2.82838,0.01805758,0.86574
419.786,22.7737,-2.83031,0.01656269,0.86539
420.486,22.79555,-2.8321,0.0152123,0.86504
421.186,22.8174,-2.83416,0.01505799,0.86469
421.886,22.83935,-2.83774,0.01498225,0.86434
422.586,22.86126,-2.84038,0.01202667,0.86399
423.286,22.88319,-2.84284,0.01056635,0.86365
423.986,22.9052,-2.84512,0.01080772,0.8633
424.686,22.9271,-2.84747,0.009951151,0.86295
425.386,22.94915,-2.85008,0.01061965,0.8626
426.086,22.97114,-2.852,0.008716261,0.86225
426.786,22.99296,-2.85326,0.0097515,0.8619
427.486,23.01473,-2.85468,0.007933834,0.86155
428.186,23.03655,-2.85799,0.01271375,0.8612
428.886,23.05842,-2.86011,0.01088588,0.86085
429.586,23.0805,-2.86154,0.01210328,0.8605
430.286,23.10262,-2.86342,0.009716599,0.86015
430.986,23.1247,-2.86536,0.01258966,0.8598
431.686,23.1466,-2.86769,0.01135176,0.85945
432.386,23.16859,-2.86995,0.01263886,0.8591
433.086,23.19059,-2.87172,0.01032739,0.85875
433.786,23.21248,-2.87329,0.01358803,0.85839
434.486,23.23441,-2.87501,0.01391738,0.85804
435.186,23.25639,-2.87672,0.01524657,0.85769
435.886,23.27836,-2.87859,0.01653693,0.85734
436.586,23.3002,-2.88093,0.01545974,0.85699
437.286,23.32217,-2.88278,0.01799293,0.85663
437.986,23.3441,-2.88469,0.01873531,0.85628
438.686,23.36611,-2.88628,0.02129175,0.85593
439.386,23.38832,-2.88798,0.01967902,0.85557
440.086,23.41036,-2.88992,0.02245458,0.85522
440.786,23.43242,-2.89172,0.02529408,0.85487
441.486,23.45445,-2.89332,0.02526115,0.85451
442.186,23.47643,-2.89482,0.02871328,0.85416
442.886,23.4985,-2.89665,0.03038493,0.8538
443.586,23.52052,-2.89861,0.03466419,0.85345
444.286,23.54253,-2.9011,0.03608421,0.8531
444.986,23.5646,-2.90333,0.03544323,0.85274
445.686,23.58669,-2.90496,0.04040792,0.85238
446.386,23.6088,-2.90653,0.04406234,0.85203
447.086,23.63084,-2.90821,0.04468921,0.85167
447.786,23.65286,-2.90986,0.04676125,0.85132
448.486,23.67491,-2.91097,0.05111578,0.85096
449.186,23.69691,-2.91272,0.0542024,0.8506
449.886,23.719,-2.91411,0.05491384,0.85025
450.586,23.74107,-2.91564,0.05834398,0.84989
451.286,23.76313,-2.91743,0.06259343,0.84953
451.986,23.78527,-2.91939,0.06132896,0.84918
452.686,23.80738,-2.92097,0.06386042,0.84882
453.386,23.82955,-2.92288,0.06870429,0.84846
454.086,23.85165,-2.92428,0.07252249,0.8481
454.786,23.87371,-2.9257,0.07443551,0.84774
455.486,23.89582,-2.92735,0.07577008,0.84738
456.186,23.9179,-2.92831,0.07826405,0.84702
456.886,23.94,-2.92928,0.0790159,0.84666
457.586,23.9622,-2.93089,0.08112901,0.8463
458.286,23.98435,-2.93211,0.08861006,0.84594
458.986,24.0065,-2.93324,0.08724919,0.84558
459.686,24.02871,-2.93626,0.0933467,0.84522
460.386,24.05087,-2.93783,0.09460934,0.84486
461.086,24.07305,-2.93949,0.09746135,0.8445
461.786,24.09521,-2.94106,0.09829966,0.84414
462.486,24.1174,-2.94237,0.1017,0.84378
463.186,24.13951,-2.94383,0.10583,0.84341
463.886,24.16166,-2.94485,0.10793,0.84305
464.586,24.18388,-2.94667,0.10925,0.84269
465.286,24.206,-2.94895,0.11347,0.84233
465.986,24.2283,-2.95054,0.11628,0.84196
466.686,24.2504,-2.95202,0.11734,0.8416
467.386,24.27254,-2.95296,0.11955,0.84123
468.086,24.29477,-2.95452,0.12331,0.84087
468.786,24.31697,-2.95578,0.1269,0.84051
469.486,24.33921,-2.9565,0.1305,0.84014
470.186,24.36146,-2.958,0.12874,0.83978
470.886,24.3837,-2.9598,0.13013,0.83941
471.586,24.4059,-2.96121,0.13525,0.83904
472.286,24.42813,-2.96282,0.13692,0.83868
472.986,24.45037,-2.96439,0.13878,0.83831
473.686,24.47257,-2.96566,0.1423,0.83794
474.386,24.49481,-2.96705,0.14268,0.83758
475.086,24.5171,-2.96869,0.14322,0.83721
475.786,24.53939,-2.96968,0.14521,0.83684
476.486,24.56167,-2.97077,0.14633,0.83647
477.186,24.58394,-2.9723,0.15166,0.8361
477.886,24.60622,-2.97339,0.14992,0.83573
478.586,24.6285,-2.9752,0.15241,0.83536
479.286,24.65074,-2.97653,0.1576,0.835
479.986,24.67299,-2.97752,0.15958,0.83463
480.686,24.69521,-2.9782,0.16031,0.83425
481.386,24.71745,-2.97845,0.16012,0.83388
482.086,24.7397,-2.98016,0.16023,0.83351
482.786,24.762,-2.98156,0.16249,0.83314
483.486,24.7843,-2.982,0.16383,0.83277
484.186,24.80667,-2.98341,0.16592,0.8324
484.886,24.82902,-2.98492,0.16634,0.83202
485.586,24.8512,-2.9865,0.16859,0.83165
486.286,24.87351,-2.98732,0.17197,0.83128
486.986,24.89573,-2.98888,0.17472,0.8309
487.686,24.91801,-2.98941,0.17345,0.83053
488.386,24.94044,-2.99048,0.17632,0.83016
489.086,24.96275,-2.99201,0.17582,0.82978
489.786,24.9851,-2.99291,0.1744,0.82941
490.486,25.00743,-2.99391,0.17692,0.82903
491.186,25.02978,-2.99562,0.17487,0.82865
491.886,25.0521,-2.99682,0.17608,0.82828
492.586,25.07444,-2.99839,0.1803,0.8279
493.286,25.09675,-2.99872,0.18061,0.82752
493.986,25.11911,-3.00016,0.18218,0.82715
494.686,25.14149,-3.00166,0.18039,0.82677
495.386,25.16384,-3.00313,0.18379,0.82639
496.086,25.1862,-3.00467,0.18385,0.82601
496.786,25.20851,-3.0047,0.18531,0.82563
497.486,25.23086,-3.00608,0.18778,0.82525
498.186,25.25323,-3.00678,0.18813,0.82487
498.886,25.27562,-3.00762,0.18784,0.82449
499.586,25.29809,-3.00918,0.18633,0.82411
500.286,25.3205,-3.00983,0.18759,0.82373
500.986,25.3429,-3.01044,0.18796,0.82335
501.686,25.3653,-3.01211,0.18989,0.82297
502.386,25.38758,-3.01274,0.188,0.82258
503.086,25.40997,-3.0133,0.19141,0.8222
503.786,25.43236,-3.0148,0.18975,0.82182
504.486,25.45479,-3.01498,0.1952,0.82143
505.186,25.47721,-3.01658,0.19526,0.82105
505.886,25.49962,-3.01806,0.19497,0.82067
506.586,25.52205,-3.0194,0.19427,0.82028
507.286,25.54443,-3.02096,0.19527,0.81989
507.986,25.56681,-3.02246,0.19863,0.81951
508.686,25.58922,-3.02249,0.19731,0.81912
509.386,25.6116,-3.02376,0.19449,0.81874
510.086,25.63409,-3.0229,0.19438,0.81835
510.786,25.65653,-3.02415,0.19677,0.81796
511.486,25.67896,-3.0256,0.19699,0.81757
512.186,25.70136,-3.02708,0.1964,0.81719
512.886,25.7238,-3.02741,0.19813,0.8168
513.586,25.7463,-3.0291,0.19784,0.81641
514.286,25.7687,-3.0306,0.19915,0.81602
514.986,25.7913,-3.03353,0.19805,0.81563
515.686,25.81377,-3.03506,0.19632,0.81524
516.386,25.83621,-3.0363,0.19932,0.81485
517.086,25.85872,-3.03677,0.1981,0.81445
517.786,25.88119,-3.03796,0.19635,0.81406
518.486,25.90375,-3.03874,0.19809,0.81367
519.186,25.92635,-3.03972,0.19669,0.81328
519.886,25.94885,-3.04228,0.19547,0.81288
520.586,25.9713,-3.04244,0.19802,0.81249
521.286,25.99383,-3.04266,0.19605,0.8121
521.986,26.01636,-3.04315,0.19447,0.8117
522.686,26.039,-3.04397,0.19335,0.81131
523.386,26.06154,-3.04542,0.19156,0.81091
524.086,26.08408,-3.04683,0.19192,0.81051
524.786,26.10662,-3.04696,0.1893,0.81012
525.486,26.12913,-3.04823,0.18895,0.80972
526.186,26.15169,-3.04829,0.18778,0.80932
526.886,26.17424,-3.04821,0.18695,0.80892
527.586,26.19679,-3.04959,0.18476,0.80853
528.286,26.2194,-3.0502,0.18451,0.80813
528.986,26.2419,-3.05098,0.18646,0.80773
529.686,26.26455,-3.05227,0.18378,0.80733
530.386,26.28711,-3.05236,0.18226,0.80693
531.086,26.30971,-3.05299,0.18084,0.80653
531.786,26.33225,-3.05366,0.17909,0.80612
532.486,26.3548,-3.05364,0.17828,0.80572
533.186,26.37735,-3.05632,0.17919,0.80532
533.886,26.39992,-3.05629,0.17935,0.80492
534.586,26.42254,-3.05745,0.17956,0.80451
535.286,26.44515,-3.05756,0.17653,0.80411
535.986,26.46775,-3.05882,0.17867,0.80371
536.686,26.4904,-3.05894,0.17452,0.8033
537.386,26.51305,-3.06037,0.17766,0.8029
538.086,26.5357,-3.06044,0.17612,0.80249
538.786,26.55837,-3.06171,0.17705,0.80208
539.486,26.581,-3.06032,0.17818,0.80168
540.186,26.60355,-3.06188,0.17668,0.80127
540.886,26.62619,-3.06292,0.17791,0.80086
541.586,26.6488,-3.06355,0.17783,0.80045
542.286,26.6714,-3.06473,0.17705,0.80004
542.986,26.69407,-3.06616,0.17847,0.79963
543.686,26.71673,-3.06608,0.17929,0.79923
544.386,26.7394,-3.06827,0.17998,0.79881
545.086,26.7621,-3.0687,0.17907,0.7984
545.786,26.7847,-3.07035,0.18222,0.79799
546.486,26.8073,-3.07065,0.18135,0.79758
547.186,26.8299,-3.07165,0.18011,0.79717
547.886,26.85262,-3.07283,0.18217,0.79676
548.586,26.8753,-3.07315,0.1816,0.79634
549.286,26.898,-3.07294,0.18402,0.79593
549.986,26.9207,-3.07311,0.18304,0.79551
550.686,26.94335,-3.07445,0.18475,0.7951
551.386,26.966,-3.07536,0.18252,0.79468
552.086,26.9887,-3.07567,0.18165,0.79427
552.786,27.01134,-3.07718,0.18249,0.79385
553.486,27.034,-3.07706,0.18212,0.79343
554.186,27.0567,-3.07832,0.18468,0.79301
554.886,27.07943,-3.07944,0.18641,0.7926
555.586,27.10217,-3.07952,0.18371,0.79218
556.286,27.12493,-3.0808,0.18477,0.79176
556.986,27.14762,-3.08092,0.18362,0.79134
557.686,27.1704,-3.08206,0.18219,0.79092
558.386,27.1931,-3.08181,0.1849,0.7905
559.086,27.2158,-3.0817,0.18551,0.79008
559.786,27.2386,-3.08207,0.18733,0.78965
560.486,27.26127,-3.08452,0.18706,0.78923
561.186,27.2841,-3.08471,0.18474,0.78881
561.886,27.30663,-3.08482,0.1876,0.78838
562.586,27.32938,-3.08603,0.18698,0.78796
563.286,27.3522,-3.0861,0.1853,0.78754
563.986,27.37479,-3.08763,0.18603,0.78711
564.686,27.3978,-3.08803,0.18699,0.78668
565.386,27.42052,-3.08887,0.18689,0.78626
566.086,27.44329,-3.08884,0.18592,0.78583
566.786,27.4661,-3.09006,0.18781,0.7854
567.486,27.48886,-3.09026,0.18918,0.78498
568.186,27.5116,-3.09177,0.18696,0.78455
568.886,27.53443,-3.09211,0.18731,0.78412
569.586,27.55728,-3.09317,0.19005,0.78369
570.286,27.5801,-3.0938,0.18724,0.78326
570.986,27.6029,-3.09314,0.18612,0.78283
571.686,27.6257,-3.09345,0.18864,0.7824
572.386,27.64855,-3.09461,0.1866,0.78196
573.086,27.67131,-3.09567,0.18705,0.78153
573.786,27.69412,-3.096,0.18519,0.7811
574.486,27.71687,-3.09613,0.18552,0.78066
575.186,27.73961,-3.09733,0.18431,0.78023
575.886,27.76245,-3.09742,0.18319,0.7798
576.586,27.78523,-3.09868,0.18386,0.77936
577.286,27.8081,-3.09857,0.18092,0.77892
577.986,27.831,-3.09995,0.18126,0.77849
578.686,27.85383,-3.09999,0.17812,0.77805
579.386,27.87673,-3.10133,0.17887,0.77761
580.086,27.89957,-3.10125,0.17649,0.77717
580.786,27.9224,-3.10258,0.17818,0.77674
581.486,27.9452,-3.10249,0.17859,0.7763
582.186,27.9681,-3.10389,0.17533,0.77586
582.886,27.99098,-3.10393,0.174,0.77542
583.586,28.0139,-3.10527,0.17449,0.77498
584.286,28.03674,-3.1056,0.17531,0.77453
584.986,28.05963,-3.10653,0.1724,0.77409
585.686,28.08248,-3.10672,0.17008,0.77365
586.386,28.1054,-3.10785,0.17014,0.77321
587.086,28.12828,-3.10784,0.16926,0.77276
587.786,28.15114,-3.10827,0.16589,0.77232
588.486,28.17401,-3.10915,0.1653,0.77187
589.186,28.19693,-3.10984,0.16414,0.77143
589.886,28.2198,-3.11048,0.16137,0.77098
590.586,28.2427,-3.1105,0.15886,0.77053
591.286,28.26567,-3.11194,0.15771,0.77008
591.986,28.28857,-3.11105,0.15933,0.76964
592.686,28.31141,-3.11256,0.15714,0.76919
593.386,28.33434,-3.11361,0.15626,0.76874
594.086,28.35728,-3.11397,0.15118,0.76829
594.786,28.3802,-3.11433,0.1513,0.76784
595.486,28.4032,-3.11527,0.1446,0.76739
596.186,28.4262,-3.1153,0.14401,0.76694
596.886,28.4491,-3.1153,0.14287,0.76648
597.586,28.4721,-3.1167,0.14046,0.76603
598.286,28.4951,-3.11664,0.13851,0.76558
598.986,28.51803,-3.11711,0.13779,0.76512
599.686,28.54103,-3.11792,0.13433,0.76467
600.386,28.564,-3.11881,0.13452,0.76421
601.086,28.58695,-3.12001,0.13258,0.76376
601.786,28.60995,-3.12002,0.13058,0.7633
602.486,28.633,-3.12136,0.12478,0.76284
603.186,28.6561,-3.12169,0.12555,0.76239
603.886,28.6791,-3.12166,0.12372,0.76193
604.586,28.70215,-3.12162,0.12242,0.76147
605.286,28.7251,-3.12292,0.1206,0.76101
605.986,28.7481,-3.12298,0.11962,0.76055
606.686,28.7711,-3.12302,0.11891,0.76009
607.386,28.7942,-3.12435,0.11682,0.75963
608.086,28.81733,-3.1243,0.10692,0.75917
608.786,28.84041,-3.12432,0.10451,0.7587
609.486,28.86347,-3.12562,0.10535,0.75824
610.186,28.88634,-3.1257,0.10403,0.75778
610.886,28.9093,-3.12554,0.10062,0.75731
611.586,28.9324,-3.12632,0.1,0.75685
612.286,28.95553,-3.12764,0.09764318,0.75638
612.986,28.9788,-3.12767,0.09860196,0.75591
613.686,29.00191,-3.12906,0.09517914,0.75545
614.386,29.025,-3.12927,0.09430797,0.75498
615.086,29.0481,-3.13027,0.09287213,0.75451
615.786,29.0712,-3.13165,0.09285375,0.75404
616.486,29.09427,-3.13165,0.0898715,0.75357
617.186,29.1173,-3.13165,0.08959646,0.7531
617.886,29.1404,-3.13164,0.08984369,0.75263
618.586,29.1634,-3.13284,0.088844,0.75216
619.286,29.18641,-3.13296,0.0879232,0.75169
619.986,29.2095,-3.13296,0.08584379,0.75122
620.686,29.23268,-3.1335,0.08406538,0.75075
621.386,29.25589,-3.13404,0.07897147,0.75027
622.086,29.2791,-3.13532,0.08207187,0.7498
622.786,29.30218,-3.13539,0.07925774,0.74932
623.486,29.32524,-3.13538,0.07556538,0.74885
624.186,29.34832,-3.13537,0.0716173,0.74837
624.886,29.37143,-3.13675,0.07526739,0.7479
625.586,29.3945,-3.1367,0.07462067,0.74742
626.286,29.4176,-3.13669,0.0686971,0.74694
626.986,29.44075,-3.13709,0.067312,0.74646
627.686,29.46388,-3.138,0.06810627,0.74598
628.386,29.487,-3.13869,0.06711668,0.7455
629.086,29.51,-3.13943,0.06586215,0.74502
629.786,29.5332,-3.13983,0.06382436,0.74454
630.486,29.5563,-3.13967,0.06364678,0.74406
631.186,29.57944,-3.14108,0.06129883,0.74358
631.886,29.60255,-3.14109,0.06062563,0.74309
632.586,29.62568,-3.14161,0.06068695,0.74261
633.286,29.64878,-3.14239,0.05786035,0.74213
633.986,29.67186,-3.14239,0.05687219,0.74164
634.686,29.69496,-3.14239,0.05562822,0.74116
635.386,29.71807,-3.14239,0.05696552,0.74067
636.086,29.7412,-3.14239,0.05150075,0.74018
636.786,29.76427,-3.14326,0.05280444,0.7397
637.486,29.7874,-3.14394,0.04961923,0.73921
638.186,29.81052,-3.14496,0.05202151,0.73872
638.886,29.83366,-3.14523,0.04839539,0.73823
639.586,29.8568,-3.1463,0.04726879,0.73774
640.286,29.88,-3.14656,0.04758304,0.73725
640.986,29.90312,-3.1467,0.04850527,0.73676
641.686,29.92625,-3.14792,0.05027822,0.73627
642.386,29.9493,-3.14788,0.0460227,0.73577
643.086,29.97235,-3.1479,0.04660178,0.73528
643.786,29.99547,-3.14861,0.0450373,0.73479
644.486,30.0185,-3.14918,0.04534206,0.73429
645.186,30.04168,-3.14921,0.04519627,0.7338
645.886,30.0648,-3.15023,0.04254946,0.7333
646.586,30.0879,-3.1501,0.0412337,0.73281
647.286,30.11105,-3.1515,0.04528695,0.73231
647.986,30.13417,-3.15152,0.0453821,0.73181
648.686,30.1573,-3.15222,0.04548125,0.73131
649.386,30.18044,-3.15282,0.04297973,0.73081
650.086,30.20368,-3.15311,0.04129159,0.73032
650.786,30.22687,-3.15346,0.04038981,0.72982
651.486,30.25008,-3.15281,0.04101197,0.72931
652.186,30.27324,-3.15281,0.04007211,0.72881
652.886,30.2964,-3.15275,0.03912214,0.72831
653.586,30.3196,-3.15541,0.03760916,0.72781
654.286,30.34273,-3.15546,0.03968212,0.72731
654.986,30.36587,-3.1564,0.03718822,0.7268
655.686,30.38898,-3.15678,0.04007317,0.7263
656.386,30.4122,-3.1554,0.0401538,0.72579
657.086,30.4354,-3.15543,0.03628598,0.72529
657.786,30.4586,-3.15538,0.03869931,0.72478
658.486,30.48183,-3.15677,0.03342748,0.72427
659.186,30.505,-3.15722,0.03444487,0.72377
659.886,30.5282,-3.15927,0.03246122,0.72326
660.586,30.5514,-3.1594,0.0330462,0.72275
661.286,30.57457,-3.15942,0.03210653,0.72224
661.986,30.5978,-3.16016,0.02946749,0.72173
662.686,30.621,-3.16082,0.02980408,0.72122
663.386,30.6442,-3.16074,0.0276271,0.72071
664.086,30.6674,-3.16212,0.0291541,0.72019
664.786,30.6907,-3.16212,0.02478601,0.71968
665.486,30.71387,-3.16077,0.02487963,0.71917
666.186,30.7371,-3.16082,0.02443053,0.71865
666.886,30.76035,-3.16081,0.02367446,0.71814
667.586,30.7836,-3.16203,0.02183473,0.71762
668.286,30.8067,-3.16215,0.01833685,0.71711
668.986,30.8299,-3.16278,0.01660903,0.71659
669.686,30.85303,-3.16344,0.01729622,0.71607
670.386,30.87622,-3.16345,0.01540756,0.71556
671.086,30.8994,-3.16346,0.01745729,0.71504
671.786,30.9227,-3.16462,0.01295951,0.71452
672.486,30.9459,-3.16476,0.00773451,0.714
673.186,30.96909,-3.16445,0.007971467,0.71348
673.886,30.99235,-3.1658,0.00649293,0.71296
674.586,31.01558,-3.16576,0.00801319,0.71244
675.286,31.03882,-3.16576,0.002501504,0.71191
675.986,31.0621,-3.16716,-0.0007093702,0.71139
676.686,31.0853,-3.16708,-0.002352824,0.71087
677.386,31.10855,-3.16705,-0.003359376,0.71034
678.086,31.13182,-3.16844,-0.0056345,0.70982
678.786,31.155,-3.1684,-0.008653042,0.70929
679.486,31.17823,-3.1684,-0.01067016,0.70877
680.186,31.2015,-3.1684,-0.01345766,0.70824
680.886,31.2247,-3.16864,-0.01303458,0.70771
681.586,31.24798,-3.16973,-0.01738723,0.70719
682.286,31.2713,-3.16971,-0.01904703,0.70666
682.986,31.2946,-3.16966,-0.02206669,0.70613
683.686,31.3178,-3.17094,-0.02417767,0.7056
684.386,31.34109,-3.17103,-0.02590378,0.70507
685.086,31.3643,-3.17099,-0.03112088,0.70454
685.786,31.3876,-3.17225,-0.03175137,0.704
686.486,31.4109,-3.17235,-0.03269236,0.70347
687.186,31.4342,-3.17227,-0.03575217,0.70294
687.886,31.45745,-3.17124,-0.04121163,0.7024
688.586,31.48065,-3.17267,-0.04225428,0.70187
689.286,31.50393,-3.17271,-0.04638656,0.70134
689.986,31.52713,-3.17405,-0.04704102,0.7008
690.686,31.5504,-3.17399,-0.04877542,0.70026
691.386,31.5737,-3.17399,-0.05191893,0.69973
692.086,31.5969,-3.17399,-0.05667126,0.69919
692.786,31.6201,-3.17399,-0.05817793,0.69865
693.486,31.6433,-3.17402,-0.06018157,0.69811
694.186,31.6666,-3.17537,-0.06350155,0.69757
694.886,31.6899,-3.1753,-0.06623341,0.69703
695.586,31.7133,-3.1753,-0.06387759,0.69649
696.286,31.73661,-3.17529,-0.06934826,0.69595
696.986,31.76,-3.1753,-0.07029077,0.69541
697.686,31.7833,-3.17594,-0.07055993,0.69487
698.386,31.80653,-3.17596,-0.07447393,0.69432
699.086,31.8299,-3.17628,-0.07073307,0.69378
699.786,31.8531,-3.17725,-0.07956194,0.69323
700.486,31.8764,-3.17728,-0.08050782,0.69269
701.186,31.8997,-3.17728,-0.08138294,0.69214
701.886,31.92295,-3.17728,-0.08107502,0.6916
702.586,31.9463,-3.17828,-0.08275032,0.69105
703.286,31.9696,-3.17859,-0.08407045,0.6905
703.986,31.99291,-3.17861,-0.08474786,0.68995
704.686,32.01624,-3.17998,-0.08626888,0.68941
705.386,32.0396,-3.17991,-0.0868238,0.68886
706.086,32.06286,-3.17991,-0.08880301,0.68831
706.786,32.0862,-3.17991,-0.08693453,0.68776
707.486,32.10954,-3.17991,-0.09030402,0.6872
708.186,32.13285,-3.17992,-0.09169494,0.68665
708.886,32.1562,-3.18051,-0.0961684,0.6861
709.586,32.17955,-3.18123,-0.09759831,0.68555
710.286,32.20282,-3.18123,-0.10019,0.68499
710.986,32.22617,-3.18221,-0.09825477,0.68444
711.686,32.24948,-3.18254,-0.10135,0.68388
712.386,32.2728,-3.18255,-0.10047,0.68333
713.086,32.29619,-3.18289,-0.10404,0.68277
713.786,32.31947,-3.18386,-0.10575,0.68221
714.486,32.34285,-3.18386,-0.10711,0.68166
715.186,32.36622,-3.18396,-0.10674,0.6811
715.886,32.3896,-3.18415,-0.10456,0.68054
716.586,32.413,-3.18451,-0.11043,0.67998
717.286,32.43628,-3.18451,-0.11062,0.67942
717.986,32.45964,-3.18451,-0.1109,0.67886
718.686,32.48299,-3.18539,-0.1118,0.6783
719.386,32.50627,-3.18444,-0.119,0.67774
720.086,32.5297,-3.18452,-0.12121,0.67717
720.786,32.5531,-3.18516,-0.12059,0.67661
721.486,32.5764,-3.18582,-0.11873,0.67605
722.186,32.59975,-3.18584,-0.12143,0.67548
722.886,32.623,-3.18584,-0.12284,0.67492
723.586,32.6462,-3.18579,-0.12448,0.67435
724.286,32.66962,-3.18714,-0.13163,0.67379
724.986,32.693,-3.18715,-0.12763,0.67322
725.686,32.71652,-3.18715,-0.12908,0.67265
726.386,32.74,-3.18715,-0.13263,0.67209
727.086,32.76337,-3.18715,-0.1327,0.67152
727.786,32.78675,-3.18715,-0.1334,0.67095
728.486,32.81013,-3.18715,-0.13357,0.67038
729.186,32.83354,-3.18716,-0.13399,0.66981
729.886,32.85695,-3.18742,-0.13639,0.66924
730.586,32.88042,-3.18715,-0.13707,0.66866
731.286,32.90388,-3.18715,-0.13547,0.66809
731.986,32.9273,-3.18715,-0.13915,0.66752
732.686,32.95074,-3.18718,-0.14007,0.66695
733.386,32.9741,-3.18852,-0.14418,0.66637
734.086,32.99749,-3.18847,-0.14505,0.6658
734.786,33.02088,-3.18847,-0.14416,0.66522
735.486,33.04428,-3.18868,-0.14883,0.66465
736.186,33.06773,-3.18981,-0.14742,0.66407
736.886,33.09114,-3.18979,-0.14749,0.66349
737.586,33.11458,-3.18975,-0.15078,0.66292
738.286,33.13805,-3.19102,-0.1542,0.66234
738.986,33.16145,-3.1911,-0.15511,0.66176
739.686,33.18483,-3.1911,-0.15728,0.66118
740.386,33.20816,-3.1911,-0.15758,0.6606
741.086,33.23148,-3.1911,-0.16004,0.66002
741.786,33.25495,-3.19101,-0.16377,0.65944
742.486,33.27843,-3.19241,-0.16409,0.65886
743.186,33.30195,-3.19242,-0.1643,0.65827
743.886,33.32546,-3.19242,-0.16452,0.65769
744.586,33.3489,-3.19239,-0.16642,0.65711
745.286,33.3723,-3.19377,-0.1705,0.65652
745.986,33.39573,-3.19335,-0.17006,0.65594
746.686,33.41921,-3.19307,-0.17012,0.65535
747.386,33.44269,-3.19304,-0.16918,0.65477
748.086,33.4662,-3.1942,-0.17604,0.65418
748.786,33.48957,-3.19439,-0.17967,0.65359
749.486,33.51298,-3.19439,-0.17962,0.65301
750.186,33.5364,-3.19439,-0.18068,0.65242
750.886,33.55988,-3.19471,-0.18087,0.65183
751.586,33.58337,-3.19495,-0.18289,0.65124
752.286,33.60683,-3.19505,-0.18342,0.65065
752.986,33.6303,-3.19505,-0.18341,0.65006
753.686,33.65384,-3.19509,-0.18252,0.64947
754.386,33.67731,-3.19385,-0.18261,0.64888
755.086,33.7008,-3.19373,-0.1883,0.64829
755.786,33.72425,-3.19373,-0.18748,0.64769
756.486,33.74775,-3.19372,-0.19538,0.6471
757.186,33.77125,-3.1951,-0.19145,0.64651
757.886,33.79477,-3.19504,-0.19501,0.64591
758.586,33.81827,-3.19501,-0.19563,0.64532
759.286,33.8417,-3.19537,-0.19749,0.64472
759.986,33.86513,-3.19547,-0.19814,0.64412
760.686,33.8886,-3.19385,-0.19476,0.64353
761.386,33.9121,-3.19391,-0.19494,0.64293
762.086,33.93553,-3.19534,-0.19539,0.64233
762.786,33.95903,-3.19679,-0.19881,0.64173
763.486,33.98251,-3.1968,-0.19658,0.64113
764.186,34.00602,-3.19671,-0.20472,0.64053
764.886,34.02957,-3.19579,-0.19993,0.63993
765.586,34.0531,-3.19682,-0.20298,0.63933
766.286,34.07655,-3.1968,-0.20408,0.63873
766.986,34.10003,-3.1968,-0.20637,0.63813
767.686,34.12352,-3.198,-0.20622,0.63753
768.386,34.14703,-3.19812,-0.20287,0.63693
769.086,34.1706,-3.19812,-0.20725,0.63632
769.786,34.1941,-3.198,-0.2059,0.63572
770.486,34.21758,-3.20063,-0.20601,0.63511
771.186,34.2411,-3.20075,-0.21015,0.63451
771.886,34.2646,-3.20073,-0.20986,0.6339
772.586,34.28812,-3.19995,-0.20727,0.6333
773.286,34.3117,-3.19944,-0.21018,0.63269
773.986,34.33517,-3.19944,-0.21246,0.63208
774.686,34.35868,-3.19944,-0.2122,0.63147
775.386,34.38215,-3.19998,-0.2126,0.63087
776.086,34.4056,-3.20073,-0.21332,0.63026
776.786,34.4292,-3.20075,-0.21135,0.62965
777.486,34.4527,-3.20075,-0.21294,0.62904
778.186,34.47617,-3.20075,-0.21248,0.62843
778.886,34.49969,-3.20075,-0.21318,0.62782
779.586,34.52316,-3.20075,-0.20985,0.6272
780.286,34.5466,-3.20074,-0.21238,0.62659
780.986,34.57014,-3.20076,-0.21227,0.62598
781.686,34.59367,-3.20208,-0.21354,0.62537
782.386,34.61721,-3.20207,-0.21234,0.62475
783.086,34.6408,-3.20207,-0.2163,0.62414
783.786,34.6644,-3.20286,-0.21326,0.62352
784.486,34.68788,-3.20338,-0.21226,0.62291
785.186,34.7114,-3.20329,-0.21372,0.62229
785.886,34.73487,-3.2029,-0.21295,0.62168
786.586,34.7584,-3.20337,-0.21452,0.62106
787.286,34.78195,-3.20338,-0.21241,0.62044
787.986,34.80546,-3.20337,-0.21273,0.61982
788.686,34.82897,-3.20463,-0.21306,0.61921
789.386,34.85249,-3.20471,-0.21434,0.61859
790.086,34.8761,-3.2047,-0.21437,0.61797
790.786,34.8996,-3.2047,-0.22003,0.61735
791.486,34.92321,-3.20467,-0.21774,0.61673
792.186,34.9467,-3.20333,-0.2146,0.6161
792.886,34.97013,-3.20405,-0.21824,0.61548
793.586,34.9935,-3.20468,-0.22168,0.61486
793.686,34.99685,-3.20469,-0.22072,0.61477