File: 01_Data/R13_Fiberglass_InsulationA/MCC/R13_Fiberglass_InsulationA_MCC_30K_min_220215_R2.txt
Sample ID:	C:\MCC\MCC Cal\Test\R13_Fiberglas_InsulationA_MCC_30K_min_220215_R2.txt
Sample Weight (mg):	4.05
Heating Rate (C/s):	0.5
Combustor Temp (C):	900
N2 Flow Rate (cc/min):	80
O2 Flow Rate (cc/min):	20
Calibration File:	C:\MCC\MCC Cal\Coeff1 JN10440_30_210304.txt.txt
T Correction Coefficients:	0	1.024463	0
Time Shift (s):	14
*
Time (s)	Temperature (C)	N2 flow rate (cc/min)	O2 flow rate (cc/min)	Flow Rate (cc/min)	Oxygen (%)	HRR (W/g)	Heating rate (C/s)
0.000	116.377	80.004	19.993	103.664	20.052	-0.356	0.031
1.500	116.342	80.006	19.994	103.666	20.050	-0.178	-0.039
3.000	116.364	80.009	19.993	103.677	20.049	-0.148	0.007
4.500	116.308	80.005	19.993	103.677	20.047	0.007	-0.031
6.000	116.316	80.005	19.993	103.680	20.049	-0.128	0.011
7.500	116.363	80.006	19.993	103.684	20.050	-0.185	0.019
9.000	116.341	80.005	19.992	103.697	20.047	0.063	0.003
10.501	116.297	80.005	19.993	103.714	20.045	0.198	-0.012
12.000	116.369	80.005	19.995	103.734	20.043	0.335	0.028
13.500	116.367	80.025	19.997	103.764	20.040	0.592	0.009
15.001	116.395	80.014	19.995	103.801	20.036	0.942	0.042
16.500	116.439	80.004	19.994	103.819	20.030	1.373	0.014
18.000	116.477	80.004	19.994	103.826	20.026	1.708	0.019
19.500	116.604	80.005	19.994	103.860	20.021	2.121	0.074
21.000	116.693	80.006	19.992	103.885	20.017	2.413	0.062
22.500	116.840	80.003	19.992	103.906	20.017	2.452	0.095
24.000	117.047	79.999	19.994	103.907	20.011	2.941	0.137
25.500	117.180	80.002	19.993	103.909	20.017	2.458	0.086
27.000	117.430	80.008	19.993	103.905	20.012	2.857	0.154
28.500	117.605	79.989	19.995	103.900	20.010	2.955	0.129
30.000	117.846	80.008	19.992	103.885	20.013	2.772	0.182
31.500	118.109	80.004	19.993	103.881	20.010	3.002	0.171
33.000	118.362	80.011	19.992	103.893	20.013	2.718	0.182
34.500	118.634	80.010	19.992	103.881	20.011	2.888	0.164
36.000	118.923	80.021	19.991	103.876	20.014	2.650	0.188
37.500	119.230	80.008	19.993	103.885	20.012	2.844	0.206
39.001	119.540	80.017	19.992	103.891	20.013	2.744	0.207
40.500	119.867	80.009	19.994	103.894	20.013	2.729	0.212
42.000	120.184	80.009	19.993	103.889	20.009	3.057	0.212
43.500	120.533	80.007	19.992	103.897	20.002	3.630	0.244
45.000	120.869	80.003	19.993	103.909	20.008	3.123	0.247
46.500	121.277	80.009	19.993	103.912	20.005	3.412	0.291
48.001	121.655	80.019	19.991	103.908	20.010	3.001	0.246
49.500	122.068	80.005	19.993	103.913	20.008	3.118	0.269
51.000	122.491	80.012	19.993	103.908	20.007	3.225	0.280
52.500	122.891	80.010	19.992	103.910	20.007	3.245	0.259
54.000	123.342	80.010	19.992	103.908	20.007	3.253	0.332
55.500	123.784	80.009	19.993	103.904	20.006	3.295	0.299
57.000	124.210	80.009	19.993	103.904	20.013	2.775	0.302
58.501	124.695	80.002	19.994	103.905	20.007	3.194	0.345
60.000	125.137	80.008	19.994	103.903	20.009	3.103	0.298
61.500	125.696	80.014	19.992	103.904	20.009	3.093	0.371
63.000	126.126	80.009	19.994	103.908	20.007	3.269	0.301
64.500	126.638	80.000	19.993	103.910	20.004	3.469	0.313
66.000	127.140	80.003	19.994	103.919	20.003	3.567	0.346
67.500	127.630	80.002	19.994	103.920	20.004	3.496	0.325
69.000	128.196	80.011	19.992	103.905	20.000	3.774	0.374
70.500	128.713	80.016	19.992	103.912	20.004	3.434	0.353
72.000	129.230	80.000	19.992	103.939	20.002	3.596	0.338
73.500	129.792	79.995	19.992	103.937	20.005	3.418	0.380
75.001	130.308	80.002	19.995	103.931	20.002	3.663	0.361
76.500	130.848	79.999	19.993	103.932	19.997	3.999	0.359
78.000	131.402	80.008	19.993	103.942	20.001	3.707	0.379
79.500	131.944	79.998	19.994	103.942	20.005	3.402	0.374
81.000	132.513	80.000	19.993	103.927	19.998	3.957	0.400
82.500	133.075	80.015	19.993	103.939	20.004	3.502	0.383
84.000	133.650	80.006	19.993	103.945	19.999	3.899	0.392
85.500	134.297	80.018	19.991	103.940	20.000	3.755	0.421
87.000	134.807	80.003	19.993	103.938	19.997	4.003	0.346
88.501	135.396	80.000	19.994	103.942	19.996	4.098	0.382
90.001	136.030	80.002	19.995	103.937	20.001	3.720	0.418
91.500	136.641	80.011	19.994	103.933	20.001	3.731	0.414
93.000	137.261	80.001	19.996	103.940	19.996	4.118	0.424
94.501	137.897	80.014	19.993	103.939	19.999	3.868	0.420
96.001	138.505	80.006	19.994	103.939	20.000	3.796	0.412
97.501	139.179	80.000	19.992	103.933	19.999	3.874	0.441
99.000	139.751	80.004	19.994	103.930	20.000	3.820	0.383
100.501	140.358	80.006	19.993	103.933	19.996	4.083	0.412
102.000	140.989	80.008	19.993	103.937	19.998	3.927	0.412
103.500	141.665	80.014	19.991	103.933	20.002	3.616	0.446
105.000	142.326	80.005	19.995	103.931	20.001	3.718	0.451
106.500	142.973	80.013	19.995	103.932	20.000	3.775	0.443
108.000	143.588	79.996	19.993	103.938	20.003	3.520	0.434
109.501	144.311	80.011	19.994	103.936	19.999	3.855	0.474
111.001	144.968	80.014	19.992	103.933	19.998	3.977	0.423
112.501	145.632	80.006	19.992	103.938	20.001	3.707	0.425
114.001	146.291	80.016	19.993	103.942	19.998	3.929	0.422
115.500	147.013	80.013	19.993	103.946	19.998	3.951	0.467
117.000	147.687	79.995	19.995	103.948	19.998	3.977	0.461
118.501	148.367	80.014	19.992	103.936	19.999	3.853	0.442
120.000	149.110	79.997	19.995	103.934	20.000	3.770	0.487
121.500	149.800	79.991	19.996	103.937	20.000	3.777	0.462
123.000	150.500	80.001	19.994	103.938	19.997	4.029	0.474
124.500	151.167	80.004	19.994	103.937	20.000	3.774	0.471
126.000	151.900	80.004	19.994	103.939	19.996	4.077	0.488
127.501	152.622	80.006	19.992	103.941	20.000	3.824	0.496
129.001	153.316	80.011	19.992	103.944	19.996	4.153	0.481
130.500	154.065	79.994	19.992	103.941	19.999	3.892	0.511
132.000	154.765	80.009	19.992	103.942	19.996	4.118	0.449
133.500	155.467	79.996	19.994	103.938	19.996	4.088	0.470
135.000	156.152	79.996	19.991	103.934	19.999	3.857	0.481
136.501	156.879	80.007	19.993	103.939	19.996	4.120	0.481
138.000	157.587	79.992	19.993	103.941	19.997	4.042	0.467
139.500	158.318	79.996	19.992	103.940	20.000	3.814	0.475
141.000	159.032	80.001	19.993	103.940	20.000	3.809	0.477
142.500	159.762	80.000	19.992	103.938	19.999	3.836	0.486
144.000	160.506	80.002	19.992	103.940	19.998	3.975	0.495
145.501	161.244	80.016	19.991	103.943	19.997	4.055	0.494
147.000	161.999	80.010	19.992	103.934	20.002	3.654	0.490
148.501	162.707	80.005	19.993	103.931	19.995	4.203	0.470
150.001	163.479	80.014	19.990	103.940	19.996	4.133	0.510
151.500	164.185	80.020	19.992	103.942	19.997	4.009	0.465
153.001	164.975	80.007	19.994	103.947	19.996	4.079	0.528
154.500	165.761	80.000	19.993	103.945	19.996	4.088	0.507
156.001	166.486	80.013	19.994	103.938	20.000	3.805	0.483
157.500	167.224	80.007	19.993	103.928	19.997	4.022	0.500
159.001	167.997	79.998	19.994	103.943	19.994	4.238	0.513
160.500	168.718	79.995	19.995	103.938	19.998	3.966	0.499
162.001	169.519	80.004	19.993	103.925	20.001	3.696	0.514
163.500	170.234	80.015	19.993	103.929	19.995	4.155	0.445
165.000	170.997	80.007	19.994	103.931	20.002	3.636	0.505
166.500	171.751	80.010	19.993	103.931	20.002	3.614	0.505
168.001	172.500	79.993	19.995	103.936	20.000	3.806	0.501
169.500	173.295	80.009	19.993	103.938	20.005	3.384	0.522
171.000	174.057	80.010	19.994	103.943	19.999	3.841	0.523
172.500	174.824	80.008	19.993	103.933	20.006	3.301	0.525
174.000	175.554	80.001	19.993	103.926	20.001	3.712	0.465
175.500	176.376	80.011	19.995	103.906	19.999	3.856	0.553
177.000	177.046	79.985	19.996	103.909	19.998	3.943	0.472
178.500	177.818	79.997	19.996	103.907	20.001	3.750	0.511
180.000	178.702	80.000	19.995	103.921	19.998	3.950	0.594
181.500	179.390	80.008	19.994	103.929	20.000	3.832	0.453
183.000	180.164	79.997	19.993	103.908	20.002	3.669	0.505
184.500	180.893	80.008	19.995	103.905	20.005	3.421	0.471
186.000	181.661	79.996	19.996	103.906	20.004	3.451	0.518
187.500	182.424	80.001	19.996	103.904	20.000	3.791	0.510
189.000	183.163	80.012	19.992	103.905	20.004	3.486	0.491
190.500	183.919	80.008	19.994	103.920	20.004	3.434	0.514
192.000	184.680	80.000	19.993	103.907	20.005	3.427	0.507
193.500	185.460	80.005	19.994	103.906	20.001	3.697	0.488
195.000	186.246	79.997	19.993	103.901	20.008	3.140	0.558
196.501	187.038	80.001	19.993	103.905	20.006	3.275	0.528
198.000	187.772	80.011	19.992	103.905	20.006	3.340	0.486
199.500	188.544	80.005	19.993	103.906	20.005	3.427	0.496
201.001	189.291	79.992	19.995	103.905	20.006	3.288	0.495
202.500	190.087	80.016	19.992	103.903	20.002	3.642	0.524
204.000	190.819	80.000	19.994	103.907	20.003	3.577	0.484
205.500	191.546	80.006	19.993	103.900	20.004	3.449	0.494
207.001	192.334	80.006	19.992	103.904	20.005	3.366	0.505
208.500	193.066	79.999	19.993	103.905	20.004	3.473	0.472
210.000	193.820	80.010	19.992	103.904	20.006	3.340	0.492
211.500	194.592	80.010	19.994	103.907	20.002	3.607	0.526
213.000	195.311	79.991	19.995	103.904	20.002	3.664	0.506
214.500	196.057	80.008	19.992	103.901	20.003	3.575	0.480
216.000	196.801	80.011	19.993	103.909	20.003	3.534	0.524
217.500	197.545	80.014	19.993	103.906	20.012	2.800	0.492
219.000	198.305	80.014	19.993	103.899	20.004	3.496	0.503
220.500	199.041	79.998	19.995	103.897	20.003	3.540	0.499
222.000	199.774	80.010	19.993	103.887	20.001	3.677	0.484
223.500	200.523	80.010	19.993	103.885	20.004	3.488	0.526
225.001	201.264	80.010	19.994	103.892	20.005	3.411	0.517
226.500	201.984	80.005	19.994	103.897	20.005	3.412	0.477
228.000	202.739	79.991	19.995	103.899	20.004	3.447	0.496
229.500	203.491	80.006	19.993	103.892	19.999	3.875	0.499
231.000	204.224	80.001	19.994	103.886	20.003	3.540	0.491
232.501	204.961	80.009	19.992	103.893	20.001	3.677	0.513
234.001	205.696	80.005	19.993	103.892	19.997	4.014	0.496
235.500	206.449	79.999	19.996	103.891	20.000	3.765	0.526
237.000	207.222	80.008	19.993	103.892	20.003	3.537	0.524
238.500	207.932	80.010	19.993	103.900	20.005	3.411	0.491
240.001	208.724	80.009	19.995	103.897	20.003	3.578	0.510
241.501	209.395	80.012	19.993	103.884	20.002	3.624	0.444
243.000	210.133	80.011	19.993	103.881	20.004	3.472	0.483
244.500	210.897	80.019	20.008	103.887	20.001	3.739	0.495
246.000	211.616	80.037	19.997	103.904	20.008	3.173	0.494
247.501	212.334	80.022	20.004	103.935	20.005	3.412	0.487
249.001	213.091	80.049	20.006	103.939	20.005	3.416	0.514
250.501	213.860	80.035	20.009	103.930	20.005	3.384	0.528
252.001	214.621	80.047	20.006	103.927	20.006	3.273	0.494
253.501	215.339	80.045	20.007	103.939	20.004	3.456	0.477
255.000	216.082	80.009	20.006	103.933	20.002	3.608	0.470
256.500	216.815	80.026	20.001	103.910	20.004	3.434	0.463
258.000	217.542	80.025	20.001	103.901	20.001	3.745	0.478
259.500	218.323	80.028	20.000	103.903	20.001	3.710	0.514
261.000	219.082	80.018	19.998	103.901	20.005	3.405	0.485
262.500	219.832	80.031	19.999	103.908	20.002	3.603	0.499
264.000	220.550	80.018	20.002	103.907	20.005	3.394	0.485
265.500	221.249	80.018	20.003	103.901	20.001	3.728	0.483
267.000	222.012	80.018	20.004	103.913	20.002	3.659	0.498
268.500	222.783	80.027	20.001	103.916	20.000	3.788	0.490
270.000	223.510	80.026	20.002	103.912	19.999	3.905	0.478
271.500	224.240	80.027	20.000	103.909	19.996	4.090	0.475
273.000	224.966	80.016	20.000	103.888	19.992	4.431	0.490
274.500	225.741	79.998	20.001	103.878	19.995	4.166	0.535
276.000	226.461	80.004	19.996	103.874	19.991	4.501	0.464
277.500	227.255	79.993	19.997	103.874	19.991	4.549	0.505
279.000	227.987	80.008	19.993	103.880	19.987	4.816	0.514
280.500	228.714	80.025	19.990	103.882	19.991	4.533	0.486
282.000	229.504	80.006	19.993	103.878	19.987	4.819	0.518
283.500	230.219	80.009	19.993	103.876	19.988	4.788	0.502
285.000	230.937	80.001	19.995	103.877	19.989	4.679	0.500
286.500	231.707	80.001	19.994	103.874	19.984	5.101	0.517
288.000	232.437	80.005	19.994	103.875	19.989	4.664	0.490
289.500	233.161	80.007	19.993	103.871	19.983	5.130	0.492
291.000	233.899	80.006	19.993	103.869	19.986	4.909	0.481
292.500	234.658	80.007	19.993	103.884	19.983	5.115	0.491
294.000	235.395	80.010	19.991	103.878	19.980	5.369	0.516
295.500	236.150	80.006	19.994	103.871	19.980	5.430	0.507
297.000	236.861	80.016	19.993	103.879	19.983	5.160	0.485
298.500	237.652	80.002	19.995	103.876	19.980	5.417	0.534
300.000	238.364	80.005	19.992	103.881	19.978	5.534	0.500
301.500	239.123	80.010	19.993	103.895	19.980	5.409	0.509
303.000	239.877	80.006	19.993	103.893	19.976	5.684	0.489
304.500	240.612	80.021	19.992	103.885	19.978	5.535	0.476
306.000	241.351	80.003	19.994	103.885	19.975	5.780	0.507
307.500	242.064	80.009	19.994	103.885	19.976	5.748	0.455
309.000	242.841	80.010	19.993	103.881	19.975	5.789	0.526
310.500	243.617	80.008	19.993	103.879	19.976	5.707	0.522
312.000	244.343	80.020	19.989	103.880	19.978	5.589	0.490
313.500	245.093	80.009	19.996	103.902	19.967	6.429	0.526
315.000	245.868	80.002	19.989	103.900	19.974	5.903	0.504
316.500	246.642	80.004	19.993	103.891	19.974	5.848	0.514
318.000	247.403	80.007	19.990	103.882	19.968	6.340	0.501
319.500	248.196	80.003	19.992	103.884	19.973	5.987	0.537
321.000	248.946	80.008	19.991	103.893	19.969	6.283	0.514
322.500	249.692	80.009	19.992	103.891	19.967	6.436	0.499
324.000	250.460	80.014	19.993	103.889	19.967	6.423	0.496
325.500	251.251	80.001	19.994	103.896	19.963	6.719	0.521
327.000	251.961	80.004	19.992	103.891	19.962	6.813	0.471
328.500	252.721	80.016	19.992	103.884	19.959	7.091	0.520
330.000	253.416	80.005	19.992	103.879	19.962	6.808	0.465
331.500	254.251	80.002	19.995	103.884	19.959	7.100	0.575
333.000	255.000	80.002	19.998	103.898	19.953	7.515	0.525
334.500	255.806	80.011	19.993	103.897	19.960	6.983	0.531
336.000	256.550	80.006	19.992	103.898	19.956	7.340	0.513
337.500	257.286	80.004	19.994	103.896	19.955	7.415	0.510
339.000	258.041	79.992	19.995	103.896	19.951	7.728	0.503
340.500	258.858	80.018	19.996	103.896	19.948	7.921	0.529
342.000	259.572	80.014	19.993	103.904	19.945	8.187	0.478
343.500	260.335	80.004	19.994	103.899	19.942	8.404	0.487
345.000	261.027	79.998	19.995	103.888	19.944	8.294	0.461
346.500	261.790	80.007	19.996	103.880	19.939	8.645	0.493
348.000	262.522	80.001	19.993	103.890	19.941	8.549	0.465
349.500	263.330	80.009	19.995	103.888	19.934	9.037	0.534
351.000	264.057	80.013	19.994	103.887	19.932	9.267	0.519
352.500	264.762	80.011	19.996	103.884	19.934	9.082	0.448
354.000	265.521	79.995	19.993	103.890	19.931	9.322	0.507
355.500	266.310	80.021	19.995	103.897	19.923	9.990	0.509
357.000	267.007	80.009	19.995	103.904	19.923	9.939	0.492
358.500	267.826	80.013	19.991	103.903	19.920	10.230	0.534
360.000	268.531	80.006	19.993	103.858	19.915	10.632	0.461
361.500	269.275	80.007	19.993	103.816	19.915	10.600	0.489
363.000	270.031	80.011	19.997	103.882	19.914	10.690	0.501
364.500	270.816	80.004	19.996	103.955	19.911	10.905	0.520
366.000	271.543	80.005	19.997	103.916	19.907	11.273	0.480
367.500	272.316	80.032	19.988	103.896	19.904	11.462	0.486
369.000	273.056	80.006	19.996	103.896	19.897	12.050	0.496
370.500	273.805	80.005	19.991	103.884	19.895	12.211	0.485
372.000	274.511	80.001	19.995	103.893	19.894	12.290	0.484
373.500	275.295	80.003	19.995	103.898	19.890	12.634	0.513
375.000	276.034	80.014	19.994	103.896	19.888	12.728	0.490
376.500	276.790	80.011	19.994	103.899	19.884	13.055	0.493
378.000	277.502	80.000	19.996	103.900	19.875	13.792	0.469
379.500	278.271	80.007	19.992	103.896	19.876	13.738	0.511
381.000	279.038	80.002	19.995	103.903	19.871	14.094	0.512
382.500	279.751	80.012	19.993	103.904	19.866	14.530	0.475
384.000	280.529	80.015	19.993	103.905	19.866	14.550	0.502
385.500	281.277	80.012	19.991	103.905	19.859	15.083	0.504
387.000	281.994	80.011	19.995	103.912	19.855	15.377	0.475
388.500	282.727	80.011	19.993	103.913	19.852	15.603	0.467
390.000	283.503	80.002	19.992	103.907	19.846	16.137	0.511
391.500	284.272	80.006	19.994	103.919	19.843	16.334	0.516
393.000	285.004	80.009	19.995	103.924	19.837	16.876	0.485
394.500	285.726	80.006	19.992	103.931	19.833	17.186	0.483
396.000	286.506	80.007	19.993	103.924	19.829	17.473	0.521
397.500	287.264	80.009	19.994	103.928	19.828	17.594	0.516
399.000	287.987	80.009	19.994	103.917	19.823	17.993	0.482
400.500	288.761	80.008	19.994	103.928	19.818	18.385	0.514
402.000	289.476	80.006	19.993	103.940	19.810	19.004	0.501
403.500	290.198	80.006	19.993	103.939	19.804	19.459	0.495
405.000	290.979	80.006	19.993	103.938	19.800	19.777	0.525
406.500	291.737	80.008	19.991	103.927	19.794	20.308	0.503
408.000	292.465	80.006	19.993	103.933	19.787	20.869	0.489
409.500	293.257	80.004	19.994	103.944	19.780	21.431	0.516
411.000	293.999	80.007	19.994	103.944	19.775	21.829	0.497
412.500	294.760	80.004	19.994	103.945	19.776	21.728	0.496
414.000	295.484	80.003	19.993	103.945	19.766	22.531	0.511
415.500	296.240	80.007	19.993	103.946	19.760	23.001	0.490
417.000	296.992	80.007	19.993	103.947	19.757	23.273	0.486
418.500	297.752	80.004	19.994	103.946	19.748	24.003	0.511
420.000	298.503	80.004	19.993	103.944	19.742	24.441	0.482
421.500	299.258	80.004	19.993	103.942	19.739	24.658	0.491
423.001	300.015	80.009	19.991	103.945	19.732	25.252	0.480
424.500	300.739	80.009	19.994	103.953	19.726	25.713	0.467
426.000	301.504	80.007	19.990	103.948	19.716	26.523	0.480
427.500	302.223	80.002	19.995	103.947	19.713	26.817	0.483
429.000	303.004	80.005	19.994	103.947	19.705	27.425	0.525
430.500	303.755	80.006	19.994	103.960	19.699	27.912	0.490
432.000	304.478	80.005	19.993	103.955	19.691	28.588	0.493
433.500	305.207	80.006	19.996	103.948	19.687	28.870	0.486
435.000	306.026	80.007	19.994	103.964	19.680	29.390	0.508
436.500	306.766	80.004	19.994	103.970	19.670	30.226	0.498
438.001	307.537	80.007	19.992	103.970	19.664	30.716	0.542
439.500	308.310	80.008	19.994	103.974	19.659	31.134	0.520
441.000	309.014	80.008	19.992	103.980	19.649	31.905	0.474
442.500	309.813	80.009	19.995	103.981	19.644	32.286	0.512
444.000	310.545	80.009	19.992	103.981	19.636	32.961	0.487
445.500	311.318	80.009	19.993	103.979	19.626	33.772	0.506
447.000	312.103	80.008	19.994	103.979	19.621	34.183	0.520
448.500	312.877	80.003	19.995	103.977	19.610	35.033	0.530
450.000	313.645	80.004	19.994	103.978	19.601	35.742	0.507
451.500	314.384	80.023	19.991	103.984	19.596	36.186	0.503
453.000	315.146	80.011	19.994	104.006	19.589	36.727	0.511
454.500	315.871	80.004	19.993	103.994	19.573	38.012	0.512
456.000	316.662	80.007	19.997	103.995	19.568	38.408	0.486
457.500	317.472	80.016	19.991	104.000	19.558	39.242	0.507
459.000	318.153	79.999	19.997	104.009	19.545	40.229	0.455
460.500	318.952	80.003	19.995	104.005	19.541	40.614	0.534
462.000	319.672	80.005	19.995	103.970	19.527	41.721	0.467
463.500	320.407	80.006	19.995	103.954	19.520	42.242	0.486
465.000	321.170	80.007	19.994	104.053	19.508	43.217	0.523
466.500	321.944	80.008	19.993	104.067	19.504	43.577	0.524
468.000	322.698	80.006	19.993	104.020	19.493	44.408	0.485
469.500	323.478	80.008	19.993	104.019	19.483	45.231	0.505
471.000	324.209	80.008	19.993	104.019	19.473	46.048	0.498
472.500	324.966	80.008	19.992	104.019	19.464	46.727	0.502
474.000	325.723	80.006	19.993	104.022	19.455	47.446	0.493
475.500	326.402	80.006	19.992	104.022	19.444	48.348	0.470
477.000	327.164	80.007	19.993	104.030	19.436	49.049	0.500
478.500	327.967	80.003	19.994	104.041	19.426	49.807	0.510
480.000	328.699	80.006	19.994	104.042	19.416	50.589	0.493
481.500	329.507	80.003	19.992	104.035	19.405	51.529	0.504
483.000	330.262	80.008	19.991	104.041	19.398	52.064	0.502
484.500	330.962	80.007	19.993	104.049	19.390	52.669	0.465
486.000	331.692	80.006	19.992	104.048	19.378	53.630	0.480
487.500	332.515	80.010	19.991	104.055	19.370	54.313	0.521
489.000	333.235	80.006	19.991	104.057	19.361	55.052	0.502
490.500	333.994	80.008	19.989	104.059	19.350	55.895	0.511
492.000	334.810	80.005	19.994	104.062	19.340	56.660	0.529
493.500	335.557	79.999	19.991	104.060	19.329	57.566	0.479
495.000	336.270	80.005	19.997	104.058	19.322	58.172	0.483
496.500	337.033	80.009	19.994	104.058	19.308	59.319	0.518
498.000	337.769	80.007	19.998	104.062	19.299	59.977	0.478
499.500	338.556	80.005	19.995	104.069	19.288	60.843	0.529
501.000	339.300	80.005	19.993	104.068	19.278	61.648	0.517
502.500	340.084	80.008	19.993	104.026	19.271	62.230	0.514
504.000	340.839	80.006	19.988	104.011	19.267	62.592	0.504
505.500	341.606	80.005	19.989	104.080	19.257	63.398	0.525
507.000	342.366	80.005	19.994	104.135	19.249	63.982	0.526
508.500	343.098	80.004	19.994	104.092	19.243	64.464	0.487
510.000	343.801	80.003	19.992	104.071	19.239	64.827	0.475
511.500	344.586	80.007	19.994	104.076	19.228	65.650	0.512
513.000	345.353	80.007	20.000	104.071	19.223	66.080	0.519
514.500	346.087	80.007	19.993	104.060	19.218	66.454	0.505
516.000	346.833	80.004	19.996	104.061	19.217	66.538	0.499
517.500	347.647	80.010	19.992	104.061	19.209	67.149	0.540
519.000	348.368	80.008	19.990	104.067	19.210	67.125	0.493
520.500	349.139	80.002	19.996	104.068	19.210	67.072	0.522
522.000	349.879	80.014	19.988	104.062	19.204	67.562	0.499
523.500	350.634	80.005	19.995	104.060	19.208	67.261	0.497
525.000	351.381	80.008	19.997	104.043	19.211	67.033	0.514
526.500	352.148	80.005	19.992	104.036	19.211	67.012	0.500
528.000	352.951	80.004	19.996	104.025	19.220	66.291	0.537
529.500	353.679	80.008	19.993	104.018	19.227	65.710	0.509
531.000	354.455	80.001	19.996	104.011	19.236	64.968	0.531
532.500	355.205	80.003	19.994	103.993	19.247	64.082	0.513
534.000	355.979	80.002	19.994	103.980	19.259	63.112	0.517
535.500	356.752	80.005	19.988	103.984	19.273	62.000	0.509
537.000	357.487	80.006	19.993	103.976	19.284	61.065	0.512
538.500	358.252	80.004	19.994	103.951	19.302	59.633	0.510
540.000	358.964	80.003	19.994	103.945	19.316	58.528	0.493
541.500	359.727	80.004	19.994	103.940	19.335	56.963	0.515
543.000	360.503	80.003	19.994	103.922	19.360	55.017	0.494
544.500	361.255	80.000	19.994	103.902	19.381	53.346	0.502
546.000	362.050	80.006	19.990	103.899	19.409	51.055	0.557
547.500	362.804	80.009	19.992	103.887	19.431	49.335	0.526
549.000	363.545	80.006	19.994	103.878	19.450	47.782	0.504
550.500	364.294	80.010	19.995	103.865	19.474	45.862	0.508
552.000	365.033	80.001	19.995	103.858	19.497	44.014	0.513
553.500	365.820	80.008	19.991	103.857	19.524	41.889	0.513
555.000	366.555	80.008	19.992	103.860	19.544	40.286	0.504
556.500	367.358	80.011	19.991	103.845	19.567	38.397	0.552
558.000	368.091	80.012	19.993	103.831	19.585	37.008	0.488
559.500	368.840	80.003	19.994	103.831	19.605	35.360	0.501
561.000	369.677	80.005	19.987	103.833	19.627	33.585	0.536
562.500	370.407	80.007	19.996	103.825	19.644	32.267	0.501
564.000	371.166	80.009	19.990	103.820	19.662	30.843	0.511
565.500	371.901	80.003	19.996	103.825	19.677	29.634	0.488
567.000	372.707	80.002	19.994	103.823	19.691	28.513	0.533
568.500	373.441	80.007	19.995	103.820	19.701	27.717	0.482
570.000	374.243	80.004	19.990	103.820	19.711	26.935	0.558
571.500	374.974	79.999	19.997	103.823	19.719	26.247	0.468
573.000	375.793	80.008	19.994	103.821	19.724	25.863	0.558
574.500	376.523	80.008	19.991	103.826	19.730	25.394	0.482
576.000	377.239	79.999	20.001	103.827	19.737	24.843	0.507
577.500	378.044	80.009	19.990	103.822	19.740	24.597	0.543
579.000	378.774	80.009	19.994	103.822	19.741	24.495	0.482
580.500	379.564	80.010	19.992	103.821	19.745	24.174	0.512
582.000	380.330	80.010	19.990	103.826	19.745	24.171	0.530
583.500	381.054	80.009	19.991	103.826	19.748	23.975	0.490
585.000	381.848	80.007	19.994	103.817	19.745	24.203	0.516
586.500	382.588	80.001	19.999	103.818	19.747	24.018	0.505
588.000	383.337	80.008	19.994	103.822	19.746	24.078	0.479
589.500	384.113	79.998	20.001	103.826	19.743	24.357	0.513
591.000	384.884	80.002	19.992	103.818	19.746	24.081	0.525
592.500	385.637	80.006	19.993	103.818	19.743	24.340	0.523
594.000	386.418	80.010	19.991	103.826	19.741	24.507	0.510
595.500	387.191	80.004	19.993	103.829	19.743	24.353	0.502
597.000	387.947	80.008	19.993	103.828	19.739	24.690	0.525
598.500	388.692	80.007	19.992	103.826	19.736	24.892	0.496
600.000	389.443	80.007	19.994	103.824	19.737	24.835	0.518
601.500	390.200	80.003	19.994	103.824	19.730	25.421	0.492
603.000	390.974	80.004	19.995	103.818	19.732	25.245	0.520
604.500	391.746	80.009	19.993	103.827	19.727	25.588	0.504
606.000	392.539	80.008	19.989	103.827	19.725	25.758	0.535
607.500	393.300	80.012	19.990	103.830	19.723	25.930	0.507
609.000	394.132	80.002	19.999	103.828	19.719	26.283	0.561
610.500	394.846	80.006	19.992	103.823	19.719	26.246	0.487
612.000	395.605	80.008	19.993	103.820	19.714	26.625	0.502
613.500	396.377	80.006	19.993	103.820	19.710	27.010	0.484
615.000	397.137	80.006	19.996	103.820	19.711	26.935	0.494
616.500	397.898	80.008	19.993	103.812	19.704	27.464	0.499
618.000	398.685	80.007	19.994	103.817	19.700	27.806	0.534
619.500	399.403	80.006	19.995	103.824	19.696	28.138	0.498
621.000	400.163	80.007	19.991	103.826	19.696	28.087	0.512
622.500	400.902	80.008	19.995	103.819	19.691	28.514	0.486
624.000	401.664	80.005	19.995	103.818	19.689	28.699	0.493
625.500	402.405	80.005	19.993	103.824	19.685	28.976	0.515
627.000	403.184	80.007	19.996	103.813	19.681	29.329	0.518
628.500	403.940	80.007	19.994	103.807	19.680	29.392	0.499
630.000	404.671	80.009	19.992	103.818	19.675	29.737	0.486
631.500	405.423	80.009	19.998	103.815	19.671	30.102	0.486
633.000	406.167	80.008	19.992	103.822	19.663	30.719	0.479
634.500	406.937	80.010	19.993	103.821	19.663	30.762	0.508
636.000	407.692	80.009	19.993	103.815	19.658	31.112	0.512
637.500	408.436	80.010	19.992	103.813	19.653	31.545	0.511
639.000	409.221	80.008	19.992	103.804	19.654	31.429	0.506
640.500	409.977	80.007	19.992	103.799	19.648	31.957	0.491
642.000	410.748	80.003	19.994	103.803	19.642	32.419	0.516
643.500	411.508	80.002	19.996	103.803	19.639	32.669	0.498
645.000	412.253	80.004	19.992	103.795	19.637	32.806	0.488
646.500	412.998	80.004	19.997	103.795	19.630	33.405	0.507
648.000	413.750	80.004	19.992	103.801	19.624	33.881	0.477
649.500	414.460	80.004	19.993	103.815	19.621	34.092	0.491
651.000	415.228	80.008	19.989	103.803	19.615	34.541	0.521
652.500	415.987	80.007	19.990	103.798	19.611	34.871	0.509
654.000	416.739	80.005	19.996	103.807	19.610	34.953	0.500
655.500	417.475	80.002	19.998	103.800	19.604	35.430	0.496
657.000	418.241	80.003	19.992	103.796	19.598	35.944	0.516
658.500	419.029	80.007	19.994	103.787	19.593	36.318	0.530
660.000	419.766	80.002	19.993	103.789	19.588	36.694	0.515
661.500	420.500	80.003	19.994	103.794	19.584	37.059	0.489
663.000	421.242	80.010	19.993	103.793	19.580	37.384	0.497
664.500	422.012	80.008	19.992	103.788	19.573	37.894	0.511
666.000	422.759	80.003	19.991	103.791	19.570	38.159	0.495
667.500	423.541	80.009	19.995	103.794	19.570	38.204	0.519
669.000	424.294	80.004	19.993	103.791	19.564	38.635	0.487
670.500	424.994	80.004	19.992	103.790	19.556	39.256	0.459
672.000	425.756	80.014	19.989	103.793	19.552	39.590	0.497
673.501	426.477	80.000	19.996	103.793	19.545	40.157	0.508
675.000	427.274	80.007	19.993	103.788	19.544	40.214	0.524
676.500	428.030	80.005	19.993	103.789	19.540	40.602	0.529
678.000	428.782	80.006	19.993	103.789	19.533	41.109	0.509
679.500	429.520	80.009	19.993	103.788	19.530	41.394	0.489
681.000	430.277	80.009	19.992	103.787	19.528	41.537	0.503
682.500	431.024	80.007	19.993	103.785	19.525	41.799	0.503
684.000	431.778	80.006	19.993	103.785	19.515	42.541	0.500
685.500	432.542	80.008	19.992	103.786	19.511	42.886	0.515
687.000	433.332	80.011	19.990	103.786	19.508	43.098	0.524
688.500	434.063	80.008	19.993	103.786	19.504	43.439	0.507
690.000	434.811	80.007	19.993	103.785	19.500	43.762	0.501
691.500	435.586	80.006	19.994	103.784	19.496	44.067	0.517
693.000	436.342	80.005	19.995	103.783	19.493	44.355	0.502
694.500	437.096	80.005	19.993	103.782	19.487	44.804	0.496
696.000	437.899	80.009	19.992	103.786	19.480	45.349	0.545
697.500	438.654	80.003	19.995	103.788	19.477	45.611	0.499
699.000	439.358	80.010	19.991	103.785	19.476	45.657	0.477
700.500	440.129	80.002	20.006	103.785	19.472	46.007	0.495
702.000	440.887	80.010	19.991	103.784	19.465	46.564	0.511
703.500	441.648	80.011	19.987	103.786	19.461	46.872	0.514
705.000	442.391	80.009	19.995	103.784	19.454	47.406	0.505
706.500	443.179	80.006	19.994	103.781	19.450	47.761	0.529
708.000	443.923	80.009	19.991	103.781	19.449	47.853	0.489
709.500	444.683	80.008	19.994	103.785	19.446	48.098	0.506
711.000	445.416	80.008	19.991	103.784	19.446	48.119	0.499
712.501	446.153	80.004	19.992	103.779	19.440	48.556	0.498
714.000	446.924	80.007	19.993	103.782	19.440	48.598	0.529
715.500	447.704	80.009	19.993	103.780	19.434	49.002	0.534
717.000	448.453	80.006	19.993	103.781	19.432	49.180	0.517
718.500	449.189	80.011	19.992	103.782	19.429	49.406	0.496
720.000	449.937	80.008	19.993	103.783	19.431	49.258	0.498
721.500	450.715	80.009	19.993	103.782	19.427	49.573	0.518
723.000	451.468	80.005	19.994	103.781	19.426	49.654	0.493
724.500	452.235	80.007	19.992	103.781	19.427	49.602	0.502
726.000	452.973	80.006	19.996	103.784	19.425	49.770	0.522
727.500	453.750	80.007	19.992	103.781	19.425	49.789	0.528
729.000	454.520	80.005	19.994	103.787	19.423	49.902	0.504
730.500	455.298	80.007	19.993	103.784	19.432	49.238	0.509
732.000	456.043	80.004	19.992	103.773	19.428	49.500	0.493
733.500	456.798	80.005	19.994	103.778	19.431	49.248	0.510
735.000	457.570	80.005	19.993	103.783	19.434	49.077	0.516
736.500	458.315	80.005	19.993	103.780	19.438	48.727	0.498
738.000	459.119	80.005	19.992	103.783	19.442	48.415	0.515
739.500	459.905	80.006	19.994	103.782	19.446	48.059	0.518
741.000	460.678	80.007	19.994	103.785	19.449	47.818	0.528
742.500	461.462	80.007	19.994	103.778	19.455	47.389	0.534
744.000	462.214	80.007	19.993	103.782	19.459	47.009	0.505
745.500	463.022	80.005	19.994	103.781	19.464	46.650	0.524
747.000	463.797	80.007	19.993	103.779	19.468	46.282	0.507
748.500	464.555	80.008	19.990	103.773	19.477	45.589	0.515
750.000	465.320	80.005	19.994	103.756	19.486	44.908	0.506
751.500	466.108	80.004	19.993	103.761	19.491	44.464	0.518
753.000	466.883	80.004	19.996	103.766	19.501	43.645	0.523
754.500	467.641	80.006	19.994	103.783	19.508	43.103	0.487
756.000	468.416	80.007	19.994	103.782	19.517	42.371	0.498
757.500	469.213	80.005	19.995	103.775	19.522	42.003	0.536
759.000	469.986	80.004	19.993	103.780	19.535	40.949	0.508
760.500	470.720	80.007	19.992	103.779	19.547	40.007	0.507
762.000	471.516	80.006	19.994	103.771	19.556	39.307	0.520
763.500	472.267	80.007	19.992	103.777	19.566	38.494	0.502
765.000	473.043	80.006	19.993	103.774	19.577	37.568	0.522
766.500	473.853	80.007	19.993	103.772	19.593	36.332	0.522
768.000	474.659	80.007	19.992	103.784	19.602	35.597	0.519
769.501	475.404	80.007	19.993	103.766	19.613	34.749	0.495
771.000	476.145	80.006	19.992	103.767	19.625	33.772	0.495
772.500	476.974	80.006	19.994	103.785	19.642	32.390	0.549
774.000	477.719	80.008	19.992	103.784	19.653	31.551	0.510
775.500	478.510	80.005	19.992	103.783	19.663	30.697	0.530
777.000	479.252	80.007	19.997	103.783	19.679	29.472	0.495
778.500	480.007	80.004	19.997	103.779	19.689	28.621	0.495
780.000	480.795	80.006	19.994	103.780	19.699	27.834	0.515
781.500	481.585	80.006	19.994	103.779	19.713	26.728	0.513
783.000	482.315	80.006	19.992	103.787	19.726	25.728	0.502
784.500	483.118	80.009	19.992	103.786	19.736	24.930	0.521
786.000	483.906	80.007	19.992	103.787	19.746	24.096	0.532
787.500	484.651	80.008	19.993	103.787	19.757	23.217	0.489
789.000	485.440	80.008	19.993	103.785	19.769	22.218	0.534
790.500	486.206	80.006	19.993	103.786	19.778	21.520	0.519
792.000	486.961	80.009	19.992	103.786	19.789	20.650	0.519
793.500	487.751	80.009	19.992	103.788	19.796	20.112	0.507
795.000	488.507	80.007	19.992	103.785	19.804	19.465	0.514
796.500	489.264	80.009	19.991	103.786	19.814	18.651	0.512
798.000	490.049	80.006	19.995	103.786	19.824	17.882	0.512
799.500	490.834	80.009	19.991	103.786	19.831	17.321	0.533
801.000	491.611	80.006	19.993	103.787	19.839	16.661	0.522
802.500	492.353	80.008	19.993	103.786	19.847	15.998	0.493
804.000	493.146	80.008	19.994	103.789	19.856	15.330	0.535
805.500	493.923	80.006	19.994	103.789	19.863	14.717	0.511
807.000	494.725	80.005	19.995	103.795	19.872	14.017	0.522
808.500	495.446	80.005	19.994	103.793	19.878	13.563	0.490
810.000	496.239	80.006	19.994	103.786	19.885	12.972	0.508
811.500	497.008	80.007	19.996	103.790	19.891	12.470	0.514
813.000	497.784	80.006	19.995	103.793	19.893	12.333	0.523
814.500	498.531	80.007	19.993	103.791	19.904	11.427	0.511
816.000	499.303	80.007	19.993	103.791	19.907	11.209	0.510
817.500	500.051	80.006	19.995	103.786	19.912	10.802	0.496
819.000	500.829	80.007	19.993	103.785	19.918	10.363	0.517
820.500	501.585	80.006	19.994	103.792	19.921	10.126	0.519
822.000	502.355	80.006	19.993	103.794	19.925	9.751	0.505
823.500	503.140	80.006	19.994	103.792	19.930	9.353	0.492
825.000	503.885	80.005	19.993	103.791	19.933	9.176	0.486
826.500	504.640	80.008	19.994	103.790	19.937	8.803	0.476
828.000	505.417	80.008	19.992	103.785	19.942	8.442	0.500
829.500	506.195	80.006	19.995	103.785	19.943	8.331	0.526
831.000	506.953	80.006	19.994	103.786	19.948	7.917	0.516
832.500	507.707	80.006	19.993	103.789	19.953	7.556	0.505
834.000	508.471	80.005	19.994	103.789	19.957	7.264	0.502
835.500	509.226	80.007	19.995	103.785	19.956	7.323	0.494
837.000	509.962	80.005	19.995	103.787	19.961	6.932	0.491
838.500	510.774	80.006	19.994	103.792	19.961	6.888	0.551
840.000	511.533	80.007	19.994	103.790	19.966	6.529	0.492
841.500	512.310	80.009	19.989	103.795	19.967	6.447	0.517
843.000	513.031	80.008	19.992	103.795	19.967	6.401	0.506
844.500	513.807	80.004	19.995	103.795	19.971	6.092	0.494
846.000	514.590	80.006	19.995	103.795	19.972	6.014	0.535
847.500	515.375	80.007	19.994	103.790	19.972	6.040	0.530
849.000	516.136	80.005	19.994	103.787	19.973	5.923	0.498
850.500	516.915	80.006	19.995	103.790	19.977	5.636	0.516
852.000	517.669	80.007	19.992	103.789	19.979	5.456	0.502
853.500	518.452	80.008	19.992	103.788	19.982	5.228	0.528
855.000	519.239	80.007	19.993	103.789	19.981	5.269	0.493
856.500	519.998	80.007	19.993	103.787	19.985	5.025	0.504
858.000	520.783	80.008	19.993	103.787	19.983	5.117	0.523
859.500	521.579	80.006	19.994	103.788	19.986	4.914	0.507
861.000	522.318	80.009	19.992	103.789	19.985	4.973	0.477
862.500	523.095	80.006	19.993	103.797	19.989	4.686	0.520
864.000	523.869	80.006	19.992	103.796	19.990	4.586	0.517
865.500	524.664	80.004	19.995	103.791	19.990	4.573	0.530
867.000	525.467	80.006	19.993	103.792	19.991	4.538	0.541
868.500	526.214	80.005	19.993	103.790	19.990	4.551	0.503
870.000	526.986	80.005	19.992	103.788	19.992	4.395	0.491
871.500	527.719	80.007	19.993	103.788	19.994	4.262	0.490
873.000	528.475	80.007	19.994	103.789	19.995	4.206	0.499
874.500	529.261	80.007	19.994	103.785	19.996	4.093	0.520
876.000	530.007	80.007	19.993	103.782	19.996	4.143	0.502
877.500	530.782	80.008	19.994	103.784	19.995	4.175	0.511
879.000	531.559	80.009	19.992	103.783	19.995	4.173	0.520
880.500	532.332	80.009	19.994	103.781	19.998	3.962	0.523
882.000	533.095	80.010	19.992	103.781	19.996	4.075	0.514
883.500	533.864	80.008	19.994	103.782	19.998	3.943	0.518
885.000	534.636	80.009	19.992	103.782	19.998	3.975	0.506
886.500	535.406	80.009	19.992	103.782	19.997	3.993	0.521
888.000	536.165	80.008	19.993	103.779	19.997	4.036	0.507
889.500	536.903	80.006	19.994	103.782	19.997	4.010	0.495
891.000	537.706	80.007	19.993	103.784	19.997	4.034	0.528
892.500	538.404	80.007	19.993	103.785	20.000	3.799	0.448
894.000	539.177	80.007	19.992	103.785	20.000	3.778	0.517
895.500	539.950	80.006	19.993	103.787	20.004	3.465	0.516
897.000	540.664	80.006	19.993	103.788	20.005	3.384	0.485
898.500	541.475	80.007	19.994	103.785	20.002	3.667	0.535
900.000	542.250	80.006	19.994	103.787	20.000	3.775	0.516
901.500	542.994	80.006	19.993	103.789	20.002	3.599	0.477
903.000	543.722	80.005	19.994	103.784	20.001	3.675	0.494
904.500	544.479	80.007	19.993	103.785	20.002	3.632	0.495
906.000	545.247	80.007	19.993	103.790	20.002	3.654	0.518
907.500	546.026	80.006	19.995	103.786	20.001	3.723	0.515
909.000	546.825	80.007	19.994	103.785	20.003	3.526	0.532
910.500	547.561	80.008	19.993	103.786	20.001	3.736	0.497
912.000	548.342	80.006	19.994	103.788	20.005	3.380	0.509
913.500	549.087	80.007	19.995	103.789	20.004	3.456	0.524
915.000	549.894	80.007	19.993	103.788	20.005	3.415	0.529
916.500	550.632	80.006	19.994	103.787	20.003	3.515	0.503
918.000	551.416	80.006	19.993	103.786	20.001	3.699	0.518
919.500	552.157	80.006	19.994	103.788	20.004	3.450	0.497
921.000	552.901	80.007	19.994	103.792	20.001	3.743	0.489
922.501	553.690	80.006	19.993	103.789	20.003	3.576	0.535
924.000	554.497	80.006	19.994	103.792	20.001	3.730	0.524
925.500	555.294	80.006	19.994	103.792	20.004	3.462	0.526
927.000	556.049	80.006	19.994	103.787	20.002	3.625	0.504
928.500	556.838	80.006	19.993	103.788	20.004	3.480	0.519
930.000	557.552	80.006	19.992	103.792	20.007	3.230	0.479
931.500	558.337	80.007	19.995	103.797	20.007	3.191	0.519
933.000	559.115	80.006	19.996	103.794	20.006	3.317	0.515
934.500	559.877	80.006	19.995	103.787	20.005	3.362	0.513
936.000	560.637	80.008	19.994	103.786	20.009	3.082	0.517
937.500	561.396	80.007	19.994	103.787	20.008	3.145	0.525
939.000	562.162	80.007	19.993	103.785	20.010	3.023	0.497
940.500	562.940	80.008	19.994	103.786	20.011	2.871	0.523
942.000	563.708	80.006	19.993	103.786	20.010	2.958	0.514
943.500	564.455	80.007	19.992	103.784	20.010	2.960	0.508
945.000	565.234	80.007	19.992	103.783	20.011	2.930	0.512
946.500	565.971	80.006	19.992	103.782	20.009	3.036	0.510
948.000	566.695	80.008	19.993	103.788	20.008	3.141	0.500
949.500	567.493	80.007	19.993	103.791	20.011	2.928	0.524
951.000	568.257	80.009	19.993	103.785	20.013	2.741	0.536
952.500	569.019	80.007	19.992	103.785	20.011	2.880	0.517
954.000	569.762	80.008	19.992	103.783	20.012	2.801	0.484
955.500	570.537	80.009	19.993	103.782	20.013	2.723	0.535
957.000	571.323	80.008	19.992	103.782	20.012	2.830	0.504
958.500	572.093	80.009	19.992	103.783	20.013	2.741	0.513
960.000	572.857	80.008	19.993	103.782	20.014	2.674	0.483
961.500	573.618	80.009	19.992	103.784	20.010	3.017	0.523
963.000	574.427	80.010	19.993	103.780	20.012	2.839	0.543
964.500	575.249	80.008	19.992	103.774	20.011	2.906	0.536
966.000	576.004	80.010	19.993	103.782	20.014	2.693	0.498
967.500	576.756	80.008	19.993	103.782	20.014	2.639	0.486
969.000	577.566	80.007	19.994	103.783	20.014	2.695	0.535
970.500	578.317	80.007	19.993	103.786	20.016	2.530	0.520
972.000	579.063	80.004	19.993	103.792	20.016	2.532	0.490
973.500	579.836	80.006	19.993	103.788	20.015	2.628	0.525
975.000	580.621	80.006	19.994	103.787	20.015	2.582	0.512
976.500	581.357	80.006	19.993	103.787	20.016	2.478	0.502
978.000	582.188	80.007	19.994	103.788	20.016	2.528	0.543
979.500	582.948	80.008	19.994	103.787	20.015	2.565	0.520
981.000	583.703	80.006	19.993	103.787	20.015	2.584	0.509
982.500	584.487	80.006	19.994	103.787	20.017	2.450	0.528
984.000	585.274	80.005	19.994	103.786	20.011	2.924	0.516
985.500	586.036	80.007	19.992	103.785	20.014	2.645	0.503
987.000	586.809	80.005	19.992	103.788	20.014	2.639	0.503
988.500	587.539	80.005	19.993	103.789	20.016	2.526	0.494
990.000	588.339	80.005	19.993	103.788	20.015	2.608	0.528
991.500	589.069	80.005	19.994	103.790	20.015	2.617	0.471
993.000	589.863	80.005	19.993	103.790	20.013	2.769	0.521
994.500	590.676	80.005	19.994	103.796	20.011	2.947	0.542
996.000	591.434	80.006	19.994	103.794	20.012	2.834	0.513
997.500	592.143	80.006	19.994	103.789	20.012	2.854	0.477
999.000	592.954	80.006	19.993	103.792	20.013	2.723	0.558
1000.500	593.765	80.005	19.993	103.788	20.011	2.945	0.563
1002.000	594.535	80.006	19.993	103.787	20.012	2.854	0.509
1003.500	595.307	80.005	19.994	103.786	20.016	2.508	0.515
1005.000	596.090	80.006	19.993	103.785	20.018	2.347	0.530
1006.500	596.806	80.005	19.993	103.783	20.018	2.345	0.471
1008.000	597.585	80.007	19.994	103.784	20.015	2.597	0.522
1009.500	598.353	80.005	19.994	103.784	20.017	2.449	0.501
1011.000	599.092	80.006	19.994	103.784	20.014	2.697	0.502
1012.501	599.851	80.008	19.993	103.779	20.017	2.395	0.510
1014.000	600.598	80.007	19.994	103.781	20.016	2.484	0.544
1015.500	601.422	80.008	19.994	103.784	20.013	2.769	0.538
1017.000	602.177	80.008	19.994	103.781	20.016	2.497	0.517
1018.500	602.960	80.008	19.993	103.780	20.014	2.636	0.521
1020.000	603.712	80.007	19.994	103.781	20.016	2.519	0.507
1021.500	604.531	80.007	19.994	103.783	20.015	2.587	0.536
1023.000	605.256	80.007	19.994	103.782	20.015	2.578	0.498
1024.501	606.015	80.008	19.994	103.781	20.019	2.269	0.500
1026.000	606.783	80.007	19.993	103.783	20.021	2.102	0.519
1027.501	607.499	80.006	19.994	103.783	20.016	2.526	0.471
1029.001	608.319	80.006	19.993	103.783	20.020	2.158	0.530
1030.501	609.035	80.006	19.994	103.784	20.017	2.413	0.486
1032.001	609.859	80.007	19.994	103.786	20.014	2.630	0.552
1033.500	610.597	80.006	19.994	103.785	20.016	2.526	0.506
1035.000	611.381	80.007	19.995	103.780	20.017	2.408	0.539
1036.500	612.190	80.008	19.993	103.783	20.017	2.449	0.539
1038.000	612.944	80.009	19.994	103.784	20.017	2.430	0.503
1039.500	613.749	80.006	19.992	103.784	20.016	2.502	0.537
1041.000	614.520	80.007	19.992	103.786	20.018	2.367	0.526
1042.500	615.323	80.011	19.993	103.785	20.020	2.215	0.527
1044.001	616.050	80.008	19.993	103.785	20.019	2.247	0.467
1045.500	616.844	80.009	19.992	103.786	20.018	2.310	0.518
1047.000	617.637	80.009	19.993	103.785	20.014	2.689	0.522
1048.501	618.388	80.008	19.992	103.784	20.017	2.419	0.517
1050.000	619.145	80.007	19.992	103.785	20.017	2.426	0.492
1051.500	619.908	80.006	19.995	103.786	20.018	2.350	0.511
1053.000	620.687	80.007	19.993	103.786	20.017	2.421	0.484
1054.501	621.441	80.006	19.993	103.788	20.018	2.313	0.515
1056.001	622.222	80.005	19.993	103.782	20.019	2.258	0.492
1057.500	623.017	80.006	19.993	103.780	20.019	2.278	0.511
1059.000	623.739	80.005	19.994	103.786	20.017	2.443	0.482
1060.501	624.519	80.005	19.993	103.786	20.021	2.115	0.492
1062.001	625.292	80.006	19.994	103.789	20.010	3.017	0.514
1063.500	626.043	80.006	19.992	103.790	20.018	2.380	0.514
1065.000	626.805	80.007	19.993	103.787	20.022	2.013	0.520
1066.500	627.586	80.007	19.993	103.787	20.018	2.339	0.472
1068.000	628.336	80.006	19.993	103.785	20.022	2.013	0.495
1069.500	629.091	80.006	19.993	103.785	20.022	2.002	0.507
1071.000	629.848	80.007	19.994	103.782	20.021	2.137	0.551
1072.500	630.756	80.008	19.994	103.783	20.019	2.234	0.586
1074.000	631.411	80.007	19.993	103.786	20.025	1.776	0.497
1075.500	632.380	80.006	19.995	103.785	20.023	1.924	0.827
1077.000	632.598	80.005	19.994	103.781	20.024	1.874	0.275
1078.500	633.791	80.007	19.994	103.778	20.023	1.917	0.695
1080.000	634.468	80.005	19.993	103.783	20.021	2.097	0.502
1081.500	635.319	80.006	19.994	103.784	20.025	1.776	0.630
1083.000	636.050	80.006	19.994	103.784	20.023	1.919	0.498
1084.501	636.778	80.007	19.993	103.784	20.021	2.071	0.521
1086.000	637.507	80.006	19.993	103.783	20.022	2.015	0.514
1087.500	638.264	80.007	19.994	103.786	20.024	1.865	0.507
1089.000	639.099	80.006	19.993	103.785	20.023	1.941	0.582
1090.500	639.862	80.007	19.993	103.777	20.022	2.017	0.461
1092.001	640.604	80.006	19.995	103.772	20.023	1.958	0.502
1093.500	641.336	80.007	19.994	103.765	20.023	1.965	0.465
1095.000	642.095	80.007	19.994	103.771	20.023	1.958	0.515
1096.500	642.868	80.008	19.994	103.780	20.021	2.086	0.540
1098.001	643.620	80.007	19.995	103.777	20.021	2.097	0.476
1099.500	644.329	80.008	19.994	103.764	20.021	2.102	0.467
1101.000	645.116	80.009	19.993	103.776	20.022	2.032	0.526
1102.500	645.877	80.007	19.993	103.780	20.023	1.973	0.508
1104.000	646.634	80.007	19.993	103.781	20.017	2.432	0.493
1105.500	647.376	80.008	19.992	103.776	20.019	2.265	0.524
1107.000	648.119	80.008	19.992	103.776	20.022	2.017	0.468
1108.500	648.876	80.008	19.992	103.785	20.024	1.867	0.481
1110.000	649.650	80.006	19.993	103.786	20.020	2.219	0.506
1111.500	650.379	80.006	19.995	103.786	20.019	2.258	0.474
1113.000	651.209	80.006	19.994	103.784	20.018	2.384	0.507
1114.501	651.870	80.007	19.995	103.784	20.018	2.378	0.450
1116.000	652.802	80.007	19.995	103.787	20.016	2.508	0.534
1117.500	652.864	80.007	19.993	103.777	20.016	2.512	-0.151
1119.000	654.168	80.007	19.994	103.776	20.017	2.432	0.708
1120.501	655.010	80.008	19.994	103.782	20.017	2.439	0.572
1122.001	655.779	80.008	19.993	103.775	20.017	2.467	0.545
1123.500	656.512	80.008	19.993	103.780	20.016	2.486	0.475
1125.000	657.238	80.008	19.993	103.785	20.017	2.406	0.481
1126.501	658.046	80.008	19.993	103.786	20.015	2.582	0.526
1128.000	658.835	80.008	19.993	103.780	20.016	2.536	0.513
1129.500	659.560	80.008	19.992	103.774	20.015	2.593	0.465
1131.001	660.352	80.007	19.993	103.782	20.016	2.519	0.537
1132.500	661.136	80.008	19.993	103.782	20.018	2.382	0.552
1134.000	661.901	80.006	19.992	103.769	20.015	2.593	0.516
1135.500	662.698	80.006	19.993	103.773	20.019	2.245	0.526
1137.000	663.542	80.006	19.993	103.784	20.020	2.186	0.544
1138.500	664.274	80.006	19.993	103.777	20.018	2.323	0.477
1140.001	665.046	80.007	19.993	103.770	20.015	2.565	0.507
1141.501	665.792	80.005	19.994	103.781	20.017	2.465	0.489
1143.000	666.543	80.005	19.993	103.782	20.018	2.328	0.501
1144.500	667.357	80.006	19.993	103.771	20.021	2.102	0.513
1146.001	668.090	80.006	19.992	103.774	20.023	1.928	0.507
1147.500	668.899	80.007	19.993	103.782	20.022	2.050	0.541
1149.000	669.689	80.007	19.993	103.784	20.019	2.258	0.542
1150.500	670.443	80.006	19.994	103.784	20.020	2.178	0.521
1152.000	671.214	80.006	19.994	103.784	20.024	1.889	0.528
1153.501	672.015	80.006	19.992	103.784	20.024	1.899	0.519
1155.000	672.746	80.009	19.993	103.783	20.021	2.075	0.487
1156.500	673.525	80.008	19.993	103.779	20.022	2.000	0.521
1158.001	674.356	80.007	19.992	103.780	20.022	2.023	0.538
1159.500	675.152	80.007	19.993	103.781	20.026	1.713	0.518
1161.000	675.956	80.007	19.993	103.773	20.028	1.543	0.536
1162.500	676.744	80.005	19.994	103.769	20.026	1.723	0.531
1164.000	677.463	80.005	19.994	103.768	20.023	1.965	0.499
1165.500	678.288	80.006	19.992	103.768	20.023	1.921	0.518
1167.000	679.076	80.007	19.992	103.784	20.023	1.937	0.495
1168.501	679.866	80.006	19.993	103.781	20.020	2.149	0.510
1170.001	680.644	80.007	19.992	103.777	20.021	2.139	0.518
1171.500	681.380	80.005	19.994	103.779	20.025	1.828	0.516
1173.000	682.186	80.008	19.993	103.780	20.026	1.745	0.523
1174.501	682.972	80.008	19.993	103.778	20.024	1.836	0.509
1176.000	683.703	80.007	19.994	103.781	20.018	2.389	0.472
1177.500	684.469	80.008	19.992	103.781	20.022	2.034	0.491
1179.000	685.274	80.007	19.993	103.778	20.024	1.897	0.539
1180.500	685.988	80.007	19.993	103.774	20.024	1.841	0.498
1182.001	686.205	80.009	19.993	103.782	20.020	2.186	0.317
1183.500	687.569	80.008	19.993	103.783	20.021	2.073	0.897
1185.000	688.336	80.009	19.992	103.781	20.021	2.136	0.552
1186.500	689.105	80.007	19.993	103.778	20.023	1.945	0.519
1188.000	689.872	80.007	19.993	103.779	20.018	2.336	0.516
1189.500	690.607	80.008	19.993	103.777	20.019	2.284	0.495
1191.000	691.374	80.007	19.993	103.783	20.019	2.238	0.526
1192.500	692.142	80.005	19.995	103.780	20.016	2.499	0.543
1194.000	692.924	80.006	19.994	103.778	20.020	2.163	0.529
1195.501	693.687	80.005	19.994	103.778	20.020	2.228	0.485
1197.000	694.432	80.006	19.993	103.776	20.018	2.354	0.502
1198.500	695.225	80.007	19.993	103.779	20.019	2.241	0.537
1200.001	695.976	80.008	19.993	103.777	20.018	2.343	0.502
1201.500	696.744	80.008	19.994	103.767	20.021	2.132	0.449
1203.000	697.520	80.009	19.994	103.773	20.021	2.126	0.511
1204.500	698.298	80.008	19.993	103.780	20.021	2.132	0.510
1206.000	699.065	80.009	19.993	103.779	20.020	2.186	0.499
1207.500	699.842	80.009	19.993	103.777	20.021	2.080	0.517
1209.001	700.610	80.008	19.995	103.777	20.021	2.095	0.521
1210.500	701.396	80.008	19.993	103.774	20.022	2.056	0.521
1212.000	702.156	80.027	20.000	103.779	20.021	2.075	0.529
1213.500	702.931	80.011	19.997	103.787	20.022	2.030	0.513
1215.001	703.702	80.005	19.995	103.775	20.021	2.073	0.502
1216.501	704.464	80.006	19.995	103.766	20.023	1.947	0.493
1218.001	705.222	80.006	19.995	103.774	20.021	2.110	0.522
1219.500	705.999	80.006	19.993	103.777	20.024	1.904	0.536
1221.000	706.737	80.006	19.995	103.771	20.022	2.028	0.483
1222.500	707.495	80.006	19.995	103.770	20.021	2.097	0.504
1224.000	708.243	80.006	19.994	103.772	20.022	1.993	0.503
1225.500	708.984	80.009	19.994	103.773	20.021	2.104	0.494
1227.000	709.786	80.006	19.994	103.774	20.022	2.021	0.545
1228.501	710.531	80.008	19.994	103.780	20.023	1.973	0.493
1230.000	711.296	80.006	19.992	103.777	20.020	2.160	0.519
1231.500	712.052	80.006	19.993	103.784	20.023	1.923	0.506
1233.000	712.811	80.008	19.995	103.783	20.020	2.226	0.499
1234.500	713.543	80.006	19.994	103.784	20.023	1.989	0.490
1236.000	714.290	80.008	19.993	103.779	20.020	2.215	0.494
1237.501	715.081	80.007	19.993	103.773	20.018	2.310	0.536
1239.000	715.851	80.008	19.993	103.774	20.020	2.200	0.520
1240.500	716.605	80.006	19.994	103.759	20.019	2.258	0.512
1242.000	717.378	80.007	19.993	103.765	20.021	2.102	0.515
1243.501	718.075	80.007	19.993	103.783	20.018	2.325	0.478
1245.001	718.854	80.007	19.993	103.781	20.024	1.893	0.532
1246.500	719.626	80.005	19.993	103.782	20.020	2.171	0.528
1248.000	720.430	80.007	19.993	103.783	20.022	2.026	0.525
1249.501	721.141	80.007	19.993	103.783	20.018	2.367	0.475
1251.001	721.906	80.005	19.993	103.785	20.019	2.293	0.520
1252.500	722.656	80.006	19.993	103.782	20.026	1.747	0.493
1254.000	723.408	80.007	19.993	103.772	20.022	2.006	0.506
1255.500	724.162	80.005	19.993	103.779	20.023	1.973	0.519
1257.000	724.920	80.006	19.992	103.785	20.023	1.980	0.500
1258.500	725.680	80.008	19.993	103.784	20.020	2.213	0.480
1260.000	726.453	80.009	19.993	103.787	20.018	2.386	0.508
1261.500	727.166	80.009	19.993	103.787	20.021	2.106	0.491
1263.001	727.949	80.010	19.993	103.786	20.020	2.221	0.524
1264.500	728.705	80.009	19.993	103.783	20.021	2.130	0.508
1266.001	729.466	80.008	19.992	103.777	20.024	1.891	0.500
1267.500	730.245	80.007	19.993	103.772	20.024	1.908	0.529
1269.000	730.967	80.009	19.993	103.783	20.024	1.888	0.503
1270.501	731.715	80.009	19.993	103.781	20.022	2.058	0.492
1272.000	732.474	80.008	19.994	103.775	20.023	1.910	0.507
1273.500	733.208	80.007	19.995	103.781	20.019	2.297	0.475
1275.000	733.979	80.007	19.993	103.778	20.021	2.130	0.533
1276.500	734.773	80.008	19.993	103.773	20.023	1.949	0.511
1278.000	735.481	80.007	19.993	103.772	20.023	1.980	0.494
1279.500	736.265	80.005	19.995	103.765	20.020	2.152	0.539
1281.001	737.043	80.009	19.994	103.775	20.025	1.810	0.540
1282.500	737.805	80.008	19.993	103.781	20.016	2.493	0.474
1284.000	738.551	80.010	19.994	103.775	20.019	2.240	0.496
1285.500	739.312	80.009	19.994	103.776	20.021	2.147	0.505
1287.000	740.079	80.009	19.994	103.776	20.021	2.075	0.507
1288.501	740.893	80.010	19.994	103.776	20.020	2.152	0.555
1290.000	741.668	80.010	19.993	103.777	20.022	2.017	0.531
1291.501	742.397	80.010	19.994	103.775	20.019	2.282	0.467
1293.000	743.168	80.011	19.994	103.772	20.019	2.299	0.479
1293.501	743.438	80.009	19.994	103.774	20.018	2.325	0.502