File: 01_Data/Oak_Flooring/Cone/Oak_Flooring_Cone_HF75Scan_220914_R3.csv
Names,Time,Stack TC,Smoke TC,Exh Press,Smoke Comp,Smoke Meas,CO Meter,CO2 Meter,O2 Meter,Sample Mass,Ext Coeff,Start Test,Flame Verif
Chan Gain,,500,500,1,1,1,1,1,1,1,1,1.0,1.0
Offset,,0,0,0.139139,0,0,0,0,0,0,0,0.0,0.0
Gain,,1,1,25.011,13.0826,14.7555,1,1,1,1.00088,1.03743,1.0,1.0
Units,sec,C,C,Pa,%,%,%,%,%,g,/m,,
Baseline,,67.3308,68.9847,135.809,100.205,106.796,-0.00123926,0.0473702,20.9933,-451.48,-0.579688,,
9,2,64.7045,66.6387,135.39,99.0628,105.215,-0.00111698,0.0531808,20.9879,204.951,-0.548312,0.0,0.0
18,4.25,64.766,66.8679,135.544,99.066,105.598,-0.00110994,0.0522096,20.9887,204.83,-0.581102,0.0,0.0
27,6.5,65.1958,66.4518,136.578,99.1175,105.136,-0.00106725,0.0512724,20.9902,204.75,-0.536431,0.0,0.0
36,8.75,65.1579,66.7647,135.207,99.1933,105.175,-0.000905579,0.0506606,20.9902,204.75,-0.53286,0.0,0.0
45,11,65.4143,66.5751,138.177,99.2644,104.065,-0.000611315,0.0550077,20.9872,204.63,-0.429828,0.0,1.0
54,13.25,66.0718,67.3507,123.683,99.3594,101.869,0.000492693,0.10095,20.9546,204.37,-0.226979,0.0,1.0
63,15.5,66.9982,67.2727,120.233,99.466,98.6906,0.00206835,0.237252,20.7541,203.96,0.0712256,0.0,1.0
72,17.75,70.4757,69.1123,113.027,99.5762,95.5772,0.00361179,0.4089,20.5024,203.529,0.373014,0.0,0.0
81,20,74.5951,72.6281,113.002,99.6852,93.413,0.00491347,0.564205,20.3179,202.989,0.591398,0.0,0.0
90,22.25,78.8842,76.1937,107.338,99.7886,90.5973,0.00597989,0.687714,20.1702,202.438,0.879361,0.0,0.0
99,24.5,82.4816,79.7265,112.262,99.9,90.6013,0.00688106,0.784908,20.0654,201.918,0.889107,0.0,0.0
108,26.75,86.7954,83.1715,110.209,99.9922,91.2353,0.00768673,0.855672,19.9975,201.257,0.834043,0.0,0.0
117,29,90.0461,86.6867,109.874,100.066,89.2189,0.00787366,0.890071,19.9716,200.697,1.04415,0.0,0.0
126,31.25,93.2072,89.7308,113.378,100.143,92.4151,0.00761625,0.898686,19.9722,200.136,0.730843,0.0,0.0
135,33.5,95.9735,92.5786,110.453,100.201,92.5174,0.00725335,0.896168,19.9786,199.736,0.726042,0.0,0.0
144,35.75,98.1757,95.0626,108.224,100.225,93.6436,0.0069395,0.880069,20.0013,199.095,0.61811,0.0,0.0
153,38,100.213,97.3075,104.961,100.237,93.73,0.00664907,0.85739,20.0414,198.565,0.610835,0.0,0.0
162,40.25,101.973,99.0511,111.325,100.26,94.9823,0.00632521,0.833006,20.0764,198.084,0.49212,0.0,0.0
171,42.5,102.809,101.235,112.24,100.195,95.2921,0.00606665,0.807584,20.1104,197.594,0.45654,0.0,0.0
180,44.75,104.27,102.855,110.829,100.147,94.8959,0.00584469,0.779546,20.1475,197.014,0.490146,0.0,0.0
189,47,104.252,104.522,117.715,100.093,95.1327,0.00565026,0.75205,20.1793,196.593,0.46256,0.0,0.0
198,49.25,106.147,105.067,116.742,100.017,95.3984,0.00543362,0.731672,20.2062,196.193,0.430246,0.0,0.0
207,51.5,106.471,106.476,111.979,99.9064,96.1968,0.00533601,0.711364,20.231,195.632,0.344335,0.0,0.0
216,53.75,106.678,107.625,110.01,99.7978,96.1373,0.00537398,0.692604,20.2504,195.202,0.340062,0.0,0.0
225,56,106.955,108.326,118.011,99.6888,95.8095,0.00537654,0.675721,20.2689,194.832,0.361203,0.0,0.0
234,58.25,107.561,109.049,115.915,99.599,96.1112,0.0054214,0.661663,20.2842,194.411,0.324386,0.0,0.0
243,60.5,107.836,109.786,114.141,99.5107,95.6411,0.00555217,0.649497,20.3007,193.891,0.360943,0.0,0.0
252,62.75,107.66,110.534,118.197,99.4273,96.7488,0.00567131,0.636281,20.318,193.35,0.248512,0.0,0.0
261,65,107.537,111.022,111.015,99.498,95.7339,0.00571304,0.624383,20.3314,193.19,0.350953,0.0,0.0
270,67.25,107.776,111.334,115.024,99.6137,95.7794,0.00568679,0.616581,20.3401,192.66,0.357213,0.0,0.0
279,69.5,108.085,111.611,112.594,99.6944,97.2064,0.00550749,0.61013,20.3474,192.269,0.229994,0.0,0.0
288,71.75,107.986,112.016,117.868,99.7714,97.4545,0.00521555,0.604726,20.3568,191.929,0.213826,0.0,0.0
297,74,108.198,112.089,113.561,99.8166,97.0028,0.00491293,0.599459,20.3624,191.529,0.260214,0.0,0.0
306,76.25,108.25,112.346,115.269,99.8641,98.1101,0.00460006,0.595099,20.3658,191.038,0.161252,0.0,0.0
315,78.5,108.168,112.727,115.72,99.9507,97.2487,0.00441564,0.588605,20.374,190.598,0.249399,0.0,0.0
324,80.75,107.75,113.107,116.867,99.9838,97.6089,0.00426928,0.584023,20.379,190.308,0.218768,0.0,0.0
333,83,107.781,113.045,113.78,99.9802,97.9394,0.00411449,0.580028,20.3824,189.877,0.187678,0.0,0.0
342,85.25,107.506,113.164,115.563,99.9763,97.9422,0.00401303,0.576132,20.3876,189.477,0.187063,0.0,0.0
351,87.5,107.942,113.265,117.253,99.9411,98.7252,0.00393207,0.57046,20.3936,189.026,0.111394,0.0,0.0
360,89.75,107.528,113.444,118.862,99.9064,98.1745,0.00390845,0.563753,20.4012,188.706,0.159137,0.0,0.0
369,92,107.617,113.212,118.477,99.8385,97.1163,0.00402852,0.559435,20.4049,188.276,0.251576,0.0,0.0
378,94.25,107.406,113.751,114.774,99.773,97.5207,0.00419453,0.560221,20.4055,187.865,0.207793,0.0,0.0
387,96.5,107.573,113.333,118.355,99.7179,98.4582,0.00428982,0.556822,20.4091,187.605,0.115697,0.0,0.0
396,98.75,107.202,113.955,121.602,99.6281,98.5005,0.00430163,0.548956,20.4175,187.105,0.103583,0.0,0.0
405,101,106.845,114.009,116.555,99.6221,97.232,0.00432053,0.544035,20.4236,186.784,0.220992,0.0,0.0
414,103.25,106.467,114.043,116.658,99.6465,97.6283,0.0042795,0.536796,20.4314,186.404,0.186205,0.0,0.0
423,105.5,106.628,113.097,120.567,99.6916,97.9728,0.00415591,0.528938,20.4426,186.094,0.158269,0.0,0.0
432,107.75,106.645,113.305,119.686,99.7179,98.5221,0.00399981,0.522042,20.4515,185.643,0.109789,0.0,0.0
441,110,106.434,113.204,119.745,99.7682,98.7883,0.003793,0.518167,20.4556,185.273,0.0898291,0.0,0.0
450,112.25,105.953,113.299,122.547,99.7978,99.1418,0.00343831,0.513639,20.4627,184.983,0.06002,0.0,0.0
459,114.5,105.612,113.089,125.912,99.8058,98.7685,0.00307445,0.50608,20.472,184.663,0.0950771,0.0,0.0
468,116.75,105.523,112.744,118.107,99.7766,98.3947,0.00287647,0.497831,20.4778,184.212,0.126921,0.0,0.0
477,119,105.512,112.672,122.617,99.7894,99.0179,0.00295579,0.496066,20.4828,183.972,0.0706293,0.0,0.0
486,121.25,104.941,112.764,120.993,99.7958,100.201,0.00307049,0.493213,20.4857,183.612,-0.0368637,0.0,0.0
495,123.5,104.787,112.236,123.586,99.7658,99.9564,0.00303082,0.486702,20.4899,183.271,-0.017361,0.0,0.0
504,125.75,104.373,112.088,120.113,99.7726,99.5966,0.00297139,0.485374,20.4932,182.851,0.016074,0.0,0.0
513,128,104.37,112.154,120.081,99.7838,100.37,0.00286867,0.482002,20.4951,182.621,-0.0532792,0.0,0.0
522,130.25,104.092,111.89,121.653,99.769,99.5092,0.00276895,0.47383,20.5043,182.311,0.0237324,0.0,0.0
531,132.5,103.721,111.386,122.083,99.7591,99.7987,0.00272945,0.468058,20.5125,181.85,-0.0036192,0.0,0.0
540,134.75,103.576,111.4,120.751,99.7559,100.039,0.00267181,0.461763,20.5221,181.54,-0.0258113,0.0,0.0
549,137,103.189,110.935,124.13,99.7579,100.196,0.00260154,0.453198,20.5294,181.33,-0.0398732,0.0,0.0
558,139.25,102.87,111.105,119.297,99.7315,100.055,0.00258174,0.453356,20.5284,180.929,-0.0294261,0.0,0.0
567,141.5,102.819,110.265,118.21,99.7008,100.038,0.00255983,0.456427,20.5261,180.589,-0.0307567,0.0,0.0
576,143.75,102.762,110.25,122.462,99.686,100.87,0.00252155,0.455293,20.5262,180.309,-0.107411,0.0,0.0
585,146,102.628,110.346,120.064,99.6712,100.435,0.0024409,0.451502,20.5322,180.009,-0.0695123,0.0,0.0
594,148.25,102.612,109.755,119.007,99.6349,100.642,0.00224559,0.447089,20.538,179.658,-0.0915388,0.0,0.0
603,150.5,101.843,109.494,115.335,99.6097,100.218,0.00212964,0.444303,20.5411,179.348,-0.0553991,0.0,0.0
612,152.75,102.167,109.658,121.266,99.6054,99.7321,0.00217406,0.445348,20.5409,179.138,-0.0115728,0.0,0.0
621,155,101.891,109.639,123.486,99.6537,100.497,0.00219691,0.444715,20.5405,178.727,-0.0766633,0.0,0.0
630,157.25,101.801,109.207,127.551,99.7072,100.343,0.00219987,0.443126,20.541,178.407,-0.0578634,0.0,0.0
639,159.5,101.486,108.893,119.686,99.7726,99.6492,0.00229092,0.443224,20.542,178.087,0.0112613,0.0,0.0
648,161.75,101.583,108.76,120.81,99.8245,100.369,0.00239043,0.439848,20.5436,177.807,-0.0494842,0.0,0.0
657,164,101.42,108.79,117.549,99.8601,100.36,0.0024383,0.440255,20.5425,177.406,-0.04547,0.0,0.0
666,166.25,101.311,108.61,122.267,99.892,100.533,0.00254436,0.444754,20.5397,177.076,-0.0582254,0.0,0.0
675,168.5,101.414,108.819,128.437,99.9351,101.926,0.00254894,0.443557,20.5415,176.846,-0.179549,0.0,0.0
684,170.75,101.266,108.819,120.128,99.9459,100.588,0.0024565,0.4414,20.5416,176.525,-0.0582887,0.0,0.0
693,173,101.205,108.445,120.853,99.9531,99.7645,0.00241076,0.444943,20.5387,176.125,0.017185,0.0,0.0
702,175.25,101.535,108.469,118.285,99.9503,100.842,0.00237264,0.447306,20.5358,175.885,-0.0807963,0.0,0.0
711,177.5,101.289,108.36,115.652,99.9659,100.61,0.00233493,0.447769,20.5359,175.655,-0.0584667,0.0,0.0
720,179.75,101.059,108.431,117.742,99.9411,100.908,0.00237176,0.448004,20.5361,175.264,-0.087604,0.0,0.0
729,182,100.988,108.47,119.142,99.91,100.345,0.00240206,0.449281,20.5352,174.904,-0.0395343,0.0,0.0
738,184.25,101.457,108.523,121.515,99.8988,100.428,0.00234667,0.448856,20.5347,174.654,-0.0480642,0.0,0.0
747,186.5,101.47,108.194,120.543,99.8461,100.16,0.00233892,0.445984,20.5389,174.344,-0.0285549,0.0,0.0
756,188.75,101.134,108.403,123.821,99.797,101.158,0.00246619,0.442398,20.5416,173.953,-0.123288,0.0,0.0
765,191,101.39,108.141,119.214,99.7714,100.697,0.00261669,0.441671,20.5438,173.653,-0.0840005,0.0,0.0
774,193.25,101.017,107.941,121.916,99.7619,100.551,0.00264871,0.440506,20.5458,173.433,-0.0716803,0.0,0.0
783,195.5,100.592,107.769,126.055,99.6992,100.05,0.00261584,0.435203,20.547,172.992,-0.0319269,0.0,0.0
792,197.75,100.907,107.878,121.077,99.6517,100.249,0.00248341,0.437947,20.5432,172.792,-0.0543912,0.0,0.0
801,200,100.831,107.81,117.861,99.599,99.561,0.00232954,0.442779,20.5398,172.472,0.00346974,0.0,0.0
810,202.25,100.734,107.711,118.175,99.5191,100.005,0.00225515,0.443871,20.5384,172.192,-0.044322,0.0,0.0
819,204.5,101.353,107.615,120.162,99.4205,100.027,0.00220796,0.442027,20.5403,171.811,-0.0553107,0.0,0.0
828,206.75,101.159,107.76,119.878,99.363,99.7006,0.0021828,0.438007,20.5445,171.471,-0.030865,0.0,0.0
837,209,101.169,107.322,125.992,99.4389,100.252,0.0022324,0.435142,20.5486,171.251,-0.074131,0.0,0.0
846,211.25,100.963,107.352,117.542,99.5059,99.1062,0.00228771,0.432862,20.5518,170.87,0.0366328,0.0,0.0
855,213.5,101.362,107.955,121.673,99.5702,100.787,0.00226486,0.43218,20.5526,170.55,-0.110509,0.0,0.0
864,215.75,101.181,107.733,120.143,99.6533,100.561,0.00215863,0.432674,20.5528,170.22,-0.0825291,0.0,0.0
873,218,101.153,107.465,118.001,99.7447,100.889,0.0020186,0.431285,20.5529,169.97,-0.103801,0.0,0.0
882,220.25,100.787,107.395,122.128,99.8213,100.806,0.00197475,0.430475,20.5555,169.659,-0.0892937,0.0,0.0
891,222.5,100.807,107.341,120.997,99.898,99.7443,0.00196875,0.428944,20.5567,169.339,0.0140162,0.0,0.0
900,224.75,100.555,107.151,118.85,99.9739,100.748,0.00190552,0.430255,20.5577,169.049,-0.0702355,0.0,0.0
909,227,100.697,106.758,120.326,100.036,101.453,0.00191421,0.428967,20.5596,168.729,-0.127961,0.0,0.0
918,229.25,100.495,107.465,120.584,100.084,101.399,0.00203001,0.426066,20.5616,168.408,-0.118792,0.0,0.0
927,231.5,100.814,106.693,118.146,100.118,100.586,0.00208932,0.426744,20.5624,168.108,-0.0423938,0.0,0.0
936,233.75,100.437,106.75,121.41,100.166,101.25,0.00207957,0.427094,20.5624,167.888,-0.0979345,0.0,0.0
945,236,101.243,107.306,121.222,100.181,101.932,0.00205092,0.42607,20.563,167.457,-0.157739,0.0,0.0
954,238.25,100.413,106.522,120.647,100.16,101.66,0.00199173,0.424642,20.565,167.197,-0.135348,0.0,0.0
963,240.5,100.483,106.594,120.263,100.146,101.205,0.00191586,0.421265,20.569,167.007,-0.0956999,0.0,0.0
972,242.75,100.998,106.806,119.725,100.095,101.134,0.00186392,0.418515,20.5717,166.657,-0.0939855,0.0,0.0
981,245,100.352,106.164,121.545,100.03,100.959,0.00190804,0.417719,20.5725,166.266,-0.0840876,0.0,0.0
990,247.25,100.055,106.451,119.873,99.9655,100.962,0.00207003,0.418176,20.5719,165.956,-0.0902978,0.0,0.0
999,249.5,100.421,106.473,121.638,99.888,101.455,0.00214613,0.41562,20.5738,165.716,-0.141648,0.0,0.0
1008,251.75,100.083,105.897,118.358,99.7818,100.546,0.00218112,0.412232,20.5752,165.346,-0.0694517,0.0,0.0
1017,254,100.146,106.558,122.315,99.6836,100.743,0.00218701,0.414216,20.5758,165.075,-0.096207,0.0,0.0
1026,256.25,100.048,106.183,124.235,99.589,101.195,0.00202773,0.413806,20.5772,164.745,-0.145557,0.0,0.0
1035,258.5,100.419,106.084,123.036,99.5227,101.829,0.00182926,0.411009,20.5804,164.465,-0.208454,0.0,0.0
1044,260.75,100.004,106.044,119.555,99.4161,100.895,0.00177325,0.407212,20.5847,164.145,-0.134398,0.0,0.0
1053,263,100.065,105.916,121.104,99.3367,100.743,0.00183281,0.404526,20.588,163.894,-0.127895,0.0,0.0
1062,265.25,99.662,105.555,120.503,99.2716,100.737,0.0018925,0.40654,20.5879,163.614,-0.13337,0.0,0.0
1071,267.5,99.7963,106.143,117.885,99.2101,101.264,0.00193235,0.406118,20.5862,163.284,-0.186479,0.0,0.0
1080,269.75,99.9816,106.033,120.421,99.145,100.461,0.00188664,0.40398,20.5865,162.994,-0.12001,0.0,0.0
1089,272,99.7584,105.948,122.496,99.1211,101.381,0.00178853,0.403571,20.5871,162.733,-0.205124,0.0,0.0
1098,274.25,99.6486,105.461,117.208,99.0684,101.031,0.00173714,0.40262,20.5874,162.433,-0.178544,0.0,0.0
1107,276.5,99.5425,105.21,120.802,99.0185,100.591,0.00163158,0.401751,20.588,162.043,-0.143414,0.0,0.0
1116,278.75,99.5186,105.536,119.765,98.9933,101.772,0.00150202,0.399522,20.59,161.772,-0.25188,0.0,0.0
1125,281,99.6646,105.223,122.612,98.9997,100.875,0.00134105,0.398797,20.5908,161.512,-0.170768,0.0,0.0
1134,283.25,99.4217,105.262,122.573,98.9989,101.706,0.00131394,0.398871,20.592,161.192,-0.245526,0.0,0.0
1143,285.5,99.1675,105.075,120.731,99.0129,100.379,0.00153524,0.396423,20.5944,160.892,-0.12468,0.0,0.0
1152,287.75,99.1759,105.003,121.247,99.0448,101.092,0.00183102,0.395363,20.5956,160.561,-0.186222,0.0,0.0
1161,290,99.3389,104.919,119.901,99.1171,99.7659,0.00191382,0.395107,20.5975,160.331,-0.0593756,0.0,0.0
1170,292.25,99.4144,104.996,121.193,99.1722,101.158,0.0018974,0.393178,20.5985,159.971,-0.180403,0.0,0.0
1179,294.5,99.2555,104.674,116.49,99.2448,100.635,0.00196515,0.395382,20.5967,159.711,-0.126584,0.0,0.0
1188,296.75,99.042,104.866,122.476,99.3231,101.724,0.00203828,0.400123,20.5941,159.39,-0.217385,0.0,0.0
1197,299,98.9837,104.633,122.911,99.4041,101.593,0.00196236,0.399692,20.5948,159.2,-0.198232,0.0,0.0
1206,301.25,98.9409,104.656,125.781,99.4868,101.579,0.00181238,0.396181,20.5974,158.86,-0.189419,0.0,0.0
1215,303.5,98.9726,104.184,127.713,99.5838,101.578,0.00159674,0.395439,20.5972,158.5,-0.180468,0.0,0.0
1224,305.75,98.7417,104.456,120.042,99.6728,101.431,0.00143961,0.398855,20.5955,158.209,-0.159134,0.0,0.0
1233,308,98.8498,104.609,121.096,99.7718,101.137,0.00136025,0.399388,20.5933,157.839,-0.123678,0.0,0.0
1242,310.25,98.5482,104.289,120.716,99.8908,101.31,0.00139891,0.401117,20.591,157.589,-0.128378,0.0,0.0
1251,312.5,98.5449,104.233,119.631,99.9818,102.439,0.00148294,0.40251,20.5895,157.349,-0.220974,0.0,0.0
1260,314.75,98.5067,104.39,123.647,100.036,102.157,0.0016248,0.402277,20.5889,156.998,-0.190993,0.0,0.0
1269,317,98.6949,104.178,122.865,100.104,101.809,0.00173944,0.399192,20.5899,156.738,-0.153684,0.0,0.0
1278,319.25,98.2078,104.195,123.119,100.158,101.623,0.00190932,0.40041,20.59,156.418,-0.132223,0.0,0.0
1287,321.5,98.5165,104.192,125.133,100.236,102.039,0.00196038,0.402953,20.5896,156.158,-0.162259,0.0,0.0
1296,323.75,98.7533,104.161,123.579,100.26,103.384,0.0018682,0.400725,20.5926,155.797,-0.279182,0.0,0.0
1305,326,98.531,103.924,121.186,100.302,102.229,0.00167525,0.396818,20.5961,155.527,-0.173099,0.0,0.0
1314,328.25,98.8248,104.164,119.82,100.366,102.453,0.00146966,0.394864,20.5969,155.257,-0.187285,0.0,0.0
1323,330.5,98.1542,104.181,119.117,100.378,101.356,0.0014716,0.398771,20.5917,154.997,-0.0882722,0.0,0.0
1332,332.75,98.5574,104.031,119.449,100.397,102.791,0.00160072,0.40728,20.5829,154.626,-0.214372,0.0,0.0
1341,335,98.5368,104.238,121.041,100.43,102.3,0.00157492,0.409415,20.5812,154.346,-0.167886,0.0,0.0
1350,337.25,99.0848,104.465,122.681,100.457,102.612,0.00139342,0.407421,20.5844,154.096,-0.19318,0.0,0.0
1359,339.5,98.7317,104.248,119.179,100.462,101.388,0.00119675,0.405239,20.5871,153.755,-0.0834717,0.0,0.0
1368,341.75,98.9397,104.534,120.98,100.474,102.829,0.00111088,0.403415,20.5904,153.425,-0.21089,0.0,0.0
1377,344,98.8542,104.369,126.529,100.501,102.516,0.00112469,0.399374,20.5959,153.135,-0.180617,0.0,0.0
1386,346.25,98.9487,104.085,123.832,100.516,102.217,0.00122743,0.396095,20.5983,152.825,-0.152702,0.0,0.0
1395,348.5,99.0466,103.749,121.399,100.526,102.37,0.00125438,0.395337,20.5992,152.494,-0.165454,0.0,0.0
1404,350.75,98.3314,104.733,121.003,100.527,102.529,0.00130969,0.396504,20.5984,152.214,-0.179466,0.0,0.0
1413,353,98.3202,103.599,120.66,100.544,102.447,0.00139785,0.39743,20.5978,151.944,-0.170627,0.0,0.0
1422,355.25,98.8931,103.795,121.937,100.545,102.648,0.00145507,0.39731,20.5976,151.614,-0.188345,0.0,0.0
1431,357.5,98.376,104.503,120.625,100.546,101.469,0.00148283,0.396866,20.5975,151.323,-0.0831887,0.0,0.0
1440,359.75,99.1207,103.985,121.253,100.543,102.227,0.00151049,0.3972,20.5972,151.073,-0.151162,0.0,0.0
1449,362,98.4206,103.588,120.661,100.557,102.933,0.00144854,0.399128,20.5963,150.833,-0.212497,0.0,0.0
1458,364.25,98.2856,104.546,121.6,100.55,102.28,0.00141724,0.398527,20.5969,150.503,-0.155313,0.0,0.0
1467,366.5,98.5611,104.103,120.648,100.552,102.5,0.00139852,0.396466,20.5976,150.232,-0.174624,0.0,0.0
1476,368.75,98.7275,103.98,121.092,100.562,103.303,0.00125797,0.396377,20.5984,149.932,-0.244653,0.0,0.0
1485,371,98.8934,104.128,120.045,100.576,102.916,0.00118632,0.395097,20.5982,149.692,-0.209361,0.0,0.0
1494,373.25,98.8818,104.143,122.086,100.548,103.091,0.00130214,0.395096,20.5981,149.291,-0.227291,0.0,0.0
1503,375.5,98.5492,104.436,116.77,100.561,102.446,0.0014031,0.396602,20.5964,149.031,-0.168997,0.0,0.0
1512,377.75,99.0087,104.1,119.482,100.57,102.475,0.0014733,0.400034,20.5917,148.781,-0.170799,0.0,0.0
1521,380,98.7921,104.312,122.817,100.559,102.532,0.00144158,0.401731,20.5899,148.451,-0.176814,0.0,0.0
1530,382.25,98.8743,104.255,121.586,100.558,102.863,0.0013741,0.400604,20.5892,148.18,-0.206248,0.0,0.0
1539,384.5,99.4625,104.54,119.24,100.567,103.075,0.00137318,0.400435,20.589,147.85,-0.224125,0.0,0.0
1548,386.75,98.9075,104.071,122.1,100.564,102.798,0.00142019,0.401774,20.5889,147.58,-0.199971,0.0,0.0
1557,389,99.4688,104.293,124.727,100.557,102.938,0.00143791,0.402061,20.5888,147.3,-0.213011,0.0,0.0
1566,391.25,98.9098,104.46,117.871,100.548,102.884,0.00133296,0.403405,20.5878,146.969,-0.209023,0.0,0.0
1575,393.5,99.2533,104.508,121.961,100.56,102.868,0.00124225,0.404323,20.5868,146.749,-0.206473,0.0,0.0
1584,395.75,99.3786,104.85,123.424,100.559,102.662,0.00120014,0.404602,20.5871,146.429,-0.188318,0.0,0.0
1593,398,99.3484,104.858,125.185,100.552,102.502,0.00120465,0.404224,20.5862,146.099,-0.174787,0.0,0.0
1602,400.25,99.1487,104.745,120.324,100.57,102.855,0.00123468,0.404605,20.5855,145.818,-0.204526,0.0,0.0
1611,402.5,98.9063,105.169,118.136,100.56,101.532,0.00113515,0.402681,20.5855,145.568,-0.0875766,0.0,0.0
1620,404.75,99.3233,104.955,117.668,100.557,102.92,0.000952648,0.404339,20.5849,145.218,-0.211342,0.0,0.0
1629,407,99.3319,105.085,125.3,100.539,102.711,0.000911198,0.408079,20.5812,144.908,-0.194514,0.0,0.0
1638,409.25,99.2273,105.462,118.475,100.547,102.613,0.000980346,0.411527,20.5785,144.687,-0.185126,0.0,0.0
1647,411.5,99.5381,105.008,121.566,100.55,102.652,0.00098698,0.413726,20.5761,144.407,-0.188274,0.0,0.0
1656,413.75,100.014,104.994,122.698,100.516,103,0.00101681,0.415081,20.5732,144.077,-0.222185,0.0,0.0
1665,416,99.5461,105.529,118.781,100.528,102.681,0.00105916,0.415979,20.572,143.767,-0.192817,0.0,0.0
1674,418.25,99.862,105.4,119.659,100.508,102.061,0.00108672,0.416483,20.5714,143.496,-0.139575,0.0,0.0
1683,420.5,99.7677,105.322,119.848,100.475,102.348,0.00115202,0.416177,20.5699,143.136,-0.168121,0.0,0.0
1692,422.75,100.044,105.245,120.151,100.454,102.302,0.0012757,0.417871,20.5679,142.866,-0.165872,0.0,0.0
1701,425,100.054,106.126,122.467,100.44,101.62,0.00147099,0.421336,20.5656,142.596,-0.10633,0.0,0.0
1710,427.25,100.362,105.345,120.515,100.407,101.554,0.00160541,0.423523,20.5647,142.305,-0.103406,0.0,0.0
1719,429.5,100.446,105.468,118.562,100.376,102.414,0.00149938,0.423791,20.5659,141.985,-0.182937,0.0,0.0
1728,431.75,100.355,106.049,120.485,100.349,102.394,0.00144552,0.42502,20.5652,141.705,-0.183562,0.0,0.0
1737,434,100.733,105.753,123.89,100.313,102.136,0.0014792,0.425565,20.5634,141.405,-0.163896,0.0,0.0
1746,436.25,100.843,105.864,119.838,100.254,101.868,0.00154866,0.426457,20.5619,141.084,-0.145354,0.0,0.0
1755,438.5,100.976,106.145,119.593,100.234,101.638,0.0015924,0.428292,20.5591,140.804,-0.126551,0.0,0.0
1764,440.75,100.405,106.299,123.198,100.186,101.6,0.00158822,0.431145,20.5554,140.524,-0.127514,0.0,0.0
1773,443,101.658,106.098,120.102,100.138,101.874,0.00150341,0.433786,20.5539,140.203,-0.156356,0.0,0.0
1782,445.25,101.076,106.583,122.599,100.062,102.093,0.00141618,0.433658,20.5534,139.883,-0.182895,0.0,0.0
1791,447.5,101.143,106.386,122.106,100.011,101.863,0.00141465,0.434451,20.5513,139.563,-0.166977,0.0,0.0
1800,449.75,101.285,106.965,117.399,99.9335,101.498,0.00142686,0.437136,20.5482,139.323,-0.141379,0.0,0.0
1809,452,101.321,106.294,119.352,99.8681,100.545,0.00150217,0.438356,20.5457,139.002,-0.0615085,0.0,0.0
1818,454.25,101.506,107.043,124.427,99.779,100.802,0.00152573,0.439662,20.5445,138.642,-0.0928275,0.0,0.0
1827,456.5,101.443,106.949,118.265,99.7251,100.507,0.00154245,0.440737,20.544,138.352,-0.0710773,0.0,0.0
1836,458.75,102.061,106.733,119.12,99.6409,100.911,0.00156587,0.442271,20.5434,138.072,-0.115308,0.0,0.0
1845,461,101.779,106.957,119.093,99.5523,100.714,0.00152081,0.442227,20.5422,137.751,-0.105561,0.0,0.0
1854,463.25,101.87,107.376,120.097,99.4776,100.598,0.00151067,0.444337,20.5405,137.411,-0.101926,0.0,0.0
1863,465.5,102.102,107.183,124.188,99.4069,100.235,0.00155325,0.445712,20.5399,137.171,-0.0754605,0.0,0.0
1872,467.75,102.131,107.443,115.733,99.3371,100.913,0.00168869,0.444683,20.5409,136.861,-0.143222,0.0,0.0
1881,470,102.236,107.393,122.003,99.2444,99.7177,0.00188698,0.444589,20.5393,136.54,-0.0432925,0.0,0.0
1890,472.25,101.978,107.591,121.742,99.1937,99.9888,0.00199097,0.4468,20.5369,136.21,-0.0726491,0.0,0.0
1899,474.5,102.428,107.619,117.488,99.1522,100.172,0.00194282,0.448896,20.5348,135.95,-0.0931251,0.0,0.0
1908,476.75,103.054,107.259,119.024,99.1007,99.8069,0.00192047,0.450083,20.5332,135.589,-0.0646152,0.0,0.0
1917,479,102.372,108.525,114.636,99.0656,99.8235,0.00198657,0.450139,20.5321,135.289,-0.0693615,0.0,0.0
1926,481.25,102.898,108.181,113.896,99.06,99.665,0.00200974,0.451284,20.5307,134.999,-0.0554133,0.0,0.0
1935,483.5,102.815,108.061,114.708,99.0616,100.284,0.00198845,0.452994,20.5302,134.669,-0.111627,0.0,0.0
1944,485.75,103.022,108.058,119.7,99.042,99.6519,0.00190554,0.452979,20.53,134.378,-0.0558712,0.0,0.0
1953,488,103.19,108.397,116.988,99.0779,98.7856,0.00187683,0.45323,20.5299,134.058,0.0268946,0.0,0.0
1962,490.25,102.519,108.365,118.12,99.1083,99.5313,0.00191563,0.453063,20.5299,133.788,-0.0387564,0.0,0.0
1971,492.5,103.1,108.318,121.926,99.1474,100.638,0.00197237,0.452591,20.5299,133.438,-0.135807,0.0,0.0
1980,494.75,103.049,108.259,118.174,99.1977,99.7078,0.00205248,0.451324,20.5311,133.157,-0.0466732,0.0,0.0
1989,497,103.176,108.335,121.885,99.2768,100.238,0.00210766,0.45001,20.5317,132.877,-0.0877108,0.0,0.0
1998,499.25,103.526,108.415,116.247,99.3514,100.526,0.00212079,0.451332,20.5304,132.597,-0.106996,0.0,0.0
2007,501.5,103.438,108.711,115.416,99.4161,99.7402,0.00199168,0.453578,20.5283,132.226,-0.0296193,0.0,0.0
2016,503.75,103.138,108.769,119.743,99.5015,101.17,0.00188037,0.45459,20.526,131.906,-0.151323,0.0,0.0
2025,506,103.315,108.739,119.904,99.6014,100.586,0.00193937,0.455125,20.5251,131.656,-0.0895112,0.0,0.0
2034,508.25,103.709,108.796,120.931,99.6876,100.278,0.00192659,0.454333,20.5248,131.316,-0.0537664,0.0,0.0
2043,510.5,103.628,109.095,116.2,99.7746,100.447,0.00177567,0.45474,20.5247,131.015,-0.0610956,0.0,0.0
2052,512.75,103.649,109.2,122.076,99.878,100.017,0.00168416,0.45446,20.527,130.725,-0.0126656,0.0,0.0
2061,515,103.779,109.041,116.173,99.9567,100.58,0.00168,0.453165,20.5292,130.425,-0.0565332,0.0,0.0
2070,517.25,103.753,109.178,117.792,100.019,100.959,0.00160531,0.451666,20.5306,130.105,-0.0851453,0.0,0.0
2079,519.5,103.621,109.216,123.314,100.083,100.614,0.00162956,0.451175,20.5309,129.784,-0.0481492,0.0,0.0
2088,521.75,103.499,109.679,118.539,100.154,101.565,0.00182046,0.451842,20.5308,129.524,-0.127342,0.0,0.0
2097,524,103.799,109.02,117.045,100.192,100.399,0.0019603,0.453485,20.5289,129.184,-0.018755,0.0,0.0
2106,526.25,103.737,109.213,117.259,100.224,100.977,0.00194257,0.453846,20.5288,128.894,-0.0681525,0.0,0.0
2115,528.5,104.063,109.06,118,100.234,101.248,0.00186383,0.454024,20.5278,128.603,-0.0915673,0.0,0.0
2124,530.75,104.203,109.556,118.39,100.245,101.131,0.00191037,0.455689,20.5274,128.363,-0.0800959,0.0,0.0
2133,533,103.653,109.664,123.435,100.219,101.977,0.00193713,0.455433,20.5272,128.003,-0.158237,0.0,0.0
2142,535.25,104.068,109.592,120.514,100.173,100.309,0.00193532,0.457046,20.5258,127.712,-0.0123376,0.0,0.0
2151,537.5,103.974,109.675,121.617,100.124,101.23,0.00194318,0.456768,20.5252,127.432,-0.0999947,0.0,0.0
2160,539.75,104.57,109.548,119.046,100.062,100.626,0.00203373,0.458077,20.5247,127.132,-0.0511778,0.0,0.0
2169,542,103.644,109.457,123.516,99.979,100.258,0.00208382,0.458787,20.5234,126.772,-0.0253604,0.0,0.0
2178,544.25,104.301,110.163,122.012,99.8812,101.225,0.00198034,0.458194,20.5224,126.491,-0.121603,0.0,0.0
2187,546.5,104.21,109.547,120.463,99.7858,100.506,0.00195587,0.458427,20.5217,126.221,-0.0654188,0.0,0.0
2196,548.75,104.168,109.565,120.224,99.6708,100.534,0.00203618,0.460869,20.5201,125.871,-0.078479,0.0,0.0
2205,551,104.546,110.019,119.097,99.5503,99.6087,0.00207565,0.462451,20.5177,125.591,-0.00534278,0.0,0.0
2214,553.25,104.389,109.911,116.502,99.47,99.4268,0.00215212,0.46542,20.5132,125.28,0.00395338,0.0,0.0
2223,555.5,104.194,109.625,120.762,99.4904,100.317,0.00220644,0.467518,20.5101,125.01,-0.0753445,0.0,0.0
2232,557.75,104.421,110.017,118.338,99.6297,99.6317,0.00223304,0.469178,20.5085,124.65,-0.000180628,0.0,0.0
2241,560,104.471,110.179,117.718,99.7187,99.5786,0.00230352,0.471391,20.5058,124.319,0.0128019,0.0,0.0
2250,562.25,104.671,110.25,118.428,99.8205,99.7006,0.0023199,0.474207,20.5036,124.019,0.0109438,0.0,0.0
2259,564.5,105.263,110.767,116.512,99.8784,99.5042,0.00229651,0.475775,20.5004,123.719,0.0341582,0.0,0.0
2268,566.75,104.311,110.17,119.463,99.9523,99.389,0.00233028,0.478065,20.498,123.389,0.0514342,0.0,0.0
2277,569,105.043,110.598,116.34,100.007,99.5299,0.00236625,0.480858,20.4966,123.098,0.0435528,0.0,0.0
2286,571.25,105.388,110.508,114.936,100.036,99.864,0.00239424,0.48493,20.4922,122.778,0.015669,0.0,0.0
2295,573.5,105.451,111.003,116.389,100.003,99.7019,0.0024016,0.487974,20.4869,122.418,0.0274755,0.0,0.0
2304,575.75,105.224,110.713,118.339,99.9168,99.0319,0.00225964,0.490256,20.484,122.128,0.080953,0.0,0.0
2313,578,105.378,111.271,122.44,99.8182,99.973,0.00209064,0.49188,20.4815,121.807,-0.0141073,0.0,0.0
2322,580.25,105.634,111.292,117.244,99.6421,98.1732,0.00219123,0.495664,20.4772,121.447,0.135155,0.0,0.0
2331,582.5,105.7,111.402,113.802,99.7275,98.6788,0.00243118,0.49908,20.4737,121.117,0.0962,0.0,0.0
2340,584.75,105.737,111.532,119.345,99.8285,99.0058,0.00259067,0.502225,20.4691,120.776,0.0753128,0.0,0.0
2349,587,106.239,111.656,118.727,99.9443,99.516,0.00259118,0.505644,20.4662,120.496,0.0390873,0.0,0.0
2358,589.25,106.353,111.367,119.11,100.067,98.8545,0.0025504,0.508583,20.4623,120.136,0.11097,0.0,0.0
2367,591.5,106.853,111.846,117.135,100.182,98.6622,0.00250932,0.512864,20.4577,119.796,0.139103,0.0,0.0
2376,593.75,106.742,111.934,113.688,100.308,99.0859,0.00254339,0.514624,20.4544,119.475,0.111519,0.0,0.0
2385,596,106.815,112.253,118.253,100.4,98.5631,0.00271445,0.517546,20.4487,119.145,0.168025,0.0,0.0
2394,598.25,107.089,112.447,113.86,100.475,99.5533,0.00295762,0.521958,20.4432,118.805,0.0838202,0.0,0.0
2403,600.5,107.228,112.647,119.384,100.528,99.1445,0.00310403,0.525641,20.4374,118.434,0.126117,0.0,0.0
2412,602.75,107.848,112.858,114.061,100.568,98.8563,0.00313053,0.530684,20.4332,118.134,0.156221,0.0,0.0
2421,605,108.138,113.484,115.547,100.553,99.2116,0.00322139,0.53589,20.4274,117.724,0.122236,0.0,0.0
2430,607.25,107.659,113.131,118.356,100.529,99.9537,0.00326942,0.537913,20.4241,117.393,0.0522518,0.0,0.0
2439,609.5,108.248,113.515,119.437,100.486,99.2233,0.00329179,0.54093,20.4204,117.053,0.115055,0.0,0.0
2448,611.75,108.313,113.495,114.241,100.47,98.7955,0.00328863,0.544326,20.4166,116.703,0.152964,0.0,0.0
2457,614,108.741,113.873,114.744,100.413,97.7467,0.00330848,0.548633,20.4141,116.322,0.244875,0.0,0.0
2466,616.25,109.209,113.956,114.599,100.308,97.9732,0.00323061,0.552253,20.4096,115.922,0.214363,0.0,0.0
2475,618.5,109.132,114.664,112.998,100.205,96.9704,0.00313057,0.554703,20.4065,115.652,0.298568,0.0,0.0
2484,620.75,109.178,114.524,117.194,100.056,97.8922,0.00327104,0.55778,20.4037,115.231,0.198974,0.0,0.0
2493,623,109.357,115.095,116.318,99.8984,97.6161,0.00350947,0.560749,20.3988,114.871,0.210316,0.0,0.0
2502,625.25,109.802,115.229,115.238,99.7427,97.1321,0.00365224,0.566504,20.3922,114.531,0.241361,0.0,0.0
2511,627.5,110.475,115.321,112.107,99.599,97.0722,0.00375369,0.571424,20.3868,114.171,0.233851,0.0,0.0
2520,629.75,110.515,115.674,112.648,99.4341,95.9401,0.00372784,0.575366,20.3818,113.77,0.325525,0.0,0.0
2529,632,110.656,115.942,116.224,99.2999,96.3566,0.00348656,0.579006,20.3777,113.42,0.273815,0.0,0.0
2538,634.25,111.06,116.192,115.79,99.2125,96.9303,0.00328845,0.581571,20.3746,113.04,0.211778,0.0,0.0
2547,636.5,110.947,116.495,116.776,99.1298,96.1333,0.00329743,0.582796,20.3717,112.689,0.279333,0.0,0.0
2556,638.75,111.061,116.421,117.182,99.0979,96.199,0.0033571,0.584225,20.3679,112.319,0.270178,0.0,0.0
2565,641,111.261,116.758,114.933,99.064,96.6241,0.00343138,0.589322,20.3614,111.989,0.226938,0.0,0.0
2574,643.25,111.87,117.092,115.412,99.0911,95.2917,0.00357241,0.594158,20.3547,111.628,0.355798,0.0,0.0
2583,645.5,112.116,117.213,123.714,99.1043,96.7768,0.00358839,0.596952,20.3516,111.258,0.216276,0.0,0.0
2592,647.75,112.401,117.734,110.246,99.1434,94.9711,0.00349781,0.598735,20.3504,110.878,0.39127,0.0,0.0
2601,650,112.226,118.215,114.789,99.1961,95.7942,0.00362405,0.599213,20.3499,110.537,0.317571,0.0,0.0
2610,652.25,112.475,118.395,116.36,99.2644,94.6928,0.00379569,0.598828,20.3504,110.127,0.429072,0.0,0.0
2619,654.5,112.875,118.252,112.712,99.341,96.0878,0.00387208,0.597987,20.3507,109.777,0.303008,0.0,0.0
2628,656.75,112.807,118.463,115.462,99.4269,96.643,0.00394547,0.597119,20.352,109.426,0.258435,0.0,0.0
2637,659,112.671,118.692,119.528,99.5379,95.1233,0.0040095,0.59337,20.3539,109.096,0.412833,0.0,0.0
2646,661.25,112.693,118.41,116.588,99.6073,95.397,0.00386595,0.592532,20.3546,108.616,0.393027,0.0,0.0
2655,663.5,112.595,118.767,115.001,99.662,96.6214,0.00356361,0.594898,20.3542,108.265,0.281968,0.0,0.0
2664,665.75,112.627,118.558,117.715,99.7371,95.3615,0.00335396,0.594451,20.354,107.965,0.408269,0.0,0.0
2673,668,112.867,118.891,119,99.7978,95.406,0.00334794,0.591325,20.3555,107.565,0.409551,0.0,0.0
2682,670.25,112.685,118.94,115.637,99.8517,95.6542,0.00344253,0.586612,20.3619,107.184,0.390828,0.0,0.0
2691,672.5,113.035,118.761,116.883,99.9104,95.2372,0.00353793,0.582222,20.3678,106.864,0.435933,0.0,0.0
2700,674.75,112.533,118.676,117.695,99.9775,96.5539,0.0035959,0.576758,20.3728,106.464,0.317087,0.0,0.0
2709,677,112.452,119.037,118.829,100.031,95.9784,0.00355622,0.569672,20.3791,106.123,0.376322,0.0,0.0
2718,679.25,112.448,118.676,117.707,100.066,97.2942,0.00347218,0.565537,20.383,105.783,0.255608,0.0,0.0
2727,681.5,112.419,118.724,115.198,100.116,97.1829,0.00333559,0.559295,20.3892,105.563,0.27059,0.0,0.0
2736,683.75,112.578,118.515,118.327,100.168,97.7098,0.00324328,0.550331,20.4014,105.263,0.226105,0.0,0.0
2745,686,111.582,118.437,117.067,100.165,96.8592,0.00317066,0.537338,20.4163,104.922,0.305457,0.0,0.0
2754,688.25,111.85,118.273,124.66,100.181,98.0246,0.00298067,0.523646,20.433,104.582,0.19807,0.0,0.0
2763,690.5,110.961,118.099,116.984,100.209,98.0255,0.00276939,0.511663,20.4487,104.302,0.200525,0.0,0.0
2772,692.75,110.988,117.824,115.328,100.207,98.2164,0.00263084,0.497082,20.4661,103.982,0.182635,0.0,0.0
2781,695,110.741,117.632,118.584,100.212,98.5059,0.0024336,0.479008,20.4859,103.741,0.156247,0.0,0.0
2790,697.25,109.923,116.793,116.174,100.221,98.6487,0.00228086,0.466402,20.4991,103.461,0.143939,0.0,0.0
2799,699.5,109.376,116.608,121.328,100.24,99.9712,0.00217412,0.45748,20.5088,103.241,0.024413,0.0,0.0
2808,701.75,109.062,116.224,119.761,100.231,100.196,0.00216083,0.447835,20.5189,102.941,0.00314766,0.0,0.0
2817,704,108.546,115.275,121.174,100.229,99.6884,0.00226463,0.434992,20.5346,102.64,0.0492484,0.0,0.0
2826,706.25,108.004,115.372,120.683,100.237,100.643,0.0023139,0.416783,20.5561,102.48,-0.0367177,0.0,0.0
2835,708.5,107.703,114.749,119.245,100.249,100.37,0.00209965,0.406725,20.5678,102.24,-0.0109217,0.0,0.0
2844,710.75,107.084,113.905,117.94,100.24,101.663,0.00178493,0.4021,20.5769,102,-0.128224,0.0,0.0
2853,713,106.708,113.409,121.916,100.243,101.197,0.00160117,0.393531,20.5884,101.77,-0.0862361,0.0,0.0
2862,715.25,106.443,112.945,118.73,100.24,101.511,0.00143074,0.386168,20.596,101.609,-0.11467,0.0,0.0
2871,717.5,105.494,112.63,122.546,100.233,101.221,0.00131058,0.379937,20.6029,101.359,-0.0892477,0.0,0.0
2880,719.75,105.19,112.453,121.68,100.226,101.943,0.00133981,0.373509,20.6105,101.179,-0.15457,0.0,0.0
2889,722,104.975,111.42,123.424,100.237,101.146,0.00137019,0.368911,20.6152,100.989,-0.082198,0.0,0.0
2898,724.25,104.22,110.856,123.322,100.213,100.452,0.00125798,0.367531,20.6171,100.709,-0.0216846,0.0,0.0
2907,726.5,103.596,110.42,121.703,100.211,101.446,0.00128161,0.3657,20.619,100.529,-0.111385,0.0,0.0
2916,728.75,103.156,110.571,123.063,100.21,101.349,0.0014128,0.362883,20.6208,100.268,-0.102845,0.0,0.0
2925,731,103.241,109.719,124.445,100.207,101.327,0.00131382,0.359289,20.6228,100.118,-0.101117,0.0,0.0
2934,733.25,102.493,109.557,120.5,100.187,101.749,0.00102482,0.353151,20.6294,99.878,-0.140746,0.0,0.0
2943,735.5,102.055,108.916,120.496,100.173,100.528,0.000959444,0.349174,20.6339,99.6778,-0.0321708,0.0,0.0
2952,737.75,101.628,108.753,122.337,100.157,101.611,0.00111503,0.345979,20.6384,99.5577,-0.131166,0.0,0.0
2961,740,101.339,108.553,121.35,100.132,101.202,0.00115067,0.342235,20.6415,99.3375,-0.0967229,0.0,0.0
2970,742.25,101.406,107.625,119.742,100.086,101.53,0.00103168,0.339312,20.6441,99.0973,-0.130363,0.0,0.0
2979,744.5,101.073,107.846,120.85,100.052,102.007,0.000906511,0.336674,20.6483,98.9572,-0.176133,0.0,0.0
2988,746.75,100.482,107.162,124.03,100.024,102.687,0.000893181,0.333372,20.6525,98.8471,-0.239138,0.0,0.0
2997,749,100.377,107.031,118.258,99.9539,101.709,0.000984031,0.328967,20.6569,98.6469,-0.158401,0.0,0.0
3006,751.25,100.263,106.561,120.285,99.9064,101.978,0.00101299,0.324965,20.6617,98.4567,-0.186788,0.0,0.0
3015,753.5,99.0624,105.665,120.039,99.8281,101.64,0.000885513,0.32002,20.667,98.3066,-0.163651,0.0,0.0
3024,755.75,99.2387,105.247,123.805,99.7583,101.664,0.000763055,0.312284,20.6751,98.1364,-0.17224,0.0,0.0
3033,758,98.9693,105.411,125.274,99.6732,102.032,0.000675681,0.305867,20.6827,97.9262,-0.212832,0.0,0.0
3042,760.25,97.8841,104.941,125.535,99.5974,101.723,0.000660589,0.301849,20.6873,97.716,-0.192208,0.0,0.0
3051,762.5,98.5624,104.078,123.937,99.492,101.651,0.000674812,0.297935,20.6917,97.696,-0.195396,0.0,0.0
3060,764.75,97.7708,103.68,122.828,99.4153,102.243,0.000545651,0.29322,20.6973,97.5059,-0.255268,0.0,0.0
3069,767,97.4385,103.125,128.068,99.3295,101.906,0.000313241,0.287217,20.7041,97.3257,-0.23306,0.0,0.0
3078,769.25,97.5107,103.427,126.159,99.272,102.902,0.000223803,0.280774,20.7127,97.1455,-0.326806,0.0,0.0
3087,771.5,96.716,102.587,125.82,99.2037,103.002,0.000286999,0.273814,20.7202,97.1455,-0.341943,0.0,0.0
3096,773.75,96.2859,102.454,126.112,99.1494,102.642,0.000314861,0.267237,20.7269,96.9654,-0.315043,0.0,0.0
3105,776,95.734,101.688,123.24,99.1175,102.657,0.000201766,0.261317,20.7313,96.8453,-0.319331,0.0,0.0
3114,778.25,95.4657,101.695,124.574,99.0843,103.479,0.000195152,0.25572,20.7366,96.7352,-0.394896,0.0,0.0
3123,780.5,95.0298,100.596,126.253,99.0779,104.062,0.00023488,0.249418,20.7457,96.6351,-0.446661,0.0,0.0
3132,782.75,94.5421,100.516,125.4,99.0416,103.085,0.000217405,0.242187,20.7528,96.475,-0.364103,0.0,0.0
3141,785,93.7218,99.9864,127.819,99.0528,103.738,0.000129193,0.236281,20.7591,96.4549,-0.420535,0.0,0.0
3150,787.25,93.8752,99.8552,124.064,99.0568,103.244,6.18287e-05,0.230534,20.7667,96.2948,-0.376731,0.0,0.0
3159,789.5,92.9712,98.7856,126.465,99.0512,103.948,0.000120387,0.222057,20.7793,96.1447,-0.439111,0.0,0.0
3168,791.75,92.7114,98.4745,127.716,99.0552,104.014,0.000125972,0.212168,20.7893,96.1146,-0.444498,0.0,0.0
3177,794,91.7834,98.0585,129.254,99.0859,104.45,-1.18566e-05,0.205383,20.7964,96.0045,-0.47977,0.0,0.0
3186,796.25,91.3713,97.516,128.998,99.1023,104.259,-7.76943e-05,0.197314,20.8071,95.9345,-0.461657,0.0,0.0
3195,798.5,90.9508,96.5634,127.056,99.1119,104.596,-2.89521e-05,0.189184,20.8145,95.8544,-0.49009,0.0,0.0
3204,800.75,90.0515,95.9769,129.985,99.1502,105.016,-8.19742e-06,0.182357,20.8211,95.7143,-0.523013,0.0,0.0
3213,803,89.629,95.3596,126.632,99.2061,104.58,1.55809e-05,0.175553,20.8297,95.6943,-0.480033,0.0,0.0
3222,805.25,88.8585,94.9137,124.961,99.2552,104.194,2.71543e-06,0.167571,20.8378,95.6242,-0.441885,0.0,0.0
3231,807.5,88.9758,94.4825,130.052,99.3067,105.216,2.4744e-05,0.161242,20.8481,95.6342,-0.526008,0.0,0.0
3240,809.75,88.1503,93.8849,133.074,99.3706,105.182,0.000132489,0.154338,20.8575,95.5842,-0.517234,0.0,0.0
3249,812,87.558,92.9251,126.356,99.4624,105.075,0.000272908,0.148906,20.8641,95.4941,-0.499591,0.0,0.0
3258,814.25,86.3705,92.6906,128.801,99.5319,104.972,0.000401469,0.144304,20.869,95.364,-0.484262,0.0,0.0
3267,816.5,86.2139,91.5705,131.801,99.6333,105.41,0.000457474,0.140445,20.872,95.404,-0.512938,0.0,0.0
3276,818.75,86.0469,91.4918,128.474,99.7455,105.328,0.000463475,0.138166,20.8744,95.394,-0.495619,0.0,0.0
3285,821,85.1891,90.817,131.798,99.8385,105.509,0.000554917,0.136984,20.8768,95.364,-0.502762,0.0,0.0
3294,823.25,85.1212,90.3105,131.27,99.916,105.932,0.00069592,0.135662,20.8773,95.334,-0.532064,0.0,0.0
3303,825.5,84.8247,89.9821,133.293,100.02,105.931,0.000712484,0.133575,20.8787,95.2138,-0.522537,0.0,0.0
3312,827.75,84.0835,89.4327,130.29,100.126,105.87,0.000605506,0.132541,20.8794,95.2439,-0.507653,0.0,0.0
3321,830,83.996,88.9183,132.799,100.19,106.105,0.00044324,0.131937,20.8801,95.1538,-0.521958,0.0,0.0
3330,832.25,83.1963,88.0213,127.931,100.259,106.143,0.000298979,0.131135,20.8813,95.1538,-0.519005,0.0,0.0
3339,834.5,82.628,87.812,132.557,100.338,106.243,0.000208524,0.130104,20.8831,95.2038,-0.520402,0.0,0.0
3348,836.75,82.5495,87.6823,128.433,100.391,106.304,0.000243069,0.129324,20.884,95.1238,-0.520829,0.0,0.0
3357,839,82.4748,86.7416,134.019,100.424,105.845,0.000374635,0.129048,20.8843,95.1038,-0.478383,0.0,0.0
3366,841.25,81.6773,86.3329,128.658,100.47,106.302,0.000461901,0.128471,20.8845,95.0337,-0.513474,0.0,0.0
3375,843.5,81.8796,86.5189,133.18,100.513,106.329,0.000556655,0.128365,20.8859,94.9736,-0.511879,0.0,0.0
3384,845.75,81.4591,86.3736,130.758,100.524,106.506,0.000712021,0.128428,20.8862,94.9937,-0.526078,0.0,0.0
3393,848,81.2616,85.5022,133.034,100.55,106.364,0.000777624,0.127736,20.8862,94.9036,-0.511599,0.0,0.0
3402,850.25,80.9151,85.2078,131.508,100.554,106.483,0.000670115,0.127554,20.8862,94.8736,-0.521292,0.0,0.0
3411,852.5,81.0369,84.8724,133.455,100.568,106.854,0.000629759,0.127215,20.8862,94.9436,-0.551719,0.0,0.0
3420,854.75,80.2002,84.3456,128.668,100.547,106.635,0.00056921,0.127168,20.887,94.8435,-0.534979,0.0,0.0
3429,857,80.2434,84.0581,132.242,100.554,106.278,0.000500934,0.126662,20.8879,94.7935,-0.503801,0.0,0.0
3438,859.25,79.8428,83.9241,129.196,100.536,106.357,0.000456849,0.127065,20.8883,94.8435,-0.512136,0.0,0.0
3447,861.5,79.7203,83.5755,129.931,100.51,106.626,0.000468007,0.126752,20.8884,94.7935,-0.537608,0.0,0.0
3456,863.75,79.6422,83.5417,129.242,100.476,106.438,0.00056398,0.125916,20.8885,94.7134,-0.524605,0.0,0.0
3465,866,79.8496,83.5518,132.222,100.455,106.371,0.000753315,0.125778,20.8885,94.6534,-0.520818,0.0,0.0
3474,868.25,79.5727,82.8475,133.342,100.416,106.388,0.000945227,0.12584,20.8885,94.6734,-0.525792,0.0,0.0
3483,870.5,79.3588,83.0043,130.954,100.374,106.051,0.00111613,0.125552,20.89,94.6734,-0.500657,0.0,0.0
3492,872.75,79.097,82.2475,132.277,100.33,106.481,0.0010587,0.124677,20.8919,94.6233,-0.541467,0.0,0.0
3501,875,78.9753,82.1097,129.724,100.304,106.354,0.000893068,0.124236,20.8927,94.6433,-0.532965,0.0,0.0
3510,877.25,78.5241,81.8667,133.672,100.253,106.03,0.000812265,0.124187,20.893,94.6133,-0.509779,0.0,0.0
3519,879.5,78.5446,81.6252,129.572,100.18,106.277,0.000790336,0.12378,20.8931,94.5733,-0.537608,0.0,0.0
3528,881.75,77.9917,81.1466,134.605,100.141,105.596,0.000765049,0.123943,20.8931,94.5132,-0.482748,0.0,0.0
3537,884,78.1422,81.5161,133.389,100.091,106.507,0.000801642,0.123877,20.8926,94.5132,-0.565418,0.0,0.0
3546,886.25,78.0132,81.2314,132.975,100.026,105.913,0.000856783,0.123216,20.8929,94.4231,-0.520405,0.0,0.0
3555,888.5,77.7485,80.9789,132.514,99.9735,105.887,0.000980287,0.122739,20.8931,94.3731,-0.52296,0.0,0.0
3564,890.75,78.2654,80.6903,133.564,99.9299,106.108,0.00108412,0.122253,20.8931,94.3631,-0.545904,0.0,0.0
3573,893,77.9551,80.3377,131.727,99.8736,105.758,0.00109554,0.120971,20.8931,94.3431,-0.520974,0.0,0.0
3582,895.25,77.1198,80.8854,132.372,99.8257,105.726,0.00100914,0.121896,20.8925,94.3431,-0.522551,0.0,0.0
3591,897.5,77.4035,80.296,131.146,99.789,105.557,0.000883737,0.123661,20.8915,94.3431,-0.511392,0.0,0.0
3600,899.75,75.5325,78.6656,134.07,99.7531,105.765,0.000862433,0.124723,20.8911,94.3231,-0.532549,0.0,0.0
3609,902,75.7611,78.2992,129.912,99.6984,105.645,0.00101043,0.124606,20.8909,94.223,-0.527189,0.0,0.0
3618,904.25,75.3652,78.3352,132.375,99.6572,105.873,0.00120712,0.12447,20.8909,94.203,-0.550628,0.0,0.0
3627,906.5,75.2065,78.1619,132.28,99.686,105.678,0.00127081,0.123635,20.8909,94.243,-0.531228,0.0,0.0
3636,908.75,75.5972,77.6364,132.791,99.7619,105.952,0.00114403,0.122764,20.8922,94.223,-0.547852,0.0,0.0
3645,911,74.9306,78.0191,128.524,99.8058,105.914,0.00102611,0.121772,20.8934,94.1129,-0.540597,0.0,0.0
3654,913.25,75.3019,77.9259,132.778,99.8505,105.854,0.00105834,0.120896,20.8947,94.1329,-0.531296,0.0,0.0
3663,915.5,75.1355,77.8879,131.631,99.9228,105.957,0.00109426,0.120577,20.8964,94.1729,-0.533612,0.0,0.0
3672,917.75,74.7916,77.4678,131.501,99.9323,105.848,0.00113078,0.119818,20.8972,94.1029,-0.523375,0.0,0.0
3681,920,74.8379,77.2829,131.001,99.9695,105.757,0.00119479,0.119478,20.8976,94.0929,-0.51217,0.0,0.0
3690,922.25,74.6706,76.9066,127.634,99.9866,105.931,0.00115132,0.120099,20.8977,94.0228,-0.525514,0.0,0.0
3699,924.5,75.0406,77.2658,133.276,100.009,106.209,0.00098222,0.119903,20.8978,94.0228,-0.547354,0.0,0.0
3708,926.75,74.2024,77.0459,133.231,100.009,106.008,0.000821768,0.119781,20.8973,93.9728,-0.530056,0.0,0.0
3717,929,74.2424,76.5393,132.733,100.023,105.93,0.000740282,0.120774,20.8962,93.9427,-0.522131,0.0,0.0
3726,931.25,74.3335,76.1986,132.239,100.032,106.243,0.00086928,0.12095,20.8957,93.9527,-0.548215,0.0,0.0
3735,933.5,74.403,76.8176,133.285,100.041,106.04,0.00105053,0.12076,20.8967,93.9027,-0.529971,0.0,0.0
3744,935.75,74.2983,76.3108,135.27,100.016,105.737,0.00116324,0.120418,20.8974,93.8526,-0.506251,0.0,0.0
3753,938,73.7764,76.1255,131.614,100.018,105.908,0.00123007,0.120489,20.8961,93.8226,-0.520748,0.0,0.0
3762,940.25,73.9861,76.2406,131.991,100.013,106.213,0.0012197,0.120584,20.8963,93.8326,-0.547377,0.0,0.0
3771,942.5,73.5014,75.9246,136.393,99.9846,106.261,0.00125335,0.119781,20.897,93.7826,-0.554007,0.0,0.0
3780,944.75,73.4168,76.1053,133.661,99.9806,106.39,0.00128844,0.119567,20.8973,93.7025,-0.56547,0.0,0.0
3789,947,73.9857,76.33,134.547,99.9671,105.987,0.00126378,0.119128,20.8974,93.7326,-0.532167,0.0,0.0
3798,949.25,73.3857,75.436,130.418,99.9443,106.222,0.00126911,0.119206,20.8974,93.6925,-0.5544,0.0,0.0
3807,951.5,73.5009,75.6617,134.571,99.9339,106.01,0.00131133,0.119082,20.8974,93.6825,-0.537117,0.0,0.0
3816,953.75,73.4527,75.702,137.453,99.912,106.028,0.00138251,0.11893,20.8974,93.6625,-0.540703,0.0,0.0
3825,956,73.1157,75.386,134.258,99.9104,105.494,0.00141434,0.118549,20.8982,93.7025,-0.494894,0.0,0.0
3834,958.25,73.069,75.4868,132.066,99.89,106.059,0.00129531,0.118135,20.8992,93.6425,-0.54533,0.0,0.0
3843,960.5,73.4329,75.0468,135.076,99.8736,106.328,0.00121654,0.117879,20.8991,93.5824,-0.569859,0.0,0.0
3852,962.75,72.5837,75.6288,134.02,99.8788,106.341,0.00127898,0.117964,20.8989,93.6425,-0.570504,0.0,0.0
3861,965,73.0198,74.9704,135.052,99.8549,105.964,0.00141057,0.11791,20.8988,93.5824,-0.540375,0.0,0.0
3870,967.25,72.8621,75.3495,133.758,99.8441,105.836,0.00150945,0.118193,20.8988,93.5023,-0.530407,0.0,0.0
3879,969.5,72.9458,75.0705,133.568,99.8205,105.892,0.00144312,0.118489,20.8988,93.5023,-0.537315,0.0,0.0
3888,971.75,72.6189,74.8958,132.697,99.8397,105.99,0.00136182,0.118324,20.8988,93.5524,-0.543962,0.0,0.0
3897,974,72.6867,74.673,132.798,99.8102,105.997,0.00135214,0.118104,20.8988,93.5023,-0.547274,0.0,0.0
3906,976.25,72.6925,74.7171,130.81,99.7762,106.215,0.00126486,0.118242,20.8988,93.4323,-0.5691,0.0,0.0
3915,978.5,72.4329,74.3693,127.925,99.7714,105.786,0.00120597,0.118687,20.8988,93.4123,-0.532656,0.0,0.0
3924,980.75,72.8937,75.1231,131.697,99.7587,105.837,0.00120133,0.118956,20.8988,93.4123,-0.538237,0.0,0.0
3933,983,72.4571,74.4864,135.152,99.7275,106.045,0.00120874,0.117981,20.8995,93.3422,-0.558986,0.0,0.0
3942,985.25,72.4646,74.3109,129.524,99.7,105.907,0.00127074,0.117239,20.9007,93.3322,-0.54963,0.0,0.0
3951,987.5,72.4516,74.5163,135.538,99.6752,105.68,0.00129483,0.118168,20.9011,93.3422,-0.532367,0.0,0.0
3960,989.75,72.2818,74.3822,131.474,99.6441,105.595,0.00132114,0.11877,20.9005,93.3022,-0.527917,0.0,0.0
3969,992,71.8463,74.3115,131.914,99.6189,105.748,0.00146965,0.118819,20.8996,93.2621,-0.543323,0.0,0.0
3978,994.25,72.4804,74.4256,134.65,99.6077,105.825,0.00155329,0.119324,20.8993,93.2421,-0.551007,0.0,0.0
3987,996.5,71.8933,74.5591,130.069,99.597,105.757,0.00163851,0.118901,20.9005,93.2822,-0.546104,0.0,0.0
3996,998.75,72.1855,74.488,133.528,99.583,105.622,0.00172724,0.117987,20.901,93.1921,-0.535788,0.0,0.0
4005,1001,72.1568,74.3104,137.417,99.5682,105.676,0.00171145,0.117811,20.9013,93.152,-0.541753,0.0,0.0
4014,1003.25,72.0911,73.8818,134.731,99.5834,105.966,0.00159413,0.117585,20.9013,93.1821,-0.565345,0.0,0.0
4023,1005.5,72.0095,74.4908,131.936,99.5826,105.892,0.001583,0.118183,20.9003,93.1721,-0.559073,0.0,0.0
4032,1007.75,72.4618,73.9763,135.786,99.5818,105.71,,0.118556,,93.122,-0.54346,0.0,0.0
4041,1010,72.3953,73.6295,134.193,99.6161,106.17,,0.118415,,93.072,-0.579816,0.0,0.0
4050,1012.25,71.8582,73.7893,131.583,99.6445,105.844,,,,93.112,-0.549278,0.0,0.0
4059,1014.5,71.9083,73.9192,133.156,99.6577,106.026,,,,93.0419,-0.563703,0.0,0.0
4068,1016.75,71.8316,73.962,130.254,99.6864,106.186,,,,93.0319,-0.574827,0.0,0.0
4075,1018.5,71.8531,74.0394,133.148,99.7195,105.997,,,,93.0219,-0.555541,0.0,0.0