File: 01_Data/Oak_Flooring/Cone/Oak_Flooring_Cone_HF50Scan_220914_R2.csv
Names,Time,Stack TC,Smoke TC,Exh Press,Smoke Comp,Smoke Meas,CO Meter,CO2 Meter,O2 Meter,Sample Mass,Ext Coeff,Start Test,Flame Verif
Chan Gain,,500,500,1,1,1,1,1,1,1,1,1.0,1.0
Offset,,0,0,0.139139,0,0,0,0,0,0,0,0.0,0.0
Gain,,1,1,25.011,13.0826,14.7555,1,1,1,1.00088,1.03743,1.0,1.0
Units,sec,C,C,Pa,%,%,%,%,%,g,/m,,
Baseline,,50.9733,52.2691,140.137,99.6411,103.2,-0.000583954,0.0487682,20.9976,-446.795,-0.319331,,
11,2.5,49.287,50.2999,145.501,100.106,103.861,-0.00025856,0.0504761,20.9967,221.945,-0.335103,0.0,0.0
22,5.25,49.3983,50.5372,137.092,100.191,104.173,-0.000240344,0.0507068,20.9967,221.985,-0.354676,0.0,0.0
33,8,48.7278,50.6575,143.354,100.249,104.001,-0.000335991,0.0505278,20.9967,221.915,-0.334303,0.0,0.0
44,10.75,49.3766,50.7454,139.048,100.293,104.041,-0.000449218,0.0501178,20.9967,221.855,-0.333859,0.0,0.0
55,13.5,49.7458,50.8409,141.599,100.336,103.885,-0.000705755,0.049932,20.9967,221.795,-0.316386,0.0,0.0
66,16.25,49.7827,50.7936,140.046,100.369,103.073,-0.000857467,0.0498263,20.9964,221.845,-0.24198,0.0,0.0
77,19,49.7296,50.9448,142.232,100.398,103.36,-0.000819177,0.0499922,20.9955,221.795,-0.264551,0.0,0.0
88,21.75,49.7964,51.0355,141.351,100.406,102.855,-0.000641133,0.0503247,20.9952,221.705,-0.219314,0.0,0.0
99,24.5,49.4834,51.0697,139.64,100.368,103.917,-0.000442461,0.0509046,20.9951,221.605,-0.316289,0.0,0.0
110,27.25,50.0458,50.9244,141.889,100.351,102.053,-0.000144497,0.0516822,20.9946,221.545,-0.153034,0.0,0.0
121,30,49.796,51.0877,140.532,100.304,102.093,0.000203205,0.0528886,20.9929,221.525,-0.160957,0.0,0.0
132,32.75,50.2272,51.7224,141.192,100.243,100.601,0.000793636,0.0596762,20.973,221.435,-0.0324593,0.0,0.0
143,35.5,50.6445,51.635,128.883,100.158,102.626,0.00161776,0.158491,20.8412,221.085,-0.221509,0.0,1.0
154,38.25,53.0006,51.7145,119.94,100.055,99.9645,0.00267906,0.327861,20.6666,220.494,0.00819336,0.0,1.0
165,41,57.3833,54.7453,114.93,99.9635,99.4137,0.00367717,0.464269,20.4607,219.954,0.0501839,0.0,0.0
176,43.75,61.3546,57.8144,111.881,99.8685,98.532,0.00448577,0.566686,20.3488,219.493,0.122599,0.0,0.0
187,46.5,65.3353,61.2765,113.055,99.7383,97.3189,0.00506959,0.618067,20.2997,218.973,0.223469,0.0,0.0
198,49.25,68.5871,64.5213,116.756,99.6046,96.5286,0.0053724,0.645566,20.2763,218.382,0.285459,0.0,0.0
209,52,71.1197,67.1568,114.113,99.5079,96.3819,0.00570154,0.656242,20.2724,217.792,0.290477,0.0,0.0
220,54.75,73.678,69.5012,115.963,99.4616,95.8545,0.00585102,0.652043,20.2854,217.391,0.336165,0.0,0.0
231,57.5,75.5178,71.9454,120.12,99.4021,96.6669,0.00583031,0.644872,20.297,216.831,0.253922,0.0,0.0
242,60.25,77.4332,73.7948,123.93,99.3391,96.8682,0.00558397,0.630406,20.3171,216.321,0.229215,0.0,0.0
253,63,78.4524,75.3573,120.044,99.2772,97.9147,0.0051587,0.609869,20.3473,215.73,0.125758,0.0,0.0
264,65.75,79.716,77.3549,122.5,99.2348,96.8277,0.00486229,0.587516,20.3781,215.28,0.223473,0.0,0.0
275,68.5,80.5987,78.4987,125.855,99.1885,97.7526,0.00468875,0.569646,20.4021,214.869,0.132708,0.0,0.0
286,71.25,81.1384,79.6414,123.486,99.159,98.3416,0.00449863,0.552195,20.4258,214.399,0.07533,0.0,0.0
297,74,81.4421,80.3507,120.091,99.1143,98.1065,0.00441519,0.538211,20.4462,213.928,0.0930027,0.0,0.0
308,76.75,82.1438,81.3009,118.286,99.072,98.5973,0.00427217,0.522596,20.466,213.448,0.0437007,0.0,0.0
319,79.5,82.0971,82.2116,124.416,99.06,99.7308,0.00399634,0.509053,20.4794,212.998,-0.061414,0.0,0.0
330,82.25,82.1603,82.7065,120.595,99.032,98.7811,0.0038262,0.497668,20.4938,212.677,0.0230908,0.0,0.0
341,85,82.4866,83.3206,122.131,99.0264,99.7641,0.00366213,0.4877,20.5042,212.227,-0.0675361,0.0,0.0
352,87.75,82.6139,83.5197,122.357,99.038,99.8938,0.00341867,0.477346,20.5164,211.666,-0.0782941,0.0,0.0
363,90.5,82.302,84.1297,127.149,99.05,100.62,0.00334277,0.466395,20.5306,211.216,-0.143124,0.0,0.0
374,93.25,82.485,84.7441,120.632,99.0684,99.6709,0.00340508,0.461332,20.5374,210.936,-0.0551776,0.0,0.0
385,96,82.6555,84.7795,125.828,99.0823,100.373,0.00348173,0.45269,20.5488,210.515,-0.117766,0.0,0.0
396,98.75,82.7065,85.5788,127.091,99.1099,100.526,0.00342857,0.44477,20.5572,210.125,-0.129066,0.0,0.0
407,101.5,82.7433,85.5129,123.813,99.1139,99.751,0.00348761,0.439308,20.5623,209.685,-0.0583127,0.0,0.0
418,104.25,82.448,85.2663,122.905,99.1294,100.107,0.00366546,0.433333,20.5666,209.254,-0.08928,0.0,0.0
429,107,82.8823,85.8837,120.237,99.1642,100.133,0.00366425,0.428106,20.5725,208.994,-0.0884661,0.0,0.0
440,109.75,82.2951,85.9895,122.91,99.1877,101.567,0.00349075,0.421631,20.5798,208.554,-0.215724,0.0,0.0
451,112.5,82.0163,86.1936,123.096,99.2265,101.036,0.00321488,0.416915,20.5872,208.173,-0.164438,0.0,0.0
462,115.25,82.1788,85.7177,123.299,99.2692,100.538,0.00306018,0.413251,20.5927,207.673,-0.115593,0.0,0.0
473,118,81.9291,86.0537,130.608,99.2967,100.944,0.0030998,0.408523,20.5982,207.313,-0.149718,0.0,0.0
484,120.75,81.5829,85.9587,130.953,99.3546,101.068,0.00323763,0.404345,20.602,207.092,-0.155571,0.0,0.0
495,123.5,81.3824,85.9932,123.133,99.4065,101,0.00315876,0.398831,20.6077,206.692,-0.144693,0.0,0.0
506,126.25,81.5263,85.8522,124.317,99.4504,101.367,0.00293215,0.396761,20.6112,206.272,-0.173681,0.0,0.0
517,129,80.7644,85.7999,123.514,99.49,101.244,0.00281023,0.393623,20.6148,205.841,-0.159062,0.0,0.0
528,131.75,80.6889,85.5529,125.478,99.5642,101.593,0.00272851,0.390791,20.6167,205.501,-0.183586,0.0,0.0
539,134.5,80.8387,85.8903,130.411,99.6748,102.037,0.00256518,0.390112,20.6173,205.291,-0.213128,0.0,0.0
550,137.25,80.89,85.7611,122.742,99.7331,101.937,0.00237299,0.387408,20.6204,204.9,-0.198888,0.0,0.0
561,140,80.9609,86.1606,126.874,99.8138,101.758,0.00234169,0.3842,20.6232,204.46,-0.175518,0.0,0.0
572,142.75,80.7748,85.4832,127.314,99.894,101.726,0.00240385,0.383872,20.6244,204.05,-0.165426,0.0,0.0
583,145.5,80.4956,85.5931,126.884,99.9846,101.92,0.00238618,0.383124,20.625,203.829,-0.174438,0.0,0.0
594,148.25,80.2033,85.7166,127.616,100.058,101.561,0.00245137,0.380692,20.6275,203.479,-0.135689,0.0,0.0
605,151,79.8991,85.6329,123.711,100.135,102.56,0.00245913,0.379343,20.6292,203.089,-0.217741,0.0,0.0
616,153.75,80.4497,85.7439,127.423,100.189,102.954,0.00232741,0.37755,20.6301,202.658,-0.247782,0.0,0.0
627,156.5,79.8552,85.3059,127.365,100.243,102.489,0.00213483,0.374488,20.633,202.268,-0.201678,0.0,0.0
638,159.25,79.1972,85.591,124.815,100.301,102.704,0.00223255,0.373254,20.6339,201.948,-0.21544,0.0,0.0
649,162,79.7867,85.2447,125.407,100.324,102.401,0.00234203,0.371323,20.6363,201.688,-0.186519,0.0,0.0
660,164.75,80.0191,85.3697,127.652,100.328,102.994,0.00232743,0.368777,20.6402,201.347,-0.23867,0.0,0.0
671,167.5,79.8096,85.0842,125.994,100.299,103.154,0.00237476,0.366058,20.6434,201.017,-0.255434,0.0,0.0
682,170.25,79.7812,85.1601,126.573,100.285,102.521,0.00241572,0.362364,20.6482,200.657,-0.200676,0.0,0.0
693,173,79.4696,85.1175,123.629,100.252,102.492,0.00229468,0.358929,20.6513,200.366,-0.201044,0.0,0.0
704,175.75,79.3346,84.7845,126.581,100.223,102.899,0.00234099,0.357697,20.6531,199.996,-0.239767,0.0,0.0
715,178.5,79.0586,84.851,124.611,100.152,103.149,0.00236987,0.356174,20.6559,199.626,-0.26833,0.0,0.0
726,181.25,78.653,84.7748,131.804,100.086,103.746,0.00241439,0.353509,20.6605,199.235,-0.326885,0.0,0.0
737,184,78.686,84.278,124.511,100.033,102.635,0.00248337,0.349291,20.6636,199.005,-0.233705,0.0,0.0
748,186.75,78.4329,84.2101,128.876,99.9659,102.629,0.00237937,0.34724,20.6657,198.595,-0.239253,0.0,0.0
759,189.5,78.5432,83.8316,125.678,99.8988,102.039,0.00222031,0.342464,20.6687,198.275,-0.192943,0.0,0.0
770,192.25,78.0345,83.3838,128.928,99.8162,101.967,0.00224717,0.341315,20.6701,197.934,-0.193967,0.0,0.0
781,195,77.8113,83.8481,126.739,99.7651,102.332,0.00241364,0.341925,20.6721,197.644,-0.231202,0.0,0.0
792,197.75,78.0975,83.4674,126.327,99.7179,102.116,0.00240726,0.340052,20.6735,197.374,-0.216218,0.0,0.0
803,200.5,77.6946,83.3896,128.08,99.6668,102.537,0.00228144,0.335331,20.6781,197.044,-0.258408,0.0,0.0
814,203.25,77.717,83.1698,126.765,99.6269,102.905,0.00207168,0.335318,20.6791,196.713,-0.294607,0.0,0.0
825,206,77.6188,82.6871,131.575,99.5834,103.039,0.00196218,0.335954,20.6795,196.323,-0.310442,0.0,0.0
836,208.75,77.5404,82.9172,128.33,99.5674,102.823,0.00193467,0.334504,20.6814,196.033,-0.292752,0.0,0.0
847,211.5,77.7303,82.6927,131.065,99.5622,102.523,0.00173364,0.332033,20.6847,195.772,-0.266685,0.0,0.0
858,214.25,77.0946,83.2195,129.592,99.5387,103.225,0.00175452,0.328871,20.6881,195.392,-0.330899,0.0,0.0
869,217,77.5102,82.6447,127.494,99.5123,102.427,0.00180515,0.324408,20.692,195.022,-0.262689,0.0,0.0
880,219.75,76.9028,82.0913,131.156,99.5011,102.414,0.00183911,0.322469,20.6922,194.721,-0.262552,0.0,0.0
891,222.5,76.7923,81.9811,129.614,99.5039,102.377,0.00180565,0.323686,20.6919,194.531,-0.259054,0.0,0.0
902,225.25,76.4526,82.0956,126.641,99.5091,102.814,0.00170147,0.323379,20.6934,194.211,-0.297284,0.0,0.0
913,228,76.0397,81.9715,126.445,99.5027,102.319,0.00183498,0.32023,20.6975,193.891,-0.253999,0.0,0.0
924,230.75,76.0312,81.6092,128.528,99.4972,102.355,0.00199234,0.317062,20.7005,193.55,-0.257714,0.0,0.0
935,233.5,76.0538,81.1543,127.936,99.5023,102.921,0.00195937,0.315366,20.7025,193.27,-0.307425,0.0,0.0
946,236.25,76.5004,81.2373,131.265,99.5027,102.819,0.00183079,0.31353,20.7042,193.04,-0.298386,0.0,0.0
957,239,76.2281,81.2519,127.972,99.5083,102.368,0.00172355,0.311194,20.7071,192.72,-0.257852,0.0,0.0
968,241.75,76.0071,81.099,131.067,99.5031,103.159,0.00167058,0.309523,20.7095,192.399,-0.328351,0.0,0.0
979,244.5,76.47,81.0763,129.312,99.4908,103.428,0.00154877,0.306805,20.7121,192.049,-0.353207,0.0,0.0
990,247.25,75.9504,80.9043,128.696,99.4904,102.802,0.00152475,0.304678,20.7126,191.749,-0.298004,0.0,0.0
1001,250,75.5937,80.3719,132.312,99.4972,102.715,0.00158952,0.304352,20.7126,191.559,-0.289646,0.0,0.0
1012,252.75,75.5207,80.499,124.974,99.4964,102.73,0.00168648,0.303272,20.7147,191.278,-0.291036,0.0,0.0
1023,255.5,75.2698,80.2178,125.504,99.4768,102.905,0.00155029,0.301344,20.7169,190.888,-0.308329,0.0,0.0
1034,258.25,75.3724,79.7601,131.096,99.4788,103.036,0.00138024,0.299623,20.7185,190.598,-0.319767,0.0,0.0
1045,261,75.1349,80.155,127.493,99.5004,102.594,0.0013604,0.298208,20.7186,190.388,-0.278615,0.0,0.0
1056,263.75,75.1399,79.9793,129.141,99.4924,102.857,0.00126085,0.298073,20.7187,190.067,-0.302682,0.0,0.0
1067,266.5,74.9487,79.9515,129.07,99.4896,103.59,0.00134619,0.29682,20.72,189.777,-0.367569,0.0,0.0
1078,269.25,74.9528,80.182,131.702,99.482,103.24,0.00156359,0.294999,20.722,189.417,-0.337474,0.0,0.0
1089,272,74.8266,79.3462,126.252,99.4924,103.1,0.00175078,0.292879,20.725,189.117,-0.324132,0.0,0.0
1100,274.75,74.8831,79.3115,128.243,99.5135,103.521,0.00191052,0.291111,20.7264,188.916,-0.359284,0.0,0.0
1111,277.5,74.3999,79.4598,129.869,99.5075,102.694,0.00191973,0.291153,20.7269,188.666,-0.286821,0.0,0.0
1122,280.25,74.671,79.1247,127.153,99.5199,102.896,0.00189814,0.291766,20.7266,188.366,-0.303628,0.0,0.0
1133,283,74.505,79.2826,131.175,99.5123,103.306,0.00201699,0.291761,20.7271,188.006,-0.340451,0.0,0.0
1144,285.75,74.6329,79.2574,126.626,99.5307,103.141,0.00205384,0.289655,20.7293,187.705,-0.324242,0.0,0.0
1155,288.5,74.5177,78.7749,124.693,99.5542,102.938,0.00200715,0.288234,20.7304,187.495,-0.304193,0.0,0.0
1166,291.25,74.4026,78.5658,129.364,99.5614,102.836,0.00189441,0.287707,20.7312,187.185,-0.294534,0.0,0.0
1177,294,74.3184,78.7097,125.952,99.579,102.915,0.00172312,0.288251,20.7321,186.845,-0.2999,0.0,0.0
1188,296.75,74.5769,78.5356,130.244,99.5982,103.293,0.00158484,0.289887,20.7318,186.574,-0.331455,0.0,0.0
1199,299.5,74.2342,78.3933,129.691,99.6345,103.393,0.00154647,0.289478,20.7317,186.334,-0.336939,0.0,0.0
1210,302.25,74.0551,78.7968,128.059,99.6636,103.715,0.001623,0.288191,20.7311,186.064,-0.362572,0.0,0.0
1221,305,74.3241,78.5154,128.216,99.6964,103.48,0.00159417,0.288787,20.7309,185.784,-0.338935,0.0,0.0
1232,307.75,74.3271,78.1228,129.55,99.7167,103.145,0.0015943,0.289913,20.7297,185.373,-0.307644,0.0,0.0
1243,310.5,74.1004,78.7053,128.844,99.7627,103.388,0.00160179,0.290857,20.7289,185.143,-0.324804,0.0,0.0
1254,313.25,73.9969,78.1919,129.249,99.8126,103.449,0.00157516,0.290841,20.7286,184.883,-0.325682,0.0,0.0
1265,316,74.5044,78.2543,128.615,99.8501,103.671,0.00166717,0.29076,20.7299,184.653,-0.341769,0.0,0.0
1276,318.75,73.9001,78.3157,130.618,99.8804,103.343,0.00177079,0.290401,20.73,184.342,-0.310103,0.0,0.0
1287,321.5,73.8952,78.2123,129.491,99.9228,103.733,0.00170626,0.29025,20.7304,184.042,-0.340563,0.0,0.0
1298,324.25,74.6268,78.3574,128.565,99.9671,103.867,0.0017354,0.291998,20.7294,183.642,-0.348253,0.0,0.0
1309,327,74.2717,78.4897,127.595,100.03,103.473,0.00183114,0.292245,20.73,183.442,-0.307961,0.0,0.0
1320,329.75,74.4402,77.9504,127.406,100.087,103.461,0.00169339,0.291112,20.7318,183.181,-0.301699,0.0,0.0
1331,332.5,74.3337,78.3544,130.636,100.134,104.223,0.00168174,0.288506,20.7336,182.831,-0.364303,0.0,0.0
1342,335.25,74.2028,78.0074,127.787,100.176,104.159,0.00170578,0.286557,20.7343,182.531,-0.354872,0.0,0.0
1353,338,74.2453,77.4411,127.389,100.234,103.93,0.00171557,0.287346,20.7347,182.331,-0.329532,0.0,0.0
1364,340.75,74.4539,78.2861,124.791,100.272,104.273,0.00162502,0.28802,20.7343,182.01,-0.356045,0.0,0.0
1375,343.5,74.128,77.7285,130.268,100.3,104.499,0.00160968,0.28613,20.7349,181.77,-0.373253,0.0,0.0
1386,346.25,73.5944,78.4342,126.677,100.328,104.67,0.00178043,0.286712,20.7357,181.37,-0.385534,0.0,0.0
1397,349,74.0339,78.2831,130.31,100.344,104.117,0.00186888,0.286748,20.736,181.079,-0.335917,0.0,0.0
1408,351.75,74.3065,78.2271,131.869,100.373,103.973,0.00164811,0.286538,20.7373,180.899,-0.320632,0.0,0.0
1419,354.5,74.1296,77.7918,123.864,100.376,104.44,0.00157135,0.285348,20.7381,180.589,-0.361195,0.0,0.0
1430,357.25,73.8463,77.9282,131.056,100.372,104.094,0.00173071,0.284064,20.7379,180.329,-0.33134,0.0,0.0
1441,360,74.1659,77.7897,127.725,100.337,104.381,0.00174393,0.287078,20.7353,180.009,-0.359607,0.0,0.0
1452,362.75,74.4467,77.0758,127.882,100.327,104.553,0.00154555,0.289049,20.732,179.738,-0.375497,0.0,0.0
1463,365.5,74.1998,77.3235,126.56,100.32,104.176,0.00158806,0.287585,20.7311,179.488,-0.343205,0.0,0.0
1474,368.25,74.0701,77.4411,128.551,100.262,103.958,0.00191959,0.286619,20.7319,179.198,-0.329399,0.0,0.0
1485,371,74.2229,77.4084,131.184,100.209,103.589,0.00203843,0.286457,20.7322,178.868,-0.301915,0.0,0.0
1496,373.75,74.3801,77.5418,127.892,100.139,104.108,0.00185277,0.285933,20.7323,178.557,-0.353685,0.0,0.0
1507,376.5,74.135,77.3589,127.745,100.076,103.71,0.00182322,0.286787,20.7309,178.337,-0.324557,0.0,0.0
1518,379.25,74.2885,77.1385,131.375,100.01,104.047,0.00175,0.287757,20.7303,178.047,-0.360135,0.0,0.0
1529,382,74.6208,77.4483,128.661,99.9112,103.439,0.00162858,0.286598,20.7322,177.737,-0.315745,0.0,0.0
1540,384.75,74.6887,77.8603,129.911,99.7934,104.106,0.00159116,0.285126,20.7347,177.376,-0.385042,0.0,0.0
1551,387.5,74.2103,77.5224,128.905,99.6768,103.707,0.00164851,0.286381,20.7343,177.136,-0.360697,0.0,0.0
1562,390.25,74.0159,77.7946,128.572,99.5798,103.342,0.00193523,0.287766,20.7331,176.916,-0.337457,0.0,0.0
1573,393,73.9662,77.617,129.928,99.4768,103.785,0.0021588,0.287394,20.7339,176.596,-0.385811,0.0,0.0
1584,395.75,74.672,78.1788,128.901,99.3578,102.451,0.00201849,0.288025,20.7337,176.315,-0.27895,0.0,0.0
1595,398.5,73.9933,77.3395,126.205,99.244,103.467,0.0017198,0.289022,20.7325,175.925,-0.379211,0.0,0.0
1606,401.25,74.3793,77.5513,124.927,99.1486,103.122,0.00152551,0.289864,20.7321,175.655,-0.357615,0.0,0.0
1617,404,74.352,77.1887,131.877,99.0624,103.014,0.00155196,0.290593,20.732,175.445,-0.355952,0.0,0.0
1628,406.75,74.4294,77.5249,129.548,98.9566,102.996,0.00158505,0.29128,20.732,175.184,-0.364125,0.0,0.0
1639,409.5,74.4138,77.3755,130.242,98.858,103.19,0.00166651,0.291666,20.7276,174.864,-0.390331,0.0,0.0
1650,412.25,74.4488,77.3104,128.743,98.7785,101.763,0.00178171,0.291727,20.7272,174.514,-0.270882,0.0,0.0
1661,415,74.2782,77.6681,130.031,98.7146,102.727,0.00175193,0.291422,20.7268,174.243,-0.362539,0.0,0.0
1672,417.75,73.9527,77.8079,129.578,98.6763,102.464,0.00161843,0.29242,20.725,174.003,-0.342787,0.0,0.0
1683,420.5,74.4083,77.5921,125.039,98.6256,102.392,0.00166439,0.293393,20.7214,173.733,-0.341103,0.0,0.0
1694,423.25,74.4037,77.8552,130.571,98.6172,102.731,0.001754,0.295847,20.7185,173.393,-0.371884,0.0,0.0
1705,426,75.1904,77.7878,128.377,98.6112,102.403,0.00171869,0.29527,20.7189,173.082,-0.343349,0.0,0.0
1716,428.75,74.568,77.6942,129.205,98.6428,102.861,0.00168084,0.296886,20.7198,172.892,-0.381085,0.0,0.0
1727,431.5,75.0702,77.7766,128.368,98.6847,101.722,0.00162739,0.297505,20.7194,172.582,-0.275825,0.0,0.0
1738,434.25,74.4308,77.8851,125.626,98.7402,101.689,0.00153112,0.297625,20.7188,172.312,-0.267767,0.0,0.0
1749,437,74.8235,77.9714,133.292,98.8172,102.754,0.00154458,0.298466,20.7181,171.901,-0.355478,0.0,0.0
1760,439.75,75.0571,78.3164,126.213,98.8907,103.197,0.0015209,0.299934,20.716,171.621,-0.387913,0.0,0.0
1771,442.5,75.0687,78.6,126.517,99.0173,103.321,0.00142898,0.301426,20.714,171.421,-0.387187,0.0,0.0
1782,445.25,74.805,78.5513,127.385,99.1179,103.085,0.00142141,0.301828,20.7134,171.121,-0.357138,0.0,0.0
1793,448,75.6172,77.7464,127.881,99.2289,103.393,0.00152674,0.302006,20.7131,170.81,-0.374064,0.0,0.0
1804,450.75,75.3385,78.6107,126.332,99.3291,103.263,0.00158627,0.30236,20.7123,170.46,-0.353457,0.0,0.0
1815,453.5,74.768,78.9011,127.156,99.4393,102.186,0.00149961,0.304743,20.7106,170.17,-0.247984,0.0,0.0
1826,456.25,75.5782,78.3075,129.728,99.5499,103.467,0.00132702,0.306487,20.7112,169.95,-0.35121,0.0,0.0
1837,459,75.5175,78.038,130.719,99.6377,103.665,0.00126559,0.306494,20.7113,169.659,-0.360555,0.0,0.0
1848,461.75,74.9809,78.6256,124.572,99.7096,103.471,0.00135967,0.30874,20.71,169.279,-0.337019,0.0,0.0
1859,464.5,75.5315,78.8799,128.884,99.7631,103.526,0.0014442,0.30953,20.7094,168.979,-0.336929,0.0,0.0
1870,467.25,75.6391,77.855,127.902,99.807,103.561,0.00157717,0.310346,20.7092,168.749,-0.335971,0.0,0.0
1881,470,75.4318,78.5759,128.041,99.8273,104.023,0.00165349,0.311808,20.7077,168.498,-0.374702,0.0,0.0
1892,472.75,75.6173,78.4642,123.001,99.817,103.562,0.00158288,0.313511,20.7051,168.168,-0.335179,0.0,0.0
1903,475.5,75.6459,78.7883,130.904,99.7623,103.308,0.00136669,0.315801,20.7026,167.778,-0.317823,0.0,0.0
1914,478.25,75.306,79.0105,126.349,99.7056,103.194,0.00125695,0.317056,20.701,167.447,-0.312995,0.0,0.0
1925,481,75.861,78.7326,128.489,99.6409,103.507,0.00123678,0.318229,20.7011,167.257,-0.346378,0.0,0.0
1936,483.75,75.8422,78.7829,129.487,99.5435,102.874,0.00130417,0.31953,20.6998,166.977,-0.299484,0.0,0.0
1947,486.5,76.0182,79.36,127.171,99.4329,103.672,0.00144356,0.320796,20.6992,166.657,-0.379953,0.0,0.0
1958,489.25,76.0287,79.2822,130.017,99.3259,102.965,0.00160179,0.321385,20.6976,166.276,-0.327441,0.0,0.0
1969,492,75.8848,79.3768,124.897,99.236,103.127,0.00163245,0.323777,20.6951,165.986,-0.35003,0.0,0.0
1980,494.75,76.6821,79.8982,123.377,99.1953,102.959,0.00156524,0.327598,20.6914,165.766,-0.338932,0.0,0.0
1991,497.5,76.634,79.3341,125.252,99.153,102.175,0.00147421,0.329329,20.689,165.496,-0.273177,0.0,0.0
2002,500.25,76.732,79.967,123.616,99.1119,102.564,0.00140697,0.331798,20.6863,165.085,-0.311538,0.0,0.0
2013,503,76.9294,79.8791,124.761,99.1151,103.175,0.00132426,0.3319,20.684,164.755,-0.365342,0.0,0.0
2024,505.75,77.3366,79.8552,122.931,99.2145,102.356,0.00135227,0.333376,20.6833,164.525,-0.283644,0.0,0.0
2035,508.5,77.1805,79.8728,123.579,99.2951,102.971,0.00138293,0.333854,20.6816,164.165,-0.330815,0.0,0.0
2046,511.25,77.0776,80.2711,123.689,99.351,102.373,0.00128847,0.334744,20.6807,163.884,-0.27265,0.0,0.0
2057,514,77.2954,79.9743,124.623,99.4057,102.74,0.0013105,0.338287,20.6762,163.524,-0.300206,0.0,0.0
2068,516.75,77.3641,80.2164,123.887,99.4544,102.252,0.00149554,0.340675,20.6735,163.194,-0.252449,0.0,0.0
2079,519.5,77.6194,81.0121,128.106,99.5071,102.851,0.00143217,0.341707,20.6727,162.964,-0.300774,0.0,0.0
2090,522.25,77.3989,80.5318,125.098,99.559,101.89,0.00136007,0.343608,20.6697,162.663,-0.210604,0.0,0.0
2101,525,77.6213,80.7525,126.571,99.599,102.759,0.00143495,0.345941,20.6685,162.343,-0.284208,0.0,0.0
2112,527.75,78.2956,80.9412,128.233,99.6109,102.644,0.00147892,0.346397,20.6669,161.923,-0.27298,0.0,0.0
2123,530.5,78.1246,81.0878,127.587,99.6185,103.051,0.00142354,0.347596,20.6654,161.552,-0.308306,0.0,0.0
2134,533.25,78.325,81.5758,129.054,99.6405,101.913,0.00149295,0.349907,20.6631,161.372,-0.205213,0.0,0.0
2145,536,78.5711,81.3179,126.046,99.6301,102.492,0.00155702,0.351296,20.6624,161.052,-0.257724,0.0,0.0
2156,538.75,78.5191,81.6859,128.48,99.6313,103.293,0.0016167,0.349921,20.6621,160.671,-0.328428,0.0,0.0
2167,541.5,78.0211,81.2326,129.464,99.603,102.281,0.00155615,0.355921,20.6557,160.311,-0.241433,0.0,0.0
2178,544.25,78.4222,81.2837,127.095,99.5906,102.498,0.00161314,0.3567,20.6542,160.001,-0.261856,0.0,0.0
2189,547,78.6507,81.6486,123.507,99.5826,103.172,0.00172753,0.355897,20.6546,159.681,-0.322279,0.0,0.0
2200,549.75,79.144,81.3673,125.194,99.5658,102.691,0.00185272,0.358837,20.6518,159.36,-0.281292,0.0,0.0
2211,552.5,78.6872,82.1712,127.912,99.5419,101.821,0.00184574,0.363449,20.6462,159.01,-0.205977,0.0,0.0
2222,555.25,78.8576,81.9052,124.086,99.4848,102.298,0.00166512,0.369169,20.6411,158.61,-0.2538,0.0,0.0
2233,558,79.3032,82.1111,123.152,99.4369,102.569,0.0017602,0.370524,20.6379,158.369,-0.282267,0.0,0.0
2244,560.75,79.7091,82.6957,129.607,99.3782,102.655,0.00187331,0.374474,20.634,158.059,-0.295227,0.0,0.0
2255,563.5,79.6454,82.6085,128.023,99.3199,102.854,0.00178348,0.37562,20.634,157.729,-0.318233,0.0,0.0
2266,566.25,79.8507,82.636,127.145,99.2648,102.498,0.0017398,0.375674,20.6335,157.289,-0.291673,0.0,0.0
2277,569,79.4209,83.233,122.568,99.1969,102.665,0.0016718,0.378745,20.6305,156.968,-0.312759,0.0,0.0
2288,571.75,80.1799,83.1513,126.498,99.141,102.028,0.00159887,0.380046,20.6268,156.668,-0.261192,0.0,0.0
2299,574.5,80.1973,83.5005,127.708,99.0827,101.796,0.00166687,0.383723,20.6239,156.308,-0.245876,0.0,0.0
2310,577.25,81.1023,83.913,131.554,99.0432,102.071,0.00167585,0.382725,20.6215,155.977,-0.27399,0.0,0.0
2321,580,80.1776,83.4633,123.348,99.0823,102.171,0.00163156,0.386354,20.6171,155.637,-0.279384,0.0,0.0
2332,582.75,80.9831,84.1447,126.065,99.0839,102.266,0.00158069,0.391631,20.6132,155.267,-0.287656,0.0,0.0
2343,585.5,81.3368,83.8347,123.398,99.1266,101.794,0.00165938,0.390475,20.6134,154.956,-0.241683,0.0,0.0
2354,588.25,81.1315,84.5396,125.885,99.1674,102.201,0.00187748,0.394143,20.6082,154.636,-0.274184,0.0,0.0
2365,591,81.1489,85.0413,124.503,99.2269,102.024,0.00208579,0.398433,20.6054,154.216,-0.252955,0.0,0.0
2376,593.75,81.7876,84.4627,121.967,99.2812,101.748,0.00220349,0.400555,20.6056,153.855,-0.223321,0.0,0.0
2387,596.5,81.9447,84.9177,126.823,99.3399,101.708,0.00208915,0.405145,20.6013,153.525,-0.214398,0.0,0.0
2398,599.25,82.3942,85.5914,123.636,99.4273,101.953,0.00196425,0.407083,20.599,153.205,-0.228324,0.0,0.0
2409,602,82.3185,84.8436,124.108,99.496,102.305,0.00197844,0.408319,20.5983,152.805,-0.253338,0.0,0.0
2420,604.75,82.4144,85.1654,120.349,99.5594,101.306,0.00220666,0.40792,20.5958,152.334,-0.158253,0.0,0.0
2431,607.5,82.2034,85.7309,124.733,99.6046,101.977,0.00231972,0.413204,20.5905,152.024,-0.214204,0.0,0.0
2442,610.25,82.4453,85.6203,122.293,99.6696,101.177,0.00228253,0.416748,20.586,151.704,-0.136611,0.0,0.0
2453,613,82.8875,85.7674,123.766,99.708,101.794,0.00231095,0.420921,20.5815,151.363,-0.188391,0.0,0.0
2464,615.75,83.1617,86.213,126.491,99.7207,100.825,0.00224483,0.425877,20.5765,151.013,-0.100259,0.0,0.0
2475,618.5,83.5389,86.1484,122.242,99.7395,101.862,0.0022043,0.427086,20.5738,150.493,-0.191589,0.0,0.0
2486,621.25,83.3769,86.9298,123.759,99.7391,101.676,0.0022046,0.427446,20.5723,150.112,-0.174996,0.0,0.0
2497,624,83.4683,86.8936,123.914,99.7535,101.631,0.00232668,0.434406,20.5643,149.852,-0.169693,0.0,0.0
2508,626.75,83.6198,86.7794,128.276,99.7455,101.92,0.00252181,0.440027,20.5585,149.432,-0.196271,0.0,0.0
2519,629.5,84.3607,86.8847,125.19,99.7403,101.481,0.00237272,0.442691,20.5567,149.001,-0.157418,0.0,0.0
2530,632.25,84.2099,87.8092,127.321,99.7127,101.622,0.00237906,0.441312,20.5575,148.541,-0.172603,0.0,0.0
2541,635,84.7174,87.5961,127.224,99.7155,101.615,0.00254881,0.44445,20.5542,148.241,-0.171743,0.0,0.0
2552,637.75,85.1231,88.0735,124.43,99.712,102.159,0.00242084,0.448132,20.5526,147.9,-0.220616,0.0,0.0
2563,640.5,84.7345,87.8143,123.804,99.6844,101.26,0.00216899,0.442756,20.5522,147.56,-0.142711,0.0,0.0
2574,643.25,85.2595,88.3081,120.161,99.674,101.12,0.00226093,0.454218,20.5469,147.049,-0.131105,0.0,0.0
2585,646,84.7992,88.5888,126.482,99.6577,101.613,0.00227685,0.454762,20.5441,146.619,-0.176826,0.0,0.0
2596,648.75,85.3732,88.5568,122.225,99.6636,100.693,0.00238964,0.457739,20.539,146.329,-0.0935536,0.0,0.0
2607,651.5,85.9461,89.2613,125.407,99.6589,101.5,0.00246553,0.46512,20.5281,145.949,-0.166629,0.0,0.0
2618,654.25,85.9587,89.1288,122.56,99.66,101.345,0.00261097,0.475511,20.5185,145.508,-0.15254,0.0,0.0
2629,657,85.9196,89.1821,125.24,99.6596,101.08,0.00286619,0.478843,20.5147,145.028,-0.128769,0.0,0.0
2640,659.75,86.6679,89.8597,122.212,99.66,101.258,0.00307354,0.478616,20.5135,144.637,-0.144773,0.0,0.0
2651,662.5,86.6753,90.1823,121.824,99.6712,101.455,0.00290842,0.485744,20.5074,144.297,-0.161421,0.0,0.0
2662,665.25,87.2412,90.7085,124.024,99.6832,100.378,0.00287827,0.486318,20.5061,143.847,-0.0631944,0.0,0.0
2673,668,87.5133,90.7737,125.88,99.6924,100.428,0.00317097,0.488813,20.5023,143.436,-0.0668864,0.0,0.0
2684,670.75,87.3076,91.052,119.538,99.6928,100.922,0.0033314,0.492467,20.5002,142.966,-0.111503,0.0,0.0
2695,673.5,88.0022,91.2859,125.094,99.7044,100.576,0.00339518,0.494156,20.4988,142.536,-0.0791678,0.0,0.0
2706,676.25,88.0113,91.7085,118.431,99.7199,100.37,0.00353072,0.496276,20.4967,142.135,-0.059107,0.0,0.0
2717,679,88.2408,91.8411,120.84,99.7263,100.595,0.00357916,0.499084,20.4933,141.695,-0.0789145,0.0,0.0
2728,681.75,88.6557,92.5141,125.203,99.7303,100.794,0.00355577,0.50174,20.4905,141.234,-0.0965387,0.0,0.0
2739,684.5,88.9585,92.4883,122.753,99.7387,100.507,0.00344995,0.507371,20.4843,140.764,-0.0697976,0.0,0.0
2750,687.25,89.4829,92.8645,119.361,99.7527,100.054,0.00334543,0.51104,20.4785,140.364,-0.0274547,0.0,0.0
2761,690,89.9921,93.3369,122.089,99.7607,100.188,0.00308872,0.512568,20.4761,139.943,-0.0388823,0.0,0.0
2772,692.75,89.8867,93.6363,119.239,99.767,100.36,0.00308174,0.513349,20.473,139.493,-0.053911,0.0,0.0
2783,695.5,90.4708,94.2042,122.384,99.7654,100.179,0.00323932,0.518345,20.4671,139.022,-0.0376267,0.0,0.0
2794,698.25,90.448,94.0626,123.437,99.7714,100.289,0.00338597,0.521587,20.4646,138.592,-0.047056,0.0,0.0
2805,701,90.2423,94.2719,120.276,99.7794,100.471,0.00355526,0.519084,20.4653,138.202,-0.0629017,0.0,0.0
2816,703.75,90.626,94.2113,120.428,99.7938,98.8891,0.00362366,0.520215,20.463,137.791,0.0828732,0.0,0.0
2827,706.5,90.706,94.7547,122.002,99.799,99.7753,0.00374171,0.523217,20.4603,137.311,0.00215749,0.0,0.0
2838,709.25,90.952,95.0388,122.787,99.7858,99.3201,0.00381351,0.529392,20.455,136.77,0.0425735,0.0,0.0
2849,712,91.4214,95.5214,117.584,99.781,99.864,0.00392702,0.536932,20.4475,136.35,-0.00756882,0.0,0.0
2860,714.75,91.6045,95.5388,123.441,99.7826,100.2,0.00398804,0.539074,20.4407,135.99,-0.0380243,0.0,0.0
2871,717.5,91.77,95.5181,119.627,99.7706,99.7816,0.00384493,0.542572,20.437,135.529,-0.00100353,0.0,0.0
2882,720.25,91.8632,96.0644,120.458,99.7439,100.63,0.00379538,0.546281,20.4333,135.039,-0.0805298,0.0,0.0
2893,723,92.293,96.5852,119.564,99.7259,99.1971,0.00377546,0.54721,20.4324,134.518,0.0483809,0.0,0.0
2904,725.75,92.6798,96.8929,120.264,99.7036,99.7028,0.00386756,0.547147,20.4323,134.098,6.72598e-05,0.0,0.0
2915,728.5,93.168,97.4047,117.443,99.6988,98.904,0.00375211,0.547663,20.4315,133.678,0.0728368,0.0,0.0
2926,731.25,92.9611,97.3605,124.884,99.6796,100.122,0.00347124,0.548673,20.4304,133.207,-0.0402633,0.0,0.0
2937,734,93.1266,97.3676,116.254,99.6385,98.4641,0.00359797,0.549558,20.4281,132.697,0.107903,0.0,0.0
2948,736.75,93.4615,97.8655,116.642,99.6121,99.7515,0.00382281,0.550785,20.4259,132.236,-0.01272,0.0,0.0
2959,739.5,93.483,98.0616,119.039,99.601,98.8157,0.00399635,0.553207,20.4229,131.856,0.0720285,0.0,0.0
2970,742.25,93.8392,98.1655,119.598,99.5682,98.6473,0.00408864,0.556097,20.4182,131.406,0.0845597,0.0,0.0
2981,745,93.826,98.6012,116.305,99.5391,97.5337,0.00415264,0.557051,20.4171,130.955,0.185209,0.0,0.0
2992,747.75,94.3995,98.9563,119.078,99.5055,100.185,0.00403076,0.556653,20.4184,130.405,-0.0618978,0.0,0.0
3003,750.5,94.1381,98.7608,118.365,99.4612,99.0449,0.00376728,0.557827,20.416,129.994,0.038167,0.0,0.0
3014,753.25,94.4651,98.9384,122.125,99.4397,98.646,0.00366741,0.556216,20.4175,129.554,0.0729261,0.0,0.0
3025,756,94.4192,99.3634,117.012,99.4181,99.3147,0.00374631,0.55295,20.4197,129.104,0.00947223,0.0,0.0
3036,758.75,94.5437,99.353,122.448,99.3786,98.4992,0.00380167,0.551947,20.4182,128.643,0.0808875,0.0,0.0
3047,761.5,94.6211,99.2177,117.632,99.3295,98.4199,0.00374569,0.555036,20.4154,128.143,0.0837138,0.0,0.0
3058,764.25,94.74,99.5082,121.538,99.3059,97.9935,0.00380297,0.554233,20.4166,127.722,0.121072,0.0,0.0
3069,767,94.7034,99.3322,116.701,99.2736,97.9939,0.00384411,0.551405,20.4182,127.302,0.118065,0.0,0.0
3080,769.75,94.7249,99.5929,119.035,99.2424,98.4911,0.00386069,0.549448,20.4195,126.872,0.0691609,0.0,0.0
3091,772.5,94.7274,99.4604,119.181,99.2177,97.9295,0.00396351,0.549057,20.4199,126.381,0.118923,0.0,0.0
3102,775.25,94.8577,99.6817,118.472,99.1833,98.1497,0.00405333,0.54921,20.4203,125.881,0.0953326,0.0,0.0
3113,778,95.3685,99.983,123.645,99.1714,98.8175,0.00415487,0.545837,20.423,125.591,0.0325261,0.0,0.0
3124,780.75,94.8513,99.7855,115.554,99.1462,97.2708,0.00410797,0.544366,20.4278,125.11,0.173791,0.0,0.0
3135,783.5,95.0913,100.103,121.212,99.141,97.4184,0.00397087,0.539951,20.4338,124.72,0.159507,0.0,0.0
3146,786.25,95.0623,99.7867,122.716,99.0967,98.2069,0.0038399,0.532129,20.4424,124.179,0.0820787,0.0,0.0
3157,789,94.9712,100.216,117.751,99.1386,98.0115,0.00389176,0.527449,20.4486,123.749,0.104056,0.0,0.0
3168,791.75,94.9724,100.256,120.295,99.2049,97.4509,0.00386527,0.528412,20.4468,123.409,0.162341,0.0,0.0
3179,794.5,94.8155,99.7672,124.314,99.2844,98.1795,0.00370237,0.527884,20.4455,123.008,0.101841,0.0,0.0
3190,797.25,94.4543,99.6992,118.705,99.3514,97.9795,0.00348119,0.525944,20.4466,122.558,0.126538,0.0,0.0
3201,800,94.6714,99.8343,123.923,99.3882,97.8197,0.00343028,0.520427,20.4525,122.067,0.144761,0.0,0.0
3212,802.75,94.8404,100.304,123.389,99.464,98.5068,0.0035035,0.510074,20.4623,121.767,0.0880006,0.0,0.0
3223,805.5,94.0299,99.6766,122.605,99.5518,98.2114,0.00389883,0.503669,20.4681,121.397,0.123363,0.0,0.0
3234,808.25,94.1954,99.2818,118.191,99.6265,98.6766,0.00424928,0.501405,20.4719,120.997,0.0871851,0.0,0.0
3245,811,94.2337,99.4037,124.422,99.6888,99.0332,0.00408323,0.491514,20.4854,120.556,0.0600416,0.0,0.0
3256,813.75,93.956,99.5733,122.702,99.7627,98.3888,0.00391848,0.478973,20.4965,120.176,0.126189,0.0,0.0
3267,816.5,93.796,98.756,122.905,99.8201,98.6374,0.00376592,0.478573,20.4974,119.886,0.10847,0.0,0.0
3278,819.25,93.5727,97.8359,123.857,99.8565,99.5124,0.00337738,0.476047,20.4988,119.525,0.0314158,0.0,0.0
3289,822,93.0274,98.8835,117.823,99.8888,99.6623,0.00303964,0.467203,20.511,119.175,0.020659,0.0,0.0
3300,824.75,92.6732,98.001,125.723,99.8988,99.0089,0.00304381,0.455463,20.5225,118.765,0.0814272,0.0,0.0
3311,827.5,92.368,98.0683,128.693,99.8844,99.0125,0.00317547,0.444413,20.5344,118.474,0.0797874,0.0,0.0
3322,830.25,91.871,98.1094,125.001,99.8661,100.085,0.0031299,0.431161,20.5502,118.164,-0.0199009,0.0,0.0
3333,833,91.5229,98.1162,123.725,99.8225,100.768,0.00309313,0.42036,20.5647,117.904,-0.0858095,0.0,0.0
3344,835.75,91.4043,96.9782,123.919,99.7291,100.505,0.00311366,0.410684,20.5753,117.564,-0.0705498,0.0,0.0
3355,838.5,90.7403,96.7996,120.024,99.6253,100.584,0.002966,0.40412,20.5816,117.203,-0.0871599,0.0,0.0
3366,841.25,90.1545,96.2357,123.062,99.4999,101.481,0.00256382,0.396415,20.5919,116.983,-0.179415,0.0,0.0
3377,844,90.0115,96.0736,123.605,99.5075,100.757,0.00225734,0.386674,20.6038,116.733,-0.113555,0.0,0.0
3388,846.75,89.5585,95.342,125.12,99.5666,101.8,0.00213291,0.377022,20.6118,116.453,-0.201863,0.0,0.0
3399,849.5,88.8455,95.1043,123.659,99.6581,100.996,0.00192797,0.368689,20.6223,116.102,-0.121372,0.0,0.0
3410,852.25,88.5601,94.0549,122.448,99.7607,100.749,0.00171246,0.359491,20.6318,115.862,-0.0897446,0.0,0.0
3421,855,87.7098,93.4967,124.236,99.8689,101.412,0.00173551,0.348739,20.6453,115.682,-0.139515,0.0,0.0
3432,857.75,87.3251,93.8966,123.406,99.9759,101.829,0.00175586,0.337139,20.6604,115.452,-0.167113,0.0,0.0
3443,860.5,86.655,92.6476,128.784,100.07,102.13,0.00180643,0.327672,20.6724,115.211,-0.185383,0.0,0.0
3454,863.25,86.2087,92.0491,129.036,100.154,101.9,0.00179694,0.315079,20.6863,114.931,-0.157274,0.0,0.0
3465,866,85.5521,91.4296,130.782,100.21,102.029,0.00175473,0.302914,20.6983,114.761,-0.163691,0.0,0.0
3476,868.75,85.139,90.964,136.27,100.28,103.255,0.00171864,0.29621,20.7039,114.611,-0.266103,0.0,0.0
3487,871.5,84.6273,90.5422,129.022,100.323,103.086,0.00166423,0.288868,20.7092,114.431,-0.247257,0.0,0.0
3498,874.25,83.9233,89.9004,127.242,100.344,103.231,0.00165322,0.281194,20.7162,114.211,-0.258169,0.0,0.0
3509,877,82.9513,89.2726,128.704,100.342,103.411,0.00147621,0.274856,20.7242,113.99,-0.27421,0.0,0.0
3520,879.75,82.6449,88.3798,130.685,100.334,103.6,0.00122509,0.269365,20.7325,113.8,-0.291491,0.0,0.0
3531,882.5,81.9059,87.9235,125.796,100.307,103.399,0.0012376,0.264451,20.739,113.71,-0.276331,0.0,0.0
3542,885.25,81.1775,87.3236,130.797,100.278,104.109,0.00148251,0.258847,20.7455,113.54,-0.341149,0.0,0.0
3553,888,80.8242,86.7156,129.675,100.198,103.762,0.00174615,0.254172,20.7507,113.31,-0.318076,0.0,0.0
3564,890.75,80.5814,86.0388,129.299,100.109,103.877,0.00178315,0.249574,20.755,113.16,-0.336227,0.0,0.0
3575,893.5,79.6808,85.1498,130.702,100.026,103.564,0.00159597,0.245263,20.7601,113.03,-0.31636,0.0,0.0
3586,896.25,78.7551,85.3469,128.806,99.9315,103.91,0.00165541,0.240474,20.7655,112.919,-0.355314,0.0,0.0
3597,899,78.363,84.8324,125.568,99.7994,103.758,0.00175923,0.234511,20.7723,112.789,-0.354017,0.0,0.0
3608,901.75,78.3647,83.4161,130.73,99.6836,103.708,0.00178115,0.229429,20.7764,112.569,-0.360157,0.0,0.0
3619,904.5,77.9255,83.6898,130.675,99.5439,102.511,0.0016464,0.225069,20.7819,112.439,-0.267283,0.0,0.0
3630,907.25,77.2807,82.9742,132.998,99.4213,103.821,0.0015149,0.220846,20.7865,112.399,-0.394047,0.0,0.0
3641,910,76.5352,82.2669,131.15,99.2851,103.265,0.00139535,0.215252,20.7938,112.259,-0.35768,0.0,0.0
3652,912.75,76.8769,81.173,130.803,99.165,103.18,0.00126598,0.209773,20.8,112.119,-0.361198,0.0,0.0
3663,915.5,76.2179,81.3203,134.958,99.0304,103.425,0.00132499,0.204836,20.8062,111.939,-0.395173,0.0,0.0
3674,918.25,75.4591,80.6628,134.89,98.9358,103.623,0.00145648,0.199622,20.8115,111.828,-0.42125,0.0,0.0
3685,921,75.0798,80.1696,130.183,98.848,103.217,0.00147284,0.195556,20.8161,111.808,-0.393592,0.0,0.0
3696,923.75,74.4999,79.3675,132.153,98.7745,103.218,0.00147675,0.190944,20.82,111.708,-0.400437,0.0,0.0
3707,926.5,73.9968,78.7171,131.73,98.7194,102.902,0.00151608,0.186751,20.8259,111.548,-0.377641,0.0,0.0
3718,929.25,73.7138,78.6259,130.963,98.6571,103.14,0.00156591,0.183356,20.8289,111.448,-0.404387,0.0,0.0
3729,932,73.1008,78.0599,133.291,98.6471,103.233,0.00162562,0.18104,20.8317,111.378,-0.413529,0.0,0.0
3740,934.75,72.5305,77.3247,134.042,98.6356,102.91,0.00155029,0.177407,20.835,111.318,-0.386051,0.0,0.0
3751,937.5,72.5161,76.6967,127.074,98.6344,103.405,0.00159238,0.17344,20.8398,111.238,-0.429858,0.0,0.0
3762,940.25,71.955,76.3459,130.112,98.6483,103.456,0.00177832,0.169929,20.8428,111.058,-0.433007,0.0,0.0
3773,943,71.4482,76.0154,131.538,98.6711,102.646,0.00192238,0.16693,20.8466,110.988,-0.359409,0.0,0.0
3784,945.75,71.173,75.6688,133.565,98.6979,103.435,0.00205343,0.162054,20.8524,110.998,-0.426619,0.0,0.0
3795,948.5,70.6536,75.5967,132.722,98.7518,102.854,0.00225585,0.158597,20.8569,110.938,-0.370399,0.0,0.0
3806,951.25,70.3848,74.8868,132.935,98.8216,103.218,0.00240217,0.155161,20.8614,110.838,-0.396138,0.0,0.0
3817,954,69.9281,74.1588,131.246,98.8691,103.528,0.0023618,0.150905,20.866,110.707,-0.418997,0.0,0.0
3828,956.75,69.4568,73.2965,133.18,98.9522,103.271,0.0023897,0.146553,20.8716,110.667,-0.388727,0.0,0.0
3839,959.5,68.8784,73.2206,139.117,99.0109,103.826,0.00245622,0.143003,20.8751,110.647,-0.432167,0.0,0.0
3850,962.25,68.7768,72.8259,132.98,99.0931,104.173,0.00251142,0.140542,20.8775,110.637,-0.454911,0.0,0.0
3861,965,68.0999,72.3942,137.987,99.1833,104.108,0.00265399,0.138258,20.8795,110.577,-0.440962,0.0,0.0
3872,967.75,68.2772,71.8261,138.006,99.2416,104.467,0.00270055,0.13665,20.8824,110.487,-0.467012,0.0,0.0
3883,970.5,67.7651,71.1736,135.426,99.3195,104.655,0.00245181,0.133292,20.8864,110.447,-0.476218,0.0,0.0
3894,973.25,67.6638,71.3175,138.422,99.3566,104.701,0.00240616,0.12941,20.8917,110.477,-0.476809,0.0,0.0
3905,976,67.0338,70.4409,139.041,99.4073,103.417,0.0024992,0.127469,20.8938,110.447,-0.359892,0.0,0.0
3916,978.75,66.587,70.4616,138.482,99.4361,104.843,0.00262074,0.126465,20.8966,110.277,-0.481895,0.0,0.0
3927,981.5,66.1301,69.5702,137.003,99.468,103.741,0.00265741,0.124807,20.8986,110.197,-0.382784,0.0,0.0
3938,984.25,66.0529,69.14,136.254,99.4956,104.121,0.00269398,0.12389,20.9001,110.247,-0.413502,0.0,0.0
3949,987,65.6971,68.6948,135.67,99.5203,102.951,0.00265329,0.124401,20.8993,110.277,-0.30841,0.0,0.0
3960,989.75,65.4239,68.8864,137.142,99.5267,104.421,0.00271277,0.123809,20.8994,110.257,-0.436868,0.0,0.0
3971,992.5,65.0117,68.2682,135.193,99.5271,104.514,0.00289884,0.122502,20.9001,110.067,-0.444911,0.0,0.0
3982,995.25,65.2022,67.6702,136.198,99.5279,105.151,0.00300838,0.122128,20.9003,110.047,-0.500113,0.0,0.0
3993,998,65.0104,67.1738,134.15,99.5339,104.255,0.0030482,0.121123,20.9015,110.107,-0.421718,0.0,0.0
4004,1000.75,64.4757,67.5782,132.349,99.5335,104.34,0.00298723,0.12081,20.9024,110.047,-0.429181,0.0,0.0
4015,1003.5,64.3686,66.4383,135.947,99.5359,104.6,0.00292243,0.121225,20.9025,109.947,-0.451634,0.0,0.0
4026,1006.25,63.3476,66.5828,135.035,99.5195,104.223,0.00311396,0.120899,20.9021,109.847,-0.42028,0.0,0.0
4037,1009,63.3759,66.1715,135.421,99.5147,104.396,0.00330931,0.120081,20.902,109.897,-0.435766,0.0,0.0
4048,1011.75,63.0672,66.0292,134.141,99.5155,104.5625,0.00331934,0.120469,20.9018,109.917,-0.450204,0.0,0.0
4059,1014.5,63.3724,65.8287,135.841,99.494,104.327,0.00332374,0.120033,20.9034,109.867,-0.431695,0.0,0.0
4070,1017.25,63.1185,65.7738,134.153,99.4788,104.314,0.00338404,0.119001,20.9044,109.757,-0.431905,0.0,0.0
4081,1020,63.0879,65.0929,132.188,99.454,104.133,0.0033784,0.118786,20.9047,109.717,-0.418363,0.0,0.0
4092,1022.75,62.9364,65.3951,138.245,99.4576,104.144,0.00326917,0.118258,20.9048,109.747,-0.418979,0.0,0.0
4103,1025.5,62.4175,64.8653,133.981,99.4089,104.276,0.0032174,0.118504,20.9049,109.767,-0.434959,0.0,0.0
4114,1028.25,62.6532,64.7034,135.197,99.385,104,0.00330822,0.118264,20.9049,109.687,-0.41303,0.0,0.0
4125,1031,62.33,64.5942,135.145,99.3494,103.524,0.00345094,0.117918,20.9062,109.506,-0.37454,0.0,0.0
4136,1033.75,62.2333,64.0602,134.831,99.3203,103.942,0.00356747,0.117776,20.9063,109.516,-0.413948,0.0,0.0
4147,1036.5,62.0367,63.984,138.971,99.3107,103.516,0.00357652,0.118159,20.9068,109.576,-0.377415,0.0,0.0
4158,1039.25,61.8797,63.817,133.127,99.2656,104.111,0.003499,0.117164,20.9095,109.536,-0.433734,0.0,0.0
4169,1042,61.7825,63.7763,138.255,99.2221,103.898,0.00345506,0.116427,20.9109,109.476,-0.419088,0.0,0.0
4180,1044.75,61.7224,63.59,140.429,99.1566,103.682,0.00338406,0.11647,20.9114,109.266,-0.406144,0.0,0.0
4191,1047.5,61.3542,62.9032,134.747,99.1019,103.901,0.00358909,0.116815,20.9094,109.326,-0.430392,0.0,0.0
4202,1050.25,61.3859,62.8905,133.528,99.0424,103.733,0.00376819,0.117752,20.9087,109.366,-0.421134,0.0,0.0
4213,1053,61.3491,63.1877,135.757,98.9777,103.595,0.00354338,0.117092,20.9091,109.356,-0.414902,0.0,0.0
4224,1055.75,61.048,62.6421,133.625,98.8815,103.861,0.00336856,0.116257,20.9089,109.216,-0.447141,0.0,0.0
4235,1058.5,61.4665,62.5241,137.357,98.8304,103.053,0.00346602,0.116304,20.9086,109.196,-0.380707,0.0,0.0
4246,1061.25,61.1031,62.2472,133.049,98.7809,103.34,0.00352268,0.116628,20.9093,109.306,-0.410601,0.0,0.0
4257,1064,60.7994,62.3017,132.709,98.7202,103.617,0.00364354,0.116952,20.9096,109.216,-0.440588,0.0,0.0
4268,1066.75,60.7505,62.2974,136.886,98.6739,103.26,0.00377277,0.116123,20.9112,109.166,-0.413403,0.0,0.0
4279,1069.5,60.5208,62.2285,134.685,98.6236,102.854,0.00375019,0.115636,20.9117,109.056,-0.382256,0.0,0.0
4290,1072.25,60.5031,62.6623,133.363,98.5897,103.014,0.00356776,0.11533,20.9119,109.006,-0.399521,0.0,0.0
4301,1075,61.2372,61.8866,137.836,98.5837,103.617,0.00347615,0.114813,20.9119,109.066,-0.453144,0.0,0.0
4312,1077.75,60.5158,61.9278,134.432,98.5869,103.472,0.00359714,0.114378,20.912,109.026,-0.440106,0.0,0.0
4323,1080.5,60.5272,62.0893,137.554,98.5805,103.187,0.00378067,0.114858,20.9112,108.976,-0.415631,0.0,0.0
4334,1083.25,60.4756,61.9308,133.379,98.6016,103.058,0.00373043,0.11539,20.9097,108.876,-0.402273,0.0,0.0
4345,1086,60.2741,60.6935,132.475,98.626,102.883,0.00378544,0.114327,20.9108,108.846,-0.384585,0.0,0.0
4356,1088.75,59.8821,61.6857,134.482,98.6863,102.996,0.00371702,0.114067,20.9112,108.886,-0.388976,0.0,0.0
4367,1091.5,59.7784,61.3949,137.505,98.7358,103.613,0.00376067,0.114576,20.9113,108.866,-0.438757,0.0,0.0
4378,1094.25,59.9766,61.1783,136.84,98.7821,103.752,0.00403009,0.114476,20.9113,108.686,-0.446703,0.0,0.0
4389,1097,58.9721,61.1934,139.372,98.8548,103.656,0.00418075,0.1139,20.9113,108.626,-0.431555,0.0,0.0
4400,1099.75,59.7582,60.4455,134.737,98.9226,103.663,0.00410129,0.11414,20.9099,108.766,-0.425981,0.0,0.0
4411,1102.5,59.5568,61.0726,138.14,98.9897,102.877,0.00387575,0.11501,20.9101,108.726,-0.350528,0.0,0.0
4422,1105.25,59.6422,61.1593,136.267,99.0656,104.001,0.00382718,0.114971,20.9116,108.716,-0.442441,0.0,0.0
4433,1108,59.5257,60.4229,139.464,99.1131,103.563,0.00370952,0.114174,20.913,108.536,-0.399698,0.0,0.0
4444,1110.75,59.0345,60.7814,135.432,99.1865,103.676,0.00380339,0.113428,20.9134,108.546,-0.402842,0.0,0.0
4455,1113.5,59.3794,60.9177,137.055,99.2077,103.809,0.00401622,0.114164,20.9128,108.606,-0.412594,0.0,0.0
4466,1116.25,59.2914,60.7955,134.973,99.2376,102.918,0.00407351,0.114329,20.9118,108.616,-0.331388,0.0,0.0
4477,1119,59.3368,60.6031,136.192,99.244,104.046,0.00414021,0.113964,20.9115,108.516,-0.429962,0.0,0.0
4488,1121.75,59.2302,60.3879,130.313,99.2644,104.091,0.00416997,0.114566,20.9114,108.415,-0.432112,0.0,0.0
4499,1124.5,57.7738,58.8736,138.231,99.2764,103.48,0.00394588,0.114717,20.9113,108.385,-0.377355,0.0,0.0
4510,1127.25,57.2685,58.4148,134.925,99.2724,104.263,0.00367298,0.114389,20.9113,108.496,-0.446327,0.0,0.0
4521,1130,57.2546,58.7564,134.091,99.2656,103.981,0.0035105,0.114,20.9125,108.446,-0.422351,0.0,0.0
4532,1132.75,56.7381,58.2569,137.664,99.2348,103.519,0.00348113,0.113124,20.9133,108.235,-0.384606,0.0,0.0
4543,1135.5,57.2057,58.5692,133.033,99.2229,104.156,0.00365217,0.112057,20.9151,108.205,-0.441586,0.0,0.0
4554,1138.25,56.87,58.4244,140.786,99.1945,103.877,0.00374595,0.112263,20.9157,108.255,-0.419761,0.0,0.0
4565,1141,56.5615,58.0939,137.728,99.1758,103.593,0.00376064,0.111821,20.9163,108.275,-0.396556,0.0,0.0
4576,1143.75,56.6968,58.0222,137.721,99.1526,104.141,0.00372221,0.110985,20.9176,108.225,-0.446735,0.0,0.0
4587,1146.5,57.0171,58.0639,139.111,99.1127,103.809,0.00376067,0.111039,20.918,108.155,-0.421274,0.0,0.0
4598,1149.25,56.4114,58.2344,136.073,99.074,104.067,0.00386096,0.110941,20.9179,108.135,-0.447462,0.0,0.0
4609,1152,56.677,57.7256,139.584,99.0396,103.859,0.00412402,0.110752,20.9177,108.165,-0.432405,0.0,0.0
4620,1154.75,56.6526,57.847,135.46,99.0192,103.783,0.00433101,0.110816,20.9164,108.115,-0.427567,0.0,0.0
4631,1157.5,56.5413,57.7806,135.82,98.9761,104.031,0.00437253,0.110603,20.9172,108.105,-0.4533,0.0,0.0
4642,1160.25,56.4446,57.6229,134.517,98.9314,103.561,0.00426379,0.110043,20.9189,107.965,-0.416234,0.0,0.0
4653,1163,56.5302,58.027,135.908,98.8931,103.623,0.00429084,0.109662,20.9184,107.975,-0.42518,0.0,0.0
4664,1165.75,56.0625,57.1757,134.685,98.8795,104.242,0.00437007,0.110181,20.9178,107.975,-0.480604,0.0,0.0
4675,1168.5,56.4261,57.2724,139.505,98.8488,103.906,0.00441579,0.111372,20.9162,107.975,-0.454061,0.0,0.0
4686,1171.25,56.3538,57.5293,141.59,98.8244,103.475,0.00445225,0.111632,20.9165,107.885,-0.418482,0.0,0.0
4697,1174,56.4361,57.321,137.882,98.7961,103.617,0.00464386,0.111273,20.9172,107.815,-0.433597,0.0,0.0
4708,1176.75,56.7266,57.3791,136.471,98.7853,103.217,0.00466017,0.111376,20.9163,107.865,-0.399325,0.0,0.0
4719,1179.5,56.4307,57.4899,140.138,98.7921,103.479,0.00436102,0.111606,20.9165,107.895,-0.421777,0.0,0.0
4730,1182.25,56.1544,57.4596,135.799,98.7793,103.742,0.00420485,0.112006,20.9163,107.875,-0.446091,0.0,0.0
4741,1185,56.1137,57.5173,135.877,98.7725,103.364,0.0042238,0.111489,20.9176,107.755,-0.413515,0.0,0.0
4752,1187.75,55.7783,57.5963,140.361,98.7621,103.316,0.00424154,0.111012,20.918,107.735,-0.410229,0.0,0.0
4763,1190.5,56.1981,57.2561,135.003,98.7685,103.435,0.00413383,0.111062,20.9192,107.805,-0.420145,0.0,0.0
4774,1193.25,55.8008,57.0901,132.904,98.7593,102.73,0.0042747,0.110785,20.9201,107.755,-0.358697,0.0,0.0
4785,1196,55.6049,56.9629,135.771,98.7434,103.543,0.00443852,0.111041,20.9176,107.695,-0.431926,0.0,0.0
4796,1198.75,55.7864,57.0489,135.706,98.7314,103.743,0.00459583,0.112073,20.9148,107.625,-0.450625,0.0,0.0
4807,1201.5,55.9573,57.1749,138.381,98.7262,104.124,0.00473618,0.112535,20.9153,107.575,-0.484459,0.0,0.0
4818,1204.25,55.692,57.2033,136.321,98.7302,103.396,0.00473259,0.111837,20.9155,107.645,-0.42023,0.0,0.0
4829,1207,55.7678,57.2865,137.411,98.711,103.431,0.00472941,0.111834,20.9156,107.595,-0.425047,0.0,0.0
4840,1209.75,55.813,57.2244,136.829,98.6987,103.253,0.00460656,0.111675,20.9156,107.515,-0.410565,0.0,0.0
4851,1212.5,55.7979,57.5995,137.453,98.6811,103.936,0.0045522,0.111599,20.9156,107.435,-0.472153,0.0,0.0
4862,1215.25,55.9529,56.9694,133.568,98.6815,103.556,0.00467946,0.111496,20.9156,107.435,-0.438778,0.0,0.0
4873,1218,55.8649,57.4252,134.158,98.6815,103.161,0.0047963,0.111303,20.9159,107.475,-0.403968,0.0,0.0
4884,1220.75,56.1157,56.9906,138.155,98.6671,103.341,0.00468894,0.111526,20.9166,107.455,-0.421169,0.0,0.0
4895,1223.5,55.676,57.0965,135.204,98.6555,103.801,0.00452416,0.111541,20.9168,107.325,-0.462713,0.0,0.0
4906,1226.25,55.5868,56.7376,135.968,98.6448,103.648,0.00449423,0.111212,20.9174,107.315,-0.450276,0.0,0.0
4917,1229,55.9979,56.6568,136.611,98.6547,103.666,0.00422942,0.110079,20.9191,107.375,-0.450896,0.0,0.0
4928,1231.75,55.1538,56.475,134.785,98.6479,103.26,0.00423295,0.109173,20.9198,107.345,-0.415797,0.0,0.0
4939,1234.5,55.6891,56.5299,138.319,98.634,103.063,,0.110154,,107.294,-0.399767,0.0,0.0
4950,1237.25,56.0128,57.0694,136.052,98.6116,103.298,,,,107.194,-0.422482,0.0,0.0
4961,1240,55.6439,56.6502,132.683,98.6144,103.212,,,,107.184,-0.414684,0.0,0.0
4972,1242.75,55.7473,56.6254,139.723,98.624,103.482,,,,107.254,-0.43759,0.0,0.0
4977,1244,55.3184,56.8883,136.948,98.5988,102.7,,,,107.114,-0.370826,0.0,0.0