File: 01_Data/Oak_Flooring/Cone/Oak_Flooring_Cone_HF25Scan_220913_R2.csv
Names,Time,Stack TC,Smoke TC,Exh Press,Smoke Comp,Smoke Meas,CO Meter,CO2 Meter,O2 Meter,Sample Mass,Ext Coeff,Start Test,Flame Verif
Chan Gain,,500,500,1,1,1,1,1,1,1,1,1.0,1.0
Offset,,0,0,0.139139,0,0,0,0,0,0,0,0.0,0.0
Gain,,1,1,25.011,13.0826,14.7555,1,1,1,1.00088,1.03743,1.0,1.0
Units,sec,C,C,Pa,%,%,%,%,%,g,/m,,
Baseline,,33.3674,33.4927,154.127,99.8793,103.664,0.000490619,0.0495769,20.996,-445.993,-0.338471,,
16,3.75,32.372,33.1884,156.08,100.507,104.204,0.000501799,0.0531817,20.9964,234.657,-0.328674,0.0,0.0
32,7.75,32.5519,32.8779,151.948,100.499,104.252,0.000707331,0.0526546,20.9965,234.617,-0.33368,0.0,0.0
48,11.75,32.3261,32.25,155.263,100.484,104.531,0.000521289,0.0528195,20.9939,234.587,-0.359319,0.0,0.0
64,15.75,32.3404,32.9284,153.562,100.474,104.682,0.000777177,0.0532462,20.9951,234.587,-0.37338,0.0,0.0
80,19.75,32.7453,32.5244,153.504,100.429,104.836,0.000587532,0.0525702,20.9979,234.557,-0.390808,0.0,0.0
96,23.75,32.4782,32.821,156.688,100.405,104.303,0.000245936,0.0518095,20.9989,234.466,-0.34658,0.0,0.0
112,27.75,32.7364,32.3617,150.174,100.383,104.543,0.000263511,0.0509959,21.0008,234.547,-0.369451,0.0,0.0
128,31.75,32.5673,32.4073,152.33,100.358,104.156,0.000352572,0.0507107,21.0016,234.567,-0.33811,0.0,0.0
144,35.75,32.7512,32.7192,150.163,100.333,104.229,0.000687305,0.0502717,21.0017,234.557,-0.34669,0.0,0.0
160,39.75,32.8937,33.2485,149.593,100.298,104.446,0.000578655,0.0498248,21.0016,234.547,-0.368805,0.0,0.0
176,43.75,32.8211,32.8013,153.21,100.276,104.313,0.000359234,0.0495206,21.0012,234.517,-0.35914,0.0,0.0
192,47.75,32.6094,32.6962,153.338,100.257,104.24,0.00016228,0.0493257,21.0008,234.537,-0.354513,0.0,0.0
208,51.75,32.5556,32.9852,156.385,100.244,104.317,0.000252151,0.0491417,21.0007,234.466,-0.362433,0.0,0.0
224,55.75,32.8577,33.1821,153.694,100.236,104.064,0.000303212,0.0490181,21.0007,234.446,-0.34105,0.0,0.0
240,59.75,33.2416,33.1396,153.861,100.22,104.251,0.000220438,0.0487401,21.0006,234.446,-0.358831,0.0,0.0
256,63.75,32.7993,33.3277,154.977,100.209,103.946,0.000244057,0.0487648,20.9998,234.406,-0.333271,0.0,0.0
272,67.75,32.9533,33.168,155.757,100.193,104.149,0.000530278,0.0486562,20.9985,234.356,-0.352405,0.0,0.0
288,71.75,33.1637,33.3145,151.338,100.181,104.561,0.000672836,0.0487097,20.9983,234.326,-0.389391,0.0,0.0
304,75.75,33.225,33.3529,155.622,100.199,104.256,0.000509793,0.0487083,21.0002,234.366,-0.361188,0.0,0.0
320,79.75,33.1493,33.5878,152.359,100.213,104.297,0.000348384,0.0485662,20.9992,234.306,-0.363568,0.0,0.0
336,83.75,33.4993,33.3912,153.446,100.209,104.081,0.000425543,0.0486068,21.0001,234.256,-0.345011,0.0,0.0
352,87.75,32.5115,33.6095,150.583,100.223,104.455,0.000359677,0.0487447,21.0016,234.186,-0.376442,0.0,0.0
368,91.75,33.6921,33.3815,153.525,100.227,103.958,0.000321,0.0487091,21.002,234.166,-0.332589,0.0,0.0
384,95.75,33.2236,33.3926,152.041,100.22,104.143,0.000324486,0.048732,21.0021,234.136,-0.349428,0.0,0.0
400,99.75,33.5186,33.6708,154.242,100.226,103.667,0.000440921,0.0489251,21.0038,234.016,-0.307237,0.0,0.0
416,103.75,33.4266,33.5971,152.117,100.239,104.427,0.000563828,0.0488777,21.0043,234.096,-0.372519,0.0,0.0
432,107.75,33.2552,33.7089,153.264,100.254,104.101,0.000452544,0.0490698,21.0057,234.076,-0.342687,0.0,0.0
448,111.75,33.6465,33.7318,153.372,100.267,103.963,0.000482093,0.0490289,21.0046,234.006,-0.329434,0.0,0.0
464,115.75,33.2779,33.6708,155.577,100.279,103.981,0.000823966,0.0492781,21.004,234.006,-0.329891,0.0,0.0
480,119.75,33.231,33.7334,152.649,100.302,103.961,0.000929469,0.0494487,21.0033,233.976,-0.326092,0.0,0.0
496,123.75,33.2838,34.0388,154.401,100.321,103.557,0.000704666,0.0495197,21.003,233.876,-0.288927,0.0,0.0
512,127.75,33.2976,33.9523,154.858,100.35,103.783,0.000660774,0.0498006,21.003,233.856,-0.306048,0.0,0.0
528,131.75,33.6152,33.7492,159.385,100.377,104.067,0.000678934,0.0499091,21.0032,233.826,-0.328539,0.0,0.0
544,135.75,33.8021,34.0122,153.126,100.413,104.102,0.000836172,0.0499772,21.0032,233.766,-0.328392,0.0,0.0
560,139.75,33.6076,34.119,156.509,100.445,103.73,0.000813657,0.0503156,21.0037,233.716,-0.29285,0.0,0.0
576,143.75,33.8581,34.2964,153.655,100.471,103.508,0.000921155,0.0504065,21.0021,233.666,-0.271038,0.0,0.0
592,147.75,33.5062,34.2962,154.095,100.487,103.933,0.000908767,0.0506981,21.0018,233.586,-0.306892,0.0,0.0
608,151.75,34.0848,34.1031,153.472,100.471,103.41,0.00110727,0.0508442,21.001,233.506,-0.262407,0.0,0.0
624,155.75,33.5202,34.1793,154.292,100.465,103.215,0.00109185,0.0512475,21.0009,233.426,-0.245771,0.0,0.0
640,159.75,33.4276,34.3956,152.112,100.462,103.313,0.00124555,0.051288,21.0012,233.305,-0.254675,0.0,0.0
656,163.75,33.3988,34.1432,152.038,100.404,103.081,0.00157291,0.0517951,21.0016,233.235,-0.239474,0.0,0.0
672,167.75,33.9256,34.0169,153.971,100.337,102.66,0.00146645,0.0520081,21.0017,233.105,-0.20827,0.0,0.0
688,171.75,34.0897,34.1764,152.586,100.256,102.166,0.00177866,0.0523492,21.0011,233.045,-0.171805,0.0,0.0
704,175.75,34.3333,34.0167,153.356,100.157,102.028,0.00190381,0.0526806,21.0013,232.935,-0.168399,0.0,0.0
720,179.75,34.2906,34.3119,156.096,100.023,102.39,0.00199291,0.0529702,21,232.835,-0.212833,0.0,0.0
736,183.75,34.043,34.2774,151.769,99.9104,101.846,0.00210487,0.0534833,20.9982,232.795,-0.174604,0.0,0.0
752,187.75,34.1914,34.2386,151.912,99.809,102.147,0.00210929,0.0535614,20.9997,232.685,-0.210683,0.0,0.0
768,191.75,34.1257,34.4209,152.032,99.7247,101.681,0.00213362,0.0539944,21,232.645,-0.176832,0.0,0.0
784,195.75,33.7944,34.4107,155.132,99.6489,101.085,0.00198151,0.054263,21.0001,232.505,-0.130239,0.0,0.0
800,199.75,34.114,34.5888,153.331,99.6265,101.189,0.00230654,0.054447,20.9999,232.425,-0.141602,0.0,0.0
816,203.75,33.713,34.7205,157.376,99.7878,101.462,0.00272008,0.0546923,20.9984,232.305,-0.151428,0.0,0.0
832,207.75,34.086,35.1372,154.464,99.9172,102.198,0.00266333,0.0552841,20.9977,232.204,-0.205356,0.0,0.0
848,211.75,34.2689,34.485,154.395,100.016,100.638,0.00255003,0.0558611,20.9976,232.094,-0.0564131,0.0,0.0
864,215.75,33.9419,34.6996,148.235,100.064,101.173,0.00280849,0.0562081,20.9968,231.964,-0.100261,0.0,0.0
880,219.75,34.2905,35.0907,149.96,100.082,103.289,0.0031906,0.0573721,20.9881,231.804,-0.287067,0.0,0.0
896,223.75,34.8463,34.6714,139.25,100.055,103.073,0.0029468,0.0772469,20.8812,231.444,-0.270474,0.0,1.0
912,227.75,36.6873,35.2878,130.503,99.9894,100.404,0.00284951,0.143119,20.6724,230.853,-0.0376899,0.0,1.0
928,231.75,41.1177,37.9371,133.263,99.9236,101.392,0.00326707,0.224406,20.5577,230.193,-0.132754,0.0,1.0
944,235.75,45.5327,40.8142,128.909,99.8217,101.306,0.00368361,0.2884,20.5316,229.532,-0.134308,0.0,0.0
960,239.75,48.564,43.9041,132.381,99.6968,101.303,0.00357288,0.333306,20.5295,228.902,-0.145466,0.0,0.0
976,243.75,51.1001,46.3461,134.925,99.599,101.768,0.00334071,0.362589,20.5409,228.371,-0.19605,0.0,0.0
992,247.75,52.4509,48.7145,133.59,99.5011,101.369,0.00352952,0.377986,20.5588,227.761,-0.169245,0.0,0.0
1008,251.75,54.1287,50.316,137.499,99.3822,101.932,0.00361418,0.386719,20.5779,227.27,-0.230525,0.0,0.0
1024,255.75,55.2565,52.0878,134.322,99.3007,102.328,0.00380042,0.389117,20.5938,226.77,-0.273255,0.0,0.0
1040,259.75,55.9933,53.3586,135.182,99.25,101.405,0.0038489,0.387813,20.6095,226.239,-0.195516,0.0,0.0
1056,263.75,56.0071,54.4995,139.397,99.2476,102.172,0.00352373,0.383563,20.6288,225.729,-0.264297,0.0,0.0
1072,267.75,56.1792,54.9985,138.323,99.256,101.436,0.00332984,0.37834,20.6349,225.238,-0.197674,0.0,0.0
1088,271.75,56.354,56.0127,137.934,99.2604,102.668,0.00312478,0.372696,20.6489,224.758,-0.307136,0.0,0.0
1104,275.75,56.4872,56.3918,142.365,99.2592,102.016,0.00311359,0.366069,20.6621,224.288,-0.249346,0.0,0.0
1120,279.75,56.4617,56.4915,139.509,99.2644,102.825,0.00302492,0.358579,20.675,223.827,-0.32069,0.0,0.0
1136,283.75,56.6279,56.6949,139.375,99.2656,102.573,0.00293226,0.350636,20.6853,223.367,-0.298235,0.0,0.0
1152,287.75,56.4565,56.9182,142.273,99.26,102.535,0.00287699,0.342442,20.6974,222.926,-0.29539,0.0,0.0
1168,291.75,56.1004,57.2397,140.039,99.2544,102.906,0.00276954,0.334129,20.7134,222.486,-0.328816,0.0,0.0
1184,295.75,55.9542,57.0847,140.174,99.2464,102.991,0.00274977,0.32398,20.7264,222.096,-0.337071,0.0,0.0
1200,299.75,55.2357,57.32,142.025,99.2596,103.256,0.00256031,0.315876,20.7352,221.655,-0.359189,0.0,0.0
1216,303.75,54.8977,56.953,141.907,99.27,102.906,0.00236735,0.307986,20.7426,221.215,-0.327348,0.0,0.0
1232,307.75,55.0001,57.3815,141.592,99.2875,103.536,0.0024237,0.30078,20.7491,220.814,-0.381319,0.0,0.0
1248,311.75,54.7344,57.4605,143.771,99.3015,103.395,0.00240182,0.294612,20.7538,220.404,-0.367641,0.0,0.0
1264,315.75,54.5633,57.0857,143.598,99.3375,103.637,0.00243693,0.288964,20.7576,220.014,-0.385606,0.0,0.0
1280,319.75,54.2166,56.5219,138.563,99.3814,103.672,0.00244687,0.283006,20.7641,219.693,-0.384628,0.0,0.0
1296,323.75,53.6274,56.4954,142.946,99.4173,103.993,0.00240089,0.277391,20.7687,219.343,-0.409518,0.0,0.0
1312,327.75,53.5393,56.4704,138.333,99.4636,103.516,0.00220515,0.272243,20.7735,219.013,-0.363373,0.0,0.0
1328,331.75,53.3268,56.303,144.147,99.4968,104.097,0.00211915,0.267188,20.7789,218.643,-0.411306,0.0,0.0
1344,335.75,52.8812,55.9943,144.935,99.5191,103.153,0.00212151,0.262846,20.7832,218.292,-0.326335,0.0,0.0
1360,339.75,52.8252,55.7328,141.181,99.5666,103.837,0.00245186,0.258637,20.7866,217.922,-0.382136,0.0,0.0
1376,343.75,52.3461,55.8633,142.089,99.5962,103.68,0.00256578,0.254881,20.7917,217.582,-0.365732,0.0,0.0
1392,347.75,52.3428,55.656,136.675,99.6189,104.855,0.00262912,0.251008,20.7959,217.241,-0.466191,0.0,0.0
1408,351.75,51.8789,55.1499,144.25,99.676,104.385,0.00251018,0.247157,20.7986,216.901,-0.420045,0.0,0.0
1424,355.75,51.981,55.0922,140.674,99.7746,104.663,0.00244049,0.243895,20.8022,216.561,-0.435315,0.0,0.0
1440,359.75,51.6419,54.6317,145.008,99.8421,104.814,0.00242005,0.240282,20.8056,216.21,-0.44223,0.0,0.0
1456,363.75,51.1335,54.7381,144.162,99.9,104.804,0.00235593,0.236868,20.8083,215.88,-0.436095,0.0,0.0
1472,367.75,51.0005,54.4473,149.583,99.9595,104.371,0.00240416,0.233776,20.811,215.57,-0.393024,0.0,0.0
1488,371.75,50.7163,54.0073,147.585,100.023,104.439,0.00241346,0.230512,20.8155,215.2,-0.393174,0.0,0.0
1504,375.75,50.5869,53.714,144.354,100.058,104.476,0.00252961,0.227329,20.8183,214.859,-0.39327,0.0,0.0
1520,379.75,50.6188,53.5472,144.579,100.086,104.801,0.00262121,0.224331,20.8201,214.509,-0.418925,0.0,0.0
1536,383.75,50.4032,53.6179,142.068,100.092,104.723,0.0025365,0.221602,20.8214,214.179,-0.411614,0.0,0.0
1552,387.75,50.1837,53.1836,145.42,100.11,104.374,0.00223409,0.218896,20.8246,213.868,-0.379604,0.0,0.0
1568,391.75,49.7723,53.0034,141.16,100.08,104.466,0.00227266,0.216206,20.8285,213.598,-0.390295,0.0,0.0
1584,395.75,49.999,53.0231,141.181,100.045,104.894,0.00249946,0.213683,20.8307,213.308,-0.430756,0.0,0.0
1600,399.75,49.516,52.5803,145.875,99.9894,104.833,0.00261022,0.210955,20.8328,212.998,-0.430454,0.0,0.0
1616,403.75,49.4383,52.5987,142.683,99.9172,104.063,0.00266087,0.208608,20.8358,212.707,-0.369982,0.0,0.0
1632,407.75,48.6307,51.9131,142.173,99.8245,104.204,0.00234156,0.206095,20.8398,212.387,-0.390739,0.0,0.0
1648,411.75,49.0839,51.9538,139.79,99.7167,104.139,0.00257773,0.20358,20.8427,212.087,-0.394907,0.0,0.0
1664,415.75,48.5927,51.8707,142.336,99.6485,104.471,0.00311023,0.200978,20.8469,211.777,-0.430056,0.0,0.0
1680,419.75,48.6579,51.312,143.131,99.7052,103.768,0.00306753,0.198403,20.8492,211.496,-0.363443,0.0,0.0
1696,423.75,48.753,50.8079,145.751,99.7866,104.621,0.00299219,0.196382,20.8499,211.206,-0.43058,0.0,0.0
1712,427.75,48.3445,50.8988,145.788,99.8429,104.303,0.00294313,0.194206,20.8511,210.906,-0.397674,0.0,0.0
1728,431.75,48.2609,50.8199,148.01,99.9347,104.266,0.00279782,0.192128,20.8527,210.625,-0.386086,0.0,0.0
1744,435.75,47.5566,50.6865,149.618,100.016,104.127,0.00262762,0.190205,20.8548,210.315,-0.366558,0.0,0.0
1760,439.75,48.0623,50.4017,144.857,100.112,104.458,0.00296149,0.188267,20.8568,210.045,-0.386686,0.0,0.0
1776,443.75,47.5264,50.2176,145.587,100.186,104.639,0.00331655,0.186241,20.8581,209.755,-0.395694,0.0,0.0
1792,447.75,47.3046,49.9439,147.016,100.275,105.346,0.0032582,0.184512,20.8604,209.464,-0.448964,0.0,0.0
1808,451.75,47.1552,50.1772,146.881,100.338,104.336,0.00340526,0.182695,20.8627,209.114,-0.355529,0.0,0.0
1824,455.75,47.113,49.7499,143.299,100.387,105.379,0.00334632,0.181106,20.864,208.814,-0.441591,0.0,0.0
1840,459.75,47.141,49.43,143.403,100.441,104.699,0.00326177,0.179734,20.8653,208.554,-0.377872,0.0,0.0
1856,463.75,46.9807,49.4337,146.635,100.477,104.341,0.00320206,0.178255,20.8667,208.293,-0.343408,0.0,0.0
1872,467.75,46.8721,49.0161,148.559,100.505,104.906,0.00334834,0.176628,20.8682,208.033,-0.389997,0.0,0.0
1888,471.75,47.2744,49.1868,143.304,100.498,105.273,0.00358414,0.175504,20.8687,207.793,-0.422426,0.0,0.0
1904,475.75,46.4937,48.6371,147.693,100.493,105.04,0.00364694,0.174067,20.8712,207.523,-0.402712,0.0,0.0
1920,479.75,46.9295,48.7269,148.831,100.465,104.816,0.00358007,0.172834,20.8721,207.273,-0.385758,0.0,0.0
1936,483.75,46.394,48.413,150.828,100.447,105.059,0.0035144,0.171387,20.8732,206.992,-0.408584,0.0,0.0
1952,487.75,46.3479,48.6957,147.07,100.396,104.225,0.00343598,0.17077,20.8744,206.712,-0.340577,0.0,0.0
1968,491.75,46.513,47.996,146.709,100.329,105.269,0.00355924,0.170318,20.8746,206.462,-0.437344,0.0,0.0
1984,495.75,46.0936,48.3189,147.075,100.26,105.128,0.00364362,0.169392,20.8747,206.182,-0.431418,0.0,0.0
2000,499.75,45.906,48.109,148.908,100.166,105.283,0.00366374,0.169161,20.8748,205.921,-0.453416,0.0,0.0
2016,503.75,46.0898,48.2234,146.043,100.066,104.692,0.0037439,0.168336,20.8746,205.661,-0.411236,0.0,0.0
2032,507.75,46.1007,48.2166,144.191,99.9467,104.49,0.00368779,0.168156,20.8745,205.381,-0.404547,0.0,0.0
2048,511.75,46.3268,47.849,148.241,99.8082,104.632,0.00358656,0.167941,20.8745,205.121,-0.429554,0.0,0.0
2064,515.75,46.2912,47.7849,145.5,99.6572,104.361,0.00352287,0.167771,20.8745,204.85,-0.419678,0.0,0.0
2080,519.75,45.7614,47.7696,144.662,99.5059,103.985,0.00357967,0.167301,20.8756,204.58,-0.400698,0.0,0.0
2096,523.75,45.9199,47.7551,141.758,99.3498,103.451,0.00354502,0.167028,20.8776,204.28,-0.368127,0.0,0.0
2112,527.75,46.0486,47.6046,144.543,99.1933,103.734,0.00353307,0.166508,20.8782,204,-0.407317,0.0,0.0
2128,531.75,45.9685,47.5123,144.114,99.0648,103.643,0.00372096,0.166412,20.8783,203.699,-0.411097,0.0,0.0
2144,535.75,45.9888,47.3718,146.059,98.9482,103.397,0.00381086,0.165931,20.8783,203.449,-0.400238,0.0,0.0
2160,539.75,45.6779,47.6832,148.723,98.852,103.536,0.00381756,0.165558,20.8783,203.179,-0.421289,0.0,0.0
2176,543.75,46.0377,47.3635,149.584,98.7673,103.041,0.00372072,0.165002,20.8805,202.959,-0.385523,0.0,0.0
2192,547.75,46.04,47.429,142.548,98.7138,103.394,0.00346751,0.164694,20.8801,202.729,-0.42158,0.0,0.0
2208,551.75,45.7299,47.1328,150.982,98.6855,103.656,0.00391639,0.164172,20.88,202.458,-0.447191,0.0,0.0
2224,555.75,45.7134,47.202,146.26,98.6695,103.455,0.00413931,0.164337,20.8782,202.198,-0.431015,0.0,0.0
2240,559.75,45.9249,47.1338,146.997,98.6719,103.416,0.00400058,0.164269,20.8778,201.938,-0.427308,0.0,0.0
2256,563.75,45.6302,46.931,148.644,98.701,103.64,0.00410182,0.164,20.8772,201.678,-0.444372,0.0,0.0
2272,567.75,45.8465,46.86,148.393,98.7629,103.258,0.00410165,0.163895,20.8775,201.427,-0.405037,0.0,0.0
2288,571.75,45.5107,47.1723,147.56,98.8671,103.709,0.00410601,0.163824,20.8787,201.157,-0.43508,0.0,0.0
2304,575.75,45.6817,47.0215,145.81,98.9749,103.607,0.00428107,0.163663,20.8789,200.897,-0.416228,0.0,0.0
2320,579.75,45.8067,46.7797,152.201,99.133,103.8,0.00413158,0.163663,20.879,200.627,-0.418654,0.0,0.0
2336,583.75,45.3596,46.8547,145.149,99.2548,103.769,0.00421431,0.163347,20.8804,200.346,-0.40472,0.0,0.0
2352,587.75,45.3402,46.8368,146.14,99.4285,104.285,0.00412103,0.16322,20.8802,200.096,-0.433993,0.0,0.0
2368,591.75,45.4327,46.5579,145.362,99.581,104.772,0.003956,0.163417,20.8789,199.826,-0.462463,0.0,0.0
2384,595.75,45.5572,46.4343,148.382,99.6932,105.319,0.00391651,0.163455,20.8779,199.566,-0.499614,0.0,0.0
2400,599.75,45.8912,46.9771,144.121,99.7802,104.837,0.00421778,0.163216,20.8788,199.195,-0.449905,0.0,0.0
2416,603.75,45.5633,46.535,144.692,99.8409,104.322,0.00431138,0.163157,20.8798,198.995,-0.399584,0.0,0.0
2432,607.75,45.6649,47.1521,147.506,99.8625,104.487,0.00416643,0.162762,20.8782,198.745,-0.411946,0.0,0.0
2448,611.75,45.7364,46.7936,147.458,99.8569,103.953,0.0041119,0.162149,20.8796,198.445,-0.365861,0.0,0.0
2464,615.75,45.3362,46.8689,145.276,99.8229,104.434,0.0045166,0.162031,20.8807,198.245,-0.410958,0.0,0.0
2480,619.75,45.535,46.9382,150.447,99.7551,104.345,0.00434196,0.161992,20.8803,198.014,-0.409415,0.0,0.0
2496,623.75,45.7976,46.7045,145.982,99.682,103.568,0.00415095,0.162197,20.8798,197.734,-0.348045,0.0,0.0
2512,627.75,45.5865,47.0709,148.701,99.5846,104.602,0.00427183,0.162319,20.879,197.494,-0.447339,0.0,0.0
2528,631.75,45.8016,47.0271,144.447,99.5015,104.486,0.00401276,0.162825,20.8783,197.264,-0.444856,0.0,0.0
2544,635.75,45.7151,46.6988,149.802,99.4101,103.919,0.00391767,0.163203,20.878,197.003,-0.403671,0.0,0.0
2560,639.75,45.6156,47.0247,152.211,99.3626,103.815,0.00413849,0.163688,20.8761,196.733,-0.398868,0.0,0.0
2576,643.75,46.0069,46.7137,147.335,99.3235,104.415,0.00441718,0.164171,20.8754,196.463,-0.454919,0.0,0.0
2592,647.75,45.9469,46.8567,149.286,99.2608,103.739,0.00433042,0.164287,20.8757,196.213,-0.401563,0.0,0.0
2608,651.75,45.8487,46.7135,149.08,99.2305,104.059,0.00400944,0.164407,20.8758,195.953,-0.432349,0.0,0.0
2624,655.75,45.8381,47.1809,146.171,99.2029,103.775,0.00394367,0.164684,20.8758,195.692,-0.410072,0.0,0.0
2640,659.75,45.7565,46.7417,146.7,99.2141,104.035,0.00391811,0.164731,20.8758,195.382,-0.431802,0.0,0.0
2656,663.75,45.8454,47.1852,142.109,99.3027,104.162,0.00410381,0.164597,20.8741,195.172,-0.434777,0.0,0.0
2672,667.75,45.9122,47.1258,145.991,99.3854,104.46,0.00431079,0.164735,20.8749,194.912,-0.453175,0.0,0.0
2688,671.75,45.8578,47.0653,152.222,99.4708,103.715,0.00411802,0.165088,20.8737,194.611,-0.380197,0.0,0.0
2704,675.75,46.1763,47.5606,146.984,99.5698,104.87,0.00431716,0.16551,20.872,194.311,-0.471969,0.0,0.0
2720,679.75,46.091,47.0593,144.525,99.6449,104.461,0.00438612,0.165916,20.8712,194.021,-0.429522,0.0,0.0
2736,683.75,46.1325,46.9445,145.459,99.6904,104.839,0.00440252,0.165888,20.8725,193.781,-0.458219,0.0,0.0
2752,687.75,45.8607,46.8759,145.618,99.7415,104.479,0.00420224,0.165891,20.8749,193.55,-0.422271,0.0,0.0
2768,691.75,45.8987,47.2745,150.182,99.7894,104.642,0.003936,0.16598,20.875,193.29,-0.432127,0.0,0.0
2784,695.75,45.7143,46.916,147.969,99.8078,104.248,0.00377555,0.167046,20.8733,193.04,-0.396122,0.0,0.0
2800,699.75,45.9246,47.0855,146.121,99.8241,104.773,0.00396077,0.16789,20.8723,192.8,-0.440348,0.0,0.0
2816,703.75,45.7382,47.1848,142.329,99.8221,104.538,0.00377485,0.168653,20.8708,192.54,-0.420052,0.0,0.0
2832,707.75,46.174,47.3045,145.252,99.8429,104.875,0.00366835,0.169223,20.8696,192.279,-0.447434,0.0,0.0
2848,711.75,45.5873,47.2596,144.959,99.8493,104.529,0.00381215,0.169872,20.8695,192.019,-0.416832,0.0,0.0
2864,715.75,46.026,46.9238,142.415,99.8385,104.352,0.00380209,0.17021,20.8706,191.749,-0.402355,0.0,0.0
2880,719.75,45.983,46.7876,146.653,99.8337,104.199,0.00378686,0.170598,20.8706,191.459,-0.38943,0.0,0.0
2896,723.75,46.2602,47.251,144.376,99.8389,104.466,0.00393237,0.171085,20.8701,191.218,-0.412288,0.0,0.0
2912,727.75,46.2846,47.6795,142.177,99.8321,104.852,0.0039839,0.171762,20.87,190.968,-0.446502,0.0,0.0
2928,731.75,46.1491,47.6193,142.475,99.8074,104.132,0.00348925,0.172023,20.8704,190.698,-0.386011,0.0,0.0
2944,735.75,46.5146,47.3158,149.638,99.7838,104.731,0.00346437,0.172453,20.8691,190.428,-0.440387,0.0,0.0
2960,739.75,46.5718,47.6013,142.222,99.7443,104.352,0.00371111,0.173112,20.8685,190.197,-0.410987,0.0,0.0
2976,743.75,46.5059,47.4801,147.622,99.6465,104.184,0.00367916,0.173526,20.8668,189.907,-0.405217,0.0,0.0
2992,747.75,46.295,47.3623,148.961,99.5906,104.025,0.00347821,0.173861,20.8662,189.597,-0.396467,0.0,0.0
3008,751.75,45.8468,47.2963,146.685,99.4532,103.51,0.00356831,0.173963,20.866,189.307,-0.363848,0.0,0.0
3024,755.75,46.4988,47.2339,144.285,99.3315,103.673,0.00373634,0.17435,20.866,189.036,-0.389278,0.0,0.0
3040,759.75,46.4631,47.7031,146.459,99.248,103.62,0.00363054,0.174623,20.866,188.766,-0.392301,0.0,0.0
3056,763.75,46.1972,47.6343,149.822,99.159,103.718,0.00328017,0.174813,20.8666,188.506,-0.409085,0.0,0.0
3072,767.75,46.3226,47.5462,146.449,99.1985,103.203,0.00336846,0.174873,20.8664,188.256,-0.360106,0.0,0.0
3088,771.75,46.5429,47.8158,141.996,99.2648,103.052,0.00346513,0.175155,20.8661,188.046,-0.340717,0.0,0.0
3104,775.75,46.046,47.5914,145.117,99.3043,104.16,0.00369266,0.175288,20.8671,187.785,-0.434434,0.0,0.0
3120,779.75,46.168,47.6276,144.315,99.363,103.774,0.00386115,0.175367,20.8672,187.535,-0.395278,0.0,0.0
3136,783.75,46.6407,47.5681,148.671,99.4636,104.373,0.0040604,0.17535,20.8686,187.245,-0.438477,0.0,0.0
3152,787.75,46.8813,47.5621,143.339,99.5542,104.994,0.00395471,0.175122,20.8689,186.935,-0.48417,0.0,0.0
3168,791.75,46.3933,47.9023,145.511,99.6592,104.471,0.00371447,0.174821,20.8675,186.714,-0.429071,0.0,0.0
3184,795.75,46.4774,48.159,147.05,99.7447,104.996,0.00358303,0.17535,20.8655,186.464,-0.466934,0.0,0.0
3200,799.75,46.4843,47.774,141.834,99.7906,104.257,0.00368026,0.175872,20.8661,186.194,-0.398434,0.0,0.0
3216,803.75,46.5728,47.6144,145.291,99.7926,105.116,0.00365894,0.17584,20.8671,185.914,-0.47294,0.0,0.0
3232,807.75,46.6947,47.7752,148.34,99.8034,104.83,0.00371027,0.17601,20.8658,185.674,-0.447169,0.0,0.0
3248,811.75,46.6943,47.6833,149.03,99.7714,103.915,0.00351215,0.176356,20.867,185.413,-0.3703,0.0,0.0
3264,815.75,46.3022,48.0291,149.241,99.7211,104.239,0.00357009,0.176432,20.8673,185.153,-0.4032,0.0,0.0
3280,819.75,46.7163,47.8164,144.491,99.6245,103.88,0.00394831,0.176184,20.8664,184.913,-0.380674,0.0,0.0
3296,823.75,46.1832,48.1941,147.126,99.5183,103.478,0.00410791,0.176069,20.8674,184.603,-0.355085,0.0,0.0
3312,827.75,46.8257,47.3788,145.254,99.3862,104.067,0.00399957,0.176171,20.8668,184.332,-0.418789,0.0,0.0
3328,831.75,46.6393,48.0414,148.334,99.2436,103.655,0.00417538,0.176621,20.8659,184.012,-0.395748,0.0,0.0
3344,835.75,46.6189,47.6034,143.737,99.1075,103.342,0.00435257,0.176706,20.8652,183.752,-0.380762,0.0,0.0
3360,839.75,46.5647,48.0253,143.145,98.9642,103.239,0.00416181,0.177133,20.8637,183.502,-0.384848,0.0,0.0
3376,843.75,46.626,47.6766,140.168,98.8324,103.019,0.0038124,0.178161,20.8602,183.261,-0.37754,0.0,0.0
3392,847.75,46.7037,47.8744,148.453,98.7154,102.982,0.00372091,0.179636,20.8584,183.031,-0.385095,0.0,0.0
3408,851.75,46.6342,48.3425,146.27,98.6368,101.779,0.00344125,0.18108,20.8555,182.741,-0.285358,0.0,0.0
3424,855.75,46.9345,48.6139,146.362,98.6064,102.318,0.00316466,0.18264,20.8543,182.491,-0.336265,0.0,0.0
3440,859.75,46.7807,48.1977,148.664,98.6168,102.738,0.00340673,0.183673,20.8541,182.21,-0.372558,0.0,0.0
3456,863.75,47.028,48.2763,146.785,98.6563,103.257,0.00323624,0.184712,20.8541,181.96,-0.414745,0.0,0.0
3472,867.75,46.9781,48.1786,149.29,98.7106,103.299,0.00306543,0.185437,20.8531,181.7,-0.413468,0.0,0.0
3488,871.75,47.224,48.4032,144.125,98.7733,103.312,0.00272594,0.187007,20.8511,181.42,-0.408801,0.0,0.0
3504,875.75,47.2097,47.6876,145.294,98.8524,103.332,0.00267315,0.188211,20.8489,181.15,-0.403306,0.0,0.0
3520,879.75,47.0835,48.587,145.564,98.9286,103.652,0.002824,0.189671,20.8483,180.869,-0.424481,0.0,0.0
3536,883.75,47.5899,48.626,141.979,98.9981,103.982,0.0027748,0.191082,20.8468,180.599,-0.446947,0.0,0.0
3552,887.75,47.5425,48.5606,144.047,99.0536,103.025,0.00305002,0.191989,20.846,180.309,-0.357714,0.0,0.0
3568,891.75,47.602,48.6082,140.327,99.0811,103.89,0.00293384,0.192974,20.8458,179.979,-0.431313,0.0,0.0
3584,895.75,47.4757,48.4519,142.996,99.1139,103.359,0.00278235,0.193376,20.8446,179.728,-0.381682,0.0,0.0
3600,899.75,47.1655,48.5188,147.154,99.1406,103.697,0.00284342,0.194904,20.8405,179.438,-0.408913,0.0,0.0
3616,903.75,47.6379,48.8452,144.129,99.1167,102.934,0.00298754,0.196283,20.8388,179.128,-0.343922,0.0,0.0
3632,907.75,47.8825,49.1104,147.273,99.1127,103.32,0.0028803,0.197747,20.8375,178.858,-0.378302,0.0,0.0
3648,911.75,47.8425,49.201,146.416,99.0907,104.234,0.00275418,0.199122,20.8358,178.607,-0.460519,0.0,0.0
3664,915.75,48.2195,49.0495,139.879,99.068,103.597,0.0025761,0.200752,20.835,178.337,-0.406808,0.0,0.0
3680,919.75,48.1631,49.3247,145.811,99.062,103.58,0.00228549,0.201853,20.8354,178.037,-0.405855,0.0,0.0
3696,923.75,48.6975,49.5631,143.546,99.0536,103.108,0.00217101,0.202663,20.8355,177.777,-0.365069,0.0,0.0
3712,927.75,48.2783,49.9105,143.939,99.056,103.19,0.00228004,0.204073,20.8329,177.476,-0.37204,0.0,0.0
3728,931.75,48.7384,50.3146,145.81,99.0632,102.667,0.00246125,0.205372,20.8311,177.176,-0.325196,0.0,0.0
3744,935.75,48.8,49.808,142.733,99.0811,103.412,0.00253812,0.206412,20.8301,176.886,-0.389365,0.0,0.0
3760,939.75,48.6811,50.2498,147.156,99.0652,103.087,0.00263501,0.207623,20.8287,176.576,-0.362178,0.0,0.0
3776,943.75,48.8529,50.0286,142.944,99.0676,103.294,0.00276284,0.208883,20.8264,176.285,-0.380225,0.0,0.0
3792,947.75,49.1232,50.0154,141.502,99.0823,103.239,0.00292241,0.21057,20.8235,175.965,-0.373947,0.0,0.0
3808,951.75,48.9915,50.4129,148.168,99.0827,103.621,0.00268391,0.212128,20.8213,175.685,-0.407548,0.0,0.0
3824,955.75,49.5904,50.7115,146.148,99.07,103.245,0.00262714,0.214081,20.8171,175.374,-0.375679,0.0,0.0
3840,959.75,49.5813,50.6514,146.54,99.0692,104.069,0.00274423,0.215549,20.816,175.064,-0.448059,0.0,0.0
3856,963.75,48.4868,51.0642,138.981,99.056,103.819,0.00281915,0.216998,20.815,174.744,-0.427349,0.0,0.0
3872,967.75,49.8645,50.861,143.39,99.044,102.988,0.00262044,0.219185,20.8131,174.424,-0.355332,0.0,0.0
3888,971.75,49.704,51.379,145.337,99.0292,103.571,0.00252379,0.220739,20.8118,174.053,-0.408072,0.0,0.0
3904,975.75,50.3057,51.5801,143.681,99.0209,103.222,0.00247587,0.222232,20.81,173.713,-0.378167,0.0,0.0
3920,979.75,50.6137,51.6291,139.886,98.9961,103.656,0.00242594,0.224497,20.806,173.413,-0.418553,0.0,0.0
3936,983.75,50.7598,51.9934,143.386,98.9745,103.85,0.00253103,0.227654,20.7991,173.112,-0.437598,0.0,0.0
3952,987.75,50.7563,52.1066,142.519,98.9482,103.076,0.00252685,0.230946,20.7974,172.802,-0.371976,0.0,0.0
3968,991.75,50.7744,52.3999,143.082,98.9051,103.601,0.00215902,0.234275,20.7944,172.472,-0.42214,0.0,0.0
3984,995.75,51.4822,52.3037,141.65,98.8536,103.412,0.00215229,0.236813,20.7927,172.132,-0.410213,0.0,0.0
4000,999.75,51.6916,52.6745,142.802,98.7977,103.774,0.00221161,0.239424,20.7914,171.791,-0.447164,0.0,0.0
4016,1003.75,51.6951,52.8066,137.809,98.733,103.453,0.00234725,0.241666,20.7876,171.451,-0.425004,0.0,0.0
4032,1007.75,52.1993,52.9022,141.696,98.7019,103.259,0.00239468,0.244126,20.785,171.071,-0.410786,0.0,0.0
4048,1011.75,52.5033,53.3091,141.743,98.6635,103.117,0.0022812,0.246221,20.7839,170.72,-0.401771,0.0,0.0
4064,1015.75,52.7723,53.7169,139.22,98.6392,103.249,0.0025922,0.248463,20.7799,170.35,-0.415654,0.0,0.0
4080,1019.75,52.8039,53.5795,140.598,98.6256,103.462,0.00255191,0.251537,20.7769,169.99,-0.435701,0.0,0.0
4096,1023.75,53.0416,54.1741,139.994,98.628,103.111,0.00252923,0.254181,20.7738,169.629,-0.404533,0.0,0.0
4112,1027.75,53.1955,54.3995,142.174,98.6432,103.091,0.00238378,0.257176,20.7689,169.259,-0.401384,0.0,0.0
4128,1031.75,53.5682,54.3746,141.286,98.6775,102.766,0.00256707,0.260452,20.7657,168.859,-0.369473,0.0,0.0
4144,1035.75,53.6566,54.8855,140.764,98.703,103.124,0.00283262,0.263187,20.7635,168.498,-0.398722,0.0,0.0
4160,1039.75,53.9594,55.0731,141.907,98.7661,102.906,0.00276513,0.26593,20.7595,168.098,-0.373695,0.0,0.0
4176,1043.75,54.305,55.4839,141.333,98.8292,102.657,0.002773,0.269455,20.7536,167.658,-0.345836,0.0,0.0
4192,1047.75,54.5578,55.5635,137.635,98.917,103.952,0.00295452,0.272496,20.7512,167.247,-0.451838,0.0,0.0
4208,1051.75,54.5128,55.7868,139.346,99.0097,103.21,0.00270445,0.275506,20.7483,166.857,-0.378083,0.0,0.0
4224,1055.75,55.0022,56.459,140.479,99.145,102.979,0.00267131,0.279162,20.7451,166.447,-0.34526,0.0,0.0
4240,1059.75,55.2515,56.7483,141.778,99.266,103.202,0.00262612,0.28215,20.7425,166.086,-0.353879,0.0,0.0
4256,1063.75,55.7803,56.8609,140.351,99.393,104.118,0.00265787,0.285624,20.7354,165.696,-0.422616,0.0,0.0
4272,1067.75,55.8554,57.1936,143.126,99.4987,103.797,0.00277241,0.289965,20.7304,165.266,-0.384908,0.0,0.0
4288,1071.75,56.3433,57.2477,144.511,99.6077,103.738,0.00269096,0.293534,20.7271,164.825,-0.369731,0.0,0.0
4304,1075.75,56.4548,57.8309,136.804,99.7183,104.22,0.00248495,0.297556,20.7231,164.405,-0.401803,0.0,0.0
4320,1079.75,57.0591,58.4154,137.615,99.7814,104.397,0.00275997,0.302052,20.7174,163.964,-0.411488,0.0,0.0
4336,1083.75,56.9701,58.3724,133.963,99.8205,103.448,0.00284618,0.306347,20.7119,163.524,-0.324875,0.0,0.0
4352,1087.75,57.3292,58.8158,137.299,99.8457,104.053,0.00284789,0.31058,20.7057,163.064,-0.375589,0.0,0.0
4368,1091.75,57.965,59.1669,136.845,99.8669,103.808,0.00265787,0.315025,20.6984,162.603,-0.35221,0.0,0.0
4384,1095.75,58.3584,59.6358,139.891,99.8469,104.747,0.00249461,0.320192,20.6934,162.123,-0.436006,0.0,0.0
4400,1099.75,58.8831,59.6428,136.015,99.8074,104.403,0.00226163,0.324398,20.6904,161.612,-0.40967,0.0,0.0
4416,1103.75,58.8043,60.2402,136.176,99.7511,103.607,0.00251228,0.32875,20.6848,161.232,-0.345104,0.0,0.0
4432,1107.75,59.0408,60.72,138.272,99.6872,104.164,0.00282747,0.333817,20.6769,160.692,-0.399807,0.0,0.0
4448,1111.75,60.1974,60.9934,136.751,99.6014,104.333,0.0027708,0.338575,20.671,160.231,-0.422388,0.0,0.0
4464,1115.75,60.0933,61.1418,132.746,99.4987,103.803,0.002665,0.343086,20.664,159.701,-0.385421,0.0,0.0
4480,1119.75,60.4333,61.9356,138.295,99.4085,103.606,0.00282909,0.346872,20.6609,159.17,-0.37633,0.0,0.0
4496,1123.75,61.2645,62.0049,143.774,99.3363,103.634,0.00283425,0.351172,20.6571,158.64,-0.385439,0.0,0.0
4512,1127.75,61.0691,62.4756,133.473,99.2879,103.7,0.00291884,0.355361,20.6539,158.139,-0.395637,0.0,0.0
4528,1131.75,61.3284,62.8489,137.03,99.2616,102.955,0.00310488,0.360169,20.6481,157.629,-0.332496,0.0,0.0
4544,1135.75,61.815,63.5824,136.068,99.2049,103.039,0.00314614,0.365126,20.6443,157.148,-0.345095,0.0,0.0
4560,1139.75,62.4292,63.8226,135.138,99.2616,103.122,0.00313108,0.369703,20.638,156.618,-0.347211,0.0,0.0
4576,1143.75,62.8122,64.2866,133.126,99.381,103.192,0.00283554,0.375295,20.6295,156.117,-0.342431,0.0,0.0
4592,1147.75,63.5338,65.0563,137.559,99.5511,102.748,0.00298101,0.380984,20.6228,155.567,-0.287629,0.0,0.0
4608,1151.75,63.7749,65.5545,136.382,99.6796,103.759,0.00326577,0.386027,20.6165,155.027,-0.365024,0.0,0.0
4624,1155.75,64.2425,65.8262,133.831,99.7978,103.015,0.00361248,0.389825,20.6128,154.476,-0.288762,0.0,0.0
4640,1159.75,64.5262,65.867,132.4,99.898,103.003,0.00356178,0.394044,20.6065,153.896,-0.278515,0.0,0.0
4656,1163.75,65.2146,66.407,135.541,99.9743,103.269,0.00323762,0.39955,20.5985,153.335,-0.295053,0.0,0.0
4672,1167.75,65.3205,66.6946,130.454,100.006,103.441,0.00334956,0.404787,20.5918,152.755,-0.307332,0.0,0.0
4688,1171.75,65.8636,67.5787,134.999,100.035,102.819,0.00364202,0.410755,20.5848,152.184,-0.249766,0.0,0.0
4704,1175.75,65.9185,68.4047,129.636,100.015,101.209,0.00353635,0.417532,20.5713,151.563,-0.107972,0.0,0.0
4720,1179.75,67.2531,68.5473,135.629,99.9627,100.884,0.00356712,0.428052,20.5544,150.933,-0.0834887,0.0,0.0
4736,1183.75,67.5456,68.9989,138.433,99.878,102.155,0.00366873,0.436752,20.5473,150.342,-0.20515,0.0,0.0
4752,1187.75,67.9739,70.3019,130.195,99.7603,100.354,0.00376712,0.443951,20.5386,149.702,-0.053958,0.0,0.0
4768,1191.75,68.6275,70.5403,130.315,99.5914,100.603,0.00389076,0.450794,20.5307,149.041,-0.0919305,0.0,0.0
4784,1195.75,69.3749,70.8828,134.52,99.5922,100.955,0.00384151,0.456464,20.5253,148.401,-0.123655,0.0,0.0
4800,1199.75,70.1584,71.723,132.918,99.6405,101.172,0.00394626,0.461926,20.5208,147.73,-0.138786,0.0,0.0
4816,1203.75,70.3511,72.1926,133.172,99.7363,101.815,0.00429106,0.465497,20.5197,147.11,-0.187696,0.0,0.0
4832,1207.75,70.9746,72.7227,134.604,99.8241,100.9,0.0041744,0.467588,20.5203,146.549,-0.0975299,0.0,0.0
4848,1211.75,71.0992,73.4114,135.959,99.9208,100.593,0.00417226,0.468071,20.5235,145.949,-0.0610263,0.0,0.0
4864,1215.75,71.1545,73.5049,135.213,100.013,101.133,0.00399298,0.467538,20.5259,145.378,-0.101268,0.0,0.0
4880,1219.75,71.7442,73.7552,134.93,100.099,101.418,0.00376107,0.468129,20.5255,144.697,-0.119074,0.0,0.0
4896,1223.75,71.7392,74.2862,132.667,100.173,102.093,0.00378744,0.467007,20.5284,144.077,-0.172693,0.0,0.0
4912,1227.75,71.9871,74.5883,136.998,100.231,103.029,0.00374834,0.466278,20.5274,143.516,-0.250544,0.0,0.0
4928,1231.75,72.0462,75.3259,130.199,100.284,100.469,0.0038228,0.466111,20.5271,142.946,-0.0168241,0.0,0.0
4944,1235.75,72.066,74.7216,135.94,100.346,101.075,0.00387348,0.464481,20.5306,142.355,-0.0658685,0.0,0.0
4960,1239.75,72.3155,75.4004,133.712,100.372,102.348,0.00401668,0.461216,20.5381,141.755,-0.177455,0.0,0.0
4976,1243.75,72.2679,74.9761,134.096,100.397,102.027,0.00362338,0.456586,20.5436,141.174,-0.146547,0.0,0.0
4992,1247.75,72.1991,75.3858,134.938,100.415,102.33,0.00365105,0.453022,20.5445,140.624,-0.171944,0.0,0.0
5008,1251.75,72.3474,75.5398,139.008,100.396,102.928,0.003556,0.450765,20.548,140.063,-0.226708,0.0,0.0
5024,1255.75,72.2886,75.5223,131.103,100.367,102.923,0.0034228,0.44622,20.5571,139.493,-0.228911,0.0,0.0
5040,1259.75,72.0224,75.5465,133.753,100.312,103.304,0.0032764,0.440056,20.5667,139.032,-0.26753,0.0,0.0
5056,1263.75,72.1112,75.8571,134.574,100.284,104.107,0.00295831,0.43179,20.579,138.462,-0.340481,0.0,0.0
5072,1267.75,71.9153,75.1437,133.019,100.243,104.028,0.00300634,0.424151,20.5884,137.921,-0.337326,0.0,0.0
5088,1271.75,71.5085,75.722,132.933,100.181,103.978,0.00295352,0.415915,20.6005,137.391,-0.338496,0.0,0.0
5104,1275.75,71.0585,74.9359,139.482,100.125,104.1,0.00280258,0.40638,20.6134,136.941,-0.354285,0.0,0.0
5120,1279.75,70.6589,74.9405,138.246,100.061,104.023,0.0028196,0.397552,20.6233,136.48,-0.353399,0.0,0.0
5136,1283.75,70.1031,74.4654,139.192,100.001,104.419,0.00271937,0.387582,20.6384,136.03,-0.393445,0.0,0.0
5152,1287.75,69.7015,73.9897,139.891,99.9571,104.037,0.00270218,0.376814,20.6501,135.669,-0.364023,0.0,0.0
5168,1291.75,69.3184,73.9815,143.741,99.908,104.336,0.00261719,0.365698,20.6632,135.269,-0.394652,0.0,0.0
5184,1295.75,68.6988,73.0218,137.134,99.8824,103.454,0.0023745,0.354603,20.6775,134.809,-0.31975,0.0,0.0
5200,1299.75,68.0182,72.5445,136.45,99.8924,103.723,0.00229457,0.344267,20.6895,134.498,-0.342458,0.0,0.0
5216,1303.75,67.3371,71.852,140.95,99.8725,104.206,0.00253958,0.333872,20.7025,134.028,-0.38653,0.0,0.0
5232,1307.75,66.5764,71.5696,137.283,99.8573,104.22,0.00237134,0.323292,20.7129,133.738,-0.389132,0.0,0.0
5248,1311.75,66.2549,70.6595,141.628,99.8653,104.244,0.00225793,0.313983,20.724,133.377,-0.390488,0.0,0.0
5264,1315.75,65.6516,70.1345,139.475,99.8637,104.959,0.0024755,0.304179,20.7364,133.057,-0.452885,0.0,0.0
5280,1319.75,64.0405,69.7948,140.097,99.872,105.044,0.00243317,0.294349,20.7461,132.767,-0.459458,0.0,0.0
5296,1323.75,64.347,68.6964,136.472,99.8792,105.319,0.0023086,0.286421,20.7537,132.507,-0.482569,0.0,0.0
5312,1327.75,63.7656,68.4816,138.808,99.8609,104.792,0.0022509,0.280154,20.7578,132.166,-0.438604,0.0,0.0
5328,1331.75,63.2259,67.8874,141.653,99.8677,105.182,0.00224328,0.274137,20.7616,131.826,-0.471787,0.0,0.0
5344,1335.75,62.4078,66.7884,141.486,99.8725,104.875,0.00255405,0.269386,20.7647,131.486,-0.444741,0.0,0.0
5360,1339.75,61.7065,66.861,140.781,99.896,104.982,0.00253667,0.266436,20.7662,131.236,-0.451929,0.0,0.0
5376,1343.75,61.6274,66.0102,145.347,99.9275,104.466,0.00269915,0.263832,20.7678,130.935,-0.404174,0.0,0.0
5392,1347.75,61.2026,65.7614,142.067,99.9347,104.87,0.00278332,0.262094,20.7665,130.575,-0.438677,0.0,0.0
5408,1351.75,60.84,64.8775,142.306,99.9771,105.128,0.00277722,0.260528,20.7663,130.245,-0.457187,0.0,0.0
5424,1355.75,60.5082,64.8133,142.009,100,105.018,0.00280852,0.259402,20.7684,129.954,-0.445564,0.0,0.0
5440,1359.75,60.4265,64.0744,142.284,100.012,104.423,0.00271856,0.258951,20.7677,129.674,-0.392781,0.0,0.0
5456,1363.75,60.4111,63.9465,138.985,100.027,105.283,0.0027659,0.259014,20.7671,129.364,-0.466083,0.0,0.0
5472,1367.75,60.041,63.8471,138.111,100.043,105.115,0.00277832,0.259073,20.7655,129.144,-0.450026,0.0,0.0
5488,1371.75,60.0849,63.393,140.818,100.073,105.048,0.00277552,0.258426,20.7653,128.833,-0.441568,0.0,0.0
5504,1375.75,59.5495,63.1154,140.107,100.11,104.729,0.00258724,0.258337,20.7652,128.533,-0.410489,0.0,0.0
5520,1379.75,59.574,62.8996,138.746,100.164,105.491,0.00239813,0.258552,20.7634,128.223,-0.471595,0.0,0.0
5536,1383.75,59.259,62.7159,137.858,100.231,105.137,0.00245995,0.259418,20.7623,127.893,-0.43488,0.0,0.0
5552,1387.75,59.3522,62.7466,146.045,100.256,105.174,0.00258908,0.260076,20.7624,127.592,-0.435795,0.0,0.0
5568,1391.75,59.2953,62.3177,139.879,100.302,105.011,0.00244342,0.26072,20.7613,127.292,-0.41755,0.0,0.0
5584,1395.75,59.4957,62.4167,139.613,100.322,105.786,0.00218741,0.261039,20.7603,127.012,-0.482576,0.0,0.0
5600,1399.75,59.171,62.2382,143.54,100.349,104.823,0.00277494,0.261734,20.7569,126.722,-0.39695,0.0,0.0
5616,1403.75,59.3,62.0939,145.639,100.364,104.996,0.00296607,0.262495,20.7568,126.371,-0.410648,0.0,0.0
5632,1407.75,59.4752,62.0165,139.012,100.373,105.761,0.00261953,0.263112,20.7556,126.101,-0.475885,0.0,0.0
5648,1411.75,59.4542,61.9436,136.704,100.37,105.278,0.00277694,0.264005,20.7543,125.761,-0.434508,0.0,0.0
5664,1415.75,59.2786,61.7401,140.898,100.362,105.011,0.00297809,0.264755,20.7558,125.45,-0.412045,0.0,0.0
5680,1419.75,59.083,61.7557,142.551,100.347,105.697,0.00273377,0.265484,20.7547,125.14,-0.472696,0.0,0.0
5696,1423.75,59.1124,61.7302,140.785,100.321,104.851,0.00264459,0.266464,20.7524,124.71,-0.401947,0.0,0.0
5712,1427.75,58.8752,61.7666,140.782,100.275,104.885,0.00296098,0.267162,20.7528,124.42,-0.409044,0.0,0.0
5728,1431.75,59.4427,61.4529,138.43,100.21,105.444,0.00321581,0.26705,20.7528,124.159,-0.463273,0.0,0.0
5744,1435.75,59.4814,60.9778,139.738,100.154,104.238,0.00307153,0.267996,20.7517,123.849,-0.363787,0.0,0.0
5760,1439.75,59.5002,61.4051,138.223,100.081,104.413,0.00302883,0.268319,20.7503,123.629,-0.385592,0.0,0.0
5776,1443.75,59.6386,61.5608,139.449,100.012,104.759,0.00334256,0.269038,20.7488,123.339,-0.42197,0.0,0.0
5792,1447.75,59.3184,61.3302,138.49,99.9196,104.561,0.00331628,0.269463,20.7472,123.048,-0.413174,0.0,0.0
5808,1451.75,59.029,61.5608,136.016,99.8493,103.419,0.0033446,0.270653,20.7443,122.728,-0.319641,0.0,0.0
5824,1455.75,59.5295,61.2427,138.116,99.7351,103.816,0.00322816,0.271114,20.7449,122.408,-0.364934,0.0,0.0
5840,1459.75,59.2654,61.267,143.367,99.6784,104.322,0.0033507,0.271254,20.7454,122.088,-0.414368,0.0,0.0
5856,1463.75,58.9779,61.2503,139.7,99.6361,104.072,0.00313855,0.271385,20.7459,121.747,-0.396367,0.0,0.0
5872,1467.75,59.159,61.5379,139.783,99.5874,104.112,0.00327932,0.271135,20.7463,121.467,-0.404359,0.0,0.0
5888,1471.75,59.011,61.4731,140.667,99.5666,103.752,0.00343819,0.27106,20.7475,121.127,-0.374675,0.0,0.0
5904,1475.75,58.8647,61.1147,142.525,99.5515,104.303,0.00356961,0.270995,20.7484,120.896,-0.424317,0.0,0.0
5920,1479.75,58.5775,60.9365,140.325,99.5558,103.609,0.00334048,0.270648,20.7486,120.626,-0.36317,0.0,0.0
5936,1483.75,59.1614,61.2805,144.383,99.5746,104.165,0.00311848,0.269369,20.7498,120.336,-0.410131,0.0,0.0
5952,1487.75,59.012,61.0688,139.148,99.5954,104.545,0.00316491,0.268144,20.7512,120.016,-0.441377,0.0,0.0
5968,1491.75,58.9359,60.4819,137.137,99.6193,104.343,0.00323594,0.266698,20.7539,119.685,-0.421571,0.0,0.0
5984,1495.75,58.7275,60.727,139.946,99.6592,104.551,0.00342586,0.264904,20.7567,119.385,-0.436051,0.0,0.0
6000,1499.75,58.6045,60.702,138.215,99.7115,104.599,0.00329557,0.262227,20.7598,119.105,-0.43547,0.0,0.0
6016,1503.75,58.5471,60.5499,141.382,99.7722,104.198,0.00325588,0.259947,20.7623,118.845,-0.394998,0.0,0.0
6032,1507.75,58.1023,60.3494,143.043,99.8341,104.974,0.00322322,0.258074,20.7634,118.634,-0.456827,0.0,0.0
6048,1511.75,57.9308,59.8571,140.554,99.8697,105.429,0.00316406,0.255149,20.7679,118.404,-0.49297,0.0,0.0
6064,1515.75,57.8103,59.9449,145.321,99.918,105.541,0.00277794,0.252928,20.7699,118.154,-0.498204,0.0,0.0
6080,1519.75,57.6782,60.1979,140.245,99.9719,104.812,0.00265815,0.250571,20.7751,117.904,-0.430255,0.0,0.0
6096,1523.75,57.7205,59.7408,145.184,100.035,104.531,0.00315313,0.247285,20.7809,117.634,-0.400121,0.0,0.0
6112,1527.75,56.8356,59.7318,142.149,100.085,104.859,0.00330419,0.244213,20.7837,117.403,-0.424043,0.0,0.0
6128,1531.75,57.082,59.1675,141.511,100.145,104.584,0.00307263,0.24113,20.7864,117.153,-0.394652,0.0,0.0
6144,1535.75,56.7625,59.2189,140.071,100.189,105.121,0.00303172,0.237655,20.7902,116.923,-0.437286,0.0,0.0
6160,1539.75,56.7411,59.0086,142.45,100.229,105.346,0.00325353,0.233315,20.7976,116.703,-0.453131,0.0,0.0
6176,1543.75,56.2585,58.631,146.834,100.271,104.679,0.00318307,0.228738,20.8039,116.503,-0.39153,0.0,0.0
6192,1547.75,56.2658,58.4255,141.938,100.31,105.358,0.00318109,0.224049,20.8102,116.282,-0.446826,0.0,0.0
6208,1551.75,55.8247,58.0105,144.447,100.346,104.984,0.00353641,0.219724,20.8148,116.082,-0.411226,0.0,0.0
6224,1555.75,55.5568,57.8652,141.629,100.369,105.287,0.0035964,0.215556,20.8211,115.872,-0.435319,0.0,0.0
6240,1559.75,54.9691,57.596,144.305,100.389,105.09,0.00326825,0.21109,20.8256,115.702,-0.416522,0.0,0.0
6256,1563.75,54.9253,57.3662,140.901,100.397,104.667,0.00327629,0.207013,20.8282,115.492,-0.379072,0.0,0.0
6272,1567.75,54.4427,56.9412,143.718,100.401,104.884,0.00368662,0.202619,20.8327,115.262,-0.397598,0.0,0.0
6288,1571.75,54.4098,56.5493,145.627,100.403,105.127,0.00363098,0.198139,20.8379,115.091,-0.418451,0.0,0.0
6304,1575.75,54.4249,56.5512,145.43,100.401,104.466,0.00375764,0.193309,20.842,114.931,-0.361193,0.0,0.0
6320,1579.75,53.0898,56.2624,142.709,100.396,104.795,0.00422779,0.188745,20.8472,114.771,-0.390257,0.0,0.0
6336,1583.75,53.1092,55.5512,144.413,100.382,105.699,0.00426381,0.184377,20.8516,114.671,-0.469629,0.0,0.0
6352,1587.75,52.8956,54.9752,147.592,100.374,105.751,0.00385325,0.180574,20.8548,114.541,-0.474922,0.0,0.0
6368,1591.75,52.1172,54.5671,142.335,100.355,105.709,0.00393745,0.176704,20.8593,114.411,-0.473021,0.0,0.0
6384,1595.75,52.0818,54.5333,143.115,100.322,104.697,0.00395859,0.172885,20.8629,114.281,-0.388498,0.0,0.0
6400,1599.75,51.3086,53.5273,144.855,100.319,105.176,0.00408267,0.169007,20.8666,114.131,-0.430303,0.0,0.0
6416,1603.75,51.3118,53.6919,146.577,100.291,104.922,0.00419388,0.165446,20.8713,114.01,-0.4108,0.0,0.0
6432,1607.75,50.5942,53.3437,149.006,100.253,104.685,0.00448474,0.16201,20.8734,113.89,-0.393598,0.0,0.0
6448,1611.75,50.7765,53.0234,143.111,100.228,104.907,0.00471735,0.158885,20.877,113.76,-0.415234,0.0,0.0
6464,1615.75,49.8981,52.742,144.454,100.202,104.224,0.00479883,0.155131,20.8804,113.66,-0.358142,0.0,0.0
6480,1619.75,50.0541,52.2294,145.673,100.181,104.845,0.00502376,0.151872,20.8848,113.55,-0.414084,0.0,0.0
6496,1623.75,49.2814,51.9655,146.532,100.125,104.964,0.00510352,0.148301,20.8893,113.45,-0.429476,0.0,0.0
6512,1627.75,48.8348,51.4015,141.944,100.057,105.031,0.00545134,0.144872,20.8934,113.36,-0.441501,0.0,0.0
6528,1631.75,48.6013,50.9544,147.237,99.9894,104.389,0.00535682,0.141522,20.8962,113.27,-0.391869,0.0,0.0
6544,1635.75,48.4275,50.7856,144.702,99.8812,104.654,0.00558032,0.138496,20.899,113.16,-0.424814,0.0,0.0
6560,1639.75,48.2298,50.2271,147.835,99.7631,104.731,0.00599307,0.135694,20.9021,113.03,-0.442281,0.0,0.0
6576,1643.75,47.729,49.8936,147.713,99.6493,104.606,0.00612609,0.133266,20.9063,112.909,-0.441743,0.0,0.0
6592,1647.75,46.9289,49.5018,144.537,99.5455,104.073,0.00620315,0.130496,20.9095,112.829,-0.404766,0.0,0.0
6608,1651.75,46.9412,49.1509,146.11,99.4225,103.986,0.00616915,0.127816,20.9123,112.769,-0.408412,0.0,0.0
6624,1655.75,46.5237,48.8214,151.432,99.3071,104.108,0.00610545,0.125929,20.9132,112.689,-0.429613,0.0,0.0
6640,1659.75,46.2228,48.7389,145.714,99.1969,103.634,0.00639627,0.123798,20.9158,112.639,-0.398174,0.0,0.0
6656,1663.75,46.0797,47.6783,150.083,99.074,103.733,0.00655704,0.121753,20.9177,112.589,-0.418157,0.0,0.0
6672,1667.75,46.1502,47.9216,149.153,98.9522,104.004,0.00672353,0.119709,20.9206,112.519,-0.453099,0.0,0.0
6688,1671.75,45.6143,47.3069,150.399,98.8272,103.656,0.00657468,0.117684,20.9219,112.449,-0.43417,0.0,0.0
6704,1675.75,45.3516,47.4625,145.276,98.7438,103.388,0.00661364,0.116422,20.9222,112.389,-0.418225,0.0,0.0
6720,1679.75,45.1917,46.7543,146.393,98.6711,103.32,0.00680635,0.115137,20.9227,112.319,-0.418977,0.0,0.0
6736,1683.75,44.8221,46.1758,149.578,98.6188,103.232,0.00687552,0.11401,20.9251,112.249,-0.416065,0.0,0.0
6752,1687.75,44.6594,46.2227,147.277,98.6148,103.467,0.00679433,0.11263,20.9277,112.199,-0.437131,0.0,0.0
6768,1691.75,44.3801,45.7404,150.899,98.6511,102.959,0.00680013,0.111107,20.9285,112.129,-0.388953,0.0,0.0
6784,1695.75,44.7701,45.5699,145.514,98.6971,103.773,0.00666384,0.11027,20.9291,112.079,-0.456357,0.0,0.0
6800,1699.75,44.2432,45.42,151.083,98.7685,103.253,0.00651607,0.10923,20.9307,112.019,-0.404125,0.0,0.0
6816,1703.75,43.9055,45.3087,150.377,98.8596,103.354,0.00638554,0.108336,20.9317,111.939,-0.404627,0.0,0.0
6832,1707.75,43.974,45.2144,149.108,98.965,103.244,0.00631269,0.107208,20.9336,111.889,-0.38525,0.0,0.0
6848,1711.75,43.8828,44.9862,148.44,99.0648,104.248,0.00621891,0.106346,20.9336,111.838,-0.464121,0.0,0.0
6864,1715.75,43.6096,44.7705,150.031,99.1821,104.333,0.00622006,0.106057,20.9333,111.758,-0.460771,0.0,0.0
6880,1719.75,42.8485,44.6329,151.273,99.3051,103.995,0.00616909,0.105374,20.9332,111.658,-0.41995,0.0,0.0
6896,1723.75,43.2247,44.1901,152.281,99.4133,104.524,0.00621736,0.104624,20.9326,111.588,-0.456184,0.0,0.0
6912,1727.75,43.021,44.3394,151.931,99.5095,104.384,0.00602623,0.104173,20.9324,111.538,-0.435219,0.0,0.0
6928,1731.75,42.7229,43.9694,148.103,99.6061,103.986,0.00609216,0.103571,20.934,111.508,-0.391618,0.0,0.0
6944,1735.75,42.677,43.5615,147.284,99.6928,104.544,0.00629026,0.102852,20.9353,111.488,-0.432401,0.0,0.0
6960,1739.75,42.8195,43.7777,149.963,99.7654,104.59,0.00637351,0.102368,20.9357,111.458,-0.429729,0.0,0.0
6976,1743.75,42.6629,43.4629,149.536,99.817,104.756,0.00620907,0.102034,20.9356,111.428,-0.439478,0.0,0.0
6992,1747.75,42.9027,43.2182,149.083,99.8433,104.186,0.0063686,0.101941,20.9353,111.368,-0.387416,0.0,0.0
7008,1751.75,42.4954,43.2501,152.593,99.8421,104.859,0.00652851,0.101068,20.9369,111.328,-0.446178,0.0,0.0
7024,1755.75,41.5944,42.591,150.494,99.8301,104.246,0.00663706,0.100084,20.9389,111.278,-0.393886,0.0,0.0
7040,1759.75,40.5098,41.2936,150.665,99.8102,104.445,0.00648193,0.0992409,20.9389,111.218,-0.413065,0.0,0.0
7056,1763.75,40.4507,41.005,146.434,99.7738,104.567,0.00660746,0.0985075,20.9411,111.178,-0.427044,0.0,0.0
7072,1767.75,40.677,41.3279,149.496,99.7151,104.408,0.00690755,0.0977218,20.9415,111.138,-0.418554,0.0,0.0
7088,1771.75,40.1848,41.2242,150.604,99.6449,104.633,0.00691611,0.0972365,20.9416,111.098,-0.444534,0.0,0.0
7104,1775.75,39.6808,40.7161,150.546,99.5558,104.408,0.00692377,0.0967577,20.9414,111.058,-0.433064,0.0,0.0
7120,1779.75,40.381,41.3326,151.961,99.4628,104.181,0.0066762,0.0965301,20.9397,110.998,-0.421769,0.0,0.0
7136,1783.75,39.9621,40.7631,145.651,99.377,104.323,0.00651532,0.0963095,20.9394,110.948,-0.442048,0.0,0.0
7152,1787.75,39.9547,40.9701,149.272,99.3059,103.63,0.00638503,0.0961462,20.9411,110.908,-0.387863,0.0,0.0
7168,1791.75,40.0801,40.683,149.713,99.2536,103.723,0.0063537,0.095838,20.9415,110.838,-0.40084,0.0,0.0
7184,1795.75,39.8116,40.9177,149.307,99.1913,103.725,0.00627062,0.0958157,20.9416,110.758,-0.40671,0.0,0.0
7200,1799.75,39.8738,40.4134,147.617,99.1598,104.268,0.00625911,0.0955542,20.9416,110.697,-0.457125,0.0,0.0
7216,1803.75,39.5795,40.4018,147.965,99.2692,104.436,0.00631685,0.0953684,20.9433,110.657,-0.46174,0.0,0.0
7232,1807.75,39.8128,40.0803,146.019,99.3838,103.65,0.00586138,0.0950364,20.9438,110.627,-0.382511,0.0,0.0
7248,1811.75,39.6391,40.6714,151.2,99.5135,104.288,0.00611278,0.0945647,20.9439,110.607,-0.426449,0.0,0.0
7264,1815.75,39.6851,40.3472,147.353,99.6461,104.218,0.00617218,0.0946811,20.9424,110.627,-0.408243,0.0,0.0
7280,1819.75,39.7339,40.204,150.184,99.7411,104.429,0.00626887,0.095208,20.9408,110.607,-0.417991,0.0,0.0
7296,1823.75,39.3001,39.7976,152.273,99.8078,104.6,0.00641967,0.0955495,20.9422,110.567,-0.426771,0.0,0.0
7312,1827.75,39.5979,39.7733,147.303,99.8744,104.894,0.00658925,0.0958493,20.943,110.507,-0.446279,0.0,0.0
7328,1831.75,39.5609,39.7817,152.682,99.924,105.18,0.00647186,0.0958464,20.9455,110.397,-0.466503,0.0,0.0
7344,1835.75,39.6588,40.336,150.034,99.9459,104.692,0.00652657,0.0958185,20.9443,110.447,-0.422172,0.0,0.0
7360,1839.75,39.8641,40.0667,149.953,99.9491,104.671,0.00627618,0.0964305,20.9433,110.387,-0.42008,0.0,0.0
7376,1843.75,39.752,39.7732,148.061,99.9495,105.152,0.00605741,0.0961396,20.9438,110.327,-0.461801,0.0,0.0
7392,1847.75,39.4144,40.051,149.784,99.9363,104.953,0.00599729,0.0958266,20.9445,110.227,-0.445758,0.0,0.0
7408,1851.75,39.3633,40.319,151.448,99.9192,104.82,0.00600849,0.0958396,20.9442,110.217,-0.435718,0.0,0.0
7424,1855.75,39.4496,40.1043,147.826,99.8872,104.646,0.00627857,0.09594,20.9427,110.227,-0.423524,0.0,0.0
7440,1859.75,39.2922,40.2826,147.698,99.8369,105.07,0.00604586,0.0959698,20.9424,110.137,-0.464923,0.0,0.0
7456,1863.75,39.4818,39.9491,149.607,99.777,104.677,,0.0959409,,110.087,-0.436309,0.0,0.0
7472,1867.75,39.1754,39.8409,145.59,99.7607,104.598,,,,110.057,-0.430871,0.0,0.0
7488,1871.75,39.413,39.844,147.142,99.7112,104.33,,,,109.907,-0.412047,0.0,0.0
7498,1874.25,39.4932,39.9075,150.178,99.69,104.549,,,,109.977,-0.433087,0.0,0.0