File: 01_Data/Oak_Flooring/Cone/Oak_Flooring_Cone_HF75Scan_220914_R1.csv
Names,Time,Stack TC,Smoke TC,Exh Press,Smoke Comp,Smoke Meas,CO Meter,CO2 Meter,O2 Meter,Sample Mass,Ext Coeff,Start Test,Flame Verif
Chan Gain,,500,500,1,1,1,1,1,1,1,1,1.0,1.0
Offset,,0,0,0.139139,0,0,0,0,0,0,0,0.0,0.0
Gain,,1,1,25.011,13.0826,14.7555,1,1,1,1.00088,1.03743,1.0,1.0
Units,sec,C,C,Pa,%,%,%,%,%,g,/m,,
Baseline,,61.1305,63.0982,137.777,99.6041,105.756,-0.00086291,0.0493339,20.9907,-451.294,-0.545403,,
9,2,59.612,62.2462,138.14,99.6596,105.922,-0.000639404,0.061256,20.9809,206.242,-0.554588,0.0,0.0
18,4.25,59.6988,62.0348,137.035,99.6708,105.598,-0.00064537,0.0609896,20.982,206.212,-0.525669,0.0,0.0
27,6.5,60.0488,62.557,135.48,99.6908,105.522,-0.000640735,0.0597052,20.9838,206.212,-0.517287,0.0,0.0
36,8.75,60.1223,62.1342,136.765,99.6956,104.632,-0.000498772,0.0584114,20.9846,206.132,-0.439826,0.0,0.0
45,11,60.6879,62.6988,134.201,99.7012,104.711,-4.85571e-05,0.0662554,20.9664,205.961,-0.446167,0.0,1.0
54,13.25,61.7667,62.8916,123.574,99.7291,99.7717,0.000793761,0.135135,20.8031,205.651,-0.00388727,0.0,1.0
63,15.5,63.34,63.3058,114.276,99.7854,95.687,0.00195832,0.296323,20.5787,205.261,0.381659,0.0,1.0
72,17.75,68.1596,66.4847,115.088,99.7774,94.0804,0.00331503,0.480389,20.3544,204.64,0.535032,0.0,1.0
81,20,72.5391,69.6224,104.636,99.8098,91.3659,0.00458508,0.635922,20.1742,204.08,0.804407,0.0,0.0
90,22.25,76.9005,73.7567,115.206,99.8453,89.7962,0.00584708,0.752051,20.0611,203.529,0.965356,0.0,0.0
99,24.5,81.1039,77.6104,109.629,99.8685,89.6534,0.0068015,0.826651,19.9987,203.019,0.981943,0.0,0.0
108,26.75,84.4164,80.4274,110.814,99.8832,92.5574,0.00715989,0.862631,19.987,202.368,0.693192,0.0,0.0
117,29,87.8935,84.4846,114.541,99.9076,93.7048,0.0071723,0.871697,19.9963,201.848,0.583294,0.0,0.0
126,31.25,90.1283,86.1192,116.305,99.9383,92.1206,0.00697524,0.86722,20.0188,201.367,0.741258,0.0,0.0
135,33.5,92.5361,89.0172,110.858,99.9527,93.5409,0.0066848,0.857686,20.0431,200.677,0.603335,0.0,0.0
144,35.75,94.2559,90.676,111.723,99.9583,92.933,0.00642297,0.843864,20.0717,200.196,0.663178,0.0,0.0
153,38,96.1776,93.1891,112.802,99.9735,94.2956,0.00625891,0.824816,20.0963,199.616,0.532096,0.0,0.0
162,40.25,97.0722,95.4387,116.756,99.9894,94.6775,0.00621885,0.809209,20.1217,199.205,0.496772,0.0,0.0
171,42.5,98.8932,97.434,113.534,99.9818,95.0084,0.00626088,0.791442,20.1431,198.605,0.464324,0.0,0.0
180,44.75,99.5944,98.6396,114.619,99.991,94.3839,0.00619668,0.771913,20.1655,198.094,0.525182,0.0,0.0
189,47,100.426,99.9346,112.608,99.9806,96.3697,0.00592081,0.754323,20.188,197.704,0.334753,0.0,0.0
198,49.25,101.841,101.201,117.393,99.9623,96.4503,0.00571439,0.735043,20.2135,197.184,0.325473,0.0,0.0
207,51.5,101.668,102.339,113.848,99.9248,95.0679,0.00568352,0.715913,20.2348,196.643,0.453435,0.0,0.0
216,53.75,102.322,103.29,115.889,99.9259,96.6232,0.0055932,0.701942,20.2573,196.233,0.305865,0.0,0.0
225,56,102.907,103.811,112.53,99.8868,96.3012,0.00547063,0.685036,20.2771,195.872,0.332676,0.0,0.0
234,58.25,102.917,104.7,119.388,99.8357,96.8745,0.00546036,0.672277,20.2872,195.302,0.274009,0.0,0.0
243,60.5,103.436,105.498,114.246,99.7822,97.1366,0.00538663,0.659707,20.3013,194.832,0.244545,0.0,0.0
252,62.75,103.94,105.95,114.546,99.7387,96.6273,0.00528627,0.648622,20.3161,194.471,0.288414,0.0,0.0
261,65,103.975,106.917,116.092,99.6952,97.1393,0.00510851,0.637581,20.329,194.051,0.236351,0.0,0.0
270,67.25,103.512,107.325,117.827,99.6309,97.0357,0.0048574,0.626189,20.3395,193.52,0.240189,0.0,0.0
279,69.5,104.24,107.709,117.561,99.5806,97.4887,0.00460182,0.615634,20.3535,193.09,0.193208,0.0,0.0
288,71.75,104.026,108.191,118.346,99.5319,96.7169,0.00436493,0.605297,20.3655,192.81,0.261089,0.0,0.0
297,74,103.959,108.713,116.551,99.4572,97.8769,0.00413949,0.594523,20.3789,192.259,0.145765,0.0,0.0
306,76.25,104.061,108.616,114.957,99.4025,97.8706,0.00408682,0.586127,20.3888,191.859,0.141345,0.0,0.0
315,78.5,104.078,108.899,116.192,99.3442,98.0056,0.00417008,0.579217,20.3944,191.519,0.123453,0.0,0.0
324,80.75,104.093,109.462,117.082,99.2851,97.712,0.00429211,0.57339,20.4017,191.178,0.145343,0.0,0.0
333,83,104.253,109.078,116.297,99.236,97.8116,0.00429022,0.565736,20.4114,190.638,0.131577,0.0,0.0
342,85.25,104.137,109.704,120.452,99.2209,97.9403,0.00420198,0.558471,20.4186,190.268,0.118211,0.0,0.0
351,87.5,104.183,109.426,116.66,99.3666,98.46,0.00409539,0.552827,20.4235,189.987,0.0834107,0.0,0.0
360,89.75,103.811,109.904,118.948,99.4241,99.1174,0.00408898,0.547691,20.4272,189.547,0.0281114,0.0,0.0
369,92,103.737,110.623,118.356,99.4992,98.5325,0.0041177,0.543881,20.4323,189.097,0.088844,0.0,0.0
378,94.25,103.619,109.8,115.666,99.5742,99.2287,0.0039988,0.540732,20.4352,188.726,0.0316353,0.0,0.0
387,96.5,103.214,110.183,119.608,99.6353,98.564,0.00383582,0.537513,20.4372,188.406,0.0983756,0.0,0.0
396,98.75,103.47,110.214,116.369,99.7028,99.4691,0.00368939,0.535378,20.44,187.925,0.0213506,0.0,0.0
405,101,102.285,110.117,119.185,99.7762,98.5955,0.00364641,0.532686,20.4427,187.565,0.108329,0.0,0.0
414,103.25,103.486,109.855,118.478,99.8389,98.6766,0.0035564,0.529675,20.4456,187.225,0.106567,0.0,0.0
423,105.5,103.201,110.315,119.254,99.8884,100.106,0.00351826,0.526967,20.4488,186.784,-0.0198291,0.0,0.0
432,107.75,103.37,110.915,119.726,99.9116,100.195,0.00349457,0.524016,20.452,186.364,-0.0257803,0.0,0.0
441,110,103.101,109.888,115.557,99.9319,99.6763,0.00351537,0.521436,20.4542,186.014,0.0233126,0.0,0.0
450,112.25,103.15,110.339,123.49,99.9315,99.9194,0.00358814,0.519618,20.4558,185.754,0.00110322,0.0,0.0
459,114.5,103.877,110.273,114.636,99.9064,100.336,0.00355735,0.518717,20.4567,185.253,-0.0390451,0.0,0.0
468,116.75,103.046,110.863,119.99,99.8501,100.04,0.00339998,0.518335,20.4572,184.883,-0.0173017,0.0,0.0
477,119,103.018,110.025,119.088,99.7998,99.6884,0.00326178,0.517522,20.4574,184.603,0.0101604,0.0,0.0
486,121.25,103.386,110.668,118.687,99.7012,98.9643,0.00324087,0.517178,20.4575,184.172,0.0675049,0.0,0.0
495,123.5,102.899,110.589,117.311,99.5966,99.1544,0.00330266,0.515968,20.4594,183.722,0.0404947,0.0,0.0
504,125.75,103.244,110.529,122.35,99.5423,99.7519,0.00341418,0.513582,20.463,183.391,-0.0191464,0.0,0.0
513,128,102.799,110.834,117.553,99.6217,99.6299,0.00350475,0.511576,20.4654,183.071,-0.000745858,0.0,0.0
522,130.25,103.019,110.641,120.403,99.6505,100.281,0.00339182,0.51027,20.4668,182.651,-0.0574431,0.0,0.0
531,132.5,102.944,110.534,117.865,99.7319,99.9537,0.00325796,0.50854,20.4694,182.24,-0.0202108,0.0,0.0
540,134.75,102.735,110.432,121.654,99.8265,99.9181,0.00312689,0.506531,20.472,181.91,-0.00834082,0.0,0.0
549,137,102.724,110.797,117.002,99.9216,100.376,0.00308938,0.503634,20.4752,181.58,-0.0412571,0.0,0.0
558,139.25,102.897,110.538,119.637,99.9862,99.8812,0.00304252,0.499529,20.4811,181.17,0.00956868,0.0,0.0
567,141.5,102.883,110.419,119.658,100.078,99.96,0.00279248,0.496757,20.4836,180.809,0.0107823,0.0,0.0
576,143.75,102.73,110.648,120.601,100.167,99.9235,0.00261841,0.494103,20.4861,180.499,0.0221591,0.0,0.0
585,146,102.471,110.364,114.274,100.227,99.878,0.00268834,0.491438,20.4896,180.099,0.0317423,0.0,0.0
594,148.25,102.676,110.33,117.723,100.287,100.18,0.0027914,0.489328,20.4912,179.708,0.00972473,0.0,0.0
603,150.5,102.429,110.305,120.239,100.343,100.517,0.00274627,0.48771,20.4923,179.368,-0.0158269,0.0,0.0
612,152.75,102.314,110.354,120.435,100.397,100.553,0.002613,0.485781,20.4947,179.068,-0.0142002,0.0,0.0
621,155,102.526,110.176,120.716,100.429,100.224,0.00246051,0.483887,20.4968,178.627,0.0185698,0.0,0.0
630,157.25,102.449,110.392,117.372,100.421,100.698,0.00234202,0.48212,20.4996,178.287,-0.0251433,0.0,0.0
639,159.5,102.597,110.042,119.8,100.421,101.107,0.0023351,0.478561,20.5036,177.997,-0.0620196,0.0,0.0
648,161.75,102.333,110.135,119.071,100.389,101.006,0.00244784,0.475755,20.5068,177.586,-0.0557495,0.0,0.0
657,164,102.112,109.77,124.414,100.342,100.698,0.00244688,0.47252,20.5094,177.246,-0.0323101,0.0,0.0
666,166.25,101.602,109.867,116.2,100.278,101.181,0.00237219,0.470223,20.5124,176.926,-0.0816255,0.0,0.0
675,168.5,101.603,109.918,123.616,100.21,101.312,0.00228577,0.469301,20.5146,176.656,-0.0995653,0.0,0.0
684,170.75,101.874,109.641,117.702,100.143,100.736,0.00238117,0.467779,20.5166,176.255,-0.053737,0.0,0.0
693,173,101.852,109.634,121.707,100.066,101.253,0.00239662,0.465876,20.5189,175.925,-0.107363,0.0,0.0
702,175.25,101.711,109.447,119.497,99.9998,100.458,0.00220513,0.463413,20.5215,175.635,-0.0416009,0.0,0.0
711,177.5,101.648,109.518,117.928,99.8944,100.966,0.00209643,0.460533,20.5252,175.274,-0.0971357,0.0,0.0
720,179.75,101.237,109.176,117.111,99.7986,101.364,0.00210415,0.457256,20.5266,174.964,-0.141637,0.0,0.0
729,182,101.297,109.373,122.899,99.7052,101.585,0.00213455,0.456804,20.5272,174.624,-0.169988,0.0,0.0
738,184.25,101.472,109.145,119.725,99.6305,101.204,0.0021504,0.455132,20.5302,174.283,-0.142614,0.0,0.0
747,186.5,101.107,108.513,118.14,99.5403,100.257,0.00214775,0.451206,20.5345,173.823,-0.0653046,0.0,0.0
756,188.75,100.871,108.679,122.624,99.4916,101.416,0.00215345,0.449812,20.5361,173.553,-0.174365,0.0,0.0
765,191,100.346,108.56,120.693,99.5363,100.528,0.00206727,0.450648,20.5368,173.223,-0.090202,0.0,0.0
774,193.25,100.658,108.435,121.283,99.5235,99.9546,0.00194506,0.448216,20.5384,172.912,-0.039329,0.0,0.0
783,195.5,100.611,108.234,122.26,99.486,101.063,0.00189768,0.447989,20.5381,172.532,-0.143101,0.0,0.0
792,197.75,100.496,107.894,120.12,99.4405,101.214,0.00192714,0.447876,20.538,172.192,-0.160839,0.0,0.0
801,200,100.341,107.947,118.362,99.4193,100.492,0.00198846,0.447272,20.538,171.911,-0.0976417,0.0,0.0
810,202.25,100.486,107.724,121.088,99.3574,101.087,0.00205584,0.447792,20.538,171.481,-0.157018,0.0,0.0
819,204.5,99.9408,107.69,118.342,99.3127,100.388,0.00216421,0.448455,20.538,171.211,-0.09798,0.0,0.0
828,206.75,100.323,107.685,118.114,99.2871,100.857,0.00220323,0.447878,20.5382,170.88,-0.142717,0.0,0.0
837,209,100.488,107.693,117.801,99.242,100.904,0.002015,0.447106,20.5397,170.58,-0.151118,0.0,0.0
846,211.25,100.359,107.637,122.803,99.2101,100.222,0.00178209,0.446793,20.5413,170.18,-0.0923524,0.0,0.0
855,213.5,100.368,107.566,122.86,99.1698,100.84,0.00168785,0.444564,20.5439,169.9,-0.152019,0.0,0.0
864,215.75,99.9726,107.197,120.736,99.1614,100.223,0.00174932,0.442603,20.5462,169.559,-0.0969438,0.0,0.0
873,218,100.05,107.693,116.351,99.1255,99.9293,0.00178863,0.440659,20.5472,169.229,-0.0735038,0.0,0.0
882,220.25,100.065,107.246,122.338,99.0915,100.52,0.00172866,0.440816,20.5476,168.829,-0.130223,0.0,0.0
891,222.5,100.339,107.404,122.029,99.0807,100.179,0.0017055,0.440792,20.5482,168.518,-0.100341,0.0,0.0
900,224.75,100.268,107.408,122.357,99.0807,100.906,0.00173185,0.43845,20.5495,168.218,-0.166084,0.0,0.0
909,227,99.9154,107.199,120.235,99.0803,100.898,0.00161449,0.438939,20.5478,167.838,-0.16547,0.0,0.0
918,229.25,100.162,106.74,119.09,99.0871,101.228,0.00141087,0.441006,20.5442,167.498,-0.194488,0.0,0.0
927,231.5,100.019,107.207,121.17,99.1035,101.531,0.00138114,0.442304,20.5427,167.257,-0.220188,0.0,0.0
936,233.75,100.206,107.352,120.938,99.1247,100.992,0.00158108,0.441624,20.5436,166.877,-0.169844,0.0,0.0
945,236,99.852,106.836,119.123,99.1239,100.425,0.00171926,0.442043,20.5466,166.527,-0.118688,0.0,0.0
954,238.25,100.409,106.711,118.141,99.145,100.811,0.00178315,0.441185,20.5478,166.206,-0.15169,0.0,0.0
963,240.5,100.74,106.853,118.878,99.1526,100.896,0.00179738,0.440543,20.5483,165.896,-0.158591,0.0,0.0
972,242.75,100.15,107.331,122.631,99.1518,101.527,0.0017221,0.440327,20.5495,165.516,-0.215389,0.0,0.0
981,245,100.476,106.746,123.443,99.1646,101.107,0.00165639,0.438533,20.5517,165.266,-0.176562,0.0,0.0
990,247.25,100.013,107.082,119.492,99.2141,101.387,0.00164005,0.435363,20.554,164.865,-0.197153,0.0,0.0
999,249.5,100.282,106.857,118.283,99.2209,100.533,0.0015835,0.435605,20.5535,164.585,-0.119574,0.0,0.0
1008,251.75,100.119,106.977,116.995,99.2325,100.344,0.00154057,0.437132,20.5524,164.225,-0.101335,0.0,0.0
1017,254,100.088,106.713,124.714,99.2608,100.919,0.00153542,0.435523,20.5548,163.924,-0.150778,0.0,0.0
1026,256.25,100.226,106.626,122.928,99.2808,101.561,0.00151724,0.434595,20.557,163.594,-0.206629,0.0,0.0
1035,258.5,100.062,106.027,118.998,99.3259,101.645,0.00160363,0.433349,20.5573,163.224,-0.209996,0.0,0.0
1044,260.75,100.061,106.307,119.105,99.3522,101.313,0.00165735,0.432041,20.5569,162.984,-0.177861,0.0,0.0
1053,263,100.042,106.147,122.201,99.3993,101.481,0.0015508,0.431751,20.5568,162.583,-0.188581,0.0,0.0
1062,265.25,99.2553,106.324,120.094,99.4401,101.295,0.00149551,0.431552,20.5578,162.343,-0.16816,0.0,0.0
1071,267.5,99.5781,106.252,119.126,99.4888,101.54,0.00154918,0.430833,20.5586,161.953,-0.185685,0.0,0.0
1080,269.75,99.3101,106.022,117.569,99.5291,101.218,0.00164178,0.430237,20.5592,161.622,-0.153096,0.0,0.0
1089,272,99.3629,105.776,117.382,99.5898,101.384,0.00172394,0.431328,20.5577,161.372,-0.162475,0.0,0.0
1098,274.25,99.6753,105.801,121.236,99.6161,101.306,0.00175368,0.434087,20.5562,160.972,-0.153113,0.0,0.0
1107,276.5,99.4469,105.772,121.695,99.6521,101.587,0.00169046,0.433489,20.5566,160.682,-0.175038,0.0,0.0
1116,278.75,99.3125,105.835,125.517,99.7016,101.765,0.00155695,0.431254,20.5586,160.381,-0.186438,0.0,0.0
1125,281,99.3678,105.736,120.595,99.7503,101.989,0.00148315,0.430282,20.5595,160.061,-0.201984,0.0,0.0
1134,283.25,99.3561,105.608,123.716,99.8058,101.57,0.00145883,0.428699,20.5583,159.741,-0.159479,0.0,0.0
1143,285.5,99.4894,105.595,119.744,99.8621,101.723,0.00154053,0.431329,20.5552,159.36,-0.168054,0.0,0.0
1152,287.75,99.1524,105.733,121.067,99.9144,101.998,0.0017369,0.433814,20.554,159.07,-0.187789,0.0,0.0
1161,290,99.2343,105.718,123.169,99.9659,101.592,0.00190431,0.434066,20.5535,158.74,-0.146828,0.0,0.0
1170,292.25,99.7627,105.504,120.532,100.013,101.008,0.00192522,0.433887,20.5539,158.399,-0.0901138,0.0,0.0
1179,294.5,98.7197,105.498,125.262,100.047,102.205,0.00188954,0.435478,20.5549,158.119,-0.194187,0.0,0.0
1188,296.75,99.5182,105.7,118.827,100.109,101.868,0.0018515,0.434313,20.5553,157.819,-0.15856,0.0,0.0
1197,299,99.6222,105.955,120.485,100.136,101.64,0.00192472,0.433909,20.5544,157.499,-0.135714,0.0,0.0
1206,301.25,99.6596,105.282,118.085,100.156,101.262,0.00202822,0.435477,20.5526,157.118,-0.0999656,0.0,0.0
1215,303.5,99.8213,105.977,117.333,100.203,101.204,0.00197257,0.436272,20.5529,156.848,-0.0904321,0.0,0.0
1224,305.75,99.7753,105.596,121.886,100.218,101.423,0.00191122,0.434619,20.5553,156.518,-0.108789,0.0,0.0
1233,308,99.5838,105.413,121.116,100.222,101.615,0.00195205,0.433528,20.558,156.148,-0.125582,0.0,0.0
1242,310.25,99.555,105.308,117.488,100.226,102.096,0.00199104,0.431857,20.5597,155.787,-0.168264,0.0,0.0
1251,312.5,99.7126,105.153,120.509,100.257,101.743,0.00210159,0.431186,20.5595,155.587,-0.133874,0.0,0.0
1260,314.75,100.021,105.394,122.957,100.27,102.413,0.00222642,0.43101,20.5586,155.197,-0.192454,0.0,0.0
1269,317,99.2543,105.355,123.061,100.275,102.066,0.00217241,0.43145,20.5567,154.836,-0.16112,0.0,0.0
1278,319.25,99.3893,105.122,117.096,100.294,100.971,0.00209205,0.433617,20.5537,154.586,-0.0612835,0.0,0.0
1287,321.5,99.3241,105.291,119.829,100.312,101.826,0.00199066,0.435124,20.5524,154.256,-0.136399,0.0,0.0
1296,323.75,99.4991,105.637,121.998,100.318,101.904,0.0018323,0.434667,20.5518,153.845,-0.142816,0.0,0.0
1305,326,99.7649,105.596,120.206,100.333,101.458,0.00179548,0.435716,20.5503,153.585,-0.10146,0.0,0.0
1314,328.25,99.6095,105.31,119.395,100.355,101.681,0.00181724,0.437403,20.5502,153.355,-0.119485,0.0,0.0
1323,330.5,99.6769,105.28,121.969,100.357,102.187,0.00181611,0.435818,20.5523,152.855,-0.164409,0.0,0.0
1332,332.75,99.7018,105.207,119.15,100.367,101.02,0.00181844,0.433895,20.5532,152.604,-0.0589613,0.0,0.0
1341,335,99.1173,105.563,118.468,100.379,100.979,0.00182336,0.436486,20.5503,152.294,-0.0542597,0.0,0.0
1350,337.25,99.834,105.781,116.779,100.395,102.099,0.00185242,0.438959,20.5482,151.964,-0.153147,0.0,0.0
1359,339.5,99.68,105.433,117.764,100.358,100.947,0.00190844,0.439925,20.5474,151.644,-0.0533016,0.0,0.0
1368,341.75,99.8393,105.452,123.187,100.36,102.055,0.00185893,0.440187,20.548,151.363,-0.152438,0.0,0.0
1377,344,100.221,105.48,124.08,100.366,102.221,0.00170605,0.440021,20.5491,151.073,-0.166663,0.0,0.0
1386,346.25,99.9265,105.432,119.075,100.356,101.708,0.00160762,0.440152,20.5492,150.723,-0.121793,0.0,0.0
1395,348.5,99.9689,105.465,119.281,100.334,102.3,0.00156333,0.441371,20.5486,150.282,-0.176605,0.0,0.0
1404,350.75,99.8191,105.139,116.532,100.317,101.562,0.00152431,0.440116,20.5496,149.992,-0.112198,0.0,0.0
1413,353,99.8274,106.165,115.624,100.323,101.457,0.00153852,0.438496,20.5501,149.702,-0.102248,0.0,0.0
1422,355.25,99.9112,105.579,122.777,100.302,101.825,0.00159817,0.43955,20.5485,149.392,-0.137108,0.0,0.0
1431,357.5,100.141,105.541,121.876,100.291,100.664,0.0016616,0.441995,20.5448,149.081,-0.0337392,0.0,0.0
1440,359.75,100.06,105.756,123.418,100.273,101.019,0.00182683,0.44455,20.541,148.751,-0.0674683,0.0,0.0
1449,362,100.164,105.773,118.548,100.259,101.215,0.00188889,0.447909,20.5383,148.371,-0.0862886,0.0,0.0
1458,364.25,100.217,105.779,118.762,100.211,101.235,0.0017577,0.448826,20.5373,148.15,-0.0925327,0.0,0.0
1467,366.5,100.214,105.751,124.003,100.181,101.064,0.00165525,0.449762,20.537,147.8,-0.0798611,0.0,0.0
1476,368.75,100.231,105.388,119.751,100.165,101.797,0.00183215,0.450487,20.5371,147.52,-0.147045,0.0,0.0
1485,371,100.297,105.981,121.88,100.122,101.327,0.00190297,0.448073,20.5372,147.12,-0.108839,0.0,0.0
1494,373.25,100.202,106.049,117.716,100.084,101.581,0.00183842,0.449763,20.536,146.829,-0.135149,0.0,0.0
1503,375.5,100.409,106.166,121.393,100.087,100.934,0.0018195,0.451105,20.5361,146.449,-0.0766584,0.0,0.0
1512,377.75,100.108,105.841,120.356,100.051,100.769,0.0018296,0.448391,20.5368,146.159,-0.0650178,0.0,0.0
1521,380,99.9739,106.005,120.4,100.04,101.004,0.0019458,0.449317,20.535,145.818,-0.0872738,0.0,0.0
1530,382.25,100.255,105.89,121.577,100.017,101.182,0.00213326,0.452349,20.5321,145.548,-0.105393,0.0,0.0
1539,384.5,100.436,106.156,118.797,100.002,100.469,0.00227254,0.453641,20.5306,145.228,-0.0424385,0.0,0.0
1548,386.75,99.734,106.092,118.004,99.9874,100.701,0.00231341,0.456809,20.5258,144.888,-0.0646878,0.0,0.0
1557,389,99.9874,106.096,116.711,99.9715,100.028,0.00226816,0.46314,20.5192,144.527,-0.00509963,0.0,0.0
1566,391.25,100.899,106.137,118.272,99.9787,100.495,0.00210581,0.467425,20.5144,144.197,-0.0468706,0.0,0.0
1575,393.5,100.724,106.457,120.982,99.9611,101.122,0.00201271,0.469415,20.5122,143.907,-0.105055,0.0,0.0
1584,395.75,101.163,106.454,119.71,99.9487,100.843,0.00196299,0.471316,20.5104,143.496,-0.0810634,0.0,0.0
1593,398,101.343,106.452,118.72,99.9611,100.631,0.00188436,0.472846,20.5085,143.166,-0.0607762,0.0,0.0
1602,400.25,101.504,106.397,118.717,99.9615,101.185,0.00181329,0.474398,20.5065,142.906,-0.110691,0.0,0.0
1611,402.5,100.851,106.529,120.364,99.9571,100.511,0.0018087,0.475746,20.5052,142.526,-0.0502603,0.0,0.0
1620,404.75,101.67,106.935,119.545,99.9555,100.946,0.0019473,0.477453,20.5027,142.125,-0.0897467,0.0,0.0
1629,407,101.481,106.662,122.859,99.9579,99.706,0.00212971,0.479237,20.4995,141.825,0.022962,0.0,0.0
1638,409.25,101.755,106.691,118.233,99.9763,100.222,0.00226259,0.483165,20.4934,141.565,-0.0223442,0.0,0.0
1647,411.5,101.771,107.132,116.434,99.983,99.6938,0.00233075,0.487723,20.4894,141.214,0.0263624,0.0,0.0
1656,413.75,101.726,107.393,116.886,99.9942,100.706,0.00240254,0.490672,20.4873,140.814,-0.064518,0.0,0.0
1665,416,102.041,107.336,119.333,100.021,100.803,0.00238806,0.493225,20.4854,140.484,-0.0708324,0.0,0.0
1674,418.25,102.763,107.334,119.006,100.034,100.34,0.00235778,0.494046,20.4843,140.153,-0.0277415,0.0,0.0
1683,420.5,103.103,108.074,121.092,100.031,100.263,0.00238336,0.494914,20.4833,139.743,-0.0210099,0.0,0.0
1692,422.75,102.725,108.094,119.471,100.037,100.812,0.00237805,0.496691,20.481,139.473,-0.0702688,0.0,0.0
1701,425,103.05,108.064,121.083,100.051,100.216,0.00227081,0.499616,20.4772,139.183,-0.0150152,0.0,0.0
1710,427.25,102.517,108.61,117.535,100.055,100.037,0.00212326,0.503598,20.4738,138.792,0.0016282,0.0,0.0
1719,429.5,104.547,108.962,119.453,100.053,100.316,0.00214694,0.504054,20.4714,138.442,-0.0239473,0.0,0.0
1728,431.75,103.537,109.069,116.248,100.079,99.9892,0.00235235,0.504773,20.4704,138.112,0.00815434,0.0,0.0
1737,434,103.711,109.346,121.109,100.1,99.8568,0.0026024,0.506365,20.4679,137.771,0.0220995,0.0,0.0
1746,436.25,103.866,109.295,118.155,100.081,99.8708,0.00271128,0.509279,20.4655,137.391,0.0191208,0.0,0.0
1755,438.5,104.031,109.668,118.372,100.094,99.7713,0.00271211,0.512495,20.4621,137.061,0.0293918,0.0,0.0
1764,440.75,104.255,109.43,117.59,100.123,100.412,0.00272793,0.514827,20.4595,136.73,-0.0262193,0.0,0.0
1773,443,104.324,109.726,117.404,100.12,99.9397,0.0024648,0.516315,20.4572,136.36,0.0164389,0.0,0.0
1782,445.25,104.683,109.869,117.196,100.132,99.439,0.00216974,0.518514,20.4562,135.97,0.0632009,0.0,0.0
1791,447.5,104.776,109.983,117.491,100.144,99.3304,0.00222875,0.519871,20.4546,135.609,0.0742626,0.0,0.0
1800,449.75,104.962,110.57,117.262,100.155,99.8402,0.00243933,0.521361,20.4525,135.299,0.0286619,0.0,0.0
1809,452,105.12,110.401,115.052,100.155,99.3214,0.0024905,0.523041,20.4491,134.899,0.076068,0.0,0.0
1818,454.25,104.863,110.563,118.228,100.183,100.044,0.00237243,0.525961,20.4447,134.559,0.0127033,0.0,0.0
1827,456.5,105.27,110.706,121.514,100.195,100.258,0.00227716,0.52838,20.4429,134.168,-0.00572107,0.0,0.0
1836,458.75,105.335,110.979,116.292,100.2,99.9478,0.00231724,0.530187,20.4418,133.898,0.0229187,0.0,0.0
1845,461,105.538,111.357,118.807,100.214,99.4101,0.00239189,0.531837,20.4391,133.468,0.0733114,0.0,0.0
1854,463.25,105.804,111.402,119.049,100.232,100.317,0.00228574,0.534629,20.4372,133.127,-0.0076622,0.0,0.0
1863,465.5,105.883,111.584,117.85,100.254,99.1251,0.00218065,0.535543,20.4353,132.797,0.103067,0.0,0.0
1872,467.75,106.339,111.773,111.646,100.246,99.7753,0.00224258,0.537366,20.4346,132.427,0.0428413,0.0,0.0
1881,470,106.134,112.066,113.218,100.262,100.254,0.00235122,0.538025,20.4335,132.036,0.000699695,0.0,0.0
1890,472.25,106.526,112.381,117.213,100.286,100.137,0.00241739,0.537965,20.432,131.726,0.0135797,0.0,0.0
1899,474.5,106.681,112.489,115.218,100.299,99.4534,0.00252921,0.53949,20.4304,131.386,0.0770728,0.0,0.0
1908,476.75,107.013,112.616,117.916,100.312,99.0904,0.00261179,0.540141,20.4288,130.945,0.111467,0.0,0.0
1917,479,107.43,112.092,114.306,100.328,99.7528,0.00268953,0.541148,20.4267,130.615,0.0523586,0.0,0.0
1926,481.25,107.324,112.664,116.845,100.357,99.7879,0.00276099,0.54224,20.4256,130.275,0.0517254,0.0,0.0
1935,483.5,107.322,112.829,117.607,100.351,99.8294,0.0027662,0.542656,20.4269,129.884,0.0474409,0.0,0.0
1944,485.75,107.626,113.342,116.476,100.376,99.692,0.00264374,0.54368,20.4264,129.554,0.0621784,0.0,0.0
1953,488,107.641,112.992,117.929,100.39,99.9636,0.00247347,0.544221,20.4262,129.214,0.0387276,0.0,0.0
1962,490.25,107.776,113.295,115.528,100.407,99.3192,0.00238499,0.544864,20.4258,128.853,0.0991729,0.0,0.0
1971,492.5,107.814,113.888,117.792,100.397,99.7456,0.00235082,0.545141,20.4255,128.463,0.0592775,0.0,0.0
1980,494.75,108.012,114.014,116.669,100.418,100.202,0.00238862,0.546343,20.4235,128.093,0.0196372,0.0,0.0
1989,497,107.587,113.593,116.466,100.426,99.0841,0.00247356,0.549792,20.4172,127.742,0.1224,0.0,0.0
1998,499.25,108.342,114.219,114.308,100.428,99.9181,0.00260751,0.55427,20.4112,127.322,0.0463433,0.0,0.0
2007,501.5,108.553,114.52,112.903,100.427,99.5565,0.0026502,0.558059,20.4079,127.032,0.0792271,0.0,0.0
2016,503.75,108.273,114.093,116.291,100.441,100.125,0.00249685,0.561047,20.4049,126.662,0.0286597,0.0,0.0
2025,506,108.79,114.792,116.418,100.433,98.2398,0.00244387,0.562548,20.4031,126.341,0.200929,0.0,0.0
2034,508.25,109.122,115.226,114.238,100.406,98.3704,0.00256118,0.560516,20.4057,125.851,0.186379,0.0,0.0
2043,510.5,109.267,114.681,116.621,100.409,99.3084,0.00284763,0.555949,20.4091,125.501,0.100344,0.0,0.0
2052,512.75,108.878,115.302,116.863,100.401,99.6011,0.00297385,0.555662,20.4066,125.2,0.0727647,0.0,0.0
2061,515,109.53,115.343,116.964,100.368,99.3786,0.00288659,0.5637,20.3951,124.74,0.0901449,0.0,0.0
2070,517.25,109.391,115.591,115.769,100.333,98.1353,0.00285685,0.571661,20.388,124.35,0.201562,0.0,0.0
2079,519.5,110.014,115.549,117.538,100.308,98.5329,0.00287977,0.574621,20.3865,124.059,0.162448,0.0,0.0
2088,521.75,109.987,115.818,112.616,100.27,98.5181,0.00287042,0.575393,20.3852,123.689,0.160379,0.0,0.0
2097,524,110.175,116.223,112.777,100.216,98.3073,0.0028657,0.577452,20.3829,123.259,0.174973,0.0,0.0
2106,526.25,110.518,116.167,114.513,100.171,98.0696,0.00300079,0.57799,20.3805,122.888,0.192911,0.0,0.0
2115,528.5,110.754,116.027,114.683,100.126,98.6086,0.00306753,0.578094,20.3804,122.548,0.138932,0.0,0.0
2124,530.75,110.864,116.603,116.193,100.06,97.8377,0.00298494,0.580796,20.3787,122.118,0.204439,0.0,0.0
2133,533,110.833,116.715,116.98,99.9894,97.6341,0.00287342,0.584282,20.3743,121.767,0.216925,0.0,0.0
2142,535.25,111.17,117.146,115.112,99.916,98.0921,0.00291321,0.585882,20.3713,121.357,0.167652,0.0,0.0
2151,537.5,111.11,116.83,114.803,99.8377,97.6513,0.00300219,0.58929,20.3667,121.017,0.201512,0.0,0.0
2160,539.75,111.547,117.435,115.657,99.7651,96.8853,0.00313795,0.593132,20.3616,120.576,0.26655,0.0,0.0
2169,542,111.299,117.798,112.806,99.6569,97.1433,0.00335728,0.595484,20.3582,120.226,0.232472,0.0,0.0
2178,544.25,112.059,117.945,114.093,99.585,96.4715,0.00360261,0.597359,20.3564,119.886,0.289063,0.0,0.0
2187,546.5,112.122,117.696,117.624,99.4744,96.6745,0.00365459,0.598416,20.356,119.475,0.259815,0.0,0.0
2196,548.75,112.103,118.155,114.364,99.3826,95.6672,0.00356075,0.597119,20.357,119.045,0.34673,0.0,0.0
2205,551,112.147,118.279,113.241,99.3219,96.4796,0.00352243,0.595362,20.3574,118.685,0.264224,0.0,0.0
2214,553.25,112.286,118.031,120.203,99.2105,96.666,0.00356694,0.5923,20.3596,118.374,0.236445,0.0,0.0
2223,555.5,112.146,118.386,115.846,99.1039,96.7119,0.00356721,0.58324,20.373,118.004,0.222339,0.0,0.0
2232,557.75,112.019,118.264,117.49,99.0284,96.3346,0.00338985,0.569952,20.3912,117.634,0.250984,0.0,0.0
2241,560,111.802,118.638,116.529,98.9578,96.3918,0.00300558,0.552701,20.4116,117.293,0.239086,0.0,0.0
2250,562.25,111.432,117.906,118.686,98.9067,98.0917,0.00255203,0.530214,20.4419,117.033,0.0752988,0.0,0.0
2259,564.5,110.802,118.132,121.086,98.842,98.333,0.00223032,0.50618,20.4715,116.703,0.0469812,0.0,0.0
2268,566.75,110.451,117.571,117.088,98.8196,99.1616,0.00197954,0.481436,20.5032,116.453,-0.0314349,0.0,0.0
2277,569,109.451,116.954,124.055,98.8124,99.9505,0.00188434,0.457671,20.5314,116.262,-0.104213,0.0,0.0
2286,571.25,109.109,116.376,120.248,98.8196,100.744,0.00180435,0.433534,20.5536,116.002,-0.175506,0.0,0.0
2295,573.5,107.932,116.172,117.489,98.838,101.146,0.00164198,0.411555,20.5737,115.742,-0.210026,0.0,0.0
2304,575.75,107.413,114.941,121.947,98.8875,102,0.00139344,0.391782,20.5976,115.542,-0.282002,0.0,0.0
2313,578,106.699,114.342,119.88,98.9554,102.087,0.00118039,0.375424,20.6187,115.372,-0.28351,0.0,0.0
2322,580.25,105.819,113.325,123.799,99.0173,101.999,0.00107221,0.362492,20.6339,115.081,-0.269989,0.0,0.0
2331,582.5,105.08,113.195,122.821,99.1055,102.735,0.00107208,0.351734,20.6464,114.871,-0.327294,0.0,0.0
2340,584.75,103.891,112.688,121.995,99.2029,102.954,0.00106539,0.344306,20.654,114.721,-0.337759,0.0,0.0
2349,587,103.929,111.751,122.109,99.284,102.72,0.00102197,0.339034,20.6587,114.531,-0.309607,0.0,0.0
2358,589.25,103.121,111.072,121.553,99.3115,102.746,0.00101874,0.335456,20.6615,114.311,-0.309435,0.0,0.0
2367,591.5,102.535,110.409,121.807,99.3949,103.113,0.000946402,0.333114,20.6632,114.1,-0.33416,0.0,0.0
2376,593.75,102.21,109.703,123.103,99.5127,102.995,0.000871378,0.331466,20.6652,113.94,-0.313003,0.0,0.0
2385,596,101.691,109.634,118.343,99.6153,102.787,0.000816022,0.329339,20.6675,113.73,-0.285185,0.0,0.0
2394,598.25,101.557,108.96,129.287,99.6944,103.046,0.000709281,0.327723,20.6695,113.53,-0.300901,0.0,0.0
2403,600.5,100.537,108.306,122.267,99.807,103.414,0.00065065,0.326373,20.6703,113.38,-0.323102,0.0,0.0
2412,602.75,100.575,108.191,126.465,99.8836,103.398,0.000649225,0.325785,20.6702,113.17,-0.314728,0.0,0.0
2421,605,99.8894,107.549,125.885,99.9212,103.539,0.000662355,0.326231,20.6695,112.949,-0.323706,0.0,0.0
2430,607.25,99.5659,107.35,119.567,99.9743,103.293,0.000704616,0.325823,20.6702,112.779,-0.297196,0.0,0.0
2439,609.5,99.0217,106.816,124.373,100.01,104.292,0.000816756,0.325401,20.6706,112.599,-0.381572,0.0,0.0
2448,611.75,99.0232,106.533,126.264,100.014,103.133,0.000953984,0.324933,20.6707,112.379,-0.279428,0.0,0.0
2457,614,98.8144,105.973,122.76,100.005,103.865,0.000995937,0.32509,20.6708,112.209,-0.34464,0.0,0.0
2466,616.25,98.1208,106.255,122.908,100.013,103.381,0.000930344,0.32469,20.6708,112.039,-0.301404,0.0,0.0
2475,618.5,98.0831,104.969,121.962,99.9599,103.558,0.000834006,0.324427,20.6708,111.849,-0.321802,0.0,0.0
2484,620.75,97.716,104.736,125.153,99.9188,103.122,0.000798632,0.3244,20.6708,111.608,-0.287161,0.0,0.0
2493,623,97.4916,104.562,123.708,99.8421,103.274,0.00082019,0.324142,20.6708,111.458,-0.307566,0.0,0.0
2502,625.25,97.2776,103.901,125.866,99.7842,103.065,0.000832105,0.323989,20.6708,111.308,-0.294374,0.0,0.0
2511,627.5,97.1994,103.831,123.651,99.6688,103.646,0.000771978,0.324517,20.6708,111.088,-0.356091,0.0,0.0
2520,629.75,97.3717,103.642,123.824,99.5838,103.253,0.000682729,0.324737,20.6708,110.868,-0.329316,0.0,0.0
2529,632,96.6964,103.54,124.08,99.4824,102.439,0.000607977,0.325421,20.669,110.697,-0.266508,0.0,0.0
2538,634.25,97.1856,103.257,123.785,99.4057,102.834,0.000557927,0.32603,20.6673,110.567,-0.308539,0.0,0.0
2547,636.5,96.9249,102.883,125.39,99.3059,101.776,0.000476362,0.326279,20.6666,110.317,-0.223629,0.0,0.0
2556,638.75,96.7142,102.88,119.739,99.2293,102.583,0.000388463,0.325944,20.6663,110.127,-0.302525,0.0,0.0
2565,641,96.2338,102.414,125.023,99.375,102.96,0.000402098,0.327206,20.6662,109.957,-0.322544,0.0,0.0
2574,643.25,96.6673,102.55,125.14,99.4984,102.2,0.000509581,0.329101,20.6648,109.777,-0.243781,0.0,0.0
2583,645.5,96.0227,102.051,125.329,99.6022,102.879,0.000662254,0.329789,20.6633,109.546,-0.294558,0.0,0.0
2592,647.75,95.8739,101.661,124.836,99.6812,102.131,0.000771411,0.329746,20.6626,109.396,-0.220976,0.0,0.0
2601,650,95.7062,101.806,124.425,99.8094,102.643,0.000949839,0.32993,20.6624,109.206,-0.25475,0.0,0.0
2610,652.25,95.6693,101.386,122.799,99.8768,103.177,0.00113684,0.330199,20.6629,108.976,-0.295827,0.0,0.0
2619,654.5,95.4357,101.275,122.608,99.9176,103.323,0.00121481,0.330339,20.6627,108.796,-0.304976,0.0,0.0
2628,656.75,95.7112,101.22,128.009,99.9128,103.251,0.00118211,0.330934,20.6629,108.626,-0.299064,0.0,0.0
2637,659,95.3216,101.487,122.273,99.8577,103.018,0.00115263,0.330876,20.6625,108.415,-0.283581,0.0,0.0
2646,661.25,95.7641,101.192,123.198,99.7838,102.776,0.0011325,0.331555,20.6626,108.205,-0.268849,0.0,0.0
2655,663.5,95.8146,100.807,122.163,99.672,102.244,0.00109474,0.331219,20.6629,107.985,-0.231839,0.0,0.0
2664,665.75,95.6433,100.657,121.41,99.5435,102.455,0.001056,0.331353,20.6629,107.875,-0.262323,0.0,0.0
2673,668,95.5581,100.562,124.408,99.6097,102.598,0.00102276,0.331695,20.6615,107.645,-0.268976,0.0,0.0
2682,670.25,95.1937,100.755,122.394,99.6964,102.691,0.00102056,0.331852,20.6609,107.475,-0.269288,0.0,0.0
2691,672.5,95.1595,100.321,125.155,99.8078,102.048,0.001074,0.331791,20.6602,107.315,-0.202043,0.0,0.0
2700,674.75,95.8835,100.433,126.523,99.8896,102.735,0.00113146,0.331675,20.6599,107.144,-0.255616,0.0,0.0
2709,677,94.9645,100.135,126.387,99.9579,102.507,0.00113034,0.33296,20.6591,106.884,-0.229193,0.0,0.0
2718,679.25,95.2826,100.027,126.946,100.047,103.183,0.00114146,0.333651,20.658,106.734,-0.280859,0.0,0.0
2727,681.5,95.3542,99.8225,122.759,100.133,102.782,0.00123953,0.333816,20.6576,106.634,-0.2376,0.0,0.0
2736,683.75,94.9212,100.042,125.996,100.206,102.235,0.00147139,0.333122,20.659,106.364,-0.18243,0.0,0.0
2745,686,95.0861,100.135,125.513,100.273,103.106,0.00157024,0.331992,20.6608,106.204,-0.253533,0.0,0.0
2754,688.25,94.9476,99.7649,124.73,100.338,102.2,0.00152003,0.33052,20.662,106.003,-0.167314,0.0,0.0
2763,690.5,94.9733,99.9592,123.805,100.394,102.588,0.00138524,0.329189,20.6651,105.793,-0.196703,0.0,0.0
2772,692.75,94.6991,99.5545,119.973,100.436,102.707,0.00121772,0.327356,20.6676,105.633,-0.203484,0.0,0.0
2781,695,94.7294,99.4631,125.997,100.428,103.101,0.00110214,0.326912,20.6689,105.533,-0.239048,0.0,0.0
2790,697.25,94.9929,98.807,122.002,100.437,102.208,0.00106128,0.325542,20.6706,105.363,-0.159096,0.0,0.0
2799,699.5,94.1112,98.6688,125.146,100.415,102.253,0.00109791,0.32316,20.6734,105.133,-0.16513,0.0,0.0
2808,701.75,93.7345,99.5738,122.226,100.393,102.75,0.00113926,0.319439,20.678,104.952,-0.211105,0.0,0.0
2817,704,93.9285,98.9524,126.407,100.378,102.404,0.00115262,0.316319,20.6812,104.762,-0.181839,0.0,0.0
2826,706.25,93.8808,98.2917,126.954,100.356,103.631,0.00114925,0.313756,20.6839,104.602,-0.292224,0.0,0.0
2835,708.5,94.329,97.8761,130.308,100.29,103.14,0.00113181,0.31248,20.6849,104.402,-0.254919,0.0,0.0
2844,710.75,93.3211,98.7952,123.353,100.234,102.967,0.00106532,0.311632,20.6853,104.252,-0.244796,0.0,0.0
2853,713,94.0185,98.3459,125.412,100.196,102.929,0.00102419,0.310097,20.6861,104.152,-0.24486,0.0,0.0
2862,715.25,93.2842,98.2773,123.948,100.126,103.231,0.000972752,0.307451,20.6905,103.982,-0.27788,0.0,0.0
2871,717.5,93.7538,97.6617,123.437,100.068,102.757,0.000954811,0.302821,20.6957,103.791,-0.241362,0.0,0.0
2880,719.75,93.6473,97.935,125.983,100.013,102.456,0.000813999,0.298192,20.7005,103.661,-0.21958,0.0,0.0
2889,722,93.1772,97.3197,127.802,99.9675,102.526,0.000728021,0.294677,20.7044,103.541,-0.22996,0.0,0.0
2898,724.25,92.4089,97.8743,124.83,99.8928,102.804,0.000811141,0.292493,20.7065,103.301,-0.261386,0.0,0.0
2907,726.5,92.7792,97.1197,125.409,99.8102,102.764,0.00094333,0.290876,20.7089,103.081,-0.26545,0.0,0.0
2916,728.75,92.5224,97.149,125.201,99.7591,102.672,0.000915546,0.287238,20.714,102.941,-0.261932,0.0,0.0
2925,731,92.7243,96.5766,124.937,99.6892,102.173,0.000735821,0.282418,20.7189,102.821,-0.223977,0.0,0.0
2934,733.25,92.017,96.4867,123.602,99.6153,102.864,0.00061278,0.279583,20.7214,102.69,-0.29204,0.0,0.0
2943,735.5,92.121,96.4323,126.527,99.5383,102.796,0.000644831,0.276394,20.7246,102.57,-0.293024,0.0,0.0
2952,737.75,91.4695,96.3352,123.658,99.4964,102.732,0.000704723,0.271641,20.7308,102.52,-0.291196,0.0,0.0
2961,740,91.6642,95.5694,127.094,99.4612,103.173,0.000730471,0.266638,20.7369,102.33,-0.333457,0.0,0.0
2970,742.25,91.1584,95.857,123.847,99.4425,102.93,0.000702746,0.262461,20.7435,102.17,-0.313701,0.0,0.0
2979,744.5,91.2815,95.2777,124.758,99.4473,103.203,0.000593849,0.257341,20.7487,102.12,-0.337356,0.0,0.0
2988,746.75,90.7387,95.2117,128.083,99.4097,103.15,0.000552546,0.250874,20.756,102.04,-0.336145,0.0,0.0
2997,749,90.0722,95.3049,130.301,99.3634,103.561,0.000650549,0.244161,20.7637,101.97,-0.376584,0.0,0.0
3006,751.25,90.1317,94.4597,124.894,99.349,103.162,0.000806852,0.23883,20.7687,101.79,-0.342695,0.0,0.0
3015,753.5,89.6295,93.9988,125.466,99.3394,104.069,0.000787119,0.233204,20.7761,101.68,-0.423304,0.0,0.0
3024,755.75,89.7422,93.5424,129.133,99.3083,103.984,0.000731983,0.226927,20.7834,101.539,-0.418711,0.0,0.0
3033,758,89.3223,93.6125,130.537,99.3231,104.114,0.000641319,0.22005,20.7898,101.459,-0.428701,0.0,0.0
3042,760.25,88.6355,93.366,126.329,99.3167,104.296,0.000593786,0.214236,20.7962,101.409,-0.445173,0.0,0.0
3051,762.5,87.974,92.922,129.611,99.3339,104.01,0.000649741,0.208157,20.8034,101.349,-0.418656,0.0,0.0
3060,764.75,87.8889,92.4718,128.638,99.3259,104.322,0.000565026,0.201279,20.8112,101.179,-0.446572,0.0,0.0
3069,767,87.9736,92.4655,129.17,99.3331,104.372,0.000359761,0.19483,20.817,101.129,-0.450311,0.0,0.0
3078,769.25,87.1666,91.643,128.066,99.3387,104.516,0.000275281,0.188873,20.8256,101.069,-0.462354,0.0,0.0
3087,771.5,86.8201,91.3187,129.937,99.3307,104.745,0.000289907,0.18193,20.8335,101.019,-0.482982,0.0,0.0
3096,773.75,86.2553,90.3539,132.6,99.3478,104.378,0.000284049,0.176265,20.8396,100.929,-0.449469,0.0,0.0
3105,776,85.9568,90.4444,131.324,99.3694,105.322,0.000329365,0.170375,20.8465,100.819,-0.529453,0.0,0.0
3114,778.25,85.5464,89.9933,127.309,99.4045,105.237,0.000467101,0.163669,20.8538,100.829,-0.51884,0.0,0.0
3123,780.5,85.1929,89.0254,129.633,99.4405,104.967,0.000517756,0.157968,20.859,100.729,-0.492235,0.0,0.0
3132,782.75,83.8864,88.8648,128.131,99.4716,105.415,0.000411228,0.153289,20.8645,100.699,-0.528147,0.0,0.0
3141,785,83.7332,88.1702,131.303,99.5399,105.199,0.000343851,0.148615,20.8708,100.729,-0.503225,0.0,0.0
3150,787.25,83.4867,87.5014,130.299,99.5734,105.616,0.000330274,0.144182,20.8757,100.729,-0.536159,0.0,0.0
3159,789.5,83.0563,87.8847,132.484,99.6073,105.603,0.000399948,0.139835,20.8807,100.549,-0.531894,0.0,0.0
3168,791.75,82.4961,87.51,130.306,99.6437,105.55,0.000493503,0.136304,20.8839,100.509,-0.524073,0.0,0.0
3177,794,81.6802,86.4136,130.925,99.702,105.214,0.000598569,0.134012,20.8859,100.559,-0.489664,0.0,0.0
3186,796.25,81.9562,86.3838,129.334,99.7611,105.705,0.000620349,0.131733,20.8874,100.499,-0.526705,0.0,0.0
3195,798.5,81.7811,85.6187,130.608,99.8094,105.663,0.000660352,0.130112,20.89,100.408,-0.518655,0.0,0.0
3204,800.75,81.0254,85.3663,128.907,99.8744,105.713,0.000711988,0.12903,20.8911,100.368,-0.517026,0.0,0.0
3213,803,80.7444,85.1503,131.539,99.9268,105.505,0.000775159,0.128159,20.8917,100.388,-0.494296,0.0,0.0
3222,805.25,80.6607,84.4102,129.124,99.9767,105.912,0.000869321,0.127221,20.893,100.298,-0.524797,0.0,0.0
3231,807.5,79.9612,84.1687,132.059,100.042,106.238,0.000930531,0.126289,20.8943,100.338,-0.546884,0.0,0.0
3240,809.75,79.6691,83.6302,132.837,100.085,105.88,0.00086469,0.125195,20.8945,100.438,-0.512207,0.0,0.0
3249,812,79.3538,83.2463,130.231,100.142,106.006,0.0008091,0.125709,20.8924,100.258,-0.517849,0.0,0.0
3258,814.25,78.937,83.5089,132.196,100.174,105.715,0.000969829,0.126795,20.8912,100.148,-0.489938,0.0,0.0
3267,816.5,78.9228,82.9512,129.031,100.242,105.97,0.00113541,0.127071,20.891,100.148,-0.50569,0.0,0.0
3276,818.75,78.7737,82.1261,129.13,100.277,106.149,0.00117422,0.126737,20.8921,100.228,-0.517877,0.0,0.0
3285,821,78.3591,82.2457,132.878,100.301,106.043,0.00114889,0.126789,20.8916,100.138,-0.506588,0.0,0.0
3294,823.25,78.7248,81.6406,135.44,100.34,106.173,0.00111589,0.12737,20.8909,100.078,-0.514238,0.0,0.0
3303,825.5,78.2169,81.8671,131.05,100.372,106.326,0.00114165,0.127619,20.8906,100.108,-0.524453,0.0,0.0
3312,827.75,77.3813,81.6579,132.854,100.383,106.163,0.00121105,0.127127,20.8915,100.048,-0.509405,0.0,0.0
3321,830,78.0085,81.2812,128.84,100.403,106.18,0.00127474,0.125914,20.8939,99.978,-0.509024,0.0,0.0
3330,832.25,77.5344,80.8224,132.316,100.414,106.303,0.00119042,0.124573,20.895,99.968,-0.518689,0.0,0.0
3339,834.5,77.3199,80.6407,132.829,100.423,106.174,0.00118764,0.123456,20.8969,99.9981,-0.506824,0.0,0.0
3348,836.75,76.5804,80.3201,132.268,100.399,106.172,0.00123592,0.122568,20.8976,99.938,-0.508841,0.0,0.0
3357,839,77.0267,80.5289,131.698,100.379,106.367,0.00129035,0.121963,20.8979,99.918,-0.527308,0.0,0.0
3366,841.25,76.5135,79.8635,130.034,100.35,106.374,0.00134725,0.12166,20.898,99.918,-0.530566,0.0,0.0
3375,843.5,76.7953,79.9124,134.054,100.289,106.244,0.00128682,0.121604,20.898,99.8379,-0.524934,0.0,0.0
3384,845.75,76.3591,79.3812,134.798,100.234,106.139,0.0011342,0.121668,20.898,99.7278,-0.520903,0.0,0.0
3393,848,76.345,79.4805,131.408,100.18,106.089,0.00100706,0.121427,20.898,99.6878,-0.521475,0.0,0.0
3402,850.25,76.2472,79.5108,131.994,100.136,105.82,0.000986884,0.120927,20.8983,99.8079,-0.502487,0.0,0.0
3411,852.5,76.3215,79.2201,132.648,100.053,105.876,0.00110285,0.120978,20.8985,99.7178,-0.514765,0.0,0.0
3420,854.75,76.4637,78.9175,132.062,99.9802,105.847,0.00118795,0.121831,20.8975,99.7178,-0.518897,0.0,0.0
3429,857,75.8144,78.8124,133.612,99.9291,105.496,0.00126889,0.122517,20.8968,99.7178,-0.493378,0.0,0.0
3438,859.25,75.972,78.9785,131.346,99.8441,105.745,0.00139528,0.122966,20.897,99.6578,-0.522544,0.0,0.0
3447,861.5,76.0438,78.7234,129.628,99.7846,105.659,0.00152206,0.12279,20.898,99.6277,-0.520562,0.0,0.0
3456,863.75,76.0383,78.3262,132.751,99.7127,106.006,0.00156625,0.122424,20.8987,99.5877,-0.556972,0.0,0.0
3465,866,75.32,77.9535,134.65,99.6728,105.536,0.00147354,0.121306,20.9001,99.6177,-0.520169,0.0,0.0
3474,868.25,75.589,77.8938,135.186,99.6133,105.274,0.00134648,0.120856,20.9007,99.5777,-0.502937,0.0,0.0
3483,870.5,75.3608,77.5583,133.313,99.5606,104.882,0.00122868,0.120778,20.9009,99.5176,-0.473862,0.0,0.0
3492,872.75,75.0671,77.67,134.461,99.5279,105.456,0.0012074,0.120196,20.901,99.5477,-0.526536,0.0,0.0
3501,875,74.8122,77.7381,130.766,99.5598,105.344,0.0012994,0.119786,20.901,99.6277,-0.513896,0.0,0.0
3510,877.25,74.9202,77.7885,130.209,99.6373,104.899,0.00134252,0.119617,20.901,99.4676,-0.468343,0.0,0.0
3519,879.5,75.0725,77.6607,129.695,99.7028,105.704,0.00131261,0.119236,20.901,99.3775,-0.531869,0.0,0.0
3528,881.75,74.7342,77.0813,131.976,99.7842,105.597,0.00139306,0.119204,20.901,99.4376,-0.515244,0.0,0.0
3537,884,75.3119,77.0189,136.223,99.8205,105.553,0.00158151,0.11922,20.901,99.3975,-0.508167,0.0,0.0
3546,886.25,74.7899,76.6889,129.813,99.8525,105.473,0.00183841,0.119149,20.9022,99.3575,-0.498342,0.0,0.0
3555,888.5,74.3975,76.7906,132.566,99.882,105.675,0.0019966,0.119336,20.9029,99.3875,-0.513039,0.0,0.0
3564,890.75,74.4333,76.8676,132.025,99.9064,105.631,0.00177958,0.119425,20.9019,99.3375,-0.507059,0.0,0.0
3573,893,74.457,76.7218,130.921,99.8952,105.691,0.00154311,0.12012,20.9015,99.2374,-0.513197,0.0,0.0
3582,895.25,73.8285,76.756,132.075,99.9152,105.683,0.00153966,0.121371,20.9017,99.2474,-0.510719,0.0,0.0
3591,897.5,74.1257,76.5412,135.558,99.9224,106.215,0.00171194,0.121405,20.9017,99.2374,-0.555744,0.0,0.0
3600,899.75,74.091,76.601,132.059,99.9176,105.683,0.0019397,0.120497,20.9017,99.1974,-0.51054,0.0,0.0
3609,902,74.026,76.4845,132.879,99.908,105.962,0.00205437,0.120613,20.9007,99.1673,-0.535344,0.0,0.0
3618,904.25,74.3029,76.1686,132.149,99.92,105.94,0.00204365,0.120878,20.8995,99.1673,-0.532396,0.0,0.0
3627,906.5,74.2495,75.9928,131.29,99.9232,106.003,0.00206292,0.120545,20.8997,99.1873,-0.53748,0.0,0.0
3636,908.75,74.1752,75.78,131.956,99.9108,105.858,0.00215701,0.120166,20.8998,99.0572,-0.52619,0.0,0.0
3645,911,73.1512,76.376,132.759,99.914,105.824,0.00212858,0.120085,20.8999,98.9872,-0.522996,0.0,0.0
3654,913.25,73.8069,75.7984,133.053,99.9108,105.858,0.00202856,0.120522,20.8999,99.0272,-0.526152,0.0,0.0
3663,915.5,73.827,75.96,131.013,99.9152,105.959,0.00195334,0.120336,20.9003,99.0272,-0.534496,0.0,0.0
3672,917.75,74.1726,75.8261,132.736,99.9044,106.141,0.00200638,0.119616,20.9019,98.9371,-0.551089,0.0,0.0
3681,920,73.1543,76.2022,128.646,99.8996,105.65,0.00214062,0.118816,20.9035,98.9071,-0.509345,0.0,0.0
3690,922.25,73.5115,75.7039,134.089,99.9084,105.816,0.00220698,0.118502,20.9062,98.9872,-0.522807,0.0,0.0
3699,924.5,73.6923,75.2901,129.376,99.9036,105.922,0.00220441,0.118434,20.9073,98.9171,-0.532301,0.0,0.0
3708,926.75,73.0809,75.6071,133.004,99.8976,106.201,0.00215906,0.118235,20.9077,98.8671,-0.556802,0.0,0.0
3717,929,73.1109,75.3184,134.275,99.916,106.208,0.00205506,0.117743,20.9079,98.8871,-0.555746,0.0,0.0
3726,931.25,71.8615,74.2682,133.586,99.9068,106.091,0.00197576,0.117019,20.9079,98.8871,-0.546546,0.0,0.0
3735,933.5,71.6744,73.6077,130.124,99.9,105.813,0.00193454,0.116662,20.9079,98.817,-0.5233,0.0,0.0
3744,935.75,71.5328,73.7864,132.749,99.91,106.036,0.00198278,0.116896,20.9065,98.787,-0.541541,0.0,0.0
3753,938,71.2609,73.8674,132.679,99.9319,105.641,0.00206633,0.117282,20.906,98.837,-0.505546,0.0,0.0
3762,940.25,71.6782,73.849,133.864,99.9259,106.511,0.00215038,0.1174,20.9058,98.777,-0.580767,0.0,0.0
3771,942.5,71.6914,73.7398,133.112,99.9072,105.723,0.00219041,0.117618,20.9055,98.737,-0.514936,0.0,0.0
3780,944.75,70.8671,73.4802,135.208,99.9244,105.693,0.00211729,0.117537,20.9052,98.767,-0.510735,0.0,0.0
3789,947,71.4751,73.6507,133.461,99.9299,105.907,0.00204279,0.116997,20.9057,98.777,-0.528625,0.0,0.0
3798,949.25,71.428,73.7748,131.64,99.9335,105.835,0.00219222,0.116935,20.9067,98.6769,-0.522104,0.0,0.0
3807,951.5,71.4235,73.4708,130.371,99.9192,105.92,0.00237454,0.116938,20.9071,98.6269,-0.530767,0.0,0.0
3816,953.75,71.2621,73.2742,132.159,99.9383,106.169,0.0024059,0.117102,20.9072,98.6969,-0.550391,0.0,0.0
3825,956,71.0384,73.0508,136.369,99.9483,106.378,0.00227919,0.117326,20.9073,98.6669,-0.567336,0.0,0.0
3834,958.25,71.2235,73.0513,133.217,99.9623,105.909,0.0021761,0.117023,20.9073,98.5568,-0.525913,0.0,0.0
3843,960.5,71.1301,73.3312,131.384,99.9475,106.034,0.00224838,0.116742,20.9085,98.5168,-0.537968,0.0,0.0
3852,962.75,71.0643,73.2877,131.288,99.9559,106.212,0.00240358,0.116731,20.9092,98.6068,-0.55242,0.0,0.0
3861,965,71.1932,72.8276,131.36,99.9459,105.6,0.00257913,0.116951,20.9094,98.4767,-0.500744,0.0,0.0
3870,967.25,70.6617,73.0508,133.079,99.9483,105.836,0.00270212,0.116797,20.9089,98.4467,-0.520876,0.0,0.0
3879,969.5,71.169,73.1163,133.812,99.9567,106.147,0.00274939,0.116477,20.9087,98.4667,-0.546789,0.0,0.0
3888,971.75,70.9499,73.3488,135.764,99.9603,105.775,0.00266062,0.116848,20.9087,98.4367,-0.514556,0.0,0.0
3897,974,71.2552,72.86,132.701,99.9507,105.941,0.00253097,0.116768,20.9078,98.3967,-0.529675,0.0,0.0
3906,976.25,70.6034,72.6074,132.797,99.9423,106.141,0.00244361,0.116674,20.9069,98.3867,-0.547596,0.0,0.0
3915,978.5,70.8911,72.4535,134,99.9439,106.196,0.00237119,0.117187,20.9065,98.4267,-0.552198,0.0,0.0
3924,980.75,71.0095,73.0057,129.412,99.9367,105.872,0.00242878,0.117689,20.907,98.3366,-0.525026,0.0,0.0
3933,983,71.0614,72.7004,133.919,99.922,106.015,0.0025956,0.117677,20.9086,98.3166,-0.538672,0.0,0.0
3942,985.25,71.0392,72.842,131.357,99.9076,106.19,0.0026599,0.116884,20.91,98.3466,-0.555004,0.0,0.0
3951,987.5,70.9132,73.2179,134.822,99.8864,105.523,0.00265797,0.116609,20.9092,98.3166,-0.499601,0.0,0.0
3960,989.75,70.4176,72.3171,133.861,99.8549,105.559,0.00264575,0.116833,20.9086,98.2465,-0.505542,0.0,0.0
3969,992,71.167,72.6879,132.426,99.8154,105.836,0.00264019,0.1169,20.9086,98.2165,-0.53295,0.0,0.0
3978,994.25,70.4607,72.7688,132.965,99.8026,106.075,0.00253986,0.116434,20.9096,98.2565,-0.554652,0.0,0.0
3987,996.5,70.7834,72.2632,134.917,99.7435,106.008,0.00250748,0.116152,20.91,98.1564,-0.554322,0.0,0.0
3996,998.75,70.4935,72.471,134.044,99.6876,105.793,0.00264817,0.116349,20.9102,98.1564,-0.540926,0.0,0.0
4005,1001,70.7771,72.6511,131.348,99.6565,105.545,0.0027907,0.116878,20.9102,98.1965,-0.522401,0.0,0.0
4014,1003.25,70.1641,72.3959,134.151,99.5774,105.6,0.00285812,0.117057,20.9102,98.2165,-0.534398,0.0,0.0
4023,1005.5,70.4484,72.5071,136.939,99.5858,105.805,0.00292447,0.116838,20.9103,98.0764,-0.55131,0.0,0.0
4032,1007.75,70.5993,72.4646,132.97,99.6069,105.233,0.00304151,0.116545,20.9098,98.0764,-0.500016,0.0,0.0
4041,1010,70.5215,72.6657,132.792,99.6652,105.741,0.00320961,0.116961,20.9087,98.1464,-0.538512,0.0,0.0
4050,1012.25,69.9266,72.4393,133.113,99.69,105.562,0.00319836,0.117673,20.9077,98.0564,-0.520853,0.0,0.0
4059,1014.5,70.796,72.7348,137.404,99.7435,105.783,0.00311239,0.117975,20.9068,98.0063,-0.534973,0.0,0.0
4068,1016.75,70.5733,72.4208,134.928,99.7834,105.847,0.00305472,0.117731,20.9065,97.9663,-0.536869,0.0,0.0
4077,1019,70.2817,72.7672,132.403,99.8405,105.981,0.0030597,0.117652,20.9064,98.0363,-0.543193,0.0,0.0
4086,1021.25,70.3215,72.658,131.221,99.8768,105.903,0.00315049,0.117414,20.9068,97.9262,-0.533152,0.0,0.0
4095,1023.5,70.3304,72.475,132.424,99.9351,105.676,0.00331107,0.117402,20.907,97.9262,-0.508319,0.0,0.0
4104,1025.75,70.2006,72.5342,131.796,99.991,106.029,0.00343207,0.117381,20.9071,97.9663,-0.533582,0.0,0.0
4113,1028,70.6494,72.8334,133.176,100.04,105.827,0.00343753,0.117545,20.9083,97.9262,-0.511783,0.0,0.0
4122,1030.25,70.6229,72.3287,133.268,100.104,106.083,0.00335819,0.117611,20.908,97.8562,-0.527978,0.0,0.0
4131,1032.5,70.2602,72.2675,129.764,100.156,105.985,0.0033252,0.117997,20.9069,97.8462,-0.514799,0.0,0.0
4140,1034.75,70.6526,72.5901,130.448,100.204,105.9,0.00332375,0.118472,20.9057,97.8662,-0.503175,0.0,0.0
4149,1037,70.8953,72.372,131.179,100.252,106.295,0.00330027,0.118255,20.9053,97.7961,-0.532623,0.0,0.0
4158,1039.25,69.9646,72.2144,133.754,100.29,106.464,0.00328564,0.118107,20.9059,97.7561,-0.543629,0.0,0.0
4167,1041.5,70.4909,71.686,134.097,100.352,106.508,,0.118072,,97.8061,-0.541786,0.0,0.0
4176,1043.75,70.3215,72.0719,127.722,100.396,106.506,,,,97.8061,-0.537687,0.0,0.0
4185,1046,70.5494,72.2243,131.778,100.42,106.269,,,,97.686,-0.515178,0.0,0.0
4194,1048.25,70.7012,71.7987,131.446,100.449,106.343,,,,97.676,-0.518859,0.0,0.0
4203,1050.5,69.979,72.2304,131.813,100.48,106.316,,,,97.7661,-0.513765,0.0,0.0
4204,1050.75,70.7198,72.5643,134.675,100.471,106.738,,,,97.676,-0.550641,0.0,0.0