File: 01_Data/Oak_Flooring/Cone/Oak_Flooring_Cone_HF25Scan_220913_R1.csv
Names,Time,Stack TC,Smoke TC,Exh Press,Smoke Comp,Smoke Meas,CO Meter,CO2 Meter,O2 Meter,Sample Mass,Ext Coeff,Start Test,Flame Verif
Chan Gain,,500,500,1,1,1,1,1,1,1,1,1.0,1.0
Offset,,0,0,0.139139,0,0,0,0,0,0,0,0.0,0.0
Gain,,1,1,25.011,13.0826,14.7555,1,1,1,1.00088,1.03743,1.0,1.0
Units,sec,C,C,Pa,%,%,%,%,%,g,/m,,
Baseline,,38.4979,39.3572,144.542,98.9967,100.336,0.000404722,0.0477699,20.9781,-449.2,-0.122243,,
13,3,36.0742,37.4852,142.406,98.6699,99.951,0.000596724,0.0489323,20.9789,168.238,-0.11739,0.0,0.0
26,6.25,36.4704,37.5315,143.811,98.6983,100.34,0.000497945,0.04844,20.9792,168.318,-0.15013,0.0,0.0
39,9.5,36.8819,37.6297,147.354,98.7218,99.6524,0.00040163,0.0483663,20.9802,168.298,-0.0853808,0.0,0.0
52,12.75,36.5524,37.6043,145.451,98.7709,100.45,0.000307622,0.048141,20.9807,168.258,-0.153392,0.0,0.0
65,16,36.854,37.8646,145.986,98.8001,100.475,0.000163425,0.0482497,20.9799,168.228,-0.152951,0.0,0.0
78,19.25,36.4535,37.589,147.418,98.846,100.085,0.000331445,0.0497991,20.9775,168.208,-0.113334,0.0,0.0
91,22.5,36.865,37.4745,145.955,98.8895,100.025,0.000655042,0.051123,20.9758,168.188,-0.103922,0.0,0.0
104,25.75,36.6169,37.4637,143.402,98.9162,100.354,0.000869589,0.0513383,20.9767,168.168,-0.131278,0.0,0.0
117,29,36.6539,37.6145,146.332,98.939,99.8789,0.00079543,0.0507026,20.9777,168.098,-0.0860428,0.0,0.0
130,32.25,36.902,37.6209,144.752,98.9785,100.387,0.000650363,0.0499227,20.9793,168.048,-0.128571,0.0,0.0
143,35.5,36.7564,37.3143,141.864,99.0145,100.018,0.000556637,0.0488986,20.9801,167.998,-0.0917738,0.0,0.0
156,38.75,36.6621,37.641,144.795,99.0472,100.119,0.000511845,0.0484909,20.9819,167.988,-0.0979795,0.0,0.0
169,42,36.843,37.4009,147.761,99.0895,99.9221,0.000596529,0.0485469,20.9825,167.988,-0.0761475,0.0,0.0
182,45.25,37.0831,38.0617,144.256,99.1418,100.193,0.000600291,0.0482809,20.9839,167.948,-0.0959587,0.0,0.0
195,48.5,36.7296,37.7039,144.192,99.1686,100.289,0.000636531,0.0479074,20.9845,167.928,-0.102211,0.0,0.0
208,51.75,37.303,37.5172,142.759,99.2017,100.785,0.000618087,0.0476624,20.985,167.898,-0.144089,0.0,0.0
221,55,37.3956,38.2889,142.862,99.2504,100.424,0.000469947,0.0475678,20.9849,167.868,-0.106995,0.0,0.0
234,58.25,37.3527,38.0501,147.284,99.2832,100.13,0.000472656,0.0475804,20.9843,167.848,-0.0772672,0.0,0.0
247,61.5,37.0085,37.8701,148.502,99.2971,100.643,0.000449612,0.0476408,20.9841,167.778,-0.122523,0.0,0.0
260,64.75,37.2122,38.0129,147.855,99.3351,100.616,0.000497075,0.0477179,20.9841,167.748,-0.116603,0.0,0.0
273,68,37.4993,37.7667,143.795,99.367,100.566,0.000665698,0.0479881,20.9848,167.658,-0.109115,0.0,0.0
286,71.25,36.8382,38.0007,141.506,99.3642,100.499,0.000481239,0.0480538,20.9847,167.638,-0.103339,0.0,0.0
299,74.5,36.9475,37.604,148.137,99.3782,100.773,0.000499299,0.0482983,20.9847,167.608,-0.126817,0.0,0.0
312,77.75,37.5334,38.0514,142.625,99.3754,100.396,0.000591314,0.048478,20.9836,167.588,-0.0930138,0.0,0.0
325,81,36.9658,37.5464,144.985,99.3814,100.383,0.000564234,0.0487,20.9827,167.508,-0.0912813,0.0,0.0
338,84.25,37.436,38.2943,145.147,99.349,100.019,0.000593423,0.0489781,20.9825,167.508,-0.0611579,0.0,0.0
351,87.5,37.2139,37.9569,143.985,99.3399,100.628,0.000652711,0.0490137,20.9837,167.407,-0.117264,0.0,0.0
364,90.75,37.257,37.9134,145.475,99.3159,100.231,0.00069319,0.0493925,20.9844,167.377,-0.0835117,0.0,0.0
377,94,37.4386,38.303,141.119,99.2836,99.9334,0.000855701,0.0497138,20.9828,167.307,-0.0593696,0.0,0.0
390,97.25,37.3185,38.3333,142.793,99.2752,100.058,0.000923588,0.0498318,20.9826,167.127,-0.0714485,0.0,0.0
403,100.5,37.3602,38.1669,147.126,99.2496,99.7627,0.00092285,0.0504073,20.9826,167.157,-0.0469262,0.0,0.0
416,103.75,37.5756,38.3989,142.071,99.2101,99.4169,0.000982456,0.0508062,20.9843,167.127,-0.0189496,0.0,0.0
429,107,37.7779,38.5221,145.324,99.1909,99.4952,0.00118478,0.0511142,20.9848,167.067,-0.0278775,0.0,0.0
442,110.25,37.5214,38.2414,140.656,99.1658,98.9049,0.0011841,0.051818,20.9844,167.027,0.0239716,0.0,0.0
455,113.5,37.5745,38.4479,143.504,99.1338,98.8,0.00106536,0.052048,20.9847,166.927,0.030699,0.0,0.0
468,116.75,37.9739,38.1152,146.302,99.0759,99.2192,0.00122527,0.0522464,20.9847,166.867,-0.0131496,0.0,0.0
481,120,37.5403,38.3409,142.797,99.0404,98.578,0.00132562,0.0525677,20.9846,166.777,0.0425897,0.0,0.0
494,123.25,37.7798,38.4966,142.254,99.0081,98.4019,0.00132678,0.0529023,20.9845,166.667,0.0558861,0.0,0.0
507,126.5,37.5606,38.0088,144.523,98.9546,99.0958,0.00140585,0.05308,20.9834,166.597,-0.0129807,0.0,0.0
520,129.75,37.4922,38.6146,144.071,98.9258,98.1646,0.0016559,0.0533385,20.9831,166.517,0.0702977,0.0,0.0
533,133,37.8417,38.8803,148.251,98.9055,98.0426,0.00196309,0.0547274,20.9817,166.387,0.0797433,0.0,0.0
546,136.25,38.2101,38.3514,142.894,98.8843,97.8534,0.00231347,0.0572151,20.9794,166.367,0.095368,0.0,0.0
559,139.5,37.9258,38.4984,146.094,98.8568,97.4464,0.00253572,0.0573159,20.9793,166.246,0.13077,0.0,0.0
572,142.75,37.7377,38.3482,143.293,98.8544,99.9735,0.00283537,0.0650811,20.9684,166.106,-0.102443,0.0,1.0
585,146,38.8582,38.9113,124.804,98.8492,98.3443,0.00338858,0.18717,20.7754,165.746,0.0466024,0.0,1.0
598,149.25,41.1344,39.187,117.977,98.8304,97.8359,0.00406754,0.387757,20.5492,165.165,0.0920405,0.0,1.0
611,152.5,46.4796,42.5825,124.335,98.834,98.243,0.00459355,0.520317,20.4037,164.575,0.0545857,0.0,1.0
624,155.75,50.6943,45.9982,120.162,98.822,97.0857,0.00506115,0.586413,20.3371,163.934,0.161317,0.0,0.0
637,159,54.6863,49.2048,117.43,98.7969,97.4842,0.00555679,0.615774,20.31,163.374,0.121723,0.0,0.0
650,162.25,57.7977,52.2509,124.851,98.7809,96.503,0.00577848,0.615701,20.3092,162.753,0.212313,0.0,0.0
663,165.5,60.1732,54.8085,122.765,98.7933,96.2026,0.00592298,0.592959,20.3409,162.253,0.241821,0.0,0.0
676,168.75,61.4554,57.2166,126.571,98.7937,96.761,0.00582853,0.561036,20.3836,161.732,0.18919,0.0,0.0
689,172,62.7796,59.2434,121.428,98.7777,96.4197,0.00579503,0.529015,20.4247,161.232,0.219877,0.0,0.0
702,175.25,63.5723,60.2882,126.081,98.7641,98.4132,0.0053512,0.494514,20.4698,160.792,0.0323953,0.0,0.0
715,178.5,64.0849,61.4067,130.153,98.7633,99.733,0.00468505,0.462493,20.5112,160.341,-0.0889125,0.0,0.0
728,181.75,64.6546,62.2433,126.771,98.729,99.0936,0.00438615,0.433715,20.5467,159.901,-0.0335432,0.0,0.0
741,185,64.7416,63.05,127.551,98.6951,100.068,0.00411299,0.409009,20.5727,159.51,-0.125765,0.0,0.0
754,188.25,63.9617,63.2529,135.313,98.6468,99.6501,0.00380653,0.384216,20.6035,159.14,-0.0920971,0.0,0.0
767,191.5,63.5626,63.3906,131.733,98.63,99.9271,0.00361805,0.366855,20.6246,158.8,-0.1189,0.0,0.0
780,194.75,63.3898,63.8895,136.995,98.5933,100.311,0.00359331,0.35223,20.6423,158.359,-0.157162,0.0,0.0
793,198,63.1013,63.994,132.408,98.5673,100.782,0.00345237,0.340093,20.6569,158.069,-0.202229,0.0,0.0
806,201.25,62.3156,63.9087,130.547,98.5262,101.046,0.00324567,0.32914,20.6709,157.699,-0.229783,0.0,0.0
819,204.5,61.4122,63.5018,130.468,98.4531,100.897,0.00321765,0.316201,20.6853,157.409,-0.223181,0.0,0.0
832,207.75,61.4503,63.3307,131.234,98.4096,100.909,0.00351123,0.306652,20.6968,157.098,-0.22826,0.0,0.0
845,211,61.1506,63.3504,134.217,98.3657,101.315,0.00361885,0.298631,20.7052,156.768,-0.268839,0.0,0.0
858,214.25,60.955,63.2545,133.296,98.2826,100.34,0.00349979,0.291537,20.7142,156.468,-0.188492,0.0,0.0
871,217.5,59.8146,63.3625,134.336,98.2395,99.366,0.00319624,0.285788,20.7219,156.158,-0.103757,0.0,0.0
884,220.75,59.5482,62.5168,130.558,98.1856,100.119,0.00290789,0.282666,20.7244,155.877,-0.177486,0.0,0.0
897,224,59.3743,63.0733,135.19,98.1177,100.92,0.00300021,0.281794,20.7256,155.537,-0.256223,0.0,0.0
910,227.25,59.0042,62.8053,133.104,98.0519,101.162,0.00327242,0.27488,20.7334,155.227,-0.284195,0.0,0.0
923,230.5,58.9718,62.3546,132.534,97.9928,100.435,0.00339169,0.27069,20.7394,154.966,-0.224064,0.0,0.0
936,233.75,58.3596,62.1048,136.504,97.9329,100.742,0.00354226,0.268243,20.7431,154.666,-0.257372,0.0,0.0
949,237,58.3605,61.8696,133.264,97.8431,100.011,0.00351096,0.263945,20.7472,154.346,-0.199463,0.0,0.0
962,240.25,57.4967,61.791,133.655,97.76,99.5601,0.00351427,0.26142,20.7488,154.056,-0.166041,0.0,0.0
975,243.5,57.2606,61.4385,135.67,97.6961,100.715,0.00372641,0.258126,20.752,153.775,-0.276916,0.0,0.0
988,246.75,57.413,61.2324,129.503,97.6111,99.7668,0.00378674,0.257195,20.7525,153.545,-0.198787,0.0,0.0
1001,250,57.4196,61.0771,132.679,97.5452,100.963,0.00370542,0.258276,20.7513,153.205,-0.313417,0.0,0.0
1014,253.25,57.0488,60.6167,132.986,97.4861,100.172,0.00347538,0.259139,20.7516,152.955,-0.247338,0.0,0.0
1027,256.5,56.7082,60.6771,133.752,97.441,100.023,0.00323766,0.258031,20.7519,152.664,-0.237999,0.0,0.0
1040,259.75,56.8043,60.5188,131.021,97.4051,99.5727,0.00324499,0.257002,20.753,152.354,-0.200293,0.0,0.0
1053,263,56.6872,60.2652,135.892,97.3879,99.1233,0.00315738,0.255217,20.7552,152.064,-0.160732,0.0,0.0
1066,266.25,55.7402,59.8551,135.515,97.3668,99.7163,0.00299694,0.254397,20.7563,151.844,-0.216994,0.0,0.0
1079,269.5,56.2441,60.0109,137.757,97.3735,99.9654,0.00320003,0.253,20.7572,151.543,-0.239058,0.0,0.0
1092,272.75,56.2918,59.9928,134.712,97.3648,99.6065,0.0033747,0.251542,20.759,151.243,-0.207148,0.0,0.0
1105,276,56.1935,59.4605,134.404,97.3791,99.7006,0.00328,0.249731,20.7609,150.983,-0.2144,0.0,0.0
1118,279.25,55.6126,59.9256,135.437,97.4083,100.144,0.00320696,0.246025,20.7649,150.693,-0.252071,0.0,0.0
1131,282.5,55.6716,59.0443,135.041,97.4342,101.536,0.00304166,0.243865,20.7675,150.422,-0.3753,0.0,0.0
1144,285.75,55.673,59.2956,135.154,97.4893,100.544,0.00283215,0.243179,20.7697,150.162,-0.280808,0.0,0.0
1157,289,55.1674,58.9539,137.851,97.5332,101.245,0.00297331,0.238957,20.7723,149.912,-0.339907,0.0,0.0
1170,292.25,55.2577,59.2373,133.756,97.5744,100.303,0.00319211,0.238372,20.7746,149.722,-0.250961,0.0,0.0
1183,295.5,54.8025,58.9252,133.568,97.6259,101.339,0.00317267,0.235423,20.7763,149.422,-0.339684,0.0,0.0
1196,298.75,54.6487,58.8256,137.15,97.679,100.17,0.00321571,0.23428,20.779,149.151,-0.229149,0.0,0.0
1209,302,54.9845,58.0093,137.002,97.7205,100.606,0.00339349,0.232321,20.7821,148.901,-0.264837,0.0,0.0
1222,305.25,54.5623,58.8927,136.779,97.7648,100.509,0.00341532,0.229412,20.7859,148.641,-0.251909,0.0,0.0
1235,308.5,54.3307,57.8369,134.529,97.8211,100.271,0.00317823,0.226102,20.7886,148.391,-0.225077,0.0,0.0
1248,311.75,54.2357,58.0566,136.769,97.8746,101.451,0.0031791,0.223626,20.7911,148.17,-0.326631,0.0,0.0
1261,315,53.5879,57.3335,135.871,97.9293,100.506,0.00319552,0.223173,20.7931,147.88,-0.236365,0.0,0.0
1274,318.25,53.9027,57.3328,137.85,98.0056,101.103,0.0032479,0.221873,20.7949,147.64,-0.283146,0.0,0.0
1287,321.5,53.8903,57.5769,138.695,98.077,101.248,0.00338853,0.219541,20.7954,147.38,-0.289554,0.0,0.0
1300,324.75,53.8542,57.2502,132.477,98.1209,100.585,0.0034195,0.222507,20.793,147.16,-0.225666,0.0,0.0
1313,328,53.0145,56.9034,138.288,98.176,101.069,0.00323092,0.223614,20.7926,146.919,-0.264289,0.0,0.0
1326,331.25,53.2152,56.6028,135.934,98.2355,100.835,0.00311428,0.223128,20.7927,146.699,-0.237669,0.0,0.0
1339,334.5,53.1357,56.5115,136.107,98.2842,101.305,0.00329106,0.22185,20.7945,146.449,-0.275486,0.0,0.0
1352,337.75,53.2293,56.493,139.747,98.323,101.42,0.00348135,0.219532,20.796,146.249,-0.282211,0.0,0.0
1365,341,53.1695,56.6377,139.092,98.3677,100.661,0.00336358,0.217103,20.7981,145.898,-0.209734,0.0,0.0
1378,344.25,53.4276,55.8299,136.383,98.424,101.713,0.00334764,0.215245,20.8003,145.688,-0.299132,0.0,0.0
1391,347.5,53.0494,56.066,130.687,98.4415,102.059,0.00358404,0.214442,20.8012,145.448,-0.328397,0.0,0.0
1404,350.75,52.9717,56.1303,135.186,98.4791,100.877,0.0036611,0.213603,20.8024,145.228,-0.218914,0.0,0.0
1417,354,52.9058,55.7317,134.206,98.519,100.666,0.00383005,0.212129,20.8058,144.978,-0.196153,0.0,0.0
1430,357.25,53.0632,55.5993,137.322,98.5258,101.721,0.00410137,0.20837,20.8105,144.737,-0.290449,0.0,0.0
1443,360.5,52.7529,55.7406,135.274,98.5334,101.613,0.0038477,0.206848,20.8117,144.507,-0.280115,0.0,0.0
1456,363.75,52.3805,55.478,134.607,98.5613,100.304,0.00355553,0.205597,20.812,144.237,-0.159538,0.0,0.0
1469,367,52.2714,55.2229,140.104,98.5809,100.864,0.00375227,0.205927,20.811,144.007,-0.208333,0.0,0.0
1482,370.25,52.2087,55.2306,140.198,98.5853,101.03,0.003969,0.205956,20.8102,143.777,-0.222907,0.0,0.0
1495,373.5,52.3023,55.4419,135.843,98.6128,102.016,0.00401889,0.205172,20.8107,143.546,-0.308722,0.0,0.0
1508,376.75,51.7721,54.8654,138.952,98.6332,100.539,0.00389295,0.20522,20.8121,143.316,-0.174125,0.0,0.0
1521,380,51.9297,54.8971,139.301,98.6368,100.585,0.00380333,0.204459,20.8137,143.056,-0.17799,0.0,0.0
1534,383.25,52.2252,54.678,139.603,98.6444,101.662,0.00376303,0.20351,20.814,142.816,-0.274184,0.0,0.0
1547,386.5,51.811,54.4605,138.263,98.6623,101.629,0.00381481,0.204384,20.8141,142.626,-0.269624,0.0,0.0
1560,389.75,51.7324,54.8437,141.787,98.6731,100.357,0.004086,0.203092,20.8149,142.385,-0.15396,0.0,0.0
1573,393,51.5818,54.2078,139.631,98.6639,101.15,0.00418645,0.201169,20.8172,142.095,-0.226433,0.0,0.0
1586,396.25,51.6993,53.8021,135.888,98.6735,101.581,0.004197,0.19956,20.8189,141.895,-0.264318,0.0,0.0
1599,399.5,51.7498,54.1738,140.531,98.6875,101.416,0.00414598,0.200648,20.8177,141.615,-0.248212,0.0,0.0
1612,402.75,51.805,54.5427,133.364,98.6647,101.248,0.00420532,0.201452,20.818,141.405,-0.235186,0.0,0.0
1625,406,51.5899,54.3446,138.549,98.6735,101.787,0.00410973,0.201774,20.8181,141.194,-0.282735,0.0,0.0
1638,409.25,51.7157,54.0052,137.432,98.6875,101.06,0.00414936,0.201078,20.8181,140.964,-0.216194,0.0,0.0
1651,412.5,51.5189,53.8298,135.085,98.6699,102.429,0.00429592,0.200503,20.8178,140.734,-0.340216,0.0,0.0
1664,415.75,51.0189,53.8692,136.876,98.6631,101.422,0.00428093,0.201206,20.8157,140.504,-0.250943,0.0,0.0
1677,419,51.3634,53.365,135.53,98.6583,101.263,0.00434712,0.202308,20.816,140.274,-0.237151,0.0,0.0
1690,422.25,51.7782,53.275,135.241,98.6316,101.008,0.00442561,0.202213,20.8171,140.013,-0.216686,0.0,0.0
1703,425.5,51.2686,53.8371,138.456,98.6024,101.919,0.00429891,0.201185,20.8182,139.793,-0.301039,0.0,0.0
1716,428.75,51.574,53.7711,134.992,98.594,101.526,0.0039524,0.200913,20.8177,139.543,-0.266645,0.0,0.0
1729,432,51.3305,53.7451,136.689,98.5573,100.829,0.00376314,0.201287,20.8174,139.283,-0.207419,0.0,0.0
1742,435.25,51.6613,53.821,137.922,98.5294,100.807,0.00369751,0.201017,20.8183,139.062,-0.207927,0.0,0.0
1755,438.5,51.3012,53.6798,135.519,98.5134,100.726,0.00381352,0.201187,20.8185,138.832,-0.202123,0.0,0.0
1768,441.75,51.7991,53.5158,136.945,98.4982,101.252,0.00391998,0.199457,20.819,138.582,-0.25096,0.0,0.0
1781,445,51.628,53.2836,137.434,98.4663,101.332,0.00381643,0.198622,20.8209,138.342,-0.261072,0.0,0.0
1794,448.25,51.7864,53.0992,135.954,98.4435,101.558,0.00395539,0.197846,20.8209,138.142,-0.283454,0.0,0.0
1807,451.5,51.2191,53.2494,135.344,98.4116,100.895,0.00406722,0.199691,20.8171,137.871,-0.226776,0.0,0.0
1820,454.75,51.1751,53.1905,138.733,98.4028,101.498,0.0041316,0.198486,20.8191,137.611,-0.281811,0.0,0.0
1833,458,50.7913,53.2652,140.752,98.3637,101.473,0.00405427,0.197732,20.8224,137.401,-0.283168,0.0,0.0
1846,461.25,51.6523,53.2376,134.396,98.3589,101.18,0.00398174,0.197699,20.8217,137.181,-0.257364,0.0,0.0
1859,464.5,51.1694,53.0488,138.462,98.3285,101.482,0.00399313,0.196839,20.8237,136.961,-0.287227,0.0,0.0
1872,467.75,51.4565,53.2022,139.507,98.3273,101.194,0.00408009,0.195561,20.8256,136.7,-0.261499,0.0,0.0
1885,471,50.9473,53.4927,138.812,98.3082,100.718,0.00422857,0.194266,20.8267,136.46,-0.220408,0.0,0.0
1898,474.25,50.9271,53.1196,136.383,98.3026,100.514,0.00418965,0.194235,20.827,136.24,-0.202476,0.0,0.0
1911,477.5,50.7724,52.8395,139.15,98.2878,100.932,0.00388747,0.193666,20.8271,136.02,-0.241598,0.0,0.0
1924,480.75,50.9763,52.8694,134.112,98.2743,101.557,0.00375375,0.192438,20.8277,135.8,-0.298995,0.0,0.0
1937,484,50.5987,52.2275,138.113,98.2778,101.147,0.00368865,0.192351,20.8272,135.519,-0.261868,0.0,0.0
1950,487.25,50.8396,52.6432,138.931,98.2663,100.829,0.00382633,0.193513,20.8265,135.299,-0.234252,0.0,0.0
1963,490.5,50.4556,52.8466,138.536,98.2531,101.498,0.00395639,0.194225,20.8246,135.149,-0.295707,0.0,0.0
1976,493.75,51.1293,52.5283,133.824,98.2403,101.721,0.00390142,0.193726,20.8247,134.879,-0.316854,0.0,0.0
1989,497,50.856,52.7449,138.101,98.2339,100.682,0.00374021,0.193355,20.8249,134.619,-0.223989,0.0,0.0
2002,500.25,50.9208,52.8214,136.773,98.2251,101.429,0.00385469,0.193369,20.8253,134.398,-0.292117,0.0,0.0
2015,503.5,50.8881,52.6916,137.518,98.2231,101.553,0.00406642,0.194108,20.8238,134.158,-0.303406,0.0,0.0
2028,506.75,50.6519,52.4109,137.317,98.2164,100.815,0.00399446,0.19458,20.8227,133.948,-0.237655,0.0,0.0
2041,510,50.5184,52.4154,139.048,98.2112,100.176,0.00397653,0.194724,20.8219,133.728,-0.180275,0.0,0.0
2054,513.25,51.0677,52.2961,138.616,98.2379,100.719,0.00425975,0.193808,20.8247,133.498,-0.226997,0.0,0.0
2067,516.5,50.4512,52.4247,134.857,98.3074,100.482,0.00435395,0.193827,20.8248,133.287,-0.199096,0.0,0.0
2080,519.75,50.7183,52.6598,139.833,98.3545,100.186,0.00415921,0.196255,20.8227,133.007,-0.167861,0.0,0.0
2093,523,50.7244,52.2826,138.35,98.4407,100.943,0.00394985,0.195302,20.8232,132.747,-0.228427,0.0,0.0
2106,526.25,50.8821,52.3593,135.233,98.4922,101.19,0.00381173,0.195236,20.8237,132.517,-0.245886,0.0,0.0
2119,529.5,50.6573,52.6079,135.557,98.5461,101.132,0.00392008,0.195946,20.8219,132.347,-0.235681,0.0,0.0
2132,532.75,51.0595,52.9734,136.231,98.5881,101.776,0.00385215,0.196636,20.821,132.086,-0.289572,0.0,0.0
2145,536,50.7592,52.6736,137.924,98.608,101.585,0.00366399,0.196694,20.8209,131.866,-0.270681,0.0,0.0
2158,539.25,50.8913,51.9073,139.742,98.6416,101.741,0.00362997,0.196729,20.8213,131.636,-0.281534,0.0,0.0
2171,542.5,51.0989,52.3662,136.489,98.6539,101.941,0.00376627,0.197145,20.8217,131.446,-0.298297,0.0,0.0
2184,545.75,50.6353,52.7176,135.805,98.6727,101.312,0.00365815,0.197114,20.8218,131.226,-0.240236,0.0,0.0
2197,549,51.002,52.2904,132.726,98.6971,101.482,0.00364708,0.197223,20.8214,130.975,-0.253266,0.0,0.0
2210,552.25,51.3296,52.0142,141.086,98.7542,101.037,0.00371698,0.197291,20.821,130.765,-0.207979,0.0,0.0
2223,555.5,50.6732,52.7794,136.102,98.7921,101.136,0.00382526,0.195887,20.8225,130.535,-0.213404,0.0,0.0
2236,558.75,50.6463,52.7481,139.136,98.7909,101.383,0.00396102,0.196903,20.8208,130.285,-0.235732,0.0,0.0
2249,562,50.9585,52.5778,136.948,98.8464,101.589,0.00366028,0.197752,20.819,130.055,-0.249074,0.0,0.0
2262,565.25,51.2605,52.6129,131.235,98.8855,101.512,0.0034544,0.197967,20.8199,129.854,-0.238572,0.0,0.0
2275,568.5,51.0768,52.868,135.851,98.9194,101.023,0.00344043,0.197675,20.8204,129.624,-0.191462,0.0,0.0
2288,571.75,50.5161,52.9788,134.294,98.9733,102.168,0.00358461,0.197719,20.8211,129.414,-0.28912,0.0,0.0
2301,575,50.6113,52.9721,136.928,99.0085,101.888,0.0036296,0.196855,20.8213,129.184,-0.260868,0.0,0.0
2314,578.25,51.1571,52.6998,135.447,99.0224,102.189,0.00381426,0.197535,20.821,128.914,-0.286491,0.0,0.0
2327,581.5,50.9048,52.4149,133.965,99.0288,102.081,0.0037971,0.198741,20.8177,128.743,-0.276234,0.0,0.0
2340,584.75,50.7102,52.8238,135.251,99.0528,102.211,0.00380133,0.199776,20.8176,128.503,-0.285587,0.0,0.0
2353,588,51.4784,52.7333,135.844,99.0684,101.965,0.00370947,0.198538,20.8198,128.293,-0.26224,0.0,0.0
2366,591.25,50.9645,52.4925,137.653,99.0656,101.547,0.00379894,0.197444,20.8198,128.033,-0.225164,0.0,0.0
2379,594.5,50.7208,52.7267,135.675,99.07,101.397,0.00388056,0.198724,20.816,127.833,-0.211273,0.0,0.0
2392,597.75,50.9093,52.7426,139.486,99.0755,101.588,0.00391974,0.199805,20.8144,127.592,-0.227878,0.0,0.0
2405,601,50.862,52.8766,138.005,99.052,101.953,0.00389531,0.199678,20.8132,127.352,-0.262699,0.0,0.0
2418,604.25,50.8929,52.8042,136.831,99.0228,101.624,0.00377101,0.19905,20.815,127.172,-0.235948,0.0,0.0
2431,607.5,51.0923,52.445,133.55,99.0065,101.398,0.00385941,0.199381,20.8168,126.932,-0.217227,0.0,0.0
2444,610.75,50.7382,52.5391,140.181,98.9725,102.104,0.00419972,0.200294,20.8173,126.702,-0.283456,0.0,0.0
2457,614,50.5496,52.6845,138.022,98.9258,101.139,0.004184,0.198648,20.8174,126.501,-0.201334,0.0,0.0
2470,617.25,50.5055,53.0654,135.596,98.8819,101.137,0.00397642,0.200535,20.8175,126.221,-0.205173,0.0,0.0
2483,620.5,50.9803,52.598,140.256,98.8488,102.026,0.0039894,0.199824,20.8175,125.961,-0.287897,0.0,0.0
2496,623.75,50.8657,52.6677,134.988,98.7777,101.42,0.00402438,0.200269,20.8164,125.771,-0.24026,0.0,0.0
2509,627,51.0068,53.1273,136.876,98.6999,101.556,0.00395753,0.201546,20.8166,125.611,-0.259588,0.0,0.0
2522,630.25,51.275,52.6289,139.038,98.6392,101.914,0.0036674,0.202183,20.8172,125.35,-0.297248,0.0,0.0
2535,633.5,51.2072,52.3576,134.41,98.5825,101.192,0.00332626,0.201407,20.8177,125.1,-0.237755,0.0,0.0
2548,636.75,51.0317,52.7616,139.413,98.5346,101.707,0.00345531,0.200931,20.8186,124.93,-0.288389,0.0,0.0
2561,640,51.1142,53.0908,138.056,98.5625,101.523,0.00371916,0.201258,20.8175,124.65,-0.269314,0.0,0.0
2574,643.25,51.2594,52.986,139.548,98.5885,101.295,0.0038693,0.202526,20.8168,124.49,-0.246471,0.0,0.0
2587,646.5,51.062,52.714,142.419,98.6152,101.479,0.00383839,0.203149,20.8167,124.249,-0.260533,0.0,0.0
2600,649.75,51.2802,53.0141,134.543,98.6539,101.35,0.00383269,0.202754,20.8167,124.019,-0.245322,0.0,0.0
2613,653,50.8796,52.8866,136.091,98.6967,101.002,0.00385909,0.202162,20.8173,123.829,-0.210074,0.0,0.0
2626,656.25,51.5068,53.0938,140.81,98.7278,101.628,0.00375519,0.201542,20.818,123.589,-0.263506,0.0,0.0
2639,659.5,51.2724,53.1216,140.091,98.7761,101.991,0.00372354,0.20266,20.8182,123.369,-0.291456,0.0,0.0
2652,662.75,51.4839,52.8016,137.02,98.8272,101.519,0.00354533,0.20225,20.8179,123.138,-0.244544,0.0,0.0
2665,666,51.3477,52.7269,135.11,98.8735,101.825,0.00324129,0.202326,20.8178,122.908,-0.267647,0.0,0.0
2678,669.25,51.3272,53.1524,133.191,98.9146,101.878,0.00358561,0.202706,20.8165,122.668,-0.26865,0.0,0.0
2691,672.5,51.0443,52.8026,134.197,98.963,101.866,0.00370171,0.204509,20.8153,122.458,-0.263081,0.0,0.0
2704,675.75,51.4091,53.2087,138.117,99.024,102.183,0.00355359,0.205367,20.8133,122.248,-0.285742,0.0,0.0
2717,679,51.659,52.9511,136.221,99.07,101.16,0.00349187,0.203953,20.8123,122.047,-0.18999,0.0,0.0
2730,682.25,51.3634,52.8025,133.827,99.1071,101.678,0.00337753,0.204463,20.812,121.787,-0.233087,0.0,0.0
2743,685.5,51.3351,53.3368,137.078,99.1626,102.012,0.00345761,0.205476,20.8103,121.537,-0.257808,0.0,0.0
2756,688.75,51.6463,52.8022,139.458,99.2313,101.775,0.00369198,0.206498,20.8103,121.327,-0.230313,0.0,0.0
2769,692,51.7463,52.6282,136.395,99.2436,102.403,0.00370609,0.205698,20.8104,121.117,-0.285214,0.0,0.0
2782,695.25,51.6927,52.9863,129.45,99.2808,102.368,0.00366456,0.206361,20.8105,120.876,-0.278688,0.0,0.0
2795,698.5,51.6888,53.1155,136.591,99.3003,101.872,0.00355088,0.20714,20.81,120.646,-0.232674,0.0,0.0
2808,701.75,51.7035,53.3397,137.762,99.3299,102.385,0.00354936,0.206882,20.8091,120.426,-0.275669,0.0,0.0
2821,705,51.2291,52.8001,138.651,99.3442,102.149,0.00342198,0.207107,20.8096,120.146,-0.253396,0.0,0.0
2834,708.25,51.4817,53.3336,137.2,99.3506,102.274,0.00311856,0.207918,20.8083,119.986,-0.263876,0.0,0.0
2847,711.5,51.6887,53.4565,133.179,99.355,102.288,0.00307487,0.20934,20.8059,119.775,-0.264715,0.0,0.0
2860,714.75,51.9682,53.5382,138.379,99.3506,101.938,0.00323794,0.210003,20.8061,119.505,-0.233936,0.0,0.0
2873,718,51.7282,53.2206,140.271,99.3566,102.712,0.00321904,0.209761,20.8071,119.305,-0.30223,0.0,0.0
2886,721.25,51.3483,52.9985,137.647,99.361,101.542,0.00314572,0.208698,20.8079,119.095,-0.197581,0.0,0.0
2899,724.5,51.7763,53.6606,138.723,99.3387,102.647,0.0031402,0.210533,20.8064,118.835,-0.298128,0.0,0.0
2912,727.75,51.6915,53.2843,136.954,99.3387,102.456,0.00320469,0.21281,20.8041,118.654,-0.281186,0.0,0.0
2925,731,51.8856,53.6007,135.628,99.3243,101.39,0.00320169,0.217138,20.8002,118.404,-0.187335,0.0,0.0
2938,734.25,52.3733,53.8798,134.13,99.3135,101.488,0.00285441,0.217638,20.799,118.154,-0.197129,0.0,0.0
2951,737.5,52.2493,53.8502,133.135,99.3099,102.023,0.0027213,0.217595,20.7987,117.914,-0.245301,0.0,0.0
2964,740.75,52.1473,53.6213,136.581,99.2856,102.012,0.00276058,0.219157,20.7973,117.704,-0.246569,0.0,0.0
2977,744,52.2711,53.703,135.148,99.2756,102.233,0.00282877,0.220942,20.7958,117.453,-0.267106,0.0,0.0
2990,747.25,52.7469,53.972,134.847,99.24,101.956,0.00286557,0.220942,20.7982,117.243,-0.24572,0.0,0.0
3003,750.5,52.4145,54.1602,137.229,99.2189,102.152,0.00287771,0.221203,20.7969,117.003,-0.265087,0.0,0.0
3016,753.75,52.3897,53.8021,132.971,99.1965,102.314,0.00299355,0.224514,20.7929,116.753,-0.281568,0.0,0.0
3029,757,52.7252,54.1879,133.773,99.1582,101.751,0.00306254,0.227374,20.7895,116.503,-0.234922,0.0,0.0
3042,760.25,52.6258,54.2784,141.214,99.1482,101.366,0.00289866,0.229078,20.7878,116.292,-0.201339,0.0,0.0
3055,763.5,52.96,53.9919,132.063,99.1211,101.895,0.00277524,0.23041,20.7859,116.032,-0.251168,0.0,0.0
3068,766.75,52.6388,54.2556,137.867,99.0859,101.935,0.00272917,0.231885,20.7824,115.812,-0.258013,0.0,0.0
3081,770,53.1913,54.4113,135.18,99.0216,101.273,0.00266115,0.233487,20.7804,115.552,-0.204591,0.0,0.0
3094,773.25,53.1797,54.4356,133.652,98.9925,102.474,0.00260832,0.235585,20.7781,115.282,-0.314592,0.0,0.0
3107,776.5,53.1565,54.5051,135.48,98.9574,102.869,0.00276865,0.237765,20.7765,115.041,-0.352785,0.0,0.0
3120,779.75,53.8076,54.6371,133.561,98.9023,101.726,0.0031486,0.241146,20.7733,114.781,-0.256225,0.0,0.0
3133,783,53.5147,55.1781,133.741,98.8615,101.54,0.00321335,0.242832,20.7698,114.481,-0.243279,0.0,0.0
3146,786.25,53.699,55.4173,131.903,98.8049,101.84,0.00297483,0.246567,20.7653,114.261,-0.275297,0.0,0.0
3159,789.5,54.0917,55.348,132.166,98.7522,102.07,0.00291757,0.250758,20.7634,114,-0.300732,0.0,0.0
3172,792.75,54.3357,55.7172,134.225,98.6995,102.124,0.00248064,0.251976,20.7613,113.69,-0.310365,0.0,0.0
3185,796,54.7692,55.789,132.913,98.6212,101.47,0.00233326,0.253507,20.7591,113.44,-0.259172,0.0,0.0
3198,799.25,54.9092,56.005,131.798,98.5417,101.092,0.00273567,0.257865,20.7538,113.18,-0.23248,0.0,0.0
3211,802.5,54.6461,56.3749,135.977,98.4519,101.028,0.00288476,0.261276,20.7511,112.919,-0.235062,0.0,0.0
3224,805.75,55.0193,56.4357,133.213,98.3828,101.798,0.00260888,0.264988,20.7488,112.649,-0.310547,0.0,0.0
3237,809,55.1674,56.9266,133.392,98.3094,101.964,0.00248054,0.267997,20.7446,112.369,-0.332145,0.0,0.0
3250,812.25,55.6253,57.3213,134.928,98.2327,100.61,0.00227786,0.271065,20.7405,112.109,-0.217626,0.0,0.0
3263,815.5,55.9084,57.3253,131.838,98.198,101.333,0.00239255,0.272691,20.7365,111.778,-0.285983,0.0,0.0
3276,818.75,56.5585,57.6289,135.101,98.1593,101.108,0.00269165,0.275865,20.7329,111.478,-0.269371,0.0,0.0
3289,822,56.0457,57.3983,133.096,98.1205,99.9771,0.00296953,0.28078,20.7261,111.188,-0.170577,0.0,0.0
3302,825.25,56.6421,57.6722,134.737,98.0758,101.002,0.00312229,0.2831,20.7236,110.878,-0.267539,0.0,0.0
3315,828.5,56.9492,58.3066,131.634,98.065,100.609,0.0030946,0.288618,20.7169,110.597,-0.233092,0.0,0.0
3328,831.75,56.4972,58.4912,136.863,98.0499,100.725,0.00294223,0.292654,20.7121,110.267,-0.245002,0.0,0.0
3341,835,57.267,58.1327,138.87,98.0531,100.86,0.00267732,0.295181,20.7107,110.007,-0.256862,0.0,0.0
3354,838.25,58.0956,58.8207,135.076,98.0519,100.676,0.00248485,0.297903,20.7079,109.707,-0.240341,0.0,0.0
3367,841.5,58.2227,59.5147,134.195,98.069,100.524,0.00254436,0.300926,20.705,109.376,-0.22502,0.0,0.0
3380,844.75,58.4124,59.5301,131.653,98.0611,100.306,0.00253289,0.30299,20.7029,109.066,-0.206009,0.0,0.0
3393,848,58.148,60.0099,130.173,98.0638,100.46,0.00249613,0.304478,20.7007,108.746,-0.219671,0.0,0.0
3406,851.25,58.3464,60.1365,130.421,98.065,99.6209,0.00245044,0.306815,20.6984,108.456,-0.143246,0.0,0.0
3419,854.5,58.517,60.7662,131.485,98.0471,99.8609,0.00257508,0.306481,20.6974,108.135,-0.166812,0.0,0.0
3432,857.75,58.6048,60.4911,134.5,98.0095,100.369,0.00263128,0.305389,20.6972,107.785,-0.216467,0.0,0.0
3445,861,59.4049,60.4682,131.817,97.9772,100.246,0.00272209,0.304581,20.6985,107.505,-0.208358,0.0,0.0
3458,864.25,59.4457,60.5863,134.048,97.9381,100.589,0.00284571,0.305847,20.698,107.184,-0.243048,0.0,0.0
3471,867.5,59.3553,61.1083,135.068,97.8882,100.299,0.0026696,0.30499,20.698,106.834,-0.221372,0.0,0.0
3484,870.75,59.4135,61.4427,135.936,97.8327,100.308,0.00264608,0.30326,20.6993,106.534,-0.22735,0.0,0.0
3497,874,59.3265,61.3721,129.676,97.784,100.331,0.00265517,0.304561,20.6997,106.284,-0.234006,0.0,0.0
3510,877.25,59.8988,61.3465,135.319,97.7544,99.7312,0.00252127,0.303412,20.7001,105.953,-0.182189,0.0,0.0
3523,880.5,60.1645,61.5079,135.39,97.6842,99.9982,0.00238987,0.303194,20.7005,105.643,-0.213066,0.0,0.0
3536,883.75,60.0766,61.9474,130.066,97.641,100.428,0.00242383,0.301965,20.702,105.323,-0.256095,0.0,0.0
3549,887,59.6794,61.8418,127.258,97.5919,99.7533,0.0024104,0.302847,20.7024,105.033,-0.199341,0.0,0.0
3562,890.25,59.9645,61.3794,133.097,97.5456,100.475,0.00232932,0.301541,20.7009,104.712,-0.269236,0.0,0.0
3575,893.5,60.3474,62.182,131.996,97.5101,100.991,0.00222761,0.304599,20.6971,104.442,-0.319171,0.0,0.0
3588,896.75,59.8851,62.2253,131.756,97.4885,99.9068,0.00226708,0.304873,20.6978,104.072,-0.222987,0.0,0.0
3601,900,59.8037,62.2568,135.389,97.465,99.534,0.00222072,0.306153,20.6963,103.781,-0.19116,0.0,0.0
3614,903.25,60.6349,62.4276,132.472,97.4458,100.354,0.00194861,0.307974,20.6945,103.471,-0.267615,0.0,0.0
3627,906.5,60.5765,62.7418,136.334,97.4314,100.378,0.00182204,0.307897,20.6959,103.161,-0.271162,0.0,0.0
3640,909.75,60.6693,62.5762,132.052,97.4119,100.184,0.001859,0.305182,20.6987,102.881,-0.255336,0.0,0.0
3653,913,60.892,62.6592,130.839,97.3895,100.697,0.00196798,0.305944,20.6987,102.59,-0.303895,0.0,0.0
3666,916.25,60.7271,62.5568,130.634,97.3855,99.561,0.00204354,0.307419,20.6978,102.24,-0.201051,0.0,0.0
3679,919.5,60.6836,63.2033,128.528,97.3835,100.433,0.00205163,0.306555,20.6971,101.93,-0.280577,0.0,0.0
3692,922.75,60.6666,63.262,131.43,97.3823,99.5727,0.00200885,0.310167,20.6939,101.559,-0.20242,0.0,0.0
3705,926,60.7161,63.4952,129.822,97.3799,100.68,0.00183354,0.313916,20.6892,101.319,-0.303285,0.0,0.0
3718,929.25,61.2026,63.217,127.58,97.3927,100.584,0.00183601,0.317407,20.6863,100.939,-0.293377,0.0,0.0
3731,932.5,60.7562,63.5797,131.988,97.4147,101.35,0.00192876,0.319049,20.6856,100.639,-0.360363,0.0,0.0
3744,935.75,61.0065,63.7805,131.932,97.4187,99.9397,0.00197097,0.31923,20.6854,100.298,-0.232505,0.0,0.0
3757,939,61.5858,63.8917,132.878,97.4522,99.7344,0.00216787,0.319993,20.6854,100.018,-0.210656,0.0,0.0
3770,942.25,62.035,64.2735,133.246,97.4937,99.996,0.00219413,0.322607,20.682,99.6878,-0.23062,0.0,0.0
3783,945.5,61.5524,63.8213,132.995,97.5185,100.682,0.00219339,0.32405,20.6774,99.3575,-0.290551,0.0,0.0
3796,948.75,62.0786,64.0369,129.47,97.5744,100.299,0.0024481,0.32771,20.6744,99.0172,-0.250593,0.0,0.0
3809,952,61.6738,64.5665,130.585,97.6215,100.373,0.00245297,0.329279,20.6731,98.6869,-0.25298,0.0,0.0
3822,955.25,61.8916,64.3897,128.594,97.6742,100.611,0.00232211,0.334046,20.6674,98.3566,-0.269599,0.0,0.0
3835,958.5,62.2738,64.743,132.762,97.7141,100.27,0.0021528,0.336238,20.6651,98.0063,-0.234995,0.0,0.0
3848,961.75,62.6707,64.8606,136.461,97.764,99.9622,0.00211823,0.33629,20.6647,97.646,-0.202351,0.0,0.0
3861,965,62.7489,64.8986,130.423,97.8175,100.203,0.00228799,0.340123,20.661,97.2957,-0.219237,0.0,0.0
3874,968.25,63.0151,65.434,130.553,97.8598,100.683,0.00237408,0.344094,20.6562,96.9754,-0.258792,0.0,0.0
3887,971.5,63.0152,65.2193,127.89,97.9113,100.938,0.00239863,0.34554,20.6542,96.6351,-0.277052,0.0,0.0
3900,974.75,63.3414,65.7005,129.119,97.9557,100.802,0.00254537,0.349317,20.6514,96.2448,-0.260706,0.0,0.0
3913,978,63.8487,65.7998,129.799,97.9884,100.598,0.00239968,0.352969,20.6465,95.8944,-0.239231,0.0,0.0
3926,981.25,63.8758,65.9513,135.157,98.0523,101.031,0.00236701,0.358385,20.6406,95.5542,-0.272322,0.0,0.0
3939,984.5,63.9493,66.34,132.946,98.0958,100.858,0.00238922,0.359622,20.6406,95.1838,-0.252695,0.0,0.0
3952,987.75,64.3186,66.7249,125.804,98.1457,100.293,0.00238897,0.359641,20.6396,94.8235,-0.196973,0.0,0.0
3965,991,64.816,66.791,128.58,98.1704,101.179,0.00233719,0.362813,20.6374,94.4432,-0.274694,0.0,0.0
3978,994.25,64.7355,67.0198,129.27,98.2379,101.085,0.00228353,0.364671,20.6343,94.0829,-0.260014,0.0,0.0
3991,997.5,64.8926,67.4044,128.975,98.281,101.353,0.00224696,0.368295,20.63,93.7025,-0.28011,0.0,0.0
4004,1000.75,65.6683,67.4454,130.121,98.3154,101.229,0.00216902,0.368163,20.6287,93.3322,-0.265806,0.0,0.0
4017,1004,65.4211,67.5446,130.972,98.3761,101.001,0.00224261,0.370467,20.6255,92.9519,-0.239602,0.0,0.0
4030,1007.25,65.4747,67.9988,130.543,98.4367,101.224,0.00212344,0.373204,20.622,92.5815,-0.254051,0.0,0.0
4043,1010.5,65.6494,68.2353,130.481,98.4607,100.69,0.00220106,0.375551,20.6173,92.2613,-0.203737,0.0,0.0
4056,1013.75,65.6122,68.1316,129.706,98.4855,100.393,0.00241948,0.378642,20.6144,91.8509,-0.17459,0.0,0.0
4069,1017,65.8019,68.7865,126.509,98.5154,101.174,0.00245049,0.380599,20.6122,91.4505,-0.242289,0.0,0.0
4082,1020.25,65.9776,68.5998,129.861,98.5421,100.565,0.00230347,0.381426,20.6108,91.0802,-0.184892,0.0,0.0
4095,1023.5,66.8507,69.2292,132.921,98.5457,101.024,0.00205892,0.383836,20.6074,90.7099,-0.226029,0.0,0.0
4108,1026.75,66.4398,69.0981,128.633,98.5861,101.376,0.00208584,0.386892,20.6046,90.3195,-0.253931,0.0,0.0
4121,1030,67.0786,69.2676,133.012,98.5964,101.372,0.00210666,0.387703,20.6038,89.9492,-0.25265,0.0,0.0
4134,1033.25,66.8935,69.4801,130.593,98.6072,101.661,0.00201947,0.388191,20.6034,89.6189,-0.27753,0.0,0.0
4147,1036.5,66.8333,70.0446,128.954,98.624,101.445,0.00201643,0.389635,20.6032,89.2386,-0.256653,0.0,0.0
4160,1039.75,67.4709,70.03,126.078,98.6424,101.462,0.00207156,0.388156,20.6035,88.8182,-0.256494,0.0,0.0
4173,1043,67.1631,70.1774,132.112,98.6471,101.005,0.00210279,0.388154,20.6025,88.4779,-0.214965,0.0,0.0
4186,1046.25,67.3529,70.0968,129.673,98.6579,101.221,0.0022347,0.385764,20.6041,88.1076,-0.233383,0.0,0.0
4199,1049.5,67.5938,70.3255,130.21,98.6583,101.786,0.00250225,0.382718,20.6056,87.7573,-0.284013,0.0,0.0
4212,1052.75,67.842,70.5334,130.167,98.6647,101.322,0.00257303,0.381327,20.6071,87.407,-0.241861,0.0,0.0
4225,1056,68.2746,70.5536,125.851,98.644,101.115,0.00253572,0.379413,20.6079,87.0567,-0.225113,0.0,0.0
4238,1059.25,68.2327,70.5339,131.691,98.6479,101.755,0.00269234,0.374547,20.6137,86.7164,-0.282233,0.0,0.0
4251,1062.5,67.9943,70.6264,131.337,98.6256,100.288,0.00279085,0.366902,20.6206,86.346,-0.152134,0.0,0.0
4264,1065.75,67.5749,70.4438,127.605,98.6168,100.967,0.00282768,0.362333,20.6257,86.0258,-0.214356,0.0,0.0
4277,1069,67.3782,70.2859,131.205,98.5956,100.677,0.00284525,0.358305,20.6315,85.7355,-0.190133,0.0,0.0
4290,1072.25,67.011,70.6855,133.163,98.5689,101.092,0.00280116,0.354418,20.6371,85.3251,-0.230014,0.0,0.0
4303,1075.5,67.1947,70.5456,132.181,98.5497,101.833,0.00265154,0.351119,20.6407,85.0449,-0.298262,0.0,0.0
4316,1078.75,66.8261,70.4317,128.502,98.515,100.957,0.00249027,0.343973,20.6495,84.7146,-0.222822,0.0,0.0
4329,1082,66.926,69.9733,131.837,98.5046,102.085,0.00230954,0.340366,20.6531,84.3843,-0.324896,0.0,0.0
4342,1085.25,66.6644,69.8112,129.586,98.4878,100.89,0.00219818,0.336415,20.6586,84.1241,-0.219281,0.0,0.0
4355,1088.5,66.1856,70.1234,131.689,98.4571,100.686,0.00228084,0.331872,20.6631,83.8338,-0.203744,0.0,0.0
4368,1091.75,66.2667,70.1925,131.433,98.434,100.922,0.00240622,0.329918,20.6655,83.5236,-0.227185,0.0,0.0
4381,1095,66.1268,69.2393,127.917,98.41,101.655,0.00257121,0.330284,20.6654,83.2333,-0.295266,0.0,0.0
4394,1098.25,65.581,69.8319,129.451,98.416,100.98,0.00261665,0.332638,20.6608,82.903,-0.234083,0.0,0.0
4407,1101.5,65.6781,69.2967,133.141,98.3804,101.218,0.00258519,0.334945,20.6579,82.5627,-0.258731,0.0,0.0
4420,1104.75,65.3412,69.0433,131.758,98.3848,100.781,0.00276058,0.334284,20.6572,82.3025,-0.218969,0.0,0.0
4433,1108,65.529,68.8657,131.646,98.3653,101.274,0.00308486,0.333999,20.6584,82.0222,-0.265234,0.0,0.0
4446,1111.25,65.5396,69.3372,129.915,98.3401,100.177,0.00326704,0.332374,20.6592,81.712,-0.168455,0.0,0.0
4459,1114.5,65.787,68.9503,134.38,98.3349,101.39,0.00313037,0.329351,20.6597,81.3917,-0.278394,0.0,0.0
4472,1117.75,65.3158,68.4772,132.415,98.3122,100.699,0.00284046,0.330351,20.6599,81.0714,-0.21833,0.0,0.0
4485,1121,64.946,68.6122,129.832,98.3058,100.567,0.00273579,0.328944,20.6617,80.8012,-0.206908,0.0,0.0
4498,1124.25,65.5186,68.7151,132.26,98.2954,100.754,0.00267701,0.32714,20.6628,80.5209,-0.224845,0.0,0.0
4511,1127.5,65.1399,68.4392,128.116,98.2866,101.4,0.00265512,0.32809,20.6618,80.2006,-0.283755,0.0,0.0
4524,1130.75,65.3567,68.3599,130.24,98.2731,101.1,0.00258132,0.328989,20.661,79.9404,-0.258057,0.0,0.0
4537,1134,65.223,68.1599,130.505,98.2483,101.53,0.00291827,0.328583,20.6592,79.6301,-0.298977,0.0,0.0
4550,1137.25,65.1422,68.1576,125.856,98.2439,101.003,0.00305856,0.329495,20.6573,79.3199,-0.252079,0.0,0.0
4563,1140.5,65.2592,68.5464,134.158,98.2311,100.476,0.00295022,0.330291,20.6552,78.9996,-0.205669,0.0,0.0
4576,1143.75,65.1608,68.4911,132.01,98.2,100.699,0.00268179,0.331874,20.6543,78.7193,-0.228721,0.0,0.0
4589,1147,65.1304,68.0883,131.904,98.1872,100.136,0.00295799,0.328512,20.6575,78.409,-0.178894,0.0,0.0
4602,1150.25,65.2383,68.3644,131.15,98.17,101.08,0.00299769,0.325869,20.6599,78.1989,-0.265858,0.0,0.0
4615,1153.5,65.1422,68.1665,130.771,98.1693,99.8231,0.0030022,0.323155,20.6642,77.8586,-0.152032,0.0,0.0
4628,1156.75,64.9386,68.1127,131.106,98.1569,99.9329,0.00326179,0.324757,20.6612,77.6684,-0.163191,0.0,0.0
4641,1160,65.108,68.1694,133.867,98.1597,100.218,0.00359202,0.3287,20.6597,77.3581,-0.188851,0.0,0.0
4654,1163.25,64.8182,68.2054,133.2,98.1461,98.9941,0.00386243,0.320538,20.6694,77.0679,-0.0782875,0.0,0.0
4667,1166.5,64.1363,67.9361,131.62,98.2212,99.5268,0.0040844,0.309416,20.6813,76.7876,-0.12017,0.0,0.0
4680,1169.75,64.3054,67.0326,131.704,98.3214,100.44,0.00421682,0.299855,20.6911,76.5674,-0.193968,0.0,0.0
4693,1173,64.0456,67.1506,133.83,98.4124,101.025,0.00403763,0.296353,20.6952,76.3272,-0.238473,0.0,0.0
4706,1176.25,63.2667,66.807,134.847,98.499,100.337,0.00387224,0.293127,20.6991,76.097,-0.168273,0.0,0.0
4719,1179.5,63.1233,66.2954,134.76,98.5641,100.817,0.00405114,0.289053,20.7021,75.8568,-0.205654,0.0,0.0
4732,1182.75,63.4625,66.4519,131.501,98.6424,101.068,0.00424113,0.283166,20.7065,75.6266,-0.221086,0.0,0.0
4745,1186,63.3502,66.3962,132.028,98.7074,100.854,0.00423722,0.275212,20.717,75.4064,-0.195763,0.0,0.0
4758,1189.25,62.2615,65.5853,138.73,98.753,101.426,0.00427373,0.267405,20.7266,75.2162,-0.243025,0.0,0.0
4771,1192.5,62.1615,65.2902,133.356,98.8172,101.105,0.00452068,0.259322,20.7359,75.0061,-0.20825,0.0,0.0
4784,1195.75,61.1805,65.0093,136.332,98.8851,101.434,0.00454737,0.255011,20.7406,74.8459,-0.231623,0.0,0.0
4797,1199,61.2646,64.2782,134.509,98.9146,101.182,0.00468494,0.246912,20.7509,74.6357,-0.206211,0.0,0.0
4810,1202.25,60.4305,64.4185,135.365,98.951,102.003,0.004857,0.239184,20.7595,74.4656,-0.276443,0.0,0.0
4823,1205.5,59.9132,63.6255,131.356,98.9733,101.464,0.00457715,0.234394,20.7638,74.2854,-0.226132,0.0,0.0
4836,1208.75,59.5697,63.5129,134.785,98.9989,101.689,0.00492585,0.228549,20.769,74.1253,-0.243954,0.0,0.0
4849,1212,59.124,62.9884,133.37,98.9965,101.381,0.00576177,0.222997,20.7753,73.9752,-0.216568,0.0,0.0
4862,1215.25,58.9423,62.2196,137.913,99.0105,101.883,0.00648926,0.21488,20.7812,73.795,-0.260282,0.0,0.0
4875,1218.5,57.8492,61.8602,139.023,99.0352,100.917,0.0066622,0.212329,20.7851,73.6949,-0.171279,0.0,0.0
4888,1221.75,57.756,61.6291,135.392,99.0013,101.863,0.00661464,0.21039,20.7878,73.4847,-0.259316,0.0,0.0
4901,1225,57.1727,60.5603,134.143,99.0061,101.509,0.0066615,0.206117,20.7926,73.2945,-0.227241,0.0,0.0
4914,1228.25,56.4076,60.508,138.027,98.9973,101.85,0.00679011,0.198923,20.7999,73.2545,-0.258556,0.0,0.0
4927,1231.5,56.7209,60.4978,134.487,98.9678,102.039,0.00680586,0.19543,20.8042,73.1244,-0.278155,0.0,0.0
4940,1234.75,55.9163,59.9144,137.788,98.9326,101.883,0.00669461,0.192729,20.8065,73.0343,-0.26744,0.0,0.0
4953,1238,55.7536,59.1482,136.161,98.9059,101.819,0.00644577,0.190539,20.8089,72.8942,-0.264188,0.0,0.0
4966,1241.25,55.7156,58.53,137.708,98.84,101.952,0.00667031,0.186519,20.8134,72.7841,-0.282117,0.0,0.0
4979,1244.5,54.8135,58.6786,141.467,98.7633,101.697,0.00730545,0.180527,20.819,72.674,-0.266399,0.0,0.0
4992,1247.75,54.6043,58.193,137.446,98.7134,101.249,0.0072299,0.17751,20.8206,72.5539,-0.230775,0.0,0.0
5005,1251,54.2362,57.7934,134.489,98.6456,101.182,0.00695584,0.176122,20.8215,72.4438,-0.231002,0.0,0.0
5018,1254.25,53.975,57.1394,139.194,98.5829,101.681,0.0071434,0.1753,20.8249,72.3437,-0.281551,0.0,0.0
5031,1257.5,53.5545,56.9245,143.685,98.5134,101.725,0.00798207,0.171,20.8286,72.2236,-0.291914,0.0,0.0
5044,1260.75,53.5129,56.546,136.095,98.5138,101.739,0.00871278,0.167688,20.8324,72.1535,-0.293166,0.0,0.0
5057,1264,52.9575,56.1072,132.651,98.5302,101.238,0.00977273,0.165715,20.8348,72.0134,-0.246755,0.0,0.0
5070,1267.25,52.727,55.5995,137.263,98.5749,101.666,0.0108919,0.163083,20.8379,71.9634,-0.280999,0.0,0.0
5083,1270.5,52.278,55.0575,137.39,98.6032,101.862,0.0121189,0.161222,20.8402,71.8633,-0.295898,0.0,0.0
5096,1273.75,51.6363,54.882,137.282,98.6348,101.453,0.0126496,0.159637,20.8414,71.7732,-0.256385,0.0,0.0
5109,1277,51.2696,54.3281,137.122,98.638,101.662,0.0123332,0.158507,20.8441,71.7031,-0.274773,0.0,0.0
5122,1280.25,51.0269,53.977,140.89,98.6803,102.158,0.012463,0.156994,20.847,71.553,-0.315222,0.0,0.0
5135,1283.5,50.9656,54.0893,135.642,98.7086,101.768,0.012324,0.154461,20.8493,71.4829,-0.277804,0.0,0.0
5148,1286.75,50.1621,52.989,136.531,98.741,100.923,0.0120878,0.151721,20.8531,71.4429,-0.198886,0.0,0.0
5161,1290,49.8047,52.842,147.373,98.7446,101.772,0.0126119,0.148402,20.8588,71.2928,-0.274774,0.0,0.0
5174,1293.25,50.0604,53.0072,145.973,98.7809,101.331,0.0133836,0.144827,20.8635,71.2327,-0.231961,0.0,0.0
5187,1296.5,49.1811,52.018,139.433,98.8076,101.131,0.0138966,0.144149,20.8637,71.1126,-0.211483,0.0,0.0
5200,1299.75,49.2031,51.7212,140.976,98.8312,101.318,0.0141503,0.14218,20.8629,71.0826,-0.226154,0.0,0.0
5213,1303,48.6919,51.755,141.543,98.85,101.79,0.0141272,0.143193,20.8621,71.0125,-0.266756,0.0,0.0
5226,1306.25,48.6453,51.3792,136.635,98.8695,102.278,0.014401,0.142917,20.8623,70.8724,-0.308411,0.0,0.0
5239,1309.5,48.2872,51.0696,140.346,98.8971,101.679,0.0142775,0.140898,20.8648,70.8624,-0.252471,0.0,0.0
5252,1312.75,48.0912,50.2818,140.033,98.9254,102.043,0.0142938,0.13913,20.8649,70.8024,-0.282368,0.0,0.0
5265,1316,47.3186,50.027,141.48,98.9701,101.301,0.0143605,0.140427,20.8619,70.7223,-0.211793,0.0,0.0
5278,1319.25,47.5123,50.0762,142.444,98.9801,102.004,0.0139538,0.139482,20.8649,70.6622,-0.273844,0.0,0.0
5291,1322.5,47.1341,49.699,142.821,98.9789,101.294,0.0138515,0.137491,20.8681,70.6222,-0.210379,0.0,0.0
5304,1325.75,47.3091,49.0496,139.276,99.0149,101.237,0.0138897,0.136511,20.87,70.5421,-0.201936,0.0,0.0
5317,1329,46.9145,49.1302,142.234,99.0456,102.032,0.0141037,0.134792,20.8733,70.4621,-0.270317,0.0,0.0
5330,1332.25,46.6055,49.3866,139.674,99.0708,100.964,0.0143899,0.134875,20.8724,70.442,-0.172278,0.0,0.0
5343,1335.5,46.7713,48.6944,144.689,99.1247,101.821,0.0143828,0.135055,20.8718,70.362,-0.2442,0.0,0.0
5356,1338.75,46.526,48.1491,139.071,99.1474,101.412,0.0143327,0.135432,20.8716,70.2919,-0.205494,0.0,0.0
5369,1342,46.577,48.1594,139.862,99.1774,101.544,0.0144716,0.1348,20.8732,70.2318,-0.214619,0.0,0.0
5382,1345.25,46.0375,48.0312,142.419,99.2033,101.719,0.0142461,0.133716,20.875,70.1518,-0.227882,0.0,0.0
5395,1348.5,46.3542,47.4181,139.693,99.2325,101.974,0.0140417,0.133136,20.8749,70.0917,-0.248023,0.0,0.0
5408,1351.75,45.7873,47.4235,138.604,99.2484,102.209,0.0135616,0.134231,20.8751,70.0617,-0.267471,0.0,0.0
5421,1355,45.5145,47.6248,139.561,99.258,101.551,0.0136033,0.133552,20.8753,69.9716,-0.207867,0.0,0.0
5434,1358.25,45.7516,46.9861,139.423,99.2688,101.723,0.0141452,0.134931,20.8741,69.9416,-0.222241,0.0,0.0
5447,1361.5,45.395,47.0858,139.736,99.2716,101.903,0.0142854,0.136893,20.8733,69.9116,-0.238084,0.0,0.0
5460,1364.75,45.2803,46.5846,140.782,99.2788,102.595,0.0144025,0.136645,20.8723,69.8215,-0.298984,0.0,0.0
5473,1368,45.2332,46.6716,141.586,99.28,101.21,0.0140543,0.136159,20.8714,69.7514,-0.175216,0.0,0.0
5486,1371.25,45.372,46.8507,139.732,99.2927,101.963,0.0134952,0.135702,20.8723,69.7014,-0.241531,0.0,0.0
5499,1374.5,45.0257,46.8315,140.621,99.2887,101.213,0.0129626,0.134316,20.8735,69.6413,-0.174653,0.0,0.0
5512,1377.75,45.0441,46.3652,145.68,99.2863,102.066,0.0130224,0.131849,20.8756,69.5613,-0.251316,0.0,0.0
5525,1381,44.5995,45.9106,141.268,99.3071,102.324,0.013075,0.130925,20.8778,69.5412,-0.272389,0.0,0.0
5538,1384.25,44.6995,45.5646,139.838,99.3103,101.972,0.013133,0.130335,20.879,69.4812,-0.240725,0.0,0.0
5551,1387.5,44.9216,46.0607,137.133,99.3119,101.785,0.0129775,0.131581,20.8775,69.4412,-0.223805,0.0,0.0
5564,1390.75,44.474,45.847,140.998,99.3155,101.699,0.0126798,0.133491,20.8769,69.3711,-0.215784,0.0,0.0
5577,1394,44.2509,45.704,138.772,99.3331,101.154,0.0126141,0.130959,20.8778,69.311,-0.165287,0.0,0.0
5590,1397.25,44.2574,45.4077,137.406,99.3243,101.953,0.0125931,0.129566,20.8791,69.281,-0.237756,0.0,0.0
5603,1400.5,44.4213,45.9586,142.552,99.3183,101.433,0.0124344,0.129424,20.8803,69.2009,-0.191722,0.0,0.0
5616,1403.75,44.4847,45.445,136.937,99.3299,101.061,0.0122394,0.128606,20.881,69.1509,-0.15723,0.0,0.0
5629,1407,44.0657,44.8077,139.865,99.3315,101.793,0.0121768,0.128609,20.8814,69.1009,-0.222778,0.0,0.0
5642,1410.25,43.7064,45.1527,138.069,99.3271,101.405,0.0124089,0.128508,20.8819,69.0708,-0.188453,0.0,0.0
5655,1413.5,43.7105,44.8011,141.514,99.3267,101.134,0.0124671,0.128798,20.8819,69.0108,-0.164089,0.0,0.0
5668,1416.75,43.5881,44.347,139.565,99.3387,101.728,0.0123269,0.128191,20.881,69.0108,-0.21628,0.0,0.0
5681,1420,43.6285,44.7298,139.983,99.3295,101.929,0.0125797,0.12757,20.8807,68.9107,-0.23507,0.0,0.0
5694,1423.25,42.1752,43.1408,140.476,99.3307,102.425,0.0129705,0.127875,20.8804,68.9107,-0.279157,0.0,0.0
5707,1426.5,42.0049,43.4517,142.101,99.3279,101.941,0.0130434,0.128389,20.8795,68.8106,-0.236302,0.0,0.0
5720,1429.75,42.2717,42.8797,141.787,99.3215,102.058,0.0127992,0.128758,20.8792,68.7405,-0.247373,0.0,0.0
5733,1433,42.2264,42.5735,142.613,99.3191,102.087,0.0124877,0.129757,20.8792,68.6905,-0.250122,0.0,0.0
5746,1436.25,42.1048,42.8984,137.296,99.3291,101.96,0.0125458,0.128615,20.8798,68.6705,-0.23788,0.0,0.0
5759,1439.5,41.9413,42.6371,140.682,99.3299,101.906,0.0125779,0.126629,20.882,68.6404,-0.233024,0.0,0.0
5772,1442.75,41.6743,43.013,142.335,99.3211,101.41,0.0125777,0.126358,20.8843,68.5604,-0.189446,0.0,0.0
5785,1446,42.1572,42.3639,138.271,99.3307,101.071,0.0127037,0.126125,20.8853,68.5203,-0.158089,0.0,0.0
5798,1449.25,41.9367,42.5767,140.832,99.3371,101.458,0.0127624,0.125059,20.8874,68.4603,-0.192225,0.0,0.0
5811,1452.5,41.6939,42.9285,143.029,99.343,101.565,0.0126184,0.124301,20.8896,68.4303,-0.201284,0.0,0.0
5824,1455.75,41.4519,42.0469,138.334,99.3331,101.498,0.0126757,0.124392,20.8895,68.4303,-0.196185,0.0,0.0
5837,1459,41.2193,42.4227,145.233,99.3574,101.051,0.0127575,0.12553,20.8859,68.3602,-0.153855,0.0,0.0
5850,1462.25,41.5894,42.2825,136.695,99.3462,102.112,0.0125051,0.124458,20.8865,68.3302,-0.249882,0.0,0.0
5863,1465.5,41.7722,42.358,141.595,99.3367,101.674,0.0122923,0.122647,20.8877,68.2501,-0.211628,0.0,0.0
5876,1468.75,41.577,42.2278,139.144,99.3335,101.862,0.0122703,0.122501,20.8874,68.2201,-0.228712,0.0,0.0
5889,1472,41.5872,42.3558,140.306,99.3422,102.125,0.012542,0.122498,20.8873,68.2001,-0.251451,0.0,0.0
5902,1475.25,41.3512,42.3751,139.625,99.3323,102,0.0128041,0.122796,20.8873,68.14,-0.241164,0.0,0.0
5915,1478.5,41.4852,42.4863,143.667,99.3051,101.769,0.0125623,0.123084,20.8873,68.0799,-0.223059,0.0,0.0
5928,1481.75,41.5148,41.8969,141.89,99.3031,101.556,0.0123242,0.122931,20.8874,68.0299,-0.204136,0.0,0.0
5941,1485,41.2948,42.7503,142.945,99.2859,101.804,0.0123578,0.121829,20.8875,67.9799,-0.227956,0.0,0.0
5954,1488.25,41.027,41.9167,139.866,99.258,101.846,0.0120961,0.123247,20.8862,67.9098,-0.23426,0.0,0.0
5967,1491.5,41.1524,41.8442,139.288,99.26,101.852,0.0117563,0.123134,20.8865,67.9498,-0.234559,0.0,0.0
5980,1494.75,41.191,42.1093,141.226,99.232,102.274,0.0115647,0.122097,20.8872,67.8898,-0.274784,0.0,0.0
5993,1498,41.4497,41.9239,142.061,99.2045,101.399,0.011462,0.121904,20.8874,67.8397,-0.199084,0.0,0.0
6006,1501.25,41.6756,42.4169,147.159,99.1989,101.679,0.0115044,0.121309,20.8892,67.7997,-0.224699,0.0,0.0
6019,1504.5,40.5909,42.1453,141.335,99.1797,101.876,0.0115796,0.120685,20.8915,67.7797,-0.244052,0.0,0.0
6032,1507.75,41.3802,42.1564,141.879,99.1802,101.443,0.0115743,0.119975,20.8941,67.7096,-0.205277,0.0,0.0
6045,1511,41.3224,41.7725,141.028,99.1702,100.743,0.0117005,0.120741,20.8938,67.6696,-0.14316,0.0,0.0
6058,1514.25,40.8923,42.2578,139.38,99.1702,101.115,0.0117387,0.120222,20.892,67.6496,-0.176778,0.0,0.0
6071,1517.5,41.3126,42.3093,141.303,99.1706,101.706,0.0116459,0.121143,20.8915,67.5895,-0.229717,0.0,0.0
6084,1520.75,41.1406,42.2823,137.772,99.1526,100.992,0.0116583,0.121575,20.8914,67.5395,-0.167279,0.0,0.0
6097,1524,40.6793,41.6448,141.478,99.1438,101.464,0.0116946,0.120466,20.8927,67.4994,-0.210511,0.0,0.0
6110,1527.25,40.8354,41.8702,139.487,99.1179,101.096,0.0116839,0.120051,20.8926,67.4794,-0.179795,0.0,0.0
6123,1530.5,40.9866,42.1255,141.97,99.1059,101.351,0.0116833,0.120436,20.8933,67.4194,-0.20389,0.0,0.0
6136,1533.75,41.0605,41.8203,142.747,99.072,101.163,,0.119686,,67.3994,-0.190049,0.0,0.0
6149,1537,40.9812,41.6702,142.02,99.0492,101.601,,,,67.3493,-0.231469,0.0,0.0
6162,1540.25,40.8695,41.9481,141.959,99.0165,101.301,,,,67.3193,-0.207576,0.0,0.0
6168,1541.75,40.697,41.3801,140.423,99.0073,101.206,,,,67.3093,-0.19988,0.0,0.0