File: 01_Data/Oak_Flooring/Cone/Oak_Flooring_Cone_HF75Scan_220914_R2.csv
Names,Time,Stack TC,Smoke TC,Exh Press,Smoke Comp,Smoke Meas,CO Meter,CO2 Meter,O2 Meter,Sample Mass,Ext Coeff,Start Test,Flame Verif
Chan Gain,,500,500,1,1,1,1,1,1,1,1,1.0,1.0
Offset,,0,0,0.139139,0,0,0,0,0,0,0,0.0,0.0
Gain,,1,1,25.011,13.0826,14.7555,1,1,1,1.00088,1.03743,1.0,1.0
Units,sec,C,C,Pa,%,%,%,%,%,g,/m,,
Baseline,,65.425,67.7066,136.305,99.6119,105.93,-0.00112376,0.0484269,20.9905,-451.488,-0.559613,,
8,1.75,63.183,65.3038,132.928,99.8485,106.153,-0.000845942,0.0546643,20.9864,199.075,-0.557147,0.0,0.0
16,3.75,62.8538,65.4764,136.951,99.8549,106.508,-0.000964898,0.0535558,20.987,199.025,-0.587011,0.0,0.0
24,5.75,63.2058,65.3073,135.609,99.8665,105.597,-0.00100575,0.0522861,20.9896,198.995,-0.507785,0.0,0.0
32,7.75,63.783,65.7095,132.996,99.878,105.646,-0.00101163,0.0513778,20.9912,198.915,-0.510921,0.0,0.0
40,9.75,63.8266,65.6178,133.704,99.8816,105.396,-0.000788287,0.0511863,20.9911,198.865,-0.489002,0.0,0.0
48,11.75,63.7095,65.7952,133.055,99.8908,103.313,-0.000217814,0.0530464,20.9852,198.735,-0.30658,0.0,0.0
56,13.75,63.8542,65.4654,128.979,99.9056,103.804,0.000928393,0.0847947,20.9219,198.555,-0.348366,0.0,1.0
64,15.75,65.8319,66.8853,111.779,99.9016,95.5429,0.00230511,0.207437,20.7665,198.134,0.405963,0.0,1.0
72,17.75,68.4394,67.6716,113.16,99.914,94.4379,0.00376333,0.386567,20.5038,197.574,0.512958,0.0,1.0
80,19.75,72.7796,70.7248,107.446,99.9236,90.7013,0.00519136,0.567592,20.2801,197.054,0.881217,0.0,0.0
88,21.75,77.112,74.1726,104.915,99.9236,90.4117,0.00673746,0.710115,20.1201,196.563,0.910314,0.0,0.0
96,23.75,80.7617,77.6039,104.939,99.9208,87.6307,0.00771623,0.806083,20.0286,195.963,1.19438,0.0,0.0
104,25.75,84.2583,80.6903,111.052,99.9212,89.9898,0.00833116,0.864245,19.9751,195.442,0.952665,0.0,0.0
112,27.75,87.3489,84.4339,110.956,99.9136,92.5435,0.00855597,0.8833,19.9576,194.942,0.697329,0.0,0.0
120,29.75,90.061,86.9513,111.394,99.9152,91.6996,0.00855895,0.88774,19.971,194.381,0.780837,0.0,0.0
128,31.75,92.4744,88.9625,110.007,99.9172,91.2304,0.00858214,0.880178,19.9996,193.861,0.827703,0.0,0.0
136,33.75,94.3789,91.0731,110.644,99.9,91.9162,0.00857028,0.868693,20.0258,193.37,0.757985,0.0,0.0
144,35.75,96.1312,93.194,111.859,99.8896,92.475,0.00839287,0.855286,20.0478,192.83,0.701879,0.0,0.0
152,37.75,98.1141,95.4526,112.307,99.8856,91.6285,0.00814679,0.841991,20.0684,192.359,0.785209,0.0,0.0
160,39.75,99.1916,96.8923,111.423,99.8657,92.9825,0.00796033,0.826038,20.0948,191.879,0.649893,0.0,0.0
168,41.75,100.644,99.1378,113.237,99.8509,93.6494,0.00792319,0.808527,20.1177,191.389,0.58351,0.0,0.0
176,43.75,101.89,99.9158,113.323,99.8297,95.3862,0.00798758,0.7946,20.1348,190.908,0.414353,0.0,0.0
184,45.75,102.754,101.256,110.074,99.8126,94.2263,0.00804331,0.780619,20.1536,190.468,0.524134,0.0,0.0
192,47.75,103.769,102.625,112.442,99.7946,92.9794,0.00803306,0.762237,20.1753,190.037,0.643723,0.0,0.0
200,49.75,103.649,103.811,111.966,99.7599,94.8499,0.00793205,0.74618,20.1932,189.537,0.459292,0.0,0.0
208,51.75,104.767,104.998,117.335,99.7451,94.2024,0.00787869,0.733603,20.2092,189.137,0.520285,0.0,0.0
216,53.75,105.069,105.603,111.497,99.7151,94.5946,0.00786268,0.719232,20.2264,188.626,0.479741,0.0,0.0
224,55.75,105.555,106.562,113.281,99.692,94.5108,0.0076509,0.702981,20.2464,188.226,0.485689,0.0,0.0
232,57.75,106.099,107.562,114.112,99.6748,94.4694,0.00738725,0.691553,20.2629,187.805,0.488113,0.0,0.0
240,59.75,106.189,108.143,114.497,99.6453,94.9418,0.00717413,0.677278,20.2801,187.385,0.440024,0.0,0.0
248,61.75,106.499,108.784,112.332,99.6157,95.4966,0.006918,0.664353,20.2948,186.995,0.384304,0.0,0.0
256,63.75,107.704,109.45,117.502,99.5818,96.0356,0.00656412,0.65362,20.3062,186.584,0.329983,0.0,0.0
264,65.75,106.37,109.672,109.295,99.5734,96.3314,0.00615704,0.643426,20.3197,186.244,0.301226,0.0,0.0
272,67.75,107.184,109.635,118.904,99.5558,96.7227,0.00591779,0.632313,20.3327,185.874,0.262729,0.0,0.0
280,69.75,107.286,110.894,117.644,99.5199,97.006,0.00576342,0.623968,20.3403,185.473,0.232833,0.0,0.0
288,71.75,107.152,109.844,115.886,99.5099,96.6565,0.00559633,0.616858,20.3497,185.083,0.264761,0.0,0.0
296,73.75,107.464,111.715,116.28,99.464,96.154,0.00546989,0.608879,20.3587,184.693,0.307999,0.0,0.0
304,75.75,106.85,111.764,114.248,99.4796,96.1932,0.00517741,0.600428,20.3673,184.342,0.305716,0.0,0.0
312,77.75,107.456,112.063,114.344,99.4309,97.0686,0.00495266,0.591547,20.3772,183.942,0.218818,0.0,0.0
320,79.75,107.281,112.282,116.685,99.4081,96.7331,0.00486508,0.583335,20.3866,183.552,0.248241,0.0,0.0
328,81.75,106.769,112.594,116.695,99.373,97.7039,0.0048111,0.575467,20.3982,183.181,0.154145,0.0,0.0
336,83.75,107.197,112.533,116.82,99.343,97.0582,0.00469884,0.566782,20.4078,182.821,0.211746,0.0,0.0
344,85.75,106.831,112.612,116.137,99.3267,96.9069,0.0045639,0.558883,20.4153,182.451,0.224444,0.0,0.0
352,87.75,106.718,112.799,116.582,99.3454,98.0295,0.00446834,0.553332,20.4199,182.1,0.121348,0.0,0.0
360,89.75,106.865,112.93,120.927,99.3973,97.5342,0.00434034,0.549195,20.423,181.72,0.1722,0.0,0.0
368,91.75,106.669,112.761,119.997,99.4772,98.1502,0.00428523,0.54472,20.4291,181.4,0.122212,0.0,0.0
376,93.75,106.787,113.114,116.091,99.5219,98.1979,0.00441155,0.538443,20.4367,180.999,0.121878,0.0,0.0
384,95.75,106.229,112.64,118.583,99.579,98.8981,0.0044798,0.533527,20.4414,180.659,0.0624359,0.0,0.0
392,97.75,106.092,112.819,120.963,99.6429,98.6401,0.00437596,0.52982,20.4459,180.309,0.0920448,0.0,0.0
400,99.75,105.987,113.103,115.039,99.684,97.8156,0.00402555,0.525445,20.451,179.948,0.172187,0.0,0.0
408,101.75,106.1,112.935,121.131,99.7267,98.9936,0.00379479,0.521337,20.4558,179.618,0.0671452,0.0,0.0
416,103.75,105.975,112.931,117.517,99.775,98.687,0.00366875,0.517698,20.4594,179.278,0.0997867,0.0,0.0
424,105.75,105.576,112.909,124.181,99.8377,98.8837,0.0035724,0.515236,20.4628,178.928,0.0873742,0.0,0.0
432,107.75,105.943,112.889,120.355,99.8948,99.2165,0.00356083,0.512244,20.4672,178.557,0.0620028,0.0,0.0
440,109.75,105.916,112.926,119.059,99.9419,98.3272,0.00359263,0.509467,20.4694,178.247,0.148235,0.0,0.0
448,111.75,104.824,112.67,117.951,99.981,99.1701,0.00356673,0.506516,20.4736,177.917,0.0741109,0.0,0.0
456,113.75,105.308,113.299,120.792,99.9914,99.5065,0.0034597,0.502239,20.4787,177.566,0.0442405,0.0,0.0
464,115.75,105.442,113.088,114.74,99.9918,99.606,0.00328656,0.49807,20.4825,177.206,0.0351805,0.0,0.0
472,117.75,105.08,113.345,118.363,99.9659,98.9513,0.00310591,0.495456,20.485,176.926,0.0928341,0.0,0.0
480,119.75,104.931,112.338,118.675,99.9216,98.9783,0.0029827,0.493913,20.4865,176.586,0.0863147,0.0,0.0
488,121.75,104.401,112.289,122.348,99.8597,99.642,0.00302197,0.492098,20.4888,176.265,0.0198548,0.0,0.0
496,123.75,104.96,112.453,116.276,99.773,99.8987,0.00303924,0.48978,20.4911,175.945,-0.0114561,0.0,0.0
504,125.75,104.224,112.303,119.967,99.6664,99.3782,0.0029418,0.489441,20.4921,175.625,0.0263592,0.0,0.0
512,127.75,104.478,112.45,118.417,99.6185,99.4034,0.00283497,0.488693,20.4942,175.284,0.0196751,0.0,0.0
520,129.75,104.331,112.465,122.247,99.6856,99.2674,0.00288697,0.486806,20.4961,174.974,0.0382588,0.0,0.0
528,131.75,104.231,112.314,117.512,99.7435,99.9487,0.0030445,0.484984,20.4988,174.604,-0.0187034,0.0,0.0
536,133.75,104.408,112.404,118.035,99.8357,98.9328,0.00305056,0.48281,20.502,174.334,0.0826765,0.0,0.0
544,135.75,104.069,112.099,116.563,99.9307,98.9315,0.00292228,0.480849,20.5034,174.043,0.0914585,0.0,0.0
552,137.75,103.99,111.895,117.857,100.017,99.8204,0.00284893,0.480093,20.504,173.673,0.0179429,0.0,0.0
560,139.75,103.958,111.822,119.143,100.108,99.8078,0.00282537,0.480556,20.5042,173.393,0.0273716,0.0,0.0
568,141.75,104.068,111.792,123.235,100.205,99.9856,0.00277177,0.479424,20.5046,173.032,0.0199468,0.0,0.0
576,143.75,103.403,111.96,117.389,100.305,100.592,0.00263341,0.478112,20.5051,172.752,-0.0259554,0.0,0.0
584,145.75,103.549,112.02,119.761,100.376,100.804,0.00264454,0.47683,20.5057,172.502,-0.0387499,0.0,0.0
592,147.75,103.793,111.444,116.6,100.445,100.442,0.00268291,0.475429,20.5073,172.132,0.000285308,0.0,0.0
600,149.75,103.603,111.322,118.552,100.492,100.17,0.00267069,0.473407,20.5099,171.871,0.029155,0.0,0.0
608,151.75,103.325,111.637,115.674,100.518,100.306,0.00269671,0.46976,20.513,171.511,0.0192724,0.0,0.0
616,153.75,103.389,111.479,122.689,100.518,100.217,0.00269167,0.466403,20.5172,171.241,0.0272873,0.0,0.0
624,155.75,103.079,111.079,120.645,100.476,100.199,0.00264593,0.462795,20.5195,170.87,0.0251682,0.0,0.0
632,157.75,102.877,111.343,119.016,100.423,100.636,0.00260112,0.462956,20.5179,170.58,-0.0192714,0.0,0.0
640,159.75,103.19,110.889,113.508,100.34,99.7803,0.00251198,0.46459,20.5174,170.26,0.050938,0.0,0.0
648,161.75,103.469,111.216,121.63,100.218,100.168,0.00242691,0.463142,20.5191,169.95,0.00448254,0.0,0.0
656,163.75,103.046,111.171,118.6,100.084,100.153,0.00238475,0.459527,20.5228,169.619,-0.00624323,0.0,0.0
664,165.75,103.136,110.91,124.845,99.9263,100.365,0.00233947,0.456211,20.5272,169.289,-0.0398405,0.0,0.0
672,167.75,103.183,110.776,118.323,99.7658,99.7758,0.00225497,0.455601,20.5294,168.959,-0.000905887,0.0,0.0
680,169.75,102.658,110.931,119.89,99.595,99.6182,0.00220144,0.456403,20.5291,168.669,-0.00212057,0.0,0.0
688,171.75,103.195,110.915,118.641,99.4253,99.9046,0.00220553,0.456924,20.5299,168.338,-0.0437634,0.0,0.0
696,173.75,102.607,110.609,119.868,99.2692,98.9873,0.00217026,0.455744,20.5318,168.028,0.0258767,0.0,0.0
704,175.75,102.928,110.613,117.693,99.1378,99.7744,0.00213654,0.453408,20.5349,167.708,-0.0582499,0.0,0.0
712,177.75,102.25,109.99,122.772,99.0248,99.2498,0.00213259,0.451238,20.5365,167.417,-0.0206533,0.0,0.0
720,179.75,102.529,110.303,121.087,98.9554,99.1165,0.00216153,0.452172,20.5353,167.107,-0.0148098,0.0,0.0
728,181.75,102.929,109.947,119.065,98.9166,99.3084,0.0022047,0.453665,20.5342,166.797,-0.0359673,0.0,0.0
736,183.75,102.32,110.345,123.024,98.9262,98.6154,0.00218918,0.453399,20.5342,166.527,0.0286424,0.0,0.0
744,185.75,102.971,110.22,123.499,98.9422,99.4439,0.00214343,0.451991,20.5362,166.146,-0.0460283,0.0,0.0
752,187.75,102.876,110.048,119.394,98.9929,99.6583,0.00208955,0.449852,20.5381,165.906,-0.0609613,0.0,0.0
760,189.75,102.681,110.218,121.722,99.0584,98.8626,0.00206412,0.447888,20.5402,165.616,0.0180068,0.0,0.0
768,191.75,102.219,109.973,117.05,99.1418,100.152,0.00218522,0.445718,20.5427,165.346,-0.0922363,0.0,0.0
776,193.75,102.288,110.259,120.014,99.2249,99.864,0.00231881,0.445171,20.5438,165.045,-0.0584333,0.0,0.0
784,195.75,102.604,109.677,120.688,99.3211,100.866,0.00230534,0.44573,20.5443,164.745,-0.140501,0.0,0.0
792,197.75,102.36,109.597,116.713,99.4105,100.492,0.00217649,0.445593,20.5456,164.435,-0.0984866,0.0,0.0
800,199.75,102.409,109.689,119.539,99.4984,100.658,0.00207596,0.444441,20.5466,164.105,-0.105484,0.0,0.0
808,201.75,102.308,109.523,122.146,99.5798,100.43,0.00206504,0.443416,20.5481,163.744,-0.0773739,0.0,0.0
816,203.75,102.108,109.465,115.821,99.6596,100.093,0.00205519,0.442491,20.5474,163.554,-0.0394668,0.0,0.0
824,205.75,101.879,109.523,117.594,99.7259,99.6596,0.00191122,0.443621,20.5472,163.244,0.00605356,0.0,0.0
832,207.75,102.046,109.276,122.595,99.803,100.453,0.00174591,0.443912,20.547,162.943,-0.0591229,0.0,0.0
840,209.75,102.28,109.503,115.27,99.8573,100.69,0.00164528,0.442699,20.5479,162.633,-0.0755644,0.0,0.0
848,211.75,102.138,109.49,120.164,99.9279,100.815,0.00162539,0.441833,20.5487,162.273,-0.0803925,0.0,0.0
856,213.75,101.649,109.101,120.741,99.9751,100.399,0.00172225,0.441857,20.5493,162.023,-0.038508,0.0,0.0
864,215.75,101.835,109.163,121.119,99.9978,100.908,0.00182479,0.442482,20.5482,161.742,-0.0824837,0.0,0.0
872,217.75,101.925,108.93,118.401,100.025,100.866,0.00179543,0.44328,20.547,161.462,-0.0761901,0.0,0.0
880,219.75,102.242,109.223,123.834,100.06,101.082,0.00170748,0.442808,20.5484,161.182,-0.0924785,0.0,0.0
888,221.75,101.889,109.263,118.846,100.059,100.888,0.0016386,0.440657,20.551,160.822,-0.0750941,0.0,0.0
896,223.75,101.699,108.809,119.595,100.082,101.493,0.00165784,0.43935,20.5522,160.531,-0.127456,0.0,0.0
904,225.75,101.567,108.762,120.547,100.09,101.444,0.00176766,0.439539,20.5509,160.291,-0.122288,0.0,0.0
912,227.75,101.9,108.771,122.26,100.088,101.102,0.00182626,0.439417,20.5503,159.981,-0.0917612,0.0,0.0
920,229.75,101.658,108.573,117.352,100.076,100.858,0.0017691,0.439347,20.5501,159.661,-0.070851,0.0,0.0
928,231.75,101.723,108.527,118.876,100.065,101.083,0.00175497,0.438822,20.5511,159.38,-0.0920834,0.0,0.0
936,233.75,101.881,108.166,120.291,100.052,101.555,0.00189141,0.436377,20.5539,159.05,-0.135713,0.0,0.0
944,235.75,100.9,108.085,119.42,100.051,100.9,0.0021066,0.43388,20.5556,158.76,-0.0769209,0.0,0.0
952,237.75,101.131,108.265,120.081,100.032,101.645,0.00229911,0.434481,20.5558,158.46,-0.145555,0.0,0.0
960,239.75,101.476,108.3,120.738,100.024,100.747,0.00227713,0.437437,20.5522,158.159,-0.0655314,0.0,0.0
968,241.75,101.349,108.181,125.044,100.008,101.146,0.00218049,0.438912,20.5504,157.879,-0.102951,0.0,0.0
976,243.75,101.02,107.841,121.953,99.993,101.242,0.00213399,0.439404,20.5507,157.559,-0.113002,0.0,0.0
984,245.75,101.314,108.394,118.888,99.9986,101.541,0.00207514,0.437505,20.5546,157.279,-0.13933,0.0,0.0
992,247.75,101.263,107.785,121.299,99.9958,101.341,0.00197131,0.433756,20.558,156.898,-0.121567,0.0,0.0
1000,249.75,100.997,107.674,119.39,99.993,101.246,0.00189836,0.432855,20.5595,156.608,-0.113285,0.0,0.0
1008,251.75,101.406,107.586,125.705,99.991,101.022,0.00183372,0.432271,20.5596,156.328,-0.0933689,0.0,0.0
1016,253.75,100.719,107.379,117.817,99.9958,101.535,0.00174037,0.433608,20.5566,156.047,-0.139019,0.0,0.0
1024,255.75,101.28,107.412,118.189,99.9918,101.559,0.00171155,0.435592,20.555,155.767,-0.141562,0.0,0.0
1032,257.75,101.42,107.942,120.23,100.004,100.636,0.00175321,0.435655,20.5561,155.447,-0.0573399,0.0,0.0
1040,259.75,101.293,107.244,117.71,100.004,101.409,0.00185727,0.434801,20.5575,155.257,-0.126945,0.0,0.0
1048,261.75,101.24,107.743,124.767,100.011,101.835,0.00193232,0.43369,20.5582,154.916,-0.164478,0.0,0.0
1056,263.75,101.258,107.675,121.209,100.017,101.685,0.00179275,0.43282,20.5596,154.596,-0.150487,0.0,0.0
1064,265.75,100.97,107.465,122.585,100.017,101.645,0.00163721,0.431624,20.5608,154.246,-0.146859,0.0,0.0
1072,267.75,100.675,107.336,123.638,100.033,101.337,0.00152371,0.428313,20.5629,153.896,-0.117788,0.0,0.0
1080,269.75,101.341,107.562,120.926,100.033,101.846,0.00143224,0.427138,20.564,153.705,-0.16341,0.0,0.0
1088,271.75,101.202,107.608,124.751,100.043,102.027,0.00140198,0.426924,20.5645,153.385,-0.178703,0.0,0.0
1096,273.75,100.656,107.173,118.16,100.052,100.683,0.00141285,0.425046,20.5653,153.145,-0.0572111,0.0,0.0
1104,275.75,101.349,106.9,124.472,100.04,101.644,0.00143731,0.424157,20.5664,152.845,-0.144745,0.0,0.0
1112,277.75,101.259,107.735,124.404,100.054,101.869,0.00163248,0.423273,20.5679,152.484,-0.163573,0.0,0.0
1120,279.75,100.94,106.955,119.167,100.047,100.707,0.00192543,0.421623,20.5693,152.164,-0.0598807,0.0,0.0
1128,281.75,100.762,106.947,121.194,100.033,100.961,0.00207388,0.421859,20.5699,151.984,-0.0840405,0.0,0.0
1136,283.75,100.516,107.079,120.544,100.023,101.459,0.00203209,0.422769,20.5705,151.704,-0.129648,0.0,0.0
1144,285.75,100.892,106.588,119.819,100.025,101.649,0.00189808,0.421298,20.572,151.423,-0.146496,0.0,0.0
1152,287.75,100.729,106.72,118.339,99.991,101.462,0.0018734,0.418341,20.5741,151.113,-0.132914,0.0,0.0
1160,289.75,100.677,106.655,119.76,99.9727,101.667,0.0018647,0.41749,20.5749,150.803,-0.152904,0.0,0.0
1168,291.75,100.628,106.956,119.777,99.9535,101.871,0.00181384,0.418285,20.574,150.583,-0.17297,0.0,0.0
1176,293.75,100.433,106.773,125.881,99.9256,101.131,0.00168533,0.418052,20.5736,150.352,-0.109101,0.0,0.0
1184,295.75,100.443,106.801,120,99.8984,101.391,0.00155744,0.418064,20.5734,150.012,-0.134924,0.0,0.0
1192,297.75,100.804,106.534,123.679,99.8289,101.975,0.00153761,0.416904,20.5749,149.622,-0.193565,0.0,0.0
1200,299.75,100.192,106.714,120.393,99.7902,101.267,0.00161159,0.414141,20.579,149.412,-0.133704,0.0,0.0
1208,301.75,99.9186,106.452,119.947,99.7319,101.852,0.00165003,0.411139,20.5805,149.191,-0.191437,0.0,0.0
1216,303.75,99.5399,105.981,121.009,99.6868,101.165,0.0015396,0.412643,20.58,148.771,-0.133909,0.0,0.0
1224,305.75,99.0218,106.366,122.952,99.6061,101.752,0.00138884,0.414288,20.5792,148.611,-0.193983,0.0,0.0
1232,307.75,100.371,106.325,120.435,99.5451,101.372,0.00134113,0.414672,20.5779,148.261,-0.165512,0.0,0.0
1240,309.75,99.8711,106.179,121.446,99.468,101.196,0.00127245,0.41628,20.5764,148.06,-0.15678,0.0,0.0
1248,311.75,99.8487,106.335,121.027,99.3818,101.239,0.00118402,0.416206,20.5764,147.73,-0.16852,0.0,0.0
1256,313.75,100.138,105.924,118.673,99.3123,101.261,0.0011924,0.415016,20.5783,147.43,-0.176866,0.0,0.0
1264,315.75,100.396,106.285,120.951,99.2408,101.638,0.00128376,0.41355,20.5805,147.13,-0.217186,0.0,0.0
1272,317.75,100.375,106.236,121.51,99.1494,101.101,0.00131856,0.411905,20.5815,146.829,-0.177346,0.0,0.0
1280,319.75,100.207,106.12,119.533,99.0899,100.651,0.00132148,0.411026,20.5819,146.579,-0.142265,0.0,0.0
1288,321.75,100.065,105.945,117.258,99.0284,101.35,0.00135217,0.411938,20.5826,146.399,-0.210883,0.0,0.0
1296,323.75,99.9075,105.952,121.503,98.9646,101.156,0.00132553,0.411516,20.5829,145.999,-0.199353,0.0,0.0
1304,325.75,100.016,105.793,120.401,98.929,100.428,0.00122492,0.410629,20.583,145.718,-0.136878,0.0,0.0
1312,327.75,99.8438,105.972,117.052,98.9011,100.385,0.00115205,0.411102,20.5818,145.358,-0.135491,0.0,0.0
1320,329.75,99.8946,105.546,119.829,98.8611,100.662,0.00121787,0.413595,20.5792,145.118,-0.164237,0.0,0.0
1328,331.75,99.7423,105.586,118.272,98.8492,100.55,0.00129696,0.415631,20.5771,144.868,-0.155278,0.0,0.0
1336,333.75,99.7464,105.6,123.367,98.838,100.535,0.00135286,0.416775,20.5756,144.637,-0.154963,0.0,0.0
1344,335.75,99.965,105.975,119.102,98.8472,100.573,0.0013487,0.417579,20.5744,144.417,-0.157499,0.0,0.0
1352,337.75,100.253,106.118,120.819,98.8615,101.111,0.00125372,0.418103,20.5738,144.027,-0.204778,0.0,0.0
1360,339.75,100.229,106.003,122.658,98.8995,100.499,0.00116182,0.418498,20.5735,143.777,-0.14596,0.0,0.0
1368,341.75,100.392,105.826,123.705,98.9278,100.737,0.00123274,0.417913,20.5745,143.456,-0.164937,0.0,0.0
1376,343.75,100.338,105.815,119.677,98.9813,100.792,0.00136682,0.417098,20.5746,143.166,-0.164979,0.0,0.0
1384,345.75,100.045,105.698,119.181,99.0224,100.365,0.00143322,0.417347,20.5742,142.936,-0.122533,0.0,0.0
1392,347.75,100.497,105.907,118.194,99.0839,100.602,0.00146127,0.418001,20.5733,142.606,-0.138377,0.0,0.0
1400,349.75,99.8841,105.814,119.759,99.1382,101.504,0.00143291,0.418258,20.5728,142.375,-0.214577,0.0,0.0
1408,351.75,100.211,105.503,119.801,99.2113,100.407,0.00141869,0.419688,20.5717,142.095,-0.109032,0.0,0.0
1416,353.75,100.113,105.841,120.408,99.2556,100.51,0.00152998,0.421394,20.572,141.765,-0.114268,0.0,0.0
1424,355.75,99.994,105.546,121.622,99.2943,100.71,0.00168515,0.419169,20.5722,141.505,-0.128844,0.0,0.0
1432,357.75,100.195,105.108,123.665,99.357,100.607,0.00171476,0.418659,20.5722,141.234,-0.113737,0.0,0.0
1440,359.75,100.27,105.645,120.4,99.4205,101.599,0.00160936,0.421017,20.5698,141.034,-0.197218,0.0,0.0
1448,361.75,100.386,105.866,118.697,99.4752,101.541,0.00141557,0.423564,20.5686,140.774,-0.187048,0.0,0.0
1456,363.75,100.28,106.099,119.42,99.5479,101.985,0.00138852,0.422702,20.568,140.524,-0.220068,0.0,0.0
1464,365.75,99.7445,105.494,122.393,99.6169,101.53,0.0014724,0.420803,20.5678,140.183,-0.173082,0.0,0.0
1472,367.75,100.367,105.012,124.214,99.6692,101.329,0.00150636,0.424035,20.5655,139.923,-0.150286,0.0,0.0
1480,369.75,100.334,106.1,118.866,99.7223,101.475,0.0015459,0.426616,20.5645,139.623,-0.158573,0.0,0.0
1488,371.75,99.7212,105.823,125.645,99.7802,101.344,0.00165674,0.425094,20.5663,139.353,-0.141533,0.0,0.0
1496,373.75,100.373,105.611,117.069,99.8253,101.586,0.00181347,0.423721,20.5674,139.042,-0.159147,0.0,0.0
1504,375.75,99.9621,105.408,115.335,99.8776,101.106,0.00191012,0.424987,20.5664,138.762,-0.111196,0.0,0.0
1512,377.75,100.105,105.571,121.778,99.9088,101.4,0.00182685,0.427556,20.5628,138.482,-0.134827,0.0,0.0
1520,379.75,99.9947,105.678,120.106,99.9587,101.613,0.00165179,0.429866,20.5599,138.182,-0.149378,0.0,0.0
1528,381.75,100.645,106.26,118.801,100.011,100.987,0.00149865,0.430719,20.5587,138.042,-0.0883522,0.0,0.0
1536,383.75,100.788,106.05,116.794,100.054,101.807,0.00144742,0.430002,20.5592,137.591,-0.158097,0.0,0.0
1544,385.75,100.561,106.179,122.038,100.093,102.227,0.00146984,0.429385,20.5592,137.301,-0.19198,0.0,0.0
1552,387.75,100.566,106.027,120.171,100.116,101.632,0.00151387,0.432332,20.557,137.111,-0.136762,0.0,0.0
1560,389.75,100.729,105.998,119.167,100.133,101.655,0.00153533,0.433559,20.5561,136.8,-0.137334,0.0,0.0
1568,391.75,100.544,105.969,128.504,100.166,101.457,0.00155229,0.431867,20.5557,136.51,-0.116569,0.0,0.0
1576,393.75,100.938,106.162,120.924,100.171,101.783,0.00167655,0.431739,20.5555,136.2,-0.145289,0.0,0.0
1584,395.75,101.148,106.429,117.524,100.191,101.332,0.00178434,0.433713,20.5555,135.92,-0.10309,0.0,0.0
1592,397.75,100.646,105.895,124.202,100.19,101.392,0.00183891,0.433226,20.5554,135.619,-0.108497,0.0,0.0
1600,399.75,100.572,106.169,119.681,100.21,101.807,0.00195257,0.434664,20.5536,135.319,-0.143833,0.0,0.0
1608,401.75,101.142,106.456,123.743,100.215,101.356,0.00201328,0.437248,20.552,135.039,-0.103093,0.0,0.0
1616,403.75,101.331,106.419,121.241,100.227,101.332,0.0019053,0.437833,20.5507,134.749,-0.0997813,0.0,0.0
1624,405.75,100.74,106.178,116.269,100.227,101.351,0.00172822,0.439618,20.5464,134.488,-0.101561,0.0,0.0
1632,407.75,101.421,106.471,121.116,100.243,101.17,0.00167574,0.443639,20.5405,134.238,-0.0837662,0.0,0.0
1640,409.75,101.442,106.789,114.128,100.247,101.216,0.00172273,0.44606,20.538,133.948,-0.0875334,0.0,0.0
1648,411.75,101.305,106.271,124.711,100.245,101.954,0.00179366,0.446938,20.5378,133.638,-0.153832,0.0,0.0
1656,413.75,101.365,106.79,117.54,100.253,101.372,0.00180468,0.446311,20.5387,133.327,-0.100987,0.0,0.0
1664,415.75,101.659,106.969,119.263,100.259,101.473,0.0016995,0.445609,20.5395,133.007,-0.109494,0.0,0.0
1672,417.75,102.037,106.614,121.25,100.256,101.234,0.0016946,0.446406,20.5378,132.767,-0.0883199,0.0,0.0
1680,419.75,101.568,106.933,118.933,100.253,101.968,0.00181575,0.447513,20.5363,132.487,-0.154389,0.0,0.0
1688,421.75,101.887,106.893,121.368,100.265,101.135,0.00186976,0.448864,20.5357,132.186,-0.0786524,0.0,0.0
1696,423.75,101.641,106.898,116.672,100.271,101.501,0.00185196,0.450164,20.5378,131.886,-0.111028,0.0,0.0
1704,425.75,102.133,107.616,116.173,100.259,100.903,0.00192295,0.449242,20.538,131.606,-0.0583012,0.0,0.0
1712,427.75,101.757,106.993,115.882,100.272,101.015,0.00201414,0.449719,20.5372,131.346,-0.0672121,0.0,0.0
1720,429.75,102.239,107.182,118.212,100.282,101.585,0.00199482,0.451933,20.5355,131.055,-0.117407,0.0,0.0
1728,431.75,102.015,107.291,121.098,100.261,101.613,0.00189569,0.453621,20.535,130.795,-0.121868,0.0,0.0
1736,433.75,102.145,107.323,122.25,100.269,100.812,0.00179325,0.452514,20.5359,130.525,-0.049187,0.0,0.0
1744,435.75,102.105,107.364,121.542,100.272,101.509,0.00173164,0.453128,20.5354,130.235,-0.111573,0.0,0.0
1752,437.75,102.527,107.671,118.333,100.255,101.248,0.00171275,0.455545,20.5325,129.954,-0.089646,0.0,0.0
1760,439.75,102.239,107.57,118.338,100.256,101.078,0.00169584,0.458003,20.5295,129.664,-0.0743027,0.0,0.0
1768,441.75,102.295,107.793,122.217,100.261,101.34,0.00167581,0.458667,20.5272,129.374,-0.0973961,0.0,0.0
1776,443.75,102.612,107.539,119.645,100.263,100.841,0.00166156,0.460028,20.5259,129.074,-0.0523315,0.0,0.0
1784,445.75,102.81,108.166,118.081,100.268,100.98,0.0016463,0.461803,20.5232,128.763,-0.0644136,0.0,0.0
1792,447.75,102.871,107.829,120.115,100.256,101.212,0.00166866,0.463581,20.5199,128.483,-0.0863363,0.0,0.0
1800,449.75,102.92,108.081,116.721,100.244,100.923,0.0017155,0.465658,20.5178,128.183,-0.0613927,0.0,0.0
1808,451.75,103.167,108.327,120.063,100.229,100.409,0.00183583,0.466283,20.5164,127.903,-0.0163263,0.0,0.0
1816,453.75,103.304,108.373,119.632,100.221,101.534,0.00206579,0.467091,20.5152,127.562,-0.118464,0.0,0.0
1824,455.75,103.464,108.627,119.21,100.212,100.996,0.00225849,0.468176,20.5128,127.322,-0.0708679,0.0,0.0
1832,457.75,103.346,108.561,124.101,100.191,101.033,0.00228169,0.470386,20.5116,127.032,-0.0760797,0.0,0.0
1840,459.75,103.64,109.289,117.816,100.175,100.331,0.00222477,0.471079,20.5094,126.752,-0.0140769,0.0,0.0
1848,461.75,104.151,108.664,115.725,100.168,99.6875,0.00221112,0.473367,20.5064,126.441,0.0437472,0.0,0.0
1856,463.75,103.65,109.405,119.768,100.156,100.799,0.00231452,0.476676,20.5034,126.161,-0.0583094,0.0,0.0
1864,465.75,104.294,109.776,118.084,100.135,100.665,0.00246697,0.478579,20.5008,125.821,-0.0480325,0.0,0.0
1872,467.75,104.331,109.637,117.446,100.115,100.175,0.00253655,0.48018,20.4997,125.571,-0.00545296,0.0,0.0
1880,469.75,104.475,109.748,121.462,100.086,100.47,0.00247306,0.481586,20.4996,125.26,-0.0348167,0.0,0.0
1888,471.75,104.562,110.033,117.029,100.062,100.019,0.00239238,0.483428,20.4979,124.96,0.00392085,0.0,0.0
1896,473.75,104.708,110.128,119.072,100.026,100.12,0.0023639,0.48542,20.4949,124.67,-0.00859328,0.0,0.0
1904,475.75,104.876,110.34,119.016,99.9994,99.7321,0.00243652,0.486824,20.4931,124.37,0.0243589,0.0,0.0
1912,477.75,104.893,110.307,117.17,99.9759,99.8586,0.00261598,0.489024,20.4916,124.049,0.0106762,0.0,0.0
1920,479.75,105.256,110.222,118.707,99.9295,99.334,0.00278691,0.490362,20.4897,123.729,0.0543926,0.0,0.0
1928,481.75,105.228,110.605,120.273,99.886,99.1809,0.00274175,0.492383,20.4867,123.399,0.0644666,0.0,0.0
1936,483.75,105.291,110.886,113.57,99.8385,99.5488,0.00268054,0.495724,20.4824,123.118,0.0264436,0.0,0.0
1944,485.75,105.54,110.687,119.416,99.7942,99.8343,0.0026155,0.49842,20.4793,122.848,-0.00365827,0.0,0.0
1952,487.75,105.598,110.962,116.667,99.7427,99.2886,0.00248974,0.501446,20.4753,122.548,0.0415293,0.0,0.0
1960,489.75,105.577,111.3,115.712,99.6956,99.4943,0.0023753,0.505474,20.4704,122.228,0.0183868,0.0,0.0
1968,491.75,106.154,111.443,119.362,99.6489,99.3142,0.00244941,0.508498,20.4681,121.907,0.0306125,0.0,0.0
1976,493.75,106.143,111.626,115.261,99.5946,97.8485,0.00276946,0.509961,20.4676,121.587,0.160961,0.0,0.0
1984,495.75,106.242,111.47,119.721,99.5483,98.9022,0.00309387,0.511935,20.4656,121.307,0.0592527,0.0,0.0
1992,497.75,106.209,112.034,115.683,99.5031,99.0693,0.00330512,0.514436,20.4627,120.947,0.0397689,0.0,0.0
2000,499.75,106.55,111.995,119.469,99.4692,96.8484,0.00353089,0.517505,20.4599,120.646,0.242993,0.0,0.0
2008,501.75,106.877,111.515,118.63,99.4053,98.0835,0.00371476,0.521191,20.4554,120.316,0.121818,0.0,0.0
2016,503.75,106.569,112.307,118.774,99.3626,97.8787,0.00382647,0.524514,20.4513,119.996,0.136936,0.0,0.0
2024,505.75,107.077,112.688,114.188,99.3203,97.7413,0.00380565,0.528397,20.446,119.675,0.145837,0.0,0.0
2032,507.75,107.298,112.812,118.841,99.2784,98.1295,0.00366273,0.533288,20.4394,119.365,0.105927,0.0,0.0
2040,509.75,107.064,112.908,116.288,99.2392,97.531,0.00349923,0.537414,20.4343,119.085,0.158008,0.0,0.0
2048,511.75,107.61,113.095,118.968,99.1953,97.2172,0.00330247,0.541165,20.4312,118.725,0.183313,0.0,0.0
2056,513.75,107.798,113.299,120.764,99.1726,97.8764,0.00316785,0.54414,20.428,118.434,0.119723,0.0,0.0
2064,515.75,108.154,113.132,118.288,99.1227,97.2001,0.00324747,0.547262,20.423,118.094,0.178246,0.0,0.0
2072,517.75,108.107,113.648,118.62,99.1127,97.246,0.00344252,0.551645,20.4164,117.774,0.173031,0.0,0.0
2080,519.75,108.184,113.945,119.142,99.068,96.7682,0.00361846,0.555635,20.4115,117.393,0.213744,0.0,0.0
2088,521.75,108.659,114.105,115.86,99.048,97.2996,0.00369422,0.559816,20.4056,117.093,0.162076,0.0,0.0
2096,523.75,108.921,114.371,116.19,99.0113,96.6601,0.0037362,0.563769,20.4004,116.753,0.218704,0.0,0.0
2104,525.75,109.225,114.317,114.822,98.9845,96.3148,0.00378292,0.567213,20.397,116.382,0.24882,0.0,0.0
2112,527.75,109.267,114.549,117.906,98.9666,96.9686,0.00388813,0.572058,20.3901,116.062,0.185598,0.0,0.0
2120,529.75,109.589,115.276,112.083,98.9526,96.6462,0.00397031,0.578322,20.3829,115.742,0.214622,0.0,0.0
2128,531.75,109.841,115.567,111.836,98.9482,96.344,0.00402806,0.584704,20.3741,115.392,0.242713,0.0,0.0
2136,533.75,110.315,116.102,113.647,98.9262,96.766,0.00418771,0.590091,20.3687,115.061,0.200926,0.0,0.0
2144,535.75,110.854,116.156,118.391,98.9178,96.4372,0.00443981,0.594272,20.3643,114.681,0.231121,0.0,0.0
2152,537.75,111.027,115.952,116.108,98.9198,95.6307,0.00463645,0.598307,20.3603,114.301,0.30773,0.0,0.0
2160,539.75,111.146,116.669,117.701,98.9174,95.2012,0.00486455,0.602363,20.3565,113.94,0.348482,0.0,0.0
2168,541.75,111.307,116.503,114.629,98.919,95.089,0.0050326,0.606193,20.3519,113.62,0.359353,0.0,0.0
2176,543.75,111.543,117.051,113.29,98.9338,95.742,0.00518277,0.609446,20.3482,113.21,0.298438,0.0,0.0
2184,545.75,111.72,117.429,118.416,98.9538,94.9422,0.00537834,0.611184,20.3455,112.859,0.376608,0.0,0.0
2192,547.75,112.107,117.643,114.843,98.9741,95.1764,0.00548057,0.61588,20.3394,112.529,0.356064,0.0,0.0
2200,549.75,112.525,118.183,116.231,99.0089,95.0427,0.00543261,0.621572,20.3323,112.179,0.372053,0.0,0.0
2208,551.75,112.636,118.37,113.454,99.0388,94.414,0.00531705,0.626587,20.3252,111.778,0.435196,0.0,0.0
2216,553.75,112.96,118.635,113.156,99.0747,94.2816,0.00520265,0.632853,20.3177,111.368,0.451266,0.0,0.0
2224,555.75,113.32,119.285,113.261,99.135,94.3956,0.00506704,0.636919,20.3131,111.048,0.445813,0.0,0.0
2232,557.75,113.6,119.297,114.571,99.1841,93.8858,0.00495319,0.641567,20.3079,110.687,0.499595,0.0,0.0
2240,559.75,113.734,119.937,116.936,99.246,93.812,0.00491876,0.646215,20.3038,110.297,0.512432,0.0,0.0
2248,561.75,114.18,119.981,112.917,99.3123,94.5167,0.00504044,0.650503,20.2973,109.917,0.4504,0.0,0.0
2256,563.75,114.113,120.143,117.711,99.3925,93.7624,0.00509996,0.654915,20.2906,109.526,0.530663,0.0,0.0
2264,565.75,115.028,120.687,117.527,99.4716,94.2681,0.00517155,0.662166,20.2806,109.146,0.488949,0.0,0.0
2272,567.75,115.361,121.407,108.167,99.5391,93.871,0.00535683,0.667546,20.274,108.756,0.533543,0.0,0.0
2280,569.75,115.446,120.686,107.48,99.6413,92.7105,0.0055516,0.671772,20.2698,108.355,0.656081,0.0,0.0
2288,571.75,115.617,121.436,115.893,99.7044,95.0737,0.00561592,0.678461,20.2601,107.975,0.432781,0.0,0.0
2296,573.75,116.021,122.016,110.429,99.7786,95.0377,0.00561169,0.684671,20.2542,107.575,0.443005,0.0,0.0
2304,575.75,116.013,122.344,114.064,99.8764,94.1925,0.00551736,0.690043,20.2472,107.214,0.533218,0.0,0.0
2312,577.75,116.49,122.328,114.526,99.9327,94.4631,0.00536837,0.695466,20.2407,106.814,0.512237,0.0,0.0
2320,579.75,116.719,122.73,116.314,99.9958,94.9769,0.00537339,0.699614,20.2348,106.424,0.468617,0.0,0.0
2328,581.75,117.622,122.827,115.247,100.036,94.12,0.00541702,0.704736,20.2297,106.023,0.554729,0.0,0.0
2336,583.75,117.627,123.588,110.044,100.08,95.1079,0.00525675,0.707452,20.2276,105.593,0.463769,0.0,0.0
2344,585.75,118.003,123.685,120.229,100.109,94.8918,0.00501634,0.708472,20.2262,105.223,0.487087,0.0,0.0
2352,587.75,118.021,124.155,109.182,100.122,93.5526,0.00486959,0.710434,20.2232,104.832,0.617595,0.0,0.0
2360,589.75,118.112,124.478,113.529,100.122,94.3289,0.00489729,0.713915,20.2187,104.452,0.542426,0.0,0.0
2368,591.75,118.617,124.662,110.94,100.106,94.0813,0.00499944,0.718242,20.2136,104.052,0.564828,0.0,0.0
2376,593.75,118.964,125.017,111.581,100.057,93.4202,0.00513195,0.720234,20.2102,103.621,0.624602,0.0,0.0
2384,595.75,119.213,125.503,112.166,100.027,93.3986,0.00530485,0.723895,20.2068,103.201,0.623947,0.0,0.0
2392,597.75,119.538,125.508,114.476,99.9563,93.096,0.00559337,0.7254,20.2037,102.831,0.647048,0.0,0.0
2400,599.75,119.722,126.114,114.636,99.8736,92.4444,0.00588043,0.72687,20.2003,102.4,0.703439,0.0,0.0
2408,601.75,120.062,126.186,111.559,99.8058,92.5228,0.00597534,0.728381,20.1978,102.02,0.689542,0.0,0.0
2416,603.75,120.003,126.518,110.124,99.7315,93.7138,0.00591285,0.730131,20.1967,101.609,0.566368,0.0,0.0
2424,605.75,120.303,126.786,115.341,99.6381,92.3561,0.00584822,0.731887,20.194,101.159,0.690642,0.0,0.0
2432,607.75,120.174,127.04,107.144,99.5395,91.7077,0.00583521,0.731647,20.1945,100.779,0.745749,0.0,0.0
2440,609.75,120.45,127.562,116.589,99.448,91.9153,0.00589712,0.729452,20.1954,100.418,0.716811,0.0,0.0
2448,611.75,121.082,127.853,111.856,99.3694,91.2525,0.00590438,0.727888,20.1958,100.038,0.775474,0.0,0.0
2456,613.75,121.064,127.876,112.439,99.3035,90.985,0.00592356,0.723237,20.201,99.6277,0.796154,0.0,0.0
2464,615.75,121.373,127.795,115.045,99.4357,91.2286,0.00593928,0.71416,20.2102,99.2374,0.783922,0.0,0.0
2472,617.75,121.058,128.282,109.725,99.5375,91.3848,0.00590045,0.703518,20.2204,98.837,0.777662,0.0,0.0
2480,619.75,121.362,128.367,114.196,99.6241,91.6294,0.00590223,0.68908,20.2393,98.4767,0.761263,0.0,0.0
2488,621.75,121.093,128.024,115.34,99.6505,92.077,0.00593218,0.668498,20.2643,98.1064,0.719324,0.0,0.0
2496,623.75,120.603,127.549,115.034,99.6796,93.7125,0.0058326,0.645727,20.287,97.8061,0.561762,0.0,0.0
2504,625.75,119.933,127.614,120.413,99.7379,93.2892,0.00556692,0.622504,20.3151,97.5259,0.608279,0.0,0.0
2512,627.75,119.78,126.976,113.97,99.8126,94.1817,0.00521372,0.593994,20.3481,97.2356,0.52844,0.0,0.0
2520,629.75,118.858,127.226,115.413,99.916,93.8178,0.00497144,0.565006,20.3786,96.9954,0.573088,0.0,0.0
2528,631.75,118.451,126.355,118.854,99.9407,95.7348,0.00464563,0.538663,20.4088,96.7452,0.391274,0.0,0.0
2536,633.75,117.449,126.039,114.442,99.9523,96.0126,0.00424279,0.51299,20.4398,96.485,0.365956,0.0,0.0
2544,635.75,117.133,125.572,119.928,99.9483,96.3238,0.00361889,0.488175,20.4715,96.2648,0.336148,0.0,0.0
2552,637.75,115.93,124.767,119.318,99.8992,96.8488,0.003017,0.463639,20.4985,96.0546,0.282205,0.0,0.0
2560,639.75,114.86,124.082,119.213,99.8273,97.4531,0.00254874,0.443012,20.5211,95.8444,0.219049,0.0,0.0
2568,641.75,114.515,123.231,121.831,99.712,98.9634,0.0022892,0.422411,20.5486,95.6642,0.0685709,0.0,0.0
2576,643.75,113.066,122.316,124.975,99.5922,99.8496,0.00210368,0.400986,20.5733,95.5141,-0.0234949,0.0,0.0
2584,645.75,112.538,121.565,125.258,99.6393,100.847,0.00185319,0.381151,20.5938,95.3139,-0.109604,0.0,0.0
2592,647.75,111.675,120.593,123.417,99.7076,100.192,0.00157121,0.363301,20.6147,95.1438,-0.0441367,0.0,0.0
2600,649.75,110.285,119.854,121.053,99.8277,101.462,0.00135767,0.344926,20.639,95.0537,-0.147748,0.0,0.0
2608,651.75,108.974,118.851,125.952,99.8948,102.265,0.00120519,0.326681,20.6574,94.8836,-0.213405,0.0,0.0
2616,653.75,108.607,118.187,125.046,99.9994,102.619,0.000985554,0.310169,20.6751,94.7935,-0.235323,0.0,0.0
2624,655.75,107.271,117.232,123.45,100.096,102.964,0.00073934,0.292286,20.6964,94.6634,-0.257111,0.0,0.0
2632,657.75,106.867,115.922,124.011,100.181,103.437,0.000614682,0.275983,20.7131,94.5833,-0.291037,0.0,0.0
2640,659.75,105.608,115.07,122.605,100.272,103.783,0.000598235,0.262277,20.7305,94.4832,-0.313111,0.0,0.0
2648,661.75,104.818,114.51,125.451,100.346,104.883,0.000569439,0.246945,20.7469,94.4031,-0.402476,0.0,0.0
2656,663.75,103.89,113.249,124.294,100.412,105.372,0.000507783,0.23125,20.7658,94.3331,-0.4388,0.0,0.0
2664,665.75,102.663,112.34,126.515,100.455,104.988,0.000433451,0.218819,20.7807,94.283,-0.401699,0.0,0.0
2672,667.75,101.627,111.612,125.142,100.521,105.339,0.000344552,0.207133,20.794,94.193,-0.426013,0.0,0.0
2680,669.75,100.854,110.662,129.122,100.521,105.871,0.000240581,0.196206,20.8074,94.1229,-0.471879,0.0,0.0
2688,671.75,99.9369,109.361,128.131,100.542,105.998,0.000199104,0.18629,20.8177,94.0728,-0.480944,0.0,0.0
2696,673.75,98.9711,108.57,129.863,100.501,106.008,0.000249757,0.177869,20.8258,94.0228,-0.485482,0.0,0.0
2704,675.75,98.3007,107.496,131.012,100.479,105.848,0.000319385,0.170178,20.8328,93.9527,-0.473735,0.0,0.0
2712,677.75,97.2865,106.607,131.211,100.413,106.333,0.000400349,0.164243,20.8395,93.8827,-0.521303,0.0,0.0
2720,679.75,96.2785,105.755,129.416,100.341,105.562,0.000395614,0.159152,20.8457,93.8727,-0.461565,0.0,0.0
2728,681.75,95.896,104.766,128.228,100.237,106.137,0.000395986,0.15432,20.8512,93.8326,-0.520422,0.0,0.0
2736,683.75,95.0022,103.962,125.045,100.142,106.071,0.000405645,0.15,20.8569,93.7826,-0.523415,0.0,0.0
2744,685.75,94.1487,103.09,128.863,99.9934,105.305,0.000366454,0.146509,20.8605,93.7326,-0.471004,0.0,0.0
2752,687.75,93.2768,102.484,132.747,99.8553,105.443,0.000273315,0.143916,20.8631,93.6825,-0.495524,0.0,0.0
2760,689.75,92.9206,101.268,129.64,99.6992,105.382,0.000270398,0.141766,20.8649,93.6425,-0.504513,0.0,0.0
2768,691.75,91.9692,100.756,129.049,99.5618,105.114,0.000356075,0.139493,20.8665,93.5924,-0.493814,0.0,0.0
2776,693.75,91.5751,99.8372,128.172,99.4229,104.873,0.000530523,0.138241,20.8685,93.5724,-0.485641,0.0,0.0
2784,695.75,90.8799,99.1569,129.812,99.2971,105.328,0.000544338,0.136859,20.8694,93.5023,-0.536579,0.0,0.0
2792,697.75,90.4074,98.2211,129.353,99.1885,105.07,0.000406248,0.135989,20.8704,93.4723,-0.524256,0.0,0.0
2800,699.75,89.6529,97.9318,131.233,99.0943,104.739,0.000327063,0.135254,20.8725,93.4623,-0.504114,0.0,0.0
2808,701.75,89.4785,97.1871,131.936,99.0244,104.433,0.000425933,0.134683,20.8738,93.4423,-0.483967,0.0,0.0
2816,703.75,88.7637,96.4787,129.126,98.9829,104.703,0.000550372,0.134539,20.8743,93.4023,-0.511298,0.0,0.0
2824,705.75,88.6264,96.0688,132.078,98.9889,104.476,0.000612431,0.135283,20.8746,93.3622,-0.491001,0.0,0.0
2832,707.75,88.3076,95.6446,130.949,99.0336,104.865,0.000616982,0.135302,20.8747,93.3222,-0.520638,0.0,0.0
2840,709.75,87.6472,94.4628,131.423,99.0815,104.757,0.000620227,0.134536,20.8743,93.2922,-0.506852,0.0,0.0
2848,711.75,87.1501,94.302,130.623,99.1817,104.648,0.000637771,0.134279,20.8741,93.2521,-0.488221,0.0,0.0
2856,713.75,86.6935,93.4865,130.139,99.27,104.961,0.000699463,0.133589,20.8749,93.2321,-0.507342,0.0,0.0
2864,715.75,86.7392,93.1539,127.572,99.357,105.145,0.000731792,0.132476,20.8757,93.2121,-0.515243,0.0,0.0
2872,717.75,86.3291,92.5873,134.902,99.4708,105.102,0.00066275,0.131086,20.8779,93.1721,-0.501124,0.0,0.0
2880,719.75,86.025,92.4024,132.32,99.5722,105.427,0.000659837,0.130053,20.8784,93.1721,-0.519958,0.0,0.0
2888,721.75,85.2796,90.7866,132.628,99.6604,105.826,0.000807544,0.129384,20.8786,93.1721,-0.546233,0.0,0.0
2896,723.75,85.2761,90.7362,132.989,99.7631,105.332,0.000990296,0.129398,20.878,93.152,-0.494289,0.0,0.0
2904,725.75,85.2523,90.1608,131.272,99.8449,105.364,0.000999593,0.129677,20.8777,93.112,-0.489627,0.0,0.0
2912,727.75,84.8239,90.4474,135.625,99.9224,105.645,0.000871695,0.1296,20.8776,93.082,-0.506807,0.0,0.0
2920,729.75,84.5541,90.3129,132.587,99.987,105.718,0.000729712,0.129123,20.8784,93.072,-0.507238,0.0,0.0
2928,731.75,84.3279,89.7496,126.197,100.041,105.648,0.000659543,0.128279,20.8792,92.9919,-0.496286,0.0,0.0
2936,733.75,84.193,89.3611,131.771,100.082,105.593,0.00063164,0.127626,20.8808,93.0019,-0.487809,0.0,0.0
2944,735.75,83.7757,88.7815,131.03,100.117,106.191,0.000530732,0.12722,20.8816,93.0519,-0.536047,0.0,0.0
2952,737.75,83.5006,88.316,129.305,100.144,106.044,0.000402579,0.126913,20.8819,93.0219,-0.520949,0.0,0.0
2960,739.75,83.4091,88.6428,132.889,100.162,106.277,0.000370742,0.126405,20.882,92.9819,-0.539276,0.0,0.0
2968,741.75,83.233,88.0311,130.044,100.186,106.193,0.000466113,0.125726,20.8829,92.9418,-0.529963,0.0,0.0
2976,743.75,82.2131,87.6748,127.561,100.185,106.128,0.00058787,0.125415,20.8825,92.8918,-0.5244,0.0,0.0
2984,745.75,82.1969,87.1125,127.538,100.175,106.099,0.00065648,0.125185,20.8838,92.8718,-0.522798,0.0,0.0
2992,747.75,82.5614,86.1507,127.245,100.165,105.793,0.000786598,0.124545,20.8851,92.8918,-0.497476,0.0,0.0
3000,749.75,82.1171,86.7289,131.397,100.14,105.754,0.000922693,0.123865,20.8857,92.8418,-0.496355,0.0,0.0
3008,751.75,81.2639,86.2559,128.982,100.111,105.793,0.000853594,0.123968,20.8856,92.8818,-0.502338,0.0,0.0
3016,753.75,81.5828,85.6477,133.801,100.078,105.79,0.000743696,0.124327,20.8854,92.7917,-0.505116,0.0,0.0
3024,755.75,81.128,85.1157,136.203,100.028,105.92,0.000778392,0.124071,20.8853,92.7417,-0.520843,0.0,0.0
3032,757.75,81.3846,85.2853,129.152,99.9623,105.528,0.000815455,0.123557,20.8863,92.6816,-0.49312,0.0,0.0
3040,759.75,80.8836,85.0816,130.318,99.9036,105.787,0.000752177,0.122977,20.887,92.6816,-0.520765,0.0,0.0
3048,761.75,80.5897,84.7192,127.974,99.8533,105.904,0.000663866,0.123037,20.8865,92.6616,-0.535414,0.0,0.0
3056,763.75,80.0517,84.8638,128.631,99.8186,105.399,0.000600144,0.123502,20.8858,92.6516,-0.495023,0.0,0.0
3064,765.75,80.0273,84.1401,130.877,99.7826,105.563,0.000700758,0.123973,20.8855,92.5715,-0.51248,0.0,0.0
3072,767.75,80.2747,83.9508,127.435,99.7371,105.614,0.000871498,0.124524,20.8857,92.5515,-0.521055,0.0,0.0
3080,769.75,80.4032,83.5471,125.998,99.7032,105.781,0.00097705,0.124695,20.8864,92.5115,-0.538459,0.0,0.0
3088,771.75,80.3297,83.5134,135.356,99.672,105.07,0.00100375,0.12432,20.8876,92.4714,-0.479926,0.0,0.0
3096,773.75,80.5805,83.3435,130.441,99.6584,105.241,0.00104029,0.123585,20.8886,92.4614,-0.496013,0.0,0.0
3104,775.75,80.0246,83.1602,130.259,99.597,105.231,0.00109572,0.123267,20.889,92.4814,-0.500772,0.0,0.0
3112,777.75,79.759,83.2918,132.099,99.5786,105.017,0.00112692,0.122898,20.8892,92.4214,-0.483935,0.0,0.0
3120,779.75,80.3261,82.9571,129.761,99.5535,104.992,0.00110809,0.122629,20.8892,92.4514,-0.484047,0.0,0.0
3128,781.75,79.5567,82.831,132.813,99.5499,105.691,0.00107508,0.122171,20.8904,92.3713,-0.544712,0.0,0.0
3136,783.75,79.84,82.5039,130.943,99.5107,105.302,0.0010854,0.12187,20.8903,92.4114,-0.514806,0.0,0.0
3144,785.75,79.5025,82.3035,131.049,99.5004,105.481,0.00112473,0.122475,20.8897,92.3313,-0.531153,0.0,0.0
3152,787.75,79.4398,81.7365,133.452,99.4928,105.828,0.00102014,0.122702,20.8903,92.2813,-0.561751,0.0,0.0
3160,789.75,79.0915,82.0783,131.894,99.4824,105.796,0.000908571,0.12154,20.891,92.2112,-0.559989,0.0,0.0
3168,791.75,78.6243,81.7367,129.207,99.4768,105.073,0.000828651,0.121309,20.8915,92.2312,-0.49808,0.0,0.0
3176,793.75,78.8611,81.5305,132.807,99.4644,105.7,0.00078903,0.122866,20.8888,92.2212,-0.553301,0.0,0.0
3184,795.75,78.49,81.4761,131.005,99.4664,105.503,0.000798739,0.12403,20.8874,92.2112,-0.5362,0.0,0.0
3192,797.75,78.9631,80.7542,129.975,99.4528,105.381,0.000820791,0.123626,20.8881,92.2012,-0.52691,0.0,0.0
3200,799.75,78.1952,81.2671,130.724,99.4488,105.321,0.000882005,0.122785,20.8897,92.1612,-0.522101,0.0,0.0
3208,801.75,77.9259,81.4026,133.645,99.4552,105.535,0.00101658,0.122069,20.8904,92.1111,-0.539941,0.0,0.0
3216,803.75,78.3876,80.2513,132.514,99.4556,105.325,0.00119558,0.121854,20.8908,92.0911,-0.52183,0.0,0.0
3224,805.75,78.453,80.4874,130.563,99.4732,105.418,0.00132706,0.122001,20.8913,92.0911,-0.528196,0.0,0.0
3232,807.75,78.0704,80.4892,131.686,99.4716,105.252,0.00139619,0.122498,20.8916,92.1211,-0.514064,0.0,0.0
3240,809.75,77.7009,80.2496,131.138,99.4812,105.653,0.00146249,0.122534,20.8917,92.0711,-0.547772,0.0,0.0
3248,811.75,77.944,80.469,131.53,99.4856,105.687,0.00150803,0.122548,20.8917,92.0811,-0.550319,0.0,0.0
3256,813.75,78.1874,80.1396,131.118,99.4908,105.213,0.00151169,0.122824,20.8911,92.1011,-0.508923,0.0,0.0
3264,815.75,77.908,79.9503,133.654,99.5155,105.532,0.00147577,0.122823,20.8902,92.0511,-0.534193,0.0,0.0
3272,817.75,78.0201,79.9843,133.275,99.5475,105.36,0.0014739,0.122573,20.8915,91.971,-0.516427,0.0,0.0
3280,819.75,77.3024,79.7163,129.203,99.5754,105.308,0.00149753,0.121772,20.8925,91.951,-0.509398,0.0,0.0
3288,821.75,77.3034,79.3713,128.921,99.6042,105.527,0.00148905,0.121023,20.8929,92.011,-0.525664,0.0,0.0
3296,823.75,77.3675,79.4619,133.097,99.6293,105.904,0.0013881,0.12129,20.8931,91.971,-0.55585,0.0,0.0
3304,825.75,76.709,79.3002,132.62,99.6433,105.405,0.001304,0.122015,20.8922,91.941,-0.511522,0.0,0.0
3312,827.75,76.9064,79.5503,133.739,99.6808,105.59,0.00129189,0.123294,20.8902,91.991,-0.524098,0.0,0.0
3320,829.75,76.8322,78.7547,131.288,99.7263,105.656,0.00135763,0.123723,20.8893,91.9009,-0.525647,0.0,0.0
3328,831.75,76.9478,79.0823,127.918,99.7782,105.559,0.00141645,0.123983,20.8889,91.8709,-0.512569,0.0,0.0
3336,833.75,77.0988,78.8401,133.398,99.8237,105.634,0.00142431,0.1241,20.8887,91.8109,-0.514823,0.0,0.0
3344,835.75,76.8824,78.4707,129.689,99.8649,105.458,0.00143038,0.123608,20.8893,91.7908,-0.495933,0.0,0.0
3352,837.75,75.0264,77.2867,133.468,99.8984,105.703,0.00161752,0.122959,20.8909,91.7908,-0.513992,0.0,0.0
3360,839.75,74.6708,77.3836,126.982,99.9391,105.932,0.00195168,0.122958,20.8918,91.6707,-0.529955,0.0,0.0
3368,841.75,74.8058,76.9837,131.936,99.9787,106.009,0.00204073,0.123772,20.8921,91.7608,-0.533008,0.0,0.0
3376,843.75,74.827,76.7472,130.601,100.041,105.727,0.00198903,0.124112,20.8923,91.6908,-0.50311,0.0,0.0
3384,845.75,74.8059,76.9575,129.898,100.053,106.193,0.0019992,0.123919,20.8926,91.6908,-0.542007,0.0,0.0
3392,847.75,75.0855,76.6151,131.94,100.086,106.313,0.00202698,0.122921,20.894,91.6707,-0.549293,0.0,0.0
3400,849.75,74.9214,76.5734,130.021,100.12,106.145,0.00204773,0.122254,20.8958,91.6007,-0.53178,0.0,0.0
3408,851.75,74.8656,76.229,129.957,100.129,106.208,0.00201183,0.121452,20.8965,91.4505,-0.536387,0.0,0.0
3416,853.75,74.8173,76.4356,131.209,100.13,106.257,0.00195066,0.121627,20.8964,91.6307,-0.540555,0.0,0.0
3424,855.75,74.3188,76.6522,132.501,100.156,105.963,0.00201659,0.122853,20.8946,91.5306,-0.51294,0.0,0.0
3432,857.75,74.3476,76.6454,133.157,100.159,105.817,0.00213213,0.124966,20.8924,91.4706,-0.500114,0.0,0.0
3440,859.75,74.3044,76.2207,128.806,100.157,105.602,0.0021453,0.12588,20.8915,91.5106,-0.481766,0.0,0.0
3448,861.75,74.0898,76.4233,132.091,100.15,106.649,0.00208546,0.125612,20.8919,91.4806,-0.572121,0.0,0.0
3456,863.75,74.6002,76.0757,128.87,100.143,106.397,0.00202646,0.124574,20.8937,91.4605,-0.551268,0.0,0.0
3464,865.75,74.426,76.189,132.913,100.133,106.223,0.00200635,0.123569,20.8956,91.4305,-0.537296,0.0,0.0
3472,867.75,73.9368,75.7636,132.091,100.117,106.113,0.00211399,0.122666,20.8962,91.3404,-0.529293,0.0,0.0
3480,869.75,74.3117,75.6711,131.604,100.089,105.806,0.00212627,0.122947,20.8951,91.3404,-0.505494,0.0,0.0
3488,871.75,73.846,75.2293,131.607,100.062,106.171,0.00205991,0.123348,20.8944,91.3605,-0.539321,0.0,0.0
3496,873.75,73.9106,75.4545,133.601,100.028,105.962,0.00197959,0.123405,20.8941,91.3404,-0.524404,0.0,0.0
3504,875.75,74.0563,76.1379,128.057,99.9978,106.134,0.00189619,0.123577,20.894,91.2904,-0.541965,0.0,0.0
3512,877.75,74.1867,75.6228,132.193,99.9487,106.021,0.00181697,0.123335,20.8939,91.2504,-0.536777,0.0,0.0
3520,879.75,73.4636,75.5563,134.93,99.8856,105.523,0.00182901,0.122867,20.8942,91.2504,-0.499595,0.0,0.0
3528,881.75,74.0114,75.685,130.44,99.8369,105.586,0.00199858,0.12226,20.8958,91.1703,-0.509547,0.0,0.0
3536,883.75,73.7797,75.6127,129.278,99.7591,105.851,0.00221694,0.121821,20.8965,91.2404,-0.539439,0.0,0.0
3544,885.75,73.4062,75.6535,128.991,99.6549,105.344,0.00233068,0.122442,20.8959,91.2003,-0.505253,0.0,0.0
3552,887.75,73.7413,75.2191,133.482,99.5698,105.768,0.00232865,0.123102,20.8952,91.2404,-0.549554,0.0,0.0
3560,889.75,73.8052,75.6116,130.26,99.488,105.555,0.00233631,0.123255,20.8945,91.2504,-0.538693,0.0,0.0
3568,891.75,73.8146,75.509,132.734,99.4305,105.513,0.00235058,0.122979,20.8946,91.2103,-0.540342,0.0,0.0
3576,893.75,73.4702,74.867,127.055,99.3263,105.136,0.00233367,0.122838,20.8955,91.2003,-0.517319,0.0,0.0
3584,895.75,73.6748,75.5167,132.845,99.232,105.477,0.00227813,0.123219,20.8959,91.1903,-0.555414,0.0,0.0
3592,897.75,73.565,75.0975,132.344,99.1794,105.16,0.00221791,0.123448,20.8961,91.1503,-0.532855,0.0,0.0
3600,899.75,73.4018,75.527,133.428,99.1003,105.12,0.00219477,0.122817,20.8962,91.0902,-0.536605,0.0,0.0
3608,901.75,73.6414,75.4982,129.837,99.0416,104.705,0.00222605,0.12275,20.8967,91.1202,-0.506021,0.0,0.0
3616,903.75,73.8028,75.2453,132.723,98.9901,104.606,0.0022815,0.123013,20.8969,91.1002,-0.50214,0.0,0.0
3624,905.75,72.7641,75.014,133.746,98.9741,104.746,0.00234812,0.123053,20.8972,91.0802,-0.515823,0.0,0.0
3632,907.75,72.6236,75.3617,135.022,98.9618,104.886,0.00252091,0.123573,20.8975,91.0402,-0.529119,0.0,0.0
3640,909.75,72.7425,75.0794,131.404,98.9725,105.333,0.00272998,0.125416,20.895,90.9801,-0.566842,0.0,0.0
3648,911.75,73.132,75.2266,132.661,99.0093,104.969,0.00287681,0.126032,20.8934,90.9401,-0.531938,0.0,0.0
3656,913.75,73.4304,75.193,133.185,99.0755,105.223,0.00287007,0.125275,20.8942,90.89,-0.547839,0.0,0.0
3664,915.75,73.0068,74.9144,129.767,99.1554,105.039,0.00282138,0.124257,20.8957,90.89,-0.524604,0.0,0.0
3672,917.75,73.6124,74.4635,133.475,99.248,104.848,0.0027693,0.123944,20.8964,90.86,-0.499551,0.0,0.0
3680,919.75,72.9405,74.2729,132.085,99.3562,105.295,0.00271577,0.123667,20.896,90.7799,-0.528286,0.0,0.0
3688,921.75,72.8728,74.6713,129.925,99.4636,105.335,0.00274894,0.123903,20.8956,90.83,-0.521956,0.0,0.0
3696,923.75,72.3137,74.8252,132.695,99.6089,105.556,0.00282604,0.124938,20.8955,90.85,-0.527751,0.0,0.0
3704,925.75,72.938,74.6687,130.707,99.7383,105.816,0.00280071,0.125237,20.8962,90.81,-0.538312,0.0,0.0
3712,927.75,72.4685,74.5299,128.737,99.8617,105.818,0.00272711,0.124518,20.8971,90.7499,-0.527256,0.0,0.0
3720,929.75,72.7528,74.69,133.087,99.9591,106.171,0.00277802,0.123169,20.8978,90.6899,-0.548618,0.0,0.0
3728,931.75,72.8552,74.5801,132.306,100.087,105.487,0.00298192,0.12257,20.8983,90.7299,-0.478252,0.0,0.0
3736,933.75,72.2601,74.5048,133.284,100.203,105.859,0.00312482,0.123467,20.8985,90.7299,-0.49965,0.0,0.0
3744,935.75,72.4509,74.5744,134.753,100.288,106.429,0.00310266,0.124072,20.8986,90.5998,-0.540879,0.0,0.0
3752,937.75,72.4328,73.9397,133.957,100.37,106.681,0.00304941,0.124135,20.8977,90.5998,-0.554917,0.0,0.0
3760,939.75,71.656,74.1036,129.278,100.424,106.579,0.00292954,0.124178,20.897,90.5898,-0.541311,0.0,0.0
3768,941.75,72.4485,74.0351,132.069,100.475,106.356,0.00280798,0.124549,20.8966,90.5798,-0.517665,0.0,0.0
3776,943.75,72.4123,74.2822,133.581,100.5,106.646,0.00279638,0.124428,20.8961,90.6198,-0.540202,0.0,0.0
3784,945.75,72.4303,74.3473,129.934,100.513,106.401,0.00285965,0.12398,20.8958,90.5698,-0.518082,0.0,0.0
3792,947.75,72.0372,74.2289,132.391,100.477,106.492,,0.123843,,90.5598,-0.52911,0.0,0.0
3800,949.75,72.1437,74.2557,135.001,100.438,106.337,,,,90.5097,-0.519335,0.0,0.0
3808,951.75,72.1784,73.78,135.592,100.398,106.524,,,,90.5097,-0.538968,0.0,0.0
3816,953.75,72.1973,74.2061,135.51,100.323,106.348,,,,90.5598,-0.530761,0.0,0.0
3824,955.75,72.1916,74.0085,136.209,100.256,106.579,,,,90.5497,-0.556594,0.0,0.0
3829,957,72.003,73.2669,135.595,100.216,106.386,,,,90.5598,-0.543709,0.0,0.0