File: 01_Data/Cotton_Batting/MCC/Cotton_Batting_MCC_30K_min_220223_R3.txt
Sample ID:	C:\MCC\MCC Cal\Test\Cotton_Batting_DelCo_MCC_30K_min_220223_R3.txt
Sample Weight (mg):	4.66
Heating Rate (C/s):	0.5
Combustor Temp (C):	900
N2 Flow Rate (cc/min):	80
O2 Flow Rate (cc/min):	20
Calibration File:	C:\MCC\MCC Cal\Coeff1 JN10440_30_210304.txt.txt
T Correction Coefficients:	0	1.024463	0
Time Shift (s):	14
*
Time (s)	Temperature (C)	N2 flow rate (cc/min)	O2 flow rate (cc/min)	Flow Rate (cc/min)	Oxygen (%)	HRR (W/g)	Heating rate (C/s)
0.000	111.957	80.005	19.995	103.757	20.081	0.305	-0.008
2.000	111.940	80.006	19.994	103.765	20.081	0.322	-0.003
4.000	111.973	80.004	19.993	103.792	20.083	0.213	0.008
6.000	111.974	80.003	19.993	103.781	20.083	0.165	0.018
8.000	111.990	80.004	19.994	103.736	20.081	0.294	-0.006
10.000	111.969	80.007	19.994	103.745	20.076	0.679	-0.017
12.000	111.937	80.007	19.993	103.781	20.075	0.704	-0.029
14.000	111.984	80.005	19.994	103.789	20.075	0.719	0.024
16.000	111.985	80.007	19.995	103.813	20.073	0.884	-0.007
18.000	112.066	80.006	19.993	103.864	20.075	0.773	0.072
20.000	112.091	80.006	19.994	103.841	20.075	0.746	0.041
22.000	112.164	80.006	19.993	103.820	20.073	0.900	0.035
24.000	112.203	80.007	19.993	103.794	20.073	0.875	0.015
26.000	112.323	80.005	19.992	103.790	20.068	1.202	0.018
28.000	112.400	80.007	19.994	103.812	20.069	1.131	0.055
30.000	112.528	80.006	19.993	103.829	20.067	1.277	0.048
32.000	112.638	80.006	19.993	103.836	20.065	1.459	0.041
34.000	112.778	80.006	19.993	103.864	20.062	1.628	0.063
36.000	112.971	80.006	19.993	103.891	20.062	1.669	0.081
38.000	113.109	80.007	19.994	103.920	20.059	1.872	0.110
40.001	113.338	80.006	19.994	103.914	20.055	2.154	0.068
42.000	113.591	80.008	19.994	103.909	20.053	2.258	0.113
44.001	113.818	80.007	19.993	103.919	20.053	2.291	0.125
46.001	114.088	80.008	19.995	103.949	20.053	2.285	0.110
48.000	114.379	80.006	19.994	103.930	20.052	2.315	0.116
50.000	114.751	80.007	19.994	103.921	20.049	2.582	0.195
52.000	115.081	80.005	19.994	103.934	20.048	2.588	0.185
54.000	115.442	80.004	19.993	103.951	20.045	2.823	0.179
56.001	115.811	80.006	19.994	103.935	20.045	2.795	0.196
58.000	116.202	80.004	19.994	103.929	20.044	2.886	0.195
60.000	116.653	80.004	19.993	103.946	20.057	2.007	0.203
62.000	117.090	80.004	19.994	103.815	20.077	0.595	0.228
64.000	117.542	80.004	19.994	103.505	20.091	-0.386	0.233
66.000	118.025	80.004	19.993	103.484	20.094	-0.578	0.224
68.000	118.529	80.005	19.994	103.608	20.089	-0.234	0.237
70.001	119.010	80.004	19.994	103.727	20.084	0.083	0.231
72.001	119.531	80.004	19.995	103.845	20.076	0.643	0.254
74.000	120.094	80.004	19.994	103.909	20.064	1.521	0.283
76.001	120.662	80.003	19.995	103.946	20.059	1.823	0.309
78.001	121.251	80.004	19.995	103.938	20.053	2.303	0.282
80.000	121.872	80.004	19.994	103.924	20.045	2.845	0.332
82.001	122.489	80.004	19.994	103.946	20.048	2.632	0.302
84.001	123.099	80.005	19.994	103.972	20.045	2.847	0.315
86.000	123.720	80.005	19.994	104.004	20.042	3.035	0.351
88.000	124.380	80.004	19.993	103.993	20.042	3.055	0.350
90.001	125.048	80.005	19.994	103.995	20.040	3.157	0.340
92.000	125.720	80.005	19.994	103.984	20.041	3.080	0.337
94.000	126.354	80.006	19.993	103.999	20.040	3.201	0.342
96.000	127.079	80.006	19.994	103.994	20.036	3.450	0.372
98.000	127.788	80.006	19.993	103.998	20.038	3.321	0.366
100.000	128.529	80.007	19.995	103.994	20.040	3.158	0.400
102.001	129.247	80.006	19.994	104.009	20.039	3.262	0.349
104.000	129.943	80.006	19.992	104.022	20.039	3.249	0.350
106.000	130.718	80.007	19.994	103.997	20.038	3.298	0.372
108.001	131.454	80.007	19.994	103.986	20.033	3.670	0.401
110.000	132.243	80.006	19.994	103.983	20.031	3.774	0.423
112.000	132.987	80.006	19.993	103.993	20.034	3.611	0.394
114.000	133.805	80.006	19.994	104.008	20.038	3.320	0.417
116.001	134.605	80.006	19.993	104.003	20.034	3.583	0.413
118.000	135.392	80.008	19.994	103.990	20.032	3.748	0.401
120.001	136.235	80.008	19.994	104.010	20.032	3.727	0.406
122.000	137.040	80.007	19.994	104.038	20.036	3.485	0.398
124.000	137.917	80.008	19.993	104.035	20.031	3.773	0.440
126.001	138.756	80.008	19.993	104.003	20.036	3.437	0.436
128.000	139.629	80.008	19.994	104.000	20.032	3.702	0.425
130.000	140.489	80.009	19.993	104.007	20.033	3.633	0.417
132.000	141.397	80.009	19.994	104.012	20.029	3.929	0.457
134.000	142.312	80.007	19.993	104.008	20.031	3.775	0.454
136.000	143.231	80.006	19.994	104.005	20.030	3.884	0.451
138.000	144.147	80.005	19.994	104.007	20.036	3.426	0.477
140.000	145.092	80.005	19.994	104.005	20.032	3.741	0.494
142.000	145.986	80.005	19.995	104.006	20.032	3.760	0.486
144.000	146.937	80.005	19.995	104.009	20.031	3.835	0.483
146.000	147.821	80.004	19.994	104.015	20.030	3.868	0.442
148.000	148.819	80.006	19.994	104.036	20.026	4.118	0.498
150.000	149.760	80.005	19.994	104.018	20.028	4.002	0.453
152.000	150.762	80.005	19.995	104.011	20.031	3.826	0.526
154.000	151.717	80.005	19.993	104.023	20.030	3.898	0.493
156.000	152.697	80.006	19.994	104.019	20.031	3.802	0.519
158.000	153.677	80.006	19.994	104.030	20.030	3.908	0.502
160.000	154.605	80.006	19.994	104.018	20.030	3.856	0.486
162.000	155.579	80.006	19.994	104.019	20.032	3.725	0.483
164.000	156.611	80.004	19.992	104.019	20.031	3.814	0.503
166.000	157.583	80.005	19.995	104.003	20.032	3.767	0.494
168.000	158.640	80.005	19.994	104.002	20.029	3.977	0.536
170.000	159.593	80.004	19.994	103.998	20.028	3.996	0.494
172.000	160.584	80.004	19.995	103.995	20.026	4.138	0.484
174.000	161.682	80.005	19.995	104.000	20.031	3.833	0.524
176.000	162.653	80.005	19.995	104.001	20.032	3.763	0.501
178.000	163.660	80.005	19.996	104.003	20.033	3.662	0.504
180.000	164.692	80.006	19.995	104.001	20.030	3.856	0.513
182.000	165.710	80.009	19.995	104.006	20.035	3.557	0.493
184.000	166.778	80.009	19.995	104.004	20.029	3.950	0.514
186.000	167.776	80.009	19.994	104.002	20.035	3.552	0.540
188.000	168.809	80.008	19.994	103.971	20.035	3.505	0.534
190.000	169.834	80.008	19.993	103.981	20.032	3.765	0.511
192.000	170.864	80.007	19.995	103.984	20.032	3.760	0.498
194.000	171.897	80.007	19.993	103.981	20.033	3.648	0.530
196.000	172.926	80.007	19.993	104.001	20.033	3.670	0.520
198.000	173.920	80.008	19.994	103.983	20.036	3.445	0.496
200.000	174.962	80.006	19.994	103.969	20.034	3.607	0.524
202.000	175.938	80.008	19.993	103.998	20.035	3.515	0.499
204.000	176.968	80.007	19.994	104.007	20.032	3.701	0.508
206.000	177.983	80.008	19.993	103.959	20.035	3.556	0.489
208.000	179.036	80.006	19.993	103.958	20.033	3.691	0.509
210.000	180.048	80.008	19.994	103.967	20.034	3.561	0.529
212.000	181.062	80.009	19.994	103.965	20.030	3.889	0.492
214.000	182.079	80.008	19.994	103.979	20.032	3.732	0.525
216.000	183.084	80.008	19.993	103.986	20.033	3.664	0.482
218.000	184.101	80.006	19.993	103.982	20.031	3.770	0.512
220.000	185.080	80.007	19.994	103.969	20.033	3.697	0.504
222.000	186.141	80.008	19.994	103.972	20.030	3.845	0.517
224.000	187.121	80.006	19.991	103.974	20.034	3.585	0.475
226.000	188.134	80.008	19.994	103.970	20.037	3.401	0.476
228.000	189.153	80.008	19.993	103.965	20.036	3.459	0.508
230.000	190.153	80.006	19.993	103.958	20.033	3.649	0.499
232.000	191.140	80.006	19.994	103.968	20.033	3.685	0.474
234.000	192.103	80.007	19.994	103.961	20.036	3.461	0.463
236.000	193.121	80.006	19.994	103.961	20.036	3.476	0.494
238.000	194.085	80.007	19.994	103.966	20.037	3.376	0.496
240.000	195.145	80.007	19.994	103.965	20.038	3.312	0.496
242.000	196.090	80.007	19.994	103.957	20.035	3.530	0.498
244.000	197.063	80.006	19.994	103.958	20.034	3.628	0.482
246.000	198.043	80.006	19.995	103.962	20.036	3.474	0.478
248.000	199.023	80.006	19.995	103.964	20.035	3.495	0.494
250.000	200.036	80.006	19.993	103.953	20.033	3.643	0.483
252.000	200.945	80.006	19.993	103.959	20.032	3.733	0.455
254.000	201.962	80.006	19.994	103.958	20.034	3.572	0.483
256.000	203.025	80.006	19.995	103.961	20.032	3.759	0.527
258.000	203.905	80.006	19.994	103.964	20.036	3.436	0.462
260.000	204.880	80.005	19.996	103.964	20.037	3.418	0.458
262.000	205.850	80.006	19.994	103.965	20.036	3.468	0.476
264.000	206.715	80.006	19.995	103.962	20.036	3.420	0.213
266.000	207.803	80.005	19.995	103.969	20.035	3.532	0.511
268.000	208.828	80.006	19.995	103.967	20.036	3.466	0.395
270.000	209.849	80.007	19.995	103.961	20.038	3.303	0.517
272.000	210.860	80.006	19.995	103.962	20.037	3.397	0.507
274.000	211.857	80.006	19.994	103.962	20.039	3.274	0.502
276.000	212.816	80.006	19.995	103.964	20.039	3.224	0.472
278.000	213.788	80.007	19.995	103.954	20.041	3.118	0.487
280.000	214.821	80.006	19.994	103.969	20.040	3.169	0.506
282.000	215.822	80.006	19.993	103.959	20.040	3.189	0.488
284.000	216.799	80.006	19.992	103.948	20.040	3.161	0.471
286.000	217.780	80.007	19.993	103.962	20.041	3.092	0.487
288.000	218.771	80.008	19.994	103.951	20.040	3.190	0.495
290.000	219.788	80.008	19.994	103.962	20.036	3.427	0.484
292.000	220.784	80.009	19.994	103.938	20.038	3.314	0.503
294.000	221.715	80.009	19.992	103.944	20.036	3.435	0.486
296.000	222.764	80.008	19.993	103.962	20.040	3.199	0.517
298.000	223.731	80.009	19.994	103.976	20.037	3.378	0.513
300.000	224.714	80.007	19.994	103.961	20.036	3.422	0.489
302.000	225.712	80.009	19.994	103.931	20.039	3.247	0.478
304.000	226.685	80.008	19.994	103.945	20.040	3.202	0.503
306.000	227.671	80.005	19.994	103.950	20.043	2.982	0.506
308.000	228.711	80.007	19.994	103.959	20.037	3.416	0.493
310.000	229.715	80.006	19.994	103.963	20.038	3.341	0.524
312.000	230.663	80.007	19.995	103.949	20.034	3.566	0.480
314.000	231.653	80.006	19.994	103.931	20.039	3.224	0.487
316.000	232.663	80.008	19.994	103.936	20.039	3.258	0.489
318.000	233.618	80.008	19.993	103.960	20.035	3.539	0.474
320.000	234.618	80.008	19.994	103.945	20.039	3.247	0.483
322.000	235.583	80.009	19.993	103.943	20.038	3.304	0.483
324.000	236.565	80.008	19.993	103.935	20.037	3.357	0.477
326.000	237.573	80.006	19.993	103.931	20.039	3.251	0.499
328.000	238.568	80.006	19.994	103.942	20.040	3.207	0.504
330.000	239.536	80.006	19.994	103.934	20.041	3.088	0.477
332.000	240.490	80.006	19.994	103.949	20.040	3.181	0.461
334.000	241.476	80.007	19.993	103.946	20.041	3.086	0.486
336.000	242.422	80.006	19.995	103.952	20.037	3.372	0.464
338.000	243.456	80.006	19.994	103.943	20.038	3.283	0.484
340.000	244.431	80.005	19.994	103.951	20.039	3.210	0.489
342.000	245.449	80.005	19.995	103.939	20.039	3.214	0.490
344.000	246.413	80.005	19.993	103.930	20.042	3.069	0.488
346.000	247.430	80.006	19.994	103.949	20.043	2.984	0.484
348.000	248.400	80.007	19.994	103.938	20.039	3.247	0.472
350.000	249.387	80.006	19.993	103.930	20.043	2.959	0.455
352.000	250.391	80.007	19.994	103.939	20.040	3.176	0.495
354.000	251.384	80.007	19.994	103.954	20.039	3.262	0.490
356.000	252.336	80.007	19.993	103.948	20.042	3.059	0.499
358.000	253.342	80.007	19.994	103.935	20.036	3.444	0.488
360.000	254.319	80.007	19.994	103.948	20.042	3.055	0.482
362.000	255.311	80.006	19.994	103.946	20.040	3.156	0.509
364.000	256.315	80.006	19.994	103.947	20.035	3.535	0.479
366.000	257.290	80.007	19.994	103.956	20.042	3.070	0.505
368.000	258.234	80.005	19.994	103.947	20.038	3.309	0.488
370.000	259.251	80.006	19.995	103.926	20.035	3.519	0.512
372.000	260.226	80.007	19.994	103.934	20.038	3.305	0.474
374.000	261.180	80.008	19.995	103.934	20.037	3.368	0.463
376.000	262.186	80.008	19.994	103.935	20.038	3.327	0.494
378.000	263.158	80.008	19.993	103.957	20.038	3.323	0.500
380.000	264.168	80.009	19.994	103.943	20.039	3.216	0.518
382.000	265.159	80.008	19.993	103.937	20.034	3.598	0.510
384.000	266.125	80.007	19.993	103.948	20.035	3.498	0.486
386.000	267.148	80.007	19.992	103.927	20.035	3.545	0.490
388.000	268.135	80.008	19.993	103.929	20.032	3.741	0.501
390.000	269.074	80.007	19.994	103.930	20.034	3.577	0.495
392.000	270.102	80.008	19.994	103.937	20.035	3.519	0.515
394.000	271.091	80.007	19.994	103.928	20.035	3.546	0.490
396.000	272.113	80.006	19.995	103.939	20.034	3.583	0.524
398.000	273.139	80.006	19.994	103.954	20.032	3.729	0.524
400.000	274.129	80.006	19.994	103.939	20.033	3.648	0.494
402.000	275.139	80.007	19.994	103.933	20.032	3.738	0.507
404.000	276.113	80.005	19.993	103.928	20.030	3.905	0.498
406.000	277.153	80.006	19.994	103.931	20.026	4.121	0.488
408.000	278.150	80.006	19.995	103.935	20.026	4.117	0.483
410.001	279.175	80.007	19.993	103.927	20.027	4.080	0.480
412.000	280.160	80.006	19.993	103.925	20.030	3.888	0.506
414.000	281.149	80.006	19.994	103.928	20.026	4.126	0.505
416.000	282.157	80.006	19.994	103.938	20.025	4.191	0.488
418.000	283.144	80.005	19.993	103.964	20.025	4.212	0.477
420.000	284.200	80.006	19.994	103.936	20.021	4.519	0.473
422.000	285.172	80.004	19.993	103.927	20.021	4.523	0.487
424.000	286.237	80.006	19.993	103.926	20.020	4.573	0.527
426.000	287.233	80.006	19.994	103.925	20.022	4.439	0.494
428.000	288.235	80.007	19.995	103.925	20.025	4.219	0.500
430.000	289.245	80.007	19.995	103.925	20.020	4.597	0.499
432.000	290.252	80.008	19.994	103.925	20.019	4.624	0.526
434.000	291.253	80.008	19.994	103.924	20.018	4.726	0.507
436.000	292.273	80.008	19.994	103.927	20.015	4.939	0.512
438.000	293.331	80.007	19.993	103.938	20.016	4.830	0.523
440.000	294.332	80.008	19.995	103.939	20.012	5.140	0.521
442.000	295.378	80.008	19.994	103.943	20.015	4.889	0.562
444.000	296.318	80.007	19.993	103.959	20.010	5.274	0.486
446.000	297.334	80.008	19.994	103.939	20.008	5.381	0.531
448.000	298.372	80.007	19.994	103.906	20.007	5.471	0.532
450.000	299.384	80.007	19.994	103.938	20.004	5.673	0.469
452.000	300.395	80.008	19.995	103.952	20.004	5.684	0.503
454.000	301.418	80.008	19.994	103.948	20.001	5.871	0.488
456.000	302.433	80.010	19.995	103.929	20.003	5.776	0.513
458.000	303.417	80.008	19.995	103.923	19.997	6.155	0.522
460.000	304.401	80.009	19.994	103.922	19.991	6.570	0.500
462.000	305.431	80.007	19.993	103.921	19.994	6.354	0.503
464.000	306.482	80.007	19.993	103.926	19.987	6.865	0.537
466.000	307.490	80.009	19.994	103.946	19.991	6.607	0.539
468.000	308.499	80.006	19.993	103.951	19.988	6.798	0.529
470.000	309.506	80.007	19.995	103.991	19.987	6.830	0.492
472.000	310.493	80.007	19.994	103.991	19.984	7.042	0.474
474.000	311.503	80.006	19.994	103.967	19.983	7.118	0.519
476.000	312.511	80.006	19.994	103.988	19.979	7.441	0.488
478.000	313.559	80.006	19.993	103.942	19.978	7.485	0.510
480.000	314.533	80.007	19.993	103.926	19.972	7.928	0.515
482.000	315.529	80.007	19.993	103.924	19.972	7.904	0.459
484.000	316.534	80.006	19.993	103.950	19.972	7.877	0.502
486.000	317.549	80.007	19.994	103.937	19.969	8.127	0.513
488.000	318.536	80.007	19.994	103.918	19.965	8.421	0.499
490.000	319.493	80.007	19.994	103.944	19.958	8.911	0.458
492.000	320.543	80.008	19.993	103.934	19.954	9.142	0.505
494.000	321.509	80.006	19.994	103.942	19.951	9.377	0.492
496.000	322.537	80.006	19.994	103.955	19.947	9.669	0.522
498.000	323.497	80.004	19.993	103.963	19.941	10.092	0.481
500.000	324.496	80.006	19.994	103.963	19.936	10.433	0.493
502.000	325.523	80.005	19.995	103.966	19.925	11.215	0.509
504.000	326.507	80.004	19.994	103.963	19.911	12.195	0.484
506.000	327.543	80.005	19.993	103.959	19.907	12.422	0.526
508.000	328.517	80.007	19.994	103.941	19.909	12.286	0.500
510.000	329.533	80.005	19.994	103.925	19.909	12.293	0.477
512.000	330.546	80.007	19.994	103.956	19.904	12.625	0.505
514.000	331.530	80.008	19.994	103.996	19.893	13.377	0.501
516.000	332.483	80.008	19.994	104.013	19.887	13.858	0.497
518.000	333.542	80.008	19.993	104.004	19.877	14.524	0.531
520.000	334.572	80.008	19.993	103.969	19.861	15.670	0.523
522.000	335.572	80.008	19.993	103.972	19.851	16.322	0.489
524.000	336.579	80.007	19.993	103.973	19.849	16.449	0.498
526.000	337.610	80.008	19.994	103.965	19.839	17.167	0.511
528.000	338.589	80.007	19.994	103.964	19.832	17.636	0.507
530.000	339.581	80.008	19.995	103.989	19.816	18.757	0.512
532.000	340.577	80.007	19.995	104.010	19.814	18.908	0.496
534.000	341.596	80.006	19.995	103.981	19.812	19.038	0.517
536.000	342.603	80.006	19.993	103.956	19.800	19.887	0.507
538.000	343.594	80.008	19.994	103.975	19.790	20.565	0.499
540.000	344.595	80.008	19.993	103.991	19.785	20.908	0.487
542.000	345.637	80.008	19.993	103.956	19.776	21.539	0.533
544.000	346.591	80.009	19.993	103.945	19.771	21.935	0.500
546.000	347.617	80.008	19.993	103.982	19.756	22.946	0.545
548.000	348.641	80.009	19.993	104.007	19.729	24.843	0.514
550.000	349.611	80.008	19.993	104.047	19.710	26.165	0.514
552.000	350.633	80.006	19.994	104.028	19.699	26.927	0.520
554.000	351.658	80.006	19.993	103.974	19.683	28.030	0.531
556.000	352.678	80.005	19.994	103.999	19.650	30.360	0.489
558.000	353.748	80.006	19.995	104.051	19.644	30.801	0.493
560.000	354.767	80.007	19.995	104.035	19.631	31.697	0.527
562.000	355.820	80.007	19.995	103.994	19.609	33.160	0.532
564.000	356.852	80.005	19.995	104.031	19.575	35.506	0.529
566.000	357.857	80.006	19.996	104.096	19.538	38.132	0.482
568.000	358.932	80.006	19.995	104.104	19.496	41.099	0.509
570.000	359.980	80.008	19.994	104.054	19.468	43.019	0.496
572.000	361.059	80.006	19.993	104.015	19.482	42.021	0.547
574.000	362.059	80.006	19.994	103.917	19.515	39.779	0.520
576.000	363.155	80.007	19.994	103.896	19.526	39.014	0.559
578.000	364.164	80.006	19.994	104.012	19.530	38.702	0.520
580.000	365.184	80.007	19.996	104.113	19.532	38.521	0.491
582.000	366.233	80.007	19.994	104.080	19.507	40.301	0.504
584.000	367.230	80.005	19.993	104.065	19.455	43.951	0.509
586.000	368.300	80.006	19.995	104.116	19.396	48.100	0.543
588.000	369.374	80.006	19.995	104.148	19.360	50.620	0.542
590.000	370.374	80.005	19.994	104.026	19.348	51.371	0.498
592.000	371.402	80.006	19.994	103.954	19.340	51.949	0.495
594.000	372.450	80.005	19.993	104.013	19.315	53.745	0.515
596.000	373.502	80.007	19.993	104.147	19.283	55.942	0.481
598.000	374.569	80.007	19.994	104.188	19.267	57.096	0.518
600.000	375.606	80.009	19.993	104.116	19.255	57.914	0.502
602.000	376.611	80.008	19.994	104.081	19.231	59.635	0.502
604.000	377.648	80.007	19.993	104.092	19.211	61.005	0.495
606.000	378.690	80.008	19.994	104.113	19.200	61.724	0.477
608.000	379.720	80.007	19.994	104.124	19.174	63.583	0.532
610.000	380.684	80.007	19.993	104.150	19.118	67.510	0.495
612.000	381.706	80.007	19.993	104.211	19.068	70.980	0.508
614.001	382.712	80.006	19.993	104.217	19.029	73.744	0.511
616.000	383.766	80.005	19.993	104.149	18.989	76.580	0.532
618.000	384.760	80.007	19.993	104.148	18.953	79.028	0.516
620.000	385.745	80.008	19.993	104.162	18.929	80.705	0.505
622.000	386.730	80.008	19.994	104.168	18.896	83.052	0.469
624.000	387.780	80.008	19.993	104.230	18.837	87.206	0.529
626.000	388.765	80.007	19.994	104.286	18.789	90.503	0.507
628.000	389.805	80.009	19.993	104.258	18.751	93.273	0.507
630.000	390.822	80.009	19.994	104.222	18.702	96.722	0.488
632.000	391.824	80.008	19.995	104.218	18.648	100.413	0.498
634.000	392.871	80.008	19.993	104.293	18.616	102.625	0.539
636.000	393.898	80.007	19.993	104.293	18.560	106.548	0.547
638.000	394.912	80.007	19.994	104.301	18.478	112.309	0.500
640.000	395.920	80.006	19.994	104.410	18.401	117.717	0.484
642.000	396.912	80.006	19.994	104.387	18.349	121.372	0.492
644.000	397.914	80.005	19.992	104.332	18.319	123.496	0.518
646.000	398.925	80.005	19.995	104.294	18.294	125.226	0.535
648.000	399.958	80.007	19.995	104.314	18.265	127.214	0.516
650.000	400.926	80.007	19.994	104.352	18.251	128.253	0.495
652.000	401.972	80.007	19.994	104.383	18.229	129.746	0.516
654.000	402.942	80.008	19.994	104.390	18.205	131.454	0.514
656.000	403.968	80.005	19.994	104.395	18.183	132.969	0.504
658.000	404.963	80.007	19.995	104.391	18.153	135.073	0.504
660.001	405.982	80.007	19.995	104.397	18.125	136.995	0.507
662.000	406.994	80.006	19.995	104.418	18.098	138.914	0.517
664.000	407.974	80.004	19.995	104.379	18.079	140.216	0.497
666.000	408.982	80.007	19.996	104.406	18.055	141.914	0.500
668.000	409.996	80.007	19.995	104.386	18.034	143.369	0.500
670.000	411.031	80.006	19.993	104.368	18.022	144.175	0.500
672.000	412.047	80.005	19.994	104.382	18.014	144.688	0.517
674.000	413.042	80.006	19.994	104.376	18.015	144.645	0.508
676.000	413.986	80.005	19.993	104.392	18.016	144.577	0.475
678.000	414.985	80.008	19.994	104.373	18.028	143.674	0.478
680.000	415.994	80.007	19.993	104.354	18.044	142.502	0.519
682.000	416.957	80.009	19.994	104.349	18.081	139.904	0.463
684.000	418.017	80.008	19.993	104.324	18.109	137.941	0.549
686.000	418.974	80.008	19.993	104.321	18.161	134.253	0.519
688.000	420.018	80.009	19.994	104.305	18.221	130.073	0.514
690.000	421.000	80.009	19.994	104.283	18.272	126.474	0.515
692.000	422.029	80.009	19.994	104.244	18.340	121.712	0.478
694.000	423.011	80.009	19.994	104.232	18.413	116.641	0.518
696.000	424.028	80.008	19.994	104.202	18.487	111.384	0.492
698.000	425.037	80.007	19.994	104.196	18.572	105.509	0.496
700.000	426.028	80.009	19.995	104.166	18.645	100.379	0.457
702.000	427.054	80.009	19.994	104.147	18.731	94.361	0.490
704.000	428.117	80.007	19.993	104.146	18.816	88.413	0.535
706.000	429.091	80.010	19.994	104.114	18.902	82.397	0.522
708.000	430.099	80.008	19.993	104.079	18.981	76.881	0.554
710.000	431.180	80.008	19.992	104.075	19.060	71.399	0.532
712.000	432.162	80.010	19.994	104.046	19.133	66.287	0.476
714.000	433.227	80.008	19.993	104.034	19.205	61.314	0.549
716.000	434.290	80.009	19.992	104.011	19.276	56.353	0.559
718.000	435.288	80.008	19.993	104.004	19.336	52.151	0.490
720.000	436.320	80.007	19.993	103.999	19.388	48.518	0.527
722.000	437.381	80.007	19.994	103.982	19.432	45.495	0.497
724.000	438.436	80.007	19.993	103.967	19.474	42.567	0.503
726.000	439.471	80.005	19.994	103.962	19.519	39.436	0.506
728.000	440.541	80.005	19.992	103.944	19.554	37.007	0.530
730.000	441.597	80.007	19.995	103.935	19.586	34.759	0.547
732.000	442.568	80.007	19.994	103.926	19.614	32.812	0.493
734.000	443.610	80.007	19.996	103.925	19.634	31.402	0.491
736.000	444.669	80.007	19.993	103.923	19.649	30.396	0.504
738.000	445.689	80.007	19.993	103.909	19.674	28.601	0.486
740.000	446.714	80.007	19.995	103.918	19.689	27.576	0.500
742.000	447.811	80.008	19.994	103.900	19.701	26.751	0.518
744.000	448.861	80.005	19.994	103.905	19.714	25.852	0.536
746.000	449.893	80.007	19.995	103.897	19.719	25.526	0.521
748.000	450.916	80.008	19.995	103.894	19.726	25.018	0.520
750.000	451.885	80.006	19.994	103.889	19.733	24.565	0.500
752.000	452.972	80.006	19.995	103.892	19.742	23.933	0.529
754.000	453.955	80.007	19.995	103.890	19.751	23.266	0.507
756.000	455.008	80.006	19.995	103.889	19.754	23.080	0.537
758.000	456.035	80.007	19.996	103.900	19.757	22.821	0.513
760.000	457.045	80.006	19.995	103.899	19.759	22.690	0.504
762.000	458.029	80.008	19.995	103.907	19.763	22.459	0.475
764.000	459.093	80.006	19.993	103.886	19.759	22.733	0.529
766.000	460.094	80.009	19.996	103.878	19.759	22.745	0.510
768.000	461.126	80.007	19.995	103.866	19.763	22.480	0.547
770.000	462.138	80.010	19.994	103.829	19.760	22.628	0.493
772.000	463.109	80.008	19.994	103.922	19.759	22.681	0.472
774.000	464.151	80.008	19.993	103.855	19.755	22.984	0.523
776.000	465.108	80.009	19.994	103.824	19.757	22.839	0.497
778.001	466.074	80.007	19.995	103.957	19.763	22.410	0.486
780.000	467.112	80.006	19.994	103.899	19.762	22.523	0.479
782.000	468.109	80.007	19.994	103.864	19.749	23.388	0.481
784.000	469.103	80.008	19.994	103.881	19.755	23.021	0.500
786.000	470.134	80.008	19.993	103.869	19.750	23.361	0.494
788.000	471.164	80.008	19.993	103.865	19.747	23.558	0.473
790.000	472.182	80.007	19.993	103.868	19.742	23.921	0.512
792.000	473.205	80.010	19.994	103.862	19.742	23.930	0.509
794.000	474.245	80.009	19.994	103.853	19.737	24.220	0.492
796.000	475.230	80.010	19.994	103.854	19.746	23.650	0.453
798.000	476.262	80.009	19.993	103.869	19.742	23.886	0.500
800.000	477.246	80.009	19.992	103.864	19.745	23.684	0.494
802.000	478.262	80.008	19.994	103.876	19.737	24.217	0.488
804.000	479.248	80.005	19.994	103.862	19.742	23.911	0.488
806.000	480.256	80.006	19.993	103.862	19.743	23.811	0.499
808.001	481.267	80.008	19.992	103.852	19.749	23.438	0.510
810.000	482.286	80.005	19.994	103.874	19.747	23.551	0.502
812.000	483.287	80.009	19.992	103.806	19.746	23.611	0.471
814.000	484.292	80.004	19.992	103.788	19.753	23.130	0.508
816.000	485.308	80.007	19.993	103.922	19.759	22.731	0.506
818.000	486.307	80.006	19.994	103.876	19.761	22.592	0.516
820.001	487.287	80.005	19.994	103.843	19.760	22.612	0.499
822.000	488.283	80.007	19.995	103.824	19.769	21.986	0.482
824.000	489.333	80.007	19.993	103.859	19.779	21.351	0.514
826.000	490.336	80.005	19.995	103.871	19.779	21.342	0.521
828.000	491.345	80.006	19.996	103.884	19.785	20.909	0.530
830.000	492.374	80.007	19.993	103.858	19.790	20.523	0.513
832.000	493.351	80.006	19.995	103.848	19.790	20.569	0.500
834.000	494.393	80.006	19.994	103.840	19.797	20.083	0.524
836.000	495.438	80.007	19.994	103.855	19.806	19.425	0.512
838.000	496.505	80.005	19.995	103.858	19.812	19.037	0.552
840.000	497.515	80.005	19.994	103.848	19.823	18.252	0.521
842.000	498.547	80.003	19.994	103.850	19.832	17.637	0.555
844.000	499.610	80.008	19.994	103.847	19.843	16.875	0.528
846.000	500.627	80.006	19.995	103.856	19.850	16.396	0.525
848.000	501.642	80.006	19.994	103.880	19.860	15.667	0.539
850.000	502.696	80.007	19.994	103.866	19.866	15.246	0.512
852.000	503.763	80.007	19.996	103.873	19.876	14.563	0.527
854.000	504.756	80.007	19.994	103.869	19.885	13.922	0.501
856.000	505.804	80.007	19.996	103.844	19.894	13.345	0.539
858.000	506.839	80.008	19.995	103.853	19.900	12.912	0.503
860.000	507.866	80.006	19.996	103.876	19.909	12.306	0.506
862.000	508.922	80.006	19.995	103.870	19.923	11.314	0.528
864.000	509.933	80.007	19.994	103.853	19.925	11.191	0.491
866.000	511.000	80.007	19.994	103.851	19.930	10.822	0.519
868.000	512.018	80.005	19.993	103.851	19.941	10.067	0.514
870.000	513.040	80.008	19.994	103.845	19.946	9.700	0.504
872.000	514.064	80.009	19.993	103.860	19.952	9.267	0.493
874.000	515.116	80.010	19.993	103.838	19.955	9.096	0.517
876.000	516.168	80.009	19.994	103.842	19.962	8.574	0.549
878.000	517.216	80.014	19.993	103.891	19.972	7.918	0.500
880.000	518.226	80.011	19.993	103.872	19.977	7.534	0.507
882.000	519.314	80.009	19.992	103.846	19.981	7.273	0.554
884.000	520.311	80.005	19.993	103.850	19.989	6.724	0.514
886.000	521.375	80.016	19.991	103.853	19.992	6.544	0.511
888.000	522.374	80.007	19.996	103.845	19.990	6.658	0.470
890.000	523.431	80.007	19.994	103.834	19.991	6.588	0.532
892.000	524.491	80.013	19.994	103.866	19.997	6.169	0.514
894.000	525.533	80.004	19.994	103.847	19.999	6.052	0.548
896.000	526.574	80.011	19.993	103.847	20.006	5.534	0.512
898.000	527.606	80.004	19.994	103.846	20.004	5.692	0.514
900.000	528.667	80.009	19.993	103.862	20.012	5.116	0.529
902.000	529.656	80.007	19.993	103.846	20.010	5.281	0.515
904.000	530.705	80.000	19.994	103.840	20.009	5.330	0.531
906.000	531.751	80.005	19.994	103.835	20.012	5.141	0.534
908.000	532.750	80.012	19.993	103.850	20.010	5.230	0.499
910.000	533.795	80.011	19.994	103.844	20.011	5.157	0.511
912.000	534.809	80.009	19.994	103.838	20.020	4.566	0.516
914.000	535.888	80.007	19.994	103.846	20.020	4.543	0.523
916.000	536.895	80.008	19.994	103.881	20.019	4.663	0.518
918.000	537.875	80.007	19.994	103.869	20.023	4.346	0.501
920.000	538.927	80.008	19.994	103.865	20.021	4.530	0.513
922.000	539.991	80.007	19.994	103.858	20.025	4.209	0.523
924.000	541.003	80.008	19.995	103.853	20.020	4.570	0.505
926.000	542.053	80.007	19.994	103.854	20.022	4.433	0.523
928.000	543.086	80.007	19.996	103.849	20.019	4.664	0.529
930.000	544.080	80.008	19.994	103.893	20.031	3.782	0.516
932.000	545.100	80.006	19.994	103.892	20.026	4.117	0.549
934.000	546.081	80.007	19.994	103.866	20.023	4.360	0.515
936.000	547.156	80.009	19.993	103.896	20.027	4.097	0.524
938.000	548.116	80.008	19.994	103.828	20.028	3.975	0.478
940.000	549.157	80.009	19.994	103.867	20.028	4.032	0.509
942.000	550.190	80.006	19.993	103.860	20.026	4.119	0.467
944.000	551.256	80.006	19.993	103.832	20.027	4.106	0.542
946.000	552.203	80.006	19.995	103.863	20.026	4.165	0.511
948.001	553.254	80.006	19.994	103.874	20.027	4.058	0.527
950.000	554.276	80.008	19.995	103.850	20.028	4.041	0.557
952.001	555.303	80.006	19.993	103.849	20.030	3.875	0.479
954.000	556.311	80.007	19.995	103.874	20.031	3.806	0.483
956.000	557.316	80.008	19.995	103.859	20.028	3.991	0.517
958.000	558.408	80.009	19.995	103.856	20.034	3.570	0.506
960.000	559.411	80.009	19.995	103.875	20.030	3.865	0.511
962.000	560.402	80.009	19.994	103.862	20.028	3.998	0.491
964.000	561.446	80.009	19.994	103.850	20.028	4.005	0.505
966.000	562.441	80.009	19.993	103.834	20.027	4.061	0.468
968.000	563.397	80.009	19.993	103.837	20.027	4.048	0.516
970.000	564.453	80.008	19.994	103.838	20.030	3.893	0.509
972.000	565.477	80.006	19.994	103.845	20.028	4.030	0.552
974.000	566.428	80.007	19.994	103.846	20.030	3.875	0.489
976.000	567.402	80.006	19.993	103.857	20.030	3.842	0.494
978.000	568.396	80.007	19.994	103.853	20.030	3.897	0.507
980.000	569.388	80.007	19.994	103.866	20.037	3.393	0.480
982.000	570.375	80.006	19.994	103.846	20.035	3.517	0.500
984.000	571.360	80.007	19.994	103.853	20.032	3.749	0.510
986.000	572.376	80.008	19.993	103.833	20.033	3.675	0.475
988.000	573.386	80.007	19.994	103.831	20.031	3.768	0.497
990.000	574.440	80.007	19.994	103.829	20.033	3.660	0.557
992.000	575.454	80.008	19.995	103.852	20.033	3.645	0.526
994.000	576.517	80.008	19.994	103.859	20.041	3.113	0.542
996.000	577.509	80.009	19.994	103.893	20.035	3.503	0.470
998.000	578.529	80.008	19.994	103.860	20.037	3.384	0.508
1000.000	579.491	80.007	19.994	103.889	20.037	3.350	0.515
1002.000	580.526	80.007	19.994	103.889	20.044	2.871	0.440
1004.000	581.635	80.007	19.993	103.831	20.040	3.198	0.525
1006.000	582.588	80.007	19.995	103.834	20.035	3.505	0.488
1008.000	583.607	80.006	19.994	103.855	20.040	3.200	0.485
1010.000	584.611	80.009	19.994	103.853	20.041	3.120	0.490
1012.000	585.622	80.006	19.993	103.893	20.036	3.466	0.534
1014.000	586.619	80.008	19.994	103.859	20.042	3.039	0.504
1016.000	587.706	80.007	19.994	103.858	20.042	3.000	0.526
1018.000	588.676	80.008	19.994	103.864	20.047	2.689	0.475
1020.000	589.664	80.009	19.994	103.835	20.043	2.945	0.488
1022.000	590.704	80.009	19.994	103.819	20.039	3.254	0.486
1024.001	591.718	80.008	19.993	103.847	20.042	3.068	0.509
1026.000	592.748	80.008	19.993	103.844	20.042	3.042	0.526
1028.000	593.799	80.007	19.994	103.843	20.038	3.306	0.526
1030.000	594.846	80.009	19.994	103.844	20.039	3.275	0.546
1032.000	595.857	80.007	19.995	103.848	20.042	3.066	0.484
1034.001	596.884	80.010	19.994	103.855	20.039	3.271	0.526
1036.001	597.914	80.008	19.994	103.897	20.045	2.831	0.532
1038.000	598.985	80.010	19.995	103.904	20.045	2.816	0.528
1040.000	600.002	80.009	19.994	103.853	20.044	2.916	0.535
1042.001	600.967	80.006	19.994	103.852	20.046	2.722	0.526
1044.000	602.027	80.013	19.994	103.855	20.043	2.981	0.507
1046.000	603.080	80.011	19.995	103.844	20.047	2.686	0.533
1048.000	604.110	80.010	19.994	103.844	20.043	2.937	0.535
1050.001	605.123	80.015	19.992	103.844	20.038	3.336	0.493
1052.000	606.148	80.013	19.995	103.847	20.041	3.094	0.509
1054.000	607.157	80.007	19.995	103.832	20.042	3.027	0.509
1056.000	608.230	80.014	19.992	103.836	20.039	3.244	0.524
1058.001	609.256	80.007	19.994	103.855	20.042	3.036	0.511
1060.001	610.299	80.011	19.994	103.855	20.036	3.429	0.538
1062.000	611.337	80.004	19.995	103.858	20.037	3.404	0.538
1064.000	612.275	80.001	19.994	103.835	20.040	3.143	0.498
1066.000	613.352	80.009	19.993	103.869	20.042	3.008	0.512
1068.000	614.346	80.008	19.994	103.833	20.041	3.088	0.496
1070.001	615.397	80.005	19.994	103.855	20.042	3.046	0.543
1072.000	616.388	80.009	19.994	103.867	20.045	2.845	0.506
1074.000	617.428	80.008	19.993	103.874	20.044	2.870	0.511
1076.000	618.445	80.013	19.994	103.877	20.044	2.910	0.527
1078.000	619.487	80.012	19.994	103.843	20.045	2.822	0.521
1080.000	620.540	80.000	19.995	103.835	20.044	2.927	0.541
1082.001	621.580	80.003	19.994	103.847	20.042	3.038	0.540
1084.000	622.578	80.000	19.995	103.867	20.045	2.818	0.499
1086.000	623.617	80.004	19.994	103.860	20.046	2.745	0.518
1088.001	624.643	79.994	19.995	103.854	20.045	2.808	0.502
1090.000	625.650	80.016	19.994	103.846	20.044	2.880	0.459
1092.001	626.703	80.009	19.993	103.863	20.042	3.001	0.498
1094.000	627.691	80.007	19.993	103.871	20.046	2.765	0.499
1096.000	628.700	80.007	19.994	103.840	20.045	2.801	0.478
1098.000	629.686	79.996	19.996	103.830	20.046	2.747	0.481
1100.001	630.697	80.015	19.992	103.858	20.044	2.866	0.448
1102.000	631.771	80.010	19.994	103.881	20.049	2.578	0.515
1104.001	632.755	80.018	19.993	103.871	20.051	2.415	0.496
1106.001	633.812	80.013	19.992	103.853	20.048	2.613	0.515
1108.001	634.797	80.021	19.993	103.871	20.047	2.674	0.507
1110.000	635.847	80.008	19.993	103.858	20.046	2.731	0.548
1112.000	636.810	80.004	19.994	103.832	20.047	2.665	0.488
1114.000	637.859	80.001	19.995	103.849	20.047	2.678	0.507
1116.000	638.878	80.007	19.994	103.855	20.050	2.443	0.514
1118.000	639.888	80.003	19.995	103.834	20.048	2.586	0.496
1120.000	640.928	80.008	19.994	103.829	20.049	2.519	0.504
1122.000	641.951	80.003	19.994	103.846	20.048	2.584	0.490
1124.001	642.923	80.008	19.992	103.863	20.047	2.680	0.472
1126.000	644.019	80.002	19.996	103.862	20.049	2.515	0.524
1128.000	645.003	80.008	19.995	103.873	20.050	2.479	0.498
1130.000	646.014	80.019	19.992	103.843	20.052	2.362	0.509
1132.001	647.049	80.011	19.994	103.876	20.046	2.786	0.514
1134.000	648.051	80.011	19.994	103.846	20.053	2.281	0.522
1136.000	649.039	80.009	19.994	103.837	20.049	2.525	0.504
1138.000	650.072	80.002	19.994	103.849	20.049	2.527	0.506
1140.000	651.127	80.009	19.994	103.863	20.044	2.891	0.556
1142.000	652.115	80.008	19.993	103.846	20.049	2.549	0.534
1144.000	653.115	80.005	19.993	103.866	20.050	2.505	0.503
1146.000	654.151	80.005	19.993	103.859	20.049	2.555	0.517
1148.000	655.180	80.009	19.994	103.866	20.051	2.427	0.534
1150.000	656.186	80.007	19.995	103.849	20.054	2.170	0.512
1152.000	657.183	80.004	19.996	103.840	20.053	2.264	0.489
1154.000	658.165	80.005	19.996	103.844	20.048	2.592	0.490
1156.000	659.215	80.006	19.995	103.848	20.049	2.517	0.485
1158.000	660.235	80.011	19.994	103.853	20.052	2.327	0.533
1160.000	661.271	80.004	19.994	103.857	20.051	2.404	0.514
1162.001	662.301	80.009	19.994	103.873	20.050	2.446	0.521
1164.000	663.325	80.019	19.993	103.867	20.054	2.231	0.504
1166.001	664.291	80.010	19.994	103.843	20.052	2.346	0.489
1168.000	665.255	80.008	19.994	103.852	20.053	2.289	0.488
1170.000	666.270	80.005	19.995	103.877	20.053	2.235	0.512
1172.000	667.260	80.008	19.995	103.852	20.054	2.166	0.500
1174.000	668.238	79.998	19.995	103.862	20.056	2.060	0.484
1176.001	669.263	80.011	19.995	103.853	20.056	2.033	0.486
1178.000	670.285	80.006	19.996	103.868	20.056	2.062	0.523
1180.001	671.284	80.007	19.994	103.854	20.055	2.103	0.494
1182.000	672.291	80.008	19.995	103.842	20.054	2.233	0.503
1184.001	673.287	80.011	19.993	103.845	20.054	2.227	0.487
1186.001	674.324	80.008	19.995	103.845	20.052	2.304	0.510
1188.000	675.399	80.010	19.995	103.841	20.054	2.177	0.550
1190.001	676.378	80.011	19.993	103.843	20.056	2.064	0.462
1192.000	677.472	80.014	19.994	103.858	20.055	2.151	0.544
1194.000	678.506	80.009	19.994	103.848	20.054	2.224	0.551
1196.000	679.511	80.009	19.993	103.848	20.057	1.998	0.506
1198.000	680.474	80.007	19.994	103.847	20.057	2.013	0.488
1200.000	681.520	80.009	19.995	103.848	20.055	2.118	0.503
1202.000	682.549	80.010	19.993	103.851	20.057	1.987	0.508
1204.001	683.586	80.010	19.994	103.863	20.054	2.174	0.489
1206.000	684.613	80.008	19.994	103.884	20.054	2.214	0.508
1208.001	685.576	80.010	19.994	103.874	20.056	2.064	0.495
1210.000	686.638	80.009	19.995	103.847	20.056	2.043	0.501
1212.001	687.639	80.009	19.993	103.848	20.057	1.990	0.473
1214.001	688.657	80.012	19.995	103.851	20.055	2.164	0.511
1216.000	689.687	80.010	19.994	103.841	20.057	1.970	0.488
1218.000	690.702	80.010	19.994	103.842	20.055	2.147	0.514
1220.000	691.688	80.005	19.995	103.852	20.057	1.999	0.509
1222.000	692.717	80.004	19.994	103.867	20.056	2.053	0.521
1224.001	693.771	80.005	19.995	103.877	20.055	2.152	0.516
1226.000	694.761	80.008	19.994	103.831	20.054	2.210	0.500
1228.000	695.790	80.007	19.994	103.837	20.054	2.178	0.515
1230.000	696.800	80.007	19.994	103.848	20.054	2.207	0.463
1232.001	697.814	80.008	19.994	103.854	20.054	2.212	0.478
1234.000	698.811	80.003	19.996	103.846	20.052	2.362	0.484
1236.001	699.841	80.009	19.995	103.846	20.054	2.207	0.509
1238.000	700.882	80.007	19.995	103.861	20.055	2.116	0.522
1240.000	701.869	80.009	19.995	103.876	20.055	2.162	0.518
1242.000	702.848	80.000	19.997	103.882	20.056	2.028	0.512
1244.001	703.901	80.008	19.996	103.866	20.056	2.049	0.507
1246.000	704.887	80.007	19.997	103.875	20.054	2.173	0.504
1248.001	705.883	80.007	19.994	103.856	20.054	2.172	0.495
1250.000	706.892	80.001	19.997	103.847	20.056	2.062	0.496
1252.000	707.949	80.008	19.996	103.846	20.054	2.183	0.512
1254.000	708.963	80.008	19.994	103.858	20.055	2.164	0.506
1256.001	710.020	80.005	19.995	103.849	20.051	2.427	0.554
1258.000	711.020	80.007	19.995	103.848	20.051	2.419	0.515
1260.000	712.011	80.006	19.994	103.849	20.054	2.200	0.532
1262.001	713.066	80.009	19.993	103.863	20.056	2.063	0.515
1264.000	714.045	80.008	19.994	103.861	20.053	2.303	0.490
1266.000	715.125	80.008	19.994	103.852	20.053	2.262	0.522
1268.000	716.130	80.010	19.993	103.853	20.058	1.904	0.502
1270.000	717.169	80.009	19.994	103.853	20.057	1.959	0.510
1272.000	718.190	80.009	19.993	103.857	20.055	2.145	0.520
1274.000	719.219	80.007	19.993	103.878	20.057	1.993	0.537
1276.000	720.262	80.008	19.993	103.871	20.057	1.995	0.528
1278.001	721.279	80.010	19.994	103.874	20.055	2.103	0.547
1280.000	722.295	80.009	19.994	103.871	20.056	2.081	0.527
1282.000	723.297	80.010	19.993	103.858	20.056	2.079	0.485
1284.000	724.283	80.009	19.994	103.858	20.060	1.792	0.485
1286.000	725.300	80.009	19.994	103.865	20.057	1.999	0.493
1288.000	726.247	80.009	19.994	103.858	20.057	2.014	0.487
1290.000	727.247	80.009	19.994	103.848	20.054	2.218	0.510
1292.000	728.279	80.013	19.993	103.848	20.055	2.147	0.516
1294.000	729.202	80.008	19.993	103.847	20.054	2.218	0.474
1296.000	730.268	80.010	19.993	103.847	20.053	2.258	0.516
1298.001	731.331	80.009	19.993	103.848	20.054	2.226	0.498
1300.000	732.330	80.009	19.994	103.853	20.057	1.993	0.475
1302.000	733.334	80.008	19.995	103.856	20.053	2.246	0.495
1304.000	734.338	80.007	19.993	103.873	20.055	2.120	0.493
1306.001	735.355	80.009	19.995	103.856	20.056	2.039	0.477
1308.000	736.329	80.006	19.994	103.869	20.056	2.045	0.507
1310.001	737.384	80.008	19.994	103.853	20.057	1.966	0.519
1312.001	738.424	80.008	19.994	103.844	20.059	1.876	0.529
1314.000	739.459	80.008	19.994	103.833	20.056	2.051	0.556
1316.001	740.442	80.006	19.994	103.872	20.057	2.022	0.499
1318.000	741.501	80.007	19.995	103.853	20.057	1.987	0.519
1320.000	742.547	80.007	19.995	103.843	20.055	2.094	0.510
1322.000	743.534	80.008	19.995	103.834	20.058	1.908	0.504