File: 01_Data/Cotton_Batting/MCC/Cotton_Batting_MCC_30K_min_220222_R1.txt
Sample ID:	C:\MCC\MCC Cal\Test\Cotton_Batting_DelCo_MCC_30K_min_220222_R1.txt
Sample Weight (mg):	4.51
Heating Rate (C/s):	0.5
Combustor Temp (C):	900
N2 Flow Rate (cc/min):	80
O2 Flow Rate (cc/min):	20
Calibration File:	C:\MCC\MCC Cal\Coeff1 JN10440_30_210304.txt.txt
T Correction Coefficients:	0	1.024463	0
Time Shift (s):	14
*
Time (s)	Temperature (C)	N2 flow rate (cc/min)	O2 flow rate (cc/min)	Flow Rate (cc/min)	Oxygen (%)	HRR (W/g)	Heating rate (C/s)
0.000	113.011	80.003	19.995	103.720	19.967	0.097	-0.016
1.499	113.055	80.004	19.997	103.733	19.967	0.107	0.011
2.999	113.004	80.003	19.994	103.744	19.968	0.020	-0.007
4.499	113.001	80.003	19.994	103.722	19.964	0.362	-0.018
5.999	113.035	80.003	19.995	103.694	19.965	0.273	0.046
7.500	113.034	80.005	19.994	103.684	19.964	0.339	0.015
8.999	113.012	80.005	19.995	103.686	19.964	0.359	0.015
10.499	113.017	80.005	19.995	103.694	19.960	0.628	-0.003
11.999	113.015	80.004	19.993	103.703	19.960	0.659	0.015
13.500	113.042	80.006	19.994	103.702	19.961	0.572	0.019
14.999	113.008	80.005	19.994	103.738	19.957	0.826	-0.006
16.500	113.076	80.006	19.994	103.757	19.955	0.973	0.040
18.000	113.063	80.006	19.993	103.774	19.955	1.019	0.011
19.499	113.118	80.004	19.994	103.779	19.953	1.138	0.041
20.999	113.138	80.005	19.994	103.753	19.951	1.305	0.021
22.499	113.192	80.004	19.993	103.763	19.943	1.834	0.053
23.999	113.235	80.004	19.993	103.759	19.943	1.829	0.028
25.500	113.329	80.002	19.994	103.801	19.942	1.944	0.057
26.999	113.448	80.003	19.994	103.857	19.937	2.257	0.080
28.499	113.546	80.003	19.994	103.883	19.939	2.170	0.084
29.999	113.670	80.001	19.993	103.915	19.933	2.545	0.081
31.499	113.806	80.001	19.993	103.899	19.933	2.580	0.084
32.999	114.002	80.002	19.994	103.878	19.926	3.102	0.147
34.499	114.204	80.001	19.994	103.895	19.926	3.050	0.132
36.000	114.371	80.002	19.993	103.908	19.930	2.814	0.096
37.500	114.609	80.001	19.993	103.916	19.927	3.022	0.157
39.000	114.823	80.002	19.994	103.921	19.926	3.079	0.149
40.499	115.093	80.003	19.993	103.918	19.926	3.054	0.172
42.000	115.381	80.003	19.993	103.912	19.925	3.175	0.192
43.499	115.641	80.002	19.994	103.906	19.923	3.282	0.174
44.999	115.924	80.004	19.994	103.899	19.922	3.364	0.187
46.500	116.222	80.003	19.994	103.898	19.922	3.329	0.211
48.000	116.544	80.004	19.993	103.902	19.923	3.301	0.214
49.499	116.884	80.003	19.995	103.888	19.925	3.170	0.193
51.000	117.214	80.004	19.993	103.884	19.922	3.365	0.238
52.499	117.547	80.004	19.994	103.896	19.920	3.500	0.226
53.999	117.947	80.002	19.994	103.896	19.917	3.753	0.265
55.499	118.323	80.003	19.994	103.907	19.924	3.197	0.267
57.000	118.695	80.003	19.995	103.938	19.918	3.651	0.228
58.499	119.072	80.003	19.995	103.937	19.918	3.661	0.258
59.999	119.486	80.001	19.995	103.931	19.916	3.816	0.269
61.500	119.914	80.001	19.994	103.947	19.917	3.715	0.282
62.999	120.345	80.003	19.994	103.945	19.917	3.746	0.276
64.500	120.835	80.002	19.994	103.965	19.915	3.863	0.298
65.999	121.274	80.002	19.995	103.977	19.913	4.002	0.297
67.499	121.745	80.003	19.994	103.959	19.911	4.127	0.313
69.000	122.243	80.002	19.994	103.956	19.914	3.946	0.330
70.500	122.745	80.003	19.994	103.955	19.914	3.923	0.335
71.999	123.246	80.005	19.995	103.958	19.914	3.907	0.337
73.499	123.744	80.005	19.994	103.958	19.916	3.780	0.331
74.999	124.282	80.003	19.994	103.959	19.911	4.186	0.356
76.499	124.799	80.003	19.993	103.956	19.910	4.230	0.374
78.000	125.350	80.004	19.995	103.955	19.912	4.095	0.348
79.499	125.873	80.004	19.995	103.951	19.911	4.131	0.351
81.000	126.484	80.003	19.995	103.954	19.911	4.165	0.423
82.499	127.090	80.003	19.994	103.959	19.910	4.207	0.395
84.000	127.650	80.003	19.994	103.964	19.910	4.201	0.365
85.499	128.277	80.002	19.995	103.975	19.908	4.348	0.400
86.999	128.860	80.003	19.995	103.982	19.911	4.177	0.373
88.500	129.489	80.003	19.995	103.990	19.910	4.233	0.415
89.999	130.106	80.004	19.996	103.971	19.905	4.569	0.429
91.499	130.741	80.003	19.995	103.956	19.906	4.498	0.438
92.999	131.402	80.003	19.996	103.955	19.907	4.454	0.453
94.499	131.965	80.004	19.995	103.961	19.908	4.342	0.388
95.999	132.657	80.005	19.995	103.960	19.905	4.546	0.475
97.500	133.328	80.004	19.993	103.969	19.909	4.265	0.438
98.999	133.981	80.004	19.993	103.974	19.909	4.268	0.457
100.499	134.645	80.004	19.993	103.989	19.907	4.451	0.444
101.999	135.304	80.005	19.993	104.003	19.910	4.237	0.425
103.499	135.998	80.005	19.993	104.003	19.911	4.160	0.442
104.999	136.679	80.004	19.993	103.985	19.904	4.632	0.461
106.499	137.404	80.004	19.993	103.959	19.902	4.774	0.470
107.999	138.101	80.002	19.993	103.940	19.906	4.528	0.464
109.500	138.769	80.001	19.993	103.940	19.905	4.566	0.451
110.999	139.473	80.002	19.994	103.956	19.908	4.393	0.462
112.499	140.185	80.002	19.993	103.970	19.909	4.326	0.483
114.000	140.928	80.001	19.993	103.974	19.904	4.681	0.499
115.499	141.619	80.004	19.994	103.967	19.907	4.419	0.440
116.999	142.377	80.002	19.992	103.963	19.904	4.677	0.499
118.499	143.071	80.003	19.994	103.958	19.902	4.780	0.471
119.999	143.877	80.001	19.992	103.965	19.908	4.355	0.525
121.499	144.597	80.003	19.994	103.969	19.910	4.236	0.501
122.999	145.341	80.002	19.993	103.967	19.907	4.404	0.486
124.499	146.097	80.002	19.994	103.967	19.909	4.323	0.511
125.999	146.859	80.003	19.995	103.964	19.903	4.701	0.505
127.499	147.540	80.002	19.994	103.967	19.904	4.639	0.457
129.000	148.333	80.004	19.994	103.963	19.909	4.326	0.522
130.499	149.124	80.004	19.994	103.958	19.906	4.475	0.534
131.999	149.855	80.003	19.993	103.946	19.910	4.237	0.474
133.499	150.630	80.003	19.993	103.931	19.908	4.394	0.495
134.999	151.357	80.003	19.994	103.926	19.909	4.314	0.453
136.499	152.142	80.002	19.993	103.961	19.908	4.387	0.527
137.999	152.882	80.002	19.993	103.964	19.908	4.384	0.518
139.499	153.670	80.002	19.993	103.960	19.908	4.328	0.543
141.000	154.406	80.002	19.993	103.976	19.912	4.089	0.496
142.499	155.168	80.002	19.994	103.942	19.910	4.214	0.507
143.999	155.940	80.002	19.994	103.938	19.912	4.096	0.502
145.499	156.733	80.002	19.993	103.948	19.905	4.561	0.543
147.000	157.520	80.002	19.994	103.951	19.908	4.394	0.513
148.499	158.303	80.001	19.993	103.944	19.909	4.319	0.518
149.999	159.011	80.004	19.994	103.934	19.912	4.111	0.464
151.499	159.830	80.003	19.994	103.933	19.909	4.261	0.535
152.999	160.583	80.004	19.996	103.938	19.910	4.211	0.493
154.499	161.356	80.003	19.994	103.922	19.911	4.145	0.528
156.000	162.098	80.002	19.994	103.933	19.910	4.210	0.489
157.499	162.850	80.004	19.995	103.944	19.911	4.135	0.507
159.000	163.611	80.005	19.993	103.931	19.909	4.267	0.501
160.500	164.367	80.003	19.994	103.941	19.911	4.167	0.514
162.000	165.183	80.003	19.993	103.937	19.909	4.297	0.529
163.499	165.944	80.004	19.994	103.920	19.911	4.157	0.504
164.999	166.674	80.003	19.993	103.909	19.910	4.239	0.510
166.499	167.464	80.003	19.993	103.937	19.918	3.677	0.524
167.999	168.236	80.002	19.993	103.957	19.915	3.836	0.515
169.499	169.006	80.003	19.994	103.939	19.913	3.971	0.495
170.999	169.742	80.001	19.993	103.919	19.911	4.121	0.481
172.499	170.511	80.003	19.993	103.932	19.911	4.151	0.530
173.999	171.202	80.004	19.993	103.952	19.913	4.038	0.475
175.499	171.973	80.003	19.993	103.940	19.913	4.009	0.517
176.999	172.763	80.003	19.994	103.918	19.919	3.576	0.520
178.499	173.500	80.004	19.995	103.907	19.911	4.157	0.516
180.000	174.232	80.004	19.995	103.907	19.914	3.951	0.488
181.499	174.955	80.004	19.994	103.898	19.912	4.088	0.482
182.999	175.719	80.004	19.995	103.893	19.907	4.437	0.488
184.499	176.478	80.004	19.994	103.914	19.916	3.781	0.533
185.999	177.232	80.002	19.995	103.916	19.910	4.189	0.495
187.500	178.013	80.002	19.994	103.921	19.914	3.918	0.537
188.999	178.732	80.002	19.994	103.915	19.912	4.093	0.483
190.499	179.499	80.003	19.995	103.911	19.911	4.117	0.521
192.000	180.237	80.003	19.995	103.917	19.913	4.006	0.502
193.499	180.945	80.002	19.995	103.918	19.910	4.249	0.480
195.000	181.726	80.003	19.995	103.918	19.910	4.193	0.511
196.500	182.501	80.003	19.994	103.917	19.912	4.109	0.522
197.999	183.166	80.003	19.994	103.893	19.912	4.063	0.455
199.499	183.895	80.004	19.994	103.893	19.911	4.139	0.505
200.999	184.645	80.003	19.994	103.913	19.907	4.463	0.497
202.499	185.394	80.004	19.994	103.901	19.912	4.084	0.489
204.000	186.180	80.004	19.994	103.909	19.918	3.610	0.526
205.500	186.909	80.003	19.995	103.914	19.914	3.951	0.494
206.999	187.660	80.002	19.994	103.899	19.911	4.153	0.500
208.500	188.378	80.004	19.994	103.895	19.917	3.689	0.461
209.999	189.156	80.003	19.993	103.909	19.914	3.901	0.544
211.499	189.903	80.004	19.995	103.918	19.917	3.681	0.512
212.999	190.634	80.002	19.994	103.918	19.916	3.755	0.496
214.500	191.340	80.000	19.995	103.916	19.916	3.784	0.472
215.999	192.076	80.002	19.994	103.909	19.915	3.848	0.483
217.499	192.822	80.003	19.994	103.908	19.917	3.709	0.473
218.999	193.555	80.003	19.993	103.910	19.911	4.111	0.498
220.500	194.322	80.002	19.993	103.903	19.913	4.006	0.501
222.000	195.027	80.003	19.993	103.910	19.912	4.073	0.470
223.499	195.776	80.001	19.993	103.912	19.915	3.843	0.494
225.000	196.554	80.003	19.994	103.906	19.916	3.813	0.513
226.499	197.280	80.002	19.994	103.913	19.914	3.934	0.475
227.999	198.031	80.003	19.994	103.918	19.914	3.923	0.482
229.499	198.726	80.003	19.992	103.913	19.914	3.967	0.460
230.999	199.477	80.003	19.992	103.895	19.914	3.927	0.486
232.499	200.211	80.005	19.992	103.894	19.909	4.273	0.488
233.999	200.920	80.002	19.993	103.890	19.913	3.970	0.494
235.499	201.689	80.006	19.993	103.888	19.911	4.161	0.509
236.999	202.403	80.003	19.993	103.886	19.912	4.077	0.477
238.499	203.133	80.004	19.994	103.891	19.914	3.955	0.519
239.999	203.889	80.004	19.994	103.909	19.917	3.726	0.481
241.500	204.613	80.004	19.995	103.916	19.909	4.261	0.491
243.000	205.376	80.002	19.994	103.923	19.922	3.341	0.497
244.499	206.079	80.003	19.995	103.937	19.915	3.840	0.469
246.000	206.852	80.004	19.995	103.950	19.922	3.324	0.518
247.499	207.580	80.002	19.995	103.950	19.917	3.723	0.486
249.000	208.332	80.004	19.995	103.931	19.912	4.051	0.519
250.499	209.050	80.004	19.995	103.905	19.917	3.709	0.487
251.999	209.825	80.003	19.994	103.873	19.919	3.602	0.496
253.499	210.589	80.002	19.994	103.872	19.912	4.040	0.507
255.000	211.277	80.006	19.995	103.864	19.917	3.732	0.454
256.500	212.072	80.005	19.995	103.846	19.914	3.931	0.516
257.999	212.801	80.004	19.994	103.859	19.914	3.927	0.471
259.499	213.522	80.006	19.994	103.874	19.917	3.735	0.491
260.999	214.280	80.006	19.994	103.904	19.913	4.009	0.523
262.499	214.988	80.004	19.993	103.919	19.909	4.256	0.480
264.000	215.771	80.007	19.993	103.905	19.916	3.821	0.520
265.499	216.518	80.004	19.994	103.896	19.913	4.038	0.494
266.999	217.263	80.001	19.994	103.902	19.914	3.915	0.506
268.500	217.958	80.002	19.994	103.913	19.919	3.559	0.459
269.999	218.724	80.001	19.996	103.884	19.914	3.916	0.501
271.499	219.488	80.001	19.995	103.862	19.919	3.587	0.501
272.999	220.216	80.003	19.995	103.891	19.913	4.016	0.497
274.500	220.999	80.002	19.997	103.893	19.914	3.962	0.533
276.000	221.731	80.001	19.996	103.907	19.917	3.721	0.483
277.499	222.478	80.002	19.995	103.907	19.915	3.893	0.499
278.999	223.247	80.004	19.997	103.886	19.921	3.396	0.529
280.500	223.946	80.001	19.995	103.883	19.919	3.565	0.468
281.999	224.717	80.001	19.995	103.889	19.909	4.281	0.499
283.499	225.471	80.001	19.994	103.895	19.910	4.201	0.514
284.999	226.188	80.003	19.995	103.902	19.914	3.965	0.484
286.500	226.945	80.003	19.995	103.881	19.908	4.371	0.501
288.000	227.682	80.004	19.993	103.844	19.913	3.995	0.494
289.499	228.489	80.003	19.995	103.863	19.914	3.960	0.537
290.999	229.261	80.002	19.992	103.869	19.917	3.710	0.506
292.499	229.975	80.005	19.994	103.874	19.915	3.841	0.487
293.999	230.743	80.001	19.993	103.919	19.916	3.815	0.517
295.500	231.455	80.003	19.995	103.933	19.915	3.844	0.471
297.000	232.212	80.002	19.995	103.920	19.914	3.942	0.483
298.499	232.934	80.001	19.993	103.889	19.919	3.599	0.494
299.999	233.696	80.002	19.994	103.883	19.920	3.517	0.514
301.499	234.483	80.002	19.994	103.885	19.916	3.807	0.535
302.999	235.200	80.002	19.992	103.883	19.914	3.898	0.499
304.499	235.999	80.001	19.994	103.882	19.914	3.900	0.523
305.999	236.742	80.003	19.995	103.867	19.913	3.976	0.492
307.500	237.480	80.003	19.996	103.879	19.919	3.547	0.505
308.999	238.202	80.001	19.994	103.883	19.919	3.568	0.470
310.500	238.963	80.002	19.996	103.881	19.918	3.632	0.515
311.999	239.715	80.003	19.994	103.878	19.918	3.627	0.499
313.499	240.463	80.003	19.994	103.879	19.919	3.572	0.512
314.999	241.200	80.003	19.994	103.879	19.922	3.330	0.496
316.499	241.952	80.005	19.993	103.886	19.918	3.614	0.504
317.999	242.717	80.004	19.994	103.882	19.923	3.264	0.509
319.499	243.438	80.005	19.994	103.861	19.917	3.706	0.481
321.000	244.190	80.005	19.993	103.859	19.919	3.575	0.511
322.500	244.915	80.005	19.993	103.854	19.920	3.522	0.488
324.000	245.677	80.004	19.993	103.861	19.911	4.151	0.498
325.499	246.422	80.003	19.992	103.861	19.916	3.761	0.490
327.000	247.154	80.004	19.995	103.862	19.915	3.833	0.492
328.499	247.893	80.003	19.993	103.879	19.920	3.524	0.506
329.999	248.641	80.002	19.992	103.880	19.912	4.059	0.487
331.499	249.381	80.002	19.994	103.875	19.918	3.627	0.488
332.999	250.186	80.002	19.995	103.877	19.914	3.896	0.540
334.499	250.891	80.004	19.995	103.905	19.916	3.798	0.480
336.000	251.644	80.005	19.996	103.918	19.917	3.721	0.504
337.499	252.403	80.005	19.995	103.907	19.914	3.937	0.509
338.999	253.127	80.005	19.995	103.889	19.917	3.713	0.494
340.500	253.857	80.005	19.994	103.890	19.914	3.943	0.493
341.999	254.648	80.005	19.994	103.891	19.916	3.819	0.520
343.499	255.392	80.006	19.996	103.882	19.916	3.801	0.505
344.999	256.135	80.007	19.995	103.871	19.921	3.424	0.485
346.499	256.858	80.004	19.994	103.853	19.918	3.624	0.473
347.999	257.583	80.004	19.993	103.855	19.919	3.588	0.459
349.500	258.315	80.004	19.994	103.860	19.920	3.521	0.475
350.999	259.062	80.003	19.994	103.865	19.921	3.430	0.512
352.499	259.830	80.003	19.994	103.880	19.917	3.709	0.511
354.000	260.525	80.003	19.995	103.875	19.913	4.006	0.483
355.500	261.287	80.001	19.994	103.866	19.920	3.527	0.487
357.000	262.073	80.003	19.994	103.870	19.917	3.741	0.523
358.499	262.804	80.003	19.993	103.869	19.918	3.659	0.490
359.999	263.536	80.001	19.993	103.858	19.919	3.564	0.482
361.499	264.272	80.001	19.994	103.867	19.917	3.732	0.484
362.999	264.998	80.002	19.994	103.872	19.916	3.750	0.473
364.500	265.746	80.002	19.995	103.860	19.916	3.777	0.507
365.999	266.523	80.002	19.994	103.861	19.914	3.896	0.512
367.499	267.232	80.002	19.994	103.871	19.912	4.103	0.479
368.999	268.001	80.002	19.995	103.860	19.914	3.911	0.536
370.499	268.702	80.001	19.996	103.859	19.915	3.831	0.454
371.999	269.470	80.005	19.995	103.849	19.920	3.493	0.478
373.499	270.215	80.004	19.995	103.840	19.913	4.033	0.493
374.999	270.960	80.003	19.995	103.855	19.915	3.878	0.504
376.499	271.747	80.002	19.994	103.876	19.913	3.976	0.523
377.999	272.503	80.003	19.996	103.851	19.908	4.369	0.491
379.499	273.248	80.003	19.994	103.857	19.912	4.093	0.497
381.000	273.944	80.003	19.994	103.882	19.910	4.196	0.469
382.499	274.711	80.002	19.994	103.874	19.911	4.110	0.507
383.999	275.453	80.002	19.994	103.875	19.911	4.126	0.491
385.500	276.242	80.002	19.994	103.878	19.912	4.056	0.541
386.999	276.999	80.002	19.993	103.889	19.913	3.993	0.502
388.500	277.691	80.002	19.994	103.909	19.913	4.029	0.475
390.000	278.468	80.001	19.994	103.901	19.916	3.768	0.518
391.499	279.192	80.003	19.994	103.891	19.914	3.910	0.477
392.999	279.955	80.003	19.995	103.877	19.912	4.043	0.512
394.499	280.719	80.004	19.995	103.864	19.913	3.967	0.509
396.000	281.435	80.003	19.995	103.854	19.910	4.209	0.475
397.499	282.187	80.005	19.995	103.830	19.908	4.328	0.506
398.999	282.973	80.005	19.994	103.826	19.904	4.646	0.506
400.499	283.726	80.005	19.994	103.837	19.907	4.398	0.499
402.000	284.459	80.004	19.994	103.860	19.908	4.374	0.517
403.499	285.230	80.004	19.994	103.878	19.908	4.353	0.515
405.000	285.964	80.005	19.995	103.879	19.910	4.227	0.488
406.500	286.737	80.003	19.994	103.880	19.907	4.405	0.522
408.000	287.490	80.003	19.993	103.871	19.910	4.237	0.494
409.499	288.230	80.003	19.994	103.850	19.903	4.698	0.492
410.999	288.996	80.003	19.994	103.843	19.905	4.605	0.509
412.500	289.709	80.004	19.994	103.844	19.905	4.557	0.478
413.999	290.473	80.004	19.993	103.844	19.903	4.686	0.505
415.500	291.256	80.005	19.993	103.862	19.905	4.565	0.535
416.999	291.993	80.003	19.994	103.871	19.904	4.638	0.475
418.499	292.763	80.004	19.993	103.870	19.904	4.633	0.531
419.999	293.496	80.005	19.993	103.869	19.901	4.852	0.501
421.499	294.258	80.005	19.993	103.854	19.902	4.786	0.501
423.000	294.969	80.004	19.993	103.851	19.897	5.178	0.484
424.499	295.729	80.006	19.993	103.856	19.896	5.255	0.504
426.000	296.520	80.006	19.993	103.845	19.895	5.295	0.528
427.499	297.209	80.005	19.993	103.847	19.892	5.494	0.466
428.999	298.020	80.004	19.993	103.864	19.892	5.488	0.536
430.499	298.782	80.004	19.994	103.878	19.890	5.646	0.498
431.999	299.545	80.003	19.995	103.878	19.889	5.703	0.505
433.499	300.236	80.001	19.994	103.888	19.895	5.315	0.459
434.999	301.037	80.002	19.994	103.920	19.893	5.428	0.537
436.499	301.766	80.004	19.993	103.944	19.896	5.226	0.490
438.000	302.558	80.004	19.994	103.915	19.890	5.634	0.521
439.499	303.277	80.004	19.994	103.906	19.892	5.531	0.488
440.999	304.020	80.003	19.995	103.911	19.895	5.324	0.498
442.500	304.755	80.002	19.993	103.892	19.889	5.757	0.492
443.999	305.481	80.002	19.993	103.861	19.888	5.793	0.498
445.499	306.265	80.003	19.995	103.838	19.884	6.087	0.519
446.999	307.007	80.004	19.995	103.808	19.880	6.344	0.497
448.499	307.778	80.004	19.994	103.796	19.882	6.223	0.524
450.000	308.502	80.003	19.995	103.809	19.875	6.737	0.482
451.499	309.292	80.003	19.993	103.835	19.879	6.440	0.503
452.999	310.037	80.002	19.995	103.848	19.878	6.550	0.514
454.500	310.794	80.002	19.996	103.892	19.876	6.675	0.518
455.999	311.563	80.003	19.996	103.894	19.877	6.559	0.508
457.499	312.343	80.001	19.994	103.863	19.879	6.474	0.541
458.999	313.124	80.001	19.996	103.864	19.873	6.877	0.516
460.499	313.882	80.004	19.995	103.851	19.871	6.984	0.497
461.999	314.663	80.004	19.996	103.841	19.869	7.179	0.531
463.499	315.404	80.001	19.996	103.860	19.866	7.408	0.490
464.999	316.144	80.001	19.995	103.869	19.862	7.637	0.477
466.499	316.899	80.002	19.995	103.853	19.864	7.552	0.497
467.999	317.675	80.002	19.995	103.859	19.861	7.739	0.513
469.499	318.450	80.001	19.995	103.868	19.860	7.810	0.497
471.000	319.226	80.002	19.995	103.861	19.857	8.036	0.516
472.499	319.988	80.002	19.994	103.864	19.857	8.014	0.524
473.999	320.733	80.002	19.993	103.886	19.852	8.371	0.482
475.500	321.478	80.003	19.994	103.899	19.850	8.540	0.465
476.999	322.221	80.004	19.993	103.897	19.849	8.613	0.524
478.499	322.983	80.003	19.993	103.912	19.847	8.712	0.510
479.999	323.722	80.003	19.993	103.908	19.844	8.927	0.494
481.499	324.484	80.005	19.993	103.886	19.842	9.119	0.523
482.999	325.249	80.005	19.993	103.881	19.837	9.468	0.496
484.499	326.053	80.004	19.993	103.882	19.832	9.799	0.542
486.000	326.773	80.002	19.993	103.882	19.832	9.821	0.478
487.499	327.556	80.003	19.994	103.881	19.827	10.194	0.514
488.999	328.249	80.004	19.994	103.881	19.824	10.429	0.472
490.499	329.046	80.001	19.993	103.884	19.817	10.916	0.536
491.999	329.833	80.003	19.994	103.884	19.817	10.937	0.516
493.499	330.593	80.002	19.993	103.883	19.807	11.655	0.507
494.999	331.341	80.002	19.993	103.895	19.806	11.688	0.506
496.499	332.125	80.004	19.994	103.906	19.797	12.352	0.498
497.999	332.863	80.003	19.995	103.913	19.793	12.638	0.468
499.499	333.608	80.004	19.994	103.904	19.786	13.149	0.514
500.999	334.408	80.005	19.993	103.891	19.782	13.443	0.528
502.499	335.189	80.005	19.993	103.895	19.773	14.040	0.522
503.999	335.902	80.004	19.993	103.904	19.770	14.278	0.485
505.499	336.669	80.006	19.993	103.903	19.765	14.620	0.517
506.999	337.481	80.005	19.993	103.911	19.758	15.127	0.549
508.499	338.225	80.005	19.994	103.870	19.751	15.626	0.480
509.999	339.001	80.006	19.994	103.869	19.745	16.071	0.508
511.500	339.742	80.006	19.994	103.891	19.737	16.676	0.537
512.999	340.521	80.004	19.996	103.912	19.728	17.282	0.515
514.499	341.319	80.003	19.994	103.901	19.730	17.147	0.539
515.999	342.021	80.003	19.994	103.877	19.734	16.841	0.459
517.499	342.810	80.003	19.994	103.871	19.741	16.363	0.507
518.999	343.548	80.003	19.993	103.878	19.749	15.831	0.504
520.499	344.311	80.002	19.995	103.891	19.747	15.935	0.498
521.999	345.036	80.001	19.994	103.916	19.749	15.783	0.473
523.499	345.792	80.002	19.994	103.927	19.745	16.088	0.502
524.999	346.569	80.003	19.995	103.932	19.735	16.781	0.509
526.500	347.309	80.003	19.994	103.935	19.728	17.278	0.506
527.999	348.044	80.002	19.995	103.942	19.715	18.236	0.468
529.500	348.806	80.002	19.994	103.955	19.711	18.538	0.494
530.999	349.596	80.004	19.994	103.929	19.701	19.265	0.525
532.499	350.356	80.001	19.995	103.891	19.692	19.859	0.526
533.999	351.128	80.003	19.994	103.873	19.673	21.238	0.507
535.499	351.880	80.003	19.995	103.896	19.657	22.398	0.500
536.999	352.612	80.003	19.994	103.936	19.634	24.062	0.492
538.499	353.441	80.003	19.994	103.967	19.625	24.721	0.535
539.999	354.222	80.002	19.995	103.959	19.626	24.665	0.523
541.500	354.993	80.003	19.995	103.878	19.627	24.535	0.511
543.000	355.735	80.003	19.994	103.826	19.627	24.546	0.507
544.499	356.511	80.001	19.994	103.850	19.614	25.513	0.515
545.999	357.280	80.002	19.995	103.937	19.593	27.022	0.505
547.499	358.022	80.003	19.994	104.018	19.563	29.180	0.480
549.000	358.839	80.001	19.995	104.054	19.538	30.987	0.530
550.500	359.568	80.000	19.995	104.023	19.527	31.807	0.512
552.000	360.406	80.001	19.995	103.926	19.524	31.963	0.538
553.500	361.182	80.001	19.995	103.847	19.524	31.985	0.529
555.000	361.968	80.002	19.995	103.844	19.524	31.928	0.518
556.499	362.714	80.002	19.995	103.889	19.513	32.743	0.506
557.999	363.451	80.001	19.995	103.935	19.489	34.474	0.502
559.499	364.242	80.002	19.994	104.009	19.472	35.741	0.530
560.999	365.074	80.005	19.995	104.040	19.470	35.895	0.550
562.499	365.859	80.003	19.994	103.976	19.464	36.357	0.513
564.000	366.597	80.004	19.994	103.889	19.466	36.204	0.487
565.499	367.353	80.004	19.994	103.867	19.467	36.109	0.527
566.999	368.112	80.003	19.995	103.886	19.457	36.818	0.521
568.499	368.886	80.002	19.993	103.949	19.424	39.118	0.536
569.999	369.632	80.005	19.994	104.041	19.383	42.125	0.514
571.499	370.405	80.003	19.994	104.093	19.332	45.789	0.494
573.000	371.170	80.003	19.996	104.099	19.282	49.431	0.509
574.499	371.939	80.002	19.994	104.070	19.231	53.163	0.518
575.999	372.722	80.003	19.995	104.020	19.199	55.410	0.534
577.500	373.543	80.004	19.994	103.958	19.193	55.873	0.535
578.999	374.296	80.004	19.993	103.874	19.195	55.684	0.513
580.499	375.105	80.004	19.994	103.864	19.196	55.642	0.521
581.999	375.903	80.004	19.993	103.917	19.187	56.284	0.539
583.499	376.692	80.006	19.993	104.005	19.175	57.137	0.529
584.999	377.460	80.006	19.994	104.094	19.162	58.130	0.506
586.499	378.180	80.005	19.994	104.122	19.153	58.701	0.480
587.999	378.953	80.006	19.994	104.086	19.147	59.168	0.501
589.499	379.722	80.005	19.995	104.042	19.130	60.408	0.494
590.999	380.507	80.005	19.994	104.036	19.112	61.716	0.512
592.499	381.304	80.004	19.993	104.061	19.095	62.978	0.516
593.999	382.063	80.003	19.995	104.095	19.077	64.335	0.517
595.499	382.845	80.003	19.994	104.109	19.060	65.550	0.520
596.999	383.602	80.003	19.994	104.090	19.049	66.286	0.503
598.500	384.377	80.003	19.994	104.067	19.033	67.430	0.494
599.999	385.138	80.003	19.994	104.054	19.010	69.066	0.521
601.499	385.907	80.004	19.994	104.097	18.958	72.786	0.508
602.999	386.635	80.002	19.994	104.182	18.889	77.678	0.491
604.499	387.378	80.004	19.993	104.234	18.810	83.402	0.498
606.000	388.149	80.002	19.994	104.254	18.730	89.258	0.522
607.499	388.914	80.003	19.993	104.240	18.652	94.979	0.507
608.999	389.668	80.002	19.994	104.197	18.585	99.841	0.488
610.499	390.429	80.002	19.994	104.173	18.557	101.803	0.508
611.999	391.205	80.003	19.994	104.099	18.560	101.518	0.510
613.500	391.954	80.003	19.994	104.012	18.565	101.137	0.500
614.999	392.742	80.001	19.995	104.031	18.565	101.190	0.535
616.499	393.484	80.003	19.995	104.107	18.555	101.953	0.502
617.999	394.328	80.003	19.994	104.216	18.543	102.844	0.551
619.499	395.053	80.002	19.995	104.269	18.538	103.139	0.495
620.999	395.875	80.002	19.994	104.281	18.529	103.813	0.558
622.499	396.593	80.002	19.994	104.215	18.526	104.022	0.489
623.999	397.380	80.001	19.993	104.178	18.511	105.151	0.522
625.499	398.180	80.004	19.994	104.194	18.488	106.789	0.512
626.999	398.946	80.002	19.995	104.244	18.463	108.607	0.530
628.499	399.700	80.001	19.994	104.279	18.433	110.720	0.526
629.999	400.474	80.002	19.994	104.245	18.400	113.121	0.517
631.499	401.226	80.001	19.994	104.227	18.371	115.239	0.492
632.999	402.014	80.004	19.996	104.241	18.346	117.102	0.524
634.499	402.773	80.002	19.995	104.253	18.319	118.984	0.496
635.999	403.513	80.002	19.995	104.268	18.294	120.836	0.506
637.499	404.277	80.004	19.994	104.253	18.264	122.975	0.499
638.999	405.047	80.005	19.995	104.241	18.236	125.035	0.507
640.499	405.827	80.005	19.996	104.253	18.209	126.943	0.520
642.000	406.603	80.004	19.995	104.265	18.182	128.885	0.513
643.500	407.380	80.004	19.995	104.288	18.160	130.514	0.512
644.999	408.133	80.005	19.996	104.282	18.131	132.576	0.487
646.499	408.843	80.003	19.995	104.283	18.111	134.020	0.469
647.999	409.619	80.004	19.994	104.267	18.094	135.293	0.495
649.499	410.368	80.005	19.995	104.295	18.076	136.531	0.490
650.999	411.084	80.005	19.996	104.290	18.059	137.797	0.489
652.499	411.870	80.004	19.995	104.279	18.047	138.662	0.507
653.999	412.620	80.002	19.995	104.297	18.037	139.308	0.512
655.499	413.324	80.003	19.995	104.308	18.029	139.868	0.466
656.999	414.089	80.004	19.996	104.307	18.027	140.042	0.502
658.499	414.816	80.003	19.994	104.305	18.018	140.652	0.476
659.999	415.560	80.005	19.994	104.295	18.022	140.369	0.493
661.499	416.346	80.003	19.993	104.280	18.028	139.944	0.516
662.999	417.084	80.006	19.993	104.280	18.036	139.304	0.494
664.499	417.869	80.004	19.995	104.273	18.053	138.125	0.517
665.999	418.572	80.005	19.993	104.263	18.073	136.635	0.478
667.499	419.345	80.005	19.994	104.238	18.094	135.115	0.531
668.999	420.092	80.006	19.993	104.231	18.128	132.688	0.487
670.499	420.812	80.005	19.994	104.232	18.163	130.099	0.486
672.000	421.595	80.006	19.994	104.219	18.197	127.591	0.519
673.499	422.329	80.003	19.994	104.207	18.237	124.706	0.493
674.999	423.075	80.003	19.994	104.217	18.286	121.135	0.507
676.499	423.854	80.004	19.993	104.201	18.336	117.522	0.528
677.999	424.592	80.002	19.994	104.193	18.382	114.178	0.485
679.500	425.376	80.003	19.995	104.184	18.431	110.695	0.524
680.999	426.096	80.003	19.993	104.160	18.488	106.527	0.474
682.499	426.844	80.001	19.994	104.130	18.544	102.485	0.510
683.999	427.600	80.003	19.994	104.111	18.597	98.711	0.521
685.499	428.390	80.001	19.994	104.090	18.654	94.590	0.518
687.000	429.158	80.001	19.993	104.076	18.711	90.475	0.522
688.499	429.889	80.003	19.994	104.056	18.767	86.449	0.476
689.999	430.641	80.003	19.993	104.042	18.823	82.391	0.543
691.499	431.407	80.003	19.993	104.031	18.884	77.998	0.526
692.999	432.142	80.003	19.994	104.010	18.938	74.102	0.491
694.500	432.915	80.006	19.993	104.004	18.990	70.340	0.523
695.999	433.683	80.004	19.994	103.979	19.044	66.445	0.523
697.500	434.466	80.004	19.993	103.960	19.100	62.464	0.529
698.999	435.236	80.004	19.994	103.959	19.147	59.053	0.516
700.500	435.996	80.004	19.993	103.959	19.193	55.770	0.521
701.999	436.747	80.003	19.993	103.956	19.235	52.710	0.506
703.499	437.506	80.003	19.994	103.945	19.275	49.858	0.520
704.999	438.252	80.001	19.994	103.933	19.317	46.823	0.501
706.499	439.019	80.003	19.994	103.908	19.350	44.438	0.504
707.999	439.789	80.002	19.995	103.907	19.376	42.589	0.514
709.500	440.548	80.003	19.996	103.909	19.406	40.425	0.504
711.000	441.289	80.002	19.994	103.891	19.427	38.928	0.502
712.500	442.031	80.002	19.994	103.882	19.461	36.457	0.482
714.000	442.785	80.002	19.995	103.879	19.483	34.902	0.519
715.500	443.556	80.003	19.995	103.879	19.501	33.616	0.512
716.999	444.321	80.002	19.994	103.866	19.517	32.415	0.504
718.499	445.081	80.003	19.994	103.848	19.535	31.146	0.517
719.999	445.835	80.004	19.995	103.845	19.550	30.082	0.509
721.499	446.593	80.004	19.994	103.846	19.560	29.342	0.504
722.999	447.346	80.004	19.995	103.850	19.578	28.083	0.493
724.499	448.123	80.003	19.994	103.857	19.586	27.519	0.519
726.000	448.870	80.005	19.994	103.861	19.601	26.411	0.507
727.499	449.638	80.005	19.994	103.845	19.604	26.195	0.523
728.999	450.389	80.003	19.993	103.842	19.613	25.582	0.513
730.499	451.129	80.003	19.995	103.849	19.619	25.145	0.491
731.999	451.897	80.003	19.995	103.857	19.624	24.740	0.489
733.499	452.658	80.004	19.995	103.856	19.632	24.151	0.500
734.999	453.459	80.004	19.995	103.845	19.640	23.598	0.532
736.500	454.212	80.003	19.995	103.843	19.639	23.665	0.502
737.999	454.952	80.002	19.995	103.843	19.648	23.022	0.489
739.499	455.752	80.003	19.995	103.841	19.648	23.065	0.521
740.999	456.498	80.003	19.996	103.844	19.650	22.878	0.496
742.499	457.269	80.004	19.994	103.844	19.655	22.546	0.512
743.999	458.004	80.003	19.994	103.835	19.652	22.751	0.485
745.499	458.784	80.002	19.994	103.820	19.653	22.634	0.509
746.999	459.575	80.005	19.994	103.808	19.657	22.348	0.526
748.500	460.336	80.004	19.993	103.827	19.659	22.274	0.524
750.000	461.116	80.006	19.993	103.842	19.659	22.274	0.513
751.499	461.901	80.004	19.993	103.836	19.658	22.336	0.537
752.999	462.610	80.003	19.995	103.856	19.657	22.425	0.474
754.499	463.401	80.004	19.994	103.852	19.653	22.673	0.518
755.999	464.156	80.004	19.993	103.810	19.653	22.690	0.505
757.499	464.932	80.003	19.993	103.797	19.654	22.624	0.517
758.999	465.656	80.003	19.994	103.800	19.652	22.749	0.495
760.499	466.418	80.001	19.994	103.819	19.653	22.692	0.505
761.999	467.195	80.003	19.995	103.834	19.652	22.756	0.521
763.500	467.977	80.003	19.994	103.853	19.654	22.608	0.509
764.999	468.724	80.003	19.994	103.877	19.652	22.756	0.510
766.499	469.464	80.002	19.994	103.869	19.651	22.848	0.505
767.999	470.261	80.004	19.995	103.850	19.649	22.972	0.517
769.500	471.020	80.002	19.994	103.837	19.649	22.946	0.477
770.999	471.815	80.002	19.996	103.789	19.648	23.018	0.527
772.499	472.554	80.004	19.994	103.808	19.650	22.906	0.485
774.000	473.372	80.002	19.994	103.842	19.647	23.105	0.540
775.499	474.183	80.002	19.993	103.845	19.645	23.256	0.534
776.999	474.936	80.003	19.994	103.832	19.642	23.443	0.507
778.499	475.723	80.004	19.995	103.823	19.640	23.579	0.521
779.999	476.503	80.004	19.994	103.809	19.643	23.385	0.516
781.499	477.298	80.003	19.994	103.801	19.639	23.708	0.535
782.999	478.064	80.003	19.994	103.802	19.637	23.806	0.516
784.499	478.835	80.003	19.994	103.804	19.641	23.573	0.502
786.000	479.595	80.004	19.993	103.811	19.640	23.624	0.516
787.499	480.360	80.002	19.993	103.809	19.640	23.575	0.501
788.999	481.148	80.003	19.994	103.818	19.639	23.663	0.517
790.499	481.875	80.003	19.994	103.816	19.644	23.334	0.474
791.999	482.675	80.003	19.994	103.804	19.640	23.634	0.536
793.500	483.448	80.004	19.994	103.819	19.640	23.576	0.522
794.999	484.170	80.003	19.994	103.828	19.644	23.320	0.481
796.499	484.992	80.003	19.993	103.830	19.643	23.363	0.526
798.000	485.766	80.002	19.994	103.825	19.649	22.989	0.524
799.499	486.517	80.004	19.994	103.832	19.649	22.950	0.490
801.000	487.276	80.004	19.994	103.820	19.650	22.860	0.507
802.499	488.069	80.002	19.994	103.810	19.659	22.268	0.538
803.999	488.826	80.003	19.994	103.808	19.657	22.347	0.502
805.499	489.559	80.004	19.995	103.804	19.659	22.269	0.484
807.000	490.363	80.003	19.994	103.803	19.665	21.774	0.526
808.499	491.112	80.004	19.995	103.800	19.666	21.703	0.515
809.999	491.851	80.003	19.994	103.794	19.669	21.507	0.490
811.499	492.624	80.004	19.994	103.799	19.673	21.258	0.523
812.999	493.432	80.004	19.996	103.793	19.678	20.867	0.543
814.499	494.204	80.001	19.994	103.802	19.681	20.669	0.524
815.999	494.945	80.002	19.993	103.803	19.683	20.486	0.507
817.499	495.718	80.002	19.994	103.805	19.690	20.009	0.508
818.999	496.503	80.002	19.994	103.802	19.695	19.681	0.542
820.499	497.284	80.004	19.995	103.800	19.699	19.366	0.535
822.000	498.060	80.004	19.994	103.803	19.705	18.911	0.512
823.499	498.821	80.003	19.994	103.805	19.714	18.309	0.519
825.000	499.611	80.004	19.995	103.806	19.713	18.328	0.511
826.500	500.349	80.003	19.994	103.822	19.721	17.761	0.493
828.000	501.110	80.004	19.994	103.815	19.725	17.513	0.505
829.499	501.894	80.004	19.995	103.810	19.730	17.154	0.524
830.999	502.657	80.004	19.994	103.793	19.739	16.469	0.524
832.499	503.421	80.004	19.995	103.782	19.742	16.304	0.509
833.999	504.197	80.004	19.995	103.787	19.745	16.052	0.546
835.499	504.982	80.003	19.994	103.798	19.757	15.236	0.527
836.999	505.741	80.002	19.995	103.798	19.762	14.877	0.508
838.499	506.535	80.001	19.995	103.786	19.765	14.632	0.510
839.999	507.306	80.001	19.995	103.784	19.769	14.321	0.520
841.500	508.098	80.003	19.995	103.816	19.778	13.704	0.524
843.000	508.891	80.001	19.995	103.820	19.785	13.206	0.539
844.500	509.666	80.002	19.994	103.802	19.792	12.661	0.534
845.999	510.477	80.003	19.994	103.800	19.797	12.318	0.535
847.499	511.171	80.003	19.994	103.802	19.799	12.153	0.493
848.999	511.952	80.003	19.994	103.802	19.803	11.871	0.504
850.499	512.743	80.002	19.994	103.802	19.810	11.386	0.520
851.999	513.547	80.004	19.995	103.807	19.817	10.862	0.528
853.499	514.347	80.002	19.994	103.826	19.823	10.492	0.525
854.999	515.177	80.004	19.995	103.811	19.825	10.354	0.554
856.499	515.912	80.003	19.994	103.768	19.830	9.954	0.489
858.000	516.736	80.004	19.994	103.795	19.831	9.856	0.529
859.499	517.497	80.002	19.994	103.807	19.840	9.252	0.510
860.999	518.255	80.004	19.993	103.814	19.839	9.344	0.517
862.499	519.061	80.003	19.994	103.815	19.847	8.711	0.525
863.999	519.857	80.002	19.994	103.812	19.851	8.444	0.541
865.499	520.647	80.003	19.994	103.804	19.853	8.282	0.526
866.999	521.406	80.002	19.994	103.790	19.855	8.129	0.520
868.499	522.175	80.003	19.994	103.785	19.858	7.939	0.536
869.999	522.960	80.001	19.995	103.807	19.860	7.797	0.527
871.499	523.739	80.001	19.994	103.826	19.861	7.718	0.516
872.999	524.509	80.002	19.994	103.819	19.865	7.429	0.505
874.499	525.281	80.000	19.994	103.798	19.863	7.579	0.496
876.000	526.032	80.003	19.993	103.800	19.863	7.559	0.500
877.500	526.849	80.002	19.994	103.806	19.866	7.403	0.548
878.999	527.584	80.002	19.994	103.799	19.871	6.993	0.505
880.499	528.404	80.004	19.993	103.806	19.871	7.002	0.527
881.999	529.134	80.003	19.994	103.810	19.873	6.889	0.500
883.499	529.939	80.005	19.993	103.813	19.870	7.070	0.528
884.999	530.709	80.004	19.992	103.813	19.874	6.807	0.504
886.499	531.518	80.000	19.995	103.807	19.878	6.524	0.531
887.999	532.241	80.003	19.994	103.809	19.881	6.310	0.476
889.499	533.036	80.005	19.994	103.817	19.881	6.324	0.515
890.999	533.788	80.003	19.993	103.805	19.881	6.332	0.503
892.499	534.560	80.004	19.994	103.804	19.879	6.423	0.518
893.999	535.325	80.004	19.993	103.808	19.882	6.210	0.506
895.500	536.167	80.000	19.994	103.797	19.881	6.308	0.540
896.999	536.917	80.002	19.994	103.793	19.883	6.157	0.488
898.499	537.653	80.004	19.994	103.801	19.883	6.122	0.494
899.999	538.441	80.004	19.995	103.803	19.882	6.224	0.527
901.499	539.232	80.005	19.995	103.806	19.880	6.356	0.525
902.999	539.986	80.004	19.994	103.804	19.885	6.020	0.508
904.500	540.753	80.006	19.995	103.808	19.885	6.020	0.507
905.999	541.487	80.005	19.993	103.805	19.887	5.882	0.485
907.499	542.266	80.004	19.994	103.789	19.888	5.807	0.538
908.999	543.035	80.005	19.994	103.789	19.887	5.845	0.508
910.500	543.792	80.008	19.994	103.809	19.888	5.765	0.516
911.999	544.557	80.004	19.995	103.805	19.890	5.660	0.487
913.499	545.317	80.004	19.998	103.817	19.887	5.898	0.491
914.999	546.132	80.004	19.996	103.824	19.891	5.597	0.545
916.500	546.873	80.004	19.994	103.801	19.887	5.837	0.479
917.999	547.678	80.004	19.994	103.796	19.888	5.795	0.519
919.500	548.438	80.002	19.995	103.807	19.887	5.853	0.493
920.999	549.212	80.001	19.996	103.819	19.893	5.404	0.528
922.499	549.994	80.002	19.995	103.822	19.887	5.836	0.526
923.999	550.752	80.002	19.995	103.805	19.892	5.477	0.517
925.500	551.540	80.003	19.995	103.797	19.888	5.819	0.523
926.999	552.295	80.003	19.995	103.806	19.890	5.646	0.507
928.500	553.077	80.001	19.996	103.826	19.893	5.404	0.497
929.999	553.859	80.002	19.994	103.838	19.896	5.248	0.532
931.500	554.640	80.003	19.995	103.824	19.896	5.208	0.521
932.999	555.436	80.001	19.996	103.823	19.895	5.328	0.532
934.499	556.167	80.003	19.995	103.815	19.897	5.136	0.492
935.999	556.955	80.002	19.994	103.811	19.898	5.085	0.539
937.499	557.745	80.004	19.994	103.793	19.896	5.187	0.532
938.999	558.490	80.003	19.994	103.785	19.892	5.539	0.503
940.500	559.245	80.003	19.993	103.799	19.898	5.056	0.504
941.999	560.059	80.001	19.994	103.799	19.895	5.328	0.545
943.499	560.823	80.001	19.994	103.799	19.897	5.122	0.490
944.999	561.608	80.004	19.993	103.807	19.898	5.112	0.514
946.499	562.373	80.002	19.994	103.816	19.901	4.833	0.520
948.000	563.137	80.001	19.994	103.808	19.901	4.868	0.515
949.500	563.911	80.003	19.994	103.796	19.904	4.626	0.531
950.999	564.638	80.003	19.994	103.803	19.901	4.828	0.508
952.499	565.405	80.002	19.995	103.804	19.902	4.763	0.499
953.999	566.166	80.009	19.992	103.802	19.902	4.797	0.516
955.499	566.941	80.003	19.994	103.803	19.903	4.741	0.514
957.000	567.721	80.002	19.994	103.812	19.900	4.945	0.530
958.499	568.503	80.003	19.995	103.814	19.900	4.965	0.540
959.999	569.239	80.005	19.995	103.801	19.904	4.614	0.492
961.499	570.035	80.003	19.994	103.787	19.904	4.648	0.529
962.999	570.795	80.005	19.994	103.800	19.901	4.828	0.530
964.500	571.519	80.002	19.994	103.805	19.905	4.604	0.491
965.999	572.275	80.006	19.995	103.797	19.904	4.678	0.493
967.499	573.043	80.005	19.994	103.796	19.903	4.736	0.523
968.999	573.811	80.005	19.993	103.801	19.899	4.998	0.513
970.499	574.583	80.004	19.995	103.800	19.903	4.707	0.507
971.999	575.361	80.005	19.993	103.799	19.903	4.716	0.538
973.499	576.095	80.002	19.994	103.792	19.904	4.666	0.497
974.999	576.878	80.004	19.994	103.792	19.904	4.675	0.530
976.500	577.597	80.005	19.995	103.806	19.907	4.439	0.497
978.000	578.375	80.004	19.994	103.808	19.905	4.546	0.530
979.500	579.117	80.003	19.994	103.799	19.904	4.669	0.522
980.999	579.869	80.004	19.993	103.786	19.905	4.589	0.484
982.500	580.576	80.003	19.994	103.805	19.903	4.726	0.493
984.000	581.366	80.003	19.994	103.806	19.902	4.769	0.518
985.499	582.128	80.007	19.993	103.784	19.902	4.754	0.502
986.999	582.878	80.004	19.994	103.771	19.903	4.701	0.515
988.499	583.609	80.004	19.995	103.784	19.903	4.713	0.498
989.999	584.389	80.002	19.995	103.791	19.904	4.649	0.522
991.499	585.135	80.003	19.995	103.801	19.905	4.561	0.498
993.000	585.857	80.006	19.996	103.808	19.905	4.546	0.485
994.499	586.590	80.006	19.995	103.802	19.906	4.530	0.482
996.000	587.412	80.002	19.995	103.780	19.904	4.658	0.540
997.499	588.110	80.005	19.994	103.782	19.905	4.567	0.488
998.999	588.871	80.003	19.994	103.800	19.907	4.422	0.513
1000.500	589.602	80.010	19.994	103.812	19.904	4.640	0.503
1001.999	590.399	80.002	19.994	103.816	19.906	4.501	0.536
1003.499	591.118	80.004	19.993	103.812	19.906	4.471	0.472
1005.000	591.902	80.001	19.994	103.812	19.908	4.381	0.532
1006.499	592.641	80.006	19.995	103.805	19.908	4.357	0.482
1007.999	593.410	80.000	19.994	103.805	19.908	4.335	0.489
1009.499	594.144	80.001	19.995	103.801	19.908	4.346	0.508
1010.999	594.943	80.003	19.993	103.801	19.910	4.243	0.531
1012.500	595.751	80.001	19.995	103.818	19.911	4.132	0.521
1013.999	596.468	80.002	19.996	103.833	19.912	4.061	0.474
1015.500	597.242	80.004	19.994	103.816	19.905	4.547	0.516
1016.999	597.990	80.003	19.995	103.804	19.910	4.232	0.511
1018.499	598.801	80.003	19.995	103.800	19.907	4.401	0.555
1019.999	599.551	80.002	19.995	103.787	19.907	4.417	0.520
1021.499	600.336	80.003	19.996	103.780	19.907	4.449	0.513
1022.999	601.055	80.002	19.996	103.791	19.906	4.500	0.489
1024.499	601.851	80.004	19.995	103.785	19.907	4.460	0.537
1025.999	602.599	80.003	19.995	103.798	19.902	4.773	0.490
1027.500	603.374	80.001	19.995	103.808	19.910	4.206	0.509
1028.999	604.162	80.001	19.994	103.807	19.908	4.335	0.509
1030.499	604.954	80.003	19.994	103.812	19.906	4.525	0.540
1031.999	605.741	80.002	19.994	103.830	19.907	4.432	0.531
1033.499	606.475	80.002	19.995	103.813	19.908	4.386	0.503
1034.999	607.253	80.001	19.994	103.799	19.907	4.433	0.500
1036.499	608.022	80.003	19.995	103.798	19.908	4.353	0.496
1037.999	608.793	80.003	19.995	103.791	19.909	4.311	0.513
1039.499	609.563	80.003	19.995	103.760	19.906	4.499	0.508
1041.000	610.342	80.002	19.994	103.749	19.908	4.387	0.519
1042.499	611.119	80.002	19.993	103.795	19.909	4.293	0.496
1043.999	611.890	80.002	19.995	103.790	19.903	4.700	0.497
1045.499	612.701	80.011	19.993	103.774	19.906	4.536	0.519
1046.999	613.445	80.004	19.993	103.793	19.908	4.383	0.490
1048.499	614.237	80.005	19.994	103.797	19.905	4.569	0.501
1049.999	615.046	80.001	19.995	103.795	19.908	4.377	0.539
1051.499	615.860	80.003	19.993	103.799	19.911	4.148	0.540
1052.999	616.558	80.006	19.995	103.805	19.906	4.511	0.469
1054.500	617.341	80.003	19.993	103.804	19.910	4.223	0.554
1055.999	618.118	80.002	19.994	103.812	19.910	4.197	0.524
1057.499	618.955	80.003	19.994	103.815	19.910	4.227	0.528
1058.999	619.663	80.002	19.993	103.806	19.913	3.989	0.511
1060.499	620.407	80.005	19.994	103.805	19.914	3.931	0.507
1061.999	621.230	80.004	19.993	103.801	19.922	3.367	0.503
1063.499	621.951	80.004	19.994	103.786	19.912	4.105	0.452
1064.999	622.741	80.003	19.993	103.784	19.896	5.214	0.517
1066.499	623.528	80.003	19.993	103.779	19.904	4.634	0.494
1067.999	624.264	80.007	19.993	103.772	19.909	4.285	0.533
1069.499	624.938	80.004	19.994	103.769	19.906	4.529	0.518
1070.999	625.853	80.004	19.993	103.789	19.909	4.256	0.602
1072.500	626.455	80.006	19.993	103.805	19.911	4.145	0.437
1073.999	627.283	80.003	19.994	103.830	19.906	4.510	0.587
1075.499	628.149	80.007	19.992	103.830	19.911	4.153	0.235
1077.000	628.489	79.995	19.994	103.810	19.908	4.333	0.188
1078.499	629.650	80.006	19.994	103.804	19.908	4.364	0.598
1079.999	630.419	80.006	19.992	103.794	19.907	4.417	0.891
1081.500	631.156	80.002	19.995	103.795	19.906	4.475	0.453
1082.999	631.916	80.002	19.996	103.802	19.911	4.144	0.441
1084.500	632.696	80.004	19.995	103.805	19.908	4.347	0.531
1085.999	633.518	80.006	19.995	103.809	19.910	4.232	0.531
1087.500	634.241	80.001	19.996	103.801	19.908	4.327	0.505
1088.999	635.021	80.001	19.994	103.795	19.909	4.263	0.548
1090.500	635.789	80.002	19.995	103.781	19.912	4.070	0.513
1091.999	636.595	80.004	19.995	103.775	19.912	4.057	0.538
1093.499	637.305	80.003	19.996	103.782	19.910	4.241	0.505
1094.999	638.061	80.002	19.995	103.799	19.912	4.052	0.485
1096.499	638.841	80.001	19.994	103.805	19.911	4.109	0.521
1097.999	639.591	80.002	19.995	103.803	19.909	4.272	0.503
1099.499	640.377	80.005	19.995	103.786	19.912	4.103	0.538
1100.999	641.156	80.005	19.995	103.767	19.909	4.267	0.514
1102.499	641.900	80.003	19.994	103.783	19.910	4.224	0.502
1103.999	642.670	80.001	19.995	103.782	19.906	4.514	0.511
1105.500	643.416	80.002	19.994	103.792	19.911	4.143	0.489
1106.999	644.264	80.001	19.996	103.804	19.912	4.040	0.579
1108.499	644.948	80.003	19.995	103.802	19.909	4.309	0.449
1109.999	645.758	80.003	19.995	103.802	19.910	4.212	0.508
1111.499	646.518	80.003	19.995	103.784	19.911	4.111	0.505
1112.999	647.300	80.001	19.996	103.789	19.914	3.897	0.521
1114.500	648.076	80.002	19.996	103.808	19.913	3.994	0.534
1115.999	648.794	80.002	19.996	103.806	19.916	3.782	0.500
1117.499	649.579	80.002	19.995	103.806	19.911	4.133	0.517
1118.999	650.299	80.003	19.995	103.804	19.913	4.014	0.512
1120.499	651.156	80.006	19.994	103.803	19.916	3.764	0.558
1121.999	651.883	80.005	19.995	103.800	19.918	3.643	0.481
1123.500	652.652	80.004	19.995	103.804	19.913	4.015	0.569
1124.999	653.378	80.004	19.993	103.798	19.913	4.029	0.503
1126.499	654.249	80.006	19.994	103.794	19.916	3.809	0.548
1127.999	655.042	80.004	19.994	103.808	19.914	3.961	0.464
1129.499	655.741	80.004	19.994	103.797	19.914	3.962	0.590
1130.999	657.258	80.000	19.994	103.804	19.915	3.823	1.249
1132.499	657.216	80.003	19.995	103.794	19.910	4.228	0.429
1133.999	658.188	80.003	19.993	103.787	19.914	3.946	0.593
1135.499	658.707	80.009	19.991	103.782	19.912	4.061	0.199
1136.999	659.452	80.002	19.996	103.777	19.911	4.125	0.534
1138.499	660.227	80.006	19.993	103.767	19.911	4.125	0.486
1139.999	661.005	80.001	19.994	103.778	19.911	4.139	0.523
1141.500	661.813	80.002	19.995	103.772	19.911	4.113	0.527
1142.999	662.581	80.001	19.995	103.783	19.911	4.163	0.539
1144.499	663.338	80.004	19.992	103.792	19.912	4.046	0.511
1146.000	664.065	80.004	19.995	103.784	19.910	4.242	0.475
1147.499	664.854	80.006	19.994	103.787	19.914	3.963	0.504
1148.999	665.629	80.007	19.993	103.800	19.910	4.210	0.504
1150.500	666.374	80.006	19.993	103.800	19.911	4.121	0.487
1151.999	667.149	80.005	19.993	103.804	19.914	3.919	0.483
1153.499	667.942	80.009	19.992	103.812	19.915	3.836	0.550
1155.000	668.672	80.010	19.992	103.817	19.914	3.929	0.489
1156.499	669.424	80.014	19.993	103.815	19.915	3.840	0.489
1157.999	670.178	80.001	19.993	103.809	19.912	4.042	0.521
1159.500	670.969	80.003	19.994	103.804	19.914	3.897	0.512
1160.999	671.693	80.006	19.994	103.809	19.920	3.526	0.487
1162.500	672.474	80.001	19.995	103.810	19.917	3.739	0.573
1163.999	673.149	80.016	19.993	103.802	19.920	3.525	0.491
1165.499	673.990	80.007	19.994	103.801	19.916	3.795	0.532
1167.000	674.741	80.007	19.994	103.797	19.916	3.770	0.527
1168.500	675.515	79.996	19.994	103.797	19.916	3.754	0.506
1169.999	676.253	80.001	19.994	103.789	19.917	3.701	0.480
1171.500	677.024	79.986	19.994	103.778	19.915	3.856	0.508
1172.999	677.800	79.995	19.996	103.769	19.913	4.034	0.519
1174.499	678.509	79.999	19.997	103.766	19.911	4.125	0.464
1175.999	679.300	80.006	19.993	103.769	19.908	4.327	0.520
1177.500	680.039	80.002	19.995	103.779	19.909	4.284	0.493
1178.999	680.798	80.000	19.993	103.790	19.920	3.501	0.511
1180.499	681.587	80.018	19.993	103.795	19.914	3.907	0.507
1182.000	682.280	79.999	19.995	103.803	19.913	3.975	0.495
1183.499	682.997	79.989	19.995	103.802	19.917	3.718	0.492
1184.999	683.850	80.011	19.994	103.805	19.919	3.556	0.518
1186.500	684.546	79.995	19.995	103.808	19.917	3.713	0.454
1187.999	685.314	79.998	19.995	103.805	19.915	3.822	0.503
1189.499	686.006	80.008	19.994	103.813	19.914	3.895	0.489
1190.999	687.492	80.007	19.993	103.807	19.915	3.869	0.941
1192.499	687.637	79.998	19.996	103.785	19.915	3.848	0.257
1193.999	688.335	80.004	19.993	103.777	19.915	3.873	0.483
1195.499	689.160	79.988	19.997	103.793	19.914	3.901	0.559
1197.000	689.897	80.003	19.996	103.797	19.915	3.846	0.522
1198.499	690.624	80.007	19.994	103.803	19.917	3.697	0.481
1200.000	691.412	80.010	19.993	103.804	19.915	3.853	0.522
1201.499	692.203	80.003	19.994	103.794	19.917	3.727	0.503
1202.999	692.969	79.996	19.995	103.804	19.915	3.838	0.530
1204.499	693.704	80.001	19.996	103.805	19.918	3.609	0.507
1205.999	694.460	80.006	19.997	103.812	19.918	3.666	0.496
1207.499	695.280	80.009	19.995	103.815	19.917	3.693	0.527
1209.000	696.035	80.013	19.996	103.805	19.917	3.721	0.515
1210.499	696.763	80.006	19.994	103.799	19.914	3.948	0.564
1211.999	697.574	80.010	19.995	103.802	19.914	3.905	0.520
1213.499	698.364	80.005	19.992	103.801	19.920	3.516	0.507
1214.999	699.096	80.005	19.995	103.782	19.914	3.940	0.530
1216.499	699.843	79.998	19.995	103.773	19.913	3.988	0.505
1218.000	700.618	79.993	19.995	103.788	19.912	4.061	0.538
1219.500	701.421	80.006	19.993	103.794	19.915	3.840	0.525
1220.999	702.149	80.003	19.994	103.794	19.913	3.996	0.475
1222.499	702.899	80.005	19.993	103.793	19.913	4.017	0.511
1223.999	703.675	80.007	19.993	103.783	19.911	4.111	0.494
1225.499	704.413	80.011	19.996	103.784	19.914	3.918	0.494
1226.999	705.124	79.994	19.994	103.800	19.912	4.048	0.467
1228.499	705.916	80.006	19.994	103.798	19.914	3.962	0.541
1229.999	706.682	79.999	19.996	103.797	19.915	3.865	0.522
1231.499	707.442	80.000	19.995	103.795	19.917	3.713	0.504
1232.999	708.172	80.005	19.994	103.787	19.915	3.857	0.483
1234.499	708.936	80.002	19.996	103.798	19.914	3.901	0.496
1236.000	709.662	79.989	19.998	103.792	19.915	3.834	0.492
1237.499	710.446	79.999	19.997	103.771	19.916	3.784	0.506
1238.999	711.230	80.009	19.994	103.780	19.911	4.141	0.505
1240.499	711.924	79.998	19.995	103.789	19.911	4.159	0.465
1241.999	712.693	79.999	19.993	103.765	19.914	3.911	0.520
1243.499	713.469	80.010	19.997	103.780	19.913	3.970	0.501
1244.999	714.220	80.006	19.994	103.802	19.913	4.004	0.508
1246.499	715.047	80.000	19.993	103.804	19.916	3.781	0.528
1247.999	715.767	80.002	19.993	103.806	19.914	3.918	0.491
1249.499	716.552	80.002	19.995	103.805	19.918	3.631	0.518
1250.999	717.283	79.995	19.997	103.801	19.915	3.837	0.502
1252.499	718.055	80.009	19.993	103.798	19.918	3.635	0.495
1254.000	718.836	80.013	19.992	103.800	19.919	3.554	0.529
1255.499	719.584	80.004	19.994	103.798	19.918	3.659	0.467
1256.999	720.306	80.002	19.993	103.784	19.919	3.545	0.483
1258.499	721.115	80.011	19.994	103.773	19.913	3.965	0.540
1260.000	721.856	80.008	19.993	103.770	19.914	3.927	0.497
1261.499	722.589	80.004	19.993	103.768	19.914	3.935	0.475
1262.999	723.368	79.985	19.994	103.784	19.913	4.026	0.534
1264.499	724.134	80.006	19.993	103.797	19.911	4.111	0.499
1266.000	724.909	80.003	19.994	103.800	19.914	3.955	0.535
1267.500	725.633	80.003	19.994	103.806	19.917	3.744	0.461
1269.000	726.404	80.006	19.994	103.807	19.915	3.867	0.508
1270.499	727.157	80.008	19.993	103.801	19.914	3.934	0.500
1271.999	727.914	80.010	19.993	103.802	19.918	3.625	0.516
1273.499	728.633	79.989	19.997	103.814	19.914	3.902	0.460
1274.999	729.372	80.004	19.995	103.808	19.914	3.933	0.499
1276.499	730.145	80.001	19.996	103.801	19.917	3.721	0.498
1277.999	730.923	80.010	19.993	103.801	19.917	3.700	0.532
1279.500	731.662	80.004	19.996	103.791	19.916	3.799	0.479
1280.999	732.474	80.006	19.995	103.786	19.915	3.876	0.529
1282.499	733.201	80.005	19.993	103.787	19.918	3.615	0.492
1284.000	733.944	80.001	19.995	103.769	19.913	3.986	0.493
1285.499	734.678	80.006	19.996	103.768	19.917	3.684	0.502
1287.000	735.465	80.004	19.995	103.767	19.915	3.833	0.508
1288.499	736.205	80.005	19.994	103.760	19.914	3.895	0.491
1289.999	736.967	79.986	19.995	103.762	19.913	4.014	0.516
1291.500	737.717	80.001	19.994	103.762	19.915	3.860	0.506
1292.999	738.486	80.009	19.998	103.770	19.915	3.823	0.516
1294.499	739.272	80.020	19.995	103.788	19.912	4.088	0.525
1295.999	740.014	80.017	19.995	103.775	19.915	3.855	0.518
1297.499	740.831	80.014	19.993	103.775	19.913	4.006	0.522
1298.999	741.542	80.000	19.998	103.796	19.916	3.814	0.491
1300.499	742.325	79.995	19.997	103.801	19.913	3.992	0.528
1301.999	743.119	80.013	19.994	103.801	19.911	4.172	0.501
1302.499	743.358	80.003	19.996	103.802	19.910	4.249	0.508