File: 01_Data/Bean_Bag_Chair_Outer_Cover/STA/N2/10K_min/Bean_Bag_Cover_STA_N2_10KData_220511_R1.csv
##Temp./Â°C,Time/min,Mass loss(subtr.2)/mg,DSC(subtr.2)/(mW/mg),Sensit./(uV/mW)
49.63,10.01,-0.04051,0.01922832,1.0702
50.33,10.77318,-0.04239,0.0505015,1.07001
51.03,10.97557,-0.04456271,0.0758365,1.06981
51.73,11.12704,-0.04411353,0.09660841,1.06962
52.43,11.2566,-0.04507809,0.11017,1.06943
53.13,11.37168,-0.04631703,0.12335,1.06923
53.83,11.4773,-0.04457947,0.13565,1.06904
54.53,11.5764,-0.04432803,0.14696,1.06884
55.23,11.6709,-0.0446439,0.15358,1.06865
55.93,11.76211,-0.04543966,0.16084,1.06845
56.63,11.85018,-0.04599686,0.16973,1.06825
57.33,11.93568,-0.0476341,0.17562,1.06806
58.03,12.01935,-0.0481619,0.18215,1.06786
58.73,12.1012,-0.04741223,0.18682,1.06766
59.43,12.1828,-0.04758216,0.19087,1.06746
60.13,12.26315,-0.04809646,0.19575,1.06726
60.83,12.3424,-0.04962251,0.19812,1.06706
61.53,12.42115,-0.04963057,0.20424,1.06686
62.23,12.4993,-0.04873027,0.20839,1.06666
62.93,12.5769,-0.05002899,0.21164,1.06646
63.63,12.65386,-0.05060346,0.2145,1.06626
64.33,12.73082,-0.05002999,0.216,1.06605
65.03,12.80717,-0.05001834,0.21999,1.06585
65.73,12.88318,-0.05069288,0.2229,1.06565
66.43,12.95845,-0.0518941,0.22707,1.06544
67.13,13.03407,-0.05260404,0.22787,1.06524
67.83,13.10939,-0.05402076,0.23154,1.06503
68.53,13.18469,-0.05359908,0.23588,1.06483
69.23,13.25929,-0.0540189,0.2369,1.06462
69.93,13.33399,-0.05542545,0.24073,1.06442
70.63,13.40821,-0.05534972,0.2433,1.06421
71.33,13.48228,-0.0566532,0.24403,1.064
72.03,13.5557,-0.05525073,0.2467,1.06379
72.73,13.62899,-0.05666488,0.248,1.06359
73.43,13.7024,-0.05693278,0.25073,1.06338
74.13,13.7763,-0.05796117,0.25311,1.06317
74.83,13.85019,-0.05928984,0.25571,1.06296
75.53,13.92334,-0.0595143,0.25862,1.06275
76.23,13.9963,-0.05927812,0.26183,1.06254
76.93,14.0692,-0.05928598,0.26544,1.06232
77.63,14.1419,-0.06062789,0.26583,1.06211
78.33,14.21437,-0.05928975,0.26951,1.0619
79.03,14.28619,-0.06027418,0.26845,1.06169
79.73,14.3581,-0.06079674,0.2714,1.06147
80.43,14.43002,-0.0605999,0.27256,1.06126
81.13,14.50191,-0.06058082,0.27383,1.06104
81.83,14.57341,-0.06192095,0.27635,1.06083
82.53,14.6449,-0.06329241,0.27771,1.06061
83.23,14.71604,-0.06388443,0.2788,1.0604
83.93,14.78726,-0.06322358,0.28077,1.06018
84.63,14.85839,-0.06454683,0.28015,1.05996
85.33,14.9293,-0.0645622,0.28171,1.05974
86.03,14.99991,-0.06587502,0.2818,1.05953
86.73,15.07037,-0.06718476,0.28427,1.05931
87.43,15.14091,-0.0671894,0.28297,1.05909
88.13,15.21142,-0.06851615,0.28358,1.05887
88.83,15.2817,-0.06988865,0.28473,1.05865
89.53,15.352,-0.07208425,0.28425,1.05843
90.23,15.4221,-0.06950786,0.28563,1.05821
90.93,15.4922,-0.06952188,0.28517,1.05798
91.63,15.562,-0.0681785,0.28549,1.05776
92.33,15.63215,-0.06817306,0.28445,1.05754
93.03,15.70191,-0.06948922,0.28462,1.05731
93.73,15.7715,-0.06949392,0.28177,1.05709
94.43,15.8407,-0.07080967,0.28263,1.05687
95.13,15.9102,-0.06950876,0.28092,1.05664
95.83,15.97928,-0.07081978,0.28191,1.05642
96.53,16.04863,-0.0721318,0.27982,1.05619
97.23,16.11759,-0.0721302,0.2796,1.05596
97.93,16.18669,-0.07317168,0.27947,1.05574
98.63,16.25558,-0.07345003,0.27796,1.05551
99.33,16.32453,-0.07344857,0.2762,1.05528
100.03,16.39331,-0.07415573,0.27566,1.05505
100.73,16.46201,-0.07345913,0.27611,1.05482
101.43,16.5306,-0.07476015,0.27426,1.05459
102.13,16.5992,-0.07607075,0.27173,1.05436
102.83,16.66759,-0.07476003,0.27155,1.05413
103.53,16.73611,-0.07615787,0.27017,1.0539
104.23,16.80463,-0.07739988,0.26701,1.05367
104.93,16.87304,-0.07870804,0.26675,1.05344
105.63,16.94125,-0.07870406,0.26563,1.0532
106.33,17.0094,-0.07740425,0.2642,1.05297
107.03,17.07784,-0.07871958,0.26279,1.05273
107.73,17.14636,-0.07871944,0.26232,1.0525
108.43,17.21459,-0.07968965,0.26094,1.05227
109.13,17.28339,-0.08014037,0.26125,1.05203
109.83,17.352,-0.08017783,0.25997,1.05179
110.53,17.4208,-0.08134999,0.25864,1.05156
111.23,17.48914,-0.08108358,0.25733,1.05132
111.93,17.55728,-0.08092738,0.25496,1.05108
112.63,17.6256,-0.08134912,0.25435,1.05084
113.33,17.69381,-0.0824038,0.25406,1.05061
114.03,17.76235,-0.08306956,0.25307,1.05037
114.73,17.8305,-0.08090609,0.25216,1.05013
115.43,17.89828,-0.08222967,0.25214,1.04989
116.13,17.96633,-0.08212238,0.25068,1.04965
116.83,18.03448,-0.08222834,0.24916,1.0494
117.53,18.10291,-0.08223,0.2506,1.04916
118.23,18.1708,-0.08223,0.24968,1.04892
118.93,18.23862,-0.08223189,0.24826,1.04868
119.63,18.30668,-0.08253443,0.24656,1.04843
120.33,18.37485,-0.08222565,0.24771,1.04819
121.03,18.44238,-0.08354321,0.24631,1.04794
121.73,18.5102,-0.08353977,0.24755,1.0477
122.43,18.57805,-0.08418945,0.24634,1.04745
123.13,18.64647,-0.08353109,0.24724,1.04721
123.83,18.71452,-0.08496519,0.24589,1.04696
124.53,18.78257,-0.08489635,0.24622,1.04671
125.23,18.85061,-0.08354448,0.24662,1.04647
125.93,18.91841,-0.08487099,0.24591,1.04622
126.63,18.98617,-0.08623072,0.24645,1.04597
127.33,19.05388,-0.08486317,0.24671,1.04572
128.03,19.1218,-0.08386783,0.24776,1.04547
128.73,19.18964,-0.08518923,0.24774,1.04522
129.43,19.25715,-0.08617043,0.24778,1.04497
130.13,19.3247,-0.08477941,0.24814,1.04472
130.83,19.39217,-0.08584636,0.24907,1.04447
131.53,19.4597,-0.08618955,0.24911,1.04421
132.23,19.52712,-0.08628543,0.24992,1.04396
132.93,19.5942,-0.08617999,0.25005,1.04371
133.63,19.66159,-0.08618,0.25143,1.04345
134.33,19.72917,-0.08618,0.25135,1.0432
135.03,19.7972,-0.08618,0.25166,1.04294
135.73,19.86488,-0.0861784,0.25358,1.04269
136.43,19.93272,-0.08615759,0.25385,1.04243
137.13,20.0005,-0.08618016,0.252,1.04217
137.83,20.0683,-0.0875037,0.25483,1.04192
138.53,20.13588,-0.08881839,0.25356,1.04166
139.23,20.2033,-0.08762375,0.25363,1.0414
139.93,20.27058,-0.08750018,0.25615,1.04114
140.63,20.33794,-0.088813,0.25384,1.04088
141.33,20.40542,-0.08852322,0.25496,1.04062
142.03,20.47302,-0.08880658,0.25419,1.04036
142.73,20.5405,-0.08812041,0.25461,1.0401
143.43,20.60762,-0.08750003,0.25686,1.03984
144.13,20.675,-0.08750012,0.25538,1.03957
144.83,20.74219,-0.0887981,0.25784,1.03931
145.53,20.8095,-0.08882,0.25649,1.03905
146.23,20.87688,-0.08882028,0.25925,1.03878
146.93,20.94432,-0.08822972,0.26074,1.03852
147.63,21.0118,-0.0886914,0.25968,1.03825
148.33,21.07899,-0.08881132,0.2596,1.03799
149.03,21.14571,-0.08881001,0.26039,1.03772
149.73,21.21288,-0.08875376,0.26095,1.03746
150.43,21.27992,-0.09013001,0.26017,1.03719
151.13,21.34753,-0.0894901,0.26122,1.03692
151.83,21.41479,-0.09083276,0.26193,1.03665
152.53,21.48219,-0.09160435,0.26095,1.03638
153.23,21.54947,-0.09145006,0.26199,1.03612
153.93,21.61676,-0.09145,0.2612,1.03585
154.63,21.68393,-0.09145,0.26372,1.03558
155.33,21.75113,-0.09145285,0.26478,1.0353
156.03,21.8183,-0.09277124,0.26468,1.03503
156.73,21.88559,-0.09274451,0.26547,1.03476
157.43,21.95298,-0.09285489,0.26376,1.03449
158.13,22.0202,-0.09145103,0.26694,1.03421
158.83,22.08735,-0.09277029,0.26484,1.03394
159.53,22.1544,-0.09341779,0.26759,1.03367
160.23,22.22144,-0.09369613,0.26588,1.03339
160.93,22.2886,-0.09276999,0.26656,1.03312
161.63,22.35582,-0.09257916,0.26763,1.03284
162.33,22.42315,-0.09244999,0.26824,1.03256
163.03,22.4903,-0.09244992,0.26781,1.03229
163.73,22.55708,-0.09112597,0.26958,1.03201
164.43,22.62428,-0.09113055,0.26898,1.03173
165.13,22.69139,-0.09099599,0.26843,1.03145
165.83,22.7589,-0.09156093,0.26858,1.03117
166.53,22.826,-0.09213202,0.27081,1.03089
167.23,22.89302,-0.09288011,0.27241,1.03061
167.93,22.96005,-0.09254915,0.27301,1.03033
168.63,23.0265,-0.09319836,0.27344,1.03005
169.33,23.09347,-0.09258653,0.27053,1.02977
170.03,23.1605,-0.09287969,0.27192,1.02949
170.73,23.22808,-0.09349852,0.27277,1.0292
171.43,23.29532,-0.09182404,0.27355,1.02892
172.13,23.36245,-0.09156998,0.27393,1.02864
172.83,23.4296,-0.09157336,0.27448,1.02835
173.53,23.49677,-0.0915184,0.27531,1.02806
174.23,23.5639,-0.09288051,0.27392,1.02778
174.93,23.6308,-0.09288008,0.27499,1.02749
175.63,23.69776,-0.09184237,0.27531,1.02721
176.33,23.76456,-0.09156921,0.27551,1.02692
177.03,23.83191,-0.09157052,0.27552,1.02663
177.73,23.89891,-0.09254825,0.27629,1.02634
178.43,23.9659,-0.09287945,0.27743,1.02605
179.13,24.03276,-0.09288909,0.27613,1.02576
179.83,24.09966,-0.09189007,0.2779,1.02547
180.53,24.16639,-0.09200288,0.27802,1.02518
181.23,24.23336,-0.09320987,0.2785,1.02489
181.93,24.30012,-0.09320894,0.27947,1.0246
182.63,24.36709,-0.09350299,0.28093,1.0243
183.33,24.4339,-0.09354,0.27934,1.02401
184.03,24.5007,-0.09354,0.27861,1.02372
184.73,24.568,-0.09354011,0.28145,1.02342
185.43,24.6349,-0.09477224,0.28152,1.02313
186.13,24.70185,-0.0945166,0.2819,1.02283
186.83,24.76869,-0.09486651,0.28095,1.02254
187.53,24.83531,-0.09485997,0.28272,1.02224
188.23,24.9021,-0.0950155,0.28307,1.02194
188.93,24.96871,-0.0958494,0.28405,1.02165
189.63,25.03517,-0.09584999,0.28439,1.02135
190.33,25.10166,-0.09586718,0.28485,1.02105
191.03,25.16827,-0.09584263,0.28403,1.02075
191.73,25.23507,-0.09584,0.28496,1.02045
192.43,25.30194,-0.0958401,0.28429,1.02015
193.13,25.36867,-0.0945699,0.28751,1.01985
193.83,25.43555,-0.09561443,0.28474,1.01955
194.53,25.50218,-0.09583999,0.2844,1.01924
195.23,25.569,-0.09526252,0.28574,1.01894
195.93,25.63578,-0.09452006,0.28638,1.01864
196.63,25.70241,-0.09451651,0.28662,1.01833
197.33,25.76912,-0.09651087,0.2858,1.01803
198.03,25.83549,-0.0965,0.28786,1.01772
198.73,25.90212,-0.09650006,0.28786,1.01742
199.43,25.96837,-0.09733803,0.29,1.01711
200.13,26.03489,-0.09778095,0.28962,1.01681
200.83,26.10143,-0.09782001,0.28998,1.0165
201.53,26.168,-0.09782,0.28961,1.01619
202.23,26.2346,-0.09783428,0.29001,1.01588
202.93,26.301,-0.09649855,0.28996,1.01557
203.63,26.36765,-0.09650087,0.29179,1.01526
204.33,26.4341,-0.09780593,0.29252,1.01495
205.03,26.5005,-0.09782,0.29123,1.01464
205.73,26.56693,-0.09782,0.29358,1.01433
206.43,26.63328,-0.09781999,0.29266,1.01402
207.13,26.7,-0.09782007,0.29377,1.01371
207.83,26.76643,-0.0965001,0.29463,1.0134
208.53,26.833,-0.09646858,0.29385,1.01308
209.23,26.8995,-0.09781991,0.29476,1.01277
209.93,26.96619,-0.09782,0.2943,1.01245
210.63,27.03295,-0.09782,0.29491,1.01214
211.33,27.0995,-0.09782003,0.2952,1.01182
212.03,27.16613,-0.09915169,0.29392,1.01151
212.73,27.2327,-0.09782029,0.2957,1.01119
213.43,27.29932,-0.09914616,0.29481,1.01087
214.13,27.3658,-0.09914099,0.29635,1.01055
214.83,27.43235,-0.10046,0.29767,1.01023
215.53,27.49902,-0.09913066,0.29607,1.00991
216.23,27.56578,-0.10044,0.29826,1.0096
216.93,27.6325,-0.10045,0.29826,1.00927
217.63,27.69902,-0.09954889,0.29695,1.00895
218.33,27.76565,-0.09913,0.29889,1.00863
219.03,27.8324,-0.10113,0.29843,1.00831
219.73,27.899,-0.09979017,0.30064,1.00799
220.43,27.96572,-0.09976427,0.29974,1.00766
221.13,28.03215,-0.10045,0.30119,1.00734
221.83,28.09856,-0.10099,0.30018,1.00702
222.53,28.16515,-0.10177,0.30228,1.00669
223.23,28.23178,-0.10178,0.30313,1.00637
223.93,28.2984,-0.10309,0.30365,1.00604
224.63,28.36497,-0.10309,0.30435,1.00571
225.33,28.43147,-0.10309,0.30491,1.00538
226.03,28.49783,-0.10262,0.30384,1.00506
226.73,28.56428,-0.10243,0.30328,1.00473
227.43,28.63073,-0.10243,0.3054,1.0044
228.13,28.6974,-0.10341,0.30712,1.00407
228.83,28.7637,-0.10336,0.30613,1.00374
229.53,28.83025,-0.10407,0.30839,1.00341
230.23,28.89685,-0.10536,0.31049,1.00308
230.93,28.9634,-0.10539,0.3102,1.00275
231.63,29.02955,-0.10539,0.31178,1.00241
232.33,29.09573,-0.10672,0.31304,1.00208
233.03,29.16198,-0.10705,0.31248,1.00175
233.73,29.22837,-0.10751,0.31292,1.00141
234.43,29.29465,-0.10671,0.31104,1.00108
235.13,29.3613,-0.10671,0.31294,1.00074
235.83,29.42795,-0.10836,0.31463,1.00041
236.53,29.49434,-0.10959,0.31442,1.00007
237.23,29.5605,-0.11005,0.31496,0.99973
237.93,29.6267,-0.11054,0.31644,0.99939
238.63,29.69292,-0.11034,0.31648,0.99906
239.33,29.75933,-0.11034,0.31593,0.99872
240.03,29.82575,-0.11034,0.31563,0.99838
240.73,29.8921,-0.11034,0.31835,0.99804
241.43,29.95855,-0.11164,0.31552,0.9977
242.13,30.02488,-0.1121,0.3191,0.99736
242.83,30.09129,-0.11298,0.31973,0.99701
243.53,30.1577,-0.11428,0.31996,0.99667
244.23,30.22428,-0.1156,0.31886,0.99633
244.93,30.29105,-0.1156,0.31847,0.99598
245.63,30.35768,-0.1156,0.31935,0.99564
246.33,30.4243,-0.11694,0.31982,0.9953
247.03,30.4906,-0.11824,0.32158,0.99495
247.73,30.55725,-0.11959,0.31885,0.9946
248.43,30.62355,-0.12077,0.32114,0.99426
249.13,30.68962,-0.12088,0.32194,0.99391
249.83,30.7562,-0.12202,0.32071,0.99356
250.53,30.82282,-0.1235,0.32166,0.99321
251.23,30.8898,-0.12351,0.3236,0.99287
251.93,30.95666,-0.12351,0.32322,0.99252
252.63,31.0236,-0.12351,0.32357,0.99217
253.33,31.09095,-0.12493,0.32396,0.99182
254.03,31.15775,-0.12701,0.32509,0.99146
254.73,31.2244,-0.12756,0.32482,0.99111
255.43,31.29148,-0.12889,0.32682,0.99076
256.13,31.3583,-0.12889,0.32844,0.99041
256.83,31.42513,-0.12889,0.32804,0.99005
257.53,31.49165,-0.12889,0.32743,0.9897
258.23,31.55842,-0.1302,0.32901,0.98934
258.93,31.62513,-0.13153,0.32887,0.98899
259.63,31.692,-0.13152,0.33127,0.98863
260.33,31.75883,-0.13176,0.33307,0.98828
261.03,31.82548,-0.13284,0.33271,0.98792
261.73,31.8922,-0.13379,0.33203,0.98756
262.43,31.9586,-0.13515,0.33283,0.9872
263.13,32.02498,-0.1351,0.33363,0.98685
263.83,32.09155,-0.13412,0.3348,0.98649
264.53,32.15834,-0.13542,0.33668,0.98613
265.23,32.22527,-0.13811,0.33618,0.98577
265.93,32.2921,-0.13942,0.33785,0.9854
266.63,32.35861,-0.13943,0.33817,0.98504
267.33,32.4251,-0.14181,0.33893,0.98468
268.03,32.49167,-0.14213,0.34078,0.98432
268.73,32.55843,-0.14331,0.34239,0.98395
269.43,32.625,-0.14471,0.34051,0.98359
270.13,32.69157,-0.14734,0.34392,0.98322
270.83,32.7583,-0.14736,0.34311,0.98286
271.53,32.82484,-0.14856,0.34319,0.98249
272.23,32.89138,-0.14997,0.34406,0.98213
272.93,32.95779,-0.1512,0.34326,0.98176
273.63,33.0246,-0.15153,0.34308,0.98139
274.33,33.09168,-0.15273,0.34255,0.98102
275.03,33.15869,-0.15392,0.33999,0.98065
275.73,33.22548,-0.15587,0.34033,0.98028
276.43,33.2922,-0.1573,0.34038,0.97991
277.13,33.35892,-0.16044,0.33993,0.97954
277.83,33.4257,-0.16186,0.33839,0.97917
278.53,33.49259,-0.16447,0.33654,0.9788
279.23,33.5595,-0.16446,0.3377,0.97843
279.93,33.62631,-0.16482,0.3385,0.97806
280.63,33.69308,-0.16766,0.33776,0.97768
281.33,33.75954,-0.16935,0.34024,0.97731
282.03,33.82634,-0.17206,0.34009,0.97693
282.73,33.89322,-0.17155,0.34092,0.97656
283.43,33.96049,-0.17413,0.34282,0.97618
284.13,34.02735,-0.17543,0.342,0.9758
284.83,34.09418,-0.17807,0.34397,0.97543
285.53,34.16095,-0.17945,0.3449,0.97505
286.23,34.22765,-0.18208,0.34584,0.97467
286.93,34.29444,-0.18429,0.34522,0.97429
287.63,34.36139,-0.18629,0.34686,0.97391
288.33,34.4285,-0.18657,0.34805,0.97353
289.03,34.4957,-0.18948,0.34942,0.97315
289.73,34.56263,-0.19158,0.34959,0.97277
290.43,34.62947,-0.19438,0.3516,0.97239
291.13,34.69642,-0.19703,0.35229,0.97201
291.83,34.7632,-0.20027,0.35349,0.97162
292.53,34.83,-0.20311,0.35459,0.97124
293.23,34.8968,-0.20442,0.35687,0.97085
293.93,34.9638,-0.2061,0.35768,0.97047
294.63,35.0309,-0.20888,0.3596,0.97008
295.33,35.0978,-0.21285,0.3594,0.9697
296.03,35.16488,-0.21754,0.36206,0.96931
296.73,35.23183,-0.22085,0.36455,0.96892
297.43,35.2988,-0.22408,0.3658,0.96854
298.13,35.36571,-0.22655,0.36829,0.96815
298.83,35.43262,-0.22967,0.36836,0.96776
299.53,35.4995,-0.23296,0.3685,0.96737
300.23,35.56638,-0.23595,0.37049,0.96698
300.93,35.6334,-0.23991,0.37261,0.96659
301.63,35.7003,-0.24352,0.37439,0.9662
302.33,35.76748,-0.24914,0.37897,0.9658
303.03,35.8341,-0.25276,0.37993,0.96541
303.73,35.90099,-0.25479,0.38292,0.96502
304.43,35.968,-0.25855,0.38527,0.96462
305.13,36.0352,-0.26377,0.38672,0.96423
305.83,36.10257,-0.26966,0.39038,0.96383
306.53,36.16965,-0.27599,0.39374,0.96344
307.23,36.23673,-0.27975,0.39508,0.96304
307.93,36.30372,-0.28385,0.39867,0.96265
308.63,36.37061,-0.28744,0.40224,0.96225
309.33,36.43763,-0.29396,0.40616,0.96185
310.03,36.50459,-0.29866,0.40745,0.96145
310.73,36.5718,-0.30216,0.41125,0.96105
311.43,36.63883,-0.30797,0.41556,0.96065
312.13,36.7057,-0.31532,0.41842,0.96025
312.83,36.77251,-0.32239,0.42373,0.95985
313.53,36.83967,-0.3279,0.42493,0.95945
314.23,36.9069,-0.33446,0.43058,0.95905
314.93,36.97416,-0.34143,0.43555,0.95864
315.63,37.04125,-0.34805,0.44108,0.95824
316.33,37.10792,-0.35489,0.44382,0.95784
317.03,37.17429,-0.36163,0.45132,0.95743
317.73,37.241,-0.37033,0.45916,0.95703
318.43,37.30867,-0.38015,0.46516,0.95662
319.13,37.37665,-0.38716,0.47323,0.95621
319.83,37.4446,-0.39578,0.47987,0.95581
320.53,37.51177,-0.39992,0.48551,0.9554
321.23,37.57894,-0.41248,0.49371,0.95499
321.93,37.64581,-0.4222,0.5008,0.95458
322.63,37.71314,-0.4312,0.51191,0.95417
323.33,37.78055,-0.4398,0.51988,0.95376
324.03,37.84838,-0.45018,0.52947,0.95335
324.73,37.9157,-0.46111,0.5388,0.95294
325.43,37.9831,-0.47256,0.54733,0.95253
326.13,38.0501,-0.48319,0.55951,0.95212
326.83,38.11727,-0.49485,0.57085,0.9517
327.53,38.18455,-0.5069,0.58348,0.95129
328.23,38.252,-0.51989,0.59785,0.95087
328.93,38.31966,-0.53207,0.61063,0.95046
329.63,38.3871,-0.54649,0.62238,0.95004
330.33,38.45452,-0.55961,0.63613,0.94963
331.03,38.52189,-0.57364,0.65295,0.94921
331.73,38.58918,-0.58862,0.67205,0.94879
332.43,38.6567,-0.60476,0.68646,0.94838
333.13,38.72429,-0.62087,0.70375,0.94796
333.83,38.79197,-0.63627,0.72258,0.94754
334.53,38.85935,-0.65544,0.74185,0.94712
335.23,38.92595,-0.67399,0.76297,0.9467
335.93,38.99315,-0.69237,0.78269,0.94628
336.63,39.06055,-0.71044,0.80706,0.94586
337.33,39.12872,-0.7317,0.82968,0.94543
338.03,39.1965,-0.75374,0.85298,0.94501
338.73,39.26403,-0.77562,0.88181,0.94459
339.43,39.3316,-0.79892,0.90823,0.94417
340.13,39.3989,-0.82246,0.93536,0.94374
340.83,39.46652,-0.84397,0.96141,0.94332
341.53,39.53418,-0.87165,0.99358,0.94289
342.23,39.60184,-0.89921,1.02306,0.94246
342.93,39.66946,-0.92741,1.05685,0.94204
343.63,39.7372,-0.95567,1.08756,0.94161
344.33,39.80506,-0.98837,1.12322,0.94118
345.03,39.8729,-1.01873,1.1593,0.94075
345.73,39.9406,-1.05137,1.1922,0.94032
346.43,40.00824,-1.08562,1.23187,0.93989
347.13,40.07593,-1.12003,1.26742,0.93946
347.83,40.1437,-1.1549,1.30431,0.93903
348.53,40.21164,-1.19389,1.34448,0.9386
349.23,40.27941,-1.23404,1.38267,0.93817
349.93,40.34753,-1.27317,1.42119,0.93774
350.63,40.41537,-1.3142,1.4605,0.9373
351.33,40.4834,-1.3589,1.49732,0.93687
352.03,40.55128,-1.40094,1.53543,0.93643
352.73,40.6193,-1.44689,1.57386,0.936
353.43,40.6873,-1.49674,1.60781,0.93556
354.13,40.75548,-1.54523,1.6439,0.93513
354.83,40.82327,-1.59128,1.67876,0.93469
355.53,40.89132,-1.64296,1.7107,0.93425
356.23,40.9595,-1.69711,1.73904,0.93381
356.93,41.02811,-1.74871,1.76529,0.93337
357.63,41.09615,-1.802,1.78719,0.93294
358.33,41.16395,-1.85858,1.80984,0.9325
359.03,41.23133,-1.91294,1.82531,0.93205
359.73,41.2988,-1.96698,1.83856,0.93161
360.43,41.36688,-2.02348,1.84569,0.93117
361.13,41.4353,-2.08036,1.85082,0.93073
361.83,41.50385,-2.13578,1.85277,0.93029
362.53,41.57165,-2.1919,1.84856,0.92984
363.23,41.6394,-2.24862,1.84326,0.9294
363.93,41.707,-2.30253,1.83068,0.92895
364.63,41.77469,-2.35863,1.81692,0.92851
365.33,41.84237,-2.41428,1.80154,0.92806
366.03,41.91008,-2.46845,1.77927,0.92762
366.73,41.97788,-2.52118,1.75333,0.92717
367.43,42.04541,-2.5749,1.72477,0.92672
368.13,42.113,-2.62827,1.6921,0.92627
368.83,42.18045,-2.67817,1.65817,0.92582
369.53,42.24801,-2.72937,1.61491,0.92537
370.23,42.31537,-2.7794,1.57604,0.92492
370.93,42.3828,-2.8264,1.5274,0.92447
371.63,42.45009,-2.87231,1.475,0.92402
372.33,42.51745,-2.91665,1.42108,0.92357
373.03,42.58467,-2.956,1.36087,0.92312
373.73,42.65208,-2.99865,1.29811,0.92266
374.43,42.7195,-3.039,1.23071,0.92221
375.13,42.78658,-3.07347,1.15967,0.92176
375.83,42.8536,-3.10925,1.08421,0.9213
376.53,42.9205,-3.14136,1.00705,0.92085
377.23,42.9877,-3.17013,0.92621,0.92039
377.93,43.0548,-3.19845,0.84196,0.91993
378.63,43.122,-3.22325,0.76093,0.91948
379.33,43.18902,-3.24594,0.6777,0.91902
380.03,43.25633,-3.26458,0.59558,0.91856
380.73,43.3232,-3.28198,0.51763,0.9181
381.43,43.3902,-3.2952,0.4409,0.91764
382.13,43.45706,-3.30618,0.37144,0.91718
382.83,43.5242,-3.31751,0.30528,0.91672
383.53,43.59124,-3.32863,0.24565,0.91626
384.23,43.65837,-3.33709,0.1929,0.9158
384.93,43.72558,-3.34192,0.14754,0.91533
385.63,43.79265,-3.34834,0.10761,0.91487
386.33,43.85974,-3.352,0.07930712,0.91441
387.03,43.92682,-3.35569,0.05292686,0.91394
387.73,43.99393,-3.3592,0.03312058,0.91348
388.43,44.06116,-3.3619,0.01860856,0.91301
389.13,44.12829,-3.36486,0.00480268,0.91255
389.83,44.19554,-3.36486,-0.006181531,0.91208
390.53,44.26292,-3.36642,-0.01131346,0.91161
391.23,44.33034,-3.36883,-0.01856544,0.91115
391.93,44.3978,-3.37012,-0.02205483,0.91068
392.63,44.4651,-3.37145,-0.02485789,0.91021
393.33,44.5326,-3.37148,-0.02850554,0.90974
394.03,44.6,-3.37277,-0.03095809,0.90927
394.73,44.66735,-3.37408,-0.03115398,0.9088
395.43,44.73475,-3.37491,-0.03403487,0.90833
396.13,44.80207,-3.37536,-0.03451185,0.90785
396.83,44.86974,-3.37769,-0.03614312,0.90738
397.53,44.93727,-3.37804,-0.03665926,0.90691
398.23,45.00488,-3.37869,-0.03701347,0.90643
398.93,45.0725,-3.37953,-0.03904686,0.90596
399.63,45.1402,-3.38199,-0.03859238,0.90548
400.33,45.20799,-3.38199,-0.03978066,0.90501
401.03,45.27587,-3.38178,-0.04003811,0.90453
401.73,45.34375,-3.38233,-0.0397076,0.90406
402.43,45.4117,-3.38233,-0.03943967,0.90358
403.13,45.47938,-3.38364,-0.0390623,0.9031
403.83,45.54722,-3.38622,-0.03983266,0.90262
404.53,45.61515,-3.38759,-0.03882097,0.90214
405.23,45.68323,-3.38759,-0.03808379,0.90166
405.93,45.75143,-3.38756,-0.03898075,0.90118
406.63,45.8196,-3.38891,-0.03986715,0.9007
407.33,45.88772,-3.39019,-0.04018036,0.90022
408.03,45.95564,-3.39024,-0.04270602,0.89974
408.73,46.0236,-3.39215,-0.04313527,0.89926
409.43,46.0914,-3.39395,-0.04127932,0.89877
410.13,46.15911,-3.39418,-0.04146433,0.89829
410.83,46.22694,-3.39418,-0.04363015,0.89781
411.53,46.29513,-3.3955,-0.04329364,0.89732
412.23,46.36323,-3.3968,-0.04327789,0.89684
412.93,46.43144,-3.39681,-0.04195881,0.89635
413.63,46.4993,-3.39813,-0.04183906,0.89586
414.33,46.56726,-3.39945,-0.04136463,0.89538
415.03,46.6352,-3.40074,-0.04041448,0.89489
415.73,46.7036,-3.40207,-0.04108596,0.8944
416.43,46.7712,-3.40209,-0.04207556,0.89391
417.13,46.8391,-3.40208,-0.04021334,0.89342
417.83,46.9071,-3.40471,-0.03901035,0.89293
418.53,46.97572,-3.4034,-0.03989862,0.89244
419.23,47.04404,-3.40473,-0.04072163,0.89195
419.93,47.11226,-3.40472,-0.04133924,0.89146
420.63,47.18047,-3.40475,-0.04249583,0.89097
421.33,47.24859,-3.40603,-0.0402526,0.89047
422.03,47.31693,-3.40721,-0.04137715,0.88998
422.73,47.3852,-3.40737,-0.04269819,0.88948
423.43,47.45343,-3.40867,-0.04249692,0.88899
424.13,47.52146,-3.40867,-0.0401564,0.88849
424.83,47.58956,-3.40999,-0.0428734,0.888
425.53,47.6577,-3.41068,-0.04126241,0.8875
426.23,47.72609,-3.4113,-0.04114275,0.88701
426.93,47.79436,-3.41403,-0.04132278,0.88651
427.63,47.86274,-3.41393,-0.042581,0.88601
428.33,47.93103,-3.41393,-0.0418714,0.88551
429.03,47.99927,-3.41537,-0.04098884,0.88501
429.73,48.06758,-3.41537,-0.03923945,0.88451
430.43,48.13573,-3.41537,-0.04140256,0.88401
431.13,48.20401,-3.41533,-0.0405441,0.88351
431.83,48.27223,-3.41668,-0.04264801,0.88301
432.53,48.3407,-3.418,-0.04027767,0.88251
433.23,48.40903,-3.41932,-0.03943219,0.882
433.93,48.4771,-3.41932,-0.0391143,0.8815
434.63,48.54523,-3.41932,-0.03981517,0.881
435.33,48.61347,-3.42064,-0.04226813,0.88049
436.03,48.68205,-3.4206,-0.04014126,0.87999
436.73,48.75046,-3.42195,-0.04128331,0.87948
437.43,48.81903,-3.42195,-0.04157606,0.87898
438.13,48.88753,-3.42327,-0.04140034,0.87847
438.83,48.95628,-3.4246,-0.03979125,0.87796
439.53,49.02474,-3.4246,-0.03919613,0.87745
440.23,49.09325,-3.42689,-0.04085865,0.87695
440.93,49.1616,-3.42695,-0.04065111,0.87644
441.63,49.2301,-3.42721,-0.03968413,0.87593
442.33,49.29864,-3.42902,-0.03976834,0.87542
443.03,49.36707,-3.43022,-0.0427753,0.87491
443.73,49.43551,-3.43092,-0.04256869,0.8744
444.43,49.50395,-3.43215,-0.04162102,0.87388
445.13,49.57216,-3.43218,-0.03907197,0.87337
445.83,49.6407,-3.4315,-0.03801139,0.87286
446.53,49.70928,-3.4315,-0.04065323,0.87234
447.23,49.77832,-3.43282,-0.03911285,0.87183
447.93,49.84702,-3.43327,-0.03803898,0.87132
448.63,49.9157,-3.43414,-0.03853636,0.8708
449.33,49.98455,-3.43552,-0.03922569,0.87029
450.03,50.05297,-3.43688,-0.03763287,0.86977
450.73,50.12168,-3.43688,-0.03926281,0.86925
451.43,50.19011,-3.43688,-0.03977598,0.86874
452.13,50.25897,-3.43688,-0.03887421,0.86822
452.83,50.3275,-3.43816,-0.03834091,0.8677
453.53,50.39604,-3.43754,-0.03928738,0.86718
454.23,50.4646,-3.43759,-0.04043883,0.86666
454.93,50.53346,-3.44055,-0.04022917,0.86614
455.63,50.60226,-3.44116,-0.03778154,0.86562
456.33,50.67096,-3.44247,-0.0382534,0.8651
457.03,50.73958,-3.44247,-0.03924403,0.86458
457.73,50.80806,-3.44244,-0.03949298,0.86405
458.43,50.8765,-3.4438,-0.04045171,0.86353
459.13,50.94473,-3.44379,-0.03840699,0.86301
459.83,51.01324,-3.44314,-0.03850105,0.86248
460.53,51.08174,-3.44445,-0.0389504,0.86196
461.23,51.15032,-3.44446,-0.0398748,0.86143
461.93,51.2189,-3.44441,-0.03743622,0.86091
462.63,51.2875,-3.44651,-0.03923119,0.86038
463.33,51.35595,-3.44841,-0.0388504,0.85985
464.03,51.42473,-3.44841,-0.03944984,0.85933
464.73,51.49353,-3.44974,-0.03805492,0.8588
465.43,51.56268,-3.44974,-0.03814391,0.85827
466.13,51.6312,-3.45106,-0.03688604,0.85774
466.83,51.69988,-3.45072,-0.03714795,0.85721
467.53,51.76866,-3.44972,-0.03766607,0.85668
468.23,51.83747,-3.45106,-0.03470036,0.85615
468.93,51.9063,-3.4517,-0.03773732,0.85562
469.63,51.97508,-3.45234,-0.0360299,0.85509
470.33,52.04391,-3.45368,-0.03624406,0.85456
471.03,52.11282,-3.45367,-0.03511473,0.85402
471.73,52.18165,-3.45374,-0.03907934,0.85349
472.43,52.25062,-3.455,-0.03752926,0.85296
473.13,52.31947,-3.455,-0.0377722,0.85242
473.83,52.38827,-3.45634,-0.03820805,0.85189
474.53,52.45711,-3.45598,-0.03700041,0.85135
475.23,52.52568,-3.45598,-0.03662019,0.85081
475.93,52.5945,-3.45735,-0.03587669,0.85028
476.63,52.6633,-3.45758,-0.03655164,0.84974
477.33,52.73205,-3.45862,-0.03666733,0.8492
478.03,52.80072,-3.45901,-0.03475199,0.84867
478.73,52.86926,-3.45993,-0.03482915,0.84813
479.43,52.9382,-3.46209,-0.03497982,0.84759
480.13,53.0071,-3.46225,-0.03554342,0.84705
480.83,53.07606,-3.46092,-0.03451452,0.84651
481.53,53.14504,-3.46185,-0.03382328,0.84597
482.23,53.21385,-3.46224,-0.03387707,0.84542
482.93,53.2829,-3.46356,-0.0351077,0.84488
483.63,53.35174,-3.46487,-0.03202306,0.84434
484.33,53.42077,-3.46488,-0.03214029,0.8438
485.03,53.4897,-3.46421,-0.03131177,0.84325
485.73,53.55856,-3.46481,-0.02749884,0.84271
486.43,53.62744,-3.46619,-0.02557423,0.84216
487.13,53.6963,-3.46618,-0.02237538,0.84162
487.83,53.76531,-3.46881,-0.01737834,0.84107
488.53,53.83413,-3.46883,-0.01692699,0.84053
489.23,53.9031,-3.46884,-0.01235985,0.83998
489.93,53.9722,-3.46879,-0.01050589,0.83943
490.63,54.0414,-3.47014,-0.00750077,0.83889
491.33,54.11029,-3.47014,-0.003495244,0.83834
492.03,54.17929,-3.47014,-0.003728967,0.83779
492.73,54.24805,-3.47014,-0.00220231,0.83724
493.43,54.317,-3.47014,-0.001019048,0.83669
494.13,54.3858,-3.47154,-0.00223741,0.83614
494.83,54.4549,-3.47146,-0.00254973,0.83559
495.53,54.52404,-3.47278,-0.0005389533,0.83504
496.23,54.5932,-3.47272,-0.00278349,0.83448
496.93,54.66219,-3.47411,-0.004268414,0.83393
497.63,54.731,-3.47509,-0.00193875,0.83338
498.33,54.79995,-3.47509,-0.002563482,0.83283
499.03,54.8689,-3.47509,-0.004321613,0.83227
499.73,54.9379,-3.47647,-0.00733103,0.83172
500.43,55.0071,-3.47508,-0.0061296,0.83116
501.13,55.0762,-3.47515,-0.007487542,0.83061
501.83,55.14532,-3.4754,-0.009089052,0.83005
502.53,55.21383,-3.47674,-0.008613574,0.82949
503.23,55.28285,-3.47805,-0.009938399,0.82894
503.93,55.35184,-3.47937,-0.007237517,0.82838
504.63,55.4214,-3.48068,-0.007136766,0.82782
505.33,55.49034,-3.482,-0.00840375,0.82726
506.03,55.55928,-3.482,-0.00704063,0.8267
506.73,55.6282,-3.48202,-0.0100109,0.82614
507.43,55.69715,-3.48299,-0.01043157,0.82558
508.13,55.766,-3.48299,-0.01254492,0.82502
508.83,55.83491,-3.48299,-0.01585666,0.82446
509.53,55.9039,-3.48299,-0.01738242,0.8239
510.23,55.97299,-3.48299,-0.01919792,0.82334
510.93,56.04218,-3.48299,-0.02309794,0.82277
511.63,56.11136,-3.48332,-0.02671083,0.82221
512.33,56.18055,-3.48464,-0.02961613,0.82165
513.03,56.2496,-3.48464,-0.03352724,0.82108
513.73,56.3186,-3.48417,-0.03719025,0.82052
514.43,56.38776,-3.48511,-0.03909917,0.81995
515.13,56.4568,-3.48595,-0.0438506,0.81939
515.83,56.52587,-3.48594,-0.04540673,0.81882
516.53,56.59482,-3.48727,-0.04834502,0.81825
517.23,56.664,-3.48727,-0.047926,0.81768
517.93,56.7333,-3.48727,-0.04939789,0.81712
518.63,56.8028,-3.48859,-0.0499193,0.81655
519.33,56.87214,-3.4899,-0.05436584,0.81598
520.03,56.94146,-3.48848,-0.05431805,0.81541
520.73,57.0107,-3.48848,-0.05646821,0.81484
521.43,57.07994,-3.48848,-0.05936096,0.81427
522.13,57.1492,-3.48848,-0.0590818,0.8137
522.83,57.21836,-3.48946,-0.06016559,0.81313
523.53,57.28773,-3.48946,-0.06062083,0.81256
524.23,57.357,-3.49078,-0.0647156,0.81198
524.93,57.42634,-3.4911,-0.06395631,0.81141
525.63,57.4954,-3.49242,-0.06500335,0.81084
526.33,57.5646,-3.49111,-0.06347095,0.81026
527.03,57.63377,-3.49112,-0.06312274,0.80969
527.73,57.70299,-3.49384,-0.06587294,0.80912
528.43,57.7724,-3.49375,-0.06595957,0.80854
529.13,57.84179,-3.49243,-0.06628651,0.80796
529.83,57.91117,-3.49512,-0.06521273,0.80739
530.53,57.9804,-3.49507,-0.0673963,0.80681
531.23,58.0497,-3.49638,-0.06859316,0.80623
531.93,58.119,-3.4954,-0.06781224,0.80566
532.63,58.1883,-3.49539,-0.06787223,0.80508
533.33,58.2578,-3.49539,-0.06991283,0.8045
534.03,58.32719,-3.49524,-0.07101805,0.80392
534.73,58.39677,-3.49677,-0.07145215,0.80334
535.43,58.4661,-3.49671,-0.07358044,0.80276
536.13,58.5353,-3.49671,-0.07393893,0.80218
536.83,58.60455,-3.49671,-0.07591698,0.8016
537.53,58.67391,-3.49671,-0.07335823,0.80102
538.23,58.74354,-3.4974,-0.07605541,0.80044
538.93,58.813,-3.498,-0.07677156,0.79985
539.63,58.8825,-3.5005,-0.07821333,0.79927
540.33,58.952,-3.49926,-0.07773008,0.79869
541.03,59.02135,-3.49934,-0.07861392,0.7981
541.73,59.091,-3.49933,-0.07631507,0.79752
542.43,59.16045,-3.50197,-0.07963989,0.79693
543.13,59.23019,-3.50198,-0.07972728,0.79635
543.83,59.29981,-3.50198,-0.07856493,0.79576
544.53,59.3694,-3.50067,-0.08076178,0.79518
545.23,59.43897,-3.50198,-0.07795692,0.79459
545.93,59.5086,-3.50198,-0.08013893,0.794
546.63,59.57819,-3.50198,-0.07737842,0.79342
547.33,59.6478,-3.50198,-0.07938826,0.79283
548.03,59.71728,-3.50208,-0.07930272,0.79224
548.73,59.78689,-3.50099,-0.07814089,0.79165
549.43,59.8566,-3.50232,-0.07691146,0.79106
550.13,59.92601,-3.5033,-0.07508037,0.79047
550.83,59.9957,-3.5033,-0.07738419,0.78988
551.53,60.06507,-3.50347,-0.07941791,0.78929
552.23,60.13475,-3.50358,-0.07869986,0.7887
552.93,60.2042,-3.50494,-0.07773906,0.78811
553.63,60.27391,-3.50494,-0.07724478,0.78752
554.33,60.3435,-3.50494,-0.07833958,0.78692
555.03,60.41305,-3.50612,-0.07829122,0.78633
555.73,60.4824,-3.50627,-0.07637877,0.78574
556.43,60.5518,-3.50758,-0.07676191,0.78514
557.13,60.62101,-3.50891,-0.07579549,0.78455
557.83,60.69034,-3.50791,-0.07405406,0.78395
558.53,60.75975,-3.5079,-0.07635999,0.78336
559.23,60.8292,-3.50889,-0.07608219,0.78276
559.93,60.8986,-3.50889,-0.0774594,0.78217
560.63,60.9682,-3.51032,-0.07574491,0.78157
561.33,61.0378,-3.51032,-0.0739209,0.78097
562.03,61.10739,-3.51031,-0.07632554,0.78037
562.73,61.1768,-3.509,-0.07657987,0.77978
563.43,61.24626,-3.50836,-0.07782502,0.77918
564.13,61.3156,-3.50961,-0.0769728,0.77858
564.83,61.38499,-3.50966,-0.07630489,0.77798
565.53,61.4545,-3.50966,-0.07629098,0.77738
566.23,61.52405,-3.51097,-0.07583715,0.77678
566.93,61.59369,-3.51231,-0.07766817,0.77618
567.63,61.66316,-3.51097,-0.07691307,0.77558
568.33,61.7327,-3.50967,-0.07684656,0.77498
569.03,61.8024,-3.50999,-0.07679594,0.77437
569.73,61.8721,-3.51099,-0.07570769,0.77377
570.43,61.94175,-3.51148,-0.07491144,0.77317
571.13,62.01129,-3.5123,-0.07637909,0.77257
571.83,62.08061,-3.51234,-0.07440525,0.77196
572.53,62.15047,-3.5127,-0.07577611,0.77136
573.23,62.2203,-3.51241,-0.07658753,0.77075
573.93,62.2902,-3.51273,-0.07740345,0.77015
574.63,62.3596,-3.51274,-0.0754361,0.76954
575.33,62.4291,-3.51274,-0.07522532,0.76894
576.03,62.4988,-3.51406,-0.07694498,0.76833
576.73,62.5686,-3.51504,-0.07728917,0.76772
577.43,62.6381,-3.51504,-0.07581903,0.76712
578.13,62.70763,-3.51501,-0.07686253,0.76651
578.83,62.77731,-3.51539,-0.07590074,0.7659
579.53,62.84717,-3.51669,-0.07432711,0.76529
580.23,62.91692,-3.51669,-0.07449372,0.76468
580.93,62.9861,-3.51669,-0.07381617,0.76407
581.63,63.05549,-3.51669,-0.07505084,0.76346
582.33,63.12516,-3.51669,-0.0744959,0.76285
583.03,63.1952,-3.51669,-0.07643949,0.76224
583.73,63.26501,-3.51807,-0.07777499,0.76163
584.43,63.33465,-3.51703,-0.07539114,0.76102
585.13,63.40453,-3.51695,-0.07454459,0.76041
585.83,63.4744,-3.51834,-0.0739262,0.7598
586.53,63.5443,-3.51834,-0.07215039,0.75919
587.23,63.61402,-3.51834,-0.0723562,0.75857
587.93,63.68348,-3.51834,-0.07256915,0.75796
588.63,63.753,-3.51897,-0.07117392,0.75735
589.33,63.82265,-3.51965,-0.07231672,0.75673
590.03,63.8926,-3.52074,-0.07003974,0.75612
590.73,63.9626,-3.52196,-0.07201476,0.7555
591.43,64.03243,-3.52059,-0.07218967,0.75489
592.13,64.1023,-3.52064,-0.07349517,0.75427
592.83,64.17203,-3.51987,-0.07040665,0.75366
593.53,64.24176,-3.51966,-0.06895317,0.75304
594.23,64.31143,-3.52012,-0.070622,0.75242
594.93,64.38127,-3.52098,-0.07052598,0.7518
595.63,64.4512,-3.52098,-0.06849525,0.75119
596.33,64.52146,-3.52098,-0.06673554,0.75057
597.03,64.59165,-3.52065,-0.06671085,0.74995
597.73,64.66189,-3.52139,-0.0674184,0.74933
598.43,64.73181,-3.52131,-0.06932831,0.74871
599.13,64.8018,-3.52131,-0.06936991,0.74809
599.83,64.87172,-3.52131,-0.06727997,0.74747
600.53,64.94167,-3.52262,-0.06618606,0.74685
601.23,65.01177,-3.52166,-0.06676035,0.74623
601.93,65.08201,-3.52377,-0.06754051,0.74561
602.63,65.15222,-3.52426,-0.06828128,0.74499
603.33,65.22238,-3.52284,-0.06819908,0.74437
604.03,65.2924,-3.5223,-0.06803189,0.74374
604.73,65.36264,-3.52224,-0.06709332,0.74312
605.43,65.43289,-3.52328,-0.06768753,0.7425
606.13,65.50322,-3.52343,-0.06848397,0.74187
606.83,65.57342,-3.5246,-0.06982242,0.74125
607.53,65.6433,-3.52553,-0.06919061,0.74063
608.23,65.71316,-3.52592,-0.06512846,0.74
608.93,65.78305,-3.52592,-0.06722674,0.73938
609.63,65.85305,-3.52723,-0.06603943,0.73875
610.33,65.92319,-3.52723,-0.06447188,0.73812
611.03,65.99337,-3.52789,-0.06461019,0.7375
611.73,66.06341,-3.52789,-0.06373573,0.73687
612.43,66.13345,-3.52721,-0.06502597,0.73625
613.13,66.2036,-3.52657,-0.06471578,0.73562
613.83,66.27394,-3.52656,-0.0640348,0.73499
614.53,66.34394,-3.52789,-0.06582691,0.73436
615.23,66.41396,-3.52789,-0.06315419,0.73373
615.93,66.48389,-3.52788,-0.06159083,0.73311
616.63,66.554,-3.52601,-0.06130438,0.73248
617.33,66.62389,-3.52595,-0.06317882,0.73185
618.03,66.69404,-3.52822,-0.06149623,0.73122
618.73,66.76399,-3.52992,-0.06040488,0.73059
619.43,66.83415,-3.53117,-0.06334125,0.72996
620.13,66.90417,-3.53119,-0.06128193,0.72933
620.83,66.97449,-3.52987,-0.06289883,0.72869
621.53,67.04465,-3.52987,-0.06221591,0.72806
622.23,67.11429,-3.52987,-0.06385337,0.72743
622.93,67.18393,-3.52987,-0.06189834,0.7268
623.63,67.25366,-3.52987,-0.06056876,0.72617
624.33,67.32381,-3.5298,-0.06278649,0.72553
625.03,67.39379,-3.53118,-0.06209926,0.7249
625.73,67.46342,-3.5312,-0.05958595,0.72427
626.43,67.53312,-3.53049,-0.05945984,0.72363
627.13,67.60295,-3.52915,-0.06133565,0.723
627.83,67.67317,-3.53052,-0.05852893,0.72236
628.53,67.74341,-3.53052,-0.05537396,0.72173
629.23,67.81354,-3.53052,-0.05404208,0.72109
629.93,67.8835,-3.53248,-0.05008344,0.72046
630.63,67.95323,-3.53335,-0.05172188,0.71982
631.33,68.0234,-3.53213,-0.05081317,0.71918
632.03,68.09361,-3.52945,-0.05193697,0.71855
632.73,68.16408,-3.53007,-0.05102115,0.71791
633.43,68.23411,-3.53213,-0.05146704,0.71727
634.13,68.30409,-3.53351,-0.05047701,0.71663
634.83,68.3742,-3.53206,-0.04700525,0.716
635.53,68.44425,-3.53206,-0.04684325,0.71536
636.23,68.51438,-3.53307,-0.04535056,0.71472
636.93,68.58434,-3.53339,-0.04546756,0.71408
637.63,68.6545,-3.53361,-0.04560946,0.71344
638.33,68.7247,-3.5334,-0.04657873,0.7128
639.03,68.79488,-3.53208,-0.04752748,0.71216
639.73,68.86502,-3.53338,-0.04409596,0.71152
640.43,68.93545,-3.5333,-0.04305305,0.71088
641.13,69.00576,-3.53338,-0.04178357,0.71024
641.83,69.07607,-3.5345,-0.04302029,0.7096
642.53,69.146,-3.53469,-0.0435877,0.70896
643.23,69.21602,-3.53469,-0.04595741,0.70831
643.93,69.2859,-3.53338,-0.04387916,0.70767
644.63,69.3562,-3.53474,-0.04487316,0.70703
645.33,69.42661,-3.5347,-0.0426372,0.70639
646.03,69.49729,-3.5347,-0.04448422,0.70574
646.73,69.56778,-3.5334,-0.04384517,0.7051
647.43,69.63815,-3.53346,-0.04352976,0.70446
648.13,69.7085,-3.53448,-0.0431531,0.70381
648.83,69.77852,-3.53449,-0.03807716,0.70317
649.53,69.84889,-3.53538,-0.03921348,0.70252
650.23,69.91922,-3.53615,-0.04040536,0.70188
650.93,69.98974,-3.53481,-0.03985829,0.70123
651.63,70.06,-3.53547,-0.04018075,0.70059
652.33,70.1303,-3.53613,-0.03741276,0.69994
653.03,70.20059,-3.53547,-0.03904391,0.69929
653.73,70.27084,-3.53547,-0.03742623,0.69865
654.43,70.34092,-3.53443,-0.03617635,0.698
655.13,70.41096,-3.53554,-0.03578539,0.69735
655.83,70.48114,-3.53547,-0.03597443,0.69671
656.53,70.55131,-3.53614,-0.03626056,0.69606
657.23,70.62156,-3.53679,-0.03595622,0.69541
657.93,70.69154,-3.53679,-0.03560392,0.69476
658.63,70.76137,-3.53778,-0.03522674,0.69411
659.33,70.8314,-3.53704,-0.03543325,0.69347
660.03,70.9016,-3.53646,-0.03538699,0.69282
660.73,70.9721,-3.53646,-0.03628925,0.69217
661.43,71.04235,-3.53505,-0.03242209,0.69152
662.13,71.1126,-3.53546,-0.03790582,0.69087
662.83,71.18287,-3.53546,-0.03336169,0.69022
663.53,71.25291,-3.53546,-0.03713329,0.68957
664.23,71.32307,-3.53447,-0.03720915,0.68892
664.93,71.39304,-3.53546,-0.03370007,0.68826
665.63,71.4632,-3.53546,-0.03329819,0.68761
666.33,71.53339,-3.53546,-0.03135322,0.68696
667.03,71.60365,-3.53623,-0.02995154,0.68631
667.73,71.67389,-3.53678,-0.03367575,0.68566
668.43,71.74413,-3.53678,-0.02909176,0.685
669.13,71.8146,-3.53678,-0.02813697,0.68435
669.83,71.88508,-3.53678,-0.02838968,0.6837
670.53,71.95566,-3.53678,-0.02944387,0.68305
671.23,72.02603,-3.53678,-0.02849788,0.68239
671.93,72.09637,-3.53581,-0.02956883,0.68174
672.63,72.16656,-3.53643,-0.0285542,0.68108
673.33,72.237,-3.53714,-0.02902452,0.68043
674.03,72.3075,-3.5358,-0.0260558,0.67978
674.73,72.37804,-3.53579,-0.02461275,0.67912
675.43,72.44834,-3.53676,-0.0254108,0.67847
676.13,72.51866,-3.53678,-0.02302469,0.67781
676.83,72.589,-3.53679,-0.02285221,0.67715
677.53,72.6592,-3.5381,-0.0237627,0.6765
678.23,72.72969,-3.5381,-0.0218143,0.67584
678.93,72.80019,-3.5381,-0.02128073,0.67519
679.63,72.87059,-3.5381,-0.01986049,0.67453
680.33,72.94088,-3.53843,-0.01923063,0.67387
681.03,73.0111,-3.53843,-0.01828338,0.67322
681.73,73.08159,-3.53975,-0.02071601,0.67256
682.43,73.15176,-3.53975,-0.02143683,0.6719
683.13,73.22215,-3.53975,-0.01940395,0.67124
683.83,73.29214,-3.53844,-0.02204237,0.67058
684.53,73.36293,-3.53843,-0.01828866,0.66993
685.23,73.43349,-3.53714,-0.02069785,0.66927
685.93,73.50445,-3.53842,-0.01873728,0.66861
686.63,73.57417,-3.53975,-0.01568731,0.66795
687.33,73.64426,-3.54012,-0.01429806,0.66729
688.03,73.71459,-3.54106,-0.01529667,0.66663
688.73,73.7859,-3.54106,-0.0106281,0.66597
689.43,73.8566,-3.54236,-0.009894769,0.66531
690.13,73.92716,-3.54371,-0.01065503,0.66465
690.83,73.99754,-3.54107,-0.01281943,0.66399
691.53,74.0681,-3.54106,-0.01098426,0.66333
692.23,74.13818,-3.54108,-0.01127058,0.66267
692.93,74.20858,-3.5404,-0.01118729,0.66201
693.63,74.27919,-3.5404,-0.0108655,0.66135
694.33,74.35004,-3.54172,-0.01527792,0.66069
695.03,74.42058,-3.54307,-0.01381577,0.66002
695.73,74.491,-3.54437,-0.01024601,0.65936
696.43,74.5616,-3.5426,-0.01338757,0.6587
697.13,74.63241,-3.54208,-0.01155797,0.65804
697.83,74.70323,-3.54316,-0.01253068,0.65737
698.53,74.774,-3.54304,-0.01269936,0.65671
699.23,74.84448,-3.54304,-0.0120794,0.65605
699.93,74.9148,-3.54304,-0.01291678,0.65539
700.63,74.9851,-3.54178,-0.01278446,0.65472
701.33,75.0555,-3.54172,-0.01288686,0.65406
702.03,75.12615,-3.54172,-0.01207766,0.65339
702.73,75.19676,-3.54172,-0.01180855,0.65273
703.43,75.26731,-3.54198,-0.01146544,0.65207
704.13,75.33766,-3.54271,-0.01302332,0.6514
704.83,75.40783,-3.54256,-0.01181195,0.65074
705.53,75.4781,-3.54303,-0.01293238,0.65007
706.23,75.54855,-3.54435,-0.01450879,0.64941
706.93,75.6192,-3.54436,-0.0158124,0.64874
707.63,75.6896,-3.54205,-0.01198424,0.64808
708.33,75.75997,-3.54205,-0.0119942,0.64741
709.03,75.83032,-3.54337,-0.01413239,0.64674
709.73,75.90069,-3.54469,-0.01420817,0.64608
710.43,75.97103,-3.54469,-0.01213053,0.64541
711.13,76.04141,-3.54458,-0.01237359,0.64475
711.83,76.11182,-3.54436,-0.0127203,0.64408
712.53,76.18221,-3.54436,-0.01461843,0.64341
713.23,76.25239,-3.54436,-0.01365927,0.64275
713.93,76.3227,-3.54432,-0.0132748,0.64208
714.63,76.39296,-3.54502,-0.01484858,0.64141
715.33,76.46359,-3.54502,-0.0125875,0.64074
716.03,76.53399,-3.54502,-0.01243538,0.64008
716.73,76.60452,-3.54502,-0.01071216,0.63941
717.43,76.67482,-3.54502,-0.01159323,0.63874
718.13,76.7452,-3.54502,-0.009970713,0.63807
718.83,76.81574,-3.54502,-0.01119476,0.6374
719.53,76.88628,-3.54502,-0.01306501,0.63674
720.23,76.95697,-3.54576,-0.01124801,0.63607
720.93,77.02757,-3.54535,-0.0137187,0.6354
721.63,77.09825,-3.54535,-0.01459559,0.63473
722.33,77.16904,-3.5444,-0.01219682,0.63406
723.03,77.23971,-3.54436,-0.01320958,0.63339
723.73,77.31045,-3.54435,-0.01315468,0.63272
724.43,77.3811,-3.54536,-0.01477331,0.63205
725.13,77.45177,-3.54699,-0.01503706,0.63138
725.83,77.5226,-3.54699,-0.01189578,0.63071
726.53,77.59337,-3.54698,-0.01366486,0.63004
727.23,77.66416,-3.54567,-0.01553779,0.62937
727.93,77.73464,-3.547,-0.01511868,0.6287
728.63,77.80535,-3.54699,-0.01887339,0.62803
729.33,77.87599,-3.54627,-0.01623631,0.62736
730.03,77.9467,-3.54633,-0.01279052,0.62669
730.73,78.0172,-3.54633,-0.01779501,0.62602
731.43,78.08779,-3.54533,-0.02053675,0.62535
732.13,78.15808,-3.54536,-0.01983726,0.62467
732.83,78.22887,-3.54469,-0.01581306,0.624
733.53,78.29933,-3.54469,-0.01715654,0.62333
734.23,78.3702,-3.54669,-0.016865,0.62266
734.93,78.44066,-3.54733,-0.01870082,0.62199
735.63,78.51115,-3.54733,-0.01700525,0.62132
736.33,78.5819,-3.54733,-0.01691001,0.62064
737.03,78.6524,-3.54733,-0.01675246,0.61997
737.73,78.72317,-3.547,-0.01649371,0.6193
738.43,78.7938,-3.547,-0.01683789,0.61863
739.13,78.86417,-3.547,-0.01513961,0.61795
739.83,78.93485,-3.547,-0.01590746,0.61728
740.53,79.00532,-3.54568,-0.01737292,0.61661
741.23,79.07638,-3.548,-0.01579179,0.61593
741.93,79.14703,-3.54832,-0.01621514,0.61526
742.63,79.21774,-3.54699,-0.01743993,0.61459
743.33,79.28851,-3.54831,-0.01848615,0.61391
744.03,79.35924,-3.5493,-0.01647221,0.61324
744.73,79.42999,-3.54963,-0.01964724,0.61257
745.43,79.5008,-3.54962,-0.0225294,0.61189
746.13,79.5716,-3.55062,-0.02526208,0.61122
746.83,79.64254,-3.54799,-0.02177531,0.61055
747.53,79.71325,-3.54798,-0.02185915,0.60987
748.23,79.78398,-3.54798,-0.02976662,0.6092
748.93,79.85464,-3.54798,-0.02831022,0.60852
749.63,79.92543,-3.54798,-0.03042976,0.60785
750.33,79.9964,-3.54734,-0.03092464,0.60717
751.03,80.0673,-3.54683,-0.03315361,0.6065
751.73,80.13826,-3.54841,-0.03243188,0.60582
752.43,80.20918,-3.54952,-0.03893069,0.60515
753.13,80.28001,-3.5482,-0.0417511,0.60447
753.83,80.3508,-3.5482,-0.0450269,0.6038
754.53,80.42149,-3.5482,-0.04430982,0.60312
755.23,80.4922,-3.5483,-0.04683833,0.60245
755.93,80.56306,-3.5496,-0.04995837,0.60177
756.63,80.634,-3.55096,-0.04983977,0.6011
757.33,80.70505,-3.55135,-0.05134172,0.60042
758.03,80.7761,-3.55192,-0.05278358,0.59975
758.73,80.84707,-3.5507,-0.05443909,0.59907
759.43,80.91789,-3.55061,-0.05355739,0.5984
760.13,80.9884,-3.55182,-0.05499613,0.59772
760.83,81.0594,-3.55099,-0.0627833,0.59704
761.53,81.13027,-3.55061,-0.05988563,0.59637
762.23,81.20138,-3.55061,-0.06109137,0.59569
762.93,81.27204,-3.5506,-0.06213107,0.59502
763.63,81.34317,-3.54985,-0.06389155,0.59434
764.33,81.41404,-3.55029,-0.06252059,0.59366
765.03,81.4847,-3.55029,-0.06756369,0.59299
765.73,81.55527,-3.55047,-0.06625086,0.59231
766.43,81.62606,-3.54963,-0.06740159,0.59163
767.13,81.69696,-3.54963,-0.06713195,0.59096
767.83,81.76764,-3.55194,-0.06529305,0.59028
768.53,81.83815,-3.55194,-0.06728068,0.5896
769.23,81.90865,-3.55194,-0.06863138,0.58893
769.93,81.97893,-3.55062,-0.06643155,0.58825
770.63,82.04948,-3.55062,-0.06217789,0.58757
771.33,82.12008,-3.55062,-0.06153186,0.58689
772.03,82.1909,-3.55194,-0.06101502,0.58622
772.73,82.26137,-3.55062,-0.05893549,0.58554
773.43,82.33193,-3.55193,-0.0559692,0.58486
774.13,82.40249,-3.55325,-0.05858436,0.58419
774.83,82.47309,-3.55325,-0.0615127,0.58351
775.53,82.5435,-3.55357,-0.06115996,0.58283
776.23,82.61418,-3.55357,-0.06012354,0.58215
776.93,82.68488,-3.55223,-0.05941385,0.58148
777.63,82.75584,-3.55128,-0.05690454,0.5808
778.33,82.82643,-3.55258,-0.05646545,0.58012
779.03,82.89748,-3.5526,-0.05946574,0.57944
779.73,82.9684,-3.55259,-0.05959958,0.57877
780.43,83.0397,-3.55259,-0.05711216,0.57809
781.13,83.11063,-3.55258,-0.06173035,0.57741
781.83,83.18167,-3.55391,-0.06027725,0.57673
782.53,83.25231,-3.55523,-0.05860876,0.57605
783.23,83.32276,-3.55522,-0.05978978,0.57538
783.93,83.39344,-3.55522,-0.05701367,0.5747
784.63,83.46445,-3.55499,-0.05934881,0.57402
785.33,83.53568,-3.55484,-0.05927683,0.57334
786.03,83.60678,-3.55522,-0.06090662,0.57266
786.73,83.6776,-3.55522,-0.06116986,0.57199
787.43,83.74852,-3.55391,-0.06244427,0.57131
788.13,83.81935,-3.55454,-0.06429151,0.57063
788.83,83.89031,-3.55523,-0.06712784,0.56995
789.53,83.96098,-3.55629,-0.06717792,0.56927
790.23,84.0317,-3.55674,-0.06427175,0.5686
790.93,84.1024,-3.55654,-0.06926552,0.56792
791.63,84.1732,-3.55512,-0.07120415,0.56724
792.33,84.24388,-3.55684,-0.06837322,0.56656
793.03,84.31484,-3.55676,-0.07339393,0.56588
793.73,84.38575,-3.55545,-0.07572894,0.56521
794.43,84.45682,-3.55677,-0.07787823,0.56453
795.13,84.52756,-3.55493,-0.07385437,0.56385
795.83,84.59855,-3.55479,-0.07426888,0.56317
796.53,84.66935,-3.55418,-0.07692095,0.56249
797.23,84.74021,-3.55479,-0.07429401,0.56181
797.93,84.811,-3.55479,-0.07550866,0.56114
798.63,84.88178,-3.55466,-0.07685174,0.56046
799.33,84.95265,-3.55403,-0.07945388,0.55978
799.73,84.99295,-3.55609,-0.07697727,0.55939