File: 01_Data/Bean_Bag_Chair_Outer_Cover/STA/N2/10K_min/Bean_Bag_Cover_STA_N2_10KData_220511_R2.csv
##Temp./Â°C,Time/min,Mass loss(subtr.2)/mg,DSC(subtr.2)/(mW/mg),Sensit./(uV/mW)
49.748,10.01,-0.01515,0.01747008,1.07017
50.448,10.77037,-0.01449386,0.0494508,1.06997
51.148,10.9746,-0.0144673,0.0757663,1.06978
51.848,11.12728,-0.01551118,0.09517028,1.06959
52.548,11.2559,-0.01439524,0.11272,1.06939
53.248,11.37085,-0.01533691,0.1267,1.0692
53.948,11.47685,-0.01488413,0.13923,1.069
54.648,11.57582,-0.01416171,0.14988,1.06881
55.348,11.67014,-0.0136069,0.15696,1.06861
56.048,11.7608,-0.01543825,0.16743,1.06842
56.748,11.8494,-0.01580342,0.17377,1.06822
57.448,11.93545,-0.01603079,0.18126,1.06802
58.148,12.01962,-0.01611946,0.1876,1.06782
58.848,12.10211,-0.01605404,0.19396,1.06763
59.548,12.18317,-0.01639873,0.19681,1.06743
60.248,12.26367,-0.0164951,0.20192,1.06723
60.948,12.34314,-0.01616657,0.2072,1.06703
61.648,12.42216,-0.01597461,0.21169,1.06683
62.348,12.49993,-0.01568263,0.21386,1.06663
63.048,12.57755,-0.01661061,0.2177,1.06642
63.748,12.65455,-0.01604522,0.22153,1.06622
64.448,12.7315,-0.01601959,0.22352,1.06602
65.148,12.80787,-0.01733958,0.22791,1.06582
65.848,12.88363,-0.01751239,0.22904,1.06561
66.548,12.9597,-0.01797582,0.23164,1.06541
67.248,13.03556,-0.01763612,0.23417,1.0652
67.948,13.1112,-0.01733828,0.23665,1.065
68.648,13.18624,-0.01865854,0.24025,1.06479
69.348,13.26094,-0.01867054,0.24209,1.06459
70.048,13.33544,-0.01999127,0.24528,1.06438
70.748,13.40986,-0.01865946,0.24773,1.06417
71.448,13.4842,-0.01996627,0.25015,1.06397
72.148,13.55834,-0.02030551,0.25295,1.06376
72.848,13.63215,-0.02126858,0.25608,1.06355
73.548,13.7062,-0.02129,0.25823,1.06334
74.248,13.7799,-0.02128986,0.26094,1.06313
74.948,13.8535,-0.02130642,0.26305,1.06292
75.648,13.9266,-0.01997568,0.26599,1.06271
76.348,13.99968,-0.02129863,0.26836,1.0625
77.048,14.07218,-0.02261501,0.26935,1.06229
77.748,14.1448,-0.02129193,0.27167,1.06208
78.448,14.2175,-0.0225021,0.27342,1.06186
79.148,14.2899,-0.02129038,0.27572,1.06165
79.848,14.3621,-0.02260921,0.27922,1.06144
80.548,14.4339,-0.02392792,0.28035,1.06122
81.248,14.50576,-0.0226413,0.28201,1.06101
81.948,14.5775,-0.02262098,0.28447,1.06079
82.648,14.64936,-0.02293164,0.28558,1.06058
83.348,14.72065,-0.02260319,0.28905,1.06036
84.048,14.7919,-0.02393021,0.28915,1.06014
84.748,14.8629,-0.02392797,0.28994,1.05993
85.448,14.9338,-0.02388264,0.29019,1.05971
86.148,15.0044,-0.02524815,0.29177,1.05949
86.848,15.0748,-0.0252467,0.29275,1.05927
87.548,15.1454,-0.02658852,0.29232,1.05905
88.248,15.2156,-0.02551841,0.2937,1.05883
88.948,15.28595,-0.02656295,0.29439,1.05861
89.648,15.35583,-0.02656,0.29484,1.05839
90.348,15.4261,-0.02655737,0.29614,1.05817
91.048,15.4962,-0.02752114,0.29665,1.05795
91.748,15.5663,-0.02714083,0.29744,1.05772
92.448,15.63587,-0.02789,0.29572,1.0575
93.148,15.7054,-0.02878323,0.29738,1.05728
93.848,15.7748,-0.02926446,0.29743,1.05705
94.548,15.84431,-0.02854151,0.29587,1.05683
95.248,15.9134,-0.0291273,0.29602,1.0566
95.948,15.9823,-0.02920001,0.29538,1.05638
96.648,16.0515,-0.02918534,0.29567,1.05615
97.348,16.12085,-0.03052011,0.29603,1.05592
98.048,16.1902,-0.03051984,0.29553,1.0557
98.748,16.2591,-0.03049969,0.29446,1.05547
99.448,16.32791,-0.03182423,0.294,1.05524
100.148,16.3967,-0.03183012,0.29457,1.05501
100.848,16.46564,-0.03322318,0.29347,1.05478
101.548,16.53441,-0.0318152,0.29373,1.05455
102.248,16.6032,-0.03184478,0.29265,1.05432
102.948,16.6719,-0.03260453,0.29238,1.05409
103.648,16.74053,-0.03412945,0.29098,1.05386
104.348,16.80904,-0.03412914,0.29016,1.05363
105.048,16.87773,-0.03282093,0.28699,1.0534
105.748,16.94631,-0.03272409,0.28663,1.05316
106.448,17.01491,-0.03388146,0.28661,1.05293
107.148,17.08312,-0.03289158,0.28703,1.0527
107.848,17.1515,-0.03348531,0.28549,1.05246
108.548,17.2197,-0.03283676,0.28695,1.05223
109.248,17.28796,-0.03274108,0.2848,1.05199
109.948,17.3563,-0.03424978,0.28381,1.05175
110.648,17.42438,-0.03544987,0.28248,1.05152
111.348,17.49256,-0.03545002,0.28211,1.05128
112.048,17.56065,-0.03409663,0.28088,1.05104
112.748,17.62886,-0.03545154,0.28147,1.0508
113.448,17.69712,-0.03539622,0.28238,1.05057
114.148,17.76537,-0.03579129,0.28192,1.05033
114.848,17.83363,-0.03579001,0.28127,1.05009
115.548,17.90165,-0.03575945,0.28039,1.04985
116.248,17.96988,-0.0367793,0.28086,1.0496
116.948,18.03806,-0.0368214,0.28067,1.04936
117.648,18.1064,-0.03545995,0.28041,1.04912
118.348,18.1744,-0.03674466,0.27946,1.04888
119.048,18.2424,-0.03719861,0.27871,1.04864
119.748,18.31052,-0.03610763,0.27664,1.04839
120.448,18.37867,-0.03677011,0.27972,1.04815
121.148,18.44679,-0.03632023,0.2781,1.0479
121.848,18.5149,-0.03678032,0.27807,1.04766
122.548,18.583,-0.03677585,0.27965,1.04741
123.248,18.65109,-0.03810027,0.279,1.04717
123.948,18.71896,-0.03809905,0.28235,1.04692
124.648,18.7867,-0.03678123,0.28135,1.04667
125.348,18.8544,-0.03678084,0.28136,1.04642
126.048,18.92248,-0.03812499,0.28336,1.04618
126.748,18.99055,-0.03809193,0.28135,1.04593
127.448,19.0586,-0.03809,0.28367,1.04568
128.148,19.12635,-0.03810629,0.2845,1.04543
128.848,19.1939,-0.03709965,0.28581,1.04518
129.548,19.26162,-0.03849883,0.28541,1.04493
130.248,19.32941,-0.03809,0.28566,1.04467
130.948,19.3972,-0.03738798,0.28508,1.04442
131.648,19.46486,-0.03678001,0.28555,1.04417
132.348,19.5325,-0.03678,0.28778,1.04392
133.048,19.5999,-0.03678,0.28915,1.04366
133.748,19.66751,-0.03678,0.28978,1.04341
134.448,19.7351,-0.03678,0.28808,1.04315
135.148,19.8029,-0.03677661,0.28953,1.0429
135.848,19.87068,-0.03809071,0.29036,1.04264
136.548,19.9382,-0.03710141,0.29143,1.04239
137.248,20.00581,-0.03582201,0.29008,1.04213
137.948,20.07345,-0.03712149,0.29104,1.04187
138.648,20.14105,-0.03841974,0.29217,1.04161
139.348,20.20857,-0.03708612,0.29414,1.04136
140.048,20.27601,-0.03709323,0.29321,1.0411
140.748,20.34314,-0.03842044,0.29293,1.04084
141.448,20.41029,-0.03773581,0.29528,1.04058
142.148,20.47747,-0.03711004,0.29745,1.04032
142.848,20.5445,-0.03711,0.29697,1.04005
143.548,20.61194,-0.03711518,0.29734,1.03979
144.248,20.67922,-0.03815137,0.2985,1.03953
144.948,20.7469,-0.03710008,0.29948,1.03927
145.648,20.8142,-0.0371,0.30138,1.039
146.348,20.88148,-0.03710567,0.29948,1.03874
147.048,20.94835,-0.03710179,0.30185,1.03848
147.748,21.0154,-0.0371,0.30541,1.03821
148.448,21.0827,-0.03711441,0.30647,1.03794
149.148,21.15012,-0.0384199,0.30756,1.03768
149.848,21.21686,-0.03940724,0.30903,1.03741
150.548,21.28364,-0.03923627,0.30988,1.03714
151.248,21.3504,-0.03808986,0.30926,1.03688
151.948,21.41776,-0.03806911,0.31134,1.03661
152.648,21.485,-0.03875703,0.31234,1.03634
153.348,21.5524,-0.03874998,0.31338,1.03607
154.048,21.61971,-0.03842644,0.31198,1.0358
154.748,21.6867,-0.03802246,0.31419,1.03553
155.448,21.75374,-0.03842057,0.31387,1.03526
156.148,21.82085,-0.03842,0.31581,1.03499
156.848,21.88802,-0.03841925,0.31553,1.03471
157.548,21.95504,-0.03817216,0.31568,1.03444
158.248,22.02198,-0.03842001,0.319,1.03417
158.948,22.089,-0.03842,0.31903,1.03389
159.648,22.15618,-0.03842,0.32189,1.03362
160.348,22.22315,-0.03841559,0.32116,1.03335
161.048,22.29005,-0.03974007,0.32228,1.03307
161.748,22.3571,-0.03842107,0.3216,1.03279
162.448,22.4243,-0.03841959,0.32378,1.03252
163.148,22.49136,-0.03973455,0.32435,1.03224
163.848,22.55855,-0.03973361,0.3259,1.03196
164.548,22.6252,-0.03841955,0.32671,1.03168
165.248,22.69223,-0.03841998,0.32845,1.03141
165.948,22.75903,-0.03837361,0.32805,1.03113
166.648,22.82623,-0.03974003,0.33008,1.03085
167.348,22.89307,-0.03973886,0.3287,1.03057
168.048,22.95958,-0.03841951,0.32975,1.03028
168.748,23.02621,-0.03842051,0.33096,1.03
169.448,23.09318,-0.03907313,0.33148,1.02972
170.148,23.16031,-0.03908006,0.33261,1.02944
170.848,23.22745,-0.03836196,0.33368,1.02916
171.548,23.29433,-0.03842001,0.33426,1.02887
172.248,23.36116,-0.03841913,0.33509,1.02859
172.948,23.428,-0.03844282,0.33562,1.0283
173.648,23.495,-0.03874936,0.33549,1.02802
174.348,23.56203,-0.03875,0.33811,1.02773
175.048,23.6291,-0.03874723,0.33836,1.02744
175.748,23.69593,-0.04006264,0.33661,1.02716
176.448,23.76285,-0.03875625,0.33853,1.02687
177.148,23.8297,-0.03744609,0.33991,1.02658
177.848,23.89661,-0.03875253,0.34102,1.02629
178.548,23.9634,-0.03874998,0.33967,1.026
179.248,24.0301,-0.038755,0.34171,1.02571
179.948,24.09706,-0.03874583,0.34216,1.02542
180.648,24.16395,-0.03870779,0.34321,1.02513
181.348,24.23113,-0.04007015,0.3452,1.02484
182.048,24.29776,-0.04007,0.3434,1.02455
182.748,24.36474,-0.04007,0.34671,1.02426
183.448,24.43158,-0.04007,0.34544,1.02396
184.148,24.49834,-0.04007,0.34606,1.02367
184.848,24.56505,-0.04006346,0.34629,1.02337
185.548,24.63162,-0.04138034,0.34605,1.02308
186.248,24.69848,-0.04135131,0.34739,1.02278
186.948,24.76517,-0.04070911,0.34763,1.02249
187.648,24.83101,-0.04040268,0.34711,1.02219
188.348,24.89772,-0.03860226,0.34781,1.02189
189.048,24.96444,-0.03843145,0.34946,1.0216
189.748,25.03204,-0.04025275,0.34894,1.0213
190.448,25.09895,-0.04104642,0.3485,1.021
191.148,25.1657,-0.04001228,0.34856,1.0207
191.848,25.2324,-0.03973998,0.34982,1.0204
192.548,25.2991,-0.03974,0.34973,1.0201
193.248,25.36564,-0.03973996,0.35066,1.0198
193.948,25.43185,-0.03936999,0.35356,1.0195
194.648,25.4985,-0.03974005,0.35315,1.01919
195.348,25.56506,-0.03974,0.35333,1.01889
196.048,25.63212,-0.03973725,0.35389,1.01859
196.748,25.6984,-0.04106207,0.35524,1.01828
197.448,25.76505,-0.03973656,0.35514,1.01798
198.148,25.83164,-0.03974225,0.35606,1.01767
198.848,25.89861,-0.04040049,0.35674,1.01737
199.548,25.96523,-0.04039329,0.35752,1.01706
200.248,26.03192,-0.0417104,0.35923,1.01675
200.948,26.09855,-0.0417562,0.3607,1.01645
201.648,26.1653,-0.04055746,0.36065,1.01614
202.348,26.2315,-0.04052371,0.36196,1.01583
203.048,26.2978,-0.04105,0.36163,1.01552
203.748,26.36433,-0.0406322,0.36301,1.01521
204.448,26.43096,-0.04006501,0.36547,1.0149
205.148,26.49803,-0.04103655,0.36556,1.01459
205.848,26.5645,-0.04105,0.36589,1.01428
206.548,26.63113,-0.04105,0.36541,1.01397
207.248,26.69789,-0.04104999,0.36451,1.01366
207.948,26.7647,-0.04109836,0.36568,1.01334
208.648,26.83117,-0.04138023,0.36724,1.01303
209.348,26.89783,-0.04138,0.36657,1.01271
210.048,26.96446,-0.04138,0.36498,1.0124
210.748,27.0311,-0.04138,0.3674,1.01208
211.448,27.0976,-0.04138025,0.36893,1.01177
212.148,27.16413,-0.04271769,0.36877,1.01145
212.848,27.2306,-0.04368979,0.37039,1.01113
213.548,27.2972,-0.04237679,0.3688,1.01082
214.248,27.3638,-0.04238,0.3702,1.0105
214.948,27.43,-0.04238,0.37033,1.01018
215.648,27.49677,-0.04238,0.37147,1.00986
216.348,27.56348,-0.04238,0.37011,1.00954
217.048,27.63063,-0.04238,0.37176,1.00922
217.748,27.697,-0.04238,0.37322,1.0089
218.448,27.7635,-0.04237997,0.37347,1.00858
219.148,27.82988,-0.0436832,0.37198,1.00826
219.848,27.89657,-0.04369002,0.3747,1.00793
220.548,27.96333,-0.04368999,0.37509,1.00761
221.248,28.03009,-0.0436928,0.37703,1.00729
221.948,28.09635,-0.04500838,0.37674,1.00696
222.648,28.16279,-0.04369176,0.377,1.00664
223.348,28.22938,-0.04369004,0.3776,1.00631
224.048,28.2962,-0.04499,0.37781,1.00598
224.748,28.3629,-0.04486479,0.38005,1.00566
225.448,28.42953,-0.04434994,0.3783,1.00533
226.148,28.49622,-0.0443505,0.38047,1.005
226.848,28.56302,-0.04507016,0.38067,1.00467
227.548,28.6296,-0.04632952,0.37963,1.00434
228.248,28.69625,-0.04633,0.38069,1.00401
228.948,28.76287,-0.0463343,0.38285,1.00368
229.648,28.82937,-0.0456839,0.38148,1.00335
230.348,28.89616,-0.0476495,0.38213,1.00302
231.048,28.96255,-0.04765,0.38393,1.00269
231.748,29.02924,-0.04765169,0.38206,1.00236
232.448,29.0956,-0.04862905,0.38376,1.00202
233.148,29.1623,-0.04899126,0.38487,1.00169
233.848,29.22881,-0.04896,0.38459,1.00136
234.548,29.29557,-0.04896,0.38538,1.00102
235.248,29.36213,-0.04896079,0.38514,1.00068
235.948,29.4289,-0.05028141,0.38671,1.00035
236.648,29.49537,-0.05037441,0.38716,1.00001
237.348,29.5621,-0.05092997,0.38731,0.99967
238.048,29.62864,-0.05091225,0.38899,0.99934
238.748,29.69564,-0.04993953,0.3912,0.999
239.448,29.76245,-0.04993987,0.39002,0.99866
240.148,29.82886,-0.0512146,0.39111,0.99832
240.848,29.89544,-0.05258032,0.39182,0.99798
241.548,29.9621,-0.05128135,0.39216,0.99764
242.248,30.0292,-0.0512202,0.39364,0.9973
242.948,30.096,-0.05335005,0.39391,0.99696
243.648,30.16283,-0.05390243,0.39469,0.99661
244.348,30.22942,-0.0539,0.39556,0.99627
245.048,30.29608,-0.05389945,0.39744,0.99593
245.748,30.36283,-0.05474048,0.39786,0.99558
246.448,30.42965,-0.05489036,0.3973,0.99524
247.148,30.49615,-0.05620858,0.39984,0.99489
247.848,30.5627,-0.05621101,0.40058,0.99455
248.548,30.6296,-0.05753056,0.40173,0.9942
249.248,30.6964,-0.05821636,0.40333,0.99385
249.948,30.7632,-0.05884102,0.40201,0.9935
250.648,30.8299,-0.05981825,0.40559,0.99316
251.348,30.8964,-0.0601428,0.40459,0.99281
252.048,30.96305,-0.05950032,0.40661,0.99246
252.748,31.0297,-0.06081139,0.40809,0.99211
253.448,31.0964,-0.06209559,0.40897,0.99176
254.148,31.1632,-0.06213,0.41064,0.99141
254.848,31.22972,-0.06213,0.41046,0.99105
255.548,31.29608,-0.06215592,0.41294,0.9907
256.248,31.3627,-0.06339724,0.41261,0.99035
256.948,31.42922,-0.06475998,0.41545,0.98999
257.648,31.4963,-0.06475632,0.41511,0.98964
258.348,31.5631,-0.06608361,0.41591,0.98929
259.048,31.63,-0.06640662,0.41725,0.98893
259.748,31.6966,-0.06739274,0.41665,0.98857
260.448,31.76305,-0.06872048,0.42018,0.98822
261.148,31.8296,-0.06872022,0.41961,0.98786
261.848,31.89616,-0.07002939,0.42123,0.9875
262.548,31.9629,-0.07004107,0.42274,0.98714
263.248,32.02943,-0.07133178,0.42466,0.98678
263.948,32.09608,-0.07234006,0.42545,0.98643
264.648,32.16284,-0.07235526,0.42667,0.98607
265.348,32.22963,-0.07398981,0.42722,0.9857
266.048,32.29623,-0.07530861,0.42818,0.98534
266.748,32.3628,-0.07591908,0.4281,0.98498
267.448,32.42945,-0.07662998,0.43006,0.98462
268.148,32.49637,-0.07663101,0.4305,0.98426
268.848,32.56321,-0.0779266,0.43097,0.98389
269.548,32.62997,-0.07793987,0.43164,0.98353
270.248,32.69699,-0.0792603,0.4318,0.98316
270.948,32.76347,-0.07931156,0.43395,0.9828
271.648,32.83021,-0.08158269,0.43541,0.98243
272.348,32.8969,-0.08289009,0.43379,0.98206
273.048,32.96399,-0.08386198,0.43574,0.9817
273.748,33.0309,-0.08418485,0.43801,0.98133
274.448,33.09772,-0.08628812,0.43865,0.98096
275.148,33.16424,-0.08684153,0.43986,0.98059
275.848,33.23093,-0.08815945,0.4416,0.98022
276.548,33.2977,-0.08973981,0.44107,0.97985
277.248,33.36455,-0.09111978,0.44387,0.97948
277.948,33.43152,-0.09243799,0.44406,0.97911
278.648,33.4982,-0.09508469,0.44556,0.97874
279.348,33.56496,-0.09639119,0.44778,0.97837
280.048,33.63174,-0.09769924,0.44913,0.97799
280.748,33.69852,-0.09763539,0.44942,0.97762
281.448,33.76526,-0.09904481,0.44912,0.97724
282.148,33.83197,-0.10034,0.45257,0.97687
282.848,33.89868,-0.10165,0.45355,0.97649
283.548,33.9655,-0.10327,0.45298,0.97612
284.248,34.03228,-0.10543,0.45345,0.97574
284.948,34.09915,-0.10725,0.45342,0.97536
285.648,34.1663,-0.10921,0.45611,0.97499
286.348,34.23322,-0.11058,0.45548,0.97461
287.048,34.30023,-0.11221,0.45514,0.97423
287.748,34.36714,-0.11449,0.45563,0.97385
288.448,34.43425,-0.11574,0.45489,0.97347
289.148,34.5013,-0.1186,0.45577,0.97309
289.848,34.5682,-0.11988,0.45756,0.97271
290.548,34.6351,-0.12124,0.46005,0.97232
291.248,34.70175,-0.12443,0.46013,0.97194
291.948,34.7686,-0.12718,0.46012,0.97156
292.648,34.8358,-0.12875,0.46361,0.97117
293.348,34.90317,-0.13091,0.46433,0.97079
294.048,34.97009,-0.13393,0.4653,0.9704
294.748,35.03687,-0.13596,0.46765,0.97002
295.448,35.1036,-0.13796,0.46754,0.96963
296.148,35.17065,-0.14052,0.46768,0.96925
296.848,35.23772,-0.14443,0.4693,0.96886
297.548,35.30468,-0.14638,0.47264,0.96847
298.248,35.37117,-0.15006,0.47241,0.96808
298.948,35.43807,-0.15365,0.47471,0.96769
299.648,35.50501,-0.15682,0.47628,0.9673
300.348,35.5724,-0.15937,0.47797,0.96691
301.048,35.6393,-0.16266,0.48009,0.96652
301.748,35.70635,-0.16739,0.4823,0.96613
302.448,35.77353,-0.17021,0.48685,0.96574
303.148,35.84044,-0.17345,0.48931,0.96534
303.848,35.90699,-0.17642,0.48995,0.96495
304.548,35.97402,-0.17963,0.49316,0.96456
305.248,36.04108,-0.18489,0.49738,0.96416
305.948,36.10866,-0.18869,0.49865,0.96377
306.648,36.17532,-0.19314,0.50131,0.96337
307.348,36.24215,-0.19615,0.50453,0.96298
308.048,36.30893,-0.20098,0.50676,0.96258
308.748,36.37623,-0.20513,0.51109,0.96218
309.448,36.44364,-0.2108,0.51435,0.96178
310.148,36.51086,-0.21622,0.51703,0.96138
310.848,36.57779,-0.22109,0.52136,0.96098
311.548,36.64477,-0.22498,0.52513,0.96058
312.248,36.71202,-0.23128,0.52926,0.96018
312.948,36.77921,-0.23633,0.53319,0.95978
313.648,36.84641,-0.24206,0.53831,0.95938
314.348,36.9133,-0.24774,0.54128,0.95898
315.048,36.98033,-0.25395,0.54732,0.95858
315.748,37.0475,-0.25952,0.5494,0.95817
316.448,37.11487,-0.26577,0.55509,0.95777
317.148,37.18217,-0.27179,0.55938,0.95736
317.848,37.2494,-0.27987,0.56445,0.95696
318.548,37.31666,-0.2857,0.57014,0.95655
319.248,37.38377,-0.29321,0.57636,0.95614
319.948,37.45114,-0.30179,0.58315,0.95574
320.648,37.5183,-0.31031,0.58688,0.95533
321.348,37.58566,-0.31786,0.59439,0.95492
322.048,37.6527,-0.32675,0.59974,0.95451
322.748,37.71998,-0.33483,0.60943,0.9541
323.448,37.7872,-0.34343,0.6178,0.95369
324.148,37.8545,-0.35296,0.62422,0.95328
324.848,37.9218,-0.36179,0.63411,0.95287
325.548,37.98928,-0.37109,0.64366,0.95246
326.248,38.05665,-0.38234,0.65308,0.95205
326.948,38.12407,-0.39394,0.66106,0.95163
327.648,38.19147,-0.40439,0.67134,0.95122
328.348,38.25871,-0.41598,0.68158,0.9508
329.048,38.3262,-0.42796,0.69199,0.95039
329.748,38.39331,-0.44031,0.70668,0.94997
330.448,38.46083,-0.4532,0.72025,0.94956
331.148,38.528,-0.46652,0.73101,0.94914
331.848,38.59517,-0.47949,0.74603,0.94872
332.548,38.66248,-0.49349,0.75936,0.94831
333.248,38.72998,-0.50971,0.77539,0.94789
333.948,38.79749,-0.52364,0.79413,0.94747
334.648,38.86492,-0.54063,0.80998,0.94705
335.348,38.93248,-0.55736,0.82798,0.94663
336.048,39.00012,-0.57583,0.85024,0.94621
336.748,39.06769,-0.59443,0.86674,0.94579
337.448,39.1352,-0.6126,0.88828,0.94536
338.148,39.20268,-0.63192,0.90998,0.94494
338.848,39.27009,-0.65455,0.93095,0.94452
339.548,39.33743,-0.67593,0.95778,0.94409
340.248,39.40489,-0.69789,0.98089,0.94367
340.948,39.4724,-0.7223,1.0037,0.94324
341.648,39.54006,-0.74535,1.03177,0.94282
342.348,39.6076,-0.77049,1.05925,0.94239
343.048,39.67532,-0.79726,1.08703,0.94196
343.748,39.74303,-0.82546,1.11541,0.94154
344.448,39.81102,-0.85222,1.14723,0.94111
345.148,39.8788,-0.88276,1.1766,0.94068
345.848,39.9467,-0.91442,1.20775,0.94025
346.548,40.01441,-0.94536,1.24161,0.93982
347.248,40.08229,-0.9788,1.27313,0.93939
347.948,40.15032,-1.01457,1.30929,0.93896
348.648,40.2179,-1.04955,1.34325,0.93853
349.348,40.2856,-1.08595,1.37906,0.9381
350.048,40.3534,-1.12448,1.41264,0.93766
350.748,40.4216,-1.16398,1.44898,0.93723
351.448,40.48956,-1.2046,1.48366,0.9368
352.148,40.55751,-1.24811,1.51872,0.93636
352.848,40.6256,-1.29239,1.55489,0.93593
353.548,40.69375,-1.33566,1.5886,0.93549
354.248,40.76182,-1.3823,1.62096,0.93505
354.948,40.82985,-1.43069,1.65479,0.93462
355.648,40.898,-1.47892,1.68436,0.93418
356.348,40.96632,-1.52869,1.71252,0.93374
357.048,41.0346,-1.58062,1.74272,0.9333
357.748,41.10298,-1.63372,1.76611,0.93286
358.448,41.1712,-1.68644,1.78947,0.93242
359.148,41.2393,-1.74138,1.81104,0.93198
359.848,41.30746,-1.79564,1.8315,0.93154
360.548,41.37538,-1.84919,1.84476,0.9311
361.248,41.4435,-1.90471,1.85515,0.93065
361.948,41.51153,-1.9621,1.86384,0.93021
362.648,41.5798,-2.01731,1.86967,0.92977
363.348,41.64775,-2.07483,1.87055,0.92932
364.048,41.71577,-2.13281,1.87116,0.92888
364.748,41.7836,-2.18797,1.86745,0.92843
365.448,41.8515,-2.24197,1.86228,0.92799
366.148,41.9193,-2.30027,1.8531,0.92754
366.848,41.98705,-2.3583,1.837,0.92709
367.548,42.05494,-2.41204,1.82124,0.92665
368.248,42.1227,-2.46671,1.80122,0.9262
368.948,42.19045,-2.52021,1.77704,0.92575
369.648,42.25809,-2.57159,1.74783,0.9253
370.348,42.32569,-2.62377,1.71763,0.92485
371.048,42.39307,-2.6757,1.68013,0.9244
371.748,42.4604,-2.72559,1.64203,0.92395
372.448,42.52787,-2.77256,1.59652,0.92349
373.148,42.59536,-2.82057,1.54499,0.92304
373.848,42.66277,-2.86604,1.48982,0.92259
374.548,42.72992,-2.908,1.42955,0.92213
375.248,42.79717,-2.94828,1.36322,0.92168
375.948,42.86417,-2.98754,1.29561,0.92123
376.648,42.93119,-3.02239,1.22137,0.92077
377.348,42.99801,-3.05648,1.14144,0.92031
378.048,43.065,-3.08777,1.05976,0.91986
378.748,43.13162,-3.11522,0.97721,0.9194
379.448,43.19826,-3.14021,0.89034,0.91894
380.148,43.26487,-3.16272,0.80582,0.91848
380.848,43.3317,-3.18181,0.7214,0.91802
381.548,43.3988,-3.19974,0.64068,0.91756
382.248,43.46563,-3.21584,0.56431,0.9171
382.948,43.5324,-3.22796,0.49717,0.91664
383.648,43.5993,-3.23798,0.43375,0.91618
384.348,43.6662,-3.24647,0.37746,0.91572
385.048,43.7333,-3.25373,0.33109,0.91526
385.748,43.80053,-3.25918,0.28855,0.91479
386.448,43.86766,-3.26344,0.25573,0.91433
387.148,43.93507,-3.26647,0.23039,0.91387
387.848,44.00227,-3.27039,0.20868,0.9134
388.548,44.06973,-3.27295,0.19163,0.91293
389.248,44.13715,-3.27297,0.17917,0.91247
389.948,44.20487,-3.27567,0.16927,0.912
390.648,44.2725,-3.27837,0.16256,0.91153
391.348,44.3399,-3.27967,0.15732,0.91107
392.048,44.40732,-3.28229,0.15005,0.9106
392.748,44.47475,-3.28234,0.1485,0.91013
393.448,44.5426,-3.28362,0.14696,0.90966
394.148,44.61061,-3.28493,0.14388,0.90919
394.848,44.6784,-3.2849,0.1419,0.90872
395.548,44.74582,-3.28626,0.14215,0.90825
396.248,44.81361,-3.28756,0.13912,0.90777
396.948,44.8815,-3.28889,0.13708,0.9073
397.648,44.94935,-3.29021,0.13664,0.90683
398.348,45.01725,-3.29151,0.13576,0.90635
399.048,45.08509,-3.2915,0.13347,0.90588
399.748,45.15313,-3.29385,0.13349,0.9054
400.448,45.2209,-3.29514,0.13405,0.90493
401.148,45.28855,-3.29536,0.13141,0.90445
401.848,45.35649,-3.29646,0.13308,0.90398
402.548,45.42447,-3.29777,0.13309,0.9035
403.248,45.4928,-3.2991,0.13286,0.90302
403.948,45.5608,-3.30041,0.13329,0.90254
404.648,45.62888,-3.30041,0.13235,0.90206
405.348,45.6969,-3.30173,0.13127,0.90158
406.048,45.76494,-3.30173,0.13143,0.9011
406.748,45.83295,-3.30305,0.12984,0.90062
407.448,45.90075,-3.30436,0.13072,0.90014
408.148,45.96895,-3.30306,0.12812,0.89966
408.848,46.03669,-3.30574,0.12987,0.89918
409.548,46.10502,-3.30568,0.12753,0.89869
410.248,46.173,-3.30713,0.12782,0.89821
410.948,46.2413,-3.30842,0.13048,0.89772
411.648,46.3095,-3.30842,0.12778,0.89724
412.348,46.37758,-3.30973,0.12734,0.89675
413.048,46.44555,-3.30974,0.12607,0.89627
413.748,46.51357,-3.3095,0.12612,0.89578
414.448,46.5818,-3.30976,0.12511,0.89529
415.148,46.6499,-3.31237,0.126,0.89481
415.848,46.71801,-3.31236,0.12657,0.89432
416.548,46.78598,-3.31369,0.12443,0.89383
417.248,46.85423,-3.31492,0.12386,0.89334
417.948,46.92232,-3.31501,0.12421,0.89285
418.648,46.99049,-3.31734,0.12129,0.89236
419.348,47.05865,-3.31891,0.12283,0.89187
420.048,47.1269,-3.31896,0.12225,0.89137
420.748,47.19509,-3.32037,0.12105,0.89088
421.448,47.263,-3.31896,0.12129,0.89039
422.148,47.33105,-3.32027,0.11968,0.8899
422.848,47.39905,-3.32028,0.11953,0.8894
423.548,47.4673,-3.32233,0.12065,0.88891
424.248,47.5356,-3.32323,0.12086,0.88841
424.948,47.6038,-3.32423,0.12055,0.88792
425.648,47.67223,-3.32423,0.12192,0.88742
426.348,47.74049,-3.32554,0.123,0.88692
427.048,47.8087,-3.32555,0.12048,0.88642
427.748,47.87722,-3.32687,0.12195,0.88593
428.448,47.94558,-3.32677,0.12055,0.88543
429.148,48.0141,-3.32819,0.12047,0.88493
429.848,48.0822,-3.32896,0.12244,0.88443
430.548,48.15045,-3.3295,0.12281,0.88393
431.248,48.21867,-3.32818,0.121,0.88343
431.948,48.28705,-3.3295,0.12264,0.88292
432.648,48.3556,-3.33179,0.12203,0.88242
433.348,48.42418,-3.33216,0.1209,0.88192
434.048,48.4927,-3.33287,0.12263,0.88142
434.748,48.56102,-3.33256,0.12442,0.88091
435.448,48.62923,-3.33345,0.121,0.88041
436.148,48.6976,-3.33477,0.12121,0.8799
436.848,48.76598,-3.33477,0.12169,0.8794
437.548,48.83464,-3.33607,0.11956,0.87889
438.248,48.9032,-3.33609,0.12024,0.87838
438.948,48.97163,-3.33609,0.11804,0.87788
439.648,49.04005,-3.33741,0.12033,0.87737
440.348,49.10859,-3.33872,0.11817,0.87686
441.048,49.17734,-3.33871,0.12041,0.87635
441.748,49.24593,-3.34003,0.11661,0.87584
442.448,49.31439,-3.34136,0.11706,0.87533
443.148,49.38247,-3.34136,0.117,0.87482
443.848,49.45084,-3.34267,0.11792,0.87431
444.548,49.5196,-3.34267,0.11735,0.8738
445.248,49.58846,-3.3426,0.11671,0.87328
445.948,49.65726,-3.34399,0.11666,0.87277
446.648,49.72573,-3.34537,0.11736,0.87226
447.348,49.79442,-3.34432,0.11783,0.87174
448.048,49.86308,-3.34565,0.11849,0.87123
448.748,49.9315,-3.34695,0.11817,0.87071
449.448,50.0,-3.34827,0.11545,0.8702
450.148,50.06858,-3.34962,0.11743,0.86968
450.848,50.13756,-3.34959,0.11587,0.86917
451.548,50.20635,-3.35087,0.11585,0.86865
452.248,50.27507,-3.35091,0.11558,0.86813
452.948,50.3436,-3.3509,0.11627,0.86761
453.648,50.41189,-3.35223,0.11571,0.86709
454.348,50.4803,-3.3529,0.11526,0.86657
455.048,50.54874,-3.35356,0.11801,0.86605
455.748,50.61685,-3.35486,0.1151,0.86553
456.448,50.6851,-3.35486,0.11818,0.86501
457.148,50.7537,-3.35511,0.11704,0.86449
457.848,50.8228,-3.3552,0.11513,0.86397
458.548,50.89168,-3.35597,0.11671,0.86344
459.248,50.9604,-3.35783,0.11756,0.86292
459.948,51.02906,-3.35816,0.11817,0.86239
460.648,51.09799,-3.35816,0.11872,0.86187
461.348,51.16664,-3.35909,0.11873,0.86134
462.048,51.23526,-3.3596,0.12094,0.86082
462.748,51.30363,-3.36178,0.1188,0.86029
463.448,51.37246,-3.3631,0.11825,0.85977
464.148,51.4413,-3.36311,0.12304,0.85924
464.848,51.51,-3.36441,0.11963,0.85871
465.548,51.57878,-3.36441,0.12026,0.85818
466.248,51.64747,-3.36365,0.12061,0.85765
466.948,51.71628,-3.36474,0.11978,0.85712
467.648,51.7848,-3.36607,0.12132,0.85659
468.348,51.85346,-3.36743,0.1208,0.85606
469.048,51.92218,-3.36736,0.12131,0.85553
469.748,51.991,-3.3677,0.12178,0.855
470.448,52.05975,-3.36902,0.12044,0.85447
471.148,52.12845,-3.36902,0.12171,0.85393
471.848,52.1973,-3.36902,0.12032,0.8534
472.548,52.26611,-3.36902,0.12187,0.85287
473.248,52.33491,-3.37043,0.1194,0.85233
473.948,52.4037,-3.37002,0.12124,0.8518
474.648,52.4726,-3.37134,0.12163,0.85126
475.348,52.54161,-3.37134,0.12226,0.85072
476.048,52.6106,-3.37266,0.1213,0.85019
476.748,52.6798,-3.37266,0.12091,0.84965
477.448,52.74869,-3.37288,0.1217,0.84911
478.148,52.81769,-3.37389,0.11997,0.84857
478.848,52.88655,-3.37529,0.12101,0.84804
479.548,52.95555,-3.37529,0.12073,0.8475
480.248,53.0244,-3.37525,0.12019,0.84696
480.948,53.0932,-3.37661,0.12158,0.84642
481.648,53.1619,-3.37799,0.12187,0.84587
482.348,53.23061,-3.37792,0.12202,0.84533
483.048,53.29931,-3.37881,0.12255,0.84479
483.748,53.36821,-3.38055,0.12214,0.84425
484.448,53.4372,-3.38056,0.12267,0.84371
485.148,53.5062,-3.38056,0.12589,0.84316
485.848,53.57455,-3.38056,0.12789,0.84262
486.548,53.6433,-3.38189,0.13326,0.84207
487.248,53.71227,-3.38207,0.13606,0.84153
487.948,53.78155,-3.38286,0.13923,0.84098
488.648,53.85049,-3.38319,0.14362,0.84044
489.348,53.9192,-3.38451,0.14446,0.83989
490.048,53.9882,-3.38451,0.14666,0.83934
490.748,54.0572,-3.38451,0.14974,0.83879
491.448,54.12633,-3.38566,0.14954,0.83824
492.148,54.19543,-3.38583,0.14851,0.8377
492.848,54.26424,-3.3866,0.1493,0.83715
493.548,54.3332,-3.38715,0.14837,0.8366
494.248,54.40215,-3.38828,0.15086,0.83605
494.948,54.47141,-3.38846,0.15009,0.83549
495.648,54.54042,-3.38978,0.14994,0.83494
496.348,54.60895,-3.38978,0.14922,0.83439
497.048,54.6781,-3.38978,0.14936,0.83384
497.748,54.74715,-3.38969,0.14885,0.83329
498.448,54.81677,-3.3911,0.14787,0.83273
499.148,54.8858,-3.3911,0.14764,0.83218
499.848,54.95496,-3.39242,0.14596,0.83162
500.548,55.02391,-3.39238,0.14564,0.83107
501.248,55.0929,-3.39373,0.1474,0.83051
501.948,55.162,-3.39373,0.14677,0.82996
502.648,55.23095,-3.39372,0.14531,0.8294
503.348,55.2998,-3.39505,0.14514,0.82884
504.048,55.3688,-3.39505,0.14274,0.82828
504.748,55.4377,-3.39505,0.1447,0.82773
505.448,55.5067,-3.39493,0.14245,0.82717
506.148,55.5757,-3.39505,0.14313,0.82661
506.848,55.6446,-3.39496,0.13935,0.82605
507.548,55.71377,-3.39637,0.14025,0.82549
508.248,55.7827,-3.3966,0.13883,0.82493
508.948,55.85184,-3.39735,0.1395,0.82436
509.648,55.921,-3.39735,0.13702,0.8238
510.348,55.99006,-3.39834,0.13557,0.82324
511.048,56.05916,-3.399,0.13372,0.82268
511.748,56.1281,-3.399,0.13387,0.82211
512.448,56.19667,-3.399,0.13514,0.82155
513.148,56.26589,-3.4004,0.13249,0.82099
513.848,56.33526,-3.40032,0.13227,0.82042
514.548,56.40529,-3.40133,0.13122,0.81986
515.248,56.47459,-3.40156,0.13109,0.81929
515.948,56.5437,-3.40299,0.13043,0.81872
516.648,56.613,-3.40427,0.12808,0.81816
517.348,56.68251,-3.40295,0.1266,0.81759
518.048,56.7518,-3.40294,0.12691,0.81702
518.748,56.8212,-3.40171,0.12706,0.81645
519.448,56.89043,-3.40294,0.12458,0.81588
520.148,56.95984,-3.40427,0.12229,0.81531
520.848,57.02905,-3.40427,0.1207,0.81474
521.548,57.0983,-3.40427,0.11895,0.81417
522.248,57.1675,-3.40425,0.1166,0.8136
522.948,57.23675,-3.40427,0.11369,0.81303
523.648,57.3058,-3.40447,0.11259,0.81246
524.348,57.37511,-3.4046,0.11126,0.81189
525.048,57.4443,-3.40589,0.1104,0.81131
525.748,57.51364,-3.40459,0.10749,0.81074
526.448,57.58276,-3.40555,0.10356,0.81017
527.148,57.6519,-3.40689,0.09846374,0.80959
527.848,57.72076,-3.40723,0.09452243,0.80902
528.548,57.7898,-3.40855,0.08920903,0.80844
529.248,57.85884,-3.40855,0.08867332,0.80787
529.948,57.9283,-3.40855,0.08323517,0.80729
530.648,57.9976,-3.40855,0.0813637,0.80671
531.348,58.06705,-3.40856,0.07741064,0.80614
532.048,58.13635,-3.40889,0.07571692,0.80556
532.748,58.20579,-3.40888,0.07370412,0.80498
533.448,58.27519,-3.40889,0.07134893,0.8044
534.148,58.3446,-3.41051,0.06875256,0.80382
534.848,58.4133,-3.41151,0.06828043,0.80324
535.548,58.48282,-3.41153,0.06286974,0.80266
536.248,58.55226,-3.4125,0.06285543,0.80208
536.948,58.62246,-3.41248,0.06345118,0.8015
537.648,58.6919,-3.4125,0.06144751,0.80092
538.348,58.7613,-3.4125,0.05984907,0.80034
539.048,58.8305,-3.41382,0.05977213,0.79976
539.748,58.89976,-3.41382,0.05980066,0.79917
540.448,58.96937,-3.41382,0.0583918,0.79859
541.148,59.03886,-3.41513,0.05846003,0.79801
541.848,59.10845,-3.41382,0.05483682,0.79742
542.548,59.17793,-3.41382,0.05116995,0.79684
543.248,59.24742,-3.41382,0.05089678,0.79625
543.948,59.3169,-3.4148,0.0503353,0.79567
544.648,59.38612,-3.41519,0.05009871,0.79508
545.348,59.45541,-3.41586,0.04955728,0.79449
546.048,59.52471,-3.41482,0.05091399,0.79391
546.748,59.5941,-3.4148,0.04939404,0.79332
547.448,59.6636,-3.41479,0.04889997,0.79273
548.148,59.7332,-3.41612,0.04893418,0.79214
548.848,59.8025,-3.41612,0.04863569,0.79155
549.548,59.8721,-3.41695,0.04731101,0.79096
550.248,59.94152,-3.41719,0.04751942,0.79037
550.948,60.01124,-3.41744,0.04826576,0.78978
551.648,60.0807,-3.41744,0.04540905,0.78919
552.348,60.1501,-3.41745,0.04838784,0.7886
553.048,60.2196,-3.41777,0.04628639,0.78801
553.748,60.2892,-3.41777,0.04716864,0.78742
554.448,60.3585,-3.41777,0.04733346,0.78682
555.148,60.42796,-3.41777,0.04635935,0.78623
555.848,60.49736,-3.41777,0.0465516,0.78564
556.548,60.56684,-3.41906,0.04588131,0.78504
557.248,60.63646,-3.41908,0.04680277,0.78445
557.948,60.7053,-3.41908,0.04445728,0.78385
558.648,60.7749,-3.41908,0.04672389,0.78326
559.348,60.8444,-3.41908,0.0463789,0.78266
560.048,60.9147,-3.41871,0.04568882,0.78206
560.748,60.9841,-3.41972,0.04664737,0.78147
561.448,61.0535,-3.42008,0.04446117,0.78087
562.148,61.12282,-3.42008,0.04599571,0.78027
562.848,61.1923,-3.42108,0.04647448,0.77967
563.548,61.26194,-3.42107,0.04538389,0.77908
564.248,61.33149,-3.42107,0.04704059,0.77848
564.948,61.40081,-3.42107,0.04668528,0.77788
565.648,61.4703,-3.42239,0.04691626,0.77728
566.348,61.5397,-3.42239,0.04886582,0.77668
567.048,61.60954,-3.42239,0.0469394,0.77608
567.748,61.6793,-3.42239,0.04581915,0.77548
568.448,61.74918,-3.42301,0.04605839,0.77487
569.148,61.8189,-3.4237,0.04828503,0.77427
569.848,61.8885,-3.4237,0.04766336,0.77367
570.548,61.9581,-3.42403,0.04686418,0.77307
571.248,62.02774,-3.42403,0.04937779,0.77246
571.948,62.09731,-3.42394,0.04798399,0.77186
572.648,62.1671,-3.42528,0.04871644,0.77126
573.348,62.23679,-3.42484,0.04989849,0.77065
574.048,62.3067,-3.42524,0.04986887,0.77005
574.748,62.3764,-3.42535,0.04801775,0.76944
575.448,62.44565,-3.42535,0.05070005,0.76883
576.148,62.51515,-3.42667,0.05377152,0.76823
576.848,62.585,-3.42667,0.04968207,0.76762
577.548,62.6554,-3.42667,0.05116809,0.76701
578.248,62.72541,-3.42667,0.04936578,0.76641
578.948,62.79511,-3.42667,0.04925917,0.7658
579.648,62.86452,-3.42667,0.04836186,0.76519
580.348,62.93413,-3.42693,0.04890786,0.76458
581.048,63.00394,-3.42699,0.04842251,0.76397
581.748,63.074,-3.42699,0.04798082,0.76336
582.448,63.1441,-3.42699,0.04734644,0.76275
583.148,63.21396,-3.42773,0.04754036,0.76214
583.848,63.28366,-3.42831,0.04756491,0.76153
584.548,63.35314,-3.42831,0.04511492,0.76092
585.248,63.4228,-3.42831,0.04396972,0.76031
585.948,63.49253,-3.42831,0.04305756,0.7597
586.648,63.5625,-3.42875,0.04383306,0.75908
587.348,63.6323,-3.42868,0.04254538,0.75847
588.048,63.7022,-3.42732,0.0414212,0.75786
588.748,63.77188,-3.42729,0.04468383,0.75724
589.448,63.84179,-3.42929,0.04222415,0.75663
590.148,63.9117,-3.4293,0.04424949,0.75601
590.848,63.9818,-3.4293,0.04245433,0.7554
591.548,64.05189,-3.42932,0.04159545,0.75478
592.248,64.1219,-3.4293,0.03890271,0.75417
592.948,64.19175,-3.4293,0.04342569,0.75355
593.648,64.26176,-3.4293,0.04508041,0.75293
594.348,64.3316,-3.43032,0.04466397,0.75232
595.048,64.40183,-3.43061,0.04543137,0.7517
595.748,64.4718,-3.43061,0.04500774,0.75108
596.448,64.54179,-3.43061,0.04743592,0.75046
597.148,64.61151,-3.43171,0.04489011,0.74985
597.848,64.68129,-3.43193,0.04640583,0.74923
598.548,64.75116,-3.43193,0.04607289,0.74861
599.248,64.8211,-3.43193,0.04535916,0.74799
599.948,64.89068,-3.43193,0.04745483,0.74737
600.648,64.96035,-3.43193,0.04800866,0.74675
601.348,65.02999,-3.43292,0.04733152,0.74613
602.048,65.09984,-3.43292,0.04889615,0.7455
602.748,65.16974,-3.43291,0.04841845,0.74488
603.448,65.23945,-3.43456,0.04669856,0.74426
604.148,65.30955,-3.43456,0.04871458,0.74364
604.848,65.37954,-3.43262,0.05036015,0.74302
605.548,65.44974,-3.43227,0.04886111,0.74239
606.248,65.51965,-3.43358,0.05093666,0.74177
606.948,65.5896,-3.4349,0.0532616,0.74114
607.648,65.6596,-3.43489,0.0505276,0.74052
608.348,65.72971,-3.43489,0.04849432,0.7399
609.048,65.79983,-3.43588,0.05213398,0.73927
609.748,65.86969,-3.43588,0.0519461,0.73864
610.448,65.9396,-3.4349,0.0519574,0.73802
611.148,66.00939,-3.4349,0.05327856,0.73739
611.848,66.07945,-3.43619,0.05228122,0.73677
612.548,66.1494,-3.43621,0.05238051,0.73614
613.248,66.21953,-3.4349,0.0526864,0.73551
613.948,66.28967,-3.43622,0.05057738,0.73488
614.648,66.35983,-3.43556,0.0488865,0.73426
615.348,66.42984,-3.43556,0.05199208,0.73363
616.048,66.49968,-3.43556,0.05203702,0.733
616.748,66.56951,-3.43556,0.05212636,0.73237
617.448,66.63934,-3.43554,0.05334854,0.73174
618.148,66.70951,-3.43655,0.05497688,0.73111
618.848,66.77956,-3.43655,0.05373347,0.73048
619.548,66.84957,-3.43589,0.05331201,0.72985
620.248,66.91941,-3.43589,0.05462011,0.72922
620.948,66.9894,-3.43589,0.0556971,0.72859
621.648,67.0595,-3.43621,0.05450784,0.72796
622.348,67.12938,-3.43622,0.05476841,0.72732
623.048,67.19923,-3.43683,0.05455468,0.72669
623.748,67.269,-3.43819,0.05423025,0.72606
624.448,67.33898,-3.43888,0.05628529,0.72543
625.148,67.40905,-3.43753,0.05640524,0.72479
625.848,67.47923,-3.43753,0.05563737,0.72416
626.548,67.54942,-3.43753,0.05405559,0.72352
627.248,67.6194,-3.43885,0.05102901,0.72289
627.948,67.6895,-3.43885,0.05459073,0.72226
628.648,67.75953,-3.43753,0.05052895,0.72162
629.348,67.82929,-3.43786,0.05467013,0.72098
630.048,67.89941,-3.43786,0.05529621,0.72035
630.748,67.9693,-3.43786,0.05983394,0.71971
631.448,68.03979,-3.43786,0.05539135,0.71908
632.148,68.10975,-3.43918,0.055724,0.71844
632.848,68.18008,-3.43918,0.05917718,0.7178
633.548,68.2501,-3.43918,0.05688437,0.71716
634.248,68.32008,-3.43918,0.05930765,0.71653
634.948,68.39023,-3.43885,0.05856596,0.71589
635.648,68.46046,-3.43753,0.05970079,0.71525
636.348,68.53076,-3.43756,0.05881201,0.71461
637.048,68.60087,-3.43885,0.05904628,0.71397
637.748,68.67098,-3.43986,0.06085663,0.71333
638.448,68.74135,-3.44017,0.05917806,0.71269
639.148,68.81149,-3.44016,0.06081575,0.71205
639.848,68.8818,-3.43885,0.05844861,0.71141
640.548,68.95198,-3.44152,0.0594587,0.71077
641.248,69.0224,-3.44147,0.06166277,0.71013
641.948,69.09264,-3.44016,0.06502779,0.70949
642.648,69.1629,-3.44016,0.06375181,0.70885
643.348,69.23286,-3.44016,0.067171,0.70821
644.048,69.30248,-3.44016,0.06159068,0.70756
644.748,69.37278,-3.44157,0.0627158,0.70692
645.448,69.44338,-3.44148,0.06267745,0.70628
646.148,69.51433,-3.44148,0.0649229,0.70564
646.848,69.5847,-3.44106,0.06537733,0.70499
647.548,69.65514,-3.4402,0.06755277,0.70435
648.248,69.7255,-3.44118,0.0679948,0.7037
648.948,69.79575,-3.44246,0.06863932,0.70306
649.648,69.86579,-3.44116,0.06922517,0.70241
650.348,69.93604,-3.44116,0.06784548,0.70177
651.048,70.006,-3.44116,0.06943287,0.70112
651.748,70.0761,-3.44116,0.06834249,0.70048
652.448,70.14626,-3.44116,0.0690437,0.69983
653.148,70.21655,-3.44113,0.06946632,0.69919
653.848,70.2869,-3.44229,0.0721267,0.69854
654.548,70.3571,-3.44248,0.07088531,0.69789
655.248,70.42741,-3.44248,0.07068782,0.69724
655.948,70.4975,-3.44213,0.0721944,0.6966
656.648,70.5677,-3.44215,0.07249371,0.69595
657.348,70.63794,-3.44215,0.06991185,0.6953
658.048,70.70829,-3.44339,0.07055393,0.69465
658.748,70.7786,-3.44317,0.07087756,0.694
659.448,70.84871,-3.44313,0.07162147,0.69336
660.148,70.91887,-3.44313,0.07122144,0.69271
660.848,70.989,-3.44313,0.07143096,0.69206
661.548,71.05938,-3.44312,0.06969677,0.69141
662.248,71.1296,-3.44247,0.07382037,0.69076
662.948,71.19977,-3.44445,0.07169181,0.69011
663.648,71.2693,-3.44445,0.07588752,0.68946
664.348,71.33934,-3.44446,0.07680603,0.68881
665.048,71.4093,-3.44313,0.0760433,0.68815
665.748,71.47986,-3.44444,0.07719977,0.6875
666.448,71.5501,-3.44543,0.07781266,0.68685
667.148,71.62054,-3.44313,0.07459697,0.6862
667.848,71.6909,-3.44445,0.07350053,0.68555
668.548,71.76109,-3.44445,0.0736194,0.68489
669.248,71.83148,-3.44445,0.07797739,0.68424
669.948,71.90201,-3.44445,0.07895711,0.68359
670.648,71.97274,-3.44445,0.07780046,0.68294
671.348,72.04279,-3.44451,0.07678897,0.68228
672.048,72.11293,-3.44347,0.07615494,0.68163
672.748,72.18349,-3.44478,0.07960407,0.68097
673.448,72.2545,-3.44478,0.07898206,0.68032
674.148,72.3254,-3.44478,0.08033646,0.67966
674.848,72.39593,-3.44478,0.08101481,0.67901
675.548,72.46637,-3.44478,0.08069289,0.67835
676.248,72.5367,-3.44741,0.07875789,0.6777
676.948,72.607,-3.4461,0.08121247,0.67704
677.648,72.67747,-3.44609,0.08122791,0.67639
678.348,72.7482,-3.44609,0.08105597,0.67573
679.048,72.819,-3.44481,0.08056667,0.67508
679.748,72.8895,-3.44477,0.08262826,0.67442
680.448,72.95992,-3.44477,0.08099897,0.67376
681.148,73.0304,-3.44543,0.08189756,0.6731
681.848,73.1011,-3.44543,0.08355927,0.67245
682.548,73.17155,-3.44679,0.0829773,0.67179
683.248,73.24208,-3.44675,0.08488708,0.67113
683.948,73.3125,-3.44588,0.08094267,0.67047
684.648,73.3831,-3.44543,0.07955124,0.66981
685.348,73.45375,-3.44544,0.08216826,0.66916
686.048,73.52418,-3.44544,0.08005462,0.6685
686.748,73.5947,-3.44545,0.08217976,0.66784
687.448,73.66518,-3.44675,0.082093,0.66718
688.148,73.73561,-3.44543,0.08221542,0.66652
688.848,73.80592,-3.44544,0.08203149,0.66586
689.548,73.8763,-3.44544,0.08519843,0.6652
690.248,73.94668,-3.44577,0.08271572,0.66454
690.948,74.01717,-3.44651,0.08452825,0.66388
691.648,74.08759,-3.44676,0.08372695,0.66322
692.348,74.15794,-3.44676,0.08584234,0.66256
693.048,74.22839,-3.44676,0.08829187,0.6619
693.748,74.2989,-3.44609,0.08815719,0.66124
694.448,74.36955,-3.4461,0.09009906,0.66057
695.148,74.44,-3.4461,0.09042949,0.65991
695.848,74.51066,-3.4461,0.09085956,0.65925
696.548,74.58114,-3.44614,0.0888919,0.65859
697.248,74.65179,-3.44742,0.09300273,0.65793
697.948,74.72236,-3.44742,0.08758549,0.65726
698.648,74.7928,-3.44742,0.09001185,0.6566
699.348,74.86352,-3.44675,0.08635513,0.65594
700.048,74.9342,-3.44676,0.08833217,0.65527
700.748,75.00493,-3.44676,0.0914536,0.65461
701.448,75.07553,-3.44676,0.08798871,0.65395
702.148,75.14617,-3.44676,0.08957443,0.65328
702.848,75.2169,-3.44676,0.08964748,0.65262
703.548,75.2876,-3.44671,0.08811532,0.65195
704.248,75.3582,-3.4471,0.09309695,0.65129
704.948,75.4289,-3.44707,0.08989205,0.65062
705.648,75.49976,-3.44675,0.09035496,0.64996
706.348,75.5706,-3.44675,0.09251444,0.64929
707.048,75.64156,-3.44774,0.09336762,0.64863
707.748,75.7125,-3.44774,0.0945439,0.64796
708.448,75.7833,-3.44774,0.09416614,0.6473
709.148,75.854,-3.44811,0.09531737,0.64663
709.848,75.92435,-3.44807,0.09510963,0.64597
710.548,75.99497,-3.448,0.09257682,0.6453
711.248,76.06555,-3.44743,0.09168438,0.64463
711.948,76.13626,-3.44742,0.08958621,0.64397
712.648,76.20674,-3.44873,0.09043832,0.6433
713.348,76.27704,-3.44884,0.09115595,0.64263
714.048,76.34756,-3.44807,0.09204952,0.64197
714.748,76.41805,-3.44807,0.09280523,0.6413
715.448,76.48885,-3.44807,0.09424137,0.64063
716.148,76.55928,-3.44807,0.09437048,0.63996
716.848,76.62958,-3.44807,0.09420774,0.6393
717.548,76.69986,-3.44807,0.09254562,0.63863
718.248,76.77024,-3.44807,0.09618901,0.63796
718.948,76.84071,-3.44807,0.09477718,0.63729
719.648,76.91101,-3.44807,0.09638602,0.63662
720.348,76.9816,-3.44807,0.09642396,0.63595
721.048,77.05215,-3.44675,0.09632402,0.63528
721.748,77.1229,-3.44925,0.09489677,0.63462
722.448,77.1934,-3.44938,0.0972352,0.63395
723.148,77.2639,-3.44824,0.09946522,0.63328
723.848,77.33431,-3.44761,0.09825256,0.63261
724.548,77.40483,-3.44842,0.09574431,0.63194
725.248,77.47574,-3.44713,0.09761308,0.63127
725.948,77.54635,-3.44708,0.09653356,0.6306
726.648,77.6171,-3.44822,0.09462259,0.62993
727.348,77.6875,-3.44741,0.09825085,0.62926
728.048,77.75814,-3.44675,0.09703864,0.62859
728.748,77.82848,-3.44807,0.09932542,0.62792
729.448,77.89901,-3.44807,0.09935135,0.62725
730.148,77.96951,-3.44741,0.09854779,0.62657
730.848,78.0399,-3.44741,0.09867095,0.6259
731.548,78.1103,-3.44777,0.09968131,0.62523
732.248,78.18089,-3.44873,0.0973492,0.62456
732.948,78.25176,-3.44873,0.09734584,0.62389
733.648,78.32249,-3.44873,0.09930717,0.62322
734.348,78.39276,-3.44873,0.09850279,0.62255
735.048,78.46332,-3.44873,0.0968731,0.62187
735.748,78.53393,-3.44873,0.09916354,0.6212
736.448,78.6049,-3.44873,0.10365,0.62053
737.148,78.6756,-3.45006,0.10509,0.61986
737.848,78.7463,-3.45001,0.10345,0.61919
738.548,78.8169,-3.44774,0.101,0.61851
739.248,78.88754,-3.44773,0.09882959,0.61784
739.948,78.95822,-3.44906,0.1028,0.61717
740.648,79.0291,-3.4481,0.09910714,0.61649
741.348,79.09974,-3.44939,0.10061,0.61582
742.048,79.17024,-3.45037,0.10066,0.61515
742.748,79.24073,-3.44938,0.09655305,0.61447
743.448,79.31156,-3.44938,0.09445307,0.6138
744.148,79.38265,-3.44933,0.09041963,0.61313
744.848,79.45362,-3.44939,0.0929837,0.61245
745.548,79.5245,-3.44937,0.09541265,0.61178
746.248,79.5953,-3.44873,0.09537598,0.61111
746.948,79.66614,-3.44873,0.09538509,0.61043
747.648,79.73661,-3.44873,0.09445543,0.60976
748.348,79.80741,-3.45004,0.0914249,0.60908
749.048,79.8784,-3.45005,0.08980792,0.60841
749.748,79.94977,-3.45005,0.0913739,0.60773
750.148,79.99033,-3.44972,0.09207538,0.60735