File: 01_Data/Bean_Bag_Chair_Outer_Cover/STA/N2/10K_min/Bean_Bag_Outer_Cover_STA_N2_10KData_220512_R3.csv
##Temp./Â°C,Time/min,Mass loss(subtr.2)/mg,DSC(subtr.2)/(mW/mg),Sensit./(uV/mW)
49.805,10.01,0.00264,0.02744787,1.07015
50.405,10.7346,0.00211927,0.06283045,1.06999
51.005,10.9241,0.003236142,0.09232813,1.06982
51.605,11.0656,0.003276078,0.11147,1.06965
52.205,11.18345,0.003139178,0.13189,1.06949
52.805,11.28917,0.004554641,0.14723,1.06932
53.405,11.3855,0.004304304,0.16087,1.06916
54.005,11.47604,0.00304068,0.17466,1.06899
54.605,11.5619,0.004129477,0.18443,1.06882
55.205,11.64392,0.00534138,0.19458,1.06865
55.805,11.7223,0.004945299,0.20194,1.06848
56.405,11.79903,0.004490058,0.21258,1.06832
57.005,11.87374,0.004132106,0.21885,1.06815
57.605,11.94706,0.005668471,0.22618,1.06798
58.205,12.01891,0.005930324,0.23168,1.06781
58.805,12.08961,0.005946645,0.24012,1.06764
59.405,12.15922,0.004877375,0.2426,1.06747
60.005,12.22829,0.004806393,0.25005,1.0673
60.605,12.29619,0.005752646,0.25435,1.06713
61.205,12.36369,0.004944247,0.25698,1.06695
61.805,12.43043,0.00462033,0.26074,1.06678
62.405,12.4976,0.00323633,0.26788,1.06661
63.005,12.56403,0.00417911,0.26951,1.06644
63.605,12.6302,0.003190176,0.27584,1.06626
64.205,12.69586,0.002967734,0.27969,1.06609
64.805,12.7611,0.004498089,0.28192,1.06592
65.405,12.8262,0.004538819,0.28556,1.06574
66.005,12.89108,0.004495981,0.28791,1.06557
66.605,12.95605,0.004513212,0.29186,1.06539
67.205,13.02015,0.004498804,0.29436,1.06522
67.805,13.08486,0.005912,0.29854,1.06504
68.405,13.14892,0.006142852,0.3018,1.06487
69.005,13.21359,0.004504113,0.30324,1.06469
69.605,13.2774,0.00407859,0.30698,1.06451
70.205,13.34115,0.004499144,0.31052,1.06434
70.805,13.40482,0.003647295,0.31372,1.06416
71.405,13.46843,0.002910578,0.31513,1.06398
72.005,13.53154,0.002849987,0.31591,1.0638
72.605,13.59472,0.002846048,0.31969,1.06362
73.205,13.6578,0.001858214,0.32386,1.06344
73.805,13.72149,0.00158401,0.32625,1.06326
74.405,13.78447,0.000904962,0.32911,1.06308
75.005,13.84751,0.00299336,0.3323,1.0629
75.605,13.91024,0.001870282,0.33511,1.06272
76.205,13.9727,0.001880094,0.33521,1.06254
76.805,14.03509,0.001833741,0.33899,1.06236
77.405,14.09745,0.001860029,0.34258,1.06218
78.005,14.1599,0.0005565276,0.34606,1.062
78.605,14.2221,0.0005507524,0.34843,1.06182
79.205,14.2842,-8.046704e-05,0.35034,1.06163
79.805,14.346,0.000233516,0.35062,1.06145
80.405,14.40768,0.0001973382,0.35448,1.06127
81.005,14.4694,-0.001100052,0.35565,1.06108
81.605,14.5311,-0.001095242,0.35826,1.0609
82.205,14.5926,-0.0014272,0.36038,1.06071
82.805,14.6538,-0.001644059,0.3619,1.06053
83.405,14.71483,-0.001101916,0.36438,1.06034
84.005,14.77586,-0.00142154,0.36444,1.06016
84.605,14.83671,-0.002409498,0.36712,1.05997
85.205,14.89763,-0.002084437,0.36675,1.05978
85.805,14.95819,-0.001792051,0.36924,1.0596
86.405,15.0188,-0.00207608,0.3701,1.05941
87.005,15.0794,-0.00207989,0.37218,1.05922
87.605,15.13996,-0.002742253,0.37443,1.05903
88.205,15.20023,-0.002090012,0.37271,1.05884
88.805,15.26015,-0.002090334,0.37367,1.05866
89.405,15.3201,-0.003410243,0.37572,1.05847
90.005,15.38011,-0.00341,0.37649,1.05828
90.605,15.44014,-0.003408642,0.3771,1.05809
91.205,15.5002,-0.00602966,0.37681,1.0579
91.805,15.56005,-0.006029972,0.37724,1.05771
92.405,15.6198,-0.00735166,0.3791,1.05751
93.005,15.67919,-0.007350171,0.3778,1.05732
93.605,15.73886,-0.007421048,0.37766,1.05713
94.205,15.79832,-0.007360038,0.37987,1.05694
94.805,15.85776,-0.007371984,0.37769,1.05675
95.405,15.91625,-0.007290846,0.37945,1.05655
96.005,15.97485,-0.00735997,0.37774,1.05636
96.605,16.03425,-0.00736,0.37861,1.05616
97.205,16.09425,-0.0073602,0.37806,1.05597
97.805,16.15446,-0.007128351,0.37765,1.05578
98.405,16.21385,-0.007349936,0.378,1.05558
99.005,16.2725,-0.00735,0.37695,1.05539
99.605,16.3313,-0.007350445,0.37539,1.05519
100.205,16.3899,-0.008669606,0.37353,1.05499
100.805,16.44882,-0.009290875,0.37448,1.0548
101.405,16.5076,-0.009001687,0.3729,1.0546
102.005,16.5665,-0.0099693,0.37232,1.0544
102.605,16.62596,-0.009667428,0.37166,1.0542
103.205,16.68526,-0.00962608,0.37014,1.05401
103.805,16.7441,-0.01000391,0.371,1.05381
104.405,16.80271,-0.009120909,0.36913,1.05361
105.005,16.86159,-0.01032019,0.36878,1.05341
105.605,16.92018,-0.01032001,0.36815,1.05321
106.205,16.97895,-0.01001544,0.36747,1.05301
106.805,17.03761,-0.00999003,0.3655,1.05281
107.405,17.09613,-0.009997943,0.36688,1.05261
108.005,17.155,-0.010041,0.36553,1.05241
108.605,17.21349,-0.00999002,0.36539,1.05221
109.205,17.27194,-0.009989276,0.36315,1.052
109.805,17.3305,-0.00866829,0.3631,1.0518
110.405,17.389,-0.008670917,0.36361,1.0516
111.005,17.44763,-0.009993289,0.36236,1.0514
111.605,17.50615,-0.00998992,0.36062,1.05119
112.205,17.56469,-0.01066601,0.36,1.05099
112.805,17.62335,-0.01159258,0.3588,1.05078
113.405,17.6818,-0.01094066,0.35835,1.05058
114.005,17.74016,-0.01097998,0.35954,1.05037
114.605,17.79869,-0.01184901,0.35766,1.05017
115.205,17.85725,-0.01213919,0.35772,1.04996
115.805,17.91554,-0.01096957,0.35568,1.04976
116.405,17.97395,-0.01096863,0.35705,1.04955
117.005,18.0323,-0.009824484,0.35591,1.04934
117.605,18.09082,-0.01097001,0.35601,1.04914
118.205,18.14935,-0.01096995,0.35629,1.04893
118.805,18.2077,-0.01017912,0.35676,1.04872
119.405,18.26601,-0.01032943,0.35574,1.04851
120.005,18.32425,-0.01097402,0.35467,1.0483
120.605,18.3826,-0.009985429,0.35537,1.04809
121.205,18.4407,-0.008650225,0.35553,1.04788
121.805,18.49921,-0.00867077,0.35659,1.04767
122.405,18.55742,-0.009991788,0.35668,1.04746
123.005,18.6156,-0.008664067,0.35499,1.04725
123.605,18.67386,-0.009004684,0.35686,1.04704
124.205,18.73188,-0.009990028,0.35747,1.04683
124.805,18.7902,-0.00999,0.35718,1.04662
125.405,18.8485,-0.009987579,0.35613,1.0464
126.005,18.90674,-0.01129087,0.35931,1.04619
126.605,18.96511,-0.01129816,0.35983,1.04598
127.205,19.02321,-0.009983551,0.35887,1.04576
127.805,19.08107,-0.008693453,0.35941,1.04555
128.405,19.1391,-0.00867988,0.36052,1.04534
129.005,19.197,-0.009855399,0.36053,1.04512
129.605,19.255,-0.0100798,0.36044,1.04491
130.205,19.31302,-0.00880608,0.35914,1.04469
130.805,19.371,-0.009990137,0.36166,1.04447
131.405,19.42908,-0.00999,0.3607,1.04426
132.005,19.48699,-0.009990001,0.3618,1.04404
132.605,19.54489,-0.009991718,0.36141,1.04382
133.205,19.6026,-0.01131653,0.36201,1.04361
133.805,19.6603,-0.00999483,0.36327,1.04339
134.405,19.71845,-0.00997356,0.36363,1.04317
135.005,19.7762,-0.00999489,0.36291,1.04295
135.605,19.8342,-0.00999,0.36435,1.04273
136.205,19.89209,-0.009987128,0.36543,1.04251
136.805,19.9499,-0.0113034,0.36561,1.04229
137.405,20.0081,-0.009990059,0.36601,1.04207
138.005,20.06586,-0.009989965,0.36767,1.04185
138.605,20.1237,-0.009900311,0.36774,1.04163
139.205,20.18148,-0.009329925,0.3681,1.04141
139.805,20.23921,-0.009315484,0.36988,1.04119
140.405,20.29709,-0.009660142,0.36899,1.04096
141.005,20.35482,-0.00882139,0.36865,1.04074
141.605,20.4127,-0.008016829,0.37018,1.04052
142.205,20.47054,-0.009326065,0.37257,1.04029
142.805,20.52846,-0.009396618,0.37247,1.04007
143.405,20.58624,-0.008010098,0.37297,1.03985
144.005,20.64399,-0.00801,0.37486,1.03962
144.605,20.7018,-0.008010048,0.37657,1.0394
145.205,20.7594,-0.009293488,0.3776,1.03917
145.805,20.8172,-0.008680514,0.37686,1.03894
146.405,20.87492,-0.008694306,0.37617,1.03872
147.005,20.9326,-0.00941893,0.37781,1.03849
147.605,20.9901,-0.009330003,0.37934,1.03826
148.205,21.04776,-0.009328971,0.37977,1.03804
148.805,21.1056,-0.00833675,0.3817,1.03781
149.405,21.16331,-0.008449884,0.38118,1.03758
150.005,21.22093,-0.008681147,0.38261,1.03735
150.605,21.27863,-0.009328411,0.38399,1.03712
151.205,21.33609,-0.009183462,0.38692,1.03689
151.805,21.39361,-0.008023713,0.38828,1.03666
152.405,21.45123,-0.008010003,0.38542,1.03643
153.005,21.50832,-0.008009903,0.38604,1.0362
153.605,21.56589,-0.007448041,0.38703,1.03597
154.205,21.623,-0.006689803,0.38823,1.03574
154.805,21.68069,-0.007407844,0.38806,1.03551
155.405,21.7384,-0.008980242,0.39011,1.03527
156.005,21.7958,-0.008999982,0.39055,1.03504
156.605,21.85363,-0.009,0.39198,1.03481
157.205,21.91114,-0.009000018,0.39151,1.03458
157.805,21.9691,-0.008724579,0.39608,1.03434
158.405,22.0269,-0.008009542,0.39719,1.03411
159.005,22.0844,-0.00902334,0.39706,1.03387
159.605,22.1419,-0.009329957,0.39745,1.03364
160.205,22.1993,-0.00905469,0.39827,1.0334
160.805,22.25655,-0.008019663,0.39854,1.03317
161.405,22.31393,-0.008020022,0.39946,1.03293
162.005,22.37126,-0.008039016,0.40092,1.03269
162.605,22.42888,-0.008008811,0.3996,1.03246
163.205,22.48634,-0.00765454,0.40236,1.03222
163.805,22.54366,-0.006699733,0.40085,1.03198
164.405,22.6009,-0.006702358,0.40273,1.03174
165.005,22.65823,-0.008005314,0.40331,1.0315
165.605,22.71561,-0.007632452,0.40279,1.03126
166.205,22.7731,-0.007345949,0.40353,1.03102
166.805,22.8307,-0.007984378,0.40529,1.03078
167.405,22.8882,-0.00801003,0.40578,1.03054
168.005,22.94549,-0.008008135,0.40732,1.0303
168.605,23.00289,-0.006683227,0.4061,1.03006
169.205,23.06025,-0.00667399,0.40858,1.02982
169.805,23.11769,-0.005699753,0.40921,1.02958
170.405,23.17509,-0.00569974,0.4119,1.02933
171.005,23.2326,-0.00657244,0.41093,1.02909
171.605,23.2899,-0.007020004,0.41008,1.02885
172.205,23.3473,-0.00702,0.41107,1.0286
172.805,23.40472,-0.007019785,0.41296,1.02836
173.405,23.4621,-0.007891043,0.41297,1.02812
174.005,23.51916,-0.00702996,0.41419,1.02787
174.605,23.57629,-0.00703,0.4137,1.02763
175.205,23.63295,-0.00703,0.41348,1.02738
175.805,23.6904,-0.00703,0.4148,1.02713
176.405,23.74775,-0.00703,0.41492,1.02689
177.005,23.8055,-0.00703002,0.41495,1.02664
177.605,23.86338,-0.007065505,0.41704,1.02639
178.205,23.92077,-0.005710736,0.41754,1.02614
178.805,23.97818,-0.007363231,0.41712,1.0259
179.405,24.0355,-0.007727586,0.41879,1.02565
180.005,24.09281,-0.00669355,0.42033,1.0254
180.605,24.14969,-0.006700905,0.42103,1.02515
181.205,24.2069,-0.006036781,0.4212,1.0249
181.805,24.26422,-0.006039998,0.42043,1.02465
182.405,24.32153,-0.00604,0.42131,1.0244
183.005,24.37921,-0.006040276,0.42203,1.02415
183.605,24.43659,-0.00637715,0.42272,1.0239
184.205,24.49385,-0.007197648,0.42248,1.02364
184.805,24.55135,-0.007020091,0.42469,1.02339
185.405,24.6087,-0.0064677,0.42512,1.02314
186.005,24.66584,-0.005152666,0.42326,1.02289
186.605,24.7229,-0.005553423,0.42416,1.02263
187.205,24.78006,-0.007019936,0.42666,1.02238
187.805,24.83707,-0.007020001,0.4277,1.02212
188.405,24.8935,-0.00702,0.42867,1.02187
189.005,24.95032,-0.00702,0.42867,1.02161
189.605,25.0073,-0.007019346,0.43188,1.02136
190.205,25.065,-0.006698341,0.43051,1.0211
190.805,25.12272,-0.007986368,0.43158,1.02085
191.405,25.1802,-0.008009999,0.43467,1.02059
192.005,25.23759,-0.008010001,0.43387,1.02033
192.605,25.29468,-0.008013911,0.4335,1.02007
193.205,25.3518,-0.007023359,0.43544,1.01982
193.805,25.40888,-0.00726491,0.43437,1.01956
194.405,25.4661,-0.008346206,0.43399,1.0193
195.005,25.52329,-0.007031853,0.43709,1.01904
195.605,25.5805,-0.00703,0.43827,1.01878
196.205,25.63767,-0.007032863,0.4389,1.01852
196.805,25.69483,-0.00710667,0.43847,1.01826
197.405,25.75188,-0.00553044,0.43864,1.018
198.005,25.80875,-0.006166,0.43936,1.01774
198.605,25.86526,-0.007476926,0.43964,1.01747
199.205,25.92173,-0.007470002,0.4416,1.01721
199.805,25.97851,-0.007470007,0.44083,1.01695
200.405,26.03584,-0.007563374,0.44176,1.01669
201.005,26.09315,-0.008780503,0.44215,1.01642
201.605,26.1509,-0.008368083,0.44295,1.01616
202.205,26.20812,-0.00738429,0.44382,1.01589
202.805,26.26535,-0.008779895,0.44614,1.01563
203.405,26.32256,-0.008806744,0.44443,1.01536
204.005,26.37963,-0.007459766,0.44779,1.0151
204.605,26.4369,-0.007456395,0.44422,1.01483
205.205,26.49383,-0.008770155,0.44792,1.01457
205.805,26.55097,-0.008117449,0.44788,1.0143
206.405,26.6079,-0.00947998,0.44949,1.01403
207.005,26.6651,-0.009464378,0.44997,1.01376
207.605,26.72216,-0.008780421,0.45139,1.0135
208.205,26.77941,-0.008779693,0.45106,1.01323
208.805,26.83638,-0.00742194,0.45191,1.01296
209.405,26.89357,-0.0081557,0.45262,1.01269
210.005,26.95053,-0.008779961,0.4533,1.01242
210.605,27.0078,-0.00878,0.4542,1.01215
211.205,27.0649,-0.00878,0.45352,1.01188
211.805,27.1219,-0.00878,0.45366,1.01161
212.405,27.1789,-0.00878,0.45531,1.01134
213.005,27.23542,-0.00878,0.45572,1.01106
213.605,27.29219,-0.008779887,0.4574,1.01079
214.205,27.34893,-0.00935045,0.45709,1.01052
214.805,27.4063,-0.0101002,0.45919,1.01025
215.405,27.46398,-0.01010026,0.4593,1.00997
216.005,27.52119,-0.009384989,0.46026,1.0097
216.605,27.57837,-0.01129577,0.46111,1.00942
217.205,27.63542,-0.009887805,0.46052,1.00915
217.805,27.6924,-0.01139558,0.46334,1.00887
218.405,27.7494,-0.01129998,0.46277,1.0086
219.005,27.80645,-0.01119248,0.46333,1.00832
219.605,27.86355,-0.01005855,0.46343,1.00804
220.205,27.92052,-0.008670047,0.46543,1.00777
220.805,27.9776,-0.00860711,0.46654,1.00749
221.405,28.03466,-0.009331246,0.46664,1.00721
222.005,28.0916,-0.01068702,0.46916,1.00693
222.605,28.14855,-0.0106039,0.46999,1.00666
223.205,28.20545,-0.01131892,0.47052,1.00638
223.805,28.26241,-0.01195879,0.46886,1.0061
224.405,28.3194,-0.01196,0.46893,1.00582
225.005,28.37637,-0.01269756,0.46883,1.00554
225.605,28.43325,-0.01229018,0.4712,1.00526
226.205,28.4901,-0.01229,0.47162,1.00497
226.805,28.54738,-0.01229,0.47305,1.00469
227.405,28.6044,-0.01229004,0.47272,1.00441
228.005,28.66185,-0.01233934,0.47428,1.00413
228.605,28.7188,-0.01261935,0.47458,1.00385
229.205,28.77603,-0.01359713,0.47475,1.00356
229.805,28.83261,-0.01359173,0.47597,1.00328
230.405,28.8896,-0.01393996,0.47672,1.00299
231.005,28.94652,-0.01394,0.47636,1.00271
231.605,29.0037,-0.01394,0.47691,1.00242
232.205,29.0613,-0.01394,0.47826,1.00214
232.805,29.1184,-0.01394002,0.47946,1.00185
233.405,29.1756,-0.01405947,0.47857,1.00157
234.005,29.23269,-0.01493029,0.47891,1.00128
234.605,29.28985,-0.01493,0.48113,1.00099
235.205,29.3466,-0.01494658,0.48297,1.00071
235.805,29.4036,-0.01592118,0.48229,1.00042
236.405,29.46067,-0.0159211,0.48161,1.00013
237.005,29.5179,-0.0162649,0.48429,0.99984
237.605,29.5755,-0.01724108,0.48405,0.99955
238.205,29.63273,-0.0172387,0.48407,0.99926
238.805,29.68975,-0.01886492,0.48572,0.99897
239.405,29.7469,-0.01887992,0.48434,0.99868
240.005,29.80388,-0.01888,0.48666,0.99839
240.605,29.861,-0.01888019,0.48818,0.9981
241.205,29.9181,-0.02011688,0.48943,0.99781
241.805,29.9752,-0.0202146,0.48955,0.99751
242.405,30.03228,-0.02151041,0.49161,0.99722
243.005,30.0893,-0.02152792,0.48936,0.99693
243.605,30.14648,-0.02117904,0.49057,0.99663
244.205,30.20363,-0.02119009,0.4925,0.99634
244.805,30.26087,-0.02254199,0.49185,0.99605
245.405,30.31813,-0.02249995,0.49339,0.99575
246.005,30.37527,-0.02249754,0.4931,0.99546
246.605,30.43233,-0.02283105,0.49562,0.99516
247.205,30.48947,-0.02315913,0.49694,0.99486
247.805,30.5465,-0.02418172,0.49781,0.99457
248.405,30.60367,-0.02448122,0.49841,0.99427
249.005,30.66088,-0.02579315,0.49653,0.99397
249.605,30.718,-0.02579001,0.49782,0.99367
250.205,30.77522,-0.02581755,0.50097,0.99338
250.805,30.8323,-0.02593681,0.49957,0.99308
251.405,30.88942,-0.02547433,0.50136,0.99278
252.005,30.9465,-0.02678256,0.50166,0.99248
252.605,31.00335,-0.0268094,0.50289,0.99218
253.205,31.0606,-0.02809943,0.50349,0.99188
253.805,31.1179,-0.02942299,0.50621,0.99158
254.405,31.17495,-0.02941967,0.50519,0.99128
255.005,31.2321,-0.03071787,0.50808,0.99097
255.605,31.28906,-0.03205998,0.50793,0.99067
256.205,31.346,-0.03206101,0.50716,0.99037
256.805,31.40322,-0.03342055,0.50866,0.99007
257.405,31.4602,-0.03337,0.50991,0.98976
258.005,31.51735,-0.03337012,0.51076,0.98946
258.605,31.5743,-0.03478623,0.51188,0.98915
259.205,31.63148,-0.03468897,0.513,0.98885
259.805,31.68862,-0.0360233,0.51385,0.98854
260.405,31.74571,-0.03609722,0.5135,0.98824
261.005,31.8029,-0.03850812,0.51499,0.98793
261.605,31.8601,-0.03798978,0.51604,0.98763
262.205,31.91716,-0.03866136,0.51934,0.98732
262.805,31.97427,-0.04126678,0.5185,0.98701
263.405,32.03125,-0.04129499,0.51992,0.9867
264.005,32.08833,-0.04226963,0.52362,0.9864
264.605,32.1456,-0.04227,0.52287,0.98609
265.205,32.2025,-0.04226996,0.52358,0.98578
265.805,32.25967,-0.04228146,0.5255,0.98547
266.405,32.3166,-0.0426323,0.52459,0.98516
267.005,32.3735,-0.04389638,0.52761,0.98485
267.605,32.4306,-0.04397003,0.52774,0.98454
268.205,32.4877,-0.04646494,0.52842,0.98423
268.805,32.54463,-0.04788252,0.52903,0.98391
269.405,32.60185,-0.04919355,0.52882,0.9836
270.005,32.65896,-0.05019089,0.53015,0.98329
270.605,32.71614,-0.05148375,0.53015,0.98298
271.205,32.77343,-0.05016269,0.52904,0.98266
271.805,32.8307,-0.05148018,0.53162,0.98235
272.405,32.88782,-0.05144499,0.53275,0.98203
273.005,32.9452,-0.05280553,0.53309,0.98172
273.605,33.00245,-0.05410839,0.53475,0.9814
274.205,33.0598,-0.05542555,0.53461,0.98109
274.805,33.1173,-0.05667107,0.5343,0.98077
275.405,33.17434,-0.05718739,0.53474,0.98046
276.005,33.2316,-0.05938981,0.53401,0.98014
276.605,33.28887,-0.058047,0.53359,0.97982
277.205,33.34629,-0.05974899,0.53407,0.9795
277.805,33.40359,-0.0607357,0.5343,0.97919
278.405,33.46086,-0.06332845,0.53486,0.97887
279.005,33.51813,-0.06465979,0.53539,0.97855
279.605,33.57547,-0.06595722,0.53582,0.97823
280.205,33.63257,-0.06592987,0.53583,0.97791
280.805,33.68975,-0.06728906,0.53636,0.97759
281.405,33.74723,-0.06932337,0.53638,0.97727
282.005,33.80448,-0.07072802,0.53661,0.97695
282.605,33.862,-0.07204864,0.53624,0.97662
283.205,33.9193,-0.07257265,0.53714,0.9763
283.805,33.97659,-0.07412453,0.53838,0.97598
284.405,34.0338,-0.07772179,0.53766,0.97566
285.005,34.0908,-0.07924662,0.53889,0.97533
285.605,34.14798,-0.08148825,0.53676,0.97501
286.205,34.20528,-0.08196139,0.5406,0.97468
286.805,34.26287,-0.08334223,0.53973,0.97436
287.405,34.32012,-0.084639,0.54066,0.97403
288.005,34.37727,-0.08595453,0.5427,0.97371
288.605,34.43464,-0.08750841,0.54432,0.97338
289.205,34.49191,-0.09010286,0.54713,0.97306
289.805,34.54959,-0.09261092,0.54556,0.97273
290.405,34.60674,-0.09461886,0.54639,0.9724
291.005,34.6642,-0.09595798,0.54778,0.97207
291.605,34.72152,-0.09865228,0.54878,0.97175
292.205,34.77882,-0.10186,0.54976,0.97142
292.805,34.83656,-0.10328,0.55082,0.97109
293.405,34.89403,-0.10454,0.55309,0.97076
294.005,34.95151,-0.10604,0.55492,0.97043
294.605,35.00885,-0.11004,0.55585,0.9701
295.205,35.06605,-0.11329,0.55834,0.96977
295.805,35.1234,-0.11515,0.55938,0.96944
296.405,35.18067,-0.11664,0.56157,0.9691
297.005,35.23822,-0.11981,0.56364,0.96877
297.605,35.2957,-0.12279,0.56502,0.96844
298.205,35.35342,-0.12558,0.56575,0.96811
298.805,35.41072,-0.12737,0.56946,0.96777
299.405,35.46797,-0.13032,0.56774,0.96744
300.005,35.52543,-0.13353,0.57076,0.9671
300.605,35.5828,-0.1357,0.57256,0.96677
301.205,35.64036,-0.1388,0.57626,0.96643
301.805,35.6978,-0.14122,0.57813,0.9661
302.405,35.75504,-0.14402,0.58115,0.96576
303.005,35.81256,-0.14755,0.58389,0.96542
303.605,35.8701,-0.1514,0.58479,0.96509
304.205,35.9276,-0.15441,0.58973,0.96475
304.805,35.98514,-0.15777,0.59069,0.96441
305.405,36.04268,-0.16267,0.59567,0.96407
306.005,36.10017,-0.16721,0.5985,0.96374
306.605,36.15762,-0.17113,0.60084,0.9634
307.205,36.2151,-0.17487,0.60235,0.96306
307.805,36.27244,-0.17929,0.60666,0.96272
308.405,36.32975,-0.18288,0.61123,0.96238
309.005,36.38706,-0.18622,0.61412,0.96203
309.605,36.44458,-0.19139,0.61604,0.96169
310.205,36.5021,-0.19547,0.62091,0.96135
310.805,36.5598,-0.19934,0.62579,0.96101
311.405,36.6173,-0.20404,0.62793,0.96067
312.005,36.67471,-0.20792,0.63109,0.96032
312.605,36.73237,-0.21264,0.63599,0.95998
313.205,36.78973,-0.21768,0.63877,0.95963
313.805,36.84727,-0.22422,0.64328,0.95929
314.405,36.90473,-0.23022,0.6476,0.95895
315.005,36.96208,-0.23575,0.65357,0.9586
315.605,37.01964,-0.24115,0.66017,0.95825
316.205,37.0771,-0.24654,0.66589,0.95791
316.805,37.13465,-0.25273,0.67157,0.95756
317.405,37.1922,-0.25974,0.67696,0.95721
318.005,37.24971,-0.2663,0.68307,0.95687
318.605,37.3072,-0.27222,0.68758,0.95652
319.205,37.36475,-0.27909,0.69466,0.95617
319.805,37.42235,-0.2867,0.70117,0.95582
320.405,37.48023,-0.29313,0.70769,0.95547
321.005,37.53727,-0.29911,0.71384,0.95512
321.605,37.59486,-0.3072,0.72166,0.95477
322.205,37.6524,-0.31405,0.72997,0.95442
322.805,37.71001,-0.32309,0.73709,0.95407
323.405,37.76815,-0.33182,0.74518,0.95372
324.005,37.82587,-0.33949,0.75355,0.95337
324.605,37.88347,-0.34838,0.76251,0.95301
325.205,37.94119,-0.3577,0.77092,0.95266
325.805,37.99899,-0.36606,0.78139,0.95231
326.405,38.05666,-0.37576,0.79256,0.95195
327.005,38.11408,-0.38649,0.80259,0.9516
327.605,38.17173,-0.39566,0.81453,0.95124
328.205,38.22932,-0.40692,0.82616,0.95089
328.805,38.28698,-0.41795,0.839,0.95053
329.405,38.34474,-0.42972,0.85115,0.95018
330.005,38.4025,-0.4405,0.86257,0.94982
330.605,38.46026,-0.45345,0.87676,0.94946
331.205,38.51822,-0.46447,0.88877,0.94911
331.805,38.576,-0.47652,0.90358,0.94875
332.405,38.63386,-0.48925,0.91735,0.94839
333.005,38.69167,-0.5027,0.93421,0.94803
333.605,38.74954,-0.51859,0.94966,0.94767
334.205,38.80744,-0.53406,0.96696,0.94731
334.805,38.8654,-0.54867,0.98434,0.94695
335.405,38.92329,-0.56471,1.00203,0.94659
336.005,38.981,-0.58116,1.02446,0.94623
336.605,39.03883,-0.6009,1.04351,0.94587
337.205,39.0969,-0.61758,1.06364,0.94551
337.805,39.15486,-0.63536,1.08462,0.94515
338.405,39.2128,-0.6539,1.10481,0.94479
339.005,39.27065,-0.67166,1.12928,0.94442
339.605,39.32857,-0.69163,1.15082,0.94406
340.205,39.38666,-0.71256,1.17297,0.9437
340.805,39.44497,-0.73597,1.19877,0.94333
341.405,39.50305,-0.75714,1.22345,0.94297
342.005,39.56114,-0.78146,1.2497,0.9426
342.605,39.6192,-0.80536,1.27585,0.94224
343.205,39.67706,-0.83028,1.30343,0.94187
343.805,39.73447,-0.85523,1.33032,0.9415
344.405,39.7922,-0.88066,1.35946,0.94114
345.005,39.85006,-0.90869,1.38822,0.94077
345.605,39.9082,-0.93517,1.41781,0.9404
346.205,39.9669,-0.96431,1.44564,0.94003
346.805,40.02516,-0.99397,1.47881,0.93966
347.405,40.08352,-1.0274,1.50864,0.93929
348.005,40.14188,-1.05808,1.53989,0.93892
348.605,40.20006,-1.0938,1.57235,0.93855
349.205,40.25823,-1.12644,1.60284,0.93818
349.805,40.31665,-1.16252,1.6342,0.93781
350.405,40.37523,-1.19709,1.66495,0.93744
351.005,40.43326,-1.23339,1.69762,0.93707
351.605,40.49149,-1.26968,1.72681,0.9367
352.205,40.5496,-1.30863,1.75958,0.93632
352.805,40.60785,-1.34884,1.79023,0.93595
353.405,40.6661,-1.38926,1.81779,0.93558
354.005,40.72435,-1.43197,1.84575,0.9352
354.605,40.78268,-1.472,1.87245,0.93483
355.205,40.8409,-1.516,1.89838,0.93445
355.805,40.89938,-1.56109,1.92119,0.93408
356.405,40.9578,-1.60647,1.93995,0.9337
357.005,41.01608,-1.64918,1.96178,0.93333
357.605,41.0745,-1.69575,1.9763,0.93295
358.205,41.13268,-1.74216,1.99076,0.93257
358.805,41.19088,-1.78792,2.00517,0.9322
359.405,41.2492,-1.83576,2.01542,0.93182
360.005,41.30699,-1.88347,2.02292,0.93144
360.605,41.36527,-1.93269,2.02718,0.93106
361.205,41.42354,-1.97958,2.02784,0.93068
361.805,41.4816,-2.02905,2.02674,0.9303
362.405,41.54025,-2.07665,2.02605,0.92992
363.005,41.59825,-2.12596,2.0187,0.92954
363.605,41.65625,-2.17212,2.0096,0.92916
364.205,41.7142,-2.21962,1.99683,0.92878
364.805,41.77221,-2.26539,1.98316,0.9284
365.405,41.83,-2.31328,1.96815,0.92801
366.005,41.88794,-2.36009,1.94885,0.92763
366.605,41.94587,-2.40499,1.92538,0.92725
367.205,42.00367,-2.45095,1.90295,0.92687
367.805,42.06133,-2.49299,1.87602,0.92648
368.405,42.11942,-2.54003,1.85084,0.9261
369.005,42.17725,-2.58054,1.81566,0.92571
369.605,42.23536,-2.62379,1.78249,0.92533
370.205,42.29307,-2.66472,1.74588,0.92494
370.805,42.3508,-2.70428,1.70372,0.92455
371.405,42.40874,-2.74473,1.66151,0.92417
372.005,42.46685,-2.781,1.61571,0.92378
372.605,42.52454,-2.81855,1.56442,0.92339
373.205,42.58232,-2.85273,1.51266,0.923
373.805,42.63995,-2.8876,1.45731,0.92262
374.405,42.69746,-2.91894,1.39766,0.92223
375.005,42.75496,-2.95079,1.33727,0.92184
375.605,42.81243,-2.98013,1.27308,0.92145
376.205,42.8699,-3.00724,1.20637,0.92106
376.805,42.92754,-3.03388,1.14036,0.92067
377.405,42.9848,-3.05871,1.06958,0.92028
378.005,43.04209,-3.07994,1.00118,0.91988
378.605,43.09944,-3.09977,0.93497,0.91949
379.205,43.1567,-3.11876,0.86441,0.9191
379.805,43.21413,-3.13418,0.79843,0.91871
380.405,43.27126,-3.1498,0.73377,0.91831
381.005,43.32864,-3.16132,0.67298,0.91792
381.605,43.38599,-3.17324,0.61256,0.91753
382.205,43.4436,-3.183,0.55849,0.91713
382.805,43.50099,-3.19258,0.51001,0.91674
383.405,43.55847,-3.20011,0.46313,0.91634
384.005,43.61596,-3.20657,0.42148,0.91595
384.605,43.6734,-3.2117,0.38628,0.91555
385.205,43.73102,-3.21512,0.35656,0.91515
385.805,43.78868,-3.21834,0.33037,0.91476
386.405,43.84643,-3.22213,0.3074,0.91436
387.005,43.9041,-3.22408,0.29145,0.91396
387.605,43.96197,-3.22803,0.27504,0.91356
388.205,44.01975,-3.23124,0.26574,0.91316
388.805,44.07754,-3.2351,0.2523,0.91276
389.405,44.13525,-3.23652,0.24559,0.91236
390.005,44.1932,-3.23796,0.23868,0.91196
390.605,44.25121,-3.23787,0.23503,0.91156
391.205,44.30938,-3.23812,0.22869,0.91116
391.805,44.36775,-3.23784,0.22486,0.91076
392.405,44.4257,-3.23914,0.22479,0.91036
393.005,44.48386,-3.24044,0.22302,0.90996
393.605,44.54184,-3.2418,0.22073,0.90955
394.205,44.5999,-3.24311,0.22008,0.90915
394.805,44.65807,-3.24317,0.21875,0.90875
395.405,44.71604,-3.24434,0.21803,0.90834
396.005,44.77425,-3.24717,0.21739,0.90794
396.605,44.83248,-3.24717,0.216,0.90753
397.205,44.89082,-3.24717,0.21448,0.90713
397.805,44.94908,-3.24849,0.21633,0.90672
398.405,45.00738,-3.24979,0.21657,0.90632
399.005,45.06555,-3.2498,0.21678,0.90591
399.605,45.12397,-3.25015,0.21784,0.9055
400.205,45.18235,-3.25114,0.21734,0.90509
400.805,45.24064,-3.25244,0.21622,0.90469
401.405,45.29906,-3.25376,0.21602,0.90428
402.005,45.3575,-3.25375,0.21554,0.90387
402.605,45.41587,-3.25506,0.21602,0.90346
403.205,45.47423,-3.25639,0.21534,0.90305
403.805,45.5321,-3.2564,0.21609,0.90264
404.405,45.59022,-3.25805,0.21501,0.90223
405.005,45.64845,-3.2583,0.2164,0.90182
405.605,45.70682,-3.25972,0.21739,0.90141
406.205,45.76552,-3.25968,0.21722,0.901
406.805,45.824,-3.25967,0.21886,0.90058
407.405,45.8825,-3.25846,0.21735,0.90017
408.005,45.94112,-3.25968,0.21745,0.89976
408.605,45.99937,-3.26099,0.21603,0.89934
409.205,46.0578,-3.26232,0.2177,0.89893
409.805,46.11623,-3.2636,0.21894,0.89852
410.405,46.17473,-3.2637,0.2173,0.8981
411.005,46.23304,-3.26404,0.21785,0.89769
411.605,46.29145,-3.26653,0.21582,0.89727
412.205,46.3498,-3.26781,0.21773,0.89685
412.805,46.40824,-3.2665,0.21673,0.89644
413.405,46.46689,-3.26767,0.21732,0.89602
414.005,46.52531,-3.26917,0.21666,0.8956
414.605,46.58348,-3.26912,0.21843,0.89518
415.205,46.64193,-3.26912,0.21732,0.89477
415.805,46.70041,-3.26912,0.21502,0.89435
416.405,46.759,-3.26979,0.21665,0.89393
417.005,46.81742,-3.27142,0.2168,0.89351
417.605,46.87585,-3.27143,0.21632,0.89309
418.205,46.93428,-3.27266,0.21698,0.89267
418.805,46.9927,-3.27275,0.21647,0.89225
419.405,47.051,-3.27349,0.21725,0.89183
420.005,47.10928,-3.27406,0.21695,0.89141
420.605,47.1677,-3.27538,0.21519,0.89098
421.205,47.226,-3.27671,0.21731,0.89056
421.805,47.28383,-3.2767,0.21554,0.89014
422.405,47.34216,-3.27671,0.21614,0.88971
423.005,47.4005,-3.27802,0.21533,0.88929
423.605,47.45904,-3.27933,0.21697,0.88887
424.205,47.51781,-3.27933,0.21707,0.88844
424.805,47.57604,-3.28066,0.21904,0.88802
425.405,47.63451,-3.28096,0.21633,0.88759
426.005,47.69297,-3.28335,0.21609,0.88717
426.605,47.75173,-3.28329,0.21704,0.88674
427.205,47.81017,-3.28461,0.21691,0.88631
427.805,47.86851,-3.28329,0.21708,0.88589
428.405,47.92695,-3.28446,0.21704,0.88546
429.005,47.98536,-3.28731,0.21762,0.88503
429.605,48.04402,-3.28724,0.21828,0.8846
430.205,48.10265,-3.28709,0.21858,0.88417
430.805,48.1614,-3.28668,0.21998,0.88374
431.405,48.2198,-3.2879,0.21723,0.88331
432.005,48.27834,-3.28786,0.21762,0.88288
432.605,48.33674,-3.29028,0.21846,0.88245
433.205,48.39562,-3.29059,0.21893,0.88202
433.805,48.4544,-3.29152,0.21852,0.88159
434.405,48.51312,-3.29152,0.21785,0.88116
435.005,48.5721,-3.29224,0.21904,0.88073
435.605,48.63089,-3.29282,0.21778,0.88029
436.205,48.68953,-3.29214,0.21893,0.87986
436.805,48.74845,-3.29284,0.21618,0.87943
437.405,48.8072,-3.29526,0.21729,0.87899
438.005,48.86589,-3.29548,0.21695,0.87856
438.605,48.9246,-3.29688,0.21777,0.87813
439.205,48.9833,-3.29707,0.21853,0.87769
439.805,49.04237,-3.29811,0.21733,0.87725
440.405,49.10137,-3.29811,0.21921,0.87682
441.005,49.16048,-3.29814,0.22113,0.87638
441.605,49.21931,-3.29943,0.22209,0.87595
442.205,49.27805,-3.30074,0.21771,0.87551
442.805,49.33675,-3.30206,0.21908,0.87507
443.405,49.39543,-3.30199,0.21932,0.87463
444.005,49.45415,-3.30274,0.21984,0.87419
444.605,49.5129,-3.30332,0.22001,0.87376
445.205,49.5717,-3.3047,0.22124,0.87332
445.805,49.6306,-3.30432,0.21982,0.87288
446.405,49.68949,-3.30337,0.22196,0.87244
447.005,49.74831,-3.30462,0.22335,0.872
447.605,49.80722,-3.30738,0.22229,0.87156
448.205,49.86594,-3.30734,0.22236,0.87111
448.805,49.92472,-3.30865,0.22178,0.87067
449.405,49.98346,-3.30959,0.2231,0.87023
450.005,50.04214,-3.30997,0.22138,0.86979
450.605,50.10083,-3.30997,0.22181,0.86934
451.205,50.15948,-3.31128,0.22257,0.8689
451.805,50.21819,-3.31179,0.2213,0.86846
452.405,50.2769,-3.3126,0.22229,0.86801
453.005,50.3358,-3.31165,0.22083,0.86757
453.605,50.39475,-3.31257,0.22074,0.86712
454.205,50.45361,-3.31325,0.22126,0.86668
454.805,50.51266,-3.31455,0.2224,0.86623
455.405,50.57152,-3.3159,0.22265,0.86579
456.005,50.6304,-3.31458,0.21948,0.86534
456.605,50.68925,-3.31589,0.22365,0.86489
457.205,50.74794,-3.31589,0.22386,0.86445
457.805,50.8068,-3.31721,0.22539,0.864
458.405,50.8654,-3.31721,0.22612,0.86355
459.005,50.9242,-3.31863,0.22536,0.8631
459.605,50.98301,-3.31855,0.22537,0.86265
460.205,51.04181,-3.31985,0.22423,0.8622
460.805,51.10069,-3.31985,0.22446,0.86175
461.405,51.15943,-3.31985,0.22521,0.8613
462.005,51.21829,-3.32116,0.22797,0.86085
462.605,51.27705,-3.3213,0.22772,0.8604
463.205,51.33598,-3.32248,0.22844,0.85995
463.805,51.3949,-3.32242,0.22994,0.8595
464.405,51.45373,-3.32412,0.23126,0.85904
465.005,51.5126,-3.32512,0.23109,0.85859
465.605,51.5715,-3.3251,0.22968,0.85814
466.205,51.6304,-3.32643,0.22773,0.85768
466.805,51.6892,-3.32512,0.22982,0.85723
467.405,51.74798,-3.32508,0.22824,0.85678
468.005,51.80675,-3.32643,0.22812,0.85632
468.605,51.86549,-3.32826,0.23163,0.85587
469.205,51.9245,-3.32907,0.23071,0.85541
469.805,51.98343,-3.32907,0.23259,0.85496
470.405,52.0425,-3.33038,0.23311,0.8545
471.005,52.10152,-3.3304,0.23128,0.85404
471.605,52.1605,-3.33171,0.2328,0.85359
472.205,52.21948,-3.333,0.23333,0.85313
472.805,52.27799,-3.33321,0.23449,0.85267
473.405,52.33706,-3.33434,0.23358,0.85221
474.005,52.396,-3.33301,0.2331,0.85175
474.605,52.455,-3.33302,0.23298,0.85129
475.205,52.5146,-3.33307,0.23331,0.85083
475.805,52.57376,-3.33362,0.2368,0.85037
476.405,52.63301,-3.33302,0.2358,0.84991
477.005,52.6921,-3.33435,0.23543,0.84945
477.605,52.7514,-3.33663,0.23577,0.84899
478.205,52.8107,-3.33796,0.23642,0.84853
478.805,52.8699,-3.33796,0.23615,0.84807
479.405,52.92873,-3.33796,0.23665,0.84761
480.005,52.98765,-3.33664,0.23623,0.84714
480.605,53.0467,-3.33699,0.2341,0.84668
481.205,53.106,-3.33699,0.23568,0.84622
481.805,53.1653,-3.33729,0.23759,0.84575
482.405,53.22449,-3.33952,0.23743,0.84529
483.005,53.2836,-3.34091,0.23864,0.84482
483.605,53.3426,-3.34091,0.24074,0.84436
484.205,53.4017,-3.34104,0.24202,0.84389
484.805,53.46085,-3.34125,0.24062,0.84343
485.405,53.5201,-3.34125,0.24164,0.84296
486.005,53.57934,-3.34256,0.24157,0.8425
486.605,53.6385,-3.34257,0.24265,0.84203
487.205,53.6976,-3.3437,0.24513,0.84156
487.805,53.75674,-3.34389,0.24453,0.84109
488.405,53.81585,-3.34389,0.24341,0.84063
489.005,53.8751,-3.34519,0.24649,0.84016
489.605,53.9342,-3.34652,0.24461,0.83969
490.205,53.9932,-3.3456,0.24757,0.83922
490.805,54.0525,-3.34652,0.24904,0.83875
491.405,54.11179,-3.34652,0.24942,0.83828
492.005,54.171,-3.34783,0.25343,0.83781
492.605,54.22995,-3.34784,0.25398,0.83734
493.205,54.2887,-3.34784,0.25714,0.83687
493.805,54.3477,-3.34914,0.26096,0.83639
494.405,54.40676,-3.34936,0.2625,0.83592
495.005,54.4659,-3.35053,0.26442,0.83545
495.605,54.5252,-3.35046,0.26689,0.83498
496.205,54.58433,-3.35178,0.26833,0.8345
496.805,54.6433,-3.35113,0.2676,0.83403
497.405,54.70228,-3.35113,0.27056,0.83356
498.005,54.7615,-3.35184,0.27094,0.83308
498.605,54.82068,-3.35246,0.27129,0.83261
499.205,54.87975,-3.35245,0.27206,0.83213
499.805,54.939,-3.35245,0.27223,0.83166
500.405,54.99805,-3.35379,0.27201,0.83118
501.005,55.0571,-3.35377,0.27345,0.8307
501.605,55.11616,-3.35387,0.27277,0.83023
502.205,55.1753,-3.35508,0.27241,0.82975
502.805,55.23449,-3.35508,0.27098,0.82927
503.405,55.29393,-3.35508,0.27469,0.8288
504.005,55.3533,-3.35508,0.27422,0.82832
504.605,55.41259,-3.35638,0.27258,0.82784
505.205,55.4718,-3.35772,0.27339,0.82736
505.805,55.53086,-3.35772,0.27173,0.82688
506.405,55.58985,-3.35772,0.27119,0.8264
507.005,55.64878,-3.35772,0.27115,0.82592
507.605,55.7081,-3.35772,0.27222,0.82544
508.205,55.76716,-3.35772,0.27198,0.82496
508.805,55.82643,-3.35908,0.27272,0.82448
509.405,55.8855,-3.36036,0.2739,0.824
510.005,55.94461,-3.3597,0.27249,0.82352
510.605,56.0039,-3.3597,0.27187,0.82303
511.205,56.0632,-3.35967,0.27354,0.82255
511.805,56.12231,-3.36102,0.27204,0.82207
512.405,56.1815,-3.36065,0.27234,0.82159
513.005,56.24066,-3.36201,0.27112,0.8211
513.605,56.30004,-3.36102,0.27031,0.82062
514.205,56.35932,-3.36102,0.26953,0.82013
514.805,56.4186,-3.3617,0.27164,0.81965
515.405,56.4779,-3.3616,0.27218,0.81916
516.005,56.5372,-3.36295,0.26903,0.81868
516.605,56.59638,-3.36431,0.26868,0.81819
517.205,56.65563,-3.36431,0.26853,0.81771
517.805,56.71501,-3.36431,0.2665,0.81722
518.405,56.7744,-3.36568,0.26735,0.81673
519.005,56.834,-3.36563,0.26624,0.81624
519.605,56.89357,-3.36493,0.26541,0.81576
520.205,56.95319,-3.36425,0.26468,0.81527
520.805,57.0126,-3.36563,0.26471,0.81478
521.405,57.07205,-3.36492,0.26582,0.81429
522.005,57.1315,-3.36596,0.26417,0.8138
522.605,57.1909,-3.36596,0.26137,0.81331
523.205,57.2504,-3.36596,0.26001,0.81282
523.805,57.3096,-3.36595,0.25881,0.81233
524.405,57.36897,-3.36728,0.25416,0.81184
525.005,57.42821,-3.36728,0.25386,0.81135
525.605,57.4875,-3.36721,0.2522,0.81086
526.205,57.54713,-3.36727,0.24989,0.81037
526.805,57.60645,-3.36863,0.25082,0.80987
527.405,57.6659,-3.36931,0.24703,0.80938
528.005,57.7254,-3.36925,0.24584,0.80889
528.605,57.78487,-3.37009,0.24419,0.8084
529.205,57.8444,-3.37057,0.24315,0.8079
529.805,57.90405,-3.37143,0.2408,0.80741
530.405,57.9636,-3.37156,0.2386,0.80691
531.005,58.0231,-3.37155,0.23645,0.80642
531.605,58.08251,-3.37024,0.23468,0.80593
532.205,58.1417,-3.37024,0.23504,0.80543
532.805,58.20097,-3.37026,0.23577,0.80493
533.405,58.2604,-3.37057,0.23691,0.80444
534.005,58.3199,-3.37057,0.23323,0.80394
534.605,58.3795,-3.37058,0.23426,0.80345
535.205,58.43897,-3.37188,0.23349,0.80295
535.805,58.49853,-3.37188,0.23318,0.80245
536.405,58.55791,-3.37319,0.23315,0.80195
537.005,58.61745,-3.37355,0.23127,0.80145
537.605,58.67683,-3.37353,0.23109,0.80096
538.205,58.73614,-3.37353,0.22853,0.80046
538.805,58.7955,-3.37353,0.23012,0.79996
539.405,58.8548,-3.37353,0.22915,0.79946
540.005,58.91423,-3.37366,0.22652,0.79896
540.605,58.9737,-3.37382,0.22764,0.79846
541.205,59.03318,-3.37518,0.22586,0.79796
541.805,59.0928,-3.37518,0.22486,0.79746
542.405,59.15225,-3.37554,0.22709,0.79696
543.005,59.21175,-3.37551,0.22478,0.79645
543.605,59.2713,-3.37685,0.22409,0.79595
544.205,59.3309,-3.37682,0.22503,0.79545
544.805,59.39045,-3.37682,0.22454,0.79495
545.405,59.45,-3.37814,0.22352,0.79444
546.005,59.5096,-3.37684,0.22174,0.79394
546.605,59.56915,-3.37687,0.22068,0.79344
547.205,59.62863,-3.37583,0.22077,0.79293
547.805,59.6882,-3.37714,0.22316,0.79243
548.405,59.7474,-3.37759,0.22106,0.79192
549.005,59.8073,-3.3798,0.22216,0.79142
549.605,59.8673,-3.37847,0.21987,0.79091
550.205,59.9271,-3.37847,0.22162,0.79041
550.805,59.98656,-3.37979,0.22096,0.7899
551.405,60.0458,-3.3788,0.21884,0.7894
552.005,60.1049,-3.3788,0.219,0.78889
552.605,60.1644,-3.38002,0.21963,0.78838
553.205,60.22399,-3.38011,0.21959,0.78787
553.805,60.28399,-3.38011,0.22002,0.78737
554.405,60.34386,-3.38144,0.22105,0.78686
555.005,60.40351,-3.38174,0.21877,0.78635
555.605,60.46298,-3.38153,0.2208,0.78584
556.205,60.52245,-3.38143,0.22121,0.78533
556.805,60.5822,-3.38143,0.21924,0.78482
557.405,60.6419,-3.38279,0.22245,0.78431
558.005,60.70185,-3.38275,0.21775,0.7838
558.605,60.7614,-3.38145,0.2196,0.78329
559.205,60.8211,-3.38144,0.22023,0.78278
559.805,60.8808,-3.38144,0.21902,0.78227
560.405,60.9405,-3.38144,0.21989,0.78176
561.005,61.00026,-3.38144,0.22046,0.78125
561.605,61.0599,-3.38276,0.22133,0.78074
562.205,61.11962,-3.3834,0.2207,0.78022
562.805,61.17944,-3.38538,0.21993,0.77971
563.405,61.2393,-3.38538,0.22004,0.7792
564.005,61.2988,-3.38415,0.2197,0.77869
564.605,61.3583,-3.38539,0.22248,0.77817
565.205,61.4172,-3.38539,0.21947,0.77766
565.805,61.4767,-3.38539,0.22228,0.77714
566.405,61.5367,-3.38539,0.22395,0.77663
567.005,61.5967,-3.38656,0.22206,0.77611
567.605,61.6569,-3.38672,0.22414,0.7756
568.205,61.71646,-3.38737,0.22669,0.77508
568.805,61.77612,-3.38737,0.22473,0.77457
569.405,61.83589,-3.38641,0.22529,0.77405
570.005,61.8956,-3.38604,0.22521,0.77353
570.605,61.9553,-3.38801,0.22394,0.77302
571.205,62.015,-3.38803,0.22252,0.7725
571.805,62.0746,-3.38803,0.22125,0.77198
572.405,62.13436,-3.38666,0.21952,0.77147
573.005,62.19413,-3.38671,0.22258,0.77095
573.605,62.2539,-3.38807,0.22061,0.77043
574.205,62.3137,-3.38802,0.21908,0.76991
574.805,62.3735,-3.38802,0.22171,0.76939
575.405,62.433,-3.38802,0.2193,0.76887
576.005,62.49285,-3.38802,0.22174,0.76835
576.605,62.5527,-3.38803,0.21858,0.76783
577.205,62.6127,-3.38934,0.2202,0.76731
577.805,62.67261,-3.38934,0.22083,0.76679
578.405,62.7322,-3.38922,0.22011,0.76627
579.005,62.79184,-3.39001,0.2201,0.76575
579.605,62.8515,-3.39,0.22024,0.76523
580.205,62.91143,-3.39,0.2201,0.76471
580.805,62.97147,-3.39,0.21902,0.76418
581.405,63.03139,-3.39137,0.21968,0.76366
582.005,63.0913,-3.39066,0.21742,0.76314
582.605,63.15079,-3.38933,0.21833,0.76262
583.205,63.21059,-3.38933,0.21844,0.76209
583.805,63.2707,-3.38933,0.21945,0.76157
584.405,63.3308,-3.39065,0.21877,0.76104
585.005,63.39122,-3.39197,0.21973,0.76052
585.605,63.45106,-3.39197,0.21849,0.76
586.205,63.5107,-3.39092,0.22155,0.75947
586.805,63.57068,-3.39065,0.2189,0.75895
587.405,63.63066,-3.39196,0.21808,0.75842
588.005,63.69047,-3.39199,0.2205,0.75789
588.605,63.75019,-3.39197,0.22187,0.75737
589.205,63.81005,-3.39065,0.22228,0.75684
589.805,63.87005,-3.39065,0.22193,0.75631
590.405,63.93,-3.39197,0.22006,0.75579
591.005,63.99,-3.39197,0.22299,0.75526
591.605,64.04978,-3.39395,0.22265,0.75473
592.205,64.10955,-3.39494,0.22453,0.75421
592.805,64.16955,-3.39363,0.22597,0.75368
593.405,64.2295,-3.39363,0.22476,0.75315
594.005,64.28944,-3.39363,0.22841,0.75262
594.605,64.3493,-3.39494,0.22755,0.75209
595.205,64.40934,-3.39494,0.2317,0.75156
595.805,64.46924,-3.39498,0.2317,0.75103
596.405,64.5291,-3.39361,0.22817,0.7505
597.005,64.58879,-3.39395,0.22886,0.74997
597.605,64.64855,-3.3953,0.22732,0.74944
598.205,64.7085,-3.39527,0.22882,0.74891
598.805,64.76833,-3.39527,0.23049,0.74838
599.405,64.82822,-3.39527,0.22944,0.74785
600.005,64.88806,-3.39526,0.22713,0.74732
600.605,64.94802,-3.39427,0.22777,0.74678
601.205,65.00802,-3.39495,0.2291,0.74625
601.805,65.06786,-3.39494,0.2318,0.74572
602.405,65.1278,-3.39494,0.22953,0.74519
603.005,65.18782,-3.39488,0.2315,0.74465
603.605,65.248,-3.39585,0.23282,0.74412
604.205,65.30796,-3.39626,0.23398,0.74359
604.805,65.36793,-3.39626,0.23359,0.74305
605.405,65.42794,-3.39625,0.23573,0.74252
606.005,65.48796,-3.39593,0.23799,0.74199
606.605,65.54796,-3.39593,0.23726,0.74145
607.205,65.60791,-3.39592,0.2398,0.74092
607.805,65.6678,-3.39724,0.24073,0.74038
608.405,65.7279,-3.39724,0.24272,0.73984
609.005,65.78806,-3.39726,0.24239,0.73931
609.605,65.84798,-3.39856,0.2413,0.73877
610.205,65.908,-3.39856,0.23847,0.73824
610.805,65.96776,-3.39855,0.24124,0.7377
611.405,66.0277,-3.39724,0.24195,0.73716
612.005,66.0877,-3.39722,0.23997,0.73663
612.605,66.14748,-3.3966,0.23832,0.73609
613.205,66.20749,-3.3979,0.24185,0.73555
613.805,66.26748,-3.3979,0.24097,0.73501
614.405,66.32763,-3.39866,0.2398,0.73447
615.005,66.38786,-3.39922,0.24083,0.73394
615.605,66.4478,-3.39922,0.24304,0.7334
616.205,66.50766,-3.39981,0.24364,0.73286
616.805,66.5676,-3.39922,0.24285,0.73232
617.405,66.6275,-3.39922,0.24353,0.73178
618.005,66.6875,-3.40021,0.24466,0.73124
618.605,66.74763,-3.40021,0.24534,0.7307
619.205,66.80776,-3.40021,0.24405,0.73016
619.805,66.8678,-3.40022,0.24281,0.72962
620.405,66.92787,-3.40054,0.2451,0.72908
621.005,66.98805,-3.40054,0.24401,0.72854
621.605,67.04816,-3.3992,0.24423,0.72799
622.205,67.10837,-3.39922,0.24462,0.72745
622.805,67.16853,-3.40053,0.24524,0.72691
623.405,67.2287,-3.40053,0.24424,0.72637
624.005,67.28895,-3.40053,0.24627,0.72583
624.605,67.34917,-3.40053,0.2449,0.72528
625.205,67.4093,-3.40119,0.24794,0.72474
625.805,67.46931,-3.40119,0.24495,0.7242
626.405,67.52931,-3.4012,0.25053,0.72365
627.005,67.58967,-3.40086,0.2511,0.72311
627.605,67.64968,-3.40152,0.25075,0.72257
628.205,67.7098,-3.40284,0.25439,0.72202
628.805,67.76997,-3.40284,0.25406,0.72148
629.405,67.83009,-3.40284,0.25742,0.72093
630.005,67.89017,-3.40284,0.25498,0.72039
630.605,67.95012,-3.40284,0.25834,0.71984
631.205,68.01002,-3.40416,0.25721,0.7193
631.805,68.07002,-3.40416,0.25741,0.71875
632.405,68.13011,-3.40416,0.25867,0.71821
633.005,68.19018,-3.40416,0.25806,0.71766
633.605,68.25019,-3.40284,0.262,0.71711
634.205,68.31003,-3.40284,0.26378,0.71657
634.805,68.36978,-3.40416,0.26132,0.71602
635.405,68.42951,-3.40416,0.26476,0.71547
636.005,68.48939,-3.40548,0.26464,0.71492
636.605,68.5497,-3.40546,0.2662,0.71438
637.205,68.61,-3.40351,0.26773,0.71383
637.805,68.67041,-3.40351,0.2664,0.71328
638.405,68.73056,-3.40351,0.27049,0.71273
639.005,68.79053,-3.40354,0.26813,0.71218
639.605,68.85064,-3.40482,0.27121,0.71164
640.205,68.91076,-3.40614,0.27127,0.71109
640.805,68.97086,-3.40614,0.27194,0.71054
641.405,69.03101,-3.40507,0.27308,0.70999
642.005,69.09101,-3.40445,0.27594,0.70944
642.605,69.1511,-3.40416,0.27723,0.70889
643.205,69.21123,-3.40416,0.27622,0.70834
643.805,69.2715,-3.40416,0.27758,0.70779
644.405,69.33161,-3.40523,0.28068,0.70724
645.005,69.3917,-3.40651,0.28115,0.70669
645.605,69.45187,-3.40596,0.2794,0.70613
646.205,69.5119,-3.40648,0.28262,0.70558
646.805,69.572,-3.40647,0.28152,0.70503
647.405,69.63204,-3.40647,0.28156,0.70448
648.005,69.69215,-3.40593,0.28094,0.70393
648.605,69.7523,-3.40515,0.28393,0.70337
649.205,69.8125,-3.40515,0.28462,0.70282
649.805,69.87271,-3.40603,0.28353,0.70227
650.405,69.93296,-3.40646,0.28313,0.70172
651.005,69.99305,-3.40646,0.28258,0.70116
651.605,70.0532,-3.40646,0.28479,0.70061
652.205,70.1133,-3.40646,0.28431,0.70006
652.805,70.1735,-3.40646,0.28321,0.6995
653.405,70.23374,-3.40646,0.28301,0.69895
654.005,70.29393,-3.40646,0.28619,0.69839
654.605,70.3543,-3.40646,0.2835,0.69784
655.205,70.41422,-3.40745,0.28401,0.69728
655.805,70.47444,-3.40709,0.28862,0.69673
656.405,70.5346,-3.40815,0.28542,0.69617
657.005,70.59453,-3.40844,0.28736,0.69562
657.605,70.6546,-3.40846,0.28879,0.69506
658.205,70.71462,-3.40778,0.29329,0.69451
658.805,70.77458,-3.40629,0.29178,0.69395
659.405,70.83533,-3.40775,0.29265,0.6934
660.005,70.8958,-3.4091,0.29481,0.69284
660.605,70.95617,-3.4091,0.29178,0.69228
661.205,71.0167,-3.40975,0.29344,0.69173
661.805,71.07723,-3.40866,0.29414,0.69117
662.405,71.1375,-3.4099,0.29272,0.69061
663.005,71.19784,-3.40864,0.29636,0.69005
663.605,71.2581,-3.40986,0.29539,0.6895
664.205,71.3185,-3.41071,0.29708,0.68894
664.805,71.37869,-3.41053,0.29383,0.68838
665.405,71.43903,-3.41053,0.29481,0.68782
666.005,71.49935,-3.40925,0.29855,0.68726
666.605,71.55982,-3.40921,0.29663,0.6867
667.205,71.62018,-3.41086,0.29691,0.68615
667.805,71.68045,-3.41151,0.29912,0.68559
668.405,71.74064,-3.41021,0.30002,0.68503
669.005,71.8009,-3.4102,0.3022,0.68447
669.605,71.86129,-3.41097,0.30198,0.68391
670.205,71.9217,-3.41153,0.30249,0.68335
670.805,71.98221,-3.41119,0.30199,0.68279
671.405,72.04258,-3.41119,0.30229,0.68223
672.005,72.10291,-3.41021,0.30173,0.68167
672.605,72.1631,-3.40877,0.30333,0.68111
673.205,72.22345,-3.4101,0.30333,0.68055
673.805,72.28358,-3.41142,0.30397,0.67999
674.405,72.34395,-3.41141,0.30126,0.67942
675.005,72.40409,-3.41141,0.30217,0.67886
675.605,72.46455,-3.41141,0.29851,0.6783
676.205,72.52486,-3.41144,0.29691,0.67774
676.805,72.5851,-3.41046,0.29833,0.67718
677.405,72.6454,-3.41009,0.30032,0.67662
678.005,72.70566,-3.41009,0.3007,0.67605
678.605,72.76606,-3.41009,0.30354,0.67549
679.205,72.82637,-3.41009,0.30145,0.67493
679.805,72.88694,-3.41009,0.30413,0.67436
680.405,72.9473,-3.4101,0.30528,0.6738
681.005,73.0078,-3.41099,0.30664,0.67324
681.605,73.06822,-3.41275,0.30524,0.67268
682.205,73.12854,-3.41273,0.30327,0.67211
682.805,73.1888,-3.41075,0.30513,0.67155
683.405,73.24901,-3.41075,0.30562,0.67098
684.005,73.3091,-3.41208,0.30768,0.67042
684.605,73.36916,-3.41206,0.30902,0.66986
685.205,73.42944,-3.41206,0.30677,0.66929
685.805,73.48959,-3.41208,0.31173,0.66873
686.405,73.55023,-3.41207,0.31514,0.66816
687.005,73.61062,-3.41207,0.31449,0.6676
687.605,73.6711,-3.41206,0.31315,0.66703
688.205,73.73174,-3.41067,0.31167,0.66647
688.805,73.79176,-3.4121,0.31337,0.6659
689.405,73.85229,-3.41206,0.31427,0.66533
690.005,73.9126,-3.41209,0.31449,0.66477
690.605,73.97338,-3.41074,0.30967,0.6642
691.205,74.03387,-3.41074,0.31341,0.66364
691.805,74.09439,-3.41084,0.31304,0.66307
692.405,74.15471,-3.41075,0.31323,0.6625
693.005,74.21512,-3.41075,0.31256,0.66194
693.605,74.27582,-3.41211,0.3124,0.66137
694.205,74.3361,-3.41272,0.31388,0.6608
694.805,74.39665,-3.41271,0.31296,0.66024
695.405,74.4568,-3.4107,0.31369,0.65967
696.005,74.5171,-3.41075,0.31251,0.6591
696.605,74.57744,-3.41064,0.31579,0.65853
697.205,74.63779,-3.41075,0.31285,0.65797
697.805,74.6982,-3.41177,0.31559,0.6574
698.405,74.75856,-3.41306,0.3204,0.65683
699.005,74.81904,-3.41306,0.31789,0.65626
699.605,74.87966,-3.41306,0.31879,0.65569
700.205,74.93993,-3.41174,0.31997,0.65512
700.805,75.00044,-3.41042,0.31616,0.65456
701.405,75.06063,-3.41042,0.32023,0.65399
702.005,75.12102,-3.41042,0.32183,0.65342
702.605,75.1815,-3.41207,0.31916,0.65285
703.205,75.24189,-3.41207,0.32222,0.65228
703.805,75.30226,-3.41207,0.32119,0.65171
704.405,75.36283,-3.41207,0.32418,0.65114
705.005,75.42354,-3.41207,0.32477,0.65057
705.605,75.48433,-3.41221,0.3263,0.65
706.205,75.54488,-3.41239,0.32269,0.64943
706.805,75.60534,-3.41368,0.32243,0.64886
707.405,75.66564,-3.41239,0.32234,0.64829
708.005,75.726,-3.41239,0.3241,0.64772
708.605,75.78645,-3.41249,0.32554,0.64715
709.205,75.84684,-3.41107,0.32419,0.64658
709.805,75.9075,-3.41106,0.32853,0.64601
710.405,75.96799,-3.41239,0.32782,0.64544
711.005,76.02855,-3.41239,0.32767,0.64486
711.605,76.0891,-3.41371,0.32327,0.64429
712.205,76.14971,-3.41371,0.32572,0.64372
712.805,76.21014,-3.41239,0.32504,0.64315
713.405,76.27074,-3.41239,0.32681,0.64258
714.005,76.33123,-3.41135,0.32396,0.64201
714.605,76.39186,-3.41141,0.3272,0.64144
715.205,76.45243,-3.41141,0.32691,0.64086
715.805,76.51302,-3.41141,0.32593,0.64029
716.405,76.57377,-3.41141,0.32916,0.63972
717.005,76.63444,-3.4127,0.32919,0.63915
717.605,76.6951,-3.41273,0.33154,0.63857
718.205,76.75561,-3.41273,0.33071,0.638
718.805,76.8161,-3.41273,0.32896,0.63743
719.405,76.8766,-3.41273,0.33146,0.63685
720.005,76.93701,-3.41273,0.33024,0.63628
720.605,76.99718,-3.41273,0.32755,0.63571
721.205,77.05775,-3.41273,0.32873,0.63513
721.805,77.11837,-3.41273,0.3279,0.63456
722.405,77.17928,-3.41403,0.33273,0.63399
723.005,77.24,-3.41405,0.33244,0.63341
723.605,77.3005,-3.41273,0.33114,0.63284
724.205,77.36118,-3.41274,0.33219,0.63227
724.805,77.42172,-3.41503,0.33187,0.63169
725.405,77.48244,-3.41498,0.33219,0.63112
726.005,77.54292,-3.41634,0.33191,0.63054
726.605,77.6035,-3.41602,0.3329,0.62997
727.205,77.66413,-3.41501,0.3334,0.62939
727.805,77.72465,-3.41503,0.3361,0.62882
728.405,77.78516,-3.41503,0.33434,0.62825
729.005,77.84544,-3.41503,0.33664,0.62767
729.605,77.9057,-3.41503,0.33649,0.6271
730.205,77.96614,-3.41404,0.33669,0.62652
730.805,78.02664,-3.41404,0.33538,0.62595
731.405,78.08704,-3.41272,0.33514,0.62537
732.005,78.1476,-3.41289,0.33416,0.62479
732.605,78.20818,-3.41404,0.33445,0.62422
733.205,78.26872,-3.41402,0.33834,0.62364
733.805,78.32949,-3.41437,0.33489,0.62307
734.405,78.38993,-3.41536,0.33522,0.62249
735.005,78.4504,-3.41536,0.33492,0.62192
735.605,78.51105,-3.41536,0.33779,0.62134
736.205,78.57155,-3.41536,0.3377,0.62076
736.805,78.6323,-3.41534,0.33948,0.62019
737.405,78.69304,-3.41404,0.34009,0.61961
738.005,78.7539,-3.41438,0.33753,0.61903
738.605,78.81482,-3.41536,0.33633,0.61846
739.205,78.8758,-3.41599,0.33612,0.61788
739.805,78.93669,-3.41569,0.3413,0.6173
740.405,78.99736,-3.41569,0.33943,0.61673
741.005,79.05804,-3.41624,0.34209,0.61615
741.605,79.1186,-3.41635,0.34269,0.61557
742.205,79.17905,-3.41635,0.34644,0.615
742.805,79.23998,-3.41635,0.34552,0.61442
743.405,79.30086,-3.41637,0.343,0.61384
744.005,79.36221,-3.41536,0.34164,0.61327
744.605,79.42309,-3.41538,0.34797,0.61269
745.205,79.4838,-3.41667,0.34426,0.61211
745.805,79.54442,-3.41667,0.34338,0.61153
746.405,79.60511,-3.41667,0.34598,0.61095
747.005,79.66571,-3.41726,0.34703,0.61038
747.605,79.7265,-3.41663,0.34506,0.6098
748.205,79.7872,-3.41568,0.34702,0.60922
748.805,79.84788,-3.41568,0.34646,0.60864
749.405,79.90855,-3.41566,0.34759,0.60807
750.005,79.9691,-3.41634,0.34805,0.60749
750.305,79.999,-3.41634,0.34946,0.6072