File: 01_Data/Pine_Lap_Siding/STA/N2/10K_min/Pine_Lap_Siding_STA_N2_10KData_220322_R3.csv
##Temp./Â°C,Time/min,Mass loss(subtr.2)/mg,DSC(subtr.2)/(mW/mg),Sensit./(uV/mW)
49.669,10.01,-0.00219,0.01350767,1.07517
50.369,10.7597,9.88996e-06,0.04623416,1.07481
51.069,10.96224,-0.002647354,0.07190531,1.07444
51.769,11.11198,-0.002613408,0.08965947,1.07408
52.469,11.23986,-0.002300085,0.10799,1.07371
53.169,11.35545,-0.002227503,0.12346,1.07335
53.869,11.4611,-0.002733776,0.13659,1.07298
54.569,11.55969,-0.00332737,0.14758,1.07262
55.269,11.65377,-0.001960295,0.15729,1.07225
55.969,11.74499,-0.002442529,0.16778,1.07189
56.669,11.83341,-0.00453968,0.17375,1.07153
57.369,11.91935,-0.004753459,0.18232,1.07116
58.069,12.00329,-0.004056085,0.18907,1.0708
58.769,12.08566,-0.003428309,0.19536,1.07043
59.469,12.16666,-0.00469726,0.1988,1.07007
60.169,12.24661,-0.00335708,0.20471,1.06971
60.869,12.3261,-0.004724345,0.20705,1.06934
61.569,12.40523,-0.004372038,0.21265,1.06898
62.269,12.48375,-0.004863125,0.21732,1.06862
62.969,12.56155,-0.005588516,0.22238,1.06825
63.669,12.63913,-0.0046822,0.22407,1.06789
64.369,12.7161,-0.004715887,0.23047,1.06752
65.069,12.7925,-0.00589517,0.23115,1.06716
65.769,12.86842,-0.005821304,0.23476,1.0668
66.469,12.94438,-0.004939805,0.23715,1.06644
67.169,13.0201,-0.00602436,0.2425,1.06607
67.869,13.09562,-0.0060401,0.24383,1.06571
68.569,13.171,-0.006036709,0.24576,1.06535
69.269,13.2463,-0.00738857,0.24873,1.06498
69.969,13.32081,-0.006325334,0.2527,1.06462
70.669,13.3954,-0.007641312,0.25311,1.06426
71.369,13.4696,-0.007359364,0.25824,1.0639
72.069,13.54408,-0.00874946,0.26096,1.06353
72.769,13.61834,-0.0086694,0.26364,1.06317
73.469,13.69232,-0.008179654,0.26532,1.06281
74.169,13.76583,-0.008977449,0.26498,1.06245
74.869,13.83932,-0.009980496,0.2715,1.06208
75.569,13.9128,-0.009977102,0.27355,1.06172
76.269,13.9862,-0.01061317,0.27575,1.06136
76.969,14.05919,-0.009951308,0.27641,1.061
77.669,14.13189,-0.00997302,0.27974,1.06064
78.369,14.20418,-0.01090042,0.28011,1.06027
79.069,14.2767,-0.01031007,0.27961,1.05991
79.769,14.3491,-0.01031008,0.28354,1.05955
80.469,14.42141,-0.0100421,0.28498,1.05919
81.169,14.49345,-0.009983245,0.28796,1.05883
81.869,14.56535,-0.00998339,0.28777,1.05847
82.569,14.63729,-0.01130027,0.28891,1.05811
83.269,14.7089,-0.01130009,0.28934,1.05774
83.969,14.78025,-0.01130468,0.28753,1.05738
84.669,14.8514,-0.01172403,0.28996,1.05702
85.369,14.92259,-0.01163919,0.28867,1.05666
86.069,14.9939,-0.01199854,0.28976,1.0563
86.769,15.06516,-0.01327989,0.29043,1.05594
87.469,15.13609,-0.01426027,0.29057,1.05558
88.169,15.20696,-0.01462499,0.29105,1.05522
88.869,15.27755,-0.01393986,0.28842,1.05486
89.569,15.3483,-0.01297095,0.29109,1.0545
90.269,15.41879,-0.01296484,0.28787,1.05414
90.969,15.48926,-0.01518422,0.28725,1.05378
91.669,15.5595,-0.01558,0.28647,1.05342
92.369,15.62955,-0.01557983,0.2842,1.05305
93.069,15.69948,-0.01553813,0.28557,1.05269
93.769,15.76917,-0.0165641,0.28594,1.05233
94.469,15.8388,-0.01525008,0.28161,1.05197
95.169,15.90802,-0.01658024,0.28348,1.05161
95.869,15.9774,-0.01583101,0.28105,1.05125
96.569,16.04705,-0.01525079,0.28134,1.0509
97.269,16.11672,-0.01687957,0.28204,1.05054
97.969,16.18611,-0.01765584,0.27972,1.05018
98.669,16.2551,-0.01749302,0.27791,1.04982
99.369,16.3242,-0.01622307,0.27818,1.04946
100.069,16.3933,-0.01619906,0.27736,1.0491
100.769,16.46226,-0.01689141,0.27464,1.04874
101.469,16.5312,-0.01689,0.27623,1.04838
102.169,16.59992,-0.01689023,0.27513,1.04802
102.869,16.66881,-0.01624029,0.27472,1.04766
103.569,16.7376,-0.01624,0.27126,1.0473
104.269,16.80627,-0.01624192,0.27066,1.04694
104.969,16.8749,-0.01754826,0.2714,1.04658
105.669,16.94352,-0.01754866,0.27086,1.04623
106.369,17.01207,-0.01623434,0.26985,1.04587
107.069,17.0807,-0.01688134,0.27096,1.04551
107.769,17.14896,-0.01755003,0.27084,1.04515
108.469,17.2175,-0.01634426,0.26717,1.04479
109.169,17.28601,-0.01756294,0.26987,1.04443
109.869,17.35465,-0.01755999,0.26718,1.04407
110.569,17.42298,-0.0176184,0.26659,1.04372
111.269,17.49159,-0.01733542,0.26731,1.04336
111.969,17.55995,-0.01755012,0.26512,1.043
112.669,17.62862,-0.01623903,0.26627,1.04264
113.369,17.69708,-0.01672021,0.26822,1.04228
114.069,17.76589,-0.01821564,0.26697,1.04193
114.769,17.8342,-0.01820999,0.26742,1.04157
115.469,17.90267,-0.01761856,0.26663,1.04121
116.169,17.971,-0.01821295,0.26813,1.04085
116.869,18.03925,-0.01687692,0.26735,1.0405
117.569,18.10738,-0.01688955,0.26807,1.04014
118.269,18.17549,-0.01821618,0.26622,1.03978
118.969,18.24365,-0.01803484,0.26726,1.03942
119.669,18.3121,-0.01689006,0.26724,1.03907
120.369,18.3801,-0.01656148,0.27088,1.03871
121.069,18.4483,-0.01693099,0.27009,1.03835
121.769,18.51642,-0.01689999,0.27229,1.03799
122.469,18.58473,-0.0169,0.2717,1.03764
123.169,18.6526,-0.01687668,0.27179,1.03728
123.869,18.7205,-0.01689105,0.2727,1.03692
124.569,18.7882,-0.01821129,0.27229,1.03657
125.269,18.85615,-0.01810518,0.27339,1.03621
125.969,18.924,-0.01795211,0.27395,1.03585
126.669,18.9919,-0.01789,0.27626,1.0355
127.369,19.05985,-0.01789,0.27481,1.03514
128.069,19.12773,-0.01788913,0.27616,1.03478
128.769,19.19556,-0.01658213,0.27621,1.03443
129.469,19.26274,-0.01668743,0.27599,1.03407
130.169,19.33049,-0.0175187,0.27726,1.03371
130.869,19.3982,-0.01820847,0.27675,1.03336
131.569,19.46655,-0.01725891,0.27828,1.033
132.269,19.5345,-0.0171818,0.27853,1.03265
132.969,19.60247,-0.01762057,0.27917,1.03229
133.669,19.6704,-0.01788,0.27791,1.03193
134.369,19.7383,-0.01788,0.27985,1.03158
135.069,19.80609,-0.01683621,0.27827,1.03122
135.769,19.8739,-0.01844429,0.27768,1.03087
136.469,19.94184,-0.01754412,0.27957,1.03051
137.169,20.00957,-0.01754984,0.28016,1.03015
137.869,20.07733,-0.01721211,0.28007,1.0298
138.569,20.14491,-0.01853877,0.28292,1.02944
139.269,20.2124,-0.01722167,0.28353,1.02909
139.969,20.2799,-0.01722024,0.28253,1.02873
140.669,20.3471,-0.01590779,0.28439,1.02838
141.369,20.41431,-0.01591081,0.28631,1.02802
142.069,20.4816,-0.01722013,0.28599,1.02767
142.769,20.54925,-0.01726771,0.28697,1.02731
143.469,20.6171,-0.01590997,0.28623,1.02696
144.169,20.68451,-0.01602598,0.28815,1.0266
144.869,20.75167,-0.01720625,0.28929,1.02625
145.569,20.81895,-0.01721999,0.2896,1.02589
146.269,20.88639,-0.01731618,0.2915,1.02554
146.969,20.9539,-0.01591037,0.29482,1.02518
147.669,21.02135,-0.01458559,0.29294,1.02483
148.369,21.08878,-0.01590862,0.29213,1.02447
149.069,21.15633,-0.01707718,0.29503,1.02412
149.769,21.22371,-0.01625028,0.29691,1.02376
150.469,21.29119,-0.01755212,0.2966,1.02341
151.169,21.3586,-0.01755997,0.2984,1.02305
151.869,21.42596,-0.01720195,0.29604,1.0227
152.569,21.4934,-0.01585826,0.29845,1.02234
153.269,21.56072,-0.01591,0.29973,1.02199
153.969,21.62815,-0.01592992,0.29938,1.02163
154.669,21.69557,-0.01721988,0.3013,1.02128
155.369,21.76303,-0.0172244,0.30244,1.02093
156.069,21.8305,-0.01590987,0.30341,1.02057
156.769,21.89786,-0.01590999,0.30355,1.02022
157.469,21.96503,-0.01597015,0.30433,1.01986
158.169,22.03229,-0.01657052,0.30379,1.01951
158.869,22.09949,-0.01656989,0.30504,1.01915
159.569,22.1668,-0.01661995,0.30573,1.0188
160.269,22.2337,-0.01724492,0.30811,1.01845
160.969,22.30065,-0.01722,0.30867,1.01809
161.669,22.36787,-0.01722,0.31236,1.01774
162.369,22.43526,-0.01725395,0.31213,1.01739
163.069,22.50281,-0.01689005,0.31292,1.01703
163.769,22.56982,-0.01689132,0.31159,1.01668
164.469,22.6369,-0.01754621,0.31579,1.01632
165.169,22.70393,-0.01757768,0.31414,1.01597
165.869,22.77111,-0.01722003,0.31459,1.01562
166.569,22.83839,-0.01722029,0.31698,1.01526
167.269,22.90549,-0.02328514,0.32071,1.01491
167.969,22.9724,-0.02688244,0.31862,1.01456
168.669,23.0392,-0.02547438,0.32341,1.0142
169.369,23.1058,-0.02259404,0.32334,1.01385
170.069,23.1729,-0.02116822,0.3234,1.01349
170.769,23.24001,-0.01853959,0.32511,1.01314
171.469,23.30735,-0.01923375,0.32177,1.01279
172.169,23.37429,-0.015736,0.3231,1.01243
172.869,23.44107,-0.01360094,0.32244,1.01208
173.569,23.50795,-0.0136,0.32153,1.01173
174.269,23.57478,-0.0136,0.32571,1.01137
174.969,23.64157,-0.0136,0.32487,1.01102
175.669,23.70841,-0.0136001,0.32774,1.01067
176.369,23.77546,-0.01577719,0.32844,1.01032
177.069,23.8426,-0.01624004,0.32888,1.00996
177.769,23.9096,-0.01624,0.32873,1.00961
178.469,23.97634,-0.01624001,0.32692,1.00926
179.169,24.04306,-0.01618117,0.33061,1.0089
179.869,24.1097,-0.01887505,0.33005,1.00855
180.569,24.17665,-0.01886973,0.33375,1.0082
181.269,24.2436,-0.02024133,0.33418,1.00784
181.969,24.3107,-0.02019,0.33448,1.00749
182.669,24.37739,-0.02018999,0.33606,1.00714
183.369,24.44426,-0.02029274,0.33429,1.00679
184.069,24.5111,-0.02083419,0.33351,1.00643
184.769,24.57803,-0.01788677,0.33403,1.00608
185.469,24.6451,-0.01490897,0.33527,1.00573
186.169,24.7119,-0.01269565,0.33357,1.00537
186.869,24.7789,-0.007575157,0.33263,1.00502
187.569,24.84595,-0.007460901,0.33417,1.00467
188.269,24.91305,-0.008816596,0.33512,1.00432
188.969,24.97974,-0.01174386,0.33557,1.00396
189.669,25.04637,-0.01436402,0.33776,1.00361
190.369,25.11307,-0.01633019,0.33758,1.00326
191.069,25.18,-0.01701015,0.33886,1.0029
191.769,25.2469,-0.01625636,0.34021,1.00255
192.469,25.31369,-0.01766004,0.34002,1.0022
193.169,25.3806,-0.01765929,0.33837,1.00185
193.869,25.44745,-0.01897905,0.34117,1.00149
194.569,25.5143,-0.01898,0.34442,1.00114
195.269,25.58098,-0.01898,0.34263,1.00079
195.969,25.6474,-0.01898,0.34666,1.00044
196.669,25.71422,-0.01898094,0.34277,1.00008
197.369,25.7808,-0.01995816,0.34374,0.99973
198.069,25.84829,-0.01996,0.34476,0.99938
198.769,25.91512,-0.01996,0.34732,0.99902
199.469,25.98236,-0.01995114,0.34708,0.99867
200.169,26.0491,-0.02128021,0.34888,0.99832
200.869,26.11594,-0.02128,0.34847,0.99797
201.569,26.18291,-0.02128008,0.34871,0.99761
202.269,26.2498,-0.02225687,0.35161,0.99726
202.969,26.31687,-0.02201202,0.35281,0.99691
203.669,26.38356,-0.02056811,0.35129,0.99656
204.369,26.45035,-0.02062,0.3522,0.9962
205.069,26.51708,-0.02061573,0.35464,0.99585
205.769,26.5838,-0.02498247,0.35466,0.9955
206.469,26.6505,-0.02332301,0.35589,0.99515
207.169,26.71698,-0.0210578,0.35561,0.99479
207.869,26.78345,-0.02135121,0.35661,0.99444
208.569,26.85009,-0.02237999,0.35688,0.99409
209.269,26.91672,-0.02366973,0.35614,0.99373
209.969,26.9839,-0.0237,0.35682,0.99338
210.669,27.05061,-0.0237,0.35848,0.99303
211.369,27.11747,-0.02369998,0.35713,0.99268
212.069,27.18405,-0.02390017,0.36039,0.99232
212.769,27.25072,-0.02500997,0.3613,0.99197
213.469,27.3173,-0.02500986,0.35796,0.99162
214.169,27.3841,-0.02372742,0.36029,0.99127
214.869,27.45063,-0.0257219,0.3637,0.99091
215.569,27.5176,-0.02632996,0.3655,0.99056
216.269,27.5845,-0.02638316,0.36453,0.99021
216.969,27.65173,-0.02813252,0.36323,0.98985
217.669,27.71875,-0.02895997,0.364,0.9895
218.369,27.78545,-0.02896,0.3684,0.98915
219.069,27.85227,-0.02896,0.36674,0.9888
219.769,27.9189,-0.02896,0.3682,0.98844
220.469,27.98573,-0.02896099,0.3722,0.98809
221.169,28.0526,-0.03026744,0.36924,0.98774
221.869,28.11934,-0.03028,0.37198,0.98738
222.569,28.1861,-0.03029404,0.37357,0.98703
223.269,28.2528,-0.03159831,0.37641,0.98668
223.969,28.3194,-0.03291375,0.37835,0.98632
224.669,28.386,-0.03291,0.37838,0.98597
225.369,28.4526,-0.03290998,0.37895,0.98562
226.069,28.5194,-0.03288004,0.38431,0.98527
226.769,28.5862,-0.03423016,0.38393,0.98491
227.469,28.6528,-0.03552534,0.3836,0.98456
228.169,28.7195,-0.03554985,0.3858,0.98421
228.869,28.78608,-0.03825132,0.38729,0.98385
229.569,28.85278,-0.03815554,0.38817,0.9835
230.269,28.91937,-0.03685748,0.38834,0.98315
230.969,28.9861,-0.03949603,0.38996,0.98279
231.669,29.05279,-0.0396133,0.39087,0.98244
232.369,29.11945,-0.04081001,0.3898,0.98209
233.069,29.1862,-0.04044951,0.39303,0.98173
233.769,29.25295,-0.04179346,0.39479,0.98138
234.469,29.3196,-0.04309844,0.39303,0.98103
235.169,29.38624,-0.04450259,0.39448,0.98067
235.869,29.45295,-0.04437322,0.39643,0.98032
236.569,29.5196,-0.04574002,0.39644,0.97996
237.269,29.5864,-0.04704114,0.39834,0.97961
237.969,29.65304,-0.04847548,0.39825,0.97926
238.669,29.7197,-0.04969244,0.3973,0.9789
239.369,29.7863,-0.05083487,0.40083,0.97855
240.069,29.853,-0.05100971,0.40056,0.97819
240.769,29.91977,-0.05231919,0.40298,0.97784
241.469,29.9864,-0.05237832,0.4076,0.97749
242.169,30.05316,-0.05489814,0.40534,0.97713
242.869,30.12,-0.05562074,0.40501,0.97678
243.569,30.1868,-0.0562702,0.40632,0.97642
244.269,30.25351,-0.05756589,0.40767,0.97607
244.969,30.32027,-0.05923854,0.40647,0.97572
245.669,30.3872,-0.06093472,0.40738,0.97536
246.369,30.45423,-0.06221976,0.40768,0.97501
247.069,30.52096,-0.06354416,0.40883,0.97465
247.769,30.5878,-0.06482691,0.4092,0.9743
248.469,30.6547,-0.06614725,0.40808,0.97394
249.169,30.7217,-0.06825834,0.4114,0.97359
249.869,30.78871,-0.07064692,0.41249,0.97323
250.569,30.85548,-0.07210232,0.41078,0.97288
251.269,30.92212,-0.0760526,0.41062,0.97252
251.969,30.98885,-0.07754773,0.41478,0.97217
252.669,31.0555,-0.0789338,0.41266,0.97181
253.369,31.12163,-0.081087,0.41207,0.97146
254.069,31.1883,-0.08303699,0.41474,0.9711
254.769,31.2552,-0.0858939,0.41196,0.97075
255.469,31.32275,-0.08853406,0.41229,0.97039
256.169,31.3899,-0.09104597,0.415,0.97004
256.869,31.45666,-0.0915536,0.41518,0.96968
257.569,31.52337,-0.09429406,0.41638,0.96933
258.269,31.5901,-0.09719416,0.41705,0.96897
258.969,31.65662,-0.10104,0.41684,0.96862
259.669,31.7233,-0.10229,0.42065,0.96826
260.369,31.78997,-0.10431,0.41913,0.9679
261.069,31.8567,-0.10667,0.42101,0.96755
261.769,31.92342,-0.10854,0.42148,0.96719
262.469,31.9901,-0.112,0.42102,0.96684
263.169,32.05661,-0.11558,0.42288,0.96648
263.869,32.12303,-0.11963,0.42317,0.96612
264.569,32.18971,-0.12165,0.42386,0.96577
265.269,32.2565,-0.12413,0.42322,0.96541
265.969,32.32338,-0.12663,0.42509,0.96506
266.669,32.39002,-0.1302,0.42534,0.9647
267.369,32.45681,-0.13407,0.42548,0.96434
268.069,32.52363,-0.13811,0.42602,0.96399
268.769,32.59043,-0.14219,0.42796,0.96363
269.469,32.65723,-0.14507,0.42847,0.96327
270.169,32.7241,-0.14818,0.43002,0.96291
270.869,32.7911,-0.15179,0.43206,0.96256
271.569,32.85796,-0.15601,0.43092,0.9622
272.269,32.92473,-0.15966,0.43368,0.96184
272.969,32.9914,-0.1638,0.43425,0.96149
273.669,33.0582,-0.16771,0.43759,0.96113
274.369,33.1249,-0.17244,0.43943,0.96077
275.069,33.1916,-0.17636,0.4412,0.96041
275.769,33.25835,-0.18056,0.44258,0.96005
276.469,33.3253,-0.18441,0.44233,0.9597
277.169,33.39221,-0.1896,0.44337,0.95934
277.869,33.45913,-0.1934,0.44464,0.95898
278.569,33.5259,-0.19844,0.44547,0.95862
279.269,33.5929,-0.20432,0.4486,0.95826
279.969,33.65992,-0.20939,0.44695,0.95791
280.669,33.7269,-0.21349,0.44657,0.95755
281.369,33.79385,-0.2201,0.45158,0.95719
282.069,33.86079,-0.22518,0.45165,0.95683
282.769,33.92785,-0.22856,0.45473,0.95647
283.469,33.99478,-0.23558,0.4544,0.95611
284.169,34.06151,-0.2404,0.45586,0.95575
284.869,34.12862,-0.24673,0.45778,0.95539
285.569,34.19603,-0.25174,0.45942,0.95503
286.269,34.2637,-0.25751,0.4598,0.95468
286.969,34.33093,-0.26345,0.46246,0.95432
287.669,34.39816,-0.27011,0.46414,0.95396
288.369,34.46525,-0.27705,0.46532,0.9536
289.069,34.53239,-0.28352,0.46773,0.95324
289.769,34.5995,-0.28978,0.46791,0.95288
290.469,34.66664,-0.29681,0.47252,0.95252
291.169,34.73395,-0.30391,0.47359,0.95216
291.869,34.801,-0.30977,0.4738,0.9518
292.569,34.86822,-0.31721,0.47619,0.95143
293.269,34.9353,-0.32386,0.47778,0.95107
293.969,35.00269,-0.33207,0.4806,0.95071
294.669,35.06981,-0.33946,0.47881,0.95035
295.369,35.137,-0.34784,0.48503,0.94999
296.069,35.20401,-0.35506,0.48687,0.94963
296.769,35.27135,-0.36409,0.48649,0.94927
297.469,35.33859,-0.37196,0.49049,0.94891
298.169,35.40606,-0.38086,0.4908,0.94855
298.869,35.47352,-0.38828,0.49373,0.94818
299.569,35.5409,-0.39714,0.49768,0.94782
300.269,35.60838,-0.4057,0.49943,0.94746
300.969,35.67559,-0.41435,0.50281,0.9471
301.669,35.74296,-0.42293,0.50725,0.94674
302.369,35.8099,-0.43249,0.5101,0.94637
303.069,35.87724,-0.44189,0.51203,0.94601
303.769,35.94417,-0.45273,0.5182,0.94565
304.469,36.0114,-0.46239,0.52165,0.94528
305.169,36.07862,-0.47228,0.52497,0.94492
305.869,36.146,-0.48191,0.52811,0.94456
306.569,36.21329,-0.4921,0.53027,0.94419
307.269,36.28031,-0.50331,0.53675,0.94383
307.969,36.3472,-0.51354,0.5411,0.94347
308.669,36.41428,-0.52602,0.54477,0.9431
309.369,36.4813,-0.53455,0.55034,0.94274
310.069,36.54853,-0.54585,0.55439,0.94238
310.769,36.61569,-0.55881,0.55599,0.94201
311.469,36.6829,-0.5701,0.56131,0.94165
312.169,36.75009,-0.5808,0.56512,0.94128
312.869,36.81738,-0.59361,0.57016,0.94092
313.569,36.88482,-0.60721,0.57444,0.94055
314.269,36.95228,-0.61909,0.57557,0.94019
314.969,37.01948,-0.63181,0.58118,0.93982
315.669,37.08671,-0.64595,0.58677,0.93946
316.369,37.15412,-0.65632,0.58656,0.93909
317.069,37.22152,-0.67022,0.59236,0.93873
317.769,37.28895,-0.68488,0.59683,0.93836
318.469,37.35623,-0.69771,0.60168,0.93799
319.169,37.42344,-0.71242,0.60617,0.93763
319.869,37.4908,-0.72695,0.60911,0.93726
320.569,37.55798,-0.74125,0.61471,0.93689
321.269,37.62535,-0.75513,0.61884,0.93653
321.969,37.69259,-0.77046,0.62201,0.93616
322.669,37.75977,-0.7842,0.62424,0.93579
323.369,37.82713,-0.79961,0.62951,0.93543
324.069,37.8944,-0.81504,0.63297,0.93506
324.769,37.96184,-0.8307,0.63774,0.93469
325.469,38.0293,-0.84514,0.64031,0.93432
326.169,38.09669,-0.86214,0.64105,0.93396
326.869,38.16377,-0.87928,0.64416,0.93359
327.569,38.23109,-0.89436,0.64907,0.93322
328.269,38.29831,-0.90868,0.6534,0.93285
328.969,38.3659,-0.92724,0.6553,0.93248
329.669,38.43305,-0.94389,0.65892,0.93211
330.369,38.50055,-0.95991,0.66045,0.93174
331.069,38.56777,-0.9782,0.66773,0.93137
331.769,38.63513,-0.99601,0.66854,0.931
332.469,38.7024,-1.01193,0.6715,0.93063
333.169,38.7698,-1.02904,0.67293,0.93026
333.869,38.83732,-1.04631,0.67389,0.92989
334.569,38.90475,-1.06232,0.67758,0.92952
335.269,38.97227,-1.08164,0.68085,0.92915
335.969,39.0394,-1.09901,0.68097,0.92878
336.669,39.1068,-1.1168,0.68729,0.92841
337.369,39.17422,-1.13488,0.6889,0.92804
338.069,39.24192,-1.15404,0.69312,0.92767
338.769,39.3095,-1.17228,0.6965,0.9273
339.469,39.3769,-1.18801,0.69911,0.92693
340.169,39.4444,-1.20775,0.70384,0.92655
340.869,39.51182,-1.22627,0.70623,0.92618
341.569,39.57934,-1.24433,0.70807,0.92581
342.269,39.64687,-1.26284,0.71202,0.92544
342.969,39.71436,-1.28261,0.71734,0.92506
343.669,39.78198,-1.30294,0.7207,0.92469
344.369,39.8495,-1.32083,0.72634,0.92432
345.069,39.9172,-1.34171,0.7335,0.92395
345.769,39.98462,-1.35893,0.73937,0.92357
346.469,40.0522,-1.37867,0.74342,0.9232
347.169,40.11977,-1.40008,0.7518,0.92282
347.869,40.18739,-1.41855,0.75861,0.92245
348.569,40.25507,-1.43946,0.76537,0.92208
349.269,40.3226,-1.46012,0.7731,0.9217
349.969,40.39029,-1.48075,0.77787,0.92133
350.669,40.4578,-1.50099,0.79033,0.92095
351.369,40.52557,-1.52452,0.79686,0.92058
352.069,40.5933,-1.54518,0.80738,0.9202
352.769,40.6611,-1.56658,0.81759,0.91982
353.469,40.72891,-1.58983,0.82745,0.91945
354.169,40.79679,-1.6113,0.83376,0.91907
354.869,40.86455,-1.63296,0.84437,0.9187
355.569,40.9324,-1.65699,0.85525,0.91832
356.269,41.00012,-1.68066,0.86344,0.91794
356.969,41.068,-1.70553,0.87281,0.91756
357.669,41.1359,-1.72872,0.88051,0.91719
358.369,41.20373,-1.75361,0.89092,0.91681
359.069,41.27162,-1.77765,0.90069,0.91643
359.769,41.33954,-1.80265,0.90789,0.91605
360.469,41.40766,-1.82755,0.91523,0.91568
361.169,41.47576,-1.85253,0.92072,0.9153
361.869,41.5439,-1.87844,0.92696,0.91492
362.569,41.61183,-1.90506,0.93107,0.91454
363.269,41.6798,-1.93096,0.93756,0.91416
363.969,41.7481,-1.95606,0.93796,0.91378
364.669,41.81624,-1.98426,0.9407,0.9134
365.369,41.8845,-2.01085,0.94398,0.91302
366.069,41.9525,-2.03597,0.94019,0.91264
366.769,42.02052,-2.0622,0.9384,0.91226
367.469,42.08848,-2.0892,0.93296,0.91188
368.169,42.1566,-2.11577,0.92714,0.9115
368.869,42.2248,-2.1399,0.91674,0.91112
369.569,42.293,-2.16633,0.90385,0.91073
370.269,42.36115,-2.19238,0.8924,0.91035
370.969,42.42933,-2.2167,0.87724,0.90997
371.669,42.49733,-2.24028,0.85707,0.90959
372.369,42.56541,-2.26475,0.83876,0.90921
373.069,42.63329,-2.28871,0.81608,0.90882
373.769,42.70106,-2.31046,0.79097,0.90844
374.469,42.7688,-2.33196,0.76426,0.90806
375.169,42.8366,-2.3526,0.73234,0.90767
375.869,42.9044,-2.37099,0.70098,0.90729
376.569,42.97218,-2.38973,0.66864,0.90691
377.269,43.04007,-2.40917,0.63608,0.90652
377.969,43.10799,-2.42763,0.60328,0.90614
378.669,43.1757,-2.44356,0.56763,0.90575
379.369,43.2434,-2.45912,0.53191,0.90537
380.069,43.31103,-2.47195,0.49706,0.90498
380.769,43.37871,-2.48532,0.46009,0.9046
381.469,43.44597,-2.49761,0.4268,0.90421
382.169,43.51342,-2.50782,0.39271,0.90382
382.869,43.58105,-2.52009,0.36043,0.90344
383.569,43.64904,-2.52869,0.32847,0.90305
384.269,43.71687,-2.53457,0.29799,0.90266
384.969,43.78447,-2.54246,0.26956,0.90228
385.669,43.85219,-2.54884,0.24669,0.90189
386.369,43.91973,-2.55731,0.22372,0.9015
387.069,43.98748,-2.56201,0.20129,0.90111
387.769,44.0551,-2.56477,0.18222,0.90072
388.469,44.12304,-2.56976,0.16685,0.90034
389.169,44.1909,-2.57378,0.15087,0.89995
389.869,44.25891,-2.5777,0.13795,0.89956
390.569,44.32666,-2.5815,0.12991,0.89917
391.269,44.39467,-2.58534,0.12122,0.89878
391.969,44.4627,-2.58701,0.1111,0.89839
392.669,44.5308,-2.58991,0.1056,0.898
393.369,44.59903,-2.59289,0.10003,0.89761
394.069,44.66698,-2.5946,0.09856641,0.89722
394.769,44.7352,-2.59684,0.09424675,0.89682
395.469,44.80343,-2.60009,0.08995784,0.89643
396.169,44.87177,-2.60264,0.08844577,0.89604
396.869,44.93993,-2.60395,0.0879985,0.89565
397.569,45.00802,-2.60675,0.08432023,0.89526
398.269,45.07606,-2.60845,0.08439557,0.89486
398.969,45.14407,-2.6114,0.08273341,0.89447
399.669,45.21215,-2.61336,0.0821268,0.89408
400.369,45.2801,-2.61546,0.07821651,0.89368
401.069,45.34811,-2.61623,0.07891012,0.89329
401.769,45.41608,-2.61735,0.07639909,0.8929
402.469,45.48407,-2.62124,0.07404768,0.8925
403.169,45.55222,-2.62315,0.07608643,0.89211
403.869,45.6203,-2.62415,0.07190547,0.89171
404.569,45.68846,-2.627,0.07097182,0.89132
405.269,45.7566,-2.6302,0.06853855,0.89092
405.969,45.82454,-2.6318,0.0678693,0.89052
406.669,45.89255,-2.63371,0.06436333,0.89013
407.369,45.9607,-2.63576,0.06437536,0.88973
408.069,46.02897,-2.63571,0.06619801,0.88933
408.769,46.09738,-2.63855,0.06087136,0.88894
409.469,46.1654,-2.64071,0.06056096,0.88854
410.169,46.2336,-2.64287,0.05758971,0.88814
410.869,46.3019,-2.64517,0.05527573,0.88774
411.569,46.37045,-2.64654,0.05256401,0.88734
412.269,46.43895,-2.65058,0.05230659,0.88695
412.969,46.5073,-2.65191,0.04999407,0.88655
413.669,46.57569,-2.65447,0.04904914,0.88615
414.369,46.64423,-2.65512,0.04710225,0.88575
415.069,46.71298,-2.6579,0.04529635,0.88535
415.769,46.78151,-2.65926,0.04224356,0.88495
416.469,46.85001,-2.65989,0.0398423,0.88455
417.169,46.91827,-2.66376,0.0410077,0.88414
417.869,46.98684,-2.66507,0.03644565,0.88374
418.569,47.05532,-2.66787,0.03568422,0.88334
419.269,47.124,-2.66793,0.0357424,0.88294
419.969,47.19223,-2.67058,0.03704987,0.88254
420.669,47.2606,-2.67353,0.03433041,0.88213
421.369,47.32886,-2.67613,0.03147826,0.88173
422.069,47.39703,-2.67786,0.02937061,0.88133
422.769,47.4656,-2.67774,0.02810039,0.88092
423.469,47.53407,-2.68012,0.02598937,0.88052
424.169,47.603,-2.68165,0.02689521,0.88012
424.869,47.67152,-2.68446,0.02575313,0.87971
425.569,47.7402,-2.68678,0.02620091,0.87931
426.269,47.80862,-2.68894,0.02414625,0.8789
426.969,47.8772,-2.68837,0.02207931,0.87849
427.669,47.94563,-2.69121,0.02217508,0.87809
428.369,48.01409,-2.69258,0.01867389,0.87768
429.069,48.08256,-2.6945,0.01738494,0.87728
429.769,48.15087,-2.69675,0.0177705,0.87687
430.469,48.21937,-2.69838,0.01922989,0.87646
431.169,48.28784,-2.70048,0.0189921,0.87605
431.869,48.35635,-2.70164,0.01763293,0.87565
432.569,48.42484,-2.70411,0.01612921,0.87524
433.269,48.4931,-2.70479,0.01631624,0.87483
433.969,48.56158,-2.70664,0.01750924,0.87442
434.669,48.63005,-2.70969,0.0186071,0.87401
435.369,48.69859,-2.71125,0.01885324,0.8736
436.069,48.76709,-2.7124,0.01688884,0.87319
436.769,48.83569,-2.71474,0.01894724,0.87278
437.469,48.90444,-2.71551,0.0171805,0.87237
438.169,48.97309,-2.71822,0.01690706,0.87196
438.869,49.04177,-2.71957,0.01620266,0.87155
439.569,49.1105,-2.72101,0.01683234,0.87113
440.269,49.17909,-2.72362,0.0176248,0.87072
440.969,49.24793,-2.72494,0.02031367,0.87031
441.669,49.31644,-2.72637,0.01942738,0.8699
442.369,49.3851,-2.72756,0.02064891,0.86948
443.069,49.4536,-2.72892,0.02144539,0.86907
443.769,49.52244,-2.7317,0.02121511,0.86865
444.469,49.59133,-2.7324,0.02172644,0.86824
445.169,49.66003,-2.73371,0.02185991,0.86783
445.869,49.7286,-2.73503,0.02106235,0.86741
446.569,49.79724,-2.73898,0.02326386,0.867
447.269,49.86627,-2.73908,0.02354961,0.86658
447.969,49.93542,-2.73909,0.02731475,0.86616
448.669,50.00441,-2.74035,0.02780637,0.86575
449.369,50.07333,-2.74239,0.03136497,0.86533
450.069,50.14217,-2.74313,0.03117272,0.86491
450.769,50.21135,-2.74672,0.03189436,0.86449
451.469,50.28055,-2.74797,0.03539972,0.86408
452.169,50.34968,-2.74929,0.04081777,0.86366
452.869,50.41884,-2.7506,0.03867913,0.86324
453.569,50.48791,-2.75112,0.03968149,0.86282
454.269,50.55707,-2.75227,0.04342409,0.8624
454.969,50.62605,-2.75454,0.0423237,0.86198
455.669,50.69511,-2.75479,0.04228272,0.86156
456.369,50.76419,-2.75719,0.04700331,0.86114
457.069,50.83311,-2.75745,0.04650767,0.86072
457.769,50.9021,-2.75879,0.05016387,0.8603
458.469,50.97115,-2.76157,0.05158973,0.85988
459.169,51.04052,-2.76054,0.05409231,0.85945
459.869,51.10957,-2.76126,0.05505482,0.85903
460.569,51.1785,-2.76314,0.05379989,0.85861
461.269,51.2474,-2.76474,0.05685872,0.85819
461.969,51.31649,-2.76641,0.0603463,0.85776
462.669,51.38563,-2.77017,0.05995129,0.85734
463.369,51.45451,-2.76802,0.06285903,0.85691
464.069,51.52347,-2.76892,0.06299314,0.85649
464.769,51.59245,-2.77035,0.06666802,0.85606
465.469,51.66172,-2.77298,0.06325449,0.85564
466.169,51.7309,-2.77429,0.06857524,0.85521
466.869,51.80008,-2.77463,0.06954083,0.85479
467.569,51.86905,-2.77594,0.0684452,0.85436
468.269,51.93802,-2.77729,0.07015048,0.85393
468.969,52.0069,-2.77725,0.07364693,0.85351
469.669,52.07571,-2.77779,0.07446948,0.85308
470.369,52.14465,-2.7796,0.07657343,0.85265
471.069,52.21374,-2.78006,0.07401241,0.85222
471.769,52.28294,-2.78238,0.0774172,0.85179
472.469,52.35175,-2.78252,0.07659222,0.85136
473.169,52.42078,-2.78383,0.07759423,0.85093
473.869,52.4897,-2.78515,0.07738974,0.8505
474.569,52.5588,-2.78649,0.08149976,0.85007
475.269,52.62769,-2.78638,0.07933304,0.84964
475.969,52.69681,-2.78723,0.08142882,0.84921
476.669,52.7659,-2.78775,0.08166867,0.84878
477.369,52.83518,-2.78948,0.08054158,0.84835
478.069,52.9041,-2.78943,0.08328672,0.84791
478.769,52.97297,-2.79075,0.08176121,0.84748
479.469,53.04189,-2.79187,0.08458012,0.84705
480.169,53.11108,-2.79278,0.0835657,0.84661
480.869,53.1801,-2.79272,0.08446423,0.84618
481.569,53.249,-2.79471,0.08501414,0.84574
482.269,53.31779,-2.796,0.08462924,0.84531
482.969,53.38686,-2.79551,0.08581353,0.84487
483.669,53.45596,-2.796,0.08847612,0.84444
484.369,53.5253,-2.79733,0.08670705,0.844
485.069,53.59463,-2.79998,0.08597512,0.84357
485.769,53.664,-2.79995,0.0873699,0.84313
486.469,53.7333,-2.79996,0.0886568,0.84269
487.169,53.8026,-2.80137,0.09157572,0.84225
487.869,53.8718,-2.80128,0.08962048,0.84182
488.569,53.94095,-2.80128,0.08838213,0.84138
489.269,54.01015,-2.80259,0.09141907,0.84094
489.969,54.07949,-2.80391,0.09330318,0.8405
490.669,54.1486,-2.80521,0.09177969,0.84006
491.369,54.2175,-2.80597,0.09278778,0.83962
492.069,54.2867,-2.80624,0.09495272,0.83918
492.769,54.3561,-2.80687,0.09572082,0.83874
493.469,54.42559,-2.80678,0.09498317,0.8383
494.169,54.49504,-2.80818,0.09346763,0.83785
494.869,54.5642,-2.80817,0.09710169,0.83741
495.569,54.63355,-2.81045,0.09477141,0.83697
496.269,54.7028,-2.81181,0.09742013,0.83653
496.969,54.77221,-2.81183,0.09658834,0.83608
497.669,54.84177,-2.81216,0.09608011,0.83564
498.369,54.9113,-2.81345,0.09645986,0.8352
499.069,54.9809,-2.81353,0.09812926,0.83475
499.769,55.05015,-2.81443,0.09746677,0.83431
500.469,55.1194,-2.81542,0.095964,0.83386
501.169,55.1887,-2.81638,0.09517544,0.83341
501.869,55.2581,-2.81692,0.1001,0.83297
502.569,55.32748,-2.81642,0.10195,0.83252
503.269,55.39708,-2.81756,0.10235,0.83207
503.969,55.46666,-2.81768,0.10158,0.83163
504.669,55.53631,-2.82018,0.10566,0.83118
505.369,55.60566,-2.82036,0.111,0.83073
506.069,55.6749,-2.82162,0.11031,0.83028
506.769,55.7442,-2.82037,0.11602,0.82983
507.469,55.8139,-2.82168,0.11768,0.82938
508.169,55.88366,-2.82309,0.11915,0.82893
508.869,55.95339,-2.82398,0.11989,0.82848
509.569,56.02275,-2.82463,0.1226,0.82803
510.269,56.09242,-2.8253,0.1238,0.82758
510.969,56.16209,-2.82597,0.12317,0.82713
511.669,56.23196,-2.82531,0.12941,0.82667
512.369,56.3018,-2.82661,0.12664,0.82622
513.069,56.37154,-2.82792,0.12747,0.82577
513.769,56.4412,-2.82792,0.13068,0.82531
514.469,56.51059,-2.82925,0.13114,0.82486
515.169,56.58008,-2.82959,0.13059,0.82441
515.869,56.6495,-2.82925,0.13248,0.82395
516.569,56.71892,-2.83021,0.1307,0.8235
517.269,56.78839,-2.8313,0.13543,0.82304
517.969,56.8579,-2.83321,0.13823,0.82258
518.669,56.9269,-2.83247,0.13558,0.82213
519.369,56.996,-2.83319,0.14152,0.82167
520.069,57.06539,-2.83319,0.14123,0.82121
520.769,57.1354,-2.8345,0.1425,0.82076
521.469,57.20505,-2.83453,0.14446,0.8203
522.169,57.27445,-2.83583,0.14397,0.81984
522.869,57.34372,-2.83583,0.14497,0.81938
523.569,57.4131,-2.83714,0.14417,0.81892
524.269,57.4827,-2.83846,0.14395,0.81846
524.969,57.5522,-2.83749,0.14531,0.818
525.669,57.6218,-2.83745,0.14573,0.81754
526.369,57.6912,-2.83879,0.1465,0.81708
527.069,57.7608,-2.84013,0.14363,0.81662
527.769,57.83022,-2.84142,0.14705,0.81615
528.469,57.89994,-2.8401,0.14433,0.81569
529.169,57.9696,-2.84142,0.14342,0.81523
529.869,58.0395,-2.84142,0.14055,0.81476
530.569,58.10935,-2.84271,0.14285,0.8143
531.269,58.17909,-2.84405,0.14261,0.81384
531.969,58.24866,-2.84405,0.14284,0.81337
532.669,58.31844,-2.84537,0.13665,0.81291
533.369,58.3882,-2.84636,0.13589,0.81244
534.069,58.45816,-2.84537,0.13146,0.81197
534.769,58.5279,-2.84633,0.12574,0.81151
535.469,58.59782,-2.84636,0.11952,0.81104
536.169,58.66763,-2.8467,0.11649,0.81057
536.869,58.73744,-2.848,0.1152,0.8101
537.569,58.80712,-2.84932,0.11424,0.80964
538.269,58.87687,-2.84932,0.11219,0.80917
538.969,58.94665,-2.84932,0.11015,0.8087
539.669,59.0164,-2.84935,0.10961,0.80823
540.369,59.0862,-2.84934,0.10946,0.80776
541.069,59.15588,-2.85195,0.10638,0.80729
541.769,59.22538,-2.85196,0.10743,0.80682
542.469,59.2948,-2.8514,0.10882,0.80635
543.169,59.36445,-2.85228,0.10603,0.80587
543.869,59.43419,-2.85227,0.10319,0.8054
544.569,59.50414,-2.8536,0.10585,0.80493
545.269,59.5739,-2.85457,0.10613,0.80446
545.969,59.64368,-2.85558,0.10357,0.80398
546.669,59.7133,-2.85689,0.1021,0.80351
547.369,59.78306,-2.85716,0.10272,0.80303
548.069,59.8527,-2.85776,0.10426,0.80256
548.769,59.9225,-2.85656,0.10474,0.80208
549.469,59.99239,-2.85829,0.10216,0.80161
550.169,60.0622,-2.8582,0.10307,0.80113
550.869,60.1323,-2.86019,0.10166,0.80065
551.569,60.20215,-2.86018,0.10366,0.80018
552.269,60.27221,-2.8615,0.10399,0.7997
552.969,60.3419,-2.86149,0.10273,0.79922
553.669,60.41174,-2.86149,0.10113,0.79874
554.369,60.48149,-2.86024,0.10369,0.79826
555.069,60.55149,-2.8615,0.10332,0.79778
555.769,60.6214,-2.86413,0.1,0.7973
556.469,60.6915,-2.86414,0.10136,0.79682
557.169,60.76138,-2.86544,0.10185,0.79634
557.869,60.83136,-2.86544,0.10174,0.79586
558.569,60.90121,-2.86579,0.09912024,0.79538
559.269,60.97104,-2.86577,0.10001,0.7949
559.969,61.04088,-2.86577,0.10139,0.79441
560.669,61.11082,-2.86682,0.09791499,0.79393
561.369,61.181,-2.8684,0.09978387,0.79345
562.069,61.25107,-2.8684,0.10046,0.79296
562.769,61.32116,-2.8684,0.09790346,0.79248
563.469,61.39114,-2.86915,0.0993341,0.79199
564.169,61.4611,-2.86939,0.10087,0.79151
564.869,61.5311,-2.86977,0.09672005,0.79102
565.569,61.6013,-2.87103,0.09776103,0.79054
566.269,61.67145,-2.87071,0.09873439,0.79005
566.969,61.74155,-2.87071,0.09926064,0.78956
567.669,61.81165,-2.87207,0.09694541,0.78907
568.369,61.88201,-2.87203,0.09705336,0.78859
569.069,61.9521,-2.87203,0.09744322,0.7881
569.769,62.0222,-2.87316,0.09588916,0.78761
570.469,62.0922,-2.87334,0.09685554,0.78712
571.169,62.16222,-2.8747,0.09967219,0.78663
571.869,62.2325,-2.87334,0.09727032,0.78614
572.569,62.30293,-2.87465,0.09458555,0.78565
573.269,62.3736,-2.87598,0.09252266,0.78516
573.969,62.4439,-2.87598,0.09328953,0.78467
574.669,62.5143,-2.87734,0.09666763,0.78417
575.369,62.58446,-2.87602,0.09399428,0.78368
576.069,62.65459,-2.87729,0.09305546,0.78319
576.769,62.72458,-2.87729,0.09496332,0.78269
577.469,62.7946,-2.87729,0.09631471,0.7822
578.169,62.8649,-2.8786,0.09433538,0.78171
578.869,62.93524,-2.8786,0.09212067,0.78121
579.569,63.0056,-2.8786,0.09676305,0.78072
580.269,63.0758,-2.87991,0.09412254,0.78022
580.969,63.14597,-2.88124,0.09668697,0.77972
581.669,63.2158,-2.88068,0.09513556,0.77923
582.369,63.28598,-2.88089,0.09827428,0.77873
583.069,63.3563,-2.88255,0.09611962,0.77823
583.769,63.4269,-2.88268,0.09815128,0.77773
584.469,63.4972,-2.88387,0.09384328,0.77723
585.169,63.5673,-2.88328,0.09512196,0.77674
585.869,63.6376,-2.88421,0.09743009,0.77624
586.569,63.70769,-2.88354,0.09847838,0.77574
587.269,63.778,-2.88386,0.09918225,0.77524
587.969,63.84819,-2.88521,0.09815692,0.77473
588.669,63.91836,-2.88651,0.10056,0.77423
589.369,63.9883,-2.88651,0.10058,0.77373
590.069,64.05825,-2.8865,0.09912403,0.77323
590.769,64.12815,-2.88781,0.10439,0.77273
591.469,64.19824,-2.88782,0.10422,0.77222
592.169,64.2682,-2.88782,0.10796,0.77172
592.869,64.3383,-2.88881,0.1073,0.77122
593.569,64.40804,-2.89013,0.10776,0.77071
594.269,64.47789,-2.89013,0.11018,0.77021
594.969,64.54785,-2.89013,0.10693,0.7697
595.669,64.61783,-2.89144,0.10749,0.7692
596.369,64.68786,-2.89012,0.11177,0.76869
597.069,64.75782,-2.89144,0.11439,0.76818
597.769,64.82794,-2.89144,0.11945,0.76767
598.469,64.898,-2.89144,0.12028,0.76717
599.169,64.96771,-2.89359,0.12117,0.76666
599.869,65.03795,-2.89429,0.12428,0.76615
600.569,65.1083,-2.89507,0.12151,0.76564
601.269,65.179,-2.89371,0.12261,0.76513
601.969,65.24903,-2.89506,0.12583,0.76462
602.669,65.31912,-2.89736,0.12906,0.76411
603.369,65.38939,-2.89637,0.13248,0.7636
604.069,65.45992,-2.89769,0.13143,0.76309
604.769,65.53044,-2.89901,0.13603,0.76258
605.469,65.601,-2.89931,0.13513,0.76206
606.169,65.67144,-2.89901,0.13781,0.76155
606.869,65.742,-2.90013,0.13964,0.76104
607.569,65.81236,-2.90032,0.14326,0.76053
608.269,65.88274,-2.90032,0.14288,0.76001
608.969,65.9529,-2.90167,0.14783,0.7595
609.669,66.0232,-2.90032,0.14837,0.75898
610.369,66.09337,-2.90167,0.15049,0.75847
611.069,66.16372,-2.90196,0.15232,0.75795
611.769,66.2338,-2.90362,0.15727,0.75743
612.469,66.3039,-2.90361,0.15979,0.75692
613.169,66.374,-2.9049,0.16381,0.7564
613.869,66.4442,-2.90633,0.16595,0.75588
614.569,66.5145,-2.90587,0.16598,0.75536
615.269,66.58448,-2.90732,0.17121,0.75485
615.969,66.65474,-2.90714,0.17415,0.75433
616.669,66.72475,-2.90758,0.1785,0.75381
617.369,66.7953,-2.90757,0.17948,0.75329
618.069,66.86564,-2.90812,0.18428,0.75277
618.769,66.93621,-2.90816,0.1855,0.75225
619.469,67.00626,-2.90888,0.19086,0.75172
620.169,67.07655,-2.91019,0.19422,0.7512
620.869,67.14676,-2.91133,0.19705,0.75068
621.569,67.21691,-2.91184,0.19852,0.75016
622.269,67.2867,-2.91185,0.20274,0.74963
622.969,67.35636,-2.91316,0.20724,0.74911
623.669,67.42679,-2.91315,0.20941,0.74859
624.369,67.49746,-2.91447,0.2157,0.74806
625.069,67.56832,-2.91572,0.22124,0.74754
625.769,67.6386,-2.91581,0.22738,0.74701
626.469,67.7089,-2.91711,0.2271,0.74649
627.169,67.77929,-2.91842,0.23013,0.74596
627.869,67.8498,-2.91974,0.23817,0.74543
628.569,67.9203,-2.91974,0.23946,0.74491
629.269,67.99073,-2.91969,0.24472,0.74438
629.969,68.0612,-2.9211,0.24837,0.74385
630.669,68.1315,-2.92152,0.25377,0.74332
631.369,68.202,-2.92194,0.25985,0.74279
632.069,68.27231,-2.92303,0.26343,0.74226
632.769,68.343,-2.92303,0.26951,0.74173
633.469,68.4134,-2.92436,0.27055,0.7412
634.169,68.48395,-2.92454,0.27464,0.74067
634.869,68.55445,-2.92656,0.28062,0.74014
635.569,68.625,-2.92632,0.28568,0.73961
636.269,68.6955,-2.92765,0.28888,0.73908
636.969,68.76592,-2.93024,0.29501,0.73854
637.669,68.8365,-2.93024,0.29943,0.73801
638.369,68.90705,-2.93097,0.30515,0.73748
639.069,68.97759,-2.93304,0.30889,0.73694
639.769,69.04812,-2.93322,0.3205,0.73641
640.469,69.1186,-2.93363,0.3228,0.73587
641.169,69.1892,-2.93456,0.32717,0.73534
641.869,69.2595,-2.93681,0.33447,0.7348
642.569,69.32977,-2.93849,0.33435,0.73427
643.269,69.3999,-2.93981,0.33994,0.73373
643.969,69.4703,-2.94114,0.34765,0.73319
644.669,69.54058,-2.94244,0.34971,0.73265
645.369,69.61113,-2.94376,0.35632,0.73212
646.069,69.68145,-2.94422,0.35974,0.73158
646.769,69.75216,-2.94374,0.36286,0.73104
647.469,69.82266,-2.94567,0.37048,0.7305
648.169,69.89335,-2.94803,0.37509,0.72996
648.869,69.96392,-2.94795,0.37843,0.72942
649.569,70.0347,-2.94941,0.38203,0.72888
650.269,70.1053,-2.95104,0.387,0.72834
650.969,70.176,-2.95204,0.39102,0.7278
651.669,70.24669,-2.95397,0.39591,0.72726
652.369,70.31766,-2.95604,0.40127,0.72671
653.069,70.3885,-2.9579,0.40871,0.72617
653.769,70.45944,-2.95923,0.41332,0.72563
654.469,70.53026,-2.96055,0.41469,0.72508
655.169,70.60106,-2.96186,0.41665,0.72454
655.869,70.6717,-2.96317,0.42321,0.72399
656.569,70.7422,-2.9645,0.42701,0.72345
657.269,70.81278,-2.96578,0.43069,0.7229
657.969,70.88342,-2.96674,0.4358,0.72236
658.669,70.9541,-2.96843,0.43958,0.72181
659.369,71.02466,-2.96971,0.44023,0.72126
660.069,71.09517,-2.97326,0.44637,0.72072
660.769,71.16552,-2.97521,0.44689,0.72017
661.469,71.23614,-2.97503,0.44732,0.71962
662.169,71.30675,-2.97684,0.45143,0.71907
662.869,71.37748,-2.97778,0.45216,0.71852
663.569,71.44801,-2.98038,0.4551,0.71797
664.269,71.51836,-2.98164,0.45577,0.71743
664.969,71.58865,-2.98454,0.45243,0.71687
665.669,71.659,-2.98588,0.45012,0.71632
666.369,71.72961,-2.9872,0.45017,0.71577
667.069,71.8001,-2.98851,0.45242,0.71522
667.769,71.87096,-2.98993,0.44953,0.71467
668.469,71.94174,-2.99207,0.44685,0.71412
669.169,72.01275,-2.99399,0.44563,0.71356
669.869,72.0834,-2.99527,0.44402,0.71301
670.569,72.15395,-2.99531,0.43809,0.71246
671.269,72.22443,-2.99702,0.43393,0.7119
671.969,72.295,-2.99791,0.42865,0.71135
672.669,72.36584,-2.99919,0.42088,0.71079
673.369,72.4365,-3.00271,0.41374,0.71024
674.069,72.5073,-3.00419,0.40625,0.70968
674.769,72.5779,-3.00551,0.39964,0.70913
675.469,72.6484,-3.00683,0.39071,0.70857
676.169,72.7188,-3.00815,0.38905,0.70801
676.869,72.7893,-3.00946,0.3827,0.70746
677.569,72.86,-3.00946,0.37611,0.7069
678.269,72.9306,-3.01102,0.37318,0.70634
678.969,73.0014,-3.01363,0.36769,0.70578
679.669,73.07197,-3.01493,0.36929,0.70522
680.369,73.14282,-3.01495,0.36255,0.70466
681.069,73.21345,-3.01626,0.36145,0.7041
681.769,73.2841,-3.01636,0.3533,0.70354
682.469,73.35461,-3.01729,0.34598,0.70298
683.169,73.42534,-3.01888,0.3372,0.70242
683.869,73.49609,-3.0202,0.32219,0.70186
684.569,73.5669,-3.02046,0.31267,0.7013
685.269,73.63763,-3.02269,0.29884,0.70073
685.969,73.70849,-3.02415,0.27735,0.70017
686.669,73.7795,-3.02416,0.25704,0.69961
687.369,73.8505,-3.02416,0.22726,0.69904
688.069,73.92148,-3.02546,0.19961,0.69848
688.769,73.99253,-3.02547,0.18088,0.69791
689.469,74.06342,-3.02679,0.16907,0.69735
690.169,74.13436,-3.02679,0.16011,0.69678
690.869,74.2054,-3.02681,0.15876,0.69622
691.569,74.27605,-3.02811,0.15467,0.69565
692.269,74.3471,-3.0281,0.15599,0.69508
692.969,74.418,-3.02679,0.15363,0.69452
693.669,74.48929,-3.0281,0.15754,0.69395
694.369,74.56014,-3.02942,0.15387,0.69338
695.069,74.631,-3.02909,0.15359,0.69281
695.769,74.70187,-3.02945,0.14865,0.69225
696.469,74.77275,-3.02942,0.15269,0.69168
697.169,74.84368,-3.02942,0.15384,0.69111
697.869,74.91465,-3.02942,0.15187,0.69054
698.569,74.9855,-3.02942,0.15095,0.68997
699.269,75.05641,-3.02942,0.15085,0.6894
699.969,75.12748,-3.03074,0.15146,0.68882
700.669,75.19865,-3.03074,0.14977,0.68825
701.369,75.2697,-3.03205,0.15011,0.68768
702.069,75.34054,-3.02977,0.15134,0.68711
702.769,75.4115,-3.02987,0.14971,0.68654
703.469,75.4821,-3.03107,0.14694,0.68596
704.169,75.55289,-3.03152,0.14587,0.68539
704.869,75.62358,-3.03239,0.14725,0.68482
705.569,75.69468,-3.03239,0.14402,0.68424
706.269,75.76565,-3.03239,0.14616,0.68367
706.969,75.83671,-3.03239,0.14723,0.68309
707.669,75.90777,-3.03282,0.14466,0.68252
708.369,75.97873,-3.03335,0.1463,0.68194
709.069,76.0496,-3.03205,0.14762,0.68136
709.769,76.12031,-3.03204,0.14563,0.68079
710.469,76.19123,-3.03337,0.14794,0.68021
711.169,76.26216,-3.03337,0.14774,0.67963
711.869,76.33299,-3.03337,0.14521,0.67905
712.569,76.4037,-3.03408,0.15168,0.67848
713.269,76.47453,-3.03469,0.14988,0.6779
713.969,76.54558,-3.03469,0.14838,0.67732
714.669,76.6168,-3.03469,0.15083,0.67674
715.369,76.688,-3.03469,0.15248,0.67616
716.069,76.7589,-3.036,0.14863,0.67558
716.769,76.8301,-3.036,0.15001,0.675
717.469,76.90124,-3.03602,0.14679,0.67442
718.169,76.9727,-3.03622,0.14707,0.67384
718.869,77.04365,-3.03666,0.14417,0.67326
719.569,77.11488,-3.03633,0.14759,0.67267
720.269,77.18608,-3.03641,0.14681,0.67209
720.969,77.25756,-3.037,0.14374,0.67151
721.669,77.32863,-3.037,0.1441,0.67092
722.369,77.40004,-3.037,0.14212,0.67034
723.069,77.4713,-3.03568,0.14174,0.66976
723.769,77.5427,-3.03667,0.14211,0.66917
724.469,77.61389,-3.03797,0.14152,0.66859
725.169,77.68504,-3.03798,0.14269,0.668
725.869,77.75624,-3.03834,0.14415,0.66742
726.569,77.82733,-3.03798,0.13985,0.66683
727.269,77.89828,-3.03798,0.14013,0.66625
727.969,77.96924,-3.03798,0.13979,0.66566
728.669,78.04034,-3.03798,0.13953,0.66507
729.369,78.11146,-3.03797,0.14234,0.66449
730.069,78.18235,-3.0393,0.13733,0.6639
730.769,78.25317,-3.0393,0.13677,0.66331
731.469,78.3242,-3.0393,0.13468,0.66272
732.169,78.39529,-3.0393,0.13218,0.66213
732.869,78.46646,-3.04031,0.13264,0.66154
733.569,78.5374,-3.03995,0.13537,0.66095
734.269,78.60812,-3.04028,0.13305,0.66036
734.969,78.67891,-3.04159,0.13143,0.65977
735.669,78.75,-3.0416,0.13395,0.65918
736.369,78.82131,-3.04061,0.13662,0.65859
737.069,78.8926,-3.04061,0.13566,0.658
737.769,78.9637,-3.04192,0.13282,0.65741
738.469,79.03479,-3.04192,0.13402,0.65682
739.169,79.10592,-3.04192,0.13303,0.65622
739.869,79.17704,-3.04151,0.13346,0.65563
740.569,79.2483,-3.04057,0.13113,0.65504
741.269,79.31953,-3.04322,0.12873,0.65445
741.969,79.39081,-3.04193,0.1324,0.65385
742.669,79.462,-3.04193,0.13138,0.65326
743.369,79.5334,-3.04193,0.13393,0.65266
744.069,79.60471,-3.04325,0.13239,0.65207
744.769,79.67604,-3.04325,0.13295,0.65147
745.469,79.74717,-3.04325,0.13435,0.65088
746.169,79.81837,-3.04459,0.13356,0.65028
746.869,79.8895,-3.04456,0.13329,0.64969
747.569,79.96078,-3.04456,0.13335,0.64909
748.269,80.032,-3.04453,0.13283,0.64849
748.969,80.1031,-3.04357,0.13352,0.6479
749.669,80.17401,-3.04357,0.13331,0.6473
750.369,80.245,-3.04498,0.13241,0.6467
751.069,80.31607,-3.04489,0.13247,0.6461
751.769,80.38688,-3.04479,0.13348,0.6455
752.469,80.45784,-3.0463,0.13084,0.6449
753.169,80.52881,-3.04522,0.12916,0.6443
753.869,80.60022,-3.04522,0.13175,0.64371
754.569,80.67129,-3.04653,0.12814,0.64311
755.269,80.74243,-3.0462,0.13153,0.6425
755.969,80.81345,-3.04591,0.13048,0.6419
756.669,80.88478,-3.04489,0.13204,0.6413
757.369,80.9559,-3.04489,0.13096,0.6407
758.069,81.02709,-3.04489,0.13361,0.6401
758.769,81.09821,-3.04621,0.1346,0.6395
759.469,81.16964,-3.04621,0.1334,0.6389
760.169,81.24106,-3.04621,0.1319,0.63829
760.869,81.31229,-3.04621,0.13269,0.63769
761.569,81.3836,-3.04558,0.13346,0.63709
762.269,81.45482,-3.04621,0.13043,0.63648
762.969,81.5261,-3.04621,0.13059,0.63588
763.669,81.5972,-3.0462,0.12697,0.63528
764.369,81.6684,-3.04719,0.12955,0.63467
765.069,81.73952,-3.04719,0.13194,0.63407
765.769,81.81094,-3.04754,0.12981,0.63346
766.469,81.88205,-3.04752,0.12937,0.63286
767.169,81.95342,-3.04752,0.12711,0.63225
767.869,82.02466,-3.04801,0.12911,0.63164
768.569,82.096,-3.04765,0.13373,0.63104
769.269,82.16718,-3.04883,0.13139,0.63043
769.969,82.23852,-3.04884,0.12878,0.62982
770.669,82.30986,-3.04884,0.13385,0.62922
771.369,82.3811,-3.04884,0.13361,0.62861
772.069,82.452,-3.04884,0.13249,0.628
772.769,82.5231,-3.04984,0.1319,0.62739
773.469,82.59438,-3.04883,0.13268,0.62678
774.169,82.6656,-3.05015,0.13427,0.62618
774.869,82.73654,-3.05015,0.13334,0.62557
775.569,82.80754,-3.0503,0.13222,0.62496
776.269,82.87855,-3.05016,0.13602,0.62435
776.969,82.9495,-3.05147,0.1381,0.62374
777.669,83.0205,-3.05241,0.13979,0.62313
778.369,83.09141,-3.05147,0.1373,0.62252
779.069,83.1626,-3.05147,0.13845,0.62191
779.769,83.23346,-3.05147,0.14064,0.62129
780.469,83.3048,-3.05146,0.13815,0.62068
781.169,83.37586,-3.05015,0.13512,0.62007
781.869,83.44731,-3.05006,0.13809,0.61946
782.569,83.5183,-3.05147,0.1414,0.61885
783.269,83.58959,-3.05147,0.13489,0.61823
783.969,83.66064,-3.05279,0.13244,0.61762
784.669,83.73196,-3.05278,0.1346,0.61701
785.369,83.80327,-3.05147,0.13214,0.61639
786.069,83.87483,-3.0528,0.13499,0.61578
786.769,83.9462,-3.05279,0.13487,0.61517
787.469,84.01751,-3.05281,0.13363,0.61455
788.169,84.08883,-3.05349,0.13378,0.61394
788.869,84.15994,-3.05212,0.12945,0.61332
789.569,84.2311,-3.05277,0.13316,0.61271
790.269,84.30203,-3.05278,0.13009,0.61209
790.969,84.37317,-3.05278,0.13062,0.61148
791.669,84.44412,-3.05222,0.13387,0.61086
792.369,84.51517,-3.05279,0.12908,0.61024
793.069,84.58625,-3.05279,0.12985,0.60963
793.769,84.65751,-3.05378,0.1328,0.60901
794.469,84.7287,-3.05439,0.12674,0.60839
795.169,84.79974,-3.0551,0.13163,0.60777
795.869,84.87069,-3.05379,0.13343,0.60716
796.569,84.94163,-3.05378,0.13075,0.60654
797.269,85.01272,-3.05378,0.13235,0.60592
797.969,85.08368,-3.05378,0.13122,0.6053
798.669,85.1546,-3.05378,0.13472,0.60468
799.369,85.22559,-3.05386,0.13232,0.60406
800.069,85.2966,-3.05509,0.13372,0.60345
800.769,85.36788,-3.05461,0.13736,0.60283
801.469,85.4391,-3.05377,0.13529,0.60221
802.169,85.5105,-3.05476,0.13918,0.60159
802.869,85.58144,-3.05586,0.1375,0.60097
803.569,85.6527,-3.05641,0.1407,0.60035
804.269,85.72411,-3.05621,0.1412,0.59972
804.969,85.7958,-3.05641,0.14337,0.5991
805.669,85.8672,-3.05738,0.14235,0.59848
806.369,85.93842,-3.05739,0.14754,0.59786
807.069,86.0098,-3.05638,0.13974,0.59724
807.769,86.08126,-3.05739,0.14394,0.59662
808.469,86.15279,-3.05658,0.14461,0.59599
809.169,86.22417,-3.0564,0.14322,0.59537
809.869,86.2956,-3.05531,0.14149,0.59475
810.569,86.36689,-3.05641,0.14586,0.59413
811.269,86.43809,-3.05774,0.14473,0.5935
811.969,86.50936,-3.05904,0.14848,0.59288
812.669,86.58068,-3.05774,0.14662,0.59226
813.369,86.65218,-3.05773,0.14879,0.59163
814.069,86.7234,-3.05904,0.14876,0.59101
814.769,86.79479,-3.0578,0.14852,0.59038
815.469,86.86623,-3.05828,0.14852,0.58976
816.169,86.93788,-3.05904,0.15308,0.58913
816.869,87.0091,-3.05938,0.15066,0.58851
817.569,87.0805,-3.06069,0.15158,0.58788
818.269,87.1519,-3.06069,0.14884,0.58726
818.969,87.22375,-3.06069,0.15142,0.58663
819.669,87.2954,-3.06069,0.15244,0.58601
820.369,87.36708,-3.06074,0.1577,0.58538
821.069,87.4388,-3.05937,0.1542,0.58475
821.769,87.51032,-3.06071,0.14649,0.58413
822.469,87.58189,-3.06186,0.1527,0.5835
823.169,87.65347,-3.06162,0.15352,0.58287
823.869,87.7251,-3.06209,0.15794,0.58224
824.569,87.79681,-3.06068,0.15048,0.58162
825.269,87.8686,-3.0607,0.15549,0.58099
825.969,87.94043,-3.062,0.1544,0.58036
826.669,88.01194,-3.06201,0.15395,0.57973
827.369,88.08335,-3.061,0.1551,0.5791
828.069,88.15467,-3.06233,0.15472,0.57848
828.769,88.22604,-3.06232,0.1541,0.57785
829.469,88.29735,-3.06321,0.15551,0.57722
830.169,88.36867,-3.06165,0.15218,0.57659
830.869,88.4401,-3.06233,0.14793,0.57596
831.569,88.51137,-3.06233,0.15583,0.57533
832.269,88.58253,-3.06102,0.1573,0.5747
832.969,88.6537,-3.06233,0.15734,0.57407
833.669,88.72484,-3.06233,0.15551,0.57344
834.369,88.79606,-3.06496,0.15602,0.57281
835.069,88.86711,-3.06496,0.1614,0.57218
835.769,88.93848,-3.06496,0.15991,0.57155
836.469,89.0094,-3.06496,0.16388,0.57092
837.169,89.08055,-3.06426,0.16191,0.57029
837.869,89.15174,-3.06497,0.16169,0.56965
838.569,89.22326,-3.06497,0.15777,0.56902
839.269,89.2944,-3.06367,0.16107,0.56839
839.969,89.36541,-3.06497,0.16015,0.56776
840.669,89.43624,-3.06533,0.1576,0.56713
841.369,89.50716,-3.0653,0.16351,0.56649
842.069,89.57821,-3.06627,0.15858,0.56586
842.769,89.64918,-3.06628,0.1596,0.56523
843.469,89.72046,-3.06628,0.1567,0.5646
844.169,89.7916,-3.067,0.15611,0.56396
844.869,89.86305,-3.06628,0.16138,0.56333
845.569,89.9343,-3.06628,0.15955,0.5627
846.169,89.99563,-3.06628,0.15628,0.56215