File: 01_Data/Pine_Lap_Siding/STA/N2/10K_min/Pine_Lap_Siding_STA_N2_10KData_220322_R1.csv
##Temp./Â°C,Time/min,Mass loss(subtr.2)/mg,DSC(subtr.2)/(mW/mg),Sensit./(uV/mW)
49.747,10.00917,-0.00328,0.02001978,1.07513
50.447,10.76326,-0.004207309,0.05617545,1.07477
51.147,10.96445,-0.004629819,0.08420947,1.0744
51.847,11.11422,-0.004702205,0.10577,1.07404
52.547,11.24147,-0.003179865,0.12344,1.07367
53.247,11.35494,-0.00481324,0.14083,1.07331
53.947,11.45933,-0.00415414,0.15387,1.07294
54.647,11.5579,-0.003586325,0.16596,1.07258
55.347,11.6519,-0.005323335,0.17581,1.07221
56.047,11.7423,-0.00352579,0.18538,1.07185
56.747,11.83026,-0.00386222,0.19282,1.07149
57.447,11.91589,-0.003565275,0.19991,1.07112
58.147,11.99961,-0.00535112,0.20708,1.07076
58.847,12.0817,-0.004183673,0.21257,1.07039
59.547,12.16295,-0.005581809,0.21873,1.07003
60.247,12.24287,-0.00544924,0.22661,1.06967
60.947,12.32169,-0.00564024,0.22946,1.0693
61.647,12.40007,-0.00564975,0.23469,1.06894
62.347,12.47845,-0.005598716,0.23951,1.06857
63.047,12.55621,-0.005602183,0.24307,1.06821
63.747,12.63314,-0.00560385,0.24734,1.06785
64.447,12.70931,-0.00557144,0.24843,1.06748
65.147,12.78571,-0.006994313,0.25139,1.06712
65.847,12.86133,-0.005757113,0.25511,1.06676
66.547,12.93701,-0.00671366,0.26022,1.06639
67.247,13.0124,-0.005580044,0.26303,1.06603
67.947,13.08801,-0.00689411,0.26759,1.06567
68.647,13.1631,-0.008019785,0.26786,1.06531
69.347,13.2379,-0.006895701,0.27019,1.06494
70.047,13.31233,-0.008282823,0.27424,1.06458
70.747,13.38688,-0.007119026,0.27436,1.06422
71.447,13.46103,-0.006915008,0.27998,1.06386
72.147,13.5351,-0.008219325,0.28078,1.06349
72.847,13.6088,-0.009538509,0.28522,1.06313
73.547,13.6825,-0.009540008,0.28836,1.06277
74.247,13.756,-0.009314889,0.29388,1.06241
74.947,13.82937,-0.009529997,0.29601,1.06204
75.647,13.9027,-0.009163247,0.29575,1.06168
76.347,13.9758,-0.009952685,0.29786,1.06132
77.047,14.04868,-0.01113925,0.30194,1.06096
77.747,14.1214,-0.01052155,0.30184,1.0606
78.447,14.1942,-0.01087406,0.30423,1.06023
79.147,14.2668,-0.01051996,0.30513,1.05987
79.847,14.339,-0.0118427,0.30928,1.05951
80.547,14.4112,-0.01184006,0.31083,1.05915
81.247,14.4834,-0.01307126,0.31347,1.05879
81.947,14.55569,-0.01316,0.31392,1.05843
82.647,14.62747,-0.01316,0.31646,1.05806
83.347,14.69902,-0.0134781,0.3178,1.0577
84.047,14.77041,-0.01446686,0.31691,1.05734
84.747,14.84185,-0.01444668,0.31605,1.05698
85.447,14.91327,-0.01447,0.31856,1.05662
86.147,14.9845,-0.01446951,0.31886,1.05626
86.847,15.0556,-0.01578225,0.3186,1.0559
87.547,15.12636,-0.01437939,0.31854,1.05554
88.247,15.19714,-0.01579,0.32209,1.05518
88.947,15.26798,-0.01637084,0.31999,1.05482
89.647,15.33881,-0.01678,0.32038,1.05446
90.347,15.4096,-0.01678008,0.3189,1.0541
91.047,15.47974,-0.01578859,0.31876,1.05374
91.747,15.5498,-0.01710242,0.31789,1.05337
92.447,15.61997,-0.01710027,0.31739,1.05301
93.147,15.6906,-0.01841888,0.31417,1.05265
93.847,15.76096,-0.01842,0.31704,1.05229
94.547,15.8307,-0.01842058,0.3155,1.05193
95.247,15.90044,-0.01969158,0.31534,1.05157
95.947,15.9701,-0.01842003,0.31398,1.05121
96.647,16.04005,-0.01842,0.31302,1.05086
97.347,16.10933,-0.01842005,0.31262,1.0505
98.047,16.17894,-0.01842122,0.31289,1.05014
98.747,16.2483,-0.01842203,0.31057,1.04978
99.447,16.3175,-0.01940962,0.31198,1.04942
100.147,16.38637,-0.01941005,0.30897,1.04906
100.847,16.45521,-0.01976799,0.30727,1.0487
101.547,16.52419,-0.01984401,0.30869,1.04834
102.247,16.59306,-0.01972878,0.3067,1.04798
102.947,16.6619,-0.02109898,0.3054,1.04762
103.647,16.73072,-0.02105,0.30383,1.04726
104.347,16.79963,-0.02105,0.30217,1.0469
105.047,16.86843,-0.0210502,0.30011,1.04654
105.747,16.9372,-0.01972168,0.30068,1.04619
106.447,17.00579,-0.02105034,0.30114,1.04583
107.147,17.07454,-0.02105001,0.2985,1.04547
107.847,17.1433,-0.02096577,0.29822,1.04511
108.547,17.21203,-0.02105038,0.29813,1.04475
109.247,17.28041,-0.02105,0.29627,1.04439
109.947,17.34893,-0.02105089,0.29691,1.04403
110.647,17.41756,-0.01972488,0.2965,1.04368
111.347,17.48619,-0.02105031,0.29439,1.04332
112.047,17.5547,-0.02196337,0.29445,1.04296
112.747,17.623,-0.02236993,0.29404,1.0426
113.447,17.6913,-0.02108158,0.29509,1.04224
114.147,17.75975,-0.02106001,0.29608,1.04189
114.847,17.8277,-0.02159063,0.29455,1.04153
115.547,17.8961,-0.02237012,0.29332,1.04117
116.247,17.96455,-0.022143,0.29204,1.04081
116.947,18.03332,-0.02071996,0.29202,1.04046
117.647,18.1018,-0.02071948,0.29119,1.0401
118.347,18.17001,-0.01940485,0.29267,1.03974
119.047,18.23806,-0.02071962,0.29382,1.03938
119.747,18.30629,-0.02072007,0.29335,1.03903
120.447,18.3748,-0.02181725,0.29537,1.03867
121.147,18.44332,-0.02204047,0.29465,1.03831
121.847,18.51154,-0.02072398,0.29186,1.03795
122.547,18.57975,-0.02073001,0.29369,1.0376
123.247,18.64794,-0.02159794,0.2941,1.03724
123.947,18.71611,-0.02203986,0.29677,1.03688
124.647,18.78397,-0.02080437,0.295,1.03653
125.347,18.85223,-0.02203903,0.29636,1.03617
126.047,18.92023,-0.02203999,0.2964,1.03581
126.747,18.98849,-0.02200829,0.29594,1.03546
127.447,19.05633,-0.02202972,0.2951,1.0351
128.147,19.12436,-0.02203,0.29763,1.03474
128.847,19.19235,-0.02203044,0.29766,1.03439
129.547,19.26054,-0.02236164,0.2991,1.03403
130.247,19.32874,-0.02299278,0.29718,1.03367
130.947,19.3967,-0.02334912,0.29891,1.03332
131.647,19.4647,-0.02205211,0.29915,1.03296
132.347,19.53238,-0.02203988,0.29904,1.03261
133.047,19.60034,-0.02236465,0.3021,1.03225
133.747,19.6681,-0.02236999,0.30314,1.03189
134.447,19.73619,-0.02247287,0.30356,1.03154
135.147,19.80421,-0.02141582,0.3029,1.03118
135.847,19.87216,-0.02204744,0.30464,1.03083
136.547,19.94019,-0.02204,0.3047,1.03047
137.247,20.0078,-0.02202193,0.30642,1.03011
137.947,20.07546,-0.02123259,0.3062,1.02976
138.647,20.14294,-0.02138034,0.30705,1.0294
139.347,20.2106,-0.02202234,0.30827,1.02905
140.047,20.2784,-0.02138015,0.30808,1.02869
140.747,20.34617,-0.02240897,0.30867,1.02834
141.447,20.41359,-0.02170812,0.30822,1.02798
142.147,20.48096,-0.02171,0.31027,1.02763
142.847,20.54835,-0.02171398,0.31025,1.02727
143.547,20.6159,-0.02204012,0.31029,1.02692
144.247,20.6836,-0.02203411,0.3137,1.02656
144.947,20.7509,-0.0233604,0.31291,1.02621
145.647,20.81814,-0.02336365,0.31475,1.02585
146.347,20.88556,-0.02203964,0.31819,1.0255
147.047,20.9533,-0.02204752,0.31417,1.02514
147.747,21.0204,-0.02235622,0.31504,1.02479
148.447,21.08766,-0.02334969,0.31661,1.02443
149.147,21.15492,-0.02280086,0.31881,1.02408
149.847,21.22244,-0.02108781,0.31632,1.02372
150.547,21.28985,-0.02105389,0.31966,1.02337
151.247,21.35719,-0.02239789,0.31851,1.02301
151.947,21.42448,-0.02197197,0.31823,1.02266
152.647,21.49205,-0.02269972,0.32205,1.0223
153.347,21.55941,-0.02334287,0.32123,1.02195
154.047,21.62668,-0.02203995,0.32355,1.02159
154.747,21.69391,-0.02246649,0.32307,1.02124
155.447,21.76095,-0.02334999,0.32765,1.02089
156.147,21.82851,-0.02335,0.32651,1.02053
156.847,21.89576,-0.02335,0.3277,1.02018
157.547,21.96339,-0.0233285,0.3266,1.01982
158.247,22.0305,-0.02203645,0.32819,1.01947
158.947,22.0975,-0.02335028,0.33065,1.01912
159.647,22.16467,-0.02391198,0.33012,1.01876
160.347,22.2319,-0.02302,0.32918,1.01841
161.047,22.29938,-0.02302017,0.3328,1.01805
161.747,22.3667,-0.02236751,0.33302,1.0177
162.447,22.43384,-0.02236773,0.33189,1.01735
163.147,22.50106,-0.02269947,0.33403,1.01699
163.847,22.5681,-0.02270001,0.3338,1.01664
164.547,22.6351,-0.02229673,0.33664,1.01628
165.247,22.70212,-0.02228116,0.33628,1.01593
165.947,22.76898,-0.02336173,0.33644,1.01558
166.647,22.8358,-0.02295497,0.33725,1.01522
167.347,22.90294,-0.0233507,0.33959,1.01487
168.047,22.97019,-0.02368127,0.33862,1.01452
168.747,23.03748,-0.02368003,0.33953,1.01416
169.447,23.10463,-0.02512999,0.34051,1.01381
170.147,23.17099,-0.02566003,0.34268,1.01346
170.847,23.23824,-0.02564715,0.3429,1.0131
171.547,23.3053,-0.02334429,0.34252,1.01275
172.247,23.373,-0.02334999,0.34351,1.0124
172.947,23.43991,-0.02337553,0.34573,1.01204
173.647,23.50705,-0.02467011,0.34549,1.01169
174.347,23.57402,-0.02467,0.34633,1.01134
175.047,23.64111,-0.02467,0.34762,1.01098
175.747,23.70774,-0.02467,0.35026,1.01063
176.447,23.77458,-0.02467,0.34901,1.01028
177.147,23.84127,-0.02466402,0.35021,1.00992
177.847,23.90822,-0.02463603,0.35,1.00957
178.547,23.97533,-0.02467001,0.35304,1.00922
179.247,24.04233,-0.02467,0.35163,1.00886
179.947,24.10935,-0.02467,0.35234,1.00851
180.647,24.17615,-0.02467,0.35321,1.00816
181.347,24.24316,-0.02467,0.35375,1.0078
182.047,24.3101,-0.02467,0.35535,1.00745
182.747,24.37704,-0.02467,0.35519,1.0071
183.447,24.44379,-0.02458226,0.35448,1.00675
184.147,24.51056,-0.02368036,0.35385,1.00639
184.847,24.57754,-0.02468177,0.35745,1.00604
185.547,24.64444,-0.02499838,0.35821,1.00569
186.247,24.71138,-0.02565937,0.35745,1.00533
186.947,24.77834,-0.02632074,0.35824,1.00498
187.647,24.8457,-0.02632001,0.35911,1.00463
188.347,24.91299,-0.02626567,0.3591,1.00428
189.047,24.98015,-0.02697995,0.36159,1.00392
189.747,25.04719,-0.02698,0.36456,1.00357
190.447,25.11426,-0.02698,0.36321,1.00322
191.147,25.18145,-0.02698,0.36436,1.00286
191.847,25.2484,-0.02698,0.36248,1.00251
192.547,25.31515,-0.02698723,0.36359,1.00216
193.247,25.38192,-0.02565623,0.36251,1.00181
193.947,25.4489,-0.02829216,0.36331,1.00145
194.647,25.516,-0.02762971,0.36475,1.0011
195.347,25.58306,-0.02771093,0.36629,1.00075
196.047,25.6498,-0.02696876,0.36563,1.0004
196.747,25.71659,-0.02719375,0.36606,1.00004
197.447,25.78329,-0.02762996,0.36787,0.99969
198.147,25.85015,-0.02763,0.36969,0.99934
198.847,25.91669,-0.02762398,0.3691,0.99899
199.547,25.9831,-0.0289515,0.37176,0.99863
200.247,26.04976,-0.02890212,0.36985,0.99828
200.947,26.11648,-0.02829016,0.36978,0.99793
201.647,26.18368,-0.02952985,0.37335,0.99757
202.347,26.25045,-0.02961,0.37264,0.99722
203.047,26.3171,-0.02961,0.37513,0.99687
203.747,26.3834,-0.02961,0.37728,0.99652
204.447,26.4499,-0.02961,0.378,0.99616
205.147,26.51632,-0.02961,0.37804,0.99581
205.847,26.58336,-0.0296096,0.37917,0.99546
206.547,26.65012,-0.03094979,0.38093,0.99511
207.247,26.71722,-0.03117741,0.38121,0.99475
207.947,26.784,-0.03113883,0.38005,0.9944
208.647,26.8508,-0.03162576,0.3833,0.99405
209.347,26.9176,-0.03245996,0.38088,0.9937
210.047,26.98442,-0.03246,0.38215,0.99334
210.747,27.051,-0.03246,0.38436,0.99299
211.447,27.118,-0.03246,0.38239,0.99264
212.147,27.18478,-0.03246,0.38342,0.99228
212.847,27.25202,-0.03245138,0.38338,0.99193
213.547,27.31885,-0.03343994,0.3853,0.99158
214.247,27.38573,-0.03344186,0.38727,0.99123
214.947,27.4526,-0.03475816,0.38743,0.99087
215.647,27.51949,-0.03476,0.38745,0.99052
216.347,27.58638,-0.03476,0.3891,0.99017
217.047,27.6532,-0.03476001,0.3896,0.98982
217.747,27.71987,-0.03515175,0.39012,0.98946
218.447,27.7864,-0.0360466,0.39082,0.98911
219.147,27.85319,-0.03566307,0.39083,0.98876
219.847,27.9199,-0.03507693,0.38966,0.9884
220.547,27.98687,-0.03640971,0.39161,0.98805
221.247,28.05371,-0.03778032,0.39373,0.9877
221.947,28.12057,-0.03772819,0.39664,0.98734
222.647,28.1872,-0.03904226,0.39509,0.98699
223.347,28.25382,-0.03771593,0.39692,0.98664
224.047,28.3207,-0.03905317,0.39772,0.98629
224.747,28.38743,-0.04036017,0.39925,0.98593
225.447,28.4543,-0.04036,0.39849,0.98558
226.147,28.52106,-0.04035981,0.40053,0.98523
226.847,28.58773,-0.04166312,0.40078,0.98487
227.547,28.6545,-0.04167,0.40065,0.98452
228.247,28.72151,-0.04166979,0.40382,0.98417
228.947,28.78835,-0.04356774,0.40413,0.98381
229.647,28.8552,-0.04420247,0.4043,0.98346
230.347,28.92195,-0.04562002,0.40583,0.98311
231.047,28.9885,-0.04558846,0.4048,0.98275
231.747,29.0554,-0.04692976,0.40738,0.9824
232.447,29.1224,-0.048301,0.40791,0.98205
233.147,29.1895,-0.04825005,0.40995,0.98169
233.847,29.2564,-0.04959887,0.41156,0.98134
234.547,29.32323,-0.04956978,0.41218,0.98099
235.247,29.3902,-0.0509073,0.41333,0.98063
235.947,29.45722,-0.05219016,0.41651,0.98028
236.647,29.5242,-0.05219975,0.41544,0.97992
237.347,29.59116,-0.053551,0.41828,0.97957
238.047,29.6581,-0.05350636,0.41878,0.97922
238.747,29.72464,-0.05512459,0.41929,0.97886
239.447,29.7912,-0.05747295,0.41786,0.97851
240.147,29.8579,-0.05741242,0.42206,0.97816
240.847,29.92458,-0.05907364,0.4226,0.9778
241.547,29.99131,-0.060111,0.42314,0.97745
242.247,30.058,-0.06142009,0.42439,0.97709
242.947,30.1249,-0.06281353,0.42983,0.97674
243.647,30.19182,-0.0640373,0.42763,0.97638
244.347,30.2588,-0.06536634,0.43063,0.97603
245.047,30.3256,-0.06598456,0.42746,0.97568
245.747,30.39232,-0.06901602,0.43092,0.97532
246.447,30.45866,-0.07061293,0.42923,0.97497
247.147,30.5253,-0.07193536,0.43085,0.97461
247.847,30.59242,-0.07188755,0.43151,0.97426
248.547,30.6596,-0.0729795,0.43218,0.9739
249.247,30.7265,-0.07656469,0.43048,0.97355
249.947,30.7934,-0.07803273,0.43181,0.97319
250.647,30.86035,-0.08083014,0.43357,0.97284
251.347,30.92735,-0.08347379,0.43229,0.97248
252.047,30.9942,-0.08477988,0.43127,0.97213
252.747,31.0611,-0.08608805,0.43129,0.97177
253.447,31.12786,-0.08604076,0.42933,0.97142
254.147,31.1948,-0.08876027,0.43108,0.97106
254.847,31.2614,-0.09287679,0.43189,0.97071
255.547,31.32837,-0.09421796,0.43114,0.97035
256.247,31.39518,-0.09554516,0.43479,0.97
256.947,31.46228,-0.0983873,0.43393,0.96964
257.647,31.5291,-0.101,0.43379,0.96929
258.347,31.5961,-0.10417,0.43448,0.96893
259.047,31.66263,-0.10669,0.434,0.96858
259.747,31.7294,-0.10958,0.43567,0.96822
260.447,31.79617,-0.11217,0.43805,0.96786
261.147,31.86325,-0.11424,0.43682,0.96751
261.847,31.9299,-0.11669,0.44186,0.96715
262.547,31.99666,-0.11793,0.44168,0.9668
263.247,32.0633,-0.12079,0.44129,0.96644
263.947,32.13001,-0.1236,0.44196,0.96608
264.647,32.19689,-0.1275,0.44161,0.96573
265.347,32.26367,-0.12954,0.44236,0.96537
266.047,32.33062,-0.13081,0.44574,0.96502
266.747,32.39748,-0.13533,0.44423,0.96466
267.447,32.46423,-0.14077,0.44485,0.9643
268.147,32.53116,-0.14435,0.44604,0.96395
268.847,32.59813,-0.14754,0.44657,0.96359
269.547,32.66522,-0.15304,0.44746,0.96323
270.247,32.732,-0.15628,0.44823,0.96287
270.947,32.79892,-0.15925,0.44767,0.96252
271.647,32.86592,-0.16268,0.4449,0.96216
272.347,32.933,-0.16612,0.44993,0.9618
273.047,33.00019,-0.16935,0.44827,0.96145
273.747,33.06725,-0.17486,0.44983,0.96109
274.447,33.1345,-0.17795,0.45084,0.96073
275.147,33.20159,-0.1813,0.4503,0.96037
275.847,33.26869,-0.1863,0.45262,0.96002
276.547,33.33583,-0.19155,0.45246,0.95966
277.247,33.4031,-0.19589,0.45288,0.9593
277.947,33.46985,-0.20003,0.45674,0.95894
278.647,33.53666,-0.20438,0.45526,0.95858
279.347,33.60372,-0.20975,0.45777,0.95822
280.047,33.6712,-0.21441,0.45956,0.95787
280.747,33.73868,-0.21987,0.45964,0.95751
281.447,33.80565,-0.2271,0.46004,0.95715
282.147,33.87272,-0.23176,0.46399,0.95679
282.847,33.93985,-0.23609,0.46602,0.95643
283.547,34.00717,-0.24004,0.46537,0.95607
284.247,34.07431,-0.24654,0.46797,0.95571
284.947,34.14128,-0.25334,0.46843,0.95535
285.647,34.20835,-0.25879,0.4709,0.95499
286.347,34.27545,-0.26484,0.47312,0.95464
287.047,34.3427,-0.27104,0.47214,0.95428
287.747,34.4099,-0.27717,0.47083,0.95392
288.447,34.47698,-0.28332,0.4732,0.95356
289.147,34.5443,-0.28883,0.47645,0.9532
289.847,34.61138,-0.29448,0.48113,0.95284
290.547,34.67859,-0.30209,0.48034,0.95248
291.247,34.74576,-0.30988,0.48191,0.95212
291.947,34.81321,-0.31745,0.48169,0.95176
292.647,34.88041,-0.32268,0.48795,0.95139
293.347,34.94785,-0.33026,0.48622,0.95103
294.047,35.0152,-0.33768,0.48675,0.95067
294.747,35.08282,-0.346,0.48997,0.95031
295.447,35.15027,-0.35402,0.49243,0.94995
296.147,35.21775,-0.36256,0.49379,0.94959
296.847,35.2853,-0.37081,0.4958,0.94923
297.547,35.353,-0.37773,0.49946,0.94887
298.247,35.42064,-0.38534,0.50192,0.94851
298.947,35.48834,-0.39408,0.50179,0.94814
299.647,35.55573,-0.40279,0.50764,0.94778
300.347,35.62293,-0.41026,0.50775,0.94742
301.047,35.6901,-0.41963,0.51388,0.94706
301.747,35.75741,-0.42921,0.514,0.94669
302.447,35.8249,-0.43927,0.51964,0.94633
303.147,35.89235,-0.44782,0.52211,0.94597
303.847,35.95973,-0.45777,0.52692,0.94561
304.547,36.02698,-0.46712,0.52815,0.94524
305.247,36.09418,-0.4769,0.53269,0.94488
305.947,36.16149,-0.48781,0.53618,0.94452
306.647,36.22886,-0.49815,0.54041,0.94415
307.347,36.29629,-0.50779,0.54735,0.94379
308.047,36.3635,-0.51893,0.54849,0.94343
308.747,36.43084,-0.52829,0.55243,0.94306
309.447,36.49819,-0.53831,0.55378,0.9427
310.147,36.5657,-0.55422,0.55694,0.94234
310.847,36.6331,-0.56494,0.5607,0.94197
311.547,36.7004,-0.57547,0.566,0.94161
312.247,36.76782,-0.58777,0.56977,0.94124
312.947,36.83504,-0.59903,0.57667,0.94088
313.647,36.90247,-0.6111,0.5802,0.94051
314.347,36.9699,-0.62432,0.58549,0.94015
315.047,37.03734,-0.63729,0.58718,0.93978
315.747,37.10479,-0.64907,0.59092,0.93942
316.447,37.1721,-0.6605,0.59503,0.93905
317.147,37.23941,-0.6789,0.59819,0.93868
317.847,37.30681,-0.69127,0.60372,0.93832
318.547,37.3744,-0.70367,0.61015,0.93795
319.247,37.442,-0.7168,0.61549,0.93759
319.947,37.50939,-0.73276,0.61885,0.93722
320.647,37.57656,-0.74615,0.62063,0.93685
321.347,37.64355,-0.76087,0.62614,0.93649
322.047,37.71094,-0.77566,0.63027,0.93612
322.747,37.7783,-0.79144,0.63345,0.93575
323.447,37.8458,-0.80605,0.63755,0.93539
324.147,37.91323,-0.82164,0.64167,0.93502
324.847,37.98077,-0.83696,0.64588,0.93465
325.547,38.04828,-0.85305,0.64932,0.93428
326.247,38.11577,-0.86827,0.6502,0.93391
326.947,38.18339,-0.88382,0.6545,0.93355
327.647,38.25095,-0.90091,0.65811,0.93318
328.347,38.3187,-0.91759,0.66114,0.93281
329.047,38.38628,-0.93388,0.66215,0.93244
329.747,38.45394,-0.95122,0.66402,0.93207
330.447,38.5213,-0.96706,0.6695,0.9317
331.147,38.58859,-0.98395,0.67263,0.93133
331.847,38.65609,-1.00202,0.67333,0.93096
332.547,38.7237,-1.01849,0.67746,0.93059
333.247,38.79132,-1.03699,0.68104,0.93022
333.947,38.85884,-1.05422,0.68313,0.92985
334.647,38.9264,-1.07136,0.68669,0.92948
335.347,38.99405,-1.08831,0.69002,0.92911
336.047,39.06153,-1.10747,0.69224,0.92874
336.747,39.12847,-1.12562,0.69382,0.92837
337.447,39.1959,-1.14316,0.69633,0.928
338.147,39.2634,-1.16192,0.70188,0.92763
338.847,39.33157,-1.17925,0.70286,0.92726
339.547,39.39921,-1.1968,0.70578,0.92689
340.247,39.4667,-1.21562,0.71018,0.92651
340.947,39.53418,-1.23636,0.7163,0.92614
341.647,39.6018,-1.25348,0.71691,0.92577
342.347,39.66957,-1.27071,0.72186,0.9254
343.047,39.73747,-1.29212,0.7246,0.92502
343.747,39.80516,-1.31099,0.73103,0.92465
344.447,39.87299,-1.33037,0.73633,0.92428
345.147,39.94065,-1.34989,0.74231,0.9239
345.847,40.0085,-1.36953,0.74915,0.92353
346.547,40.0762,-1.38788,0.75287,0.92316
347.247,40.14433,-1.4089,0.76155,0.92278
347.947,40.21232,-1.4309,0.76964,0.92241
348.647,40.28063,-1.45118,0.7768,0.92203
349.347,40.34864,-1.47192,0.78856,0.92166
350.047,40.41684,-1.49326,0.79691,0.92128
350.747,40.48467,-1.51546,0.8034,0.92091
351.447,40.55258,-1.53566,0.81288,0.92053
352.147,40.62032,-1.55784,0.82251,0.92016
352.847,40.6884,-1.58073,0.83604,0.91978
353.547,40.75623,-1.60512,0.84424,0.91941
354.247,40.8241,-1.62755,0.85436,0.91903
354.947,40.8917,-1.64953,0.86403,0.91865
355.647,40.95948,-1.67273,0.87677,0.91828
356.347,41.0274,-1.69631,0.88652,0.9179
357.047,41.09538,-1.72288,0.89598,0.91752
357.747,41.16343,-1.74869,0.90534,0.91715
358.447,41.2314,-1.77283,0.91479,0.91677
359.147,41.29929,-1.79789,0.92316,0.91639
359.847,41.36711,-1.82387,0.93478,0.91601
360.547,41.43499,-1.84834,0.94515,0.91563
361.247,41.50282,-1.87404,0.94965,0.91525
361.947,41.57073,-1.90245,0.95694,0.91488
362.647,41.63852,-1.928,0.96372,0.9145
363.347,41.70664,-1.955,0.96776,0.91412
364.047,41.77467,-1.98264,0.96927,0.91374
364.747,41.8427,-2.01,0.97041,0.91336
365.447,41.91069,-2.03566,0.96706,0.91298
366.147,41.97853,-2.06309,0.96478,0.9126
366.847,42.0465,-2.09035,0.95853,0.91222
367.547,42.11422,-2.11599,0.95241,0.91184
368.247,42.18201,-2.14233,0.9436,0.91146
368.947,42.24995,-2.17085,0.93262,0.91107
369.647,42.31793,-2.19373,0.9177,0.91069
370.347,42.38586,-2.22018,0.90338,0.91031
371.047,42.45366,-2.24547,0.87965,0.90993
371.747,42.52126,-2.26902,0.85877,0.90955
372.447,42.58911,-2.2923,0.83706,0.90916
373.147,42.6569,-2.3149,0.8102,0.90878
373.847,42.72486,-2.33755,0.78047,0.9084
374.547,42.79293,-2.35906,0.75016,0.90801
375.247,42.86094,-2.37968,0.71785,0.90763
375.947,42.92883,-2.39817,0.68389,0.90725
376.647,42.99682,-2.41435,0.64823,0.90686
377.347,43.06476,-2.43234,0.61133,0.90648
378.047,43.13295,-2.4505,0.57791,0.90609
378.747,43.20081,-2.46483,0.54031,0.90571
379.447,43.26874,-2.47966,0.5045,0.90532
380.147,43.33662,-2.49245,0.46978,0.90494
380.847,43.4047,-2.50302,0.43353,0.90455
381.547,43.47282,-2.51415,0.40074,0.90417
382.247,43.5408,-2.52439,0.36728,0.90378
382.947,43.60866,-2.53212,0.34007,0.90339
383.647,43.67662,-2.54088,0.31211,0.90301
384.347,43.74453,-2.54924,0.28586,0.90262
385.047,43.8125,-2.55652,0.26124,0.90223
385.747,43.8803,-2.56204,0.24178,0.90185
386.447,43.94813,-2.56697,0.22195,0.90146
387.147,44.01613,-2.57171,0.20276,0.90107
387.847,44.08402,-2.57652,0.18655,0.90068
388.547,44.15201,-2.57883,0.17433,0.90029
389.247,44.21987,-2.58177,0.16299,0.8999
389.947,44.28781,-2.58666,0.15398,0.89951
390.647,44.35572,-2.58917,0.14626,0.89912
391.347,44.4238,-2.59232,0.14067,0.89873
392.047,44.49168,-2.59581,0.13531,0.89834
392.747,44.55992,-2.59858,0.133,0.89795
393.447,44.62813,-2.59874,0.12824,0.89756
394.147,44.6965,-2.60003,0.12337,0.89717
394.847,44.76464,-2.60425,0.12379,0.89678
395.547,44.8325,-2.60743,0.12008,0.89639
396.247,44.90068,-2.61047,0.11769,0.896
396.947,44.96884,-2.61348,0.1161,0.8956
397.647,45.0372,-2.61398,0.11338,0.89521
398.347,45.1054,-2.61617,0.11176,0.89482
399.047,45.17364,-2.61855,0.11015,0.89443
399.747,45.2418,-2.62024,0.10898,0.89403
400.447,45.30997,-2.62305,0.10744,0.89364
401.147,45.37808,-2.62513,0.10781,0.89325
401.847,45.4463,-2.62724,0.10658,0.89285
402.547,45.5145,-2.62982,0.10526,0.89246
403.247,45.5828,-2.63164,0.10198,0.89206
403.947,45.65112,-2.63408,0.10092,0.89167
404.647,45.71951,-2.63411,0.09940245,0.89127
405.347,45.78779,-2.63539,0.10007,0.89088
406.047,45.85606,-2.6394,0.09860795,0.89048
406.747,45.92429,-2.64063,0.09808713,0.89008
407.447,45.99259,-2.64358,0.0955792,0.88969
408.147,46.06075,-2.6465,0.09098717,0.88929
408.847,46.12905,-2.64935,0.09165202,0.88889
409.547,46.19721,-2.65062,0.0895375,0.88849
410.247,46.2656,-2.65334,0.08794078,0.8881
410.947,46.33379,-2.65466,0.08623413,0.8877
411.647,46.4021,-2.65587,0.08358597,0.8873
412.347,46.47035,-2.65869,0.08351559,0.8869
413.047,46.53862,-2.66103,0.08339295,0.8865
413.747,46.6069,-2.66275,0.08353856,0.8861
414.447,46.67516,-2.66396,0.0821631,0.8857
415.147,46.74346,-2.66684,0.07916406,0.8853
415.847,46.81171,-2.66911,0.07690143,0.8849
416.547,46.8801,-2.67097,0.07342802,0.8845
417.247,46.9484,-2.67254,0.07274577,0.8841
417.947,47.01684,-2.67507,0.07187105,0.8837
418.647,47.0852,-2.67791,0.06882525,0.8833
419.347,47.15356,-2.67998,0.06955702,0.88289
420.047,47.2218,-2.68147,0.06903853,0.88249
420.747,47.29003,-2.68402,0.06837957,0.88209
421.447,47.35841,-2.68461,0.06492654,0.88169
422.147,47.42691,-2.68665,0.06370183,0.88128
422.847,47.49523,-2.68807,0.06222264,0.88088
423.547,47.56345,-2.69182,0.06189962,0.88047
424.247,47.63178,-2.69308,0.05932669,0.88007
424.947,47.70022,-2.69552,0.05886178,0.87967
425.647,47.76865,-2.6979,0.0579192,0.87926
426.347,47.83706,-2.69828,0.05649728,0.87886
427.047,47.90572,-2.70072,0.0547754,0.87845
427.747,47.9741,-2.70235,0.05443235,0.87804
428.447,48.0426,-2.70404,0.05475589,0.87764
429.147,48.1109,-2.70667,0.05436935,0.87723
429.847,48.17953,-2.70926,0.05172439,0.87682
430.547,48.24817,-2.70949,0.0534452,0.87642
431.247,48.31708,-2.71179,0.05205432,0.87601
431.947,48.3859,-2.7132,0.05291802,0.8756
432.647,48.45477,-2.71548,0.05348409,0.87519
433.347,48.5235,-2.71725,0.05203665,0.87478
434.047,48.59235,-2.71853,0.05139828,0.87437
434.747,48.6608,-2.71995,0.04925565,0.87396
435.447,48.72913,-2.72163,0.05126178,0.87355
436.147,48.7977,-2.72425,0.04955196,0.87314
436.847,48.86672,-2.72557,0.05197882,0.87273
437.547,48.93588,-2.72679,0.05108353,0.87232
438.247,49.0049,-2.7282,0.05357461,0.87191
438.947,49.07372,-2.73055,0.05233334,0.8715
439.647,49.1422,-2.7323,0.05264808,0.87109
440.347,49.21097,-2.73544,0.05753488,0.87068
441.047,49.27987,-2.73837,0.05746918,0.87026
441.747,49.34912,-2.73929,0.05722408,0.86985
442.447,49.41793,-2.7406,0.05817424,0.86944
443.147,49.48673,-2.74191,0.05937657,0.86902
443.847,49.5557,-2.74324,0.06083589,0.86861
444.547,49.62472,-2.74455,0.06186889,0.86819
445.247,49.6937,-2.74716,0.06232043,0.86778
445.947,49.7626,-2.74876,0.06817533,0.86736
446.647,49.8314,-2.75086,0.06821382,0.86695
447.347,49.90039,-2.75234,0.07019365,0.86653
448.047,49.9694,-2.75366,0.07077201,0.86612
448.747,50.03839,-2.75498,0.06994083,0.8657
449.447,50.1075,-2.75628,0.07134222,0.86528
450.147,50.17637,-2.75628,0.07329962,0.86487
450.847,50.2455,-2.75874,0.07449383,0.86445
451.547,50.314,-2.76038,0.07575361,0.86403
452.247,50.38297,-2.76263,0.07768789,0.86361
452.947,50.45192,-2.76435,0.08000806,0.86319
453.647,50.52127,-2.76639,0.08057126,0.86277
454.347,50.59033,-2.76691,0.08377643,0.86235
455.047,50.6594,-2.76693,0.08382302,0.86193
455.747,50.72841,-2.76785,0.08497847,0.86151
456.447,50.79759,-2.76876,0.08861027,0.86109
457.147,50.86683,-2.77101,0.09043663,0.86067
457.847,50.936,-2.77347,0.09270853,0.86025
458.547,51.00519,-2.77515,0.09366594,0.85983
459.247,51.0743,-2.77647,0.09520875,0.85941
459.947,51.1435,-2.77646,0.09870582,0.85899
460.647,51.21268,-2.77781,0.10252,0.85856
461.347,51.28192,-2.77932,0.10244,0.85814
462.047,51.3512,-2.78182,0.10222,0.85772
462.747,51.4205,-2.78219,0.10544,0.85729
463.447,51.4895,-2.78305,0.10856,0.85687
464.147,51.55872,-2.78436,0.11159,0.85644
464.847,51.62785,-2.78655,0.11148,0.85602
465.547,51.69728,-2.78701,0.11345,0.85559
466.247,51.76645,-2.78847,0.11798,0.85517
466.947,51.83565,-2.78963,0.11547,0.85474
467.647,51.9047,-2.79073,0.11804,0.85431
468.347,51.97398,-2.7922,0.12049,0.85389
469.047,52.04314,-2.79357,0.12336,0.85346
469.747,52.1124,-2.79423,0.12434,0.85303
470.447,52.1813,-2.79491,0.12493,0.8526
471.147,52.25046,-2.7962,0.1262,0.85217
471.847,52.31953,-2.79753,0.12846,0.85174
472.547,52.3885,-2.79886,0.12856,0.85131
473.247,52.4573,-2.79754,0.13244,0.85088
473.947,52.52626,-2.80004,0.13231,0.85045
474.647,52.59531,-2.80052,0.13391,0.85002
475.347,52.66445,-2.80149,0.13685,0.84959
476.047,52.7334,-2.80357,0.13795,0.84916
476.747,52.8021,-2.80435,0.13941,0.84873
477.447,52.87084,-2.80543,0.13985,0.8483
478.147,52.9397,-2.80646,0.14085,0.84787
478.847,53.00878,-2.80704,0.14011,0.84743
479.547,53.07795,-2.8093,0.14131,0.847
480.247,53.147,-2.81069,0.14326,0.84657
480.947,53.2159,-2.80972,0.14417,0.84613
481.647,53.28474,-2.81141,0.1441,0.8457
482.347,53.35365,-2.81234,0.1452,0.84526
483.047,53.42261,-2.81389,0.14667,0.84483
483.747,53.4917,-2.81507,0.14669,0.84439
484.447,53.5607,-2.81541,0.1506,0.84395
485.147,53.6299,-2.81673,0.14619,0.84352
485.847,53.6991,-2.81673,0.14931,0.84308
486.547,53.7683,-2.81772,0.15099,0.84264
487.247,53.83736,-2.81772,0.15114,0.84221
487.947,53.90645,-2.81838,0.15096,0.84177
488.647,53.9755,-2.82016,0.15202,0.84133
489.347,54.04484,-2.82113,0.15434,0.84089
490.047,54.11416,-2.82167,0.15414,0.84045
490.747,54.1837,-2.82207,0.15332,0.84001
491.447,54.25303,-2.82301,0.15517,0.83957
492.147,54.3224,-2.8243,0.15407,0.83913
492.847,54.3919,-2.82539,0.15567,0.83869
493.547,54.46144,-2.82565,0.15508,0.83825
494.247,54.5307,-2.82693,0.15528,0.83781
494.947,54.60001,-2.82758,0.1546,0.83736
495.647,54.66941,-2.8289,0.15365,0.83692
496.347,54.73891,-2.82921,0.1539,0.83648
497.047,54.8084,-2.8289,0.15574,0.83603
497.747,54.8777,-2.83023,0.1567,0.83559
498.447,54.9473,-2.83154,0.15615,0.83515
499.147,55.0168,-2.83153,0.1568,0.8347
499.847,55.08616,-2.83286,0.15833,0.83426
500.547,55.15557,-2.83417,0.15671,0.83381
501.247,55.225,-2.83417,0.15883,0.83336
501.947,55.29455,-2.83543,0.16209,0.83292
502.647,55.36419,-2.83685,0.16193,0.83247
503.347,55.43391,-2.83817,0.16131,0.83202
504.047,55.5035,-2.83911,0.16246,0.83158
504.747,55.5731,-2.84033,0.16034,0.83113
505.447,55.6426,-2.84043,0.1625,0.83068
506.147,55.71239,-2.83907,0.16593,0.83023
506.847,55.78196,-2.84042,0.16599,0.82978
507.547,55.85148,-2.84042,0.16739,0.82933
508.247,55.9208,-2.84174,0.17506,0.82888
508.947,55.99043,-2.84183,0.17556,0.82843
509.647,56.06,-2.84306,0.17841,0.82798
510.347,56.1291,-2.84437,0.18275,0.82753
511.047,56.19848,-2.84569,0.1841,0.82708
511.747,56.2679,-2.847,0.18563,0.82662
512.447,56.33794,-2.84832,0.19106,0.82617
513.147,56.4071,-2.84963,0.19076,0.82572
513.847,56.47651,-2.84964,0.19416,0.82526
514.547,56.5458,-2.84964,0.19538,0.82481
515.247,56.6154,-2.84964,0.19849,0.82436
515.947,56.6847,-2.84884,0.19765,0.8239
516.647,56.75394,-2.85095,0.19928,0.82345
517.347,56.82334,-2.85194,0.20101,0.82299
518.047,56.8927,-2.85191,0.20199,0.82253
518.747,56.9619,-2.85287,0.20564,0.82208
519.447,57.031,-2.85359,0.20344,0.82162
520.147,57.10029,-2.8549,0.20697,0.82116
520.847,57.1695,-2.85622,0.20983,0.8207
521.547,57.23879,-2.85559,0.2066,0.82025
522.247,57.30811,-2.85622,0.20754,0.81979
522.947,57.37766,-2.85706,0.20866,0.81933
523.647,57.44719,-2.85753,0.20962,0.81887
524.347,57.51656,-2.85753,0.21354,0.81841
525.047,57.5858,-2.85889,0.21378,0.81795
525.747,57.65529,-2.86015,0.21553,0.81749
526.447,57.7249,-2.86016,0.214,0.81703
527.147,57.79485,-2.86152,0.21538,0.81656
527.847,57.86467,-2.86148,0.21738,0.8161
528.547,57.9345,-2.86289,0.21619,0.81564
529.247,58.00428,-2.86218,0.2143,0.81518
529.947,58.0742,-2.86279,0.2162,0.81471
530.647,58.1441,-2.86279,0.21643,0.81425
531.347,58.2141,-2.86412,0.21437,0.81378
532.047,58.28397,-2.86412,0.21716,0.81332
532.747,58.35377,-2.86564,0.21699,0.81285
533.447,58.42363,-2.86609,0.21972,0.81239
534.147,58.4937,-2.86814,0.21726,0.81192
534.847,58.5637,-2.86806,0.21521,0.81146
535.547,58.6335,-2.86938,0.21506,0.81099
536.247,58.70325,-2.86974,0.2177,0.81052
536.947,58.77281,-2.86999,0.21641,0.81005
537.647,58.8426,-2.87071,0.21743,0.80958
538.347,58.9123,-2.87199,0.21706,0.80912
539.047,58.9821,-2.87202,0.21367,0.80865
539.747,59.05191,-2.87333,0.20929,0.80818
540.447,59.1214,-2.87381,0.20165,0.80771
541.147,59.1912,-2.87466,0.19894,0.80724
541.847,59.2608,-2.87465,0.19655,0.80676
542.547,59.33064,-2.87465,0.19362,0.80629
543.247,59.4003,-2.87596,0.18822,0.80582
543.947,59.47002,-2.87596,0.18943,0.80535
544.647,59.5398,-2.87727,0.18693,0.80488
545.347,59.6095,-2.87728,0.1851,0.8044
546.047,59.6792,-2.8786,0.18383,0.80393
546.747,59.74899,-2.8786,0.18249,0.80345
547.447,59.8187,-2.87991,0.18119,0.80298
548.147,59.88836,-2.87859,0.18026,0.8025
548.847,59.95799,-2.87919,0.18229,0.80203
549.547,60.02777,-2.8809,0.18187,0.80155
550.247,60.09763,-2.8809,0.17947,0.80108
550.947,60.16763,-2.88121,0.18438,0.8006
551.647,60.2375,-2.88189,0.18087,0.80012
552.347,60.30745,-2.88222,0.18109,0.79964
553.047,60.3775,-2.88341,0.18246,0.79917
553.747,60.4475,-2.88437,0.17825,0.79869
554.447,60.51765,-2.88485,0.17704,0.79821
555.147,60.58765,-2.88495,0.17561,0.79773
555.847,60.6578,-2.88484,0.17546,0.79725
556.547,60.7279,-2.88616,0.17483,0.79677
557.247,60.7979,-2.88616,0.17888,0.79629
557.947,60.86786,-2.88616,0.1769,0.79581
558.647,60.9378,-2.88748,0.17308,0.79532
559.347,61.00781,-2.88802,0.17596,0.79484
560.047,61.07785,-2.88879,0.17477,0.79436
560.747,61.14785,-2.88879,0.17728,0.79388
561.447,61.21785,-2.88879,0.17642,0.79339
562.147,61.28771,-2.88879,0.17305,0.79291
562.847,61.35755,-2.8911,0.17235,0.79242
563.547,61.42756,-2.8911,0.17655,0.79194
564.247,61.49735,-2.89163,0.17481,0.79145
564.947,61.5674,-2.89106,0.17767,0.79097
565.647,61.6375,-2.89242,0.17688,0.79048
566.347,61.7078,-2.89308,0.17963,0.79
567.047,61.7778,-2.89465,0.17697,0.78951
567.747,61.8478,-2.89367,0.17781,0.78902
568.447,61.91791,-2.89505,0.17661,0.78853
569.147,61.9881,-2.89603,0.17601,0.78804
569.847,62.05831,-2.89694,0.17503,0.78755
570.547,62.1286,-2.89603,0.17501,0.78706
571.247,62.1989,-2.89735,0.17571,0.78657
571.947,62.2691,-2.89735,0.17701,0.78608
572.647,62.3392,-2.89768,0.17734,0.78559
573.347,62.4093,-2.89867,0.1738,0.7851
574.047,62.47955,-2.89867,0.17394,0.78461
574.747,62.54922,-2.89966,0.17352,0.78412
575.447,62.6193,-2.89867,0.17511,0.78363
576.147,62.6893,-2.89899,0.17592,0.78313
576.847,62.7599,-2.89997,0.17388,0.78264
577.547,62.83024,-2.90031,0.17449,0.78214
578.247,62.9005,-2.9003,0.17271,0.78165
578.947,62.97068,-2.90163,0.17401,0.78116
579.647,63.04064,-2.90294,0.17489,0.78066
580.347,63.11062,-2.90261,0.1729,0.78016
581.047,63.1807,-2.90261,0.17525,0.77967
581.747,63.25071,-2.90341,0.17477,0.77917
582.447,63.32063,-2.90261,0.17629,0.77867
583.147,63.39036,-2.90393,0.17807,0.77818
583.847,63.46018,-2.90393,0.18003,0.77768
584.547,63.53021,-2.90393,0.17684,0.77718
585.247,63.6004,-2.90523,0.17881,0.77668
585.947,63.67055,-2.90524,0.18345,0.77618
586.647,63.7407,-2.90623,0.18224,0.77568
587.347,63.81074,-2.90657,0.18388,0.77518
588.047,63.88086,-2.90787,0.18589,0.77468
588.747,63.9507,-2.90919,0.18621,0.77418
589.447,64.02069,-2.91052,0.18592,0.77368
590.147,64.0908,-2.91051,0.18753,0.77317
590.847,64.1612,-2.91051,0.18448,0.77267
591.547,64.23154,-2.91009,0.1883,0.77217
592.247,64.30184,-2.91117,0.19013,0.77166
592.947,64.37214,-2.91207,0.18671,0.77116
593.647,64.44227,-2.9138,0.19222,0.77066
594.347,64.5126,-2.91252,0.19207,0.77015
595.047,64.5828,-2.91242,0.19195,0.76964
595.747,64.65334,-2.91382,0.19435,0.76914
596.447,64.72367,-2.91446,0.19307,0.76863
597.147,64.7941,-2.91531,0.19749,0.76813
597.847,64.8645,-2.91577,0.19868,0.76762
598.547,64.93502,-2.91645,0.20165,0.76711
599.247,65.0056,-2.91579,0.20336,0.7666
599.947,65.07604,-2.91573,0.20373,0.76609
600.647,65.14658,-2.91709,0.20448,0.76558
601.347,65.2173,-2.91841,0.20563,0.76507
602.047,65.28803,-2.91741,0.20845,0.76456
602.747,65.35868,-2.91874,0.20673,0.76405
603.447,65.4291,-2.91874,0.2089,0.76354
604.147,65.49964,-2.92005,0.2123,0.76303
604.847,65.57005,-2.92104,0.21395,0.76252
605.547,65.64035,-2.92104,0.21598,0.76201
606.247,65.71078,-2.92116,0.21649,0.7615
606.947,65.78134,-2.92237,0.21918,0.76098
607.647,65.85207,-2.92237,0.219,0.76047
608.347,65.9224,-2.92334,0.22544,0.75995
609.047,65.99253,-2.92334,0.2242,0.75944
609.747,66.0628,-2.92367,0.22841,0.75892
610.447,66.13309,-2.92499,0.2295,0.75841
611.147,66.20358,-2.926,0.23234,0.75789
611.847,66.2739,-2.92767,0.23158,0.75738
612.547,66.34429,-2.92728,0.23595,0.75686
613.247,66.4145,-2.92686,0.24021,0.75634
613.947,66.48488,-2.92831,0.23958,0.75582
614.647,66.55519,-2.92828,0.2429,0.75531
615.347,66.62569,-2.92959,0.24537,0.75479
616.047,66.6961,-2.93091,0.24964,0.75427
616.747,66.76656,-2.93221,0.25039,0.75375
617.447,66.837,-2.93139,0.25169,0.75323
618.147,66.90724,-2.93223,0.25328,0.75271
618.847,66.97729,-2.93303,0.25537,0.75219
619.547,67.04709,-2.93354,0.25809,0.75167
620.247,67.11714,-2.93434,0.26172,0.75114
620.947,67.18723,-2.93486,0.26489,0.75062
621.647,67.25757,-2.93617,0.26992,0.7501
622.347,67.32762,-2.93526,0.27004,0.74958
623.047,67.3978,-2.93674,0.27267,0.74905
623.747,67.468,-2.93915,0.27304,0.74853
624.447,67.5381,-2.93914,0.27344,0.748
625.147,67.60839,-2.93974,0.27885,0.74748
625.847,67.6786,-2.94046,0.28373,0.74695
626.547,67.74896,-2.94079,0.28501,0.74643
627.247,67.8193,-2.9408,0.28885,0.7459
627.947,67.88969,-2.94211,0.29084,0.74537
628.647,67.9601,-2.94211,0.29311,0.74485
629.347,68.0303,-2.94286,0.29713,0.74432
630.047,68.10074,-2.94474,0.29909,0.74379
630.747,68.1713,-2.94473,0.30223,0.74326
631.447,68.24189,-2.94473,0.30734,0.74273
632.147,68.31229,-2.94521,0.31123,0.7422
632.847,68.38256,-2.94637,0.31544,0.74167
633.547,68.45268,-2.94641,0.31889,0.74114
634.247,68.52288,-2.94901,0.32095,0.74061
634.947,68.59334,-2.95032,0.32287,0.74008
635.647,68.66385,-2.9504,0.32671,0.73955
636.347,68.73434,-2.95172,0.33227,0.73902
637.047,68.80457,-2.95296,0.33424,0.73848
637.747,68.87475,-2.95296,0.3427,0.73795
638.447,68.94481,-2.95426,0.34068,0.73742
639.147,69.01479,-2.95543,0.34875,0.73688
639.847,69.08496,-2.95697,0.34999,0.73635
640.547,69.15533,-2.95701,0.35743,0.73581
641.247,69.22579,-2.95833,0.36168,0.73528
641.947,69.2963,-2.95964,0.36438,0.73474
642.647,69.3668,-2.96101,0.36896,0.73421
643.347,69.43736,-2.96045,0.37373,0.73367
644.047,69.50792,-2.96097,0.38129,0.73313
644.747,69.57839,-2.96229,0.37962,0.73259
645.447,69.6489,-2.96424,0.38592,0.73206
646.147,69.71946,-2.96493,0.39401,0.73152
646.847,69.79012,-2.96755,0.39705,0.73098
647.547,69.8604,-2.96892,0.39898,0.73044
648.247,69.93097,-2.96883,0.40388,0.7299
648.947,70.0014,-2.97022,0.40834,0.72936
649.647,70.07207,-2.97149,0.41482,0.72882
650.347,70.14269,-2.97351,0.41859,0.72828
651.047,70.21332,-2.97489,0.42286,0.72774
651.747,70.28389,-2.97536,0.4263,0.72719
652.447,70.35418,-2.97801,0.43133,0.72665
653.147,70.42456,-2.97816,0.43481,0.72611
653.847,70.49505,-2.97943,0.43776,0.72557
654.547,70.56551,-2.98071,0.44475,0.72502
655.247,70.63583,-2.98072,0.44596,0.72448
655.947,70.70614,-2.98198,0.4505,0.72393
656.647,70.7765,-2.98575,0.45711,0.72339
657.347,70.8468,-2.98602,0.45869,0.72284
658.047,70.9173,-2.98749,0.46323,0.7223
658.747,70.9876,-2.98862,0.47059,0.72175
659.447,71.0582,-2.9909,0.47394,0.7212
660.147,71.12867,-2.99224,0.47968,0.72066
660.847,71.19911,-2.99355,0.48171,0.72011
661.547,71.26975,-2.99425,0.48324,0.71956
662.247,71.3403,-2.99618,0.48849,0.71901
662.947,71.41115,-2.99749,0.49196,0.71846
663.647,71.482,-3.00032,0.4973,0.71791
664.347,71.55279,-3.00156,0.49866,0.71736
665.047,71.6237,-3.00155,0.50208,0.71681
665.747,71.69461,-3.00281,0.50235,0.71626
666.447,71.76572,-3.00569,0.50727,0.71571
667.147,71.83652,-3.00761,0.50875,0.71516
667.847,71.90723,-3.00839,0.50913,0.71461
668.547,71.97756,-3.01109,0.51152,0.71406
669.247,72.04807,-3.01266,0.51368,0.7135
669.947,72.11867,-3.01373,0.51086,0.71295
670.647,72.18935,-3.01505,0.51599,0.7124
671.347,72.26009,-3.01636,0.51298,0.71184
672.047,72.33069,-3.01774,0.51359,0.71129
672.747,72.4017,-3.02032,0.51078,0.71073
673.447,72.47232,-3.02099,0.51009,0.71018
674.147,72.54297,-3.02308,0.50641,0.70962
674.847,72.61332,-3.02485,0.49945,0.70906
675.547,72.68382,-3.02551,0.49798,0.70851
676.247,72.75454,-3.02713,0.494,0.70795
676.947,72.82517,-3.02976,0.48962,0.70739
677.647,72.89583,-3.03106,0.48375,0.70684
678.347,72.96636,-3.03107,0.48121,0.70628
679.047,73.03713,-3.03286,0.4758,0.70572
679.747,73.10792,-3.03457,0.46546,0.70516
680.447,73.17856,-3.03632,0.46559,0.7046
681.147,73.24899,-3.03731,0.45994,0.70404
681.847,73.31966,-3.03863,0.46017,0.70348
682.547,73.39036,-3.03992,0.45687,0.70292
683.247,73.4611,-3.04126,0.45416,0.70236
683.947,73.53171,-3.04258,0.45058,0.70179
684.647,73.60246,-3.04372,0.44437,0.70123
685.347,73.6731,-3.04422,0.44473,0.70067
686.047,73.74353,-3.04461,0.43685,0.70011
686.747,73.81393,-3.04657,0.43153,0.69954
687.447,73.88436,-3.04959,0.42032,0.69898
688.147,73.95459,-3.05103,0.41053,0.69842
688.847,74.02498,-3.05135,0.39514,0.69785
689.547,74.09536,-3.05266,0.38022,0.69729
690.247,74.16592,-3.05266,0.36401,0.69672
690.947,74.23635,-3.05401,0.33823,0.69615
691.647,74.30695,-3.05534,0.31032,0.69559
692.347,74.37764,-3.0553,0.27838,0.69502
693.047,74.44834,-3.05661,0.25691,0.69445
693.747,74.51889,-3.05662,0.23908,0.69389
694.447,74.5893,-3.0553,0.22945,0.69332
695.147,74.65992,-3.05661,0.2233,0.69275
695.847,74.73079,-3.05727,0.22132,0.69218
696.547,74.8019,-3.05727,0.21868,0.69161
697.247,74.8728,-3.05727,0.21499,0.69104
697.947,74.94395,-3.05733,0.21882,0.69047
698.647,75.01478,-3.05787,0.21868,0.6899
699.347,75.08543,-3.05793,0.2187,0.68933
700.047,75.1562,-3.05784,0.21802,0.68876
700.747,75.22708,-3.05925,0.21738,0.68819
701.447,75.29814,-3.05925,0.21583,0.68762
702.147,75.36885,-3.05859,0.21261,0.68705
702.847,75.43974,-3.05897,0.21515,0.68647
703.547,75.51058,-3.05991,0.21104,0.6859
704.247,75.58125,-3.05989,0.21113,0.68533
704.947,75.65224,-3.06122,0.21073,0.68475
705.647,75.72324,-3.05986,0.21231,0.68418
706.347,75.79446,-3.06131,0.21453,0.6836
707.047,75.8655,-3.06122,0.21018,0.68303
707.747,75.93648,-3.06122,0.20973,0.68245
708.447,76.0074,-3.06122,0.21015,0.68188
709.147,76.07835,-3.06255,0.21025,0.6813
709.847,76.1493,-3.06254,0.20613,0.68072
710.547,76.2203,-3.06254,0.20757,0.68015
711.247,76.29092,-3.06254,0.20683,0.67957
711.947,76.36163,-3.06325,0.21178,0.67899
712.647,76.4323,-3.06231,0.20685,0.67841
713.347,76.5032,-3.06298,0.20315,0.67783
714.047,76.57406,-3.06429,0.20442,0.67725
714.747,76.64488,-3.06332,0.20526,0.67668
715.447,76.71561,-3.06297,0.20232,0.6761
716.147,76.7864,-3.06297,0.20239,0.67552
716.847,76.85719,-3.06296,0.20279,0.67493
717.547,76.9281,-3.06298,0.20447,0.67435
718.247,76.99894,-3.06361,0.2011,0.67377
718.947,77.06975,-3.06528,0.20145,0.67319
719.647,77.14061,-3.06485,0.20362,0.67261
720.347,77.2115,-3.0643,0.19943,0.67203
721.047,77.28245,-3.06493,0.20353,0.67144
721.747,77.35342,-3.06626,0.20158,0.67086
722.447,77.42443,-3.06697,0.1988,0.67028
723.147,77.49543,-3.06561,0.20073,0.66969
723.847,77.56626,-3.06806,0.19761,0.66911
724.547,77.63725,-3.06775,0.19816,0.66852
725.247,77.70827,-3.06814,0.19549,0.66794
725.947,77.77897,-3.06814,0.19927,0.66735
726.647,77.84995,-3.06745,0.19856,0.66677
727.347,77.92109,-3.06748,0.19765,0.66618
728.047,77.99275,-3.0688,0.19406,0.66559
728.747,78.06392,-3.06879,0.19848,0.66501
729.447,78.1349,-3.06879,0.19498,0.66442
730.147,78.20602,-3.06977,0.19738,0.66383
730.847,78.27708,-3.06846,0.19843,0.66324
731.547,78.3482,-3.0684,0.19398,0.66266
732.247,78.4191,-3.07011,0.19882,0.66207
732.947,78.49002,-3.0701,0.19961,0.66148
733.647,78.56104,-3.07011,0.19537,0.66089
734.347,78.6322,-3.0714,0.1967,0.6603
735.047,78.70348,-3.07065,0.19624,0.65971
735.747,78.77465,-3.07011,0.19436,0.65912
736.447,78.84561,-3.07011,0.19526,0.65853
737.147,78.9165,-3.0701,0.19097,0.65793
737.847,78.98746,-3.07142,0.1892,0.65734
738.547,79.05848,-3.07142,0.18903,0.65675
739.247,79.12949,-3.0701,0.19012,0.65616
739.947,79.2003,-3.07141,0.19087,0.65557
740.647,79.27109,-3.07119,0.18636,0.65497
741.347,79.342,-3.07107,0.18752,0.65438
742.047,79.41325,-3.07142,0.1876,0.65379
742.747,79.48448,-3.07142,0.18745,0.65319
743.447,79.5555,-3.07271,0.18551,0.6526
744.147,79.6264,-3.07405,0.18869,0.652
744.847,79.69719,-3.07404,0.18405,0.65141
745.547,79.76816,-3.07273,0.18649,0.65081
746.247,79.83856,-3.07273,0.18507,0.65022
746.947,79.90978,-3.07311,0.18243,0.64962
747.647,79.98071,-3.07405,0.18694,0.64902
748.347,80.0522,-3.07274,0.17861,0.64843
749.047,80.12307,-3.07308,0.17913,0.64783
749.747,80.19404,-3.07536,0.18259,0.64723
750.447,80.2651,-3.07544,0.17922,0.64663
751.147,80.33624,-3.07406,0.18217,0.64603
751.847,80.40733,-3.07282,0.18277,0.64544
752.547,80.47828,-3.07354,0.1823,0.64484
753.247,80.54942,-3.07439,0.18373,0.64424
753.947,80.6208,-3.0757,0.18377,0.64364
754.647,80.69225,-3.0757,0.18226,0.64304
755.347,80.7633,-3.07571,0.18032,0.64244
756.047,80.83451,-3.07471,0.18367,0.64184
756.747,80.90584,-3.07433,0.18198,0.64124
757.447,80.97725,-3.07244,0.18047,0.64064
758.147,81.04828,-3.07504,0.17865,0.64003
758.847,81.11905,-3.07636,0.18124,0.63943
759.547,81.18992,-3.07602,0.17938,0.63883
760.247,81.26088,-3.07591,0.18187,0.63823
760.947,81.33166,-3.07558,0.17836,0.63762
761.647,81.40253,-3.07537,0.17972,0.63702
762.347,81.47354,-3.07537,0.17843,0.63642
763.047,81.545,-3.07405,0.18334,0.63581
763.747,81.61612,-3.07564,0.1807,0.63521
764.447,81.68709,-3.07597,0.1805,0.6346
765.147,81.7582,-3.07635,0.18522,0.634
765.847,81.82945,-3.07635,0.18111,0.63339
766.547,81.90061,-3.07634,0.17548,0.63279
767.247,81.97188,-3.07504,0.18165,0.63218
767.947,82.04298,-3.07604,0.18039,0.63158
768.647,82.1144,-3.07603,0.1759,0.63097
769.347,82.18553,-3.07606,0.18,0.63036
770.047,82.2569,-3.07735,0.17862,0.62976
770.747,82.32797,-3.07735,0.17764,0.62915
771.447,82.39915,-3.07735,0.17886,0.62854
772.147,82.4703,-3.0783,0.17934,0.62793
772.847,82.54162,-3.07702,0.17537,0.62733
773.547,82.61307,-3.07694,0.1755,0.62672
774.247,82.68449,-3.07834,0.17406,0.62611
774.947,82.75581,-3.07835,0.17686,0.6255
775.647,82.8269,-3.07702,0.17421,0.62489
776.347,82.89795,-3.07734,0.17496,0.62428
777.047,82.96892,-3.07802,0.17289,0.62367
777.747,83.04012,-3.07767,0.17608,0.62306
778.447,83.1113,-3.07767,0.17663,0.62245
779.147,83.1826,-3.07763,0.17144,0.62184
779.847,83.25372,-3.07899,0.17486,0.62123
780.547,83.32474,-3.07899,0.17292,0.62061
781.247,83.39585,-3.07899,0.17393,0.62
781.947,83.46705,-3.07899,0.17655,0.61939
782.647,83.53833,-3.07866,0.17611,0.61878
783.347,83.60936,-3.07866,0.17939,0.61817
784.047,83.68041,-3.07866,0.17388,0.61755
784.747,83.7514,-3.07997,0.17096,0.61694
785.447,83.82263,-3.07997,0.17239,0.61633
786.147,83.89368,-3.07861,0.17437,0.61571
786.847,83.96469,-3.07866,0.17277,0.6151
787.547,84.03571,-3.07866,0.17482,0.61448
788.247,84.10689,-3.08,0.16938,0.61387
788.947,84.17814,-3.07965,0.17333,0.61325
789.647,84.24937,-3.07965,0.17576,0.61264
790.347,84.32065,-3.07965,0.17352,0.61202
791.047,84.39179,-3.07965,0.17162,0.61141
791.747,84.46292,-3.07998,0.17165,0.61079
792.447,84.53399,-3.07898,0.16814,0.61017
793.147,84.60508,-3.08064,0.171,0.60956
793.847,84.6763,-3.0812,0.17142,0.60894
794.547,84.7476,-3.0803,0.17201,0.60832
795.247,84.819,-3.0803,0.17425,0.60771
795.947,84.89035,-3.08167,0.1744,0.60709
796.647,84.96146,-3.08162,0.17167,0.60647
797.347,85.03262,-3.08162,0.17208,0.60585
798.047,85.10364,-3.08192,0.17087,0.60523
798.747,85.1746,-3.08064,0.1705,0.60461
799.447,85.24535,-3.08064,0.16734,0.604
800.147,85.31596,-3.08283,0.17084,0.60338
800.847,85.38691,-3.08163,0.17235,0.60276
801.547,85.45782,-3.0814,0.17031,0.60214
802.247,85.5287,-3.08031,0.16952,0.60152
802.947,85.59952,-3.08031,0.17139,0.6009
803.647,85.67042,-3.0827,0.17189,0.60028
804.347,85.7415,-3.08294,0.16971,0.59966
805.047,85.8124,-3.08294,0.16964,0.59903
805.747,85.88378,-3.08032,0.17076,0.59841
806.447,85.95536,-3.08162,0.16752,0.59779
807.147,86.02685,-3.08162,0.17171,0.59717
807.847,86.09822,-3.08393,0.17078,0.59655
808.547,86.1695,-3.08393,0.16714,0.59593
809.247,86.24087,-3.08261,0.16671,0.5953
809.947,86.31219,-3.08398,0.1712,0.59468
810.647,86.3835,-3.08393,0.16973,0.59406
811.347,86.4547,-3.08393,0.16959,0.59343
812.047,86.52577,-3.08393,0.17094,0.59281
812.747,86.5967,-3.08393,0.16873,0.59219
813.447,86.66802,-3.08284,0.16925,0.59156
814.147,86.7394,-3.08392,0.17069,0.59094
814.847,86.81096,-3.08499,0.16767,0.59031
815.547,86.8823,-3.08491,0.1657,0.58969
816.247,86.9537,-3.08491,0.17417,0.58906
816.947,87.02505,-3.08364,0.17081,0.58844
817.647,87.09636,-3.0836,0.17138,0.58781
818.347,87.16804,-3.08459,0.17305,0.58719
819.047,87.23965,-3.08459,0.17324,0.58656
819.747,87.31147,-3.08589,0.17439,0.58594
820.447,87.38294,-3.08492,0.17269,0.58531
821.147,87.45437,-3.08492,0.174,0.58468
821.847,87.5257,-3.0859,0.17785,0.58406
822.547,87.59697,-3.08722,0.17359,0.58343
823.247,87.66852,-3.08722,0.17226,0.5828
823.947,87.73996,-3.08722,0.17198,0.58217
824.647,87.8116,-3.08656,0.17195,0.58155
825.347,87.88306,-3.08656,0.17398,0.58092
826.047,87.9547,-3.08678,0.17527,0.58029
826.747,88.02615,-3.0873,0.17578,0.57966
827.447,88.0979,-3.0882,0.17708,0.57903
828.147,88.16956,-3.08556,0.17484,0.57841
828.847,88.24118,-3.08558,0.17634,0.57778
829.547,88.3125,-3.08821,0.17394,0.57715
830.247,88.38368,-3.08818,0.17607,0.57652
830.947,88.45486,-3.08688,0.17547,0.57589
831.647,88.5261,-3.08788,0.17896,0.57526
832.347,88.5975,-3.08951,0.17581,0.57463
833.047,88.66886,-3.08952,0.1764,0.574
833.747,88.7402,-3.0882,0.17794,0.57337
834.447,88.81146,-3.0882,0.17632,0.57274
835.147,88.88283,-3.08891,0.17616,0.57211
835.847,88.95398,-3.08952,0.17238,0.57148
836.547,89.02512,-3.08952,0.17791,0.57085
837.247,89.09631,-3.08821,0.18045,0.57022
837.947,89.16744,-3.08952,0.17737,0.56958
838.647,89.23855,-3.08952,0.17689,0.56895
839.347,89.30954,-3.09014,0.17935,0.56832
840.047,89.38084,-3.08912,0.17941,0.56769
840.747,89.45217,-3.08887,0.17193,0.56706
841.447,89.5236,-3.08886,0.17828,0.56642
842.147,89.59465,-3.09018,0.17864,0.56579
842.847,89.6659,-3.0896,0.1742,0.56516
843.547,89.73731,-3.08999,0.1773,0.56453
844.247,89.80887,-3.0902,0.17109,0.56389
844.947,89.88024,-3.0892,0.16895,0.56326
845.647,89.95167,-3.09051,0.17249,0.56263
846.047,89.99297,-3.09051,0.1678,0.56226