File: 01_Data/Pine_Lap_Siding/STA/N2/10K_min/Pine_Lap_Siding_STA_N2_10KData_220322_R2.csv
##Temp./Â°C,Time/min,Mass loss(subtr.2)/mg,DSC(subtr.2)/(mW/mg),Sensit./(uV/mW)
49.701,10.00917,-0.06735,0.0268502,1.07515
50.401,10.77095,-0.07018281,0.05958879,1.07479
51.101,10.97011,-0.07144932,0.08633906,1.07443
51.801,11.1203,-0.07040104,0.10629,1.07406
52.501,11.24789,-0.07113227,0.12419,1.0737
53.201,11.36235,-0.07021164,0.14024,1.07333
53.901,11.4681,-0.07461133,0.1539,1.07297
54.601,11.56667,-0.07341437,0.16708,1.0726
55.301,11.661,-0.07409151,0.17774,1.07224
56.001,11.7517,-0.07285417,0.18833,1.07187
56.701,11.83968,-0.07332072,0.19428,1.07151
57.401,11.9253,-0.07429871,0.20409,1.07115
58.101,12.00884,-0.0748279,0.20915,1.07078
58.801,12.09094,-0.07412785,0.21815,1.07042
59.501,12.17222,-0.07566232,0.22191,1.07005
60.201,12.25234,-0.07582007,0.2267,1.06969
60.901,12.33162,-0.07604516,0.23254,1.06933
61.601,12.4101,-0.07687229,0.2388,1.06896
62.301,12.48809,-0.0769101,0.2416,1.0686
63.001,12.56542,-0.07841429,0.24697,1.06824
63.701,12.64221,-0.07835187,0.25016,1.06787
64.401,12.7185,-0.07820192,0.25441,1.06751
65.101,12.79477,-0.07834576,0.25708,1.06714
65.801,12.87084,-0.07951005,0.26004,1.06678
66.501,12.9467,-0.07837988,0.26521,1.06642
67.201,13.02218,-0.08089482,0.26891,1.06606
67.901,13.0977,-0.08119204,0.27272,1.06569
68.601,13.17291,-0.08080124,0.27496,1.06533
69.301,13.24775,-0.08123356,0.27761,1.06497
70.001,13.32259,-0.08211632,0.27609,1.0646
70.701,13.39725,-0.08347029,0.28148,1.06424
71.401,13.4717,-0.08477704,0.28405,1.06388
72.101,13.5456,-0.08481832,0.28805,1.06352
72.801,13.6198,-0.08482103,0.29113,1.06315
73.501,13.6936,-0.08610815,0.29408,1.06279
74.201,13.7674,-0.08510467,0.29627,1.06243
74.901,13.84084,-0.08641314,0.29689,1.06207
75.601,13.91451,-0.08775024,0.30032,1.06171
76.301,13.98805,-0.08774626,0.30226,1.06134
77.001,14.06095,-0.08871855,0.30571,1.06098
77.701,14.1338,-0.08874705,0.30873,1.06062
78.401,14.20646,-0.09006028,0.31044,1.06026
79.101,14.27935,-0.09006,0.31502,1.0599
79.801,14.3516,-0.09005685,0.31549,1.05953
80.501,14.42399,-0.09138315,0.31846,1.05917
81.201,14.4961,-0.09176068,0.32067,1.05881
81.901,14.56807,-0.0930198,0.32184,1.05845
82.601,14.63967,-0.09301985,0.32337,1.05809
83.301,14.71124,-0.09367158,0.32365,1.05773
84.001,14.78266,-0.094036,0.32655,1.05737
84.701,14.85324,-0.09530598,0.324,1.05701
85.401,14.92424,-0.09579002,0.32722,1.05664
86.101,14.9954,-0.09533728,0.32605,1.05628
86.801,15.0671,-0.09658117,0.32522,1.05592
87.501,15.138,-0.09895086,0.32331,1.05556
88.201,15.2088,-0.09894,0.32369,1.0552
88.901,15.27927,-0.09894,0.32503,1.05484
89.601,15.3495,-0.10027,0.32391,1.05448
90.301,15.4197,-0.0989395,0.32395,1.05412
91.001,15.49001,-0.10026,0.32546,1.05376
91.701,15.56015,-0.10158,0.32091,1.0534
92.401,15.6303,-0.10159,0.32109,1.05304
93.101,15.69999,-0.10289,0.31913,1.05268
93.801,15.7699,-0.10291,0.31841,1.05232
94.501,15.83927,-0.10421,0.31753,1.05196
95.201,15.9088,-0.10289,0.31767,1.0516
95.901,15.97775,-0.10415,0.31332,1.05124
96.601,16.0471,-0.10552,0.31346,1.05088
97.301,16.1162,-0.10564,0.31273,1.05052
98.001,16.1858,-0.10551,0.3119,1.05016
98.701,16.2551,-0.10685,0.31081,1.0498
99.401,16.3242,-0.10549,0.30888,1.04944
100.101,16.39317,-0.10684,0.30645,1.04908
100.801,16.4618,-0.10683,0.30612,1.04872
101.501,16.5306,-0.10815,0.30335,1.04836
102.201,16.5993,-0.10684,0.30247,1.048
102.901,16.66822,-0.10816,0.29841,1.04764
103.601,16.73712,-0.10816,0.2965,1.04729
104.301,16.8062,-0.10945,0.29752,1.04693
105.001,16.8749,-0.10936,0.29482,1.04657
105.701,16.94349,-0.10947,0.29294,1.04621
106.401,17.01193,-0.10947,0.29051,1.04585
107.101,17.08034,-0.10947,0.29049,1.04549
107.801,17.14876,-0.10946,0.29008,1.04513
108.501,17.21717,-0.10942,0.28936,1.04477
109.201,17.28539,-0.1121,0.28736,1.04442
109.901,17.35409,-0.1121,0.2862,1.04406
110.601,17.4226,-0.1121,0.28502,1.0437
111.301,17.49129,-0.1121,0.28288,1.04334
112.001,17.5594,-0.1121,0.28299,1.04298
112.701,17.62764,-0.11302,0.28183,1.04263
113.401,17.69598,-0.11225,0.28306,1.04227
114.101,17.76453,-0.11336,0.28149,1.04191
114.801,17.83298,-0.11341,0.27971,1.04155
115.501,17.9013,-0.11206,0.27758,1.04119
116.201,17.96966,-0.11342,0.27839,1.04084
116.901,18.03804,-0.11342,0.2792,1.04048
117.601,18.10644,-0.11301,0.27946,1.04012
118.301,18.17456,-0.11342,0.27845,1.03976
119.001,18.24277,-0.11341,0.28048,1.03941
119.701,18.311,-0.11362,0.2777,1.03905
120.401,18.37945,-0.11474,0.27938,1.03869
121.101,18.44771,-0.11473,0.2787,1.03833
121.801,18.51592,-0.11473,0.27858,1.03798
122.501,18.58407,-0.11473,0.28141,1.03762
123.201,18.65214,-0.11487,0.27993,1.03726
123.901,18.72014,-0.11473,0.27962,1.03691
124.601,18.78809,-0.1147,0.28099,1.03655
125.301,18.85644,-0.11605,0.28127,1.03619
126.001,18.92466,-0.11603,0.28299,1.03584
126.701,18.99308,-0.11508,0.28248,1.03548
127.401,19.0611,-0.11605,0.28172,1.03512
128.101,19.12941,-0.11605,0.28332,1.03477
128.801,19.1975,-0.11523,0.28243,1.03441
129.501,19.2654,-0.11605,0.28361,1.03405
130.201,19.33324,-0.11463,0.28209,1.0337
130.901,19.4009,-0.11573,0.28526,1.03334
131.601,19.46876,-0.11572,0.28654,1.03299
132.301,19.5366,-0.11569,0.28716,1.03263
133.001,19.60452,-0.11605,0.28791,1.03227
133.701,19.67238,-0.11605,0.2894,1.03192
134.401,19.73997,-0.11736,0.28812,1.03156
135.101,19.8076,-0.11736,0.28981,1.03121
135.801,19.87509,-0.11872,0.29106,1.03085
136.501,19.94282,-0.11738,0.28953,1.03049
137.201,20.01059,-0.11737,0.2917,1.03014
137.901,20.07846,-0.11737,0.29018,1.02978
138.601,20.14609,-0.11647,0.29214,1.02943
139.301,20.2138,-0.11736,0.29352,1.02907
140.001,20.2815,-0.11736,0.29233,1.02872
140.701,20.34918,-0.11868,0.2922,1.02836
141.401,20.41702,-0.11868,0.29354,1.028
142.101,20.48475,-0.11737,0.29077,1.02765
142.801,20.5524,-0.11703,0.29224,1.02729
143.501,20.61986,-0.11726,0.29312,1.02694
144.201,20.68744,-0.11859,0.29355,1.02658
144.901,20.75509,-0.11954,0.2936,1.02623
145.601,20.8228,-0.11968,0.2937,1.02587
146.301,20.8906,-0.11857,0.29366,1.02552
147.001,20.9584,-0.11989,0.29612,1.02516
147.701,21.02615,-0.11989,0.29761,1.02481
148.401,21.09375,-0.11989,0.29743,1.02445
149.101,21.1612,-0.11989,0.29764,1.0241
149.801,21.22909,-0.12054,0.29884,1.02375
150.501,21.2968,-0.12054,0.29842,1.02339
151.201,21.36451,-0.12054,0.29811,1.02304
151.901,21.43187,-0.12054,0.30179,1.02268
152.601,21.49919,-0.12054,0.29997,1.02233
153.301,21.56664,-0.11983,0.30094,1.02197
154.001,21.63407,-0.1212,0.30276,1.02162
154.701,21.7014,-0.12121,0.30421,1.02126
155.401,21.76894,-0.12121,0.30336,1.02091
156.101,21.8366,-0.12121,0.30228,1.02056
156.801,21.90423,-0.12012,0.30401,1.0202
157.501,21.9714,-0.12022,0.30564,1.01985
158.201,22.03847,-0.12281,0.30652,1.01949
158.901,22.10585,-0.12191,0.30536,1.01914
159.601,22.1733,-0.12283,0.30713,1.01878
160.301,22.2405,-0.12285,0.30766,1.01843
161.001,22.30765,-0.12154,0.3053,1.01808
161.701,22.37495,-0.12148,0.3081,1.01772
162.401,22.44218,-0.12285,0.3094,1.01737
163.101,22.50931,-0.12285,0.30984,1.01701
163.801,22.57637,-0.12287,0.30934,1.01666
164.501,22.64344,-0.12088,0.31231,1.01631
165.201,22.71055,-0.12165,0.31241,1.01595
165.901,22.7777,-0.12219,0.31466,1.0156
166.601,22.84499,-0.12209,0.31443,1.01525
167.301,22.91221,-0.12351,0.31531,1.01489
168.001,22.97972,-0.12351,0.31373,1.01454
168.701,23.04695,-0.1236,0.31498,1.01419
169.401,23.11431,-0.12286,0.31643,1.01383
170.101,23.18141,-0.12384,0.31726,1.01348
170.801,23.2487,-0.12384,0.32026,1.01313
171.501,23.3159,-0.12397,0.31802,1.01277
172.201,23.38316,-0.12515,0.32003,1.01242
172.901,23.45,-0.12515,0.32182,1.01207
173.601,23.5171,-0.12515,0.3208,1.01171
174.301,23.58429,-0.12515,0.32095,1.01136
175.001,23.6516,-0.12515,0.32136,1.01101
175.701,23.7191,-0.12483,0.32386,1.01065
176.401,23.78611,-0.12482,0.32363,1.0103
177.101,23.85304,-0.12482,0.32545,1.00995
177.801,23.92,-0.12615,0.32515,1.00959
178.501,23.98699,-0.12713,0.326,1.00924
179.201,24.05431,-0.12713,0.32733,1.00889
179.901,24.12135,-0.12715,0.32733,1.00853
180.601,24.18819,-0.12582,0.32768,1.00818
181.301,24.25516,-0.12582,0.32751,1.00783
182.001,24.3221,-0.12467,0.33065,1.00747
182.701,24.38928,-0.12582,0.33204,1.00712
183.401,24.45607,-0.12647,0.33343,1.00677
184.101,24.52277,-0.12515,0.32983,1.00642
184.801,24.58954,-0.12515,0.33186,1.00606
185.501,24.65616,-0.12563,0.33222,1.00571
186.201,24.72295,-0.12577,0.33134,1.00536
186.901,24.7897,-0.12713,0.33404,1.005
187.601,24.8566,-0.12713,0.3334,1.00465
188.301,24.92313,-0.12715,0.33651,1.0043
189.001,24.99004,-0.12814,0.33555,1.00395
189.701,25.0569,-0.12844,0.33701,1.00359
190.401,25.12416,-0.12844,0.33766,1.00324
191.101,25.1908,-0.12915,0.33587,1.00289
191.801,25.2578,-0.12969,0.33529,1.00254
192.501,25.32463,-0.12991,0.33664,1.00218
193.201,25.39184,-0.13042,0.33537,1.00183
193.901,25.45873,-0.13042,0.33758,1.00148
194.601,25.52581,-0.13042,0.33729,1.00112
195.301,25.59255,-0.13042,0.33833,1.00077
196.001,25.6596,-0.13042,0.33564,1.00042
196.701,25.72687,-0.13089,0.33869,1.00007
197.401,25.79403,-0.13174,0.33689,0.99971
198.101,25.861,-0.13174,0.34082,0.99936
198.801,25.9274,-0.13174,0.33996,0.99901
199.501,25.99427,-0.13208,0.34113,0.99866
200.201,26.0613,-0.13305,0.34078,0.9983
200.901,26.1287,-0.13305,0.34171,0.99795
201.601,26.1956,-0.13473,0.34199,0.9976
202.301,26.26243,-0.13503,0.34246,0.99725
203.001,26.32944,-0.13503,0.3437,0.99689
203.701,26.39658,-0.13502,0.34404,0.99654
204.401,26.46391,-0.13635,0.34599,0.99619
205.101,26.53102,-0.13635,0.34607,0.99583
205.801,26.59801,-0.13635,0.3471,0.99548
206.501,26.66521,-0.13635,0.34477,0.99513
207.201,26.73228,-0.13635,0.34736,0.99478
207.901,26.79948,-0.13635,0.34808,0.99442
208.601,26.86644,-0.13699,0.35073,0.99407
209.301,26.9333,-0.137,0.34822,0.99372
210.001,27.0001,-0.137,0.34879,0.99337
210.701,27.06707,-0.13832,0.35101,0.99301
211.401,27.13393,-0.13897,0.34913,0.99266
212.101,27.2008,-0.13897,0.35092,0.99231
212.801,27.26735,-0.13897,0.35369,0.99195
213.501,27.33407,-0.13962,0.35294,0.9916
214.201,27.4009,-0.13996,0.35428,0.99125
214.901,27.46797,-0.13993,0.3538,0.9909
215.601,27.53482,-0.14128,0.35574,0.99054
216.301,27.60155,-0.14128,0.3562,0.99019
217.001,27.66822,-0.14128,0.35744,0.98984
217.701,27.7348,-0.14161,0.35863,0.98949
218.401,27.8015,-0.14161,0.35855,0.98913
219.101,27.8681,-0.14161,0.35782,0.98878
219.801,27.93467,-0.14378,0.36244,0.98843
220.501,28.0013,-0.14424,0.36164,0.98807
221.201,28.06803,-0.14555,0.36212,0.98772
221.901,28.1347,-0.14692,0.36201,0.98737
222.601,28.2014,-0.14688,0.36351,0.98701
223.301,28.26803,-0.14823,0.36352,0.98666
224.001,28.33495,-0.1472,0.36479,0.98631
224.701,28.4019,-0.14717,0.36387,0.98596
225.401,28.4687,-0.14851,0.36738,0.9856
226.101,28.5354,-0.14983,0.36606,0.98525
226.801,28.6021,-0.1498,0.36666,0.9849
227.501,28.66905,-0.15115,0.36843,0.98454
228.201,28.73576,-0.15214,0.369,0.98419
228.901,28.8024,-0.15219,0.37044,0.98384
229.601,28.86915,-0.15346,0.37092,0.98348
230.301,28.936,-0.1531,0.37245,0.98313
231.001,29.00297,-0.15444,0.37373,0.98278
231.701,29.0697,-0.15444,0.37241,0.98242
232.401,29.1366,-0.15707,0.37494,0.98207
233.101,29.20363,-0.15705,0.3764,0.98172
233.801,29.27041,-0.15682,0.37474,0.98136
234.501,29.33718,-0.15842,0.3782,0.98101
235.201,29.40383,-0.15972,0.37952,0.98066
235.901,29.47075,-0.16102,0.37876,0.9803
236.601,29.5376,-0.16102,0.38067,0.97995
237.301,29.6045,-0.16234,0.38273,0.97959
238.001,29.6713,-0.16364,0.38324,0.97924
238.701,29.73808,-0.16553,0.38433,0.97889
239.401,29.8049,-0.16706,0.38571,0.97853
240.101,29.8718,-0.16727,0.38821,0.97818
240.801,29.93845,-0.16869,0.38639,0.97782
241.501,30.00514,-0.17,0.38856,0.97747
242.201,30.0716,-0.17133,0.39012,0.97712
242.901,30.1385,-0.17227,0.3884,0.97676
243.601,30.20535,-0.17332,0.39221,0.97641
244.301,30.27242,-0.17627,0.39148,0.97605
245.001,30.3393,-0.17793,0.39235,0.9757
245.701,30.40587,-0.17956,0.39273,0.97535
246.401,30.4724,-0.18119,0.3951,0.97499
247.101,30.53896,-0.18252,0.39678,0.97464
247.801,30.6057,-0.18396,0.39494,0.97428
248.501,30.6725,-0.1852,0.39602,0.97393
249.201,30.7393,-0.18812,0.39589,0.97357
249.901,30.8059,-0.19044,0.3967,0.97322
250.601,30.87258,-0.19077,0.39679,0.97286
251.301,30.93957,-0.19207,0.39914,0.97251
252.001,31.00682,-0.19488,0.39817,0.97215
252.701,31.0737,-0.19682,0.39845,0.9718
253.401,31.1405,-0.1992,0.39535,0.97144
254.101,31.20723,-0.20133,0.39572,0.97109
254.801,31.274,-0.20288,0.39734,0.97073
255.501,31.3407,-0.20569,0.39856,0.97038
256.201,31.40724,-0.20689,0.39759,0.97002
256.901,31.47386,-0.20988,0.39848,0.96967
257.601,31.5406,-0.21206,0.39918,0.96931
258.301,31.60728,-0.21563,0.39991,0.96896
259.001,31.67398,-0.21871,0.39924,0.9686
259.701,31.7405,-0.22024,0.39837,0.96824
260.401,31.80715,-0.2239,0.40066,0.96789
261.101,31.874,-0.22556,0.39871,0.96753
261.801,31.94088,-0.22833,0.39976,0.96718
262.501,32.00764,-0.23122,0.40103,0.96682
263.201,32.0743,-0.23401,0.4022,0.96646
263.901,32.14099,-0.23724,0.40317,0.96611
264.601,32.20771,-0.24008,0.40355,0.96575
265.301,32.2744,-0.24352,0.40413,0.9654
266.001,32.34121,-0.24642,0.40559,0.96504
266.701,32.40782,-0.24905,0.40479,0.96468
267.401,32.4747,-0.25337,0.40606,0.96433
268.101,32.54155,-0.2563,0.40845,0.96397
268.801,32.60846,-0.25935,0.40997,0.96361
269.501,32.67504,-0.2626,0.40996,0.96326
270.201,32.7419,-0.26738,0.40851,0.9629
270.901,32.80891,-0.27068,0.41049,0.96254
271.601,32.87614,-0.27647,0.41073,0.96218
272.301,32.94303,-0.28151,0.41348,0.96183
273.001,33.0101,-0.28394,0.41383,0.96147
273.701,33.07693,-0.2888,0.4154,0.96111
274.401,33.144,-0.29221,0.41714,0.96075
275.101,33.21079,-0.29809,0.41509,0.9604
275.801,33.27782,-0.30211,0.41421,0.96004
276.501,33.34482,-0.30551,0.41605,0.95968
277.201,33.41171,-0.30977,0.4173,0.95932
277.901,33.4786,-0.31454,0.41688,0.95896
278.601,33.54535,-0.31857,0.42119,0.95861
279.301,33.61231,-0.32533,0.42357,0.95825
280.001,33.67923,-0.33049,0.4227,0.95789
280.701,33.74628,-0.33512,0.4233,0.95753
281.401,33.81341,-0.33978,0.42494,0.95717
282.101,33.88057,-0.34569,0.42517,0.95681
282.801,33.94747,-0.35147,0.42604,0.95645
283.501,34.01445,-0.35803,0.42681,0.9561
284.201,34.08136,-0.3622,0.42827,0.95574
284.901,34.14839,-0.36902,0.42992,0.95538
285.601,34.21557,-0.37428,0.4319,0.95502
286.301,34.2828,-0.38022,0.43127,0.95466
287.001,34.35003,-0.38696,0.43316,0.9543
287.701,34.41724,-0.39217,0.43112,0.95394
288.401,34.48455,-0.39857,0.43431,0.95358
289.101,34.5518,-0.40626,0.43329,0.95322
289.801,34.61888,-0.41271,0.43715,0.95286
290.501,34.686,-0.41995,0.43784,0.9525
291.201,34.75322,-0.42759,0.43841,0.95214
291.901,34.8204,-0.43392,0.44093,0.95178
292.601,34.88747,-0.44267,0.44032,0.95142
293.301,34.95456,-0.45,0.4436,0.95106
294.001,35.02171,-0.45664,0.44842,0.9507
294.701,35.08891,-0.46472,0.44909,0.95034
295.401,35.15611,-0.47273,0.44942,0.94997
296.101,35.22336,-0.48101,0.45388,0.94961
296.801,35.29036,-0.48759,0.45561,0.94925
297.501,35.35751,-0.49777,0.45581,0.94889
298.201,35.42479,-0.50679,0.45816,0.94853
298.901,35.49224,-0.51579,0.46228,0.94817
299.601,35.5595,-0.525,0.4652,0.94781
300.301,35.6267,-0.53288,0.46595,0.94744
301.001,35.694,-0.54212,0.46983,0.94708
301.701,35.76128,-0.55042,0.47113,0.94672
302.401,35.82863,-0.56087,0.47331,0.94636
303.101,35.89583,-0.56968,0.47843,0.94599
303.801,35.963,-0.58067,0.4814,0.94563
304.501,36.03014,-0.59078,0.48037,0.94527
305.201,36.0974,-0.60134,0.48752,0.9449
305.901,36.16452,-0.61103,0.49007,0.94454
306.601,36.23175,-0.62211,0.49395,0.94418
307.301,36.299,-0.63418,0.49554,0.94381
308.001,36.3665,-0.64388,0.50119,0.94345
308.701,36.43391,-0.65553,0.50434,0.94309
309.401,36.50108,-0.6682,0.50639,0.94272
310.101,36.56823,-0.67694,0.51254,0.94236
310.801,36.63535,-0.68847,0.51571,0.94199
311.501,36.70244,-0.70232,0.52049,0.94163
312.201,36.7694,-0.71467,0.52342,0.94127
312.901,36.8365,-0.72799,0.52817,0.9409
313.601,36.9037,-0.74014,0.53286,0.94054
314.301,36.97079,-0.75126,0.5374,0.94017
315.001,37.0381,-0.76513,0.54311,0.93981
315.701,37.1051,-0.77863,0.54524,0.93944
316.401,37.1721,-0.79168,0.55017,0.93907
317.101,37.23896,-0.80461,0.55352,0.93871
317.801,37.30592,-0.82004,0.55695,0.93834
318.501,37.37295,-0.8339,0.56122,0.93798
319.201,37.43987,-0.84729,0.56668,0.93761
319.901,37.50698,-0.86171,0.57109,0.93724
320.601,37.57414,-0.87767,0.57221,0.93688
321.301,37.64143,-0.89184,0.5756,0.93651
322.001,37.70848,-0.90649,0.57871,0.93614
322.701,37.7757,-0.92158,0.58201,0.93578
323.401,37.84281,-0.93668,0.58504,0.93541
324.101,37.91001,-0.95347,0.58962,0.93504
324.801,37.97719,-0.96961,0.59018,0.93467
325.501,38.04437,-0.98565,0.59498,0.93431
326.201,38.11169,-1.0008,0.59658,0.93394
326.901,38.1791,-1.017,0.60257,0.93357
327.601,38.24635,-1.03501,0.60209,0.9332
328.301,38.31377,-1.05202,0.6052,0.93283
329.001,38.38092,-1.06806,0.60799,0.93246
329.701,38.4484,-1.08603,0.61152,0.9321
330.401,38.51583,-1.10214,0.61274,0.93173
331.101,38.58332,-1.12146,0.61533,0.93136
331.801,38.65079,-1.1381,0.61712,0.93099
332.501,38.718,-1.15464,0.61981,0.93062
333.201,38.7856,-1.17233,0.6207,0.93025
333.901,38.853,-1.19046,0.62331,0.92988
334.601,38.92046,-1.21003,0.62921,0.92951
335.301,38.98772,-1.2297,0.63024,0.92914
336.001,39.05471,-1.24716,0.63324,0.92877
336.701,39.12209,-1.26566,0.6356,0.9284
337.401,39.1897,-1.28468,0.63961,0.92802
338.101,39.2575,-1.30318,0.6436,0.92765
338.801,39.32513,-1.32116,0.64596,0.92728
339.501,39.39265,-1.3406,0.64589,0.92691
340.201,39.46038,-1.35876,0.64822,0.92654
340.901,39.5281,-1.37799,0.65432,0.92617
341.601,39.59583,-1.39829,0.65725,0.92579
342.301,39.6634,-1.41877,0.66195,0.92542
343.001,39.73107,-1.43757,0.6645,0.92505
343.701,39.79875,-1.4573,0.67057,0.92467
344.401,39.8662,-1.47768,0.67454,0.9243
345.101,39.93395,-1.49706,0.68105,0.92393
345.801,40.0015,-1.51822,0.685,0.92355
346.501,40.0694,-1.53864,0.69319,0.92318
347.201,40.13692,-1.55883,0.69922,0.92281
347.901,40.20448,-1.57969,0.70595,0.92243
348.601,40.2722,-1.60035,0.71262,0.92206
349.301,40.33971,-1.62235,0.72058,0.92168
350.001,40.40741,-1.64214,0.72901,0.92131
350.701,40.47503,-1.66601,0.73704,0.92093
351.401,40.54294,-1.68867,0.7466,0.92056
352.101,40.61077,-1.71177,0.75647,0.92018
352.801,40.67859,-1.73431,0.76491,0.91981
353.501,40.7462,-1.75757,0.77627,0.91943
354.201,40.8135,-1.77961,0.78756,0.91905
354.901,40.88105,-1.80457,0.79517,0.91868
355.601,40.9486,-1.82926,0.80522,0.9183
356.301,41.01654,-1.85286,0.81616,0.91792
357.001,41.0841,-1.87729,0.82509,0.91755
357.701,41.1518,-1.90391,0.83344,0.91717
358.401,41.21934,-1.92781,0.84283,0.91679
359.101,41.28707,-1.95246,0.85205,0.91641
359.801,41.35479,-1.98021,0.8609,0.91604
360.501,41.42261,-2.00556,0.86742,0.91566
361.201,41.49061,-2.03197,0.87704,0.91528
361.901,41.55853,-2.05916,0.88278,0.9149
362.601,41.62661,-2.0867,0.88767,0.91452
363.301,41.69443,-2.11345,0.89046,0.91414
364.001,41.76239,-2.14118,0.89167,0.91376
364.701,41.83041,-2.17021,0.89201,0.91338
365.401,41.89861,-2.19568,0.8904,0.913
366.101,41.96665,-2.22237,0.88926,0.91262
366.801,42.0347,-2.25281,0.87997,0.91224
367.501,42.10257,-2.27837,0.87473,0.91186
368.201,42.17064,-2.30495,0.86551,0.91148
368.901,42.23872,-2.33167,0.85417,0.9111
369.601,42.30677,-2.35905,0.83927,0.91072
370.301,42.37473,-2.38518,0.82296,0.91034
371.001,42.44271,-2.41063,0.80377,0.90995
371.701,42.5105,-2.43626,0.78313,0.90957
372.401,42.57832,-2.4597,0.76197,0.90919
373.101,42.64577,-2.4821,0.73741,0.90881
373.801,42.71359,-2.50525,0.71024,0.90842
374.501,42.78118,-2.52599,0.68197,0.90804
375.201,42.84892,-2.54555,0.65024,0.90766
375.901,42.91632,-2.56757,0.61903,0.90727
376.601,42.9841,-2.58576,0.58418,0.90689
377.301,43.0517,-2.6036,0.55189,0.9065
378.001,43.11932,-2.62044,0.51422,0.90612
378.701,43.1868,-2.63696,0.47785,0.90573
379.401,43.25428,-2.64938,0.4452,0.90535
380.101,43.32175,-2.6636,0.40956,0.90496
380.801,43.38933,-2.67561,0.37955,0.90458
381.501,43.45706,-2.68799,0.34401,0.90419
382.201,43.5248,-2.69836,0.31407,0.90381
382.901,43.59259,-2.70674,0.28293,0.90342
383.601,43.6605,-2.71611,0.25413,0.90303
384.301,43.72825,-2.72404,0.22476,0.90265
385.001,43.79603,-2.73155,0.20438,0.90226
385.701,43.86352,-2.73875,0.17889,0.90187
386.401,43.93112,-2.74565,0.16088,0.90148
387.101,43.99877,-2.74968,0.14085,0.90109
387.801,44.06653,-2.75582,0.12532,0.90071
388.501,44.134,-2.75853,0.11098,0.90032
389.201,44.20134,-2.76162,0.09870935,0.89993
389.901,44.26897,-2.76431,0.09126912,0.89954
390.601,44.337,-2.76624,0.07974003,0.89915
391.301,44.4051,-2.77237,0.0751415,0.89876
392.001,44.47302,-2.77675,0.06559954,0.89837
392.701,44.54094,-2.77951,0.06062569,0.89798
393.401,44.60888,-2.78228,0.05950075,0.89759
394.101,44.67706,-2.78222,0.05679266,0.8972
394.801,44.74535,-2.78516,0.05088695,0.89681
395.501,44.8134,-2.78859,0.05066416,0.89641
396.201,44.88138,-2.79035,0.04725119,0.89602
396.901,44.94927,-2.79316,0.04436284,0.89563
397.601,45.01743,-2.79664,0.04481261,0.89524
398.301,45.08583,-2.79922,0.03834314,0.89485
399.001,45.15428,-2.80052,0.03639948,0.89445
399.701,45.2227,-2.80359,0.03652992,0.89406
400.401,45.29103,-2.80617,0.03683389,0.89367
401.101,45.35931,-2.80643,0.03421266,0.89327
401.801,45.42791,-2.80921,0.03003509,0.89288
402.501,45.49638,-2.81174,0.03057348,0.89248
403.201,45.5651,-2.81455,0.02638101,0.89209
403.901,45.63351,-2.8169,0.02505952,0.89169
404.601,45.70203,-2.81829,0.02487795,0.8913
405.301,45.77061,-2.82104,0.02332248,0.8909
406.001,45.8392,-2.82244,0.0208373,0.89051
406.701,45.9078,-2.82474,0.0198766,0.89011
407.401,45.97605,-2.82609,0.01957385,0.88971
408.101,46.04437,-2.82913,0.01648735,0.88932
408.801,46.11285,-2.8317,0.012962,0.88892
409.501,46.18142,-2.83383,0.01252925,0.88852
410.201,46.25007,-2.83646,0.00908329,0.88812
410.901,46.31838,-2.83989,0.01148129,0.88772
411.601,46.3868,-2.84115,0.00889158,0.88733
412.301,46.45521,-2.84261,0.008197319,0.88693
413.001,46.52337,-2.84448,0.007659094,0.88653
413.701,46.59151,-2.84528,0.007563635,0.88613
414.401,46.65963,-2.848,0.003546437,0.88573
415.101,46.72803,-2.84988,0.0003105271,0.88533
415.801,46.79619,-2.85221,-0.0001104732,0.88493
416.501,46.86455,-2.85491,0.0008436035,0.88453
417.201,46.93292,-2.85637,-0.00261874,0.88413
417.901,47.00127,-2.85901,-0.004805951,0.88372
418.601,47.06965,-2.86032,-0.007285658,0.88332
419.301,47.138,-2.86284,-0.006500561,0.88292
420.001,47.2066,-2.8644,-0.009122901,0.88252
420.701,47.2748,-2.86817,-0.01340305,0.88212
421.401,47.3435,-2.86954,-0.01447571,0.88171
422.101,47.41206,-2.87207,-0.01573294,0.88131
422.801,47.4809,-2.87371,-0.01811519,0.88091
423.501,47.54937,-2.875,-0.02084583,0.8805
424.201,47.61802,-2.87758,-0.02142581,0.8801
424.901,47.6866,-2.8791,-0.02175785,0.87969
425.601,47.75528,-2.88158,-0.02243474,0.87929
426.301,47.82395,-2.88261,-0.02474737,0.87888
427.001,47.89281,-2.88635,-0.02641568,0.87848
427.701,47.96148,-2.88777,-0.02736815,0.87807
428.401,48.03021,-2.88996,-0.03065579,0.87766
429.101,48.09903,-2.89055,-0.03140375,0.87726
429.801,48.1678,-2.89257,-0.03144756,0.87685
430.501,48.2365,-2.89523,-0.0309367,0.87644
431.201,48.30515,-2.89789,-0.02993229,0.87603
431.901,48.37395,-2.89956,-0.03175867,0.87563
432.601,48.443,-2.90091,-0.03312118,0.87522
433.301,48.5117,-2.90277,-0.03262777,0.87481
434.001,48.58041,-2.90482,-0.03245323,0.8744
434.701,48.64885,-2.90615,-0.03197856,0.87399
435.401,48.71752,-2.90865,-0.03361882,0.87358
436.101,48.78615,-2.9102,-0.03465801,0.87317
436.801,48.85496,-2.91278,-0.03229125,0.87276
437.501,48.9238,-2.91486,-0.03399151,0.87235
438.201,48.99242,-2.91578,-0.03375866,0.87194
438.901,49.061,-2.91691,-0.03152293,0.87153
439.601,49.12945,-2.91855,-0.03247775,0.87111
440.301,49.198,-2.92127,-0.03406372,0.8707
441.001,49.26641,-2.92197,-0.03196484,0.87029
441.701,49.33488,-2.92507,-0.03078798,0.86988
442.401,49.40348,-2.92543,-0.02844172,0.86946
443.101,49.4718,-2.92687,-0.02860599,0.86905
443.801,49.5404,-2.92944,-0.02681445,0.86864
444.501,49.6092,-2.93071,-0.02786019,0.86822
445.201,49.67843,-2.93143,-0.02771029,0.86781
445.901,49.74732,-2.93233,-0.02586476,0.86739
446.601,49.81615,-2.93612,-0.02252456,0.86698
447.301,49.8849,-2.93742,-0.02135819,0.86656
448.001,49.95366,-2.93973,-0.02014649,0.86614
448.701,50.02252,-2.93997,-0.01953581,0.86573
449.401,50.0914,-2.94283,-0.01661128,0.86531
450.101,50.16016,-2.94278,-0.01535184,0.86489
450.801,50.2288,-2.9454,-0.011707,0.86448
451.501,50.2975,-2.9454,-0.01143548,0.86406
452.201,50.36646,-2.94876,-0.00829918,0.86364
452.901,50.43542,-2.94935,-0.00770319,0.86322
453.601,50.50425,-2.9493,-0.004596502,0.8628
454.301,50.57323,-2.9522,-0.006949928,0.86238
455.001,50.64213,-2.95272,-0.00341884,0.86196
455.701,50.71143,-2.95426,-0.001986657,0.86154
456.401,50.7806,-2.95608,-0.001927353,0.86112
457.101,50.8499,-2.95736,-0.0007396863,0.8607
457.801,50.91905,-2.95965,-0.0008742498,0.86028
458.501,50.98826,-2.95999,-0.0012311,0.85986
459.201,51.05742,-2.96157,0.002197165,0.85944
459.901,51.12658,-2.96432,0.00564717,0.85901
460.601,51.1956,-2.96554,0.00754799,0.85859
461.301,51.26493,-2.96553,0.004830654,0.85817
462.001,51.33392,-2.9665,0.00700253,0.85774
462.701,51.403,-2.96943,0.008101895,0.85732
463.401,51.47204,-2.97043,0.01113765,0.85689
464.101,51.54108,-2.97099,0.01462158,0.85647
464.801,51.61029,-2.97212,0.01196219,0.85604
465.501,51.67942,-2.97482,0.01512116,0.85562
466.201,51.74863,-2.97612,0.01696264,0.85519
466.901,51.8172,-2.97742,0.01715025,0.85477
467.601,51.88626,-2.97738,0.01960689,0.85434
468.301,51.95533,-2.97875,0.02010016,0.85391
469.001,52.02465,-2.97876,0.0222663,0.85349
469.701,52.0938,-2.9806,0.02313002,0.85306
470.401,52.16276,-2.98183,0.0256741,0.85263
471.101,52.2317,-2.98313,0.02518942,0.8522
471.801,52.30068,-2.98313,0.02936385,0.85177
472.501,52.36965,-2.98577,0.02690443,0.85134
473.201,52.439,-2.98707,0.02643162,0.85091
473.901,52.50812,-2.98571,0.02982002,0.85048
474.601,52.5773,-2.98789,0.0296489,0.85005
475.301,52.64609,-2.9884,0.03114763,0.84962
476.001,52.71496,-2.9897,0.03134302,0.84919
476.701,52.7839,-2.99102,0.03169375,0.84876
477.401,52.853,-2.99238,0.03131058,0.84833
478.101,52.9222,-2.99365,0.0350458,0.84789
478.801,52.99134,-2.9942,0.03328854,0.84746
479.501,53.06021,-2.99498,0.03362218,0.84703
480.201,53.1291,-2.99629,0.03543754,0.84659
480.901,53.1981,-2.9976,0.03514067,0.84616
481.601,53.26741,-2.99795,0.03795117,0.84573
482.301,53.3369,-2.99919,0.03628011,0.84529
483.001,53.40616,-3.00071,0.03780279,0.84485
483.701,53.4755,-3.00189,0.03784756,0.84442
484.401,53.54479,-3.00321,0.03781216,0.84398
485.101,53.6143,-3.00407,0.03814747,0.84355
485.801,53.6839,-3.00452,0.03646817,0.84311
486.501,53.75346,-3.00451,0.03701103,0.84267
487.201,53.823,-3.0055,0.04098879,0.84223
487.901,53.8923,-3.00745,0.03764308,0.8418
488.601,53.96155,-3.00814,0.03768681,0.84136
489.301,54.03103,-3.0081,0.04253092,0.84092
490.001,54.1007,-3.00815,0.03984147,0.84048
490.701,54.1702,-3.00945,0.03991124,0.84004
491.401,54.23949,-3.01078,0.04020023,0.8396
492.101,54.3087,-3.01211,0.0408535,0.83916
492.801,54.37816,-3.01266,0.03977508,0.83872
493.501,54.44765,-3.01395,0.03915697,0.83828
494.201,54.51696,-3.01527,0.04048778,0.83783
494.901,54.5863,-3.01659,0.04001073,0.83739
495.601,54.65569,-3.01629,0.04090814,0.83695
496.301,54.7251,-3.01758,0.04202356,0.83651
497.001,54.7945,-3.01758,0.04268579,0.83606
497.701,54.8636,-3.0189,0.04298216,0.83562
498.401,54.933,-3.02021,0.0410541,0.83518
499.101,55.0021,-3.02023,0.04270833,0.83473
499.801,55.0715,-3.02154,0.04251208,0.83429
500.501,55.1408,-3.02284,0.04111317,0.83384
501.201,55.20997,-3.02284,0.04210178,0.83339
501.901,55.2791,-3.02416,0.04185879,0.83295
502.601,55.34815,-3.02549,0.04290859,0.8325
503.301,55.4174,-3.02442,0.0427373,0.83205
504.001,55.48673,-3.0258,0.04371292,0.83161
504.701,55.55602,-3.0262,0.04405773,0.83116
505.401,55.6251,-3.02711,0.04581317,0.83071
506.101,55.6943,-3.02846,0.04853952,0.83026
506.801,55.76367,-3.02975,0.05373382,0.82981
507.501,55.83319,-3.03117,0.05190578,0.82936
508.201,55.90197,-3.03107,0.05708237,0.82891
508.901,55.97116,-3.03237,0.05909686,0.82846
509.601,56.0404,-3.03346,0.06268391,0.82801
510.301,56.11019,-3.0337,0.06233793,0.82756
511.001,56.17957,-3.03502,0.06627844,0.82711
511.701,56.24899,-3.03502,0.06621408,0.82665
512.401,56.31847,-3.03633,0.07013645,0.8262
513.101,56.38799,-3.03633,0.07063184,0.82575
513.801,56.4575,-3.03765,0.07483881,0.82529
514.501,56.52689,-3.03764,0.07570352,0.82484
515.201,56.59636,-3.03864,0.07955236,0.82439
515.901,56.66562,-3.03899,0.07705619,0.82393
516.601,56.73489,-3.04028,0.07971285,0.82348
517.301,56.8045,-3.04161,0.08071875,0.82302
518.001,56.87438,-3.0429,0.07931143,0.82256
518.701,56.9443,-3.04291,0.08023882,0.82211
519.401,57.0138,-3.04282,0.08416752,0.82165
520.101,57.0835,-3.04422,0.08308362,0.82119
520.801,57.153,-3.04424,0.0834596,0.82073
521.501,57.2223,-3.04481,0.08405458,0.82028
522.201,57.29159,-3.04653,0.08446679,0.81982
522.901,57.361,-3.04753,0.08577422,0.81936
523.601,57.43065,-3.04787,0.08745393,0.8189
524.301,57.5003,-3.04792,0.09214953,0.81844
525.001,57.57,-3.04916,0.09376515,0.81798
525.701,57.63965,-3.0495,0.09087556,0.81752
526.401,57.7092,-3.04916,0.09106392,0.81706
527.101,57.7788,-3.05048,0.09168626,0.81659
527.801,57.8483,-3.05179,0.0918144,0.81613
528.501,57.9177,-3.05178,0.09296221,0.81567
529.201,57.98706,-3.05327,0.08956247,0.81521
529.901,58.05636,-3.0541,0.08899596,0.81474
530.601,58.12588,-3.054,0.0910702,0.81428
531.301,58.19517,-3.05653,0.0903742,0.81381
532.001,58.26441,-3.05673,0.09045383,0.81335
532.701,58.3336,-3.0565,0.09102102,0.81288
533.401,58.40266,-3.05675,0.09206116,0.81242
534.101,58.47206,-3.05674,0.09529127,0.81195
534.801,58.54149,-3.05806,0.09347173,0.81149
535.501,58.61116,-3.05803,0.09392564,0.81102
536.201,58.68054,-3.05937,0.09338773,0.81055
536.901,58.74989,-3.06068,0.09323579,0.81008
537.601,58.8193,-3.06168,0.08918125,0.80961
538.301,58.88886,-3.06331,0.09482098,0.80915
539.001,58.9585,-3.062,0.08900185,0.80868
539.701,59.02819,-3.06333,0.08682397,0.80821
540.401,59.09797,-3.06464,0.08256729,0.80774
541.101,59.16731,-3.06464,0.07618344,0.80727
541.801,59.23695,-3.06648,0.07210107,0.8068
542.501,59.3065,-3.06792,0.07039783,0.80632
543.201,59.37655,-3.06792,0.06656227,0.80585
543.901,59.44634,-3.06792,0.06610333,0.80538
544.601,59.5162,-3.06923,0.0654994,0.80491
545.301,59.5859,-3.06918,0.06129553,0.80443
546.001,59.65575,-3.07055,0.0613245,0.80396
546.701,59.72571,-3.07055,0.05561297,0.80349
547.401,59.7958,-3.07092,0.05624023,0.80301
548.101,59.8658,-3.07089,0.05383978,0.80254
548.801,59.93577,-3.0722,0.05136359,0.80206
549.501,60.00583,-3.0722,0.05170976,0.80158
550.201,60.07583,-3.0722,0.05101323,0.80111
550.901,60.146,-3.07352,0.05240853,0.80063
551.601,60.2161,-3.07401,0.05001157,0.80015
552.301,60.28626,-3.07484,0.04959144,0.79968
553.001,60.3562,-3.07484,0.04693947,0.7992
553.701,60.4262,-3.07475,0.04707268,0.79872
554.401,60.4961,-3.07606,0.04839812,0.79824
555.101,60.5663,-3.07746,0.04603401,0.79776
555.801,60.6365,-3.07833,0.0484114,0.79728
556.501,60.7067,-3.07845,0.04454281,0.7968
557.201,60.77675,-3.07845,0.0446962,0.79632
557.901,60.8469,-3.07863,0.04286897,0.79584
558.601,60.917,-3.07846,0.04379329,0.79536
559.301,60.9872,-3.07962,0.04296832,0.79487
560.001,61.0572,-3.08076,0.04471804,0.79439
560.701,61.12715,-3.08207,0.04435692,0.79391
561.401,61.19732,-3.08207,0.04207437,0.79342
562.101,61.2675,-3.08339,0.04175837,0.79294
562.801,61.33769,-3.08339,0.04136096,0.79246
563.501,61.40766,-3.08339,0.04361748,0.79197
564.201,61.47766,-3.08471,0.0442038,0.79149
564.901,61.5477,-3.08466,0.04537594,0.791
565.601,61.61747,-3.08469,0.04338672,0.79051
566.301,61.68716,-3.08602,0.0452615,0.79003
567.001,61.75701,-3.08602,0.0436283,0.78954
567.701,61.827,-3.08598,0.04168007,0.78905
568.401,61.89711,-3.08734,0.04514092,0.78856
569.101,61.96722,-3.08865,0.04345697,0.78808
569.801,62.0374,-3.08865,0.04466141,0.78759
570.501,62.1074,-3.08956,0.04236256,0.7871
571.201,62.1775,-3.08985,0.04388206,0.78661
571.901,62.24755,-3.09096,0.04167277,0.78612
572.601,62.31776,-3.09095,0.04275446,0.78563
573.301,62.3881,-3.09095,0.04005713,0.78513
574.001,62.45828,-3.09227,0.04149323,0.78464
574.701,62.52854,-3.09227,0.04048982,0.78415
575.401,62.59871,-3.09227,0.03720509,0.78366
576.101,62.66879,-3.09491,0.03689048,0.78316
576.801,62.739,-3.09359,0.03524542,0.78267
577.501,62.8091,-3.0949,0.03617793,0.78218
578.201,62.87927,-3.09622,0.03547764,0.78168
578.901,62.94922,-3.09622,0.03551975,0.78119
579.601,63.0193,-3.09622,0.03504172,0.78069
580.301,63.0895,-3.09755,0.03745739,0.7802
581.001,63.15967,-3.09754,0.03796252,0.7797
581.701,63.22981,-3.09655,0.0356284,0.7792
582.401,63.29991,-3.09787,0.03628845,0.77871
583.101,63.3699,-3.09787,0.03905582,0.77821
583.801,63.43982,-3.09921,0.04019215,0.77771
584.501,63.50979,-3.09919,0.03627355,0.77721
585.201,63.5798,-3.1005,0.03843812,0.77671
585.901,63.64996,-3.10151,0.03704606,0.77621
586.601,63.72003,-3.10151,0.03762374,0.77571
587.301,63.7901,-3.10277,0.03750775,0.77521
588.001,63.8602,-3.10182,0.0420883,0.77471
588.701,63.9303,-3.10182,0.04147038,0.77421
589.401,64.00036,-3.10281,0.04103552,0.77371
590.101,64.07042,-3.1028,0.04079559,0.77321
590.801,64.1404,-3.10346,0.03956885,0.7727
591.501,64.2104,-3.10439,0.04343661,0.7722
592.201,64.2803,-3.10412,0.04447238,0.7717
592.901,64.35024,-3.10542,0.04383065,0.77119
593.601,64.42034,-3.10675,0.04597605,0.77069
594.301,64.49033,-3.10604,0.04544197,0.77018
595.001,64.56053,-3.10675,0.04995578,0.76968
595.701,64.63078,-3.10807,0.04735333,0.76917
596.401,64.70121,-3.10942,0.05051833,0.76867
597.101,64.7714,-3.10938,0.0480548,0.76816
597.801,64.8415,-3.10938,0.05244868,0.76765
598.501,64.9117,-3.1107,0.05363919,0.76714
599.201,64.9819,-3.1107,0.05649639,0.76664
599.901,65.05207,-3.11067,0.05697387,0.76613
600.601,65.12229,-3.1112,0.05789514,0.76562
601.301,65.19244,-3.11103,0.05811582,0.76511
602.001,65.26254,-3.11234,0.06024083,0.7646
602.701,65.33249,-3.11234,0.06479998,0.76409
603.401,65.40261,-3.11366,0.06493244,0.76358
604.101,65.47279,-3.11498,0.06540272,0.76307
604.801,65.54279,-3.11629,0.0679556,0.76255
605.501,65.61295,-3.11564,0.07061123,0.76204
606.201,65.6832,-3.11563,0.06857102,0.76153
606.901,65.75381,-3.11563,0.06996154,0.76102
607.601,65.82438,-3.11626,0.07429232,0.7605
608.301,65.8951,-3.11748,0.07413029,0.75999
609.001,65.96555,-3.11794,0.07366544,0.75947
609.701,66.03613,-3.11794,0.07738046,0.75896
610.401,66.10645,-3.11793,0.07909217,0.75844
611.101,66.17658,-3.11926,0.08302921,0.75793
611.801,66.247,-3.12057,0.08389975,0.75741
612.501,66.3173,-3.12058,0.08323587,0.75689
613.201,66.38789,-3.12144,0.08536911,0.75638
613.901,66.45837,-3.12286,0.08979243,0.75586
614.601,66.52886,-3.12419,0.0910151,0.75534
615.301,66.59935,-3.12288,0.09509156,0.75482
616.001,66.66979,-3.12287,0.10012,0.7543
616.701,66.74025,-3.12294,0.09887869,0.75378
617.401,66.8108,-3.12549,0.10032,0.75326
618.101,66.88136,-3.12605,0.10515,0.75274
618.801,66.95186,-3.1255,0.10674,0.75222
619.501,67.0222,-3.12707,0.10798,0.7517
620.201,67.09231,-3.12814,0.11029,0.75118
620.901,67.16255,-3.12945,0.11178,0.75066
621.601,67.23274,-3.12814,0.11643,0.75013
622.301,67.30305,-3.12945,0.11574,0.74961
623.001,67.3732,-3.12949,0.11678,0.74909
623.701,67.4436,-3.1299,0.11952,0.74856
624.401,67.51379,-3.13119,0.12398,0.74804
625.101,67.58414,-3.1311,0.12384,0.74751
625.801,67.65434,-3.13245,0.12706,0.74699
626.501,67.72447,-3.13346,0.13396,0.74646
627.201,67.79468,-3.13373,0.13522,0.74594
627.901,67.86489,-3.13542,0.13629,0.74541
628.601,67.93509,-3.13571,0.13746,0.74488
629.301,68.00519,-3.13701,0.14344,0.74435
630.001,68.07544,-3.13714,0.14834,0.74383
630.701,68.1459,-3.13807,0.14748,0.7433
631.401,68.21638,-3.13833,0.15276,0.74277
632.101,68.2869,-3.1393,0.15294,0.74224
632.801,68.35726,-3.13966,0.16099,0.74171
633.501,68.42769,-3.14101,0.16371,0.74118
634.201,68.49797,-3.14228,0.16487,0.74065
634.901,68.56826,-3.14357,0.16484,0.74012
635.601,68.6383,-3.14493,0.17269,0.73958
636.301,68.70859,-3.14586,0.1753,0.73905
637.001,68.77866,-3.14624,0.17975,0.73852
637.701,68.8494,-3.14756,0.18322,0.73799
638.401,68.91986,-3.14887,0.18434,0.73745
639.101,68.99076,-3.1502,0.1871,0.73692
639.801,69.06119,-3.1502,0.19332,0.73638
640.501,69.13164,-3.1517,0.19757,0.73585
641.201,69.20221,-3.15282,0.20226,0.73531
641.901,69.2728,-3.15272,0.20506,0.73478
642.601,69.3436,-3.15547,0.20702,0.73424
643.301,69.41417,-3.15637,0.21301,0.7337
644.001,69.48483,-3.15578,0.21801,0.73317
644.701,69.5554,-3.15613,0.22099,0.73263
645.401,69.62598,-3.15844,0.2257,0.73209
646.101,69.69621,-3.15973,0.22941,0.73155
646.801,69.76689,-3.16105,0.2337,0.73101
647.501,69.83757,-3.16335,0.23795,0.73048
648.201,69.90864,-3.16468,0.24234,0.72994
648.901,69.97919,-3.16467,0.24698,0.7294
649.601,70.0497,-3.16466,0.25062,0.72885
650.301,70.1202,-3.16598,0.25443,0.72831
651.001,70.19071,-3.16962,0.2579,0.72777
651.701,70.26139,-3.16765,0.26387,0.72723
652.401,70.33207,-3.16862,0.26884,0.72669
653.101,70.40315,-3.16992,0.27333,0.72614
653.801,70.47412,-3.17126,0.27515,0.7256
654.501,70.545,-3.1744,0.28039,0.72506
655.201,70.6156,-3.17595,0.28362,0.72451
655.901,70.6862,-3.17662,0.28674,0.72397
656.601,70.75694,-3.17662,0.29185,0.72342
657.301,70.82738,-3.17787,0.2987,0.72288
658.001,70.8982,-3.18056,0.29891,0.72233
658.701,70.96904,-3.18189,0.30413,0.72179
659.401,71.0403,-3.18363,0.30851,0.72124
660.101,71.1114,-3.1863,0.31167,0.72069
660.801,71.1824,-3.18819,0.31669,0.72014
661.501,71.25324,-3.18804,0.32092,0.7196
662.201,71.32391,-3.18871,0.32618,0.71905
662.901,71.3946,-3.19216,0.32711,0.7185
663.601,71.46534,-3.19426,0.33258,0.71795
664.301,71.53618,-3.19416,0.33294,0.7174
665.001,71.60679,-3.19552,0.33734,0.71685
665.701,71.67737,-3.1957,0.34001,0.7163
666.401,71.7479,-3.20044,0.34312,0.71575
667.101,71.8186,-3.20087,0.34374,0.7152
667.801,71.88924,-3.20228,0.34755,0.71464
668.501,71.9598,-3.20359,0.34565,0.71409
669.201,72.03028,-3.20493,0.34653,0.71354
669.901,72.10077,-3.20671,0.34995,0.71299
670.601,72.1712,-3.20751,0.35051,0.71243
671.301,72.24146,-3.20971,0.35099,0.71188
672.001,72.31164,-3.21236,0.35087,0.71132
672.701,72.38211,-3.21414,0.34941,0.71077
673.401,72.4526,-3.21545,0.34657,0.71021
674.101,72.52311,-3.21686,0.34823,0.70966
674.801,72.59337,-3.2181,0.34469,0.7091
675.501,72.6639,-3.22034,0.33952,0.70854
676.201,72.73441,-3.22177,0.3348,0.70799
676.901,72.80498,-3.22351,0.32824,0.70743
677.601,72.87553,-3.22457,0.32506,0.70687
678.301,72.9462,-3.22626,0.31842,0.70631
679.001,73.01685,-3.22753,0.31145,0.70575
679.701,73.08739,-3.22865,0.30732,0.7052
680.401,73.15799,-3.22995,0.30494,0.70464
681.101,73.22851,-3.23125,0.29768,0.70408
681.801,73.29909,-3.23256,0.29125,0.70352
682.501,73.36961,-3.23388,0.28929,0.70295
683.201,73.44023,-3.23527,0.28304,0.70239
683.901,73.51082,-3.23662,0.28215,0.70183
684.601,73.58129,-3.23794,0.27753,0.70127
685.301,73.65185,-3.23815,0.27504,0.70071
686.001,73.72255,-3.24177,0.26839,0.70014
686.701,73.7933,-3.24309,0.26308,0.69958
687.401,73.86403,-3.24444,0.25741,0.69902
688.101,73.93465,-3.24361,0.24697,0.69845
688.801,74.00541,-3.2454,0.2375,0.69789
689.501,74.0761,-3.24761,0.22451,0.69732
690.201,74.14673,-3.24938,0.20785,0.69676
690.901,74.21755,-3.24935,0.18999,0.69619
691.601,74.28829,-3.25066,0.16869,0.69563
692.301,74.3592,-3.25066,0.14348,0.69506
693.001,74.42987,-3.25198,0.1076,0.69449
693.701,74.50064,-3.25198,0.07927849,0.69392
694.401,74.57138,-3.25065,0.06336486,0.69336
695.101,74.64203,-3.25089,0.05838869,0.69279
695.801,74.71295,-3.25197,0.05361005,0.69222
696.501,74.78395,-3.25328,0.05003942,0.69165
697.201,74.85515,-3.25329,0.04968873,0.69108
697.901,74.92622,-3.25329,0.04738304,0.69051
698.601,74.99719,-3.25329,0.04576231,0.68994
699.301,75.06822,-3.2546,0.04673431,0.68937
700.001,75.13905,-3.2546,0.04597507,0.6888
700.701,75.20985,-3.2546,0.04673403,0.68823
701.401,75.28063,-3.25471,0.04258053,0.68765
702.101,75.3514,-3.2556,0.04319582,0.68708
702.801,75.42233,-3.25461,0.04154575,0.68651
703.501,75.49302,-3.25465,0.03869444,0.68594
704.201,75.5638,-3.25521,0.0399753,0.68536
704.901,75.63454,-3.25593,0.0389847,0.68479
705.601,75.7054,-3.25593,0.03707799,0.68422
706.301,75.77619,-3.25593,0.03695738,0.68364
707.001,75.8468,-3.25593,0.03989834,0.68307
707.701,75.9173,-3.25593,0.03817718,0.68249
708.401,75.98778,-3.25724,0.04049342,0.68191
709.101,76.05897,-3.25723,0.03558439,0.68134
709.801,76.13029,-3.25856,0.04118109,0.68076
710.501,76.2016,-3.25856,0.03944695,0.68018
711.201,76.27245,-3.25856,0.03531463,0.67961
711.901,76.3433,-3.25856,0.03386386,0.67903
712.601,76.4143,-3.25855,0.03404051,0.67845
713.301,76.48526,-3.25952,0.03341046,0.67787
714.001,76.55626,-3.25963,0.03600038,0.67729
714.701,76.62697,-3.25966,0.03208462,0.67671
715.401,76.69819,-3.25965,0.03463921,0.67613
716.101,76.76964,-3.26064,0.03606323,0.67555
716.801,76.8412,-3.26064,0.03494188,0.67497
717.501,76.9122,-3.26064,0.03223525,0.67439
718.201,76.98325,-3.26101,0.0327205,0.67381
718.901,77.0544,-3.26097,0.03542208,0.67323
719.601,77.12553,-3.26097,0.03190963,0.67265
720.301,77.19654,-3.26097,0.03239651,0.67206
721.001,77.2675,-3.26229,0.03075761,0.67148
721.701,77.3385,-3.26189,0.03094138,0.6709
722.401,77.40956,-3.26228,0.03057849,0.67031
723.101,77.4807,-3.26096,0.02926842,0.66973
723.801,77.55164,-3.26229,0.02967382,0.66915
724.501,77.62269,-3.26228,0.03212584,0.66856
725.201,77.6938,-3.26228,0.03058694,0.66798
725.901,77.76505,-3.26116,0.03047479,0.66739
726.601,77.83599,-3.264,0.02630841,0.66681
727.301,77.90696,-3.26535,0.02969124,0.66622
728.001,77.97761,-3.26535,0.02618358,0.66563
728.701,78.0484,-3.26535,0.02379475,0.66505
729.401,78.11891,-3.26535,0.02121799,0.66446
730.101,78.1901,-3.26535,0.02340903,0.66387
730.801,78.26114,-3.26455,0.02214488,0.66328
731.501,78.3321,-3.26503,0.02322687,0.66269
732.201,78.40281,-3.26536,0.02204405,0.66211
732.901,78.47365,-3.26536,0.01832168,0.66152
733.601,78.5446,-3.26536,0.01647594,0.66093
734.301,78.61565,-3.26667,0.01560638,0.66034
735.001,78.68669,-3.26537,0.01774846,0.65975
735.701,78.7577,-3.26535,0.01934699,0.65916
736.401,78.82854,-3.26596,0.01371425,0.65857
737.101,78.8995,-3.26667,0.01550462,0.65797
737.801,78.97054,-3.26667,0.01805373,0.65738
738.501,79.04151,-3.26667,0.0158843,0.65679
739.201,79.1125,-3.267,0.01136515,0.6562
739.901,79.1836,-3.26733,0.01011212,0.65561
740.601,79.25484,-3.26739,0.01156854,0.65501
741.301,79.32607,-3.267,0.01184152,0.65442
742.001,79.3973,-3.267,0.01305116,0.65382
742.701,79.46821,-3.267,0.0142068,0.65323
743.401,79.53935,-3.267,0.01407676,0.65264
744.101,79.61062,-3.26842,0.01596277,0.65204
744.801,79.68214,-3.26864,0.01820804,0.65145
745.501,79.75366,-3.26864,0.01573963,0.65085
746.201,79.8248,-3.26787,0.01513737,0.65025
746.901,79.89611,-3.26865,0.0181849,0.64966
747.601,79.9673,-3.26865,0.01644537,0.64906
748.301,80.0389,-3.26996,0.01468156,0.64847
749.001,80.1101,-3.27128,0.01183102,0.64787
749.701,80.18129,-3.27128,0.01461913,0.64727
750.401,80.25241,-3.26997,0.01240501,0.64667
751.101,80.32346,-3.27061,0.01064391,0.64607
751.801,80.39439,-3.27068,0.01510471,0.64548
752.501,80.46534,-3.26964,0.009494649,0.64488
753.201,80.53636,-3.27098,0.01163674,0.64428
753.901,80.60729,-3.27213,0.008364694,0.64368
754.601,80.6783,-3.27227,0.00840627,0.64308
755.301,80.74948,-3.27227,0.006766623,0.64248
756.001,80.8209,-3.27227,0.008019244,0.64188
756.701,80.89226,-3.27227,0.008318595,0.64128
757.401,80.9633,-3.27098,0.00447619,0.64067
758.101,81.03429,-3.27095,0.00604829,0.64007
758.801,81.10517,-3.27226,0.003411581,0.63947
759.501,81.17609,-3.27228,0.004320029,0.63887
760.201,81.2472,-3.27095,0.00827854,0.63827
760.901,81.31836,-3.27095,0.00729372,0.63766
761.601,81.3898,-3.27194,0.003677545,0.63706
762.301,81.46086,-3.27194,0.00811386,0.63646
763.001,81.53195,-3.27181,0.007501305,0.63585
763.701,81.60303,-3.27194,0.01085202,0.63525
764.401,81.6743,-3.27194,0.01159217,0.63464
765.101,81.7456,-3.27194,0.01124397,0.63404
765.801,81.8169,-3.27194,0.00794053,0.63343
766.501,81.88814,-3.27191,0.00618031,0.63283
767.201,81.95921,-3.27391,0.008891704,0.63222
767.901,82.03021,-3.27349,0.006080355,0.63162
768.601,82.10119,-3.27358,0.00209588,0.63101
769.301,82.17235,-3.27359,0.00702902,0.6304
770.001,82.24361,-3.27423,0.003290951,0.6298
770.701,82.315,-3.27358,0.00229778,0.62919
771.401,82.38624,-3.27358,0.0009380036,0.62858
772.101,82.45734,-3.27358,7.528783e-05,0.62797
772.801,82.5282,-3.2749,-0.002005748,0.62737
773.501,82.59906,-3.2749,-0.00179838,0.62676
774.201,82.66994,-3.27622,-0.0002789892,0.62615
774.901,82.74096,-3.27618,-0.0001119223,0.62554
775.601,82.8117,-3.27425,0.00118038,0.62493
776.301,82.88303,-3.27521,0.0002414916,0.62432
777.001,82.95436,-3.27558,0.0006415479,0.62371
777.701,83.02606,-3.27654,-0.0006126896,0.6231
778.401,83.0972,-3.27654,0.002111855,0.62249
779.101,83.1683,-3.2762,-0.001902528,0.62188
779.801,83.2393,-3.27621,0.002740238,0.62127
780.501,83.31039,-3.27753,-0.0001441526,0.62065
781.201,83.38145,-3.27753,-0.000266172,0.62004
781.901,83.45265,-3.27753,0.003688608,0.61943
782.601,83.5236,-3.27762,-0.000418751,0.61882
783.301,83.59467,-3.27753,0.002184137,0.61821
784.001,83.66556,-3.27753,0.004170211,0.61759
784.701,83.7362,-3.27729,0.0002828404,0.61698
785.401,83.80731,-3.2772,-0.001597266,0.61637
786.101,83.87858,-3.27852,-0.001028314,0.61575
786.801,83.95022,-3.27851,-0.001246674,0.61514
787.501,84.02166,-3.27736,-0.002266835,0.61452
788.201,84.09302,-3.27719,-0.003444311,0.61391
788.901,84.16465,-3.27978,-0.004163915,0.61329
789.601,84.2362,-3.27983,-0.005391825,0.61268
790.301,84.30787,-3.27917,-0.00565101,0.61206
791.001,84.37921,-3.27852,-0.00859941,0.61145
791.701,84.45062,-3.27984,-0.009317059,0.61083
792.401,84.52181,-3.27978,-0.005425256,0.61021
793.101,84.59304,-3.27918,-0.006580035,0.6096
793.801,84.66425,-3.27918,-0.007244674,0.60898
794.501,84.7355,-3.27918,-0.007250333,0.60836
795.201,84.80696,-3.27918,-0.01127995,0.60775
795.901,84.87841,-3.27918,-0.009664881,0.60713
796.601,84.94996,-3.27918,-0.009346778,0.60651
797.301,85.02127,-3.27948,-0.00802815,0.60589
798.001,85.09241,-3.28082,-0.008378541,0.60527
798.701,85.1636,-3.28082,-0.007240199,0.60466
799.401,85.23488,-3.28081,-0.008749564,0.60404
800.101,85.30635,-3.28214,-0.00796325,0.60342
800.801,85.37769,-3.28214,-0.004522427,0.6028
801.501,85.44895,-3.28183,-0.008401961,0.60218
802.201,85.5202,-3.28082,-0.009684145,0.60156
802.901,85.5915,-3.28146,-0.008316777,0.60094
803.601,85.66277,-3.28178,-0.01587777,0.60032
804.301,85.7339,-3.28279,-0.01191865,0.5997
805.001,85.8049,-3.28279,-0.01484204,0.59908
805.701,85.87589,-3.28148,-0.01641062,0.59845
806.401,85.9473,-3.28148,-0.02122002,0.59783
807.101,86.0189,-3.28148,-0.01415457,0.59721
807.801,86.09061,-3.28148,-0.01621665,0.59659
808.501,86.1619,-3.28148,-0.01783113,0.59597
809.201,86.23314,-3.2828,-0.01453404,0.59534
809.901,86.3043,-3.2828,-0.02060034,0.59472
810.601,86.3758,-3.28299,-0.01956441,0.5941
811.301,86.4473,-3.28346,-0.02062436,0.59347
812.001,86.51903,-3.28412,-0.01709472,0.59285
812.701,86.59048,-3.28412,-0.01700978,0.59223
813.401,86.6622,-3.28407,-0.02070209,0.5916
814.101,86.7338,-3.2828,-0.02081185,0.59098
814.801,86.80551,-3.28411,-0.02118823,0.59035
815.501,86.8769,-3.28411,-0.02559817,0.58973
816.201,86.94842,-3.28311,-0.0212379,0.5891
816.901,87.01987,-3.28312,-0.02471202,0.58848
817.601,87.0915,-3.28378,-0.02689315,0.58785
818.301,87.16297,-3.28378,-0.02434762,0.58723
819.001,87.23448,-3.28378,-0.02832976,0.5866
819.701,87.30587,-3.28378,-0.03203541,0.58598
820.401,87.37738,-3.28444,-0.02398015,0.58535
821.101,87.4487,-3.28576,-0.02820789,0.58472
821.801,87.52041,-3.28576,-0.02889536,0.5841
822.501,87.59198,-3.28543,-0.03158232,0.58347
823.201,87.6636,-3.28675,-0.03283672,0.58284
823.901,87.73518,-3.28545,-0.03473588,0.58222
824.601,87.8068,-3.28413,-0.03358441,0.58159
825.301,87.87833,-3.28503,-0.03498027,0.58096
826.001,87.94968,-3.28543,-0.0340308,0.58033
826.701,88.02094,-3.28673,-0.0346508,0.5797
827.401,88.09246,-3.28592,-0.03498944,0.57908
828.101,88.1639,-3.28539,-0.03888428,0.57845
828.801,88.23529,-3.28646,-0.03837026,0.57782
829.501,88.3064,-3.28641,-0.03717475,0.57719
830.201,88.37768,-3.28641,-0.03938833,0.57656
830.901,88.44884,-3.28642,-0.03963171,0.57593
831.601,88.52034,-3.2864,-0.03244123,0.5753
832.301,88.59181,-3.28773,-0.03922244,0.57467
833.001,88.66324,-3.28567,-0.04113175,0.57404
833.701,88.7346,-3.2851,-0.0433765,0.57341
834.401,88.80592,-3.28647,-0.03931963,0.57278
835.101,88.87735,-3.28661,-0.03903947,0.57215
835.801,88.9485,-3.28773,-0.04031413,0.57152
836.501,89.01964,-3.28773,-0.04082498,0.57089
837.201,89.09082,-3.28773,-0.04198121,0.57026
837.901,89.16197,-3.28904,-0.04116884,0.56963
838.601,89.23315,-3.28902,-0.03592965,0.56899
839.301,89.3042,-3.28774,-0.04214075,0.56836
840.001,89.37545,-3.28773,-0.04004878,0.56773
840.701,89.44669,-3.28773,-0.03665328,0.5671
841.401,89.51786,-3.28773,-0.03858176,0.56647
842.101,89.58892,-3.28741,-0.04370399,0.56583
842.801,89.66033,-3.2874,-0.04366868,0.5652
843.501,89.73201,-3.28773,-0.04459,0.56457
844.201,89.80373,-3.28773,-0.04177442,0.56393
844.901,89.87532,-3.28783,-0.03852764,0.5633
845.601,89.9469,-3.28905,-0.03999197,0.56267
846.101,89.9974,-3.28905,-0.04048955,0.56222