File: 01_Data/FDNY_LDF/STA/N2/30K_min/LDF_STA_N2_30KData_22254_R1.csv
##Temp./Â°C,Time/min,DSC(subtr.)/(mW/mg),Mass loss(subtr.2)/mg,Sensit./(uV/mW)
48.509,10.00667,0.03053888,-0.04902,1.07505
49.209,10.55591,0.07625571,-0.04945038,1.07474
49.909,10.68275,0.11873,-0.05202188,1.07444
50.609,10.7727,0.15575,-0.05007827,1.07413
51.309,10.84572,0.18899,-0.04738281,1.07382
52.009,10.9098,0.22133,-0.04837991,1.07351
52.709,10.96627,0.24891,-0.04952704,1.0732
53.409,11.0181,0.27794,-0.05085989,1.07288
54.109,11.0661,0.30272,-0.05092293,1.07257
54.809,11.1113,0.33047,-0.05073457,1.07226
55.509,11.15386,0.34968,-0.0510479,1.07195
56.209,11.19409,0.37482,-0.05024941,1.07163
56.909,11.2331,0.3958,-0.05206309,1.07132
57.609,11.2707,0.41717,-0.05250832,1.071
58.309,11.3071,0.43602,-0.05229448,1.07069
59.009,11.34254,0.45763,-0.05210638,1.07037
59.709,11.3764,0.4754,-0.0521594,1.07006
60.409,11.40974,0.49347,-0.05191477,1.06974
61.109,11.4426,0.51018,-0.05291128,1.06942
61.809,11.47457,0.52833,-0.05326875,1.0691
62.509,11.50605,0.54502,-0.05330245,1.06879
63.209,11.53685,0.56309,-0.05349251,1.06847
63.909,11.5673,0.57664,-0.05267626,1.06815
64.609,11.59722,0.59243,-0.05165979,1.06783
65.309,11.6267,0.60635,-0.05274859,1.06751
66.009,11.65576,0.6199,-0.05221777,1.06718
66.709,11.68453,0.63395,-0.0517106,1.06686
67.409,11.71299,0.64694,-0.05272075,1.06654
68.109,11.7407,0.66353,-0.0537724,1.06622
68.809,11.76834,0.67613,-0.05476322,1.06589
69.509,11.79578,0.68996,-0.05462811,1.06557
70.209,11.82348,0.70126,-0.05377183,1.06525
70.909,11.85087,0.7153,-0.05359874,1.06492
71.609,11.87809,0.72824,-0.05456323,1.0646
72.309,11.90484,0.74029,-0.0551342,1.06427
73.009,11.9316,0.75231,-0.05527176,1.06394
73.709,11.95802,0.76375,-0.05589989,1.06362
74.409,11.98442,0.77494,-0.05543461,1.06329
75.109,12.01044,0.78904,-0.05490322,1.06296
75.809,12.03628,0.80042,-0.05629229,1.06263
76.509,12.06214,0.81076,-0.05677531,1.0623
77.209,12.08792,0.82294,-0.05683116,1.06197
77.909,12.11357,0.83122,-0.0583452,1.06164
78.609,12.1391,0.84478,-0.05833903,1.06131
79.309,12.1644,0.85586,-0.05829076,1.06098
80.009,12.18983,0.86599,-0.05851193,1.06065
80.709,12.2151,0.87818,-0.05993506,1.06032
81.409,12.2402,0.88914,-0.05902595,1.05998
82.109,12.2651,0.89976,-0.05856402,1.05965
82.809,12.29,0.9084,-0.0595226,1.05932
83.509,12.31488,0.91844,-0.05842271,1.05898
84.209,12.33965,0.92896,-0.05978014,1.05865
84.909,12.36425,0.93826,-0.05860749,1.05831
85.609,12.3889,0.94651,-0.05984796,1.05798
86.309,12.41345,0.95737,-0.06041784,1.05764
87.009,12.43797,0.9668,-0.0605087,1.0573
87.709,12.46232,0.97557,-0.06141476,1.05697
88.409,12.48653,0.98575,-0.06010037,1.05663
89.109,12.51073,0.99562,-0.0614085,1.05629
89.809,12.5349,1.00512,-0.06188402,1.05595
90.509,12.55915,1.01255,-0.06272794,1.05561
91.209,12.58338,1.02112,-0.06339341,1.05527
91.909,12.60754,1.02924,-0.06400354,1.05493
92.609,12.63154,1.03867,-0.06307876,1.05459
93.309,12.65545,1.0461,-0.06397642,1.05425
94.009,12.67913,1.05122,-0.06260485,1.05391
94.709,12.70278,1.0599,-0.06361573,1.05357
95.409,12.72666,1.06745,-0.06394001,1.05323
96.109,12.75053,1.07467,-0.06392082,1.05288
96.809,12.7745,1.0821,-0.06526785,1.05254
97.509,12.7982,1.08639,-0.06648874,1.05219
98.209,12.82203,1.09077,-0.06798319,1.05185
98.909,12.84591,1.098,-0.06798997,1.0515
99.609,12.86957,1.10565,-0.06954756,1.05116
100.309,12.89305,1.11074,-0.07062896,1.05081
101.009,12.91661,1.11368,-0.07061238,1.05047
101.709,12.94025,1.116,-0.07194368,1.05012
102.409,12.964,1.11932,-0.07192107,1.04977
103.109,12.98747,1.12372,-0.07327527,1.04942
103.809,13.01095,1.12566,-0.07201726,1.04908
104.509,13.03439,1.13099,-0.07195027,1.04873
105.209,13.05764,1.13228,-0.07195,1.04838
105.909,13.08121,1.13449,-0.07195,1.04803
106.609,13.1046,1.13685,-0.07195,1.04768
107.309,13.1284,1.14,-0.0719493,1.04733
108.009,13.1518,1.13897,-0.07216459,1.04698
108.709,13.1754,1.14154,-0.07325517,1.04662
109.409,13.19863,1.13896,-0.07324436,1.04627
110.109,13.22202,1.13969,-0.07459863,1.04592
110.809,13.24533,1.13932,-0.07457675,1.04557
111.509,13.26888,1.13932,-0.07550725,1.04521
112.209,13.29231,1.1403,-0.07588761,1.04486
112.909,13.31572,1.13911,-0.07474921,1.0445
113.609,13.3391,1.13613,-0.07585044,1.04415
114.309,13.36249,1.13643,-0.07589899,1.04379
115.009,13.3859,1.13611,-0.07589999,1.04344
115.709,13.40915,1.13508,-0.07589567,1.04308
116.409,13.4322,1.13189,-0.07844181,1.04272
117.109,13.4554,1.12848,-0.07852866,1.04237
117.809,13.4787,1.12801,-0.07853001,1.04201
118.509,13.50196,1.12486,-0.07853,1.04165
119.209,13.5251,1.12544,-0.07853,1.04129
119.909,13.5482,1.12136,-0.07853003,1.04093
120.609,13.5713,1.11982,-0.07852648,1.04057
121.309,13.5944,1.11454,-0.07931103,1.04021
122.009,13.6175,1.11553,-0.07984279,1.03985
122.709,13.6406,1.11203,-0.07983978,1.03949
123.409,13.6637,1.11161,-0.07996631,1.03913
124.109,13.6867,1.10563,-0.08115966,1.03877
124.809,13.7097,1.10379,-0.08116016,1.03841
125.509,13.7326,1.10317,-0.08115802,1.03805
126.209,13.7555,1.1,-0.08208538,1.03768
126.909,13.7784,1.1013,-0.08268995,1.03732
127.609,13.8013,1.09754,-0.08378618,1.03695
128.309,13.82426,1.09527,-0.08379006,1.03659
129.009,13.84714,1.09201,-0.08378987,1.03623
129.709,13.8699,1.09069,-0.08383799,1.03586
130.409,13.89274,1.08951,-0.08246163,1.03549
131.109,13.91552,1.08739,-0.08246973,1.03513
131.809,13.93815,1.08623,-0.08247,1.03476
132.509,13.9608,1.08661,-0.08247,1.0344
133.209,13.9834,1.08421,-0.08247001,1.03403
133.909,14.00619,1.08384,-0.08246987,1.03366
134.609,14.02883,1.08274,-0.08242488,1.03329
135.309,14.0516,1.08215,-0.08484063,1.03292
136.009,14.0741,1.08011,-0.08478034,1.03255
136.709,14.09671,1.08314,-0.08478001,1.03218
137.409,14.11925,1.08018,-0.08477937,1.03181
138.109,14.14184,1.08116,-0.08530467,1.03144
138.809,14.16439,1.08139,-0.08577304,1.03107
139.509,14.1869,1.08142,-0.08577001,1.0307
140.209,14.20934,1.08224,-0.08577,1.03033
140.909,14.23185,1.0836,-0.08577,1.02996
141.609,14.25434,1.08681,-0.08577001,1.02959
142.309,14.2767,1.08565,-0.08576965,1.02921
143.009,14.2991,1.08812,-0.08578233,1.02884
143.709,14.3214,1.08945,-0.08449301,1.02847
144.409,14.3438,1.08767,-0.08478249,1.02809
145.109,14.36616,1.09245,-0.08477999,1.02772
145.809,14.38841,1.09362,-0.08478001,1.02734
146.509,14.4107,1.09426,-0.08477874,1.02697
147.209,14.4329,1.09672,-0.085072,1.02659
147.909,14.45519,1.09697,-0.0849674,1.02621
148.609,14.47746,1.09998,-0.08477904,1.02584
149.309,14.4997,1.10455,-0.08477951,1.02546
150.009,14.52191,1.10663,-0.08522779,1.02508
150.709,14.54415,1.10926,-0.08544141,1.02471
151.409,14.56634,1.11207,-0.08544,1.02433
152.109,14.58849,1.1131,-0.08544028,1.02395
152.809,14.61064,1.11507,-0.08541425,1.02357
153.509,14.63277,1.11986,-0.08610393,1.02319
154.209,14.65489,1.12082,-0.08610015,1.02281
154.909,14.67704,1.12261,-0.08609638,1.02243
155.609,14.6991,1.12623,-0.08665165,1.02205
156.309,14.7212,1.12901,-0.08742284,1.02167
157.009,14.7432,1.13246,-0.08741365,1.02129
157.709,14.76516,1.13566,-0.08681047,1.02091
158.409,14.7872,1.13804,-0.08602816,1.02052
159.109,14.8093,1.1427,-0.08543627,1.02014
159.809,14.83135,1.14537,-0.08544005,1.01976
160.509,14.8534,1.14699,-0.08544,1.01937
161.209,14.8755,1.14923,-0.08544005,1.01899
161.909,14.89741,1.15313,-0.08543626,1.01861
162.609,14.91942,1.15489,-0.08602708,1.01822
163.309,14.9414,1.15883,-0.08676304,1.01784
164.009,14.9633,1.16274,-0.08675993,1.01745
164.709,14.98524,1.16563,-0.08676,1.01707
165.409,15.00714,1.17005,-0.08676,1.01668
166.109,15.029,1.17183,-0.08676,1.01629
166.809,15.0509,1.17422,-0.08676,1.01591
167.509,15.0728,1.17713,-0.08676,1.01552
168.209,15.09475,1.17931,-0.08676,1.01513
168.909,15.1167,1.18571,-0.08676009,1.01474
169.609,15.13858,1.18785,-0.08675578,1.01435
170.309,15.16046,1.19243,-0.08744534,1.01397
171.009,15.18229,1.19455,-0.0874193,1.01358
171.709,15.20411,1.19662,-0.08737036,1.01319
172.409,15.2257,1.2011,-0.08874394,1.0128
173.109,15.24753,1.20259,-0.08873049,1.01241
173.809,15.26934,1.20731,-0.08867326,1.01202
174.509,15.2913,1.20957,-0.08937831,1.01162
175.209,15.3131,1.21247,-0.0893901,1.01123
175.909,15.3349,1.21374,-0.08942551,1.01084
176.609,15.35666,1.21734,-0.09071766,1.01045
177.309,15.37834,1.22259,-0.09069982,1.01006
178.009,15.40003,1.22529,-0.0907,1.00966
178.709,15.4217,1.22859,-0.0907,1.00927
179.409,15.4434,1.2328,-0.0907,1.00888
180.109,15.4651,1.23581,-0.0907,1.00848
180.809,15.4867,1.23904,-0.0907,1.00809
181.509,15.5083,1.24057,-0.0907,1.00769
182.209,15.52984,1.24491,-0.0907,1.0073
182.909,15.55136,1.24865,-0.0907,1.0069
183.609,15.57298,1.25037,-0.0907,1.00651
184.309,15.59455,1.25363,-0.09070049,1.00611
185.009,15.61616,1.25627,-0.09061554,1.00571
185.709,15.63764,1.2603,-0.08937731,1.00532
186.409,15.6591,1.2605,-0.08939008,1.00492
187.109,15.6807,1.26615,-0.08939,1.00452
187.809,15.70222,1.26732,-0.08939,1.00412
188.509,15.7238,1.27249,-0.08939,1.00373
189.209,15.74523,1.2749,-0.08939006,1.00333
189.909,15.76671,1.27816,-0.08939014,1.00293
190.609,15.7882,1.28206,-0.0902406,1.00253
191.309,15.8097,1.28426,-0.09071787,1.00213
192.009,15.8311,1.28762,-0.09147309,1.00173
192.709,15.8525,1.29279,-0.09201888,1.00133
193.409,15.87389,1.29686,-0.09202205,1.00093
194.109,15.8954,1.29935,-0.09293317,1.00053
194.809,15.91681,1.30357,-0.09334821,1.00012
195.509,15.9382,1.30519,-0.09416284,0.99972
196.209,15.9596,1.31085,-0.0946495,0.99932
196.909,15.981,1.31433,-0.09464998,0.99892
197.609,16.0024,1.31837,-0.09465,0.99851
198.309,16.02381,1.32162,-0.09465,0.99811
199.009,16.04511,1.32464,-0.09465006,0.99771
199.709,16.0665,1.32726,-0.09464944,0.9973
200.409,16.08784,1.33096,-0.09545445,0.9969
201.109,16.1092,1.33461,-0.09596363,0.99649
201.809,16.13051,1.33919,-0.09595994,0.99609
202.509,16.15185,1.34173,-0.09596002,0.99568
203.209,16.17318,1.34563,-0.09595987,0.99528
203.909,16.19449,1.34956,-0.09589354,0.99487
204.609,16.2159,1.35362,-0.09466436,0.99447
205.309,16.23719,1.35872,-0.09464842,0.99406
206.009,16.25851,1.36146,-0.09486518,0.99365
206.709,16.27984,1.36386,-0.09597074,0.99324
207.409,16.30122,1.36884,-0.09597007,0.99284
208.109,16.32254,1.37393,-0.09596981,0.99243
208.809,16.3439,1.37742,-0.09598286,0.99202
209.509,16.36516,1.38142,-0.09728436,0.99161
210.209,16.38642,1.38614,-0.09740339,0.9912
210.909,16.40775,1.38803,-0.09882936,0.99079
211.609,16.42901,1.3944,-0.09969465,0.99038
212.309,16.45037,1.3983,-0.09969645,0.98997
213.009,16.47165,1.39798,-0.10015,0.98956
213.709,16.49297,1.40489,-0.10102,0.98915
214.409,16.51414,1.40808,-0.10106,0.98874
215.109,16.5354,1.41201,-0.10233,0.98833
215.809,16.55666,1.41664,-0.10234,0.98792
216.509,16.57789,1.41834,-0.10235,0.98751
217.209,16.5992,1.42242,-0.10361,0.98709
217.909,16.6204,1.42562,-0.10365,0.98668
218.609,16.6416,1.42973,-0.10254,0.98627
219.309,16.66274,1.43503,-0.10233,0.98586
220.009,16.68394,1.43891,-0.10234,0.98544
220.709,16.70521,1.44023,-0.10356,0.98503
221.409,16.72653,1.44605,-0.10365,0.98461
222.109,16.74771,1.448,-0.10363,0.9842
222.809,16.76884,1.45246,-0.10502,0.98378
223.509,16.78996,1.45608,-0.10497,0.98337
224.209,16.81113,1.4602,-0.10498,0.98295
224.909,16.83248,1.46226,-0.10588,0.98254
225.609,16.85374,1.46555,-0.10628,0.98212
226.309,16.87496,1.46836,-0.10632,0.98171
227.009,16.89615,1.47242,-0.10762,0.98129
227.709,16.9174,1.47583,-0.10774,0.98087
228.409,16.9385,1.4807,-0.10915,0.98045
229.109,16.95975,1.4842,-0.10976,0.98004
229.809,16.98099,1.48636,-0.11045,0.97962
230.509,17.00214,1.48911,-0.11051,0.9792
231.209,17.02326,1.49236,-0.11179,0.97878
231.909,17.0443,1.49719,-0.11172,0.97836
232.609,17.0654,1.50374,-0.11332,0.97794
233.309,17.08651,1.50482,-0.11394,0.97752
234.009,17.10768,1.51078,-0.11473,0.9771
234.709,17.12885,1.50982,-0.11488,0.97668
235.409,17.14998,1.51342,-0.11604,0.97626
236.109,17.17117,1.51809,-0.11622,0.97584
236.809,17.1923,1.51848,-0.11736,0.97542
237.509,17.21348,1.52177,-0.11804,0.975
238.209,17.23466,1.52243,-0.11889,0.97458
238.909,17.25584,1.52715,-0.12038,0.97416
239.609,17.277,1.52983,-0.12027,0.97373
240.309,17.29822,1.53104,-0.1219,0.97331
241.009,17.31942,1.53319,-0.12184,0.97289
241.709,17.34045,1.53747,-0.12291,0.97247
242.409,17.36155,1.54101,-0.12201,0.97204
243.109,17.38266,1.54114,-0.12342,0.97162
243.809,17.4039,1.54696,-0.1241,0.9712
244.509,17.42529,1.55046,-0.12478,0.97077
245.209,17.4466,1.5527,-0.12635,0.97035
245.909,17.46781,1.55621,-0.12887,0.96992
246.609,17.48892,1.55967,-0.12918,0.9695
247.309,17.50996,1.56223,-0.13056,0.96907
248.009,17.53107,1.56523,-0.13095,0.96864
248.709,17.55211,1.56975,-0.13215,0.96822
249.409,17.57329,1.57204,-0.13393,0.96779
250.109,17.59444,1.5781,-0.13513,0.96737
250.809,17.6157,1.57937,-0.13579,0.96694
251.509,17.63697,1.58383,-0.13813,0.96651
252.209,17.65814,1.5837,-0.13976,0.96608
252.909,17.6793,1.5889,-0.14147,0.96566
253.609,17.70026,1.591,-0.14337,0.96523
254.309,17.72138,1.59341,-0.14516,0.9648
255.009,17.74255,1.59747,-0.14718,0.96437
255.709,17.76373,1.60221,-0.14856,0.96394
256.409,17.78494,1.60278,-0.1495,0.96351
257.109,17.8061,1.60525,-0.15086,0.96308
257.809,17.82715,1.60838,-0.15137,0.96265
258.509,17.8483,1.61157,-0.15137,0.96222
259.209,17.86942,1.61482,-0.153,0.96179
259.909,17.89034,1.61762,-0.1561,0.96136
260.609,17.91146,1.62104,-0.15937,0.96093
261.309,17.9326,1.62508,-0.16176,0.9605
262.009,17.9538,1.62491,-0.16337,0.96007
262.709,17.97492,1.63061,-0.16496,0.95964
263.409,17.99596,1.63517,-0.16655,0.95921
264.109,18.01701,1.6378,-0.1682,0.95877
264.809,18.0381,1.63917,-0.16999,0.95834
265.509,18.05921,1.64161,-0.17238,0.95791
266.209,18.08035,1.64433,-0.17419,0.95748
266.909,18.10144,1.64921,-0.17597,0.95704
267.609,18.12231,1.64875,-0.1782,0.95661
268.309,18.14327,1.65177,-0.18034,0.95617
269.009,18.16435,1.6529,-0.18213,0.95574
269.709,18.18569,1.6546,-0.18407,0.95531
270.409,18.207,1.65836,-0.18617,0.95487
271.109,18.2282,1.6609,-0.18819,0.95444
271.809,18.24932,1.6618,-0.19056,0.954
272.509,18.27034,1.66482,-0.19378,0.95357
273.209,18.29139,1.66647,-0.1955,0.95313
273.909,18.31245,1.66753,-0.19824,0.95269
274.609,18.33353,1.67107,-0.20109,0.95226
275.309,18.35468,1.67001,-0.20422,0.95182
276.009,18.37585,1.67343,-0.20785,0.95138
276.709,18.39696,1.67528,-0.21074,0.95095
277.409,18.41806,1.67491,-0.21386,0.95051
278.109,18.4392,1.67643,-0.21686,0.95007
278.809,18.46036,1.67912,-0.21952,0.94963
279.509,18.48144,1.68077,-0.22296,0.9492
280.209,18.5026,1.68219,-0.22781,0.94876
280.909,18.5237,1.68359,-0.23049,0.94832
281.609,18.5448,1.68589,-0.2334,0.94788
282.309,18.56595,1.68594,-0.23664,0.94744
283.009,18.587,1.68747,-0.24017,0.947
283.709,18.60795,1.68951,-0.24409,0.94656
284.409,18.6288,1.69046,-0.24726,0.94612
285.109,18.64967,1.69152,-0.25133,0.94568
285.809,18.67075,1.69359,-0.2559,0.94524
286.509,18.69194,1.69518,-0.25957,0.9448
287.209,18.71315,1.69546,-0.26301,0.94436
287.909,18.73422,1.69617,-0.26691,0.94392
288.609,18.75534,1.69569,-0.27125,0.94348
289.309,18.77647,1.69859,-0.2755,0.94304
290.009,18.7976,1.69801,-0.27818,0.94259
290.709,18.81866,1.70191,-0.28322,0.94215
291.409,18.83979,1.69939,-0.28843,0.94171
292.109,18.86091,1.70281,-0.29222,0.94127
292.809,18.88215,1.70307,-0.29742,0.94082
293.509,18.9033,1.7055,-0.30294,0.94038
294.209,18.9243,1.70304,-0.30862,0.93994
294.909,18.9455,1.70689,-0.31306,0.93949
295.609,18.96678,1.70298,-0.31844,0.93905
296.309,18.9882,1.70572,-0.32332,0.9386
297.009,19.0095,1.70697,-0.32943,0.93816
297.709,19.03077,1.70736,-0.33482,0.93772
298.409,19.05191,1.70588,-0.33972,0.93727
299.109,19.07304,1.7087,-0.34618,0.93683
299.809,19.09415,1.70993,-0.35157,0.93638
300.509,19.11534,1.70981,-0.35799,0.93593
301.209,19.13649,1.71114,-0.36375,0.93549
301.909,19.15765,1.70989,-0.37021,0.93504
302.609,19.1788,1.71142,-0.37733,0.9346
303.309,19.19998,1.71351,-0.38279,0.93415
304.009,19.22115,1.71502,-0.38932,0.9337
304.709,19.24229,1.71654,-0.39518,0.93326
305.409,19.26345,1.71619,-0.40253,0.93281
306.109,19.2847,1.71772,-0.40973,0.93236
306.809,19.30581,1.72093,-0.41633,0.93191
307.509,19.32695,1.72287,-0.42413,0.93146
308.209,19.3481,1.72241,-0.43068,0.93102
308.909,19.36934,1.7241,-0.43828,0.93057
309.609,19.39055,1.72802,-0.44579,0.93012
310.309,19.4117,1.73101,-0.45307,0.92967
311.009,19.4329,1.7341,-0.46192,0.92922
311.709,19.45409,1.73268,-0.46933,0.92877
312.409,19.47531,1.73458,-0.47812,0.92832
313.109,19.49651,1.73704,-0.48554,0.92787
313.809,19.51758,1.7386,-0.49333,0.92742
314.509,19.53867,1.74275,-0.50239,0.92697
315.209,19.55985,1.74628,-0.5104,0.92652
315.909,19.5811,1.74723,-0.52175,0.92607
316.609,19.6022,1.75285,-0.5301,0.92562
317.309,19.62342,1.75429,-0.53938,0.92517
318.009,19.64462,1.75882,-0.54921,0.92472
318.709,19.6659,1.76227,-0.55768,0.92426
319.409,19.68723,1.76448,-0.56773,0.92381
320.109,19.70845,1.76802,-0.57582,0.92336
320.809,19.72962,1.77306,-0.58595,0.92291
321.509,19.7509,1.77939,-0.59587,0.92245
322.209,19.77208,1.78316,-0.60462,0.922
322.909,19.7933,1.78695,-0.61621,0.92155
323.609,19.81459,1.79246,-0.62631,0.9211
324.309,19.8358,1.7962,-0.6382,0.92064
325.009,19.85709,1.80308,-0.64933,0.92019
325.709,19.87833,1.80873,-0.66091,0.91973
326.409,19.89955,1.8127,-0.67354,0.91928
327.109,19.92076,1.82106,-0.68402,0.91882
327.809,19.942,1.82647,-0.69653,0.91837
328.509,19.96321,1.82815,-0.7078,0.91792
329.209,19.98457,1.8344,-0.71963,0.91746
329.909,20.0059,1.83731,-0.73304,0.917
330.609,20.0271,1.84457,-0.74416,0.91655
331.309,20.0484,1.84886,-0.75772,0.91609
332.009,20.06961,1.8574,-0.76991,0.91564
332.709,20.09084,1.86133,-0.78302,0.91518
333.409,20.1121,1.86729,-0.79755,0.91472
334.109,20.13328,1.87197,-0.80999,0.91427
334.809,20.1545,1.87719,-0.82574,0.91381
335.509,20.17582,1.88416,-0.83932,0.91335
336.209,20.1972,1.88555,-0.85399,0.9129
336.909,20.2186,1.89166,-0.86901,0.91244
337.609,20.2399,1.89872,-0.88224,0.91198
338.309,20.26125,1.90128,-0.89851,0.91152
339.009,20.28254,1.90549,-0.91261,0.91107
339.709,20.3039,1.91002,-0.92823,0.91061
340.409,20.32531,1.91416,-0.94412,0.91015
341.109,20.34666,1.91707,-0.95799,0.90969
341.809,20.36806,1.92019,-0.97495,0.90923
342.509,20.38941,1.92379,-0.98968,0.90877
343.209,20.41075,1.92585,-1.00424,0.90831
343.909,20.43209,1.93013,-1.02094,0.90785
344.609,20.45337,1.93264,-1.0359,0.90739
345.309,20.47456,1.93463,-1.05456,0.90693
346.009,20.49573,1.93844,-1.06993,0.90647
346.709,20.517,1.94078,-1.08654,0.90601
347.409,20.53835,1.94453,-1.10403,0.90555
348.109,20.55994,1.94724,-1.11973,0.90509
348.809,20.58137,1.94825,-1.13804,0.90463
349.509,20.60275,1.94959,-1.15243,0.90417
350.209,20.6242,1.9535,-1.16924,0.90371
350.909,20.64568,1.95611,-1.18733,0.90324
351.609,20.66734,1.95694,-1.20318,0.90278
352.309,20.68873,1.95844,-1.22183,0.90232
353.009,20.71012,1.96158,-1.23855,0.90186
353.709,20.73152,1.9622,-1.25538,0.90139
354.409,20.75293,1.9623,-1.27452,0.90093
355.109,20.77431,1.96638,-1.29061,0.90047
355.809,20.79571,1.96861,-1.30938,0.90001
356.509,20.8171,1.97145,-1.32658,0.89954
357.209,20.83859,1.97571,-1.3432,0.89908
357.909,20.86009,1.98099,-1.36347,0.89861
358.609,20.88158,1.9825,-1.37872,0.89815
359.309,20.90285,1.9885,-1.39763,0.89769
360.009,20.92427,1.99449,-1.41652,0.89722
360.709,20.9457,2.00009,-1.43379,0.89676
361.409,20.96731,2.00839,-1.45404,0.89629
362.109,20.9889,2.01736,-1.47232,0.89583
362.809,21.01039,2.02358,-1.49027,0.89536
363.509,21.03194,2.0339,-1.50929,0.8949
364.209,21.05335,2.043,-1.52618,0.89443
364.909,21.0749,2.05648,-1.54734,0.89397
365.609,21.0964,2.06876,-1.56473,0.8935
366.309,21.11801,2.0814,-1.58332,0.89303
367.009,21.1396,2.09459,-1.60396,0.89257
367.709,21.16113,2.10804,-1.62123,0.8921
368.409,21.1826,2.12616,-1.64127,0.89163
369.109,21.20415,2.14386,-1.66035,0.89117
369.809,21.22569,2.16024,-1.67946,0.8907
370.509,21.24738,2.18047,-1.70227,0.89023
371.209,21.26894,2.19836,-1.72154,0.88976
371.909,21.29055,2.21812,-1.74234,0.8893
372.609,21.3121,2.23755,-1.76397,0.88883
373.309,21.3337,2.25984,-1.78332,0.88836
374.009,21.3553,2.28167,-1.80684,0.88789
374.709,21.37695,2.29979,-1.82828,0.88742
375.409,21.39859,2.32251,-1.84962,0.88696
376.109,21.42022,2.34622,-1.87498,0.88649
376.809,21.44179,2.36718,-1.89588,0.88602
377.509,21.46335,2.39128,-1.91948,0.88555
378.209,21.4849,2.40958,-1.94219,0.88508
378.909,21.50656,2.43468,-1.9637,0.88461
379.609,21.52821,2.45258,-1.99008,0.88414
380.309,21.54993,2.47306,-2.01322,0.88367
381.009,21.57161,2.4932,-2.03639,0.8832
381.709,21.5932,2.50955,-2.06229,0.88273
382.409,21.61485,2.52495,-2.08503,0.88226
383.109,21.6365,2.53761,-2.11095,0.88179
383.809,21.6582,2.55117,-2.13589,0.88132
384.509,21.67987,2.55963,-2.15846,0.88085
385.209,21.70157,2.56665,-2.18586,0.88037
385.909,21.72326,2.56806,-2.21023,0.8799
386.609,21.74496,2.56905,-2.23361,0.87943
387.309,21.76663,2.56626,-2.26157,0.87896
388.009,21.78829,2.561,-2.28502,0.87849
388.709,21.8099,2.54824,-2.3116,0.87801
389.409,21.83139,2.53619,-2.33698,0.87754
390.109,21.85299,2.5198,-2.35921,0.87707
390.809,21.8747,2.49627,-2.38451,0.8766
391.509,21.8966,2.47128,-2.40819,0.87612
392.209,21.9185,2.43797,-2.43163,0.87565
392.909,21.9401,2.40196,-2.45662,0.87518
393.609,21.96165,2.36593,-2.47731,0.8747
394.309,21.98328,2.32421,-2.50142,0.87423
395.009,22.00497,2.27524,-2.52396,0.87376
395.709,22.02673,2.2239,-2.54389,0.87328
396.409,22.0483,2.16734,-2.56712,0.87281
397.109,22.06989,2.11046,-2.5869,0.87233
397.809,22.09155,2.045,-2.6059,0.87186
398.509,22.11319,1.98321,-2.62586,0.87138
399.209,22.13501,1.91263,-2.64257,0.87091
399.909,22.1567,1.84002,-2.66035,0.87043
400.609,22.17833,1.76382,-2.67692,0.86996
401.309,22.19991,1.68723,-2.69031,0.86948
402.009,22.22154,1.61009,-2.70712,0.86901
402.709,22.24319,1.5302,-2.72077,0.86853
403.409,22.26481,1.45012,-2.73406,0.86806
404.109,22.28649,1.37258,-2.74797,0.86758
404.809,22.30815,1.29465,-2.75839,0.8671
405.509,22.32977,1.21883,-2.76907,0.86663
406.209,22.35138,1.14519,-2.77925,0.86615
406.909,22.37281,1.0749,-2.78747,0.86567
407.609,22.3944,1.00765,-2.79666,0.8652
408.309,22.41594,0.94358,-2.80434,0.86472
409.009,22.43769,0.88288,-2.8106,0.86424
409.709,22.4594,0.82916,-2.81786,0.86376
410.409,22.48104,0.77548,-2.82297,0.86329
411.109,22.50275,0.72665,-2.82858,0.86281
411.809,22.52437,0.68594,-2.83368,0.86233
412.509,22.54601,0.64512,-2.83793,0.86185
413.209,22.56766,0.6077,-2.84181,0.86137
413.909,22.58928,0.57977,-2.84651,0.86089
414.609,22.61095,0.55326,-2.84988,0.86041
415.309,22.63266,0.53024,-2.85166,0.85994
416.009,22.6543,0.50829,-2.8546,0.85946
416.709,22.676,0.49154,-2.85937,0.85898
417.409,22.6978,0.47866,-2.86248,0.8585
418.109,22.71946,0.46851,-2.86462,0.85802
418.809,22.7412,0.4568,-2.86668,0.85754
419.509,22.7629,0.45077,-2.86888,0.85706
420.209,22.78465,0.44298,-2.87179,0.85658
420.909,22.80627,0.43471,-2.87536,0.8561
421.609,22.82798,0.43234,-2.8775,0.85562
422.309,22.84972,0.42152,-2.88014,0.85514
423.009,22.87146,0.42193,-2.88327,0.85466
423.709,22.89325,0.41256,-2.88551,0.85417
424.409,22.915,0.41077,-2.88786,0.85369
425.109,22.93685,0.40591,-2.88934,0.85321
425.809,22.95867,0.40043,-2.89169,0.85273
426.509,22.98047,0.39719,-2.89415,0.85225
427.209,23.00228,0.39365,-2.89656,0.85177
427.909,23.02411,0.39236,-2.89897,0.85129
428.609,23.04596,0.38689,-2.90102,0.8508
429.309,23.06781,0.37984,-2.90254,0.85032
430.009,23.0897,0.37854,-2.90464,0.84984
430.709,23.11159,0.37371,-2.90679,0.84936
431.409,23.1335,0.36933,-2.90888,0.84887
432.109,23.1554,0.36609,-2.91138,0.84839
432.809,23.17729,0.36302,-2.9139,0.84791
433.509,23.19931,0.35857,-2.91598,0.84742
434.209,23.2214,0.35577,-2.91814,0.84694
434.909,23.24341,0.35005,-2.9204,0.84646
435.609,23.26535,0.34657,-2.92381,0.84597
436.309,23.28725,0.34417,-2.92777,0.84549
437.009,23.30917,0.34023,-2.92998,0.845
437.709,23.3311,0.34011,-2.93169,0.84452
438.409,23.3531,0.33769,-2.93396,0.84404
439.109,23.37507,0.33495,-2.93631,0.84355
439.809,23.39692,0.3308,-2.9381,0.84307
440.509,23.41882,0.32954,-2.94035,0.84258
441.209,23.44064,0.32772,-2.9428,0.8421
441.909,23.46248,0.32707,-2.94598,0.84161
442.609,23.48457,0.32443,-2.94859,0.84113
443.309,23.50667,0.31864,-2.95098,0.84064
444.009,23.5289,0.31722,-2.95276,0.84015
444.709,23.55087,0.311,-2.95468,0.83967
445.409,23.57292,0.30982,-2.95681,0.83918
446.109,23.5949,0.3072,-2.95867,0.8387
446.809,23.61695,0.30481,-2.9606,0.83821
447.509,23.63893,0.30091,-2.96224,0.83772
448.209,23.661,0.29741,-2.96421,0.83724
448.909,23.68305,0.29266,-2.96597,0.83675
449.609,23.7051,0.29047,-2.96798,0.83626
450.309,23.72707,0.28755,-2.96981,0.83578
451.009,23.74915,0.28783,-2.97188,0.83529
451.709,23.77123,0.28329,-2.97392,0.8348
452.409,23.79335,0.28328,-2.97588,0.83431
453.109,23.8154,0.2826,-2.9784,0.83383
453.809,23.83747,0.27864,-2.98058,0.83334
454.509,23.85952,0.27828,-2.98248,0.83285
455.209,23.88162,0.27829,-2.98439,0.83236
455.909,23.90372,0.27571,-2.98607,0.83187
456.609,23.9258,0.27794,-2.98794,0.83139
457.309,23.94797,0.27452,-2.98977,0.8309
458.009,23.97012,0.27652,-2.99172,0.83041
458.709,23.99227,0.27951,-2.99365,0.82992
459.409,24.01437,0.27852,-2.99535,0.82943
460.109,24.03651,0.27958,-2.99689,0.82894
460.809,24.05861,0.28249,-2.99903,0.82845
461.509,24.08069,0.28292,-3.00119,0.82796
462.209,24.10279,0.28401,-3.00342,0.82747
462.909,24.12494,0.28513,-3.00446,0.82698
463.609,24.14718,0.28564,-3.00605,0.82649
464.309,24.16941,0.29139,-3.00778,0.826
465.009,24.19164,0.29553,-3.01027,0.82551
465.709,24.21386,0.29525,-3.01337,0.82502
466.409,24.23605,0.30092,-3.01598,0.82453
467.109,24.25818,0.30424,-3.01761,0.82404
467.809,24.2804,0.30691,-3.01862,0.82355
468.509,24.30254,0.31185,-3.02033,0.82306
469.209,24.32465,0.31722,-3.02255,0.82257
469.909,24.34681,0.31994,-3.0245,0.82208
470.609,24.36901,0.32383,-3.02624,0.82158
471.309,24.39134,0.33003,-3.02833,0.82109
472.009,24.41362,0.33426,-3.03065,0.8206
472.709,24.43589,0.33858,-3.03291,0.82011
473.409,24.45813,0.34673,-3.03417,0.81962
474.109,24.4803,0.35174,-3.03435,0.81912
474.809,24.50251,0.35575,-3.03598,0.81863
475.509,24.5247,0.359,-3.03764,0.81814
476.209,24.54701,0.36646,-3.0394,0.81765
476.909,24.5693,0.37261,-3.04155,0.81715
477.609,24.5916,0.37743,-3.0436,0.81666
478.309,24.61383,0.38458,-3.04538,0.81617
479.009,24.636,0.38829,-3.04663,0.81567
479.709,24.6584,0.39561,-3.04747,0.81518
480.409,24.6807,0.3997,-3.04803,0.81469
481.109,24.7031,0.40433,-3.05044,0.81419
481.809,24.72541,0.40946,-3.05208,0.8137
482.509,24.74772,0.41671,-3.05294,0.81321
483.209,24.77,0.42362,-3.05391,0.81271
483.909,24.7924,0.4261,-3.05517,0.81222
484.609,24.81469,0.43411,-3.05675,0.81172
485.309,24.837,0.43687,-3.05815,0.81123
486.009,24.85925,0.44094,-3.05995,0.81073
486.709,24.8815,0.44648,-3.06153,0.81024
487.409,24.90385,0.45011,-3.06337,0.80975
488.109,24.9263,0.45728,-3.065,0.80925
488.809,24.94874,0.46089,-3.06682,0.80875
489.509,24.9711,0.46593,-3.06737,0.80826
490.209,24.9935,0.46741,-3.06805,0.80776
490.909,25.01579,0.47517,-3.06869,0.80727
491.609,25.03815,0.47988,-3.07004,0.80677
492.309,25.06054,0.48424,-3.07109,0.80628
493.009,25.0829,0.48628,-3.0731,0.80578
493.709,25.10511,0.48822,-3.07416,0.80528
494.409,25.12748,0.4934,-3.07537,0.80479
495.109,25.14987,0.4974,-3.07699,0.80429
495.809,25.17235,0.49935,-3.078,0.8038
496.509,25.1948,0.50415,-3.07904,0.8033
497.209,25.21718,0.50644,-3.08027,0.8028
497.909,25.23969,0.50819,-3.0802,0.8023
498.609,25.26215,0.5123,-3.08115,0.80181
499.309,25.28458,0.51262,-3.08178,0.80131
500.009,25.30696,0.51928,-3.08339,0.80081
500.709,25.32936,0.5226,-3.08484,0.80032
501.409,25.35179,0.52413,-3.0866,0.79982
502.109,25.37421,0.52486,-3.08763,0.79932
502.809,25.39667,0.52899,-3.088,0.79882
503.509,25.41912,0.52783,-3.08889,0.79832
504.209,25.44162,0.53239,-3.08927,0.79783
504.909,25.46404,0.53178,-3.091,0.79733
505.609,25.4865,0.53542,-3.09159,0.79683
506.309,25.50894,0.53543,-3.09245,0.79633
507.009,25.53139,0.53644,-3.09394,0.79583
507.709,25.55385,0.53853,-3.09465,0.79533
508.409,25.5762,0.54064,-3.09493,0.79483
509.109,25.59853,0.54204,-3.09627,0.79433
509.809,25.62098,0.54259,-3.09713,0.79383
510.509,25.64346,0.54599,-3.09813,0.79334
511.209,25.66615,0.54896,-3.09928,0.79284
511.909,25.68864,0.55095,-3.10018,0.79234
512.609,25.71115,0.55081,-3.10076,0.79184
513.309,25.73365,0.55081,-3.10235,0.79134
514.009,25.75618,0.55143,-3.10511,0.79084
514.709,25.7787,0.55277,-3.10607,0.79034
515.409,25.80118,0.55398,-3.10664,0.78984
516.109,25.82365,0.55446,-3.10772,0.78934
516.809,25.84617,0.55481,-3.10795,0.78883
517.509,25.86874,0.55556,-3.10847,0.78833
518.209,25.8913,0.55537,-3.10858,0.78783
518.909,25.9138,0.55802,-3.11017,0.78733
519.609,25.93628,0.56084,-3.11075,0.78683
520.309,25.95879,0.55756,-3.11157,0.78633
521.009,25.98134,0.55664,-3.11158,0.78583
521.709,26.00392,0.55786,-3.11268,0.78533
522.409,26.02649,0.55966,-3.11288,0.78483
523.109,26.04901,0.55921,-3.11223,0.78432
523.809,26.07152,0.55814,-3.11349,0.78382
524.509,26.09404,0.55727,-3.11354,0.78332
525.209,26.1166,0.55691,-3.11475,0.78282
525.909,26.1391,0.55906,-3.11483,0.78232
526.609,26.16167,0.5554,-3.11687,0.78181
527.309,26.18424,0.55986,-3.11885,0.78131
528.009,26.20685,0.55978,-3.11904,0.78081
528.709,26.2295,0.55614,-3.12042,0.78031
529.409,26.25202,0.55731,-3.12201,0.7798
530.109,26.2745,0.55852,-3.12399,0.7793
530.809,26.2972,0.55547,-3.12495,0.7788
531.509,26.31976,0.55616,-3.12616,0.77829
532.209,26.3423,0.55782,-3.12753,0.77779
532.909,26.3648,0.55204,-3.12748,0.77729
533.609,26.3874,0.55639,-3.12749,0.77678
534.309,26.40995,0.55445,-3.1287,0.77628
535.009,26.4325,0.55503,-3.12744,0.77577
535.709,26.4552,0.55405,-3.12888,0.77527
536.409,26.47777,0.55612,-3.12928,0.77477
537.109,26.5003,0.55483,-3.13033,0.77426
537.809,26.52298,0.55361,-3.13139,0.77376
538.509,26.54565,0.55093,-3.13172,0.77325
539.209,26.5684,0.55223,-3.13328,0.77275
539.909,26.59099,0.55187,-3.13444,0.77224
540.609,26.61365,0.55342,-3.13461,0.77174
541.309,26.6363,0.55041,-3.13594,0.77123
542.009,26.65897,0.54984,-3.1368,0.77073
542.709,26.68157,0.55144,-3.13822,0.77022
543.409,26.7042,0.55102,-3.13823,0.76972
544.109,26.72682,0.54657,-3.13856,0.76921
544.809,26.74946,0.54695,-3.13953,0.76871
545.509,26.7721,0.54509,-3.13977,0.7682
546.209,26.7948,0.5467,-3.14086,0.7677
546.909,26.8174,0.54401,-3.14087,0.76719
547.609,26.84,0.54403,-3.14217,0.76668
548.309,26.86265,0.54346,-3.14217,0.76618
549.009,26.8853,0.5412,-3.14281,0.76567
549.709,26.90798,0.53936,-3.14218,0.76517
550.409,26.9307,0.53916,-3.14291,0.76466
551.109,26.95332,0.54119,-3.14349,0.76415
551.809,26.976,0.54012,-3.14369,0.76365
552.509,26.99855,0.53861,-3.14565,0.76314
553.209,27.0211,0.5371,-3.14655,0.76263
553.909,27.0438,0.53644,-3.14744,0.76212
554.609,27.06655,0.53466,-3.14842,0.76162
555.309,27.08952,0.5376,-3.14894,0.76111
556.009,27.1123,0.53864,-3.15052,0.7606
556.709,27.13503,0.53487,-3.15177,0.76009
557.409,27.15775,0.53498,-3.15205,0.75959
558.109,27.18047,0.53561,-3.15207,0.75908
558.809,27.20322,0.53729,-3.15344,0.75857
559.509,27.2259,0.53976,-3.15433,0.75806
560.209,27.2486,0.5386,-3.1558,0.75755
560.909,27.2713,0.53685,-3.15618,0.75705
561.609,27.29396,0.53868,-3.15708,0.75654
562.309,27.31669,0.53979,-3.15773,0.75603
563.009,27.33942,0.54024,-3.15851,0.75552
563.709,27.3621,0.54062,-3.15966,0.75501
564.409,27.3848,0.54123,-3.15983,0.7545
565.109,27.40734,0.54435,-3.16018,0.75399
565.809,27.42983,0.54389,-3.15984,0.75349
566.509,27.45255,0.54316,-3.15983,0.75298
567.209,27.4754,0.54568,-3.16075,0.75247
567.909,27.49832,0.5461,-3.16115,0.75196
568.609,27.52092,0.54647,-3.16115,0.75145
569.309,27.54373,0.5478,-3.16115,0.75094
570.009,27.56653,0.54857,-3.16147,0.75043
570.709,27.58948,0.55075,-3.16245,0.74992
571.409,27.61225,0.54835,-3.16385,0.74941
572.109,27.635,0.54798,-3.1648,0.7489
572.809,27.65778,0.54976,-3.16541,0.74839
573.509,27.68058,0.54704,-3.16675,0.74788
574.209,27.7034,0.54831,-3.16669,0.74737
574.909,27.72618,0.54652,-3.16807,0.74686
575.609,27.749,0.54618,-3.16807,0.74635
576.309,27.7718,0.54702,-3.16946,0.74584
577.009,27.79464,0.54797,-3.16967,0.74532
577.709,27.8174,0.54484,-3.17111,0.74481
578.409,27.84027,0.54556,-3.17113,0.7443
579.109,27.8631,0.54222,-3.17232,0.74379
579.809,27.88594,0.5473,-3.17117,0.74328
580.509,27.9088,0.54267,-3.17119,0.74277
581.209,27.9317,0.54498,-3.17245,0.74226
581.909,27.95447,0.54301,-3.17244,0.74175
582.609,27.9773,0.54366,-3.17355,0.74123
583.309,28.00007,0.54191,-3.17443,0.74072
584.009,28.0229,0.5408,-3.17476,0.74021
584.709,28.0457,0.54177,-3.17602,0.7397
585.409,28.06857,0.54187,-3.1762,0.73919
586.109,28.09143,0.53806,-3.17772,0.73867
586.809,28.11433,0.53951,-3.17813,0.73816
587.509,28.13723,0.53593,-3.17903,0.73765
588.209,28.1601,0.53822,-3.17903,0.73714
588.909,28.18298,0.52996,-3.18036,0.73662
589.609,28.20575,0.53285,-3.18032,0.73611
590.309,28.2286,0.53068,-3.18031,0.7356
591.009,28.2514,0.52943,-3.18034,0.73509
591.709,28.27433,0.52606,-3.18034,0.73457
592.409,28.2972,0.52386,-3.18032,0.73406
593.109,28.3201,0.5231,-3.18166,0.73355
593.809,28.343,0.52483,-3.18303,0.73303
594.509,28.3659,0.5208,-3.18298,0.73252
595.209,28.38887,0.52012,-3.18313,0.73201
595.909,28.41178,0.51718,-3.18428,0.73149
596.609,28.43468,0.51457,-3.18515,0.73098
597.309,28.45757,0.51381,-3.18597,0.73046
598.009,28.4804,0.50855,-3.18747,0.72995
598.709,28.5031,0.50869,-3.18843,0.72944
599.409,28.52607,0.50464,-3.18747,0.72892
600.109,28.54904,0.50191,-3.18867,0.72841
600.809,28.57207,0.49881,-3.18886,0.72789
601.509,28.59498,0.4989,-3.1902,0.72738
602.209,28.61788,0.49646,-3.19021,0.72686
602.909,28.6408,0.49296,-3.19023,0.72635
603.609,28.6637,0.49298,-3.19155,0.72583
604.309,28.6865,0.49021,-3.19153,0.72532
605.009,28.70947,0.48843,-3.19289,0.7248
605.709,28.73238,0.48342,-3.19284,0.72429
606.409,28.7554,0.48526,-3.19284,0.72377
607.109,28.7783,0.4796,-3.19304,0.72326
607.809,28.80126,0.47716,-3.19416,0.72274
608.509,28.82408,0.47619,-3.19416,0.72223
609.209,28.847,0.47224,-3.19452,0.72171
609.909,28.86989,0.47248,-3.19548,0.7212
610.609,28.89296,0.46939,-3.19548,0.72068
611.309,28.9159,0.46607,-3.19664,0.72016
612.009,28.9388,0.46494,-3.19679,0.71965
612.709,28.9617,0.46272,-3.19679,0.71913
613.409,28.9848,0.46222,-3.19679,0.71862
614.109,29.00773,0.45985,-3.19758,0.7181
614.809,29.03068,0.45835,-3.19811,0.71758
615.509,29.0536,0.45805,-3.1988,0.71707
616.209,29.07657,0.45511,-3.19943,0.71655
616.909,29.0996,0.45328,-3.19943,0.71603
617.609,29.12258,0.45306,-3.20001,0.71552
618.309,29.14555,0.44881,-3.20078,0.715
619.009,29.16853,0.45034,-3.19995,0.71448
619.709,29.1915,0.44806,-3.20075,0.71397
620.409,29.21445,0.44508,-3.20124,0.71345
621.109,29.2374,0.44259,-3.20336,0.71293
621.809,29.26045,0.44512,-3.20337,0.71241
622.509,29.28335,0.44338,-3.20348,0.7119
623.209,29.3064,0.43896,-3.20566,0.71138
623.909,29.3294,0.43785,-3.20602,0.71086
624.609,29.35244,0.43315,-3.20729,0.71034
625.309,29.3755,0.43202,-3.20599,0.70983
626.009,29.39847,0.43212,-3.20685,0.70931
626.709,29.4215,0.42955,-3.20732,0.70879
627.409,29.4444,0.42772,-3.20733,0.70827
628.109,29.4674,0.42632,-3.20764,0.70776
628.809,29.4903,0.42346,-3.20765,0.70724
629.509,29.51336,0.42127,-3.20765,0.70672
630.209,29.53633,0.42096,-3.20765,0.7062
630.909,29.5595,0.41507,-3.20763,0.70568
631.609,29.58251,0.41416,-3.20896,0.70516
632.309,29.6056,0.41268,-3.20897,0.70464
633.009,29.6286,0.41124,-3.21009,0.70413
633.709,29.65157,0.40872,-3.21029,0.70361
634.409,29.6746,0.40592,-3.21164,0.70309
635.109,29.6975,0.40271,-3.2116,0.70257
635.809,29.72053,0.40465,-3.2116,0.70205
636.509,29.74352,0.39731,-3.21172,0.70153
637.209,29.76655,0.39675,-3.21291,0.70101
637.909,29.7895,0.39213,-3.21292,0.70049
638.609,29.8125,0.3937,-3.21418,0.69997
639.309,29.83545,0.39465,-3.21423,0.69945
640.009,29.85851,0.39239,-3.21508,0.69893
640.709,29.8817,0.38869,-3.21555,0.69841
641.409,29.9048,0.38836,-3.2155,0.69789
642.109,29.9279,0.38614,-3.21685,0.69737
642.809,29.9509,0.38576,-3.21808,0.69685
643.509,29.9739,0.3845,-3.21829,0.69633
644.209,29.99697,0.38126,-3.21953,0.69581
644.909,30.02,0.37989,-3.22093,0.69529
645.609,30.043,0.37665,-3.22093,0.69477
646.309,30.066,0.37703,-3.22093,0.69425
647.009,30.0891,0.37479,-3.22093,0.69373
647.709,30.112,0.37177,-3.22093,0.69321
648.409,30.1352,0.36938,-3.22143,0.69269
649.109,30.15829,0.36933,-3.22224,0.69217
649.809,30.1815,0.36786,-3.22348,0.69165
650.509,30.20447,0.36301,-3.22377,0.69113
651.209,30.2275,0.36662,-3.22248,0.69061
651.909,30.25054,0.36199,-3.22376,0.69009
652.609,30.2736,0.36157,-3.22377,0.68957
653.309,30.29663,0.35862,-3.22441,0.68904
654.009,30.3196,0.35984,-3.2252,0.68852
654.709,30.3427,0.35535,-3.22638,0.688
655.409,30.36587,0.35508,-3.22653,0.68748
656.109,30.389,0.34947,-3.22788,0.68696
656.809,30.41212,0.35087,-3.22783,0.68644
657.509,30.43522,0.34713,-3.22783,0.68592
658.209,30.45826,0.34737,-3.22783,0.68539
658.909,30.4811,0.34515,-3.22783,0.68487
659.609,30.5042,0.34533,-3.22783,0.68435
660.309,30.5273,0.33979,-3.22783,0.68383
661.009,30.5506,0.34179,-3.22658,0.68331
661.709,30.57375,0.33804,-3.22785,0.68278
662.409,30.59688,0.33512,-3.22784,0.68226
663.109,30.6199,0.33465,-3.22849,0.68174
663.809,30.64295,0.33266,-3.22915,0.68122
664.509,30.666,0.33319,-3.22916,0.6807
665.209,30.68913,0.33033,-3.23051,0.68017
665.909,30.7123,0.32711,-3.23046,0.67965
666.609,30.73548,0.32351,-3.23046,0.67913
667.309,30.75863,0.32471,-3.23044,0.6786
668.009,30.78176,0.32133,-3.23192,0.67808
668.709,30.8049,0.32055,-3.23188,0.67756
669.409,30.8279,0.32181,-3.23163,0.67704
670.109,30.851,0.31561,-3.23191,0.67651
670.809,30.8741,0.31835,-3.23295,0.67599
671.509,30.8972,0.31672,-3.23333,0.67547
672.209,30.9203,0.31193,-3.23263,0.67494
672.909,30.9434,0.31065,-3.2333,0.67442
673.609,30.9665,0.30859,-3.23332,0.6739
674.309,30.98954,0.30767,-3.23332,0.67337
675.009,31.01265,0.30266,-3.23332,0.67285
675.709,31.03578,0.30417,-3.23332,0.67233
676.409,31.0589,0.30344,-3.23332,0.6718
677.109,31.08193,0.29983,-3.23445,0.67128
677.809,31.105,0.29796,-3.23463,0.67076
678.509,31.128,0.29637,-3.23471,0.67023
679.209,31.15117,0.29459,-3.23595,0.66971
679.909,31.1743,0.29178,-3.2373,0.66918
680.609,31.1974,0.29125,-3.23727,0.66866
681.309,31.2205,0.29036,-3.23727,0.66814
682.009,31.24366,0.28431,-3.23715,0.66761
682.709,31.2668,0.28246,-3.23595,0.66709
683.409,31.28988,0.28469,-3.2362,0.66656
684.109,31.31304,0.28095,-3.23727,0.66604
684.809,31.3362,0.28128,-3.23729,0.66551
685.509,31.3594,0.27876,-3.23596,0.66499
686.209,31.38249,0.27326,-3.23729,0.66446
686.909,31.4057,0.27521,-3.23727,0.66394
687.609,31.4288,0.27204,-3.23819,0.66342
688.309,31.45185,0.27222,-3.23859,0.66289
689.009,31.4749,0.27094,-3.2386,0.66237
689.709,31.498,0.26985,-3.23977,0.66184
690.409,31.52106,0.26923,-3.23991,0.66132
691.109,31.54415,0.26868,-3.24104,0.66079
691.809,31.5673,0.26511,-3.24161,0.66027
692.509,31.59047,0.2635,-3.24253,0.65974
693.209,31.6137,0.26406,-3.24253,0.65922
693.909,31.6368,0.26152,-3.24253,0.65869
694.609,31.66,0.25904,-3.24352,0.65816
695.309,31.68308,0.25737,-3.24352,0.65764
696.009,31.70617,0.25739,-3.24352,0.65711
696.709,31.72927,0.25798,-3.24384,0.65659
697.409,31.75243,0.25296,-3.24382,0.65606
698.109,31.7756,0.25464,-3.24515,0.65554
698.809,31.7988,0.25511,-3.24516,0.65501
699.509,31.82198,0.24999,-3.24516,0.65449
700.209,31.8451,0.24775,-3.24537,0.65396
700.909,31.86833,0.24465,-3.24648,0.65343
701.609,31.89155,0.24257,-3.24648,0.65291
702.309,31.91475,0.24264,-3.24648,0.65238
703.009,31.938,0.24113,-3.24648,0.65186
703.709,31.96108,0.24177,-3.24691,0.65133
704.409,31.98426,0.23344,-3.2478,0.6508
705.109,32.00743,0.23828,-3.24705,0.65028
705.809,32.03058,0.23557,-3.2476,0.64975
706.509,32.05377,0.23523,-3.2478,0.64922
707.209,32.0768,0.23319,-3.2478,0.6487
707.909,32.09985,0.23201,-3.24812,0.64817
708.609,32.12297,0.23048,-3.24911,0.64764
709.309,32.14631,0.22574,-3.24912,0.64712
710.009,32.16972,0.22388,-3.24912,0.64659
710.709,32.193,0.22746,-3.24912,0.64607
711.409,32.21629,0.22011,-3.24912,0.64554
712.109,32.23952,0.22005,-3.24912,0.64501
712.809,32.2627,0.21837,-3.24912,0.64448
713.509,32.28587,0.21856,-3.24968,0.64396
714.209,32.30912,0.215,-3.25044,0.64343
714.909,32.33225,0.21347,-3.25044,0.6429
715.609,32.35535,0.2112,-3.25042,0.64238
716.309,32.3786,0.20981,-3.25077,0.64185
717.009,32.40193,0.20658,-3.25077,0.64132
717.709,32.42536,0.20472,-3.25077,0.6408
718.409,32.4486,0.2024,-3.25078,0.64027
719.109,32.47184,0.20258,-3.25145,0.63974
719.809,32.4951,0.20207,-3.251,0.63921
720.509,32.5184,0.19751,-3.25043,0.63869
721.209,32.54166,0.20083,-3.25043,0.63816
721.909,32.56498,0.20177,-3.25044,0.63763
722.609,32.58828,0.19857,-3.2518,0.6371
723.309,32.6117,0.19617,-3.25175,0.63658
724.009,32.63493,0.19581,-3.25174,0.63605
724.709,32.65821,0.19365,-3.25302,0.63552
725.409,32.6815,0.19025,-3.25307,0.63499
726.109,32.70477,0.19158,-3.25425,0.63447
726.809,32.72802,0.18935,-3.25441,0.63394
727.509,32.75125,0.18284,-3.2565,0.63341
728.209,32.77454,0.18551,-3.25702,0.63288
728.909,32.79789,0.18099,-3.25742,0.63235
729.609,32.82113,0.1816,-3.25833,0.63183
730.309,32.8444,0.17606,-3.25716,0.6313
731.009,32.86773,0.17566,-3.25701,0.63077
731.709,32.89107,0.17505,-3.25701,0.63024
732.409,32.91442,0.17343,-3.25701,0.62971
733.109,32.93777,0.17186,-3.25701,0.62919
733.809,32.9611,0.17114,-3.25701,0.62866
734.509,32.98444,0.1664,-3.25701,0.62813
735.209,33.00779,0.16307,-3.25699,0.6276
735.909,33.0312,0.1667,-3.25836,0.62707
736.609,33.05465,0.15986,-3.25833,0.62654
737.309,33.07802,0.15835,-3.25833,0.62602
738.009,33.1014,0.15554,-3.25836,0.62549
738.709,33.1248,0.15245,-3.25966,0.62496
739.409,33.14815,0.15219,-3.25962,0.62443
740.109,33.17155,0.15182,-3.25832,0.6239
740.809,33.19497,0.1468,-3.25833,0.62337
741.509,33.21837,0.14677,-3.25828,0.62284
742.209,33.24174,0.14737,-3.25963,0.62232
742.909,33.2652,0.14205,-3.25964,0.62179
743.609,33.2885,0.14183,-3.25969,0.62126
744.309,33.31195,0.13409,-3.26097,0.62073
745.009,33.33534,0.13886,-3.26096,0.6202
745.709,33.35882,0.13772,-3.26096,0.61967
746.409,33.38224,0.13534,-3.26096,0.61914
747.109,33.4056,0.13081,-3.26096,0.61861
747.809,33.4291,0.12717,-3.26096,0.61808
748.509,33.45256,0.12526,-3.26152,0.61756
749.209,33.47598,0.1277,-3.26227,0.61703
749.909,33.49938,0.1265,-3.26227,0.6165
750.609,33.52284,0.12251,-3.26227,0.61597
751.309,33.54629,0.12162,-3.26227,0.61544
752.009,33.5698,0.11926,-3.2629,0.61491
752.709,33.59313,0.11661,-3.26359,0.61438
753.409,33.6164,0.11795,-3.26257,0.61385
754.109,33.6398,0.11373,-3.26325,0.61332
754.809,33.66324,0.10959,-3.2636,0.61279
755.509,33.6868,0.11275,-3.2636,0.61226
756.209,33.71032,0.10741,-3.2636,0.61173
756.909,33.7338,0.10383,-3.26323,0.61121
757.609,33.75727,0.1044,-3.2634,0.61068
758.309,33.7806,0.10543,-3.26359,0.61015
759.009,33.80389,0.10491,-3.26359,0.60962
759.709,33.82715,0.10216,-3.2636,0.60909
760.409,33.85076,0.09994897,-3.26492,0.60856
761.109,33.87444,0.09758978,-3.26491,0.60803
761.809,33.89819,0.09622452,-3.26489,0.6075
762.509,33.92175,0.09579711,-3.26622,0.60697
763.209,33.9452,0.09295164,-3.26757,0.60644
763.909,33.9687,0.09243791,-3.26755,0.60591
764.609,33.99214,0.09151508,-3.26755,0.60538
765.309,34.0156,0.08929943,-3.26755,0.60485
766.009,34.03914,0.09114667,-3.26755,0.60432
766.709,34.06255,0.08846837,-3.26755,0.60379
767.409,34.0861,0.08786088,-3.26756,0.60326
768.109,34.10952,0.08125496,-3.26658,0.60273
768.809,34.13316,0.08519916,-3.26656,0.6022
769.509,34.1566,0.08118527,-3.26624,0.60167
770.209,34.18012,0.07981166,-3.26624,0.60114
770.909,34.20358,0.07903655,-3.26645,0.60061
771.609,34.2271,0.07680983,-3.26622,0.60008
772.309,34.2506,0.0760745,-3.26622,0.59955
773.009,34.2742,0.075473,-3.26698,0.59902
773.709,34.29762,0.07184724,-3.26754,0.59849
774.409,34.32118,0.07188478,-3.26756,0.59796
775.109,34.34471,0.07330444,-3.26928,0.59743
775.809,34.3681,0.07569207,-3.27018,0.5969
776.509,34.3915,0.07243336,-3.27099,0.59637
777.209,34.41472,0.06656404,-3.27149,0.59584
777.909,34.4383,0.06849205,-3.27149,0.59531
778.609,34.46185,0.06368647,-3.27149,0.59478
779.309,34.48568,0.06958634,-3.27203,0.59425
780.009,34.50929,0.0670046,-3.27281,0.59372
780.709,34.53287,0.05961746,-3.27281,0.59319
781.409,34.55638,0.06344547,-3.27281,0.59266
782.109,34.5799,0.06266891,-3.27281,0.59213
782.809,34.60338,0.05891279,-3.27142,0.5916
783.509,34.6269,0.0589357,-3.2728,0.59107
784.209,34.65044,0.05936942,-3.2728,0.59054
784.909,34.67406,0.05955862,-3.2728,0.59001
785.609,34.69775,0.05537142,-3.27244,0.58948
786.309,34.72142,0.05585867,-3.27285,0.58895
787.009,34.7451,0.05622505,-3.27281,0.58842
787.709,34.76866,0.05638827,-3.27281,0.58789
788.409,34.7922,0.05185415,-3.27281,0.58736
789.109,34.81578,0.05064055,-3.27281,0.58683
789.809,34.83933,0.04541134,-3.27281,0.5863
790.509,34.86294,0.04248982,-3.27281,0.58577
791.209,34.8865,0.0439879,-3.27281,0.58524
791.909,34.91015,0.04454654,-3.27213,0.58471
792.609,34.93373,0.04351627,-3.27149,0.58418
793.309,34.95727,0.04046628,-3.2715,0.58365
794.009,34.98079,0.03911231,-3.27254,0.58312
794.509,34.9977,0.03766871,-3.27281,0.58274