File: 01_Data/FDNY_LDF/STA/N2/30K_min/LDF_STA_N2_30KData_22264_R3.csv
##Temp./Â°C,Time/min,DSC(subtr.)/(mW/mg),Mass loss(subtr.2)/mg,Sensit./(uV/mW)
48.632,10.00583,0.01090548,0.0023,1.075
49.332,10.5566,0.05614964,0.003200674,1.07469
50.032,10.68113,0.09216684,0.00239725,1.07438
50.732,10.77133,0.12569,0.002039479,1.07407
51.432,10.84486,0.15677,0.0028816,1.07376
52.132,10.90824,0.18623,0.0029165,1.07345
52.832,10.96471,0.21042,0.003713427,1.07314
53.532,11.01662,0.23616,0.00316738,1.07283
54.232,11.0647,0.25934,0.00276114,1.07252
54.932,11.1097,0.2787,0.002439275,1.0722
55.632,11.1525,0.29753,0.003076412,1.07189
56.332,11.19334,0.31964,0.001077644,1.07158
57.032,11.23223,0.33773,0.002481492,1.07126
57.732,11.26965,0.35561,0.002162039,1.07095
58.432,11.3056,0.37339,0.00285823,1.07063
59.132,11.3408,0.3915,0.003004003,1.07032
59.832,11.37533,0.40794,0.002372838,1.07
60.532,11.40878,0.42217,0.001909853,1.06968
61.232,11.44161,0.4378,0.001620701,1.06937
61.932,11.47373,0.45287,0.00174771,1.06905
62.632,11.50507,0.46725,0.001562778,1.06873
63.332,11.5358,0.48054,0.00102018,1.06841
64.032,11.5661,0.49559,0.0004975152,1.06809
64.732,11.59598,0.50875,0.002006817,1.06777
65.432,11.62538,0.52137,0.00258571,1.06745
66.132,11.65433,0.53417,0.001900749,1.06713
66.832,11.6829,0.54611,0.002017784,1.06681
67.532,11.71128,0.55903,0.001655101,1.06648
68.232,11.7393,0.57005,0.002194519,1.06616
68.932,11.76717,0.58224,0.002366136,1.06584
69.632,11.79472,0.59381,0.001266311,1.06551
70.332,11.82207,0.60659,0.000431078,1.06519
71.032,11.8492,0.61925,-4.775954e-06,1.06486
71.732,11.87624,0.62811,0.00104346,1.06454
72.432,11.9029,0.64085,0.0008074436,1.06421
73.132,11.92947,0.65038,-0.0008277854,1.06389
73.832,11.9559,0.65925,8.07424e-05,1.06356
74.532,11.98227,0.67064,0.000431249,1.06323
75.232,12.00837,0.679,0.00024411,1.0629
75.932,12.0341,0.69167,8.13151e-05,1.06257
76.632,12.05977,0.69997,0.0007374253,1.06225
77.332,12.08545,0.70971,-0.0002910872,1.06192
78.032,12.11125,0.7194,-0.000395158,1.06159
78.732,12.13672,0.72939,-0.001773729,1.06125
79.432,12.1622,0.73789,-0.002532384,1.06092
80.132,12.1876,0.74888,-0.002266399,1.06059
80.832,12.21279,0.7572,-0.000832471,1.06026
81.532,12.2378,0.76431,0.000142219,1.05993
82.232,12.26268,0.77376,-0.0004160136,1.05959
82.932,12.2877,0.78078,-0.002970778,1.05926
83.632,12.31227,0.78967,-0.00294988,1.05892
84.332,12.3368,0.79721,-0.004273888,1.05859
85.032,12.3614,0.80553,-0.003356213,1.05825
85.732,12.38623,0.81451,-0.002990337,1.05792
86.432,12.41088,0.82272,-0.00406691,1.05758
87.132,12.4353,0.8292,-0.00304984,1.05725
87.832,12.45979,0.83936,-0.004277668,1.05691
88.532,12.4841,0.84511,-0.004263408,1.05657
89.232,12.50833,0.85051,-0.0050477,1.05623
89.932,12.53235,0.85591,-0.004280877,1.05589
90.632,12.5564,0.86376,-0.00557128,1.05555
91.332,12.58042,0.86987,-0.006159899,1.05521
92.032,12.60465,0.87564,-0.005798458,1.05487
92.732,12.62872,0.88129,-0.006432384,1.05453
93.432,12.65273,0.88685,-0.007139965,1.05419
94.132,12.67643,0.89118,-0.006418155,1.05385
94.832,12.70013,0.89627,-0.005872528,1.05351
95.532,12.7239,0.90239,-0.007122988,1.05317
96.232,12.74778,0.90781,-0.00726191,1.05282
96.932,12.77175,0.91133,-0.008447186,1.05248
97.632,12.79553,0.91447,-0.00847141,1.05213
98.332,12.8192,0.91912,-0.008134979,1.05179
99.032,12.8429,0.9215,-0.008451421,1.05144
99.732,12.8665,0.9235,-0.00845,1.0511
100.432,12.8901,0.92751,-0.008450362,1.05075
101.132,12.91382,0.92968,-0.008479995,1.05041
101.832,12.93742,0.93055,-0.009780013,1.05006
102.532,12.9611,0.93486,-0.009778224,1.04971
103.232,12.9846,0.93602,-0.01101997,1.04936
103.932,13.0082,0.93528,-0.01108901,1.04901
104.632,13.0317,0.93836,-0.01109,1.04867
105.332,13.05524,0.93907,-0.01108999,1.04832
106.032,13.07869,0.9381,-0.01109036,1.04797
106.732,13.10217,0.93607,-0.01131545,1.04762
107.432,13.1256,0.93816,-0.01239919,1.04727
108.132,13.1492,0.93513,-0.01240087,1.04691
108.832,13.1727,0.93631,-0.01240967,1.04656
109.532,13.1963,0.93341,-0.0137081,1.04621
110.232,13.2196,0.93346,-0.01372009,1.04586
110.932,13.2429,0.93158,-0.01366942,1.0455
111.632,13.2663,0.93187,-0.01503492,1.04515
112.332,13.28969,0.93012,-0.01504029,1.0448
113.032,13.31313,0.92835,-0.01504232,1.04444
113.732,13.33644,0.92709,-0.01614888,1.04409
114.432,13.3598,0.92523,-0.01634952,1.04373
115.132,13.3832,0.92306,-0.01635001,1.04338
115.832,13.40649,0.92207,-0.01635,1.04302
116.532,13.4298,0.9196,-0.01635,1.04266
117.232,13.453,0.91747,-0.01635,1.0423
117.932,13.4762,0.91571,-0.01634993,1.04195
118.632,13.49937,0.91093,-0.0163493,1.04159
119.332,13.52266,0.91071,-0.01527544,1.04123
120.032,13.5459,0.90764,-0.01536631,1.04087
120.732,13.5691,0.90577,-0.01634522,1.04051
121.432,13.5921,0.90146,-0.01634873,1.04015
122.132,13.6152,0.90142,-0.01720916,1.03979
122.832,13.63825,0.89894,-0.01734029,1.03943
123.532,13.66128,0.89726,-0.01733761,1.03907
124.232,13.6844,0.89602,-0.01781897,1.03871
124.932,13.7074,0.89279,-0.01865316,1.03834
125.632,13.73042,0.89091,-0.01865062,1.03798
126.332,13.7534,0.89023,-0.01868553,1.03762
127.032,13.7764,0.88887,-0.01884554,1.03725
127.732,13.79936,0.88907,-0.01767086,1.03689
128.432,13.82231,0.88633,-0.01765256,1.03653
129.132,13.84518,0.88521,-0.01896687,1.03616
129.832,13.8679,0.88481,-0.01897958,1.0358
130.532,13.8907,0.88516,-0.01898484,1.03543
131.232,13.9135,0.88334,-0.02005376,1.03506
131.932,13.9364,0.8836,-0.01997791,1.0347
132.632,13.95907,0.88298,-0.01898034,1.03433
133.332,13.98175,0.88307,-0.01898007,1.03396
134.032,14.0046,0.88278,-0.01897998,1.0336
134.732,14.02736,0.8846,-0.01897773,1.03323
135.432,14.04994,0.88376,-0.01823881,1.03286
136.132,14.0725,0.88672,-0.01766,1.03249
136.832,14.09508,0.8852,-0.01766003,1.03212
137.532,14.1177,0.88477,-0.01766,1.03175
138.232,14.14025,0.88706,-0.01766,1.03138
138.932,14.1627,0.88922,-0.01765965,1.03101
139.632,14.1851,0.88986,-0.01767016,1.03064
140.332,14.20755,0.89185,-0.01830247,1.03027
141.032,14.23005,0.89182,-0.01832027,1.02989
141.732,14.2525,0.89633,-0.01832,1.02952
142.432,14.2748,0.89734,-0.01832,1.02915
143.132,14.2971,0.89851,-0.01831964,1.02877
143.832,14.3193,0.90075,-0.01831689,1.0284
144.532,14.34167,0.90135,-0.01896107,1.02803
145.232,14.364,0.90267,-0.0189802,1.02765
145.932,14.3865,0.90592,-0.01898025,1.02728
146.632,14.40882,0.90873,-0.01888763,1.0269
147.332,14.4312,0.91035,-0.01766337,1.02653
148.032,14.45341,0.91031,-0.01772905,1.02615
148.732,14.4757,0.91384,-0.01864571,1.02577
149.432,14.49792,0.91564,-0.01865003,1.02539
150.132,14.52,0.91752,-0.01865,1.02502
150.832,14.542,0.91917,-0.01865,1.02464
151.532,14.564,0.92059,-0.01865,1.02426
152.232,14.5861,0.92467,-0.01865,1.02388
152.932,14.6084,0.92731,-0.01865,1.0235
153.632,14.6307,0.93057,-0.01865,1.02312
154.332,14.65288,0.93008,-0.01865,1.02274
155.032,14.675,0.93475,-0.01865,1.02236
155.732,14.697,0.9381,-0.01865,1.02198
156.432,14.71904,0.93892,-0.01865,1.0216
157.132,14.74112,0.94119,-0.01865,1.02122
157.832,14.76319,0.94206,-0.01865,1.02084
158.532,14.7852,0.94537,-0.01865,1.02046
159.232,14.80727,0.94822,-0.01865,1.02007
159.932,14.82934,0.95026,-0.01865,1.01969
160.632,14.8514,0.9528,-0.01865,1.01931
161.332,14.8734,0.95608,-0.01865,1.01892
162.032,14.8954,0.95838,-0.01865,1.01854
162.732,14.9173,0.96027,-0.01865,1.01815
163.432,14.93925,0.96299,-0.01865001,1.01777
164.132,14.9611,0.96704,-0.01862922,1.01738
164.832,14.9829,0.97146,-0.01897194,1.017
165.532,15.0048,0.97355,-0.01898005,1.01661
166.232,15.0268,0.9746,-0.01898,1.01622
166.932,15.04889,0.9769,-0.01897999,1.01584
167.632,15.0708,0.9801,-0.01898033,1.01545
168.332,15.09274,0.98263,-0.01898432,1.01506
169.032,15.11459,0.98495,-0.02031854,1.01467
169.732,15.1365,0.98842,-0.02029971,1.01429
170.432,15.1584,0.99301,-0.0203,1.0139
171.132,15.1802,0.99422,-0.0203,1.01351
171.832,15.202,0.99815,-0.0203,1.01312
172.532,15.22371,0.99968,-0.0203,1.01273
173.232,15.2454,1.00295,-0.0203,1.01234
173.932,15.2671,1.00547,-0.0203,1.01195
174.632,15.2889,1.00838,-0.0203,1.01156
175.332,15.31071,1.01023,-0.0203,1.01116
176.032,15.3325,1.01383,-0.0203,1.01077
176.732,15.3542,1.01693,-0.0203,1.01038
177.432,15.37589,1.01773,-0.0203,1.00999
178.132,15.39759,1.0221,-0.0203,1.00959
178.832,15.4193,1.02685,-0.0203,1.0092
179.532,15.44096,1.02864,-0.0203,1.00881
180.232,15.46261,1.02967,-0.0203,1.00841
180.932,15.48427,1.03395,-0.0203,1.00802
181.632,15.5059,1.0362,-0.0203,1.00762
182.332,15.52745,1.03939,-0.02029999,1.00723
183.032,15.549,1.04085,-0.02030089,1.00683
183.732,15.57051,1.04469,-0.02024968,1.00644
184.432,15.5919,1.04741,-0.02161864,1.00604
185.132,15.6135,1.04929,-0.02161017,1.00564
185.832,15.635,1.05392,-0.02160999,1.00525
186.532,15.65671,1.05679,-0.02161,1.00485
187.232,15.6783,1.05885,-0.02161001,1.00445
187.932,15.6998,1.06351,-0.02161041,1.00405
188.632,15.72125,1.06607,-0.02151654,1.00366
189.332,15.74275,1.06955,-0.02131132,1.00326
190.032,15.76425,1.07311,-0.02096436,1.00286
190.732,15.7858,1.07736,-0.02096,1.00246
191.432,15.80719,1.07925,-0.02096,1.00206
192.132,15.8286,1.08004,-0.02095999,1.00166
192.832,15.85004,1.08628,-0.02096035,1.00126
193.532,15.87144,1.08923,-0.0209475,1.00086
194.232,15.8929,1.09021,-0.02227903,1.00045
194.932,15.91424,1.09493,-0.02194834,1.00005
195.632,15.93565,1.09692,-0.02193983,0.99965
196.332,15.95706,1.09942,-0.02194,0.99925
197.032,15.9784,1.10326,-0.02194,0.99885
197.732,15.99986,1.1055,-0.02194,0.99844
198.432,16.0213,1.11201,-0.02193994,0.99804
199.132,16.04261,1.11496,-0.02194491,0.99764
199.832,16.064,1.11605,-0.02275613,0.99723
200.532,16.08534,1.1177,-0.02325935,0.99683
201.232,16.10676,1.12229,-0.02326132,0.99642
201.932,16.1281,1.1256,-0.02380887,0.99602
202.632,16.14948,1.12971,-0.02456572,0.99561
203.332,16.17079,1.13289,-0.02457005,0.99521
204.032,16.19211,1.1367,-0.02457,0.9948
204.732,16.2134,1.13935,-0.02456993,0.99439
205.432,16.23467,1.14292,-0.02457911,0.99399
206.132,16.25599,1.1461,-0.02564229,0.99358
206.832,16.27733,1.14863,-0.0258921,0.99317
207.532,16.2987,1.1538,-0.02588947,0.99277
208.232,16.32001,1.1574,-0.0262963,0.99236
208.932,16.34131,1.16092,-0.02720494,0.99195
209.632,16.36266,1.161,-0.0272101,0.99154
210.332,16.3839,1.16538,-0.02720973,0.99113
211.032,16.40496,1.16894,-0.02721901,0.99072
211.732,16.42604,1.17178,-0.02817935,0.99031
212.432,16.44725,1.17574,-0.02752499,0.9899
213.132,16.4687,1.18021,-0.02761618,0.98949
213.832,16.49019,1.18208,-0.02886309,0.98908
214.532,16.51162,1.18512,-0.02885303,0.98867
215.232,16.53283,1.18806,-0.02986765,0.98826
215.932,16.55407,1.1926,-0.03017121,0.98785
216.632,16.5753,1.19595,-0.03016975,0.98743
217.332,16.59658,1.19869,-0.03018362,0.98702
218.032,16.61785,1.20258,-0.0314,0.98661
218.732,16.6391,1.20514,-0.03148005,0.9862
219.432,16.66039,1.20787,-0.03152144,0.98578
220.132,16.68158,1.21159,-0.03308788,0.98537
220.832,16.70269,1.214,-0.03346348,0.98496
221.532,16.72393,1.21952,-0.0334597,0.98454
222.232,16.74524,1.21971,-0.03346639,0.98413
222.932,16.76663,1.22145,-0.03479906,0.98371
223.632,16.788,1.22594,-0.03476904,0.9833
224.332,16.8092,1.22791,-0.03476869,0.98288
225.032,16.83041,1.23122,-0.03494902,0.98246
225.732,16.85172,1.23514,-0.03553201,0.98205
226.432,16.87292,1.2359,-0.03476312,0.98163
227.132,16.8942,1.23804,-0.03613797,0.98122
227.832,16.91542,1.24119,-0.03604507,0.9808
228.532,16.9367,1.24254,-0.03743995,0.98038
229.232,16.9578,1.24583,-0.0373628,0.97996
229.932,16.97907,1.24583,-0.03894144,0.97955
230.632,17.00029,1.25059,-0.03975378,0.97913
231.332,17.02158,1.25164,-0.0404253,0.97871
232.032,17.04279,1.2555,-0.04192059,0.97829
232.732,17.06399,1.25547,-0.04233239,0.97787
233.432,17.0852,1.26,-0.04321582,0.97745
234.132,17.10643,1.26095,-0.04395591,0.97703
234.832,17.12763,1.265,-0.04504122,0.97661
235.532,17.14881,1.26597,-0.0458568,0.97619
236.232,17.17,1.27116,-0.0469876,0.97577
236.932,17.19112,1.27271,-0.04716108,0.97535
237.632,17.2123,1.27494,-0.04805671,0.97493
238.332,17.23348,1.27873,-0.048172,0.9745
239.032,17.25467,1.28045,-0.04881808,0.97408
239.732,17.27586,1.28352,-0.0494614,0.97366
240.432,17.29705,1.28538,-0.05024738,0.97324
241.132,17.31825,1.28668,-0.05159638,0.97281
241.832,17.33936,1.29234,-0.05166038,0.97239
242.532,17.36048,1.2967,-0.05251879,0.97197
243.232,17.38164,1.2979,-0.05326918,0.97154
243.932,17.40275,1.30107,-0.05476654,0.97112
244.632,17.42389,1.30222,-0.05608074,0.9707
245.332,17.44506,1.30443,-0.05682205,0.97027
246.032,17.46622,1.30709,-0.0578219,0.96985
246.732,17.48726,1.31275,-0.05951673,0.96942
247.432,17.50842,1.3146,-0.06127001,0.969
248.132,17.52955,1.31912,-0.06149227,0.96857
248.832,17.55076,1.32024,-0.06262529,0.96814
249.532,17.57199,1.32317,-0.06367301,0.96772
250.232,17.59314,1.32779,-0.06492443,0.96729
250.932,17.61421,1.32966,-0.06635,0.96686
251.632,17.63531,1.33321,-0.06741383,0.96644
252.332,17.65635,1.33635,-0.06893744,0.96601
253.032,17.67749,1.33992,-0.06985804,0.96558
253.732,17.69864,1.34407,-0.07132191,0.96515
254.432,17.7198,1.34742,-0.07278479,0.96472
255.132,17.741,1.34694,-0.07415891,0.9643
255.832,17.76215,1.35174,-0.0758356,0.96387
256.532,17.78324,1.35476,-0.07794841,0.96344
257.232,17.80432,1.35956,-0.07938683,0.96301
257.932,17.82545,1.36058,-0.08138546,0.96258
258.632,17.84666,1.36404,-0.08327663,0.96215
259.332,17.86784,1.36798,-0.08533627,0.96172
260.032,17.889,1.37235,-0.08705329,0.96129
260.732,17.9101,1.37231,-0.08865795,0.96086
261.432,17.9312,1.37636,-0.08967555,0.96043
262.132,17.95228,1.37974,-0.09166733,0.95999
262.832,17.97341,1.38288,-0.09403456,0.95956
263.532,17.99459,1.3857,-0.09609288,0.95913
264.232,18.0157,1.38809,-0.09690552,0.9587
264.932,18.03685,1.39049,-0.09871937,0.95827
265.632,18.05793,1.39275,-0.10063,0.95783
266.332,18.07907,1.39669,-0.10387,0.9574
267.032,18.1002,1.3987,-0.10591,0.95697
267.732,18.12126,1.40261,-0.10788,0.95653
268.432,18.14236,1.40269,-0.1103,0.9561
269.132,18.16346,1.40525,-0.11244,0.95566
269.832,18.18458,1.40932,-0.11473,0.95523
270.532,18.2057,1.41122,-0.11671,0.95479
271.232,18.2268,1.41182,-0.11873,0.95436
271.932,18.2479,1.4161,-0.12172,0.95392
272.632,18.2689,1.41791,-0.12544,0.95349
273.332,18.29,1.4227,-0.12885,0.95305
274.032,18.31118,1.42449,-0.13199,0.95262
274.732,18.33234,1.42541,-0.13413,0.95218
275.432,18.35351,1.42906,-0.1367,0.95174
276.132,18.3747,1.42991,-0.13938,0.95131
276.832,18.3958,1.43287,-0.14292,0.95087
277.532,18.41691,1.43721,-0.14567,0.95043
278.232,18.43802,1.439,-0.14844,0.95
278.932,18.4591,1.44194,-0.15126,0.94956
279.632,18.48025,1.44596,-0.15486,0.94912
280.332,18.5014,1.44737,-0.15837,0.94868
281.032,18.5225,1.4501,-0.16136,0.94824
281.732,18.54373,1.44957,-0.16465,0.9478
282.432,18.56485,1.45168,-0.16831,0.94736
283.132,18.58601,1.45599,-0.17146,0.94692
283.832,18.60714,1.45656,-0.17553,0.94648
284.532,18.62819,1.45875,-0.18011,0.94604
285.232,18.64939,1.46243,-0.18271,0.9456
285.932,18.67035,1.46428,-0.1857,0.94516
286.632,18.69135,1.46737,-0.18882,0.94472
287.332,18.71244,1.4689,-0.19314,0.94428
288.032,18.73357,1.47168,-0.19882,0.94384
288.732,18.75491,1.47359,-0.20396,0.9434
289.432,18.77616,1.47527,-0.20873,0.94296
290.132,18.79717,1.47653,-0.21299,0.94252
290.832,18.81821,1.47926,-0.2164,0.94207
291.532,18.83934,1.4804,-0.22062,0.94163
292.232,18.86056,1.48439,-0.22583,0.94119
292.932,18.8818,1.48441,-0.23025,0.94075
293.632,18.90297,1.48725,-0.23588,0.9403
294.332,18.9241,1.48866,-0.24141,0.93986
295.032,18.94533,1.4933,-0.24754,0.93941
295.732,18.96649,1.49434,-0.25234,0.93897
296.432,18.9877,1.49577,-0.25812,0.93853
297.132,19.00883,1.49635,-0.26348,0.93808
297.832,19.02998,1.49916,-0.26949,0.93764
298.532,19.05116,1.5016,-0.27546,0.93719
299.232,19.07231,1.50493,-0.28021,0.93675
299.932,19.0934,1.50664,-0.28639,0.9363
300.632,19.11445,1.50878,-0.29186,0.93586
301.332,19.13557,1.51145,-0.29837,0.93541
302.032,19.1567,1.51362,-0.30448,0.93496
302.732,19.17784,1.51553,-0.30989,0.93452
303.432,19.19904,1.51761,-0.31696,0.93407
304.132,19.22018,1.52103,-0.32275,0.93362
304.832,19.24138,1.52349,-0.32987,0.93318
305.532,19.26258,1.52476,-0.33663,0.93273
306.232,19.28375,1.52808,-0.34376,0.93228
306.932,19.3049,1.53193,-0.35314,0.93183
307.632,19.32614,1.53504,-0.35988,0.93139
308.332,19.34733,1.53694,-0.36772,0.93094
309.032,19.36861,1.54179,-0.37476,0.93049
309.732,19.38972,1.54383,-0.38262,0.93004
310.432,19.41091,1.54814,-0.39013,0.92959
311.132,19.43205,1.55206,-0.39648,0.92914
311.832,19.45318,1.55508,-0.40509,0.92869
312.532,19.47433,1.55953,-0.41254,0.92824
313.232,19.49548,1.56233,-0.42096,0.92779
313.932,19.51672,1.56909,-0.42929,0.92734
314.632,19.538,1.57204,-0.43703,0.92689
315.332,19.55919,1.57733,-0.44655,0.92644
316.032,19.5804,1.58062,-0.45415,0.92599
316.732,19.60151,1.5874,-0.46395,0.92554
317.432,19.6227,1.59095,-0.47369,0.92509
318.132,19.644,1.59636,-0.48354,0.92464
318.832,19.66527,1.60145,-0.49418,0.92418
319.532,19.68646,1.60759,-0.50269,0.92373
320.232,19.7076,1.61237,-0.5133,0.92328
320.932,19.72873,1.61931,-0.52299,0.92283
321.632,19.74995,1.62586,-0.53316,0.92237
322.332,19.7712,1.63078,-0.54373,0.92192
323.032,19.7925,1.63612,-0.55258,0.92147
323.732,19.81374,1.64153,-0.5641,0.92102
324.432,19.83503,1.64987,-0.57468,0.92056
325.132,19.8563,1.65543,-0.58546,0.92011
325.832,19.87752,1.66359,-0.59726,0.91965
326.532,19.89874,1.67126,-0.60755,0.9192
327.232,19.92005,1.67714,-0.62037,0.91874
327.932,19.9413,1.68527,-0.63158,0.91829
328.632,19.96261,1.69066,-0.64548,0.91784
329.332,19.9838,1.70009,-0.65814,0.91738
330.032,20.00504,1.70784,-0.67009,0.91692
330.732,20.0263,1.71174,-0.68461,0.91647
331.432,20.04766,1.71929,-0.69605,0.91601
332.132,20.069,1.72647,-0.70878,0.91556
332.832,20.0903,1.73391,-0.72194,0.9151
333.532,20.11168,1.7441,-0.73453,0.91464
334.232,20.133,1.74956,-0.75002,0.91419
334.932,20.15431,1.7572,-0.76306,0.91373
335.632,20.1756,1.76144,-0.77789,0.91327
336.332,20.19697,1.76935,-0.79241,0.91282
337.032,20.2182,1.7758,-0.80564,0.91236
337.732,20.23958,1.78584,-0.82226,0.9119
338.432,20.26095,1.79204,-0.83606,0.91144
339.132,20.2823,1.79659,-0.85165,0.91098
339.832,20.3037,1.80223,-0.86737,0.91053
340.532,20.3251,1.80562,-0.88153,0.91007
341.232,20.34648,1.81454,-0.8981,0.90961
341.932,20.36786,1.81648,-0.91248,0.90915
342.632,20.3892,1.82382,-0.92871,0.90869
343.332,20.41056,1.82882,-0.94553,0.90823
344.032,20.43195,1.83271,-0.96036,0.90777
344.732,20.45339,1.83729,-0.97857,0.90731
345.432,20.47485,1.84286,-0.99418,0.90685
346.132,20.49632,1.8462,-1.01105,0.90639
346.832,20.51773,1.85359,-1.02848,0.90593
347.532,20.5392,1.85617,-1.04226,0.90547
348.232,20.5604,1.85968,-1.06,0.90501
348.932,20.58182,1.86113,-1.07547,0.90455
349.632,20.60324,1.86494,-1.09277,0.90409
350.332,20.62477,1.86882,-1.11175,0.90362
351.032,20.6463,1.87148,-1.12754,0.90316
351.732,20.66773,1.87382,-1.14629,0.9027
352.432,20.68927,1.8784,-1.16308,0.90224
353.132,20.71071,1.87998,-1.18008,0.90178
353.832,20.73215,1.88673,-1.19912,0.90131
354.532,20.75355,1.88836,-1.21478,0.90085
355.232,20.77502,1.89146,-1.23403,0.90039
355.932,20.79654,1.89599,-1.25282,0.89992
356.632,20.8181,1.89951,-1.26932,0.89946
357.332,20.83962,1.90593,-1.28839,0.899
358.032,20.86112,1.90658,-1.30422,0.89853
358.732,20.88267,1.9157,-1.32272,0.89807
359.432,20.90423,1.91968,-1.34176,0.89761
360.132,20.92566,1.92705,-1.35896,0.89714
360.832,20.9471,1.93538,-1.37953,0.89668
361.532,20.96858,1.94135,-1.39628,0.89621
362.232,20.9901,1.95091,-1.41372,0.89575
362.932,21.01172,1.96068,-1.4332,0.89528
363.632,21.0333,1.97084,-1.4496,0.89482
364.332,21.05486,1.98376,-1.46973,0.89435
365.032,21.0762,1.99436,-1.48863,0.89388
365.732,21.09756,2.00981,-1.50697,0.89342
366.432,21.11899,2.02479,-1.52712,0.89295
367.132,21.14069,2.03944,-1.54425,0.89249
367.832,21.16251,2.05299,-1.56428,0.89202
368.532,21.18431,2.07017,-1.58491,0.89155
369.232,21.2059,2.08938,-1.60291,0.89108
369.932,21.2275,2.10833,-1.62512,0.89062
370.632,21.2491,2.12706,-1.64454,0.89015
371.332,21.27071,2.14608,-1.6638,0.88968
372.032,21.29234,2.16927,-1.6854,0.88922
372.732,21.31391,2.19221,-1.70362,0.88875
373.432,21.33555,2.21369,-1.72546,0.88828
374.132,21.35718,2.23629,-1.74716,0.88781
374.832,21.37882,2.25899,-1.76684,0.88734
375.532,21.40043,2.28293,-1.79082,0.88687
376.232,21.42203,2.30746,-1.81135,0.8864
376.932,21.44371,2.33014,-1.8333,0.88594
377.632,21.4654,2.35457,-1.8584,0.88547
378.332,21.48702,2.38067,-1.8793,0.885
379.032,21.50874,2.40133,-1.90356,0.88453
379.732,21.5304,2.42373,-1.92701,0.88406
380.432,21.55206,2.44988,-1.94912,0.88359
381.132,21.57385,2.46728,-1.97535,0.88312
381.832,21.59554,2.48742,-1.99811,0.88265
382.532,21.61736,2.50764,-2.02289,0.88218
383.232,21.63906,2.52428,-2.04937,0.8817
383.932,21.66077,2.5405,-2.07162,0.88123
384.632,21.6826,2.55071,-2.09805,0.88076
385.332,21.70426,2.5647,-2.12469,0.88029
386.032,21.726,2.57301,-2.14755,0.87982
386.732,21.74774,2.57875,-2.17467,0.87935
387.432,21.76943,2.58027,-2.19935,0.87888
388.132,21.79117,2.57891,-2.22358,0.8784
388.832,21.8129,2.57795,-2.25155,0.87793
389.532,21.83471,2.57215,-2.2751,0.87746
390.232,21.85643,2.56035,-2.30074,0.87699
390.932,21.87821,2.54441,-2.32588,0.87651
391.632,21.8999,2.52532,-2.34814,0.87604
392.332,21.9217,2.49945,-2.37464,0.87557
393.032,21.9434,2.47206,-2.39977,0.87509
393.732,21.9651,2.44006,-2.42328,0.87462
394.432,21.98688,2.40377,-2.44904,0.87415
395.132,22.0087,2.36027,-2.47054,0.87367
395.832,22.0305,2.31268,-2.49271,0.8732
396.532,22.05227,2.26011,-2.51716,0.87272
397.232,22.07398,2.20598,-2.53697,0.87225
397.932,22.0957,2.14313,-2.55922,0.87178
398.632,22.11736,2.07965,-2.57985,0.8713
399.332,22.1391,2.00841,-2.59765,0.87083
400.032,22.16089,1.9343,-2.61875,0.87035
400.732,22.18261,1.85843,-2.63673,0.86987
401.432,22.20433,1.7783,-2.65352,0.8694
402.132,22.22605,1.69654,-2.67113,0.86892
402.832,22.2476,1.61458,-2.68487,0.86845
403.532,22.2692,1.53009,-2.70016,0.86797
404.232,22.29081,1.44259,-2.715,0.8675
404.932,22.31242,1.35825,-2.72731,0.86702
405.632,22.3342,1.26898,-2.74011,0.86654
406.332,22.35588,1.18489,-2.7503,0.86607
407.032,22.37755,1.10085,-2.76082,0.86559
407.732,22.3992,1.01442,-2.7721,0.86511
408.432,22.42081,0.93537,-2.78052,0.86463
409.132,22.44248,0.86059,-2.78867,0.86416
409.832,22.46415,0.79007,-2.79611,0.86368
410.532,22.4858,0.72016,-2.80236,0.8632
411.232,22.50741,0.65542,-2.80927,0.86272
411.932,22.52903,0.59767,-2.81339,0.86224
412.632,22.55059,0.54472,-2.81828,0.86177
413.332,22.57222,0.49553,-2.82303,0.86129
414.032,22.5939,0.45003,-2.8288,0.86081
414.732,22.61552,0.41233,-2.83149,0.86033
415.432,22.63719,0.3744,-2.83453,0.85985
416.132,22.65888,0.3429,-2.83874,0.85937
416.832,22.68058,0.31838,-2.84236,0.85889
417.532,22.70233,0.29526,-2.84588,0.85841
418.232,22.72405,0.27472,-2.84878,0.85793
418.932,22.74575,0.25767,-2.85095,0.85745
419.632,22.76747,0.2414,-2.85346,0.85697
420.332,22.7892,0.22679,-2.85597,0.85649
421.032,22.81084,0.21557,-2.85909,0.85601
421.732,22.8326,0.20309,-2.86084,0.85553
422.432,22.85438,0.1927,-2.86369,0.85505
423.132,22.87615,0.18629,-2.86685,0.85457
423.832,22.89795,0.17641,-2.86932,0.85409
424.532,22.91974,0.16779,-2.87184,0.85361
425.232,22.94154,0.16089,-2.87389,0.85313
425.932,22.96336,0.15379,-2.8764,0.85265
426.632,22.98516,0.14877,-2.87897,0.85216
427.332,23.00694,0.14269,-2.88148,0.85168
428.032,23.02871,0.1377,-2.8831,0.8512
428.732,23.05051,0.13287,-2.88489,0.85072
429.432,23.07241,0.12303,-2.88693,0.85024
430.132,23.09435,0.11804,-2.88904,0.84975
430.832,23.1162,0.1155,-2.89131,0.84927
431.532,23.1381,0.11148,-2.89364,0.84879
432.232,23.15991,0.1063,-2.89628,0.8483
432.932,23.18187,0.10305,-2.89883,0.84782
433.632,23.20383,0.09480302,-2.90119,0.84734
434.332,23.22578,0.08922177,-2.90373,0.84685
435.032,23.2477,0.08446094,-2.90623,0.84637
435.732,23.26962,0.08055587,-2.90787,0.84589
436.432,23.29147,0.07591185,-2.90978,0.8454
437.132,23.31336,0.0736218,-2.91155,0.84492
437.832,23.33529,0.06852292,-2.91339,0.84443
438.532,23.35718,0.06379785,-2.91592,0.84395
439.232,23.37914,0.05692187,-2.91831,0.84347
439.932,23.401,0.05100372,-2.91973,0.84298
440.632,23.42302,0.05142625,-2.9219,0.8425
441.332,23.44501,0.04593183,-2.9242,0.84201
442.032,23.46696,0.03897651,-2.92591,0.84153
442.732,23.48894,0.03370648,-2.92754,0.84104
443.432,23.51091,0.03059754,-2.92976,0.84055
444.132,23.53292,0.02692175,-2.93222,0.84007
444.832,23.55472,0.02185478,-2.93331,0.83958
445.532,23.5767,0.0197452,-2.93493,0.8391
446.232,23.5987,0.0151323,-2.93645,0.83861
446.932,23.62089,0.01008697,-2.93864,0.83812
447.632,23.64295,0.01008573,-2.94251,0.83764
448.332,23.66507,0.007287748,-2.94534,0.83715
449.032,23.68713,0.001983047,-2.94734,0.83666
449.732,23.7092,3.919783e-05,-2.94867,0.83618
450.432,23.73126,-0.00139683,-2.95044,0.83569
451.132,23.75325,-0.00164673,-2.95198,0.8352
451.832,23.7754,-0.00304328,-2.95422,0.83472
452.532,23.79743,-0.006748884,-2.95637,0.83423
453.232,23.8195,-0.008958229,-2.95869,0.83374
453.932,23.84153,-0.007392308,-2.96076,0.83325
454.632,23.86354,-0.01081919,-2.96169,0.83276
455.332,23.88565,-0.01074791,-2.96161,0.83228
456.032,23.9078,-0.00867127,-2.9631,0.83179
456.732,23.92994,-0.01107478,-2.96638,0.8313
457.432,23.952,-0.01085079,-2.96978,0.83081
458.132,23.9741,-0.01059889,-2.97216,0.83032
458.832,23.99614,-0.008155856,-2.97389,0.82983
459.532,24.0183,-0.00854213,-2.97545,0.82934
460.232,24.0405,-0.006179314,-2.97759,0.82885
460.932,24.06266,-0.00654356,-2.97966,0.82837
461.632,24.08485,-0.0053009,-2.98146,0.82788
462.332,24.107,-0.0008113847,-2.98344,0.82739
463.032,24.12924,0.00153424,-2.98431,0.8269
463.732,24.15138,0.00391337,-2.98431,0.82641
464.432,24.17354,0.008105153,-2.98588,0.82592
465.132,24.19558,0.01023621,-2.98794,0.82543
465.832,24.21772,0.01284646,-2.99028,0.82493
466.532,24.23988,0.01619168,-2.99114,0.82444
467.232,24.26212,0.02236405,-2.99285,0.82395
467.932,24.28435,0.02582107,-2.99451,0.82346
468.632,24.30656,0.03075841,-2.9963,0.82297
469.332,24.32875,0.03455334,-2.99782,0.82248
470.032,24.35097,0.03899663,-2.99985,0.82199
470.732,24.37319,0.04339177,-3.00168,0.8215
471.432,24.39528,0.0485062,-3.00315,0.82101
472.132,24.41742,0.05643548,-3.00478,0.82051
472.832,24.43964,0.06132287,-3.00701,0.82002
473.532,24.4619,0.06748729,-3.00877,0.81953
474.232,24.4843,0.07057833,-3.00987,0.81904
474.932,24.5065,0.07841755,-3.01164,0.81855
475.632,24.5288,0.08271993,-3.01328,0.81805
476.332,24.55101,0.09041771,-3.01457,0.81756
477.032,24.57326,0.09429037,-3.01602,0.81707
477.732,24.59553,0.09992018,-3.01767,0.81657
478.432,24.6177,0.10532,-3.01918,0.81608
479.132,24.64,0.11237,-3.02023,0.81559
479.832,24.6622,0.11783,-3.02165,0.81509
480.532,24.68451,0.12241,-3.02306,0.8146
481.232,24.70676,0.12882,-3.02482,0.81411
481.932,24.72895,0.13416,-3.02601,0.81361
482.632,24.75121,0.14166,-3.02652,0.81312
483.332,24.77352,0.14563,-3.02736,0.81263
484.032,24.79591,0.15138,-3.02918,0.81213
484.732,24.81822,0.15554,-3.03099,0.81164
485.432,24.84049,0.16116,-3.03266,0.81114
486.132,24.8628,0.16741,-3.03346,0.81065
486.832,24.88512,0.17163,-3.03435,0.81015
487.532,24.9074,0.17498,-3.03598,0.80966
488.232,24.92976,0.18005,-3.03766,0.80916
488.932,24.95205,0.18397,-3.03948,0.80867
489.632,24.9743,0.19455,-3.04078,0.80817
490.332,24.99654,0.19749,-3.04137,0.80768
491.032,25.01886,0.19849,-3.04259,0.80718
491.732,25.04119,0.20162,-3.04419,0.80669
492.432,25.06351,0.20781,-3.04502,0.80619
493.132,25.08584,0.21295,-3.04577,0.80569
493.832,25.1082,0.21655,-3.04727,0.8052
494.532,25.13055,0.21959,-3.04806,0.8047
495.232,25.15297,0.22485,-3.04874,0.8042
495.932,25.17534,0.228,-3.04961,0.80371
496.632,25.19765,0.23226,-3.051,0.80321
497.332,25.22,0.23469,-3.05155,0.80271
498.032,25.24231,0.23365,-3.05268,0.80222
498.732,25.26474,0.23978,-3.05412,0.80172
499.432,25.28714,0.24052,-3.05423,0.80122
500.132,25.30956,0.2432,-3.05578,0.80073
500.832,25.33205,0.2459,-3.05691,0.80023
501.532,25.3545,0.24578,-3.05751,0.79973
502.232,25.37689,0.2517,-3.05887,0.79923
502.932,25.39924,0.25466,-3.06047,0.79873
503.632,25.42166,0.25306,-3.06218,0.79824
504.332,25.4441,0.26084,-3.06206,0.79774
505.032,25.46659,0.25984,-3.06342,0.79724
505.732,25.48903,0.26001,-3.06353,0.79674
506.432,25.51144,0.26216,-3.06412,0.79624
507.132,25.5339,0.2636,-3.06532,0.79574
507.832,25.5563,0.26706,-3.06597,0.79524
508.532,25.57872,0.26859,-3.06725,0.79475
509.232,25.60114,0.27026,-3.0686,0.79425
509.932,25.6236,0.26968,-3.06896,0.79375
510.632,25.64611,0.2726,-3.07001,0.79325
511.332,25.6686,0.27368,-3.07118,0.79275
512.032,25.69105,0.27329,-3.07132,0.79225
512.732,25.7134,0.27856,-3.07209,0.79175
513.432,25.7357,0.27971,-3.07263,0.79125
514.132,25.758,0.27984,-3.07402,0.79075
514.832,25.78042,0.28522,-3.07413,0.79025
515.532,25.8029,0.28528,-3.07536,0.78975
516.232,25.8254,0.28508,-3.07598,0.78925
516.932,25.84791,0.2862,-3.0768,0.78875
517.632,25.87043,0.2867,-3.07827,0.78825
518.332,25.89294,0.28633,-3.07937,0.78775
519.032,25.91546,0.28737,-3.081,0.78724
519.732,25.93815,0.28767,-3.08097,0.78674
520.432,25.9607,0.28985,-3.0823,0.78624
521.132,25.9833,0.29007,-3.08249,0.78574
521.832,26.0058,0.28959,-3.08229,0.78524
522.532,26.02834,0.28924,-3.08236,0.78474
523.232,26.05087,0.29123,-3.08373,0.78424
523.932,26.07341,0.29463,-3.08448,0.78373
524.632,26.096,0.292,-3.08502,0.78323
525.332,26.11853,0.29445,-3.08654,0.78273
526.032,26.141,0.29555,-3.08841,0.78223
526.732,26.1636,0.29454,-3.0892,0.78172
527.432,26.1862,0.29625,-3.08922,0.78122
528.132,26.20877,0.29833,-3.09051,0.78072
528.832,26.23135,0.29651,-3.09096,0.78022
529.532,26.25392,0.29766,-3.09099,0.77971
530.232,26.27652,0.29941,-3.09251,0.77921
530.932,26.29907,0.29726,-3.09281,0.77871
531.632,26.32163,0.2995,-3.09381,0.7782
532.332,26.34419,0.29953,-3.09379,0.7777
533.032,26.36675,0.29981,-3.09514,0.7772
533.732,26.3894,0.30023,-3.09513,0.77669
534.432,26.41195,0.30188,-3.0954,0.77619
535.132,26.43458,0.29991,-3.09644,0.77569
535.832,26.4572,0.30175,-3.09731,0.77518
536.532,26.4798,0.30007,-3.09801,0.77468
537.232,26.5024,0.30343,-3.0995,0.77417
537.932,26.525,0.3004,-3.10042,0.77367
538.632,26.5476,0.30046,-3.10094,0.77316
539.332,26.57027,0.30288,-3.10133,0.77266
540.032,26.593,0.30046,-3.10225,0.77216
540.732,26.6157,0.29873,-3.10249,0.77165
541.432,26.6383,0.30195,-3.10368,0.77115
542.132,26.6609,0.30056,-3.10493,0.77064
542.832,26.6835,0.30267,-3.1064,0.77014
543.532,26.70621,0.2988,-3.10775,0.76963
544.232,26.7289,0.30215,-3.10783,0.76912
544.932,26.7516,0.30012,-3.10907,0.76862
545.632,26.7742,0.30281,-3.10863,0.76811
546.332,26.797,0.30085,-3.10918,0.76761
547.032,26.81969,0.29922,-3.10972,0.7671
547.732,26.8424,0.30073,-3.10982,0.7666
548.432,26.8651,0.30083,-3.11103,0.76609
549.132,26.8878,0.29997,-3.11157,0.76558
549.832,26.91058,0.29951,-3.11255,0.76508
550.532,26.9333,0.29846,-3.11412,0.76457
551.232,26.95607,0.30137,-3.1141,0.76406
551.932,26.97881,0.29973,-3.11409,0.76356
552.632,27.0015,0.29837,-3.11541,0.76305
553.332,27.02423,0.2995,-3.11537,0.76254
554.032,27.0469,0.2975,-3.11673,0.76204
554.732,27.0697,0.29521,-3.11674,0.76153
555.432,27.0924,0.2971,-3.11674,0.76102
556.132,27.11512,0.29671,-3.1181,0.76051
556.832,27.13778,0.29744,-3.11805,0.76001
557.532,27.1605,0.2995,-3.11916,0.7595
558.232,27.1833,0.29983,-3.11946,0.75899
558.932,27.20604,0.29777,-3.12079,0.75848
559.632,27.2288,0.29776,-3.12075,0.75797
560.332,27.25153,0.29644,-3.12224,0.75747
561.032,27.2743,0.29934,-3.12234,0.75696
561.732,27.29707,0.2999,-3.12354,0.75645
562.432,27.31982,0.29937,-3.12458,0.75594
563.132,27.3425,0.2985,-3.12492,0.75543
563.832,27.3652,0.29856,-3.1264,0.75492
564.532,27.3879,0.29885,-3.12638,0.75441
565.232,27.41064,0.29574,-3.12765,0.7539
565.932,27.43341,0.29834,-3.12769,0.7534
566.632,27.45618,0.29873,-3.12893,0.75289
567.332,27.47904,0.30122,-3.12902,0.75238
568.032,27.50185,0.30128,-3.129,0.75187
568.732,27.52467,0.3018,-3.13031,0.75136
569.432,27.5474,0.30288,-3.13035,0.75085
570.132,27.5702,0.30609,-3.13164,0.75034
570.832,27.59295,0.30992,-3.13188,0.74983
571.532,27.6157,0.30922,-3.13302,0.74932
572.232,27.63852,0.31036,-3.13263,0.74881
572.932,27.6613,0.31022,-3.13397,0.7483
573.632,27.684,0.31281,-3.13395,0.74779
574.332,27.70676,0.31817,-3.13395,0.74728
575.032,27.72952,0.31377,-3.13396,0.74677
575.732,27.7524,0.31939,-3.1346,0.74626
576.432,27.7752,0.32078,-3.13527,0.74575
577.132,27.79798,0.32017,-3.13527,0.74524
577.832,27.8208,0.32313,-3.13576,0.74472
578.532,27.84354,0.32203,-3.13534,0.74421
579.232,27.8663,0.3253,-3.13527,0.7437
579.932,27.8891,0.3245,-3.13664,0.74319
580.632,27.9119,0.32522,-3.13659,0.74268
581.332,27.9347,0.32423,-3.13674,0.74217
582.032,27.95755,0.32425,-3.13838,0.74166
582.732,27.98037,0.3285,-3.13973,0.74114
583.432,28.0033,0.32755,-3.14038,0.74063
584.132,28.026,0.32681,-3.14196,0.74012
584.832,28.0488,0.32503,-3.14196,0.73961
585.532,28.0716,0.32707,-3.14196,0.7391
586.232,28.09447,0.3249,-3.1431,0.73858
586.932,28.1173,0.32826,-3.14328,0.73807
587.632,28.1402,0.32519,-3.14328,0.73756
588.332,28.163,0.32708,-3.14399,0.73705
589.032,28.1859,0.32594,-3.14459,0.73653
589.732,28.20872,0.32695,-3.14468,0.73602
590.432,28.23159,0.32804,-3.14562,0.73551
591.132,28.2545,0.32473,-3.14563,0.735
591.832,28.27737,0.32777,-3.1469,0.73448
592.532,28.3003,0.32674,-3.14689,0.73397
593.232,28.3232,0.32646,-3.14723,0.73346
593.932,28.34605,0.32614,-3.14821,0.73294
594.632,28.36897,0.32596,-3.14957,0.73243
595.332,28.39187,0.32873,-3.14879,0.73191
596.032,28.41475,0.32664,-3.15013,0.7314
596.732,28.43761,0.3231,-3.15008,0.73089
597.432,28.4605,0.32429,-3.15011,0.73037
598.132,28.48335,0.32089,-3.15141,0.72986
598.832,28.50625,0.32393,-3.15139,0.72935
599.532,28.5292,0.32292,-3.15277,0.72883
600.232,28.55214,0.31992,-3.15272,0.72832
600.932,28.5751,0.32187,-3.15408,0.7278
601.632,28.5981,0.31906,-3.15404,0.72729
602.332,28.62107,0.32014,-3.1554,0.72677
603.032,28.64402,0.31883,-3.15535,0.72626
603.732,28.6669,0.31469,-3.15541,0.72574
604.432,28.68988,0.31356,-3.15609,0.72523
605.132,28.7128,0.3094,-3.156,0.72471
605.832,28.7357,0.31154,-3.156,0.7242
606.532,28.75853,0.31078,-3.15693,0.72368
607.232,28.78146,0.3074,-3.15732,0.72317
607.932,28.80438,0.30596,-3.15732,0.72265
608.632,28.8273,0.3077,-3.15822,0.72214
609.332,28.85033,0.30788,-3.15812,0.72162
610.032,28.87332,0.30498,-3.15966,0.72111
610.732,28.89635,0.30043,-3.15962,0.72059
611.432,28.91935,0.29972,-3.15962,0.72007
612.132,28.9423,0.29998,-3.16096,0.71956
612.832,28.9652,0.29834,-3.16094,0.71904
613.532,28.98807,0.29649,-3.16094,0.71853
614.232,29.01107,0.29682,-3.16092,0.71801
614.932,29.034,0.29494,-3.16227,0.71749
615.632,29.05704,0.29705,-3.16225,0.71698
616.332,29.08,0.29132,-3.1623,0.71646
617.032,29.103,0.2917,-3.16356,0.71594
617.732,29.126,0.29255,-3.16357,0.71543
618.432,29.14893,0.28953,-3.16477,0.71491
619.132,29.17183,0.28909,-3.16489,0.71439
619.832,29.19482,0.28592,-3.16485,0.71388
620.532,29.21789,0.28705,-3.16622,0.71336
621.232,29.2409,0.28603,-3.1662,0.71284
621.932,29.26395,0.28823,-3.16621,0.71232
622.632,29.28694,0.28505,-3.16756,0.71181
623.332,29.3099,0.28355,-3.16753,0.71129
624.032,29.33295,0.28208,-3.16819,0.71077
624.732,29.356,0.28123,-3.16818,0.71025
625.432,29.37902,0.27766,-3.16818,0.70974
626.132,29.40202,0.28071,-3.16936,0.70922
626.832,29.425,0.28143,-3.16949,0.7087
627.532,29.448,0.27884,-3.17042,0.70818
628.232,29.471,0.27925,-3.17081,0.70766
628.932,29.494,0.2763,-3.17079,0.70715
629.632,29.51693,0.27606,-3.17215,0.70663
630.332,29.54,0.27265,-3.17212,0.70611
631.032,29.56301,0.2754,-3.17244,0.70559
631.732,29.5861,0.27242,-3.17344,0.70507
632.432,29.6091,0.27315,-3.17345,0.70455
633.132,29.6321,0.27176,-3.17474,0.70403
633.832,29.6552,0.27111,-3.17407,0.70352
634.532,29.67813,0.26863,-3.1741,0.703
635.232,29.70113,0.26783,-3.17461,0.70248
635.932,29.72418,0.26799,-3.17541,0.70196
636.632,29.7472,0.2673,-3.17541,0.70144
637.332,29.77028,0.264,-3.17541,0.70092
638.032,29.79327,0.26109,-3.17545,0.7004
638.732,29.81632,0.26279,-3.17672,0.69988
639.432,29.8393,0.2637,-3.17673,0.69936
640.132,29.86233,0.25889,-3.17807,0.69884
640.832,29.8854,0.26137,-3.17805,0.69832
641.532,29.90842,0.25968,-3.17804,0.6978
642.232,29.93147,0.25836,-3.17934,0.69728
642.932,29.9545,0.25902,-3.17936,0.69676
643.632,29.9775,0.25628,-3.17955,0.69624
644.332,30.00052,0.2559,-3.1803,0.69572
645.032,30.02365,0.25399,-3.17979,0.6952
645.732,30.0467,0.25529,-3.18047,0.69468
646.432,30.06972,0.25289,-3.18101,0.69416
647.132,30.0927,0.25137,-3.18101,0.69364
647.832,30.11575,0.25405,-3.18101,0.69312
648.532,30.13887,0.2509,-3.18101,0.6926
649.232,30.162,0.25026,-3.18238,0.69208
649.932,30.1851,0.24879,-3.18233,0.69156
650.632,30.2081,0.24899,-3.18288,0.69104
651.332,30.23122,0.24587,-3.18365,0.69052
652.032,30.25429,0.24309,-3.18365,0.69
652.732,30.27733,0.24274,-3.18363,0.68947
653.432,30.3004,0.24152,-3.18497,0.68895
654.132,30.3235,0.23766,-3.18496,0.68843
654.832,30.34667,0.23828,-3.18573,0.68791
655.532,30.36975,0.24147,-3.18608,0.68739
656.232,30.3929,0.23898,-3.18666,0.68687
656.932,30.41595,0.23821,-3.18727,0.68635
657.632,30.4391,0.235,-3.18727,0.68582
658.332,30.46217,0.23472,-3.18717,0.6853
659.032,30.4853,0.22884,-3.18758,0.68478
659.732,30.5084,0.23155,-3.18759,0.68426
660.432,30.53148,0.23048,-3.18759,0.68374
661.132,30.5546,0.22933,-3.18756,0.68321
661.832,30.5778,0.23372,-3.18893,0.68269
662.532,30.60085,0.22948,-3.18891,0.68217
663.232,30.62395,0.22961,-3.18891,0.68165
663.932,30.647,0.23079,-3.18934,0.68113
664.632,30.6701,0.23006,-3.19022,0.6806
665.332,30.6933,0.22524,-3.19022,0.68008
666.032,30.71645,0.22516,-3.19022,0.67956
666.732,30.7396,0.22503,-3.19059,0.67904
667.432,30.7627,0.22702,-3.19154,0.67851
668.132,30.7858,0.2234,-3.19154,0.67799
668.832,30.80889,0.22095,-3.19154,0.67747
669.532,30.832,0.22139,-3.19214,0.67694
670.232,30.85517,0.22206,-3.19286,0.67642
670.932,30.87821,0.22164,-3.19285,0.6759
671.632,30.90141,0.21619,-3.19419,0.67538
672.332,30.9246,0.21612,-3.19417,0.67485
673.032,30.948,0.21722,-3.19417,0.67433
673.732,30.9711,0.21539,-3.19466,0.67381
674.432,30.9942,0.21456,-3.19542,0.67328
675.132,31.01732,0.21313,-3.19516,0.67276
675.832,31.0405,0.20965,-3.19516,0.67223
676.532,31.06373,0.2125,-3.19516,0.67171
677.232,31.08693,0.20964,-3.19473,0.67119
677.932,31.11007,0.21179,-3.195,0.67066
678.632,31.1332,0.21137,-3.19517,0.67014
679.332,31.1564,0.20844,-3.19517,0.66962
680.032,31.17956,0.20841,-3.19518,0.66909
680.732,31.2028,0.20886,-3.1965,0.66857
681.432,31.22597,0.20669,-3.19747,0.66804
682.132,31.2491,0.20686,-3.19779,0.66752
682.832,31.27226,0.20635,-3.19778,0.66699
683.532,31.29542,0.20522,-3.1991,0.66647
684.232,31.31865,0.20519,-3.19911,0.66595
684.932,31.34181,0.20657,-3.19907,0.66542
685.632,31.36502,0.20318,-3.20043,0.6649
686.332,31.3882,0.20391,-3.20042,0.66437
687.032,31.41145,0.20535,-3.20043,0.66385
687.732,31.43465,0.20271,-3.19909,0.66332
688.432,31.45788,0.1987,-3.19911,0.6628
689.132,31.48106,0.20466,-3.20024,0.66227
689.832,31.50436,0.20171,-3.19992,0.66175
690.532,31.52763,0.20137,-3.19944,0.66122
691.232,31.5509,0.1998,-3.19944,0.6607
691.932,31.574,0.20064,-3.19948,0.66017
692.632,31.59726,0.19831,-3.20077,0.65965
693.332,31.6204,0.19807,-3.20076,0.65912
694.032,31.6435,0.19639,-3.20074,0.6586
694.732,31.66668,0.19651,-3.20208,0.65807
695.432,31.68999,0.19625,-3.20331,0.65755
696.132,31.71335,0.19638,-3.20338,0.65702
696.832,31.7366,0.19875,-3.20265,0.6565
697.532,31.7599,0.19784,-3.20312,0.65597
698.232,31.7829,0.19785,-3.20339,0.65544
698.932,31.8062,0.19683,-3.20339,0.65492
699.632,31.8294,0.19831,-3.20339,0.65439
700.332,31.85282,0.19544,-3.20339,0.65387
701.032,31.87603,0.19688,-3.20339,0.65334
701.732,31.8993,0.19498,-3.20439,0.65282
702.432,31.9225,0.1949,-3.20438,0.65229
703.132,31.94557,0.19678,-3.20438,0.65176
703.832,31.9687,0.19653,-3.2047,0.65124
704.532,31.99202,0.19823,-3.20471,0.65071
705.232,32.01559,0.19467,-3.20471,0.65018
705.932,32.03905,0.19395,-3.20471,0.64966
706.632,32.06232,0.19287,-3.20598,0.64913
707.332,32.08552,0.19284,-3.20503,0.64861
708.032,32.1087,0.19491,-3.20503,0.64808
708.732,32.13194,0.19216,-3.20503,0.64755
709.432,32.15526,0.19372,-3.20602,0.64703
710.132,32.17864,0.19182,-3.20635,0.6465
710.832,32.20193,0.18885,-3.20635,0.64597
711.532,32.22517,0.1897,-3.20635,0.64545
712.232,32.2485,0.19406,-3.20635,0.64492
712.932,32.27176,0.1919,-3.20696,0.64439
713.632,32.29505,0.19005,-3.20724,0.64387
714.332,32.31841,0.18953,-3.20766,0.64334
715.032,32.34174,0.19218,-3.20766,0.64281
715.732,32.365,0.19306,-3.20766,0.64228
716.432,32.38827,0.18806,-3.20862,0.64176
717.132,32.4116,0.19508,-3.20898,0.64123
717.832,32.43492,0.19274,-3.20899,0.6407
718.532,32.4581,0.19086,-3.21024,0.64018
719.232,32.4814,0.18858,-3.2103,0.63965
719.932,32.50475,0.1902,-3.2103,0.63912
720.632,32.52831,0.18889,-3.2103,0.63859
721.332,32.55177,0.19021,-3.20999,0.63807
722.032,32.5751,0.18559,-3.21092,0.63754
722.732,32.59837,0.18547,-3.21001,0.63701
723.432,32.62175,0.18761,-3.20997,0.63648
724.132,32.6451,0.19086,-3.20997,0.63596
724.832,32.6685,0.18377,-3.21016,0.63543
725.532,32.6918,0.18486,-3.21129,0.6349
726.232,32.71504,0.1879,-3.21129,0.63437
726.932,32.7384,0.18744,-3.21129,0.63384
727.632,32.76175,0.18642,-3.21148,0.63332
728.332,32.7853,0.18301,-3.2126,0.63279
729.032,32.8085,0.18227,-3.21201,0.63226
729.732,32.83185,0.18474,-3.21128,0.63173
730.432,32.8553,0.1815,-3.21128,0.63121
731.132,32.87879,0.18101,-3.21127,0.63068
731.832,32.90227,0.18276,-3.21289,0.63015
732.532,32.92549,0.18265,-3.21359,0.62962
733.232,32.94894,0.1767,-3.21356,0.62909
733.932,32.97238,0.18178,-3.21392,0.62856
734.632,32.9959,0.18145,-3.21392,0.62804
735.332,33.01935,0.18228,-3.21392,0.62751
736.032,33.04272,0.17675,-3.21529,0.62698
736.732,33.0661,0.17683,-3.21524,0.62645
737.432,33.08952,0.17722,-3.21415,0.62592
738.132,33.11293,0.17984,-3.21392,0.62539
738.832,33.1363,0.17663,-3.21502,0.62487
739.532,33.1598,0.17537,-3.21523,0.62434
740.232,33.18325,0.17418,-3.21523,0.62381
740.932,33.20666,0.17401,-3.21523,0.62328
741.632,33.22999,0.17242,-3.21523,0.62275
742.332,33.25336,0.17496,-3.21523,0.62222
743.032,33.2768,0.17201,-3.21524,0.62169
743.732,33.30025,0.16919,-3.21659,0.62117
744.432,33.32369,0.16584,-3.21655,0.62064
745.132,33.34709,0.1695,-3.21655,0.62011
745.832,33.3703,0.16657,-3.21577,0.61958
746.532,33.39367,0.16987,-3.21523,0.61905
747.232,33.41708,0.1657,-3.21523,0.61852
747.932,33.4407,0.16804,-3.2157,0.61799
748.632,33.46416,0.16665,-3.21655,0.61746
749.332,33.48761,0.16506,-3.21655,0.61693
750.032,33.5111,0.16204,-3.21655,0.6164
750.732,33.53451,0.16231,-3.2166,0.61588
751.432,33.55792,0.16753,-3.21787,0.61535
752.132,33.5813,0.16234,-3.21786,0.61482
752.832,33.6047,0.16331,-3.21786,0.61429
753.532,33.6282,0.16203,-3.21785,0.61376
754.232,33.65169,0.1595,-3.21916,0.61323
754.932,33.67514,0.16477,-3.21782,0.6127
755.632,33.69862,0.16225,-3.21787,0.61217
756.332,33.72198,0.16355,-3.21795,0.61164
757.032,33.74542,0.16387,-3.21918,0.61111
757.732,33.7688,0.16495,-3.21918,0.61058
758.432,33.79228,0.16348,-3.21918,0.61005
759.132,33.8157,0.16524,-3.21928,0.60952
759.832,33.83919,0.16133,-3.2205,0.60899
760.532,33.86268,0.1617,-3.22147,0.60847
761.232,33.8861,0.16182,-3.22148,0.60794
761.932,33.90964,0.15825,-3.22148,0.60741
762.632,33.93309,0.16127,-3.22149,0.60688
763.332,33.95655,0.15963,-3.21989,0.60635
764.032,33.97999,0.1571,-3.22071,0.60582
764.732,34.00346,0.1581,-3.22112,0.60529
765.432,34.02693,0.15506,-3.22028,0.60476
766.132,34.05036,0.15628,-3.22028,0.60423
766.832,34.07382,0.15697,-3.22028,0.6037
767.532,34.09729,0.15565,-3.22071,0.60317
768.232,34.12075,0.15214,-3.22159,0.60264
768.932,34.14424,0.15409,-3.22159,0.60211
769.632,34.1677,0.15148,-3.22159,0.60158
770.332,34.1912,0.14808,-3.22159,0.60105
771.032,34.21467,0.14644,-3.22242,0.60052
771.732,34.23815,0.15154,-3.22258,0.59999
772.432,34.26165,0.15007,-3.2227,0.59946
773.132,34.2851,0.15062,-3.22291,0.59893
773.832,34.30854,0.14823,-3.22291,0.5984
774.532,34.33205,0.14442,-3.2229,0.59787
775.232,34.3555,0.14435,-3.22425,0.59734
775.932,34.37901,0.14591,-3.22423,0.59681
776.632,34.4024,0.14561,-3.22407,0.59628
777.332,34.4259,0.14742,-3.2239,0.59575
778.032,34.44942,0.14685,-3.22388,0.59522
778.732,34.47293,0.1436,-3.22522,0.59469
779.432,34.49644,0.14491,-3.22521,0.59416
780.132,34.51992,0.14577,-3.22521,0.59363
780.832,34.5434,0.14285,-3.22536,0.5931
781.532,34.567,0.14438,-3.22646,0.59257
782.232,34.5905,0.14547,-3.22523,0.59204
782.932,34.61394,0.14839,-3.22522,0.59151
783.632,34.6373,0.14825,-3.22522,0.59098
784.332,34.66082,0.14565,-3.22522,0.59045
785.032,34.68445,0.1454,-3.22522,0.58992
785.732,34.70818,0.14436,-3.2258,0.58939
786.432,34.73169,0.14737,-3.2262,0.58886
787.132,34.75524,0.14291,-3.22621,0.58833
787.832,34.7787,0.14463,-3.22749,0.5878
788.532,34.80223,0.14028,-3.22751,0.58727
789.232,34.8257,0.14493,-3.22719,0.58674
789.932,34.84926,0.14578,-3.22632,0.58621
790.632,34.8728,0.14104,-3.22752,0.58568
791.332,34.89634,0.13916,-3.22752,0.58515
792.032,34.91992,0.13887,-3.22677,0.58462
792.732,34.9435,0.13941,-3.2262,0.58409
793.432,34.96698,0.1427,-3.2262,0.58356
794.132,34.9904,0.143,-3.2262,0.58303
794.332,34.99694,0.14118,-3.2262,0.58287