File: 01_Data/FDNY_LDF/STA/N2/30K_min/LDF_STA_N2_30KData_22254_R2.csv
##Temp./Â°C,Time/min,DSC(subtr.)/(mW/mg),Mass loss(subtr.2)/mg,Sensit./(uV/mW)
48.537,10.00667,0.01778663,-0.03664,1.07504
49.237,10.5587,0.06037765,-0.03491549,1.07473
49.937,10.6845,0.09690619,-0.03718965,1.07442
50.637,10.7737,0.1268,-0.03622123,1.07411
51.337,10.8474,0.15838,-0.03504518,1.0738
52.037,10.9106,0.18595,-0.03615071,1.07349
52.737,10.9674,0.20943,-0.03552924,1.07318
53.437,11.0189,0.2306,-0.03548763,1.07287
54.137,11.06675,0.2516,-0.03630043,1.07256
54.837,11.1119,0.27261,-0.03734715,1.07225
55.537,11.15425,0.29181,-0.03756341,1.07193
56.237,11.19482,0.30792,-0.03721242,1.07162
56.937,11.23408,0.32686,-0.03584772,1.07131
57.637,11.27099,0.34415,-0.03624638,1.07099
58.337,11.30724,0.3605,-0.03681447,1.07068
59.037,11.3431,0.37535,-0.03617362,1.07036
59.737,11.37743,0.39257,-0.03545636,1.07004
60.437,11.4108,0.40612,-0.03606719,1.06973
61.137,11.44347,0.42115,-0.03593887,1.06941
61.837,11.4756,0.43419,-0.0359069,1.06909
62.537,11.50698,0.44633,-0.0368721,1.06877
63.237,11.53762,0.46279,-0.03868446,1.06845
63.937,11.56788,0.4749,-0.03796087,1.06813
64.637,11.5978,0.48427,-0.03959344,1.06781
65.337,11.6274,0.49634,-0.03845391,1.06749
66.037,11.65647,0.51,-0.03750661,1.06717
66.737,11.6851,0.52182,-0.03754124,1.06685
67.437,11.7135,0.53132,-0.03805142,1.06653
68.137,11.7417,0.5427,-0.037573,1.0662
68.837,11.7697,0.55563,-0.03675371,1.06588
69.537,11.7973,0.56608,-0.03738167,1.06556
70.237,11.82475,0.57431,-0.03870199,1.06523
70.937,11.85181,0.58705,-0.03906383,1.06491
71.637,11.8787,0.59511,-0.03978124,1.06458
72.337,11.90532,0.60775,-0.03986886,1.06426
73.037,11.93188,0.61681,-0.03963253,1.06393
73.737,11.9583,0.62626,-0.03939364,1.0636
74.437,11.9846,0.63624,-0.03977678,1.06328
75.137,12.0107,0.645,-0.03956482,1.06295
75.837,12.0367,0.65465,-0.03939389,1.06262
76.537,12.06252,0.6634,-0.04100175,1.06229
77.237,12.0883,0.67297,-0.04112861,1.06196
77.937,12.11397,0.6833,-0.04123848,1.06163
78.637,12.13947,0.68994,-0.04123068,1.0613
79.337,12.16485,0.70218,-0.04178174,1.06097
80.037,12.19005,0.70862,-0.04143305,1.06064
80.737,12.2152,0.71538,-0.04275235,1.0603
81.437,12.2402,0.7278,-0.04322158,1.05997
82.137,12.26522,0.73395,-0.04283283,1.05964
82.837,12.2901,0.74054,-0.04333185,1.0593
83.537,12.31495,0.75089,-0.04344127,1.05897
84.237,12.33967,0.75868,-0.0434221,1.05864
84.937,12.36433,0.76559,-0.04352417,1.0583
85.637,12.38884,0.77351,-0.04408589,1.05796
86.337,12.4133,0.78067,-0.04485721,1.05763
87.037,12.4378,0.78725,-0.04558896,1.05729
87.737,12.46219,0.79541,-0.04641493,1.05695
88.437,12.48657,0.80328,-0.04703612,1.05662
89.137,12.5108,0.80974,-0.04661278,1.05628
89.837,12.5349,0.81867,-0.04781525,1.05594
90.537,12.55901,0.8235,-0.04782443,1.0556
91.237,12.58313,0.82836,-0.048378,1.05526
91.937,12.6069,0.83352,-0.04781997,1.05492
92.637,12.63097,0.83934,-0.04858209,1.05458
93.337,12.6549,0.84663,-0.0491412,1.05424
94.037,12.679,0.84954,-0.04914004,1.0539
94.737,12.7029,0.85529,-0.04915193,1.05355
95.437,12.72667,0.85838,-0.05046,1.05321
96.137,12.75039,0.86181,-0.04921007,1.05287
96.837,12.77417,0.8673,-0.05046154,1.05252
97.537,12.79792,0.87094,-0.05043138,1.05218
98.237,12.82162,0.87279,-0.05178611,1.05184
98.937,12.8453,0.87701,-0.05185418,1.05149
99.637,12.86882,0.87981,-0.05159754,1.05115
100.337,12.89228,0.88092,-0.05176037,1.0508
101.037,12.91569,0.8835,-0.05176072,1.05045
101.737,12.93919,0.88526,-0.05173008,1.05011
102.437,12.96285,0.88819,-0.05306642,1.04976
103.137,12.98657,0.88828,-0.05308009,1.04941
103.837,13.01017,0.89065,-0.05336068,1.04906
104.537,13.0337,0.88793,-0.05440098,1.04871
105.237,13.05724,0.89138,-0.05440511,1.04836
105.937,13.0806,0.8902,-0.05542854,1.04801
106.637,13.10374,0.88975,-0.05571117,1.04766
107.337,13.1269,0.88931,-0.05571,1.04731
108.037,13.15011,0.88771,-0.05571,1.04696
108.737,13.1739,0.88778,-0.05571,1.04661
109.437,13.19757,0.88541,-0.05571,1.04626
110.137,13.2213,0.88356,-0.05571,1.0459
110.837,13.2448,0.88067,-0.05570998,1.04555
111.537,13.2682,0.87888,-0.05570802,1.0452
112.237,13.2916,0.87812,-0.05618596,1.04484
112.937,13.315,0.87381,-0.05670108,1.04449
113.637,13.3384,0.87085,-0.05669999,1.04413
114.337,13.3618,0.86965,-0.05670003,1.04378
115.037,13.385,0.86928,-0.05669767,1.04342
115.737,13.40819,0.86754,-0.05706056,1.04307
116.437,13.43144,0.86278,-0.05703057,1.04271
117.137,13.45478,0.86236,-0.05711929,1.04235
117.837,13.47822,0.85771,-0.05834224,1.042
118.537,13.50145,0.85614,-0.05834227,1.04164
119.237,13.5247,0.85196,-0.05960915,1.04128
119.937,13.5478,0.84991,-0.05965974,1.04092
120.637,13.5709,0.84619,-0.05966,1.04056
121.337,13.594,0.84138,-0.05966,1.0402
122.037,13.6172,0.84235,-0.05966037,1.03984
122.737,13.64029,0.83706,-0.05966531,1.03948
123.437,13.66341,0.83618,-0.06099762,1.03912
124.137,13.6864,0.83425,-0.06097998,1.03876
124.837,13.70938,0.83244,-0.06098,1.03839
125.537,13.73225,0.83047,-0.0609798,1.03803
126.237,13.75516,0.82988,-0.06095039,1.03767
126.937,13.7781,0.82647,-0.06238645,1.0373
127.637,13.80098,0.82339,-0.06163685,1.03694
128.337,13.8238,0.82179,-0.06163872,1.03658
129.037,13.84665,0.81914,-0.06196898,1.03621
129.737,13.86948,0.81872,-0.06295501,1.03585
130.437,13.89235,0.81934,-0.06296004,1.03548
131.137,13.9152,0.81671,-0.06296283,1.03511
131.837,13.938,0.8188,-0.06247889,1.03475
132.537,13.9605,0.81623,-0.06230051,1.03438
133.237,13.9831,0.81598,-0.06229997,1.03401
133.937,14.00579,0.81687,-0.0623,1.03365
134.637,14.0286,0.81493,-0.0623,1.03328
135.337,14.0513,0.81639,-0.06229999,1.03291
136.037,14.07383,0.8156,-0.06229985,1.03254
136.737,14.09646,0.81461,-0.06235428,1.03217
137.437,14.1189,0.81642,-0.06130482,1.0318
138.137,14.14144,0.81563,-0.06130935,1.03143
138.837,14.16397,0.81679,-0.06145082,1.03106
139.537,14.1866,0.81889,-0.06263023,1.03069
140.237,14.2092,0.81946,-0.0626301,1.03032
140.937,14.2317,0.82144,-0.06263001,1.02994
141.637,14.25414,0.8219,-0.06263054,1.02957
142.337,14.2766,0.82181,-0.06247428,1.0292
143.037,14.29897,0.82249,-0.06318601,1.02882
143.737,14.32107,0.8236,-0.06361084,1.02845
144.437,14.3431,0.82524,-0.06362694,1.02808
145.137,14.3655,0.82891,-0.062325,1.0277
145.837,14.388,0.82732,-0.06230027,1.02733
146.537,14.41055,0.83042,-0.06229999,1.02695
147.237,14.4328,0.83141,-0.0623,1.02658
147.937,14.4551,0.83192,-0.0623002,1.0262
148.637,14.47727,0.8342,-0.06228052,1.02582
149.337,14.4996,0.83596,-0.06361249,1.02545
150.037,14.52165,0.8359,-0.06361966,1.02507
150.737,14.5436,0.84051,-0.06362001,1.02469
151.437,14.5655,0.84176,-0.06362,1.02431
152.137,14.5878,0.84355,-0.06362,1.02393
152.837,14.6102,0.84496,-0.06362,1.02355
153.537,14.6326,0.84804,-0.06362,1.02318
154.237,14.65475,0.84964,-0.06362,1.0228
154.937,14.6768,0.85168,-0.06362,1.02242
155.637,14.6989,0.85402,-0.06362,1.02203
156.337,14.721,0.85528,-0.06362,1.02165
157.037,14.74288,0.85525,-0.06361993,1.02127
157.737,14.76467,0.85878,-0.06362429,1.02089
158.437,14.78674,0.86116,-0.06461367,1.02051
159.137,14.80901,0.8635,-0.06460884,1.02013
159.837,14.8314,0.8653,-0.06461001,1.01974
160.537,14.85351,0.86895,-0.06460999,1.01936
161.237,14.87551,0.86939,-0.06461619,1.01897
161.937,14.89759,0.87192,-0.06496563,1.01859
162.637,14.91964,0.87618,-0.06494133,1.01821
163.337,14.94166,0.87532,-0.06604649,1.01782
164.037,14.96354,0.87873,-0.06625128,1.01744
164.737,14.9854,0.88065,-0.06624715,1.01705
165.437,15.0073,0.8839,-0.0669925,1.01666
166.137,15.02927,0.88654,-0.06747864,1.01628
166.837,15.05115,0.88602,-0.06691821,1.01589
167.537,15.0731,0.8889,-0.06627995,1.0155
168.237,15.09491,0.89146,-0.06558671,1.01512
168.937,15.1168,0.89443,-0.06559007,1.01473
169.637,15.13863,0.89705,-0.06559,1.01434
170.337,15.16044,0.89842,-0.06559,1.01395
171.037,15.1824,0.9015,-0.06559,1.01356
171.737,15.2043,0.90534,-0.06559,1.01317
172.437,15.22615,0.90456,-0.06558996,1.01278
173.137,15.24804,0.90678,-0.06558234,1.01239
173.837,15.2698,0.90948,-0.06679231,1.012
174.537,15.29155,0.91048,-0.06691073,1.01161
175.237,15.3133,0.91596,-0.06691,1.01122
175.937,15.33508,0.91684,-0.06691,1.01083
176.637,15.3569,0.91944,-0.06691,1.01043
177.337,15.37858,0.92297,-0.06691,1.01004
178.037,15.40019,0.92529,-0.06691,1.00965
178.737,15.42182,0.9265,-0.06691,1.00925
179.437,15.4435,0.93025,-0.06691,1.00886
180.137,15.4652,0.93038,-0.06691,1.00847
180.837,15.4869,0.93321,-0.06691,1.00807
181.537,15.5087,0.93776,-0.06691,1.00768
182.237,15.53035,0.9384,-0.06691,1.00728
182.937,15.552,0.94365,-0.06691,1.00689
183.637,15.57359,0.94598,-0.06691,1.00649
184.337,15.5952,0.94648,-0.0669098,1.00609
185.037,15.6167,0.94948,-0.06692736,1.0057
185.737,15.63821,0.94986,-0.06563425,1.0053
186.437,15.65978,0.95274,-0.06559,1.0049
187.137,15.6813,0.95364,-0.06562055,1.00451
187.837,15.7028,0.95783,-0.06691974,1.00411
188.537,15.7243,0.96135,-0.06689973,1.00371
189.237,15.74575,0.96476,-0.0669,1.00331
189.937,15.76726,0.96687,-0.0669,1.00291
190.637,15.78878,0.96862,-0.06689999,1.00251
191.337,15.81024,0.9729,-0.06690042,1.00211
192.037,15.8317,0.97683,-0.06687975,1.00171
192.737,15.85315,0.97941,-0.06885373,1.00131
193.437,15.87457,0.98057,-0.06954261,1.00091
194.137,15.8959,0.98673,-0.06953994,1.00051
194.837,15.9174,0.98987,-0.06954,1.00011
195.537,15.93879,0.99119,-0.06954,0.99971
196.237,15.96023,0.9941,-0.06954,0.9993
196.937,15.98166,0.99577,-0.06954001,0.9989
197.637,16.00305,1.00019,-0.0695388,0.9985
198.337,16.02448,1.0047,-0.06970976,0.99809
199.037,16.04586,1.0068,-0.07086424,0.99769
199.737,16.06728,1.00911,-0.07086004,0.99729
200.437,16.08859,1.01164,-0.07086,0.99688
201.137,16.10991,1.01465,-0.07086,0.99648
201.837,16.13119,1.01698,-0.07086,0.99607
202.537,16.15256,1.0203,-0.07086004,0.99567
203.237,16.1739,1.02378,-0.07086226,0.99526
203.937,16.1953,1.02848,-0.07175368,0.99486
204.637,16.2167,1.03214,-0.07217338,0.99445
205.337,16.238,1.03527,-0.07217483,0.99404
206.037,16.25935,1.03637,-0.07310245,0.99364
206.737,16.28069,1.04116,-0.07348064,0.99323
207.437,16.30203,1.04156,-0.07347981,0.99282
208.137,16.32336,1.04548,-0.07349339,0.99241
208.837,16.34471,1.04783,-0.07465068,0.992
209.537,16.36596,1.05251,-0.07610657,0.9916
210.237,16.38731,1.05528,-0.07611645,0.99119
210.937,16.4086,1.05797,-0.07728172,0.99078
211.637,16.4299,1.064,-0.0760615,0.99037
212.337,16.45121,1.06504,-0.07611067,0.98996
213.037,16.47222,1.06784,-0.07610899,0.98955
213.737,16.4934,1.07195,-0.07644617,0.98914
214.437,16.5146,1.07529,-0.07742598,0.98873
215.137,16.53594,1.07831,-0.07743002,0.98831
215.837,16.55741,1.08292,-0.07743515,0.9879
216.537,16.57866,1.08374,-0.07829543,0.98749
217.237,16.59988,1.08552,-0.07874947,0.98708
217.937,16.6211,1.09099,-0.07954977,0.98667
218.637,16.64245,1.09332,-0.08005163,0.98625
219.337,16.66369,1.09778,-0.08111731,0.98584
220.037,16.68497,1.10083,-0.08225995,0.98543
220.737,16.70619,1.10421,-0.08237037,0.98501
221.437,16.72746,1.10592,-0.08235878,0.9846
222.137,16.74869,1.10794,-0.08374062,0.98418
222.837,16.76985,1.10857,-0.08368785,0.98377
223.537,16.79107,1.11468,-0.08384883,0.98335
224.237,16.81225,1.11787,-0.08500588,0.98294
224.937,16.8335,1.12312,-0.08499936,0.98252
225.637,16.85472,1.12445,-0.08609768,0.98211
226.337,16.8759,1.12788,-0.08632213,0.98169
227.037,16.89715,1.13181,-0.08626852,0.98127
227.737,16.91829,1.13232,-0.08765632,0.98085
228.437,16.9395,1.13766,-0.08762258,0.98044
229.137,16.96068,1.13952,-0.08895942,0.98002
229.837,16.98185,1.14037,-0.08896276,0.9796
230.537,17.00305,1.14581,-0.0903407,0.97918
231.237,17.0242,1.14991,-0.09059864,0.97876
231.937,17.04534,1.15076,-0.09108658,0.97835
232.637,17.06656,1.15498,-0.09190948,0.97793
233.337,17.0877,1.15737,-0.09233056,0.97751
234.037,17.10884,1.15907,-0.09332955,0.97709
234.737,17.13,1.1635,-0.09359294,0.97667
235.437,17.1512,1.16264,-0.0934883,0.97625
236.137,17.17246,1.16677,-0.09469821,0.97583
236.837,17.19369,1.16843,-0.09512053,0.97541
237.537,17.2149,1.17062,-0.0961729,0.97498
238.237,17.2361,1.17069,-0.09737067,0.97456
238.937,17.25725,1.17396,-0.09862884,0.97414
239.637,17.27842,1.17644,-0.09869609,0.97372
240.337,17.29954,1.17977,-0.10024,0.9733
241.037,17.32066,1.18246,-0.10101,0.97287
241.737,17.34181,1.1854,-0.10182,0.97245
242.437,17.36299,1.18266,-0.10344,0.97203
243.137,17.38417,1.1863,-0.10487,0.9716
243.837,17.4054,1.18983,-0.10582,0.97118
244.537,17.4266,1.19461,-0.10639,0.97075
245.237,17.4477,1.19442,-0.10795,0.97033
245.937,17.46879,1.19578,-0.10891,0.9699
246.637,17.4899,1.19824,-0.10942,0.96948
247.337,17.51106,1.20407,-0.11082,0.96905
248.037,17.53223,1.20562,-0.11075,0.96863
248.737,17.5534,1.20589,-0.11231,0.9682
249.437,17.57453,1.21118,-0.11402,0.96778
250.137,17.59575,1.2121,-0.11499,0.96735
250.837,17.61696,1.21624,-0.11654,0.96692
251.537,17.63812,1.21837,-0.11841,0.96649
252.237,17.65929,1.22045,-0.11976,0.96607
252.937,17.68042,1.22334,-0.12131,0.96564
253.637,17.70149,1.22684,-0.12309,0.96521
254.337,17.72265,1.23025,-0.12427,0.96478
255.037,17.74367,1.23104,-0.12477,0.96435
255.737,17.7648,1.23458,-0.12598,0.96393
256.437,17.78586,1.23769,-0.1265,0.9635
257.137,17.8069,1.24036,-0.12759,0.96307
257.837,17.82807,1.24223,-0.12849,0.96264
258.537,17.84918,1.24574,-0.12992,0.96221
259.237,17.87043,1.24986,-0.13176,0.96178
259.937,17.89151,1.25159,-0.13491,0.96135
260.637,17.91261,1.25373,-0.13666,0.96092
261.337,17.9338,1.25608,-0.13843,0.96048
262.037,17.95494,1.25706,-0.14047,0.96005
262.737,17.9761,1.25956,-0.14194,0.95962
263.437,17.99718,1.26196,-0.14333,0.95919
264.137,18.01827,1.26438,-0.14547,0.95876
264.837,18.03937,1.26661,-0.14742,0.95832
265.537,18.06048,1.26912,-0.1489,0.95789
266.237,18.0816,1.2728,-0.15045,0.95746
266.937,18.1027,1.27375,-0.15253,0.95702
267.637,18.12365,1.27594,-0.15448,0.95659
268.337,18.14476,1.28055,-0.15668,0.95616
269.037,18.16592,1.28283,-0.15931,0.95572
269.737,18.1871,1.28642,-0.16198,0.95529
270.437,18.2083,1.28767,-0.16427,0.95485
271.137,18.2293,1.28929,-0.16773,0.95442
271.837,18.2504,1.29229,-0.17017,0.95398
272.537,18.27143,1.2953,-0.1724,0.95355
273.237,18.29249,1.29861,-0.17494,0.95311
273.937,18.3136,1.30205,-0.17717,0.95268
274.637,18.33465,1.30293,-0.18074,0.95224
275.337,18.35585,1.30487,-0.18463,0.9518
276.037,18.37697,1.30762,-0.18748,0.95137
276.737,18.39816,1.30808,-0.18995,0.95093
277.437,18.41937,1.31148,-0.19252,0.95049
278.137,18.4405,1.3155,-0.19462,0.95005
278.837,18.46174,1.3196,-0.19758,0.94962
279.537,18.4828,1.31934,-0.20156,0.94918
280.237,18.50389,1.32323,-0.20511,0.94874
280.937,18.52495,1.32687,-0.20798,0.9483
281.637,18.54615,1.32503,-0.2105,0.94786
282.337,18.56731,1.32877,-0.21413,0.94742
283.037,18.58849,1.33271,-0.21836,0.94698
283.737,18.6097,1.33355,-0.22162,0.94654
284.437,18.6308,1.33673,-0.22553,0.9461
285.137,18.65196,1.33805,-0.22993,0.94566
285.837,18.6731,1.34016,-0.23337,0.94522
286.537,18.6942,1.34035,-0.23834,0.94478
287.237,18.71539,1.34213,-0.24205,0.94434
287.937,18.7366,1.34365,-0.24572,0.9439
288.637,18.75774,1.34722,-0.24987,0.94346
289.337,18.77882,1.3494,-0.25443,0.94302
290.037,18.79995,1.34965,-0.2595,0.94258
290.737,18.82101,1.35221,-0.26438,0.94213
291.437,18.84219,1.35398,-0.26817,0.94169
292.137,18.86334,1.35306,-0.27268,0.94125
292.837,18.88429,1.35736,-0.27773,0.94081
293.537,18.90544,1.35772,-0.28248,0.94036
294.237,18.92662,1.35853,-0.28747,0.93992
294.937,18.94794,1.36209,-0.29274,0.93948
295.637,18.96924,1.36133,-0.29808,0.93903
296.337,18.9904,1.36412,-0.30389,0.93859
297.037,19.0116,1.36723,-0.30954,0.93814
297.737,19.03269,1.36699,-0.31464,0.9377
298.437,19.0538,1.36945,-0.31996,0.93725
299.137,19.07498,1.37117,-0.3259,0.93681
299.837,19.0961,1.37324,-0.33177,0.93636
300.537,19.1174,1.37394,-0.33729,0.93592
301.237,19.1386,1.37432,-0.34291,0.93547
301.937,19.15975,1.37665,-0.34937,0.93502
302.637,19.18093,1.38144,-0.35608,0.93458
303.337,19.20213,1.38242,-0.36201,0.93413
304.037,19.2233,1.3836,-0.36764,0.93368
304.737,19.24446,1.38863,-0.37423,0.93324
305.437,19.26566,1.38775,-0.38259,0.93279
306.137,19.2868,1.39341,-0.38932,0.93234
306.837,19.30797,1.39398,-0.39574,0.93189
307.537,19.32912,1.39887,-0.40306,0.93145
308.237,19.35029,1.3992,-0.41067,0.931
308.937,19.3715,1.40303,-0.41752,0.93055
309.637,19.3926,1.40593,-0.42498,0.9301
310.337,19.4138,1.40919,-0.43288,0.92965
311.037,19.43498,1.41286,-0.44028,0.9292
311.737,19.45617,1.4136,-0.44756,0.92875
312.437,19.47743,1.42085,-0.45387,0.9283
313.137,19.49865,1.42214,-0.46173,0.92785
313.837,19.51988,1.42717,-0.46929,0.9274
314.537,19.54104,1.43214,-0.47717,0.92695
315.237,19.56227,1.43545,-0.48515,0.9265
315.937,19.5835,1.43802,-0.4934,0.92605
316.637,19.60471,1.44351,-0.50274,0.9256
317.337,19.62594,1.44895,-0.51236,0.92515
318.037,19.64721,1.45294,-0.52167,0.9247
318.737,19.6684,1.46087,-0.53065,0.92425
319.437,19.68962,1.46535,-0.53973,0.92379
320.137,19.71084,1.46884,-0.54861,0.92334
320.837,19.73206,1.47501,-0.55914,0.92289
321.537,19.75333,1.48151,-0.56949,0.92244
322.237,19.7746,1.49086,-0.58,0.92198
322.937,19.79587,1.49332,-0.59029,0.92153
323.637,19.81717,1.49845,-0.60049,0.92108
324.337,19.83844,1.50543,-0.61116,0.92062
325.037,19.85969,1.51233,-0.6222,0.92017
325.737,19.88096,1.51888,-0.63296,0.91972
326.437,19.90219,1.52336,-0.64395,0.91926
327.137,19.9235,1.5304,-0.65523,0.91881
327.837,19.9448,1.54063,-0.66686,0.91835
328.537,19.96601,1.54745,-0.67909,0.9179
329.237,19.9873,1.55403,-0.69214,0.91744
329.937,20.0083,1.55971,-0.7045,0.91699
330.637,20.02962,1.56862,-0.71667,0.91653
331.337,20.0509,1.57501,-0.72912,0.91608
332.037,20.0724,1.58101,-0.74191,0.91562
332.737,20.0939,1.58783,-0.75476,0.91516
333.437,20.11528,1.5938,-0.76799,0.91471
334.137,20.13658,1.60097,-0.78003,0.91425
334.837,20.15788,1.60803,-0.79355,0.91379
335.537,20.17911,1.61561,-0.80717,0.91334
336.237,20.20049,1.62346,-0.82044,0.91288
336.937,20.22191,1.62955,-0.83449,0.91242
337.637,20.2434,1.63768,-0.8486,0.91196
338.337,20.26481,1.64284,-0.86339,0.91151
339.037,20.28613,1.65141,-0.87842,0.91105
339.737,20.3075,1.65665,-0.89308,0.91059
340.437,20.32878,1.66227,-0.90772,0.91013
341.137,20.35011,1.6699,-0.92286,0.90967
341.837,20.37143,1.67322,-0.93835,0.90921
342.537,20.3928,1.67966,-0.95357,0.90875
343.237,20.41416,1.68532,-0.96845,0.90829
343.937,20.43561,1.6922,-0.98374,0.90783
344.637,20.45704,1.69658,-0.99956,0.90737
345.337,20.47849,1.70044,-1.01611,0.90691
346.037,20.49986,1.70884,-1.03248,0.90645
346.737,20.52127,1.71262,-1.0486,0.90599
347.437,20.54269,1.7179,-1.06492,0.90553
348.137,20.56411,1.72212,-1.08114,0.90507
348.837,20.58559,1.72473,-1.09726,0.90461
349.537,20.60697,1.73212,-1.11376,0.90415
350.237,20.62839,1.73497,-1.12989,0.90369
350.937,20.6498,1.73939,-1.14678,0.90323
351.637,20.67126,1.74477,-1.16432,0.90276
352.337,20.69276,1.7494,-1.18088,0.9023
353.037,20.71411,1.75442,-1.19748,0.90184
353.737,20.7354,1.7608,-1.21381,0.90138
354.437,20.7569,1.76844,-1.23046,0.90091
355.137,20.77831,1.77308,-1.24729,0.90045
355.837,20.8,1.78041,-1.26432,0.89999
356.537,20.8214,1.78751,-1.28146,0.89952
357.237,20.84287,1.79537,-1.29886,0.89906
357.937,20.86439,1.80258,-1.31674,0.8986
358.637,20.8859,1.81022,-1.33383,0.89813
359.337,20.9074,1.81883,-1.35086,0.89767
360.037,20.92898,1.82864,-1.3685,0.8972
360.737,20.95051,1.83738,-1.38548,0.89674
361.437,20.97202,1.84928,-1.4023,0.89627
362.137,20.99352,1.85984,-1.41982,0.89581
362.837,21.01499,1.8734,-1.43654,0.89534
363.537,21.0365,1.88584,-1.45448,0.89488
364.237,21.05806,1.89638,-1.47213,0.89441
364.937,21.0796,1.91143,-1.48986,0.89395
365.637,21.10119,1.92787,-1.5083,0.89348
366.337,21.12274,1.94257,-1.52662,0.89302
367.037,21.14428,1.95945,-1.5451,0.89255
367.737,21.16584,1.97526,-1.56415,0.89208
368.437,21.18742,1.99337,-1.58278,0.89162
369.137,21.20901,2.01222,-1.60223,0.89115
369.837,21.23057,2.03232,-1.62155,0.89068
370.537,21.25221,2.04956,-1.64212,0.89021
371.237,21.27381,2.07052,-1.66151,0.88975
371.937,21.29541,2.09121,-1.68154,0.88928
372.637,21.31705,2.1133,-1.70241,0.88881
373.337,21.33868,2.13454,-1.72343,0.88834
374.037,21.36038,2.15522,-1.74372,0.88787
374.737,21.38186,2.17698,-1.76427,0.88741
375.437,21.4035,2.19915,-1.78511,0.88694
376.137,21.42512,2.22226,-1.80623,0.88647
376.837,21.44685,2.24507,-1.8281,0.886
377.537,21.46852,2.26643,-1.84981,0.88553
378.237,21.49012,2.28925,-1.8718,0.88506
378.937,21.51184,2.31071,-1.89401,0.88459
379.637,21.5335,2.33408,-1.91659,0.88412
380.337,21.55515,2.35136,-1.94045,0.88365
381.037,21.5768,2.37293,-1.9639,0.88318
381.737,21.59846,2.39176,-1.9869,0.88271
382.437,21.62013,2.40646,-2.0109,0.88224
383.137,21.6418,2.42352,-2.03484,0.88177
383.837,21.66348,2.43859,-2.05903,0.8813
384.537,21.68499,2.44897,-2.08274,0.88083
385.237,21.70663,2.45807,-2.10637,0.88036
385.937,21.72822,2.46896,-2.13086,0.87988
386.637,21.75005,2.47165,-2.156,0.87941
387.337,21.772,2.47593,-2.18106,0.87894
388.037,21.79376,2.47589,-2.20583,0.87847
388.737,21.81554,2.47092,-2.23021,0.878
389.437,21.83729,2.46308,-2.25495,0.87752
390.137,21.85904,2.44912,-2.27949,0.87705
390.837,21.8807,2.43362,-2.30351,0.87658
391.537,21.90225,2.41098,-2.32776,0.8761
392.237,21.92389,2.38738,-2.35154,0.87563
392.937,21.9456,2.3536,-2.37479,0.87516
393.637,21.96753,2.31898,-2.39832,0.87468
394.337,21.98946,2.28114,-2.42093,0.87421
395.037,22.01116,2.23251,-2.4426,0.87374
395.737,22.03284,2.18189,-2.46406,0.87326
396.437,22.0545,2.12704,-2.4854,0.87279
397.137,22.07616,2.06898,-2.50734,0.87231
397.837,22.0978,2.00418,-2.52749,0.87184
398.537,22.11952,1.93877,-2.54659,0.87136
399.237,22.14115,1.86681,-2.56412,0.87089
399.937,22.1629,1.78989,-2.58156,0.87041
400.637,22.18449,1.71063,-2.59884,0.86994
401.337,22.20607,1.62937,-2.61381,0.86946
402.037,22.2275,1.54897,-2.62866,0.86899
402.737,22.249,1.46409,-2.64294,0.86851
403.437,22.2708,1.37559,-2.65683,0.86804
404.137,22.29256,1.28624,-2.67016,0.86756
404.837,22.31436,1.19785,-2.68328,0.86708
405.537,22.33609,1.11323,-2.69487,0.86661
406.237,22.3577,1.02677,-2.70504,0.86613
406.937,22.3794,0.94079,-2.71436,0.86565
407.637,22.40107,0.86188,-2.72317,0.86518
408.337,22.42278,0.78389,-2.7318,0.8647
409.037,22.44446,0.70743,-2.73989,0.86422
409.737,22.46595,0.63572,-2.74673,0.86374
410.437,22.48755,0.5683,-2.75336,0.86327
411.137,22.50915,0.50613,-2.75916,0.86279
411.837,22.5308,0.45121,-2.76415,0.86231
412.537,22.55251,0.39866,-2.76862,0.86183
413.237,22.57415,0.35182,-2.77276,0.86135
413.937,22.59581,0.3103,-2.77668,0.86087
414.637,22.61748,0.27072,-2.77952,0.8604
415.337,22.63916,0.23721,-2.78254,0.85992
416.037,22.66084,0.2076,-2.78653,0.85944
416.737,22.6826,0.18334,-2.79006,0.85896
417.437,22.7041,0.16052,-2.79204,0.85848
418.137,22.72575,0.14118,-2.79439,0.858
418.837,22.74747,0.11873,-2.79644,0.85752
419.537,22.7694,0.10758,-2.80102,0.85704
420.237,22.79129,0.09224021,-2.80403,0.85656
420.937,22.81306,0.07830477,-2.80619,0.85608
421.637,22.83482,0.06751321,-2.80835,0.8556
422.337,22.85656,0.05455066,-2.81055,0.85512
423.037,22.8783,0.0445426,-2.81201,0.85464
423.737,22.90016,0.03504822,-2.81436,0.85416
424.437,22.92197,0.0284087,-2.8159,0.85367
425.137,22.94369,0.02021854,-2.81813,0.85319
425.837,22.96556,0.0131807,-2.82071,0.85271
426.537,22.9874,0.005813348,-2.82344,0.85223
427.237,23.0092,-0.003046841,-2.82608,0.85175
427.937,23.03107,-0.008184034,-2.82825,0.85127
428.637,23.0529,-0.01380343,-2.83017,0.85078
429.337,23.07476,-0.01771359,-2.83304,0.8503
430.037,23.09665,-0.02630955,-2.83523,0.84982
430.737,23.11854,-0.03153324,-2.83782,0.84934
431.437,23.1404,-0.03941253,-2.8398,0.84885
432.137,23.16235,-0.04598953,-2.84134,0.84837
432.837,23.18412,-0.05091725,-2.84325,0.84789
433.537,23.20597,-0.05879767,-2.84531,0.8474
434.237,23.22784,-0.0629394,-2.8488,0.84692
434.937,23.24983,-0.06883669,-2.85073,0.84644
435.637,23.27185,-0.07270613,-2.85251,0.84595
436.337,23.29384,-0.08035454,-2.85427,0.84547
437.037,23.31575,-0.08578187,-2.85678,0.84498
437.737,23.33766,-0.09032528,-2.85921,0.8445
438.437,23.35957,-0.09502827,-2.86157,0.84402
439.137,23.38155,-0.09939915,-2.86284,0.84353
439.837,23.40352,-0.10422,-2.86318,0.84305
440.537,23.4255,-0.10869,-2.86523,0.84256
441.237,23.4475,-0.11573,-2.86718,0.84208
441.937,23.46947,-0.11886,-2.8694,0.84159
442.637,23.49142,-0.12342,-2.87187,0.84111
443.337,23.51344,-0.12512,-2.87281,0.84062
444.037,23.5354,-0.13326,-2.87453,0.84013
444.737,23.5575,-0.13566,-2.87625,0.83965
445.437,23.57948,-0.13879,-2.87817,0.83916
446.137,23.6015,-0.14301,-2.87978,0.83868
446.837,23.62343,-0.14782,-2.88206,0.83819
447.537,23.64537,-0.1482,-2.88518,0.8377
448.237,23.6672,-0.15299,-2.88722,0.83722
448.937,23.6892,-0.15701,-2.8893,0.83673
449.637,23.71121,-0.15905,-2.89132,0.83624
450.337,23.7335,-0.16137,-2.8933,0.83576
451.037,23.7557,-0.16588,-2.89497,0.83527
451.737,23.77769,-0.1682,-2.89651,0.83478
452.437,23.79974,-0.17149,-2.89898,0.83429
453.137,23.82174,-0.16997,-2.90138,0.83381
453.837,23.844,-0.17311,-2.90375,0.83332
454.537,23.86609,-0.17535,-2.90548,0.83283
455.237,23.88818,-0.1725,-2.90702,0.83234
455.937,23.9103,-0.17533,-2.90843,0.83185
456.637,23.93252,-0.17568,-2.91064,0.83137
457.337,23.9547,-0.17655,-2.91223,0.83088
458.037,23.97684,-0.17612,-2.91372,0.83039
458.737,23.9989,-0.17128,-2.91595,0.8299
459.437,24.021,-0.17453,-2.91787,0.82941
460.137,24.043,-0.17519,-2.91965,0.82892
460.837,24.06522,-0.17135,-2.92118,0.82843
461.537,24.08738,-0.16874,-2.92355,0.82794
462.237,24.1096,-0.16795,-2.92548,0.82745
462.937,24.1317,-0.16209,-2.92695,0.82696
463.637,24.15387,-0.16309,-2.92857,0.82647
464.337,24.17602,-0.15964,-2.93023,0.82598
465.037,24.19823,-0.15691,-2.93207,0.82549
465.737,24.22046,-0.15225,-2.93379,0.825
466.437,24.2426,-0.15075,-2.93557,0.82451
467.137,24.26476,-0.14781,-2.93717,0.82402
467.837,24.2869,-0.14712,-2.93882,0.82353
468.537,24.30911,-0.13917,-2.94015,0.82304
469.237,24.33125,-0.13402,-2.94229,0.82255
469.937,24.3535,-0.12903,-2.9442,0.82206
470.637,24.37564,-0.12597,-2.94551,0.82156
471.337,24.39777,-0.12164,-2.94666,0.82107
472.037,24.42,-0.11651,-2.94935,0.82058
472.737,24.4422,-0.11248,-2.95124,0.82009
473.437,24.4646,-0.10855,-2.95308,0.8196
474.137,24.48682,-0.10265,-2.95441,0.8191
474.837,24.50906,-0.09631242,-2.95612,0.81861
475.537,24.53135,-0.0898796,-2.95718,0.81812
476.237,24.55366,-0.08751076,-2.95835,0.81763
476.937,24.5759,-0.0810544,-2.95932,0.81713
477.637,24.59815,-0.07863087,-2.96023,0.81664
478.337,24.62039,-0.07513623,-2.96168,0.81615
479.037,24.64266,-0.07084708,-2.96281,0.81566
479.737,24.66487,-0.0647494,-2.96369,0.81516
480.437,24.68715,-0.05930057,-2.96504,0.81467
481.137,24.70947,-0.05190371,-2.96512,0.81417
481.837,24.73174,-0.05240962,-2.96766,0.81368
482.537,24.75405,-0.04877972,-2.96866,0.81319
483.237,24.77637,-0.04225905,-2.97024,0.81269
483.937,24.79872,-0.0394263,-2.97152,0.8122
484.637,24.82114,-0.03511814,-2.97269,0.8117
485.337,24.84347,-0.02814575,-2.97433,0.81121
486.037,24.8657,-0.0281568,-2.97581,0.81071
486.737,24.88802,-0.02118013,-2.97677,0.81022
487.437,24.91029,-0.01772939,-2.97828,0.80973
488.137,24.9327,-0.01291958,-2.97963,0.80923
488.837,24.95497,-0.007640355,-2.97962,0.80873
489.537,24.97735,-0.006393656,-2.98092,0.80824
490.237,24.9997,-0.004719496,-2.98155,0.80774
490.937,25.02208,-0.0007636355,-2.98324,0.80725
491.637,25.04445,0.004399951,-2.98539,0.80675
492.337,25.0669,0.00645263,-2.98633,0.80626
493.037,25.0892,0.009128521,-2.98682,0.80576
493.737,25.11153,0.01275331,-2.98832,0.80526
494.437,25.1339,0.01947055,-2.98985,0.80477
495.137,25.15624,0.02230009,-2.99052,0.80427
495.837,25.17858,0.02313633,-2.99145,0.80378
496.537,25.201,0.02674207,-2.99302,0.80328
497.237,25.2234,0.02891505,-2.99417,0.80278
497.937,25.2458,0.02875701,-2.9948,0.80228
498.637,25.2682,0.03207426,-2.99605,0.80179
499.337,25.2906,0.03957499,-2.99757,0.80129
500.037,25.31298,0.03865937,-2.99881,0.80079
500.737,25.3354,0.04193508,-2.99934,0.8003
501.437,25.3578,0.04392078,-3.00013,0.7998
502.137,25.38022,0.04594582,-3.00124,0.7993
502.837,25.4027,0.04915772,-3.00173,0.7988
503.537,25.42504,0.05161526,-3.00322,0.7983
504.237,25.44745,0.05206256,-3.00424,0.79781
504.937,25.46988,0.05347203,-3.00426,0.79731
505.637,25.4924,0.05524693,-3.0056,0.79681
506.337,25.51483,0.0573394,-3.00708,0.79631
507.037,25.53719,0.05840315,-3.00776,0.79581
507.737,25.5596,0.06198778,-3.00836,0.79531
508.437,25.58207,0.06430243,-3.00965,0.79481
509.137,25.60454,0.06020376,-3.01028,0.79431
509.837,25.627,0.06392836,-3.01144,0.79381
510.537,25.64944,0.06718961,-3.01289,0.79332
511.237,25.67197,0.06789006,-3.01287,0.79282
511.937,25.69443,0.0703821,-3.01422,0.79232
512.637,25.71698,0.06759168,-3.01419,0.79182
513.337,25.73947,0.07018863,-3.01662,0.79132
514.037,25.7619,0.07072183,-3.0168,0.79082
514.737,25.78429,0.0692752,-3.01821,0.79032
515.437,25.8067,0.07456737,-3.01889,0.78982
516.137,25.82925,0.07656055,-3.01953,0.78932
516.837,25.85172,0.07483489,-3.02082,0.78881
517.537,25.87425,0.07751735,-3.02086,0.78831
518.237,25.8967,0.07549321,-3.02192,0.78781
518.937,25.91929,0.07892209,-3.02218,0.78731
519.637,25.94174,0.07868434,-3.02217,0.78681
520.337,25.96426,0.08016547,-3.02342,0.78631
521.037,25.9867,0.0815264,-3.02349,0.78581
521.737,26.00928,0.07943026,-3.02318,0.78531
522.437,26.03174,0.07919552,-3.02357,0.78481
523.137,26.05418,0.07935263,-3.02513,0.7843
523.837,26.07669,0.08198447,-3.02542,0.7838
524.537,26.09919,0.08022802,-3.02772,0.7833
525.237,26.12179,0.08161079,-3.02826,0.7828
525.937,26.14436,0.08468012,-3.02915,0.7823
526.637,26.16694,0.08391493,-3.03072,0.78179
527.337,26.1894,0.08248944,-3.03172,0.78129
528.037,26.21198,0.08133507,-3.03141,0.78079
528.737,26.23455,0.08263465,-3.03249,0.78029
529.437,26.2571,0.08215227,-3.03249,0.77978
530.137,26.27965,0.08122025,-3.03279,0.77928
530.837,26.30218,0.08414057,-3.0338,0.77878
531.537,26.3247,0.08260643,-3.034,0.77827
532.237,26.3473,0.08510913,-3.03616,0.77777
532.937,26.36993,0.08410857,-3.03753,0.77727
533.637,26.3925,0.08348524,-3.03786,0.77676
534.337,26.4151,0.08158878,-3.03874,0.77626
535.037,26.43768,0.08267739,-3.03918,0.77575
535.737,26.46025,0.08164096,-3.03918,0.77525
536.437,26.4829,0.08374197,-3.04036,0.77475
537.137,26.5055,0.08340473,-3.04048,0.77424
537.837,26.5281,0.08270122,-3.03979,0.77374
538.537,26.5507,0.08097073,-3.04043,0.77323
539.237,26.57327,0.08215807,-3.0405,0.77273
539.937,26.59586,0.08123719,-3.04151,0.77222
540.637,26.61846,0.07966752,-3.04191,0.77172
541.337,26.6411,0.08248401,-3.04337,0.77121
542.037,26.66372,0.08150042,-3.0441,0.77071
542.737,26.6863,0.08177164,-3.04487,0.7702
543.437,26.7089,0.07972517,-3.04619,0.7697
544.137,26.7315,0.08251837,-3.04639,0.76919
544.837,26.75419,0.08453046,-3.0475,0.76869
545.537,26.7769,0.08421968,-3.04899,0.76818
546.237,26.7996,0.08298834,-3.05015,0.76768
546.937,26.822,0.08433008,-3.05131,0.76717
547.637,26.8446,0.08278176,-3.05152,0.76666
548.337,26.86723,0.08726854,-3.05299,0.76616
549.037,26.8899,0.08671707,-3.05301,0.76565
549.737,26.91263,0.08594767,-3.05427,0.76514
550.437,26.9352,0.08664056,-3.05431,0.76464
551.137,26.958,0.08486291,-3.05511,0.76413
551.837,26.9806,0.08925212,-3.05563,0.76362
552.537,27.00334,0.08914791,-3.05561,0.76312
553.237,27.02595,0.09143961,-3.05694,0.76261
553.937,27.0486,0.09145288,-3.05696,0.7621
554.637,27.0712,0.09145958,-3.05812,0.7616
555.337,27.09396,0.09341712,-3.05826,0.76109
556.037,27.1166,0.09801583,-3.05824,0.76058
556.737,27.13934,0.10083,-3.05957,0.76007
557.437,27.1619,0.10292,-3.05958,0.75957
558.137,27.1845,0.10653,-3.05953,0.75906
558.837,27.2072,0.10745,-3.06089,0.75855
559.537,27.2299,0.10976,-3.06115,0.75804
560.237,27.2527,0.11057,-3.06221,0.75753
560.937,27.27542,0.11493,-3.06273,0.75703
561.637,27.29815,0.11225,-3.06363,0.75652
562.337,27.3209,0.11815,-3.06442,0.75601
563.037,27.3437,0.11578,-3.06495,0.7555
563.737,27.3665,0.11418,-3.06495,0.75499
564.437,27.3892,0.11587,-3.06553,0.75448
565.137,27.412,0.11664,-3.06628,0.75397
565.837,27.4347,0.11711,-3.06775,0.75346
566.537,27.45743,0.11628,-3.06785,0.75296
567.237,27.48012,0.11788,-3.06912,0.75245
567.937,27.50286,0.11847,-3.06921,0.75194
568.637,27.5256,0.11906,-3.07045,0.75143
569.337,27.5485,0.12011,-3.07044,0.75092
570.037,27.57122,0.12349,-3.07123,0.75041
570.737,27.59396,0.12181,-3.07175,0.7499
571.437,27.6167,0.12334,-3.07201,0.74939
572.137,27.63938,0.12514,-3.07307,0.74888
572.837,27.66217,0.12435,-3.07308,0.74837
573.537,27.68494,0.1219,-3.07428,0.74786
574.237,27.70775,0.12222,-3.07439,0.74735
574.937,27.73051,0.12248,-3.07439,0.74684
575.637,27.7531,0.12476,-3.07439,0.74633
576.337,27.7759,0.12189,-3.07572,0.74582
577.037,27.7988,0.12332,-3.0757,0.7453
577.737,27.8218,0.12057,-3.07582,0.74479
578.437,27.8446,0.12203,-3.07701,0.74428
579.137,27.8674,0.11987,-3.07701,0.74377
579.837,27.89035,0.11956,-3.07839,0.74326
580.537,27.9132,0.11949,-3.07834,0.74275
581.237,27.936,0.11608,-3.0797,0.74224
581.937,27.9588,0.11889,-3.07965,0.74173
582.637,27.98163,0.11649,-3.08076,0.74121
583.337,28.00457,0.11686,-3.08097,0.7407
584.037,28.02745,0.11808,-3.08097,0.74019
584.737,28.05037,0.11416,-3.08206,0.73968
585.437,28.0732,0.11563,-3.08228,0.73917
586.137,28.09608,0.11238,-3.08327,0.73865
586.837,28.11893,0.11433,-3.0836,0.73814
587.537,28.1419,0.11372,-3.08363,0.73763
588.237,28.16484,0.11269,-3.08373,0.73712
588.937,28.18771,0.11228,-3.08478,0.7366
589.637,28.21055,0.11117,-3.08503,0.73609
590.337,28.2333,0.10944,-3.08503,0.73558
591.037,28.25628,0.10971,-3.08601,0.73506
591.737,28.27923,0.10695,-3.08602,0.73455
592.437,28.30227,0.10548,-3.08749,0.73404
593.137,28.3252,0.10358,-3.08766,0.73353
593.837,28.34805,0.10037,-3.08849,0.73301
594.537,28.37092,0.09989333,-3.08898,0.7325
595.237,28.3939,0.10191,-3.08899,0.73198
595.937,28.4169,0.0939733,-3.09031,0.73147
596.637,28.43985,0.09265658,-3.09029,0.73096
597.337,28.46272,0.090985,-3.09025,0.73044
598.037,28.48563,0.09175593,-3.09164,0.72993
598.737,28.5086,0.08784641,-3.09029,0.72942
599.437,28.53152,0.08786151,-3.09111,0.7289
600.137,28.55446,0.08726292,-3.09161,0.72839
600.837,28.5774,0.08571489,-3.09197,0.72787
601.537,28.60026,0.08353965,-3.09391,0.72736
602.237,28.62319,0.08347068,-3.09389,0.72684
602.937,28.64603,0.07958967,-3.09522,0.72633
603.637,28.66896,0.08004832,-3.09523,0.72581
604.337,28.69193,0.07960665,-3.09545,0.7253
605.037,28.7149,0.0755982,-3.09654,0.72478
605.737,28.7379,0.07821552,-3.09654,0.72427
606.437,28.76091,0.07861042,-3.0976,0.72375
607.137,28.78388,0.07398857,-3.09781,0.72324
607.837,28.8068,0.07247238,-3.09951,0.72272
608.537,28.82967,0.07461508,-3.09949,0.72221
609.237,28.8526,0.07081426,-3.1008,0.72169
609.937,28.87554,0.07117868,-3.10082,0.72118
610.637,28.89857,0.07004584,-3.10082,0.72066
611.337,28.9215,0.06705025,-3.10193,0.72014
612.037,28.94455,0.06611865,-3.10214,0.71963
612.737,28.96753,0.06749,-3.10214,0.71911
613.437,28.99057,0.06805954,-3.10209,0.7186
614.137,29.0135,0.06393731,-3.10345,0.71808
614.837,29.03653,0.06402664,-3.10347,0.71756
615.537,29.0596,0.06030197,-3.1054,0.71705
616.237,29.08261,0.06008518,-3.10543,0.71653
616.937,29.1056,0.05782397,-3.10632,0.71601
617.637,29.12858,0.05885709,-3.10675,0.7155
618.337,29.15151,0.05716203,-3.10675,0.71498
619.037,29.1746,0.0573334,-3.10719,0.71446
619.737,29.1975,0.054988,-3.10806,0.71395
620.437,29.2205,0.05575924,-3.10805,0.71343
621.137,29.2435,0.05386476,-3.10943,0.71291
621.837,29.2665,0.05239041,-3.10938,0.71239
622.537,29.2896,0.05311825,-3.10947,0.71188
623.237,29.31261,0.05299762,-3.11069,0.71136
623.937,29.33567,0.05022434,-3.11069,0.71084
624.637,29.35872,0.05001952,-3.11094,0.71032
625.337,29.3817,0.05006294,-3.11184,0.70981
626.037,29.4047,0.04837245,-3.11267,0.70929
626.737,29.42765,0.0475929,-3.11267,0.70877
627.437,29.4505,0.04776191,-3.1128,0.70825
628.137,29.47346,0.04211102,-3.11399,0.70773
628.837,29.4965,0.04456679,-3.11296,0.70722
629.537,29.51965,0.04109634,-3.11265,0.7067
630.237,29.5427,0.03937961,-3.11397,0.70618
630.937,29.5658,0.0384874,-3.11399,0.70566
631.637,29.58887,0.03288635,-3.11535,0.70514
632.337,29.6119,0.03558759,-3.1153,0.70462
633.037,29.635,0.0349562,-3.1153,0.7041
633.737,29.65799,0.03538686,-3.11528,0.70359
634.437,29.68105,0.03007905,-3.11663,0.70307
635.137,29.7042,0.02983612,-3.11662,0.70255
635.837,29.72727,0.02878483,-3.11765,0.70203
636.537,29.75031,0.03008981,-3.11793,0.70151
637.237,29.77335,0.030548,-3.11793,0.70099
637.937,29.79648,0.02552114,-3.11793,0.70047
638.637,29.8196,0.02502762,-3.11854,0.69995
639.337,29.8427,0.02508,-3.11905,0.69943
640.037,29.8657,0.024775,-3.11849,0.69891
640.737,29.8888,0.02411961,-3.11925,0.69839
641.437,29.91185,0.02213088,-3.11921,0.69787
642.137,29.9349,0.02212517,-3.12056,0.69735
642.837,29.95797,0.01932376,-3.12057,0.69683
643.537,29.9811,0.01953558,-3.12057,0.69631
644.237,30.0042,0.01582114,-3.12093,0.69579
644.937,30.02735,0.0184212,-3.12189,0.69527
645.637,30.0504,0.01483458,-3.12189,0.69475
646.337,30.07344,0.01262705,-3.12189,0.69423
647.037,30.09645,0.01691294,-3.12325,0.69371
647.737,30.1196,0.01626503,-3.1232,0.69319
648.437,30.1427,0.01286018,-3.1232,0.69267
649.137,30.1659,0.01170305,-3.12377,0.69215
649.837,30.18897,0.01283681,-3.12452,0.69163
650.537,30.212,0.01204472,-3.12452,0.69111
651.237,30.23508,0.01181919,-3.12452,0.69059
651.937,30.25821,0.01411427,-3.12452,0.69007
652.637,30.2814,0.00618653,-3.12461,0.68955
653.337,30.30455,0.01107751,-3.12661,0.68902
654.037,30.3277,0.009888124,-3.12715,0.6885
654.737,30.35078,0.00681495,-3.12789,0.68798
655.437,30.3739,0.005136568,-3.12846,0.68746
656.137,30.39702,0.00301941,-3.12846,0.68694
656.837,30.4202,0.003962814,-3.12846,0.68642
657.537,30.4433,0.003648106,-3.12911,0.6859
658.237,30.4664,0.002485739,-3.12978,0.68537
658.937,30.4895,0.003708105,-3.1286,0.68485
659.637,30.5126,0.00275457,-3.12874,0.68433
660.337,30.5357,0.001419141,-3.12978,0.68381
661.037,30.55878,0.003003503,-3.12927,0.68329
661.737,30.5819,0.002775443,-3.12846,0.68276
662.437,30.60499,-0.001106753,-3.12968,0.68224
663.137,30.6281,0.001256622,-3.12894,0.68172
663.837,30.6513,-0.00193635,-3.12846,0.6812
664.537,30.67447,-0.002463175,-3.12846,0.68067
665.237,30.69765,0.000409529,-3.12846,0.68015
665.937,30.72075,-0.002363601,-3.12846,0.67963
666.637,30.7439,-0.001320076,-3.13081,0.67911
667.337,30.767,-0.003710117,-3.1311,0.67858
668.037,30.79012,-0.00170626,-3.1311,0.67806
668.737,30.8131,-0.0008666317,-3.13206,0.67754
669.437,30.8363,-0.00570003,-3.13241,0.67702
670.137,30.85946,-0.00513159,-3.13242,0.67649
670.837,30.8828,-0.004830776,-3.13378,0.67597
671.537,30.906,-0.009466538,-3.13373,0.67545
672.237,30.9292,-0.004566458,-3.13374,0.67492
672.937,30.95233,-0.007723366,-3.13524,0.6744
673.637,30.9755,-0.008400213,-3.13604,0.67388
674.337,30.99873,-0.008327916,-3.13626,0.67335
675.037,31.0219,-0.01534695,-3.13735,0.67283
675.737,31.04503,-0.01357282,-3.13735,0.67231
676.437,31.06816,-0.01341893,-3.13735,0.67178
677.137,31.0913,-0.01101954,-3.13735,0.67126
677.837,31.11445,-0.01269004,-3.13735,0.67073
678.537,31.1376,-0.01211766,-3.13811,0.67021
679.237,31.16078,-0.01408444,-3.13867,0.66969
679.937,31.18393,-0.01572501,-3.13867,0.66916
680.637,31.20705,-0.01554061,-3.13903,0.66864
681.337,31.23013,-0.01579984,-3.13998,0.66811
682.037,31.2533,-0.01861993,-3.13998,0.66759
682.737,31.27644,-0.02100946,-3.13895,0.66707
683.437,31.2996,-0.01392258,-3.13866,0.66654
684.137,31.32275,-0.02283971,-3.13866,0.66602
684.837,31.346,-0.01640893,-3.13866,0.66549
685.537,31.36918,-0.01902503,-3.13924,0.66497
686.237,31.39237,-0.02140184,-3.14088,0.66444
686.937,31.4155,-0.02152498,-3.1413,0.66392
687.637,31.4387,-0.01930263,-3.1413,0.66339
688.337,31.46182,-0.018289,-3.1418,0.66287
689.037,31.48501,-0.02080896,-3.14262,0.66234
689.737,31.5082,-0.02328439,-3.14262,0.66182
690.437,31.5314,-0.01800875,-3.14257,0.66129
691.137,31.5546,-0.02361217,-3.14392,0.66077
691.837,31.57777,-0.02257172,-3.14393,0.66024
692.537,31.60094,-0.02684103,-3.14393,0.65972
693.237,31.62408,-0.02496019,-3.14393,0.65919
693.937,31.64728,-0.02733553,-3.14393,0.65867
694.637,31.67045,-0.0270838,-3.14464,0.65814
695.337,31.6936,-0.02615726,-3.14525,0.65762
696.037,31.71674,-0.02690414,-3.14592,0.65709
696.737,31.73988,-0.02510127,-3.14625,0.65657
697.437,31.7631,-0.02586721,-3.14525,0.65604
698.137,31.78636,-0.0303068,-3.14525,0.65552
698.837,31.80958,-0.02742222,-3.14525,0.65499
699.537,31.83285,-0.02923667,-3.14524,0.65446
700.237,31.8561,-0.02924219,-3.14658,0.65394
700.937,31.87933,-0.03047277,-3.14656,0.65341
701.637,31.9025,-0.03038243,-3.14656,0.65289
702.337,31.9257,-0.03021546,-3.14656,0.65236
703.037,31.949,-0.0272151,-3.14656,0.65183
703.737,31.9722,-0.03213549,-3.14656,0.65131
704.437,31.99547,-0.03048382,-3.14656,0.65078
705.137,32.0186,-0.03091047,-3.14654,0.65026
705.837,32.04181,-0.03313938,-3.1479,0.64973
706.537,32.06505,-0.03156191,-3.14788,0.6492
707.237,32.08821,-0.03597513,-3.14788,0.64868
707.937,32.1115,-0.03201008,-3.14788,0.64815
708.637,32.1346,-0.03397476,-3.1479,0.64762
709.337,32.15797,-0.03441246,-3.14654,0.6471
710.037,32.1813,-0.03008817,-3.14791,0.64657
710.737,32.20455,-0.03274905,-3.14787,0.64604
711.437,32.22772,-0.03122354,-3.14786,0.64552
712.137,32.25091,-0.03614055,-3.14912,0.64499
712.837,32.27412,-0.0343224,-3.14918,0.64446
713.537,32.29737,-0.03450887,-3.15055,0.64394
714.237,32.32065,-0.03400065,-3.14947,0.64341
714.937,32.34387,-0.03456227,-3.14919,0.64288
715.637,32.36721,-0.03649463,-3.14919,0.64236
716.337,32.39048,-0.03575172,-3.14919,0.64183
717.037,32.41386,-0.03719595,-3.14919,0.6413
717.737,32.43717,-0.03522045,-3.15043,0.64077
718.437,32.46047,-0.03789365,-3.15051,0.64025
719.137,32.48379,-0.04130806,-3.15051,0.63972
719.837,32.5071,-0.03752341,-3.15051,0.63919
720.537,32.53037,-0.03879678,-3.1512,0.63867
721.237,32.55365,-0.03659212,-3.15182,0.63814
721.937,32.577,-0.03755607,-3.15182,0.63761
722.637,32.6004,-0.04102103,-3.15182,0.63708
723.337,32.6237,-0.04205911,-3.15182,0.63656
724.037,32.64696,-0.04290272,-3.15182,0.63603
724.737,32.67028,-0.04187964,-3.15211,0.6355
725.437,32.69362,-0.0417129,-3.15314,0.63497
726.137,32.71693,-0.04192561,-3.15314,0.63444
726.837,32.74026,-0.04113081,-3.15314,0.63392
727.537,32.7636,-0.04093784,-3.15301,0.63339
728.237,32.78689,-0.04230698,-3.15315,0.63286
728.937,32.8102,-0.04277604,-3.15315,0.63233
729.637,32.83345,-0.04390506,-3.15315,0.63181
730.337,32.85675,-0.04249082,-3.15315,0.63128
731.037,32.8801,-0.03965963,-3.15382,0.63075
731.737,32.90351,-0.04606193,-3.15446,0.63022
732.437,32.92696,-0.04525518,-3.15446,0.62969
733.137,32.95033,-0.04549878,-3.15446,0.62916
733.837,32.9737,-0.04865494,-3.15482,0.62864
734.537,32.99707,-0.04920666,-3.15578,0.62811
735.237,33.02024,-0.04450613,-3.15578,0.62758
735.937,33.0435,-0.04845981,-3.15578,0.62705
736.637,33.06668,-0.04699884,-3.15578,0.62652
737.337,33.09023,-0.04591321,-3.15578,0.62599
738.037,33.11378,-0.04719505,-3.1558,0.62547
738.737,33.1373,-0.04825252,-3.15709,0.62494
739.437,33.16061,-0.04620669,-3.15842,0.62441
740.137,33.18394,-0.05018341,-3.1584,0.62388
740.837,33.20735,-0.04700916,-3.1584,0.62335
741.537,33.23076,-0.04902184,-3.15919,0.62282
742.237,33.25404,-0.04975835,-3.15842,0.62229
742.937,33.27727,-0.05117385,-3.1584,0.62177
743.637,33.30069,-0.052114,-3.15706,0.62124
744.337,33.3242,-0.04875431,-3.15707,0.62071
745.037,33.34779,-0.04999396,-3.15842,0.62018
745.737,33.3712,-0.05060523,-3.15841,0.61965
746.437,33.39454,-0.04978785,-3.15841,0.61912
747.137,33.41788,-0.04698402,-3.1588,0.61859
747.837,33.44128,-0.05222016,-3.15972,0.61806
748.537,33.4647,-0.04788929,-3.15972,0.61753
749.237,33.48822,-0.04852876,-3.15972,0.61701
749.937,33.51165,-0.05180169,-3.15972,0.61648
750.637,33.5351,-0.0493128,-3.15972,0.61595
751.337,33.55855,-0.05316543,-3.15972,0.61542
752.037,33.582,-0.04922876,-3.15973,0.61489
752.737,33.6055,-0.05163746,-3.16097,0.61436
753.437,33.62895,-0.05114266,-3.16104,0.61383
754.137,33.6524,-0.05628966,-3.16104,0.6133
754.837,33.6758,-0.05386629,-3.16221,0.61277
755.537,33.69914,-0.05183915,-3.16236,0.61224
756.237,33.72258,-0.05339844,-3.16236,0.61171
756.937,33.74599,-0.05450835,-3.16236,0.61118
757.637,33.76954,-0.05396249,-3.16236,0.61065
758.337,33.79302,-0.05262915,-3.16236,0.61013
759.037,33.8165,-0.05387626,-3.16207,0.6096
759.737,33.8399,-0.05721369,-3.16268,0.60907
760.437,33.86336,-0.05429714,-3.16268,0.60854
761.137,33.8868,-0.0540497,-3.16268,0.60801
761.837,33.91036,-0.05653428,-3.16268,0.60748
762.537,33.9339,-0.05410292,-3.16268,0.60695
763.237,33.95734,-0.05760924,-3.16268,0.60642
763.937,33.98076,-0.05650941,-3.16268,0.60589
764.637,34.0042,-0.05715577,-3.16271,0.60536
765.337,34.02768,-0.05463067,-3.16236,0.60483
766.037,34.0512,-0.05521192,-3.16314,0.6043
766.737,34.07463,-0.05474685,-3.16368,0.60377
767.437,34.09814,-0.05474054,-3.16368,0.60324
768.137,34.1216,-0.05668881,-3.16372,0.60271
768.837,34.14496,-0.05446992,-3.165,0.60218
769.537,34.16826,-0.05793207,-3.16499,0.60165
770.237,34.19171,-0.05738769,-3.16498,0.60112
770.937,34.21529,-0.05926653,-3.16362,0.60059
771.637,34.23872,-0.05800257,-3.16417,0.60006
772.337,34.2622,-0.05811836,-3.16499,0.59953
773.037,34.2857,-0.06176988,-3.16499,0.599
773.737,34.30944,-0.05864527,-3.16499,0.59847
774.437,34.33294,-0.06015545,-3.1653,0.59794
775.137,34.3564,-0.05984925,-3.16565,0.59741
775.837,34.37981,-0.05841425,-3.16564,0.59688
776.537,34.40336,-0.05842866,-3.16598,0.59635
777.237,34.42688,-0.05714603,-3.16598,0.59582
777.937,34.45044,-0.05740996,-3.16599,0.59529
778.637,34.47392,-0.05579605,-3.16631,0.59476
779.337,34.49743,-0.05798463,-3.16631,0.59423
780.037,34.5209,-0.05428164,-3.16707,0.5937
780.737,34.5443,-0.05817414,-3.16762,0.59317
781.437,34.5678,-0.05672793,-3.16762,0.59264
782.137,34.59127,-0.06225325,-3.16762,0.59211
782.837,34.61484,-0.05821448,-3.16803,0.59158
783.537,34.63847,-0.05921986,-3.16759,0.59105
784.237,34.66202,-0.05680577,-3.16762,0.59052
784.937,34.68553,-0.05944844,-3.16762,0.58999
785.637,34.70906,-0.05673261,-3.16762,0.58946
786.337,34.7326,-0.05543686,-3.16789,0.58893
787.037,34.75625,-0.0550149,-3.16894,0.5884
787.737,34.77984,-0.05624709,-3.16894,0.58787
788.437,34.80337,-0.05677283,-3.16894,0.58734
789.137,34.82693,-0.05316357,-3.16894,0.58681
789.837,34.85045,-0.05541796,-3.17016,0.58628
790.537,34.87406,-0.05485577,-3.17025,0.58575
791.237,34.89761,-0.05561843,-3.17025,0.58522
791.937,34.92107,-0.05728436,-3.17025,0.58469
792.637,34.9446,-0.05428536,-3.17023,0.58416
793.337,34.96816,-0.05420489,-3.17159,0.58363
794.037,34.99187,-0.05316709,-3.17157,0.5831
794.237,34.9987,-0.05272182,-3.17157,0.58295