File: 01_Data/Bean_Bag_Chair_Inner_Lining/STA/N2/10K_min/Bean_Bag_Liner_STA_N2_10KData_220513_R1.csv
##Temp./Â°C,Time/min,Mass loss(subtr.2)/mg,DSC(subtr.2)/(mW/mg),Sensit./(uV/mW)
49.746,10.01,-0.00867,0.00285168,1.07017
50.446,10.77167,-0.007676962,0.03791469,1.06997
51.146,10.97545,-0.008469371,0.06266473,1.06978
51.846,11.1276,-0.01072358,0.08213473,1.06959
52.546,11.25667,-0.007347356,0.09682246,1.06939
53.246,11.37082,-0.00809496,0.10855,1.0692
53.946,11.4763,-0.00983793,0.12023,1.069
54.646,11.57589,-0.00832296,0.13117,1.06881
55.346,11.67013,-0.00902649,0.13978,1.06861
56.046,11.76113,-0.00790156,0.14672,1.06842
56.746,11.84879,-0.009564799,0.1525,1.06822
57.446,11.934,-0.008646528,0.15745,1.06802
58.146,12.0178,-0.009201835,0.16412,1.06782
58.846,12.10069,-0.01029862,0.16715,1.06763
59.546,12.18201,-0.009332956,0.17152,1.06743
60.246,12.26239,-0.01020131,0.17545,1.06723
60.946,12.34174,-0.01060159,0.17715,1.06703
61.646,12.42029,-0.009218913,0.17806,1.06683
62.346,12.4985,-0.009174616,0.18002,1.06663
63.046,12.57615,-0.009508089,0.1827,1.06643
63.746,12.65357,-0.01042517,0.18622,1.06622
64.446,12.73024,-0.01054002,0.18858,1.06602
65.146,12.8066,-0.01052677,0.18932,1.06582
65.846,12.88256,-0.01052029,0.19071,1.06561
66.546,12.95849,-0.01053108,0.19475,1.06541
67.246,13.0343,-0.01086278,0.19578,1.06521
67.946,13.1093,-0.01053332,0.19944,1.065
68.646,13.18399,-0.0105808,0.19965,1.0648
69.346,13.25875,-0.01054437,0.20283,1.06459
70.046,13.33355,-0.01055451,0.20517,1.06438
70.746,13.4077,-0.01062011,0.20685,1.06418
71.446,13.48185,-0.01053867,0.20791,1.06397
72.146,13.5558,-0.01130254,0.2086,1.06376
72.846,13.62964,-0.01054975,0.20984,1.06355
73.546,13.70333,-0.01053664,0.21122,1.06334
74.246,13.7767,-0.01186304,0.20966,1.06313
74.946,13.85,-0.01054,0.21013,1.06292
75.646,13.923,-0.01186464,0.20914,1.06271
76.346,13.996,-0.01054047,0.20742,1.0625
77.046,14.0688,-0.01055072,0.20677,1.06229
77.746,14.1411,-0.01178932,0.20469,1.06208
78.446,14.21323,-0.01050651,0.20267,1.06186
79.146,14.28554,-0.0118675,0.19888,1.06165
79.846,14.35765,-0.0119029,0.19721,1.06144
80.546,14.4296,-0.01215672,0.19592,1.06122
81.246,14.50131,-0.01185408,0.19492,1.06101
81.946,14.5733,-0.01237092,0.19344,1.06079
82.646,14.6448,-0.01185964,0.19115,1.06058
83.346,14.7158,-0.01315916,0.1904,1.06036
84.046,14.78704,-0.01183495,0.1924,1.06014
84.746,14.85738,-0.01098494,0.18945,1.05993
85.446,14.92852,-0.01185761,0.1889,1.05971
86.146,14.99895,-0.01317072,0.1854,1.05949
86.846,15.07001,-0.01217883,0.18672,1.05927
87.546,15.14039,-0.01185956,0.18654,1.05905
88.246,15.2109,-0.01318168,0.18674,1.05883
88.946,15.2814,-0.01317847,0.18889,1.05861
89.646,15.35152,-0.01239326,0.187,1.05839
90.346,15.42154,-0.01186,0.18649,1.05817
91.046,15.49124,-0.01177499,0.18699,1.05795
91.746,15.56109,-0.01184883,0.1863,1.05772
92.446,15.63078,-0.01054542,0.18505,1.0575
93.146,15.7003,-0.01056053,0.1866,1.05728
93.846,15.7697,-0.01186218,0.1862,1.05705
94.546,15.8393,-0.01186297,0.18753,1.05683
95.246,15.9089,-0.01186,0.18673,1.0566
95.946,15.97829,-0.01185927,0.18756,1.05638
96.646,16.0475,-0.01054858,0.18843,1.05615
97.346,16.11671,-0.01169865,0.18986,1.05592
98.046,16.18594,-0.01147362,0.19047,1.0557
98.746,16.2549,-0.01186004,0.19141,1.05547
99.446,16.3238,-0.01186001,0.19167,1.05524
100.146,16.39255,-0.0117878,0.1933,1.05501
100.846,16.4614,-0.01059015,0.19535,1.05478
101.546,16.53002,-0.01053991,0.19515,1.05455
102.246,16.59899,-0.01187761,0.19715,1.05432
102.946,16.66745,-0.01186,0.19823,1.05409
103.646,16.73613,-0.01185955,0.19932,1.05386
104.346,16.80454,-0.01177163,0.1993,1.05363
105.046,16.87321,-0.01193372,0.20381,1.0534
105.746,16.94192,-0.01255639,0.20348,1.05316
106.446,17.01044,-0.01120012,0.20506,1.05293
107.146,17.07873,-0.0111793,0.20661,1.0527
107.846,17.14684,-0.01120499,0.20573,1.05246
108.546,17.21515,-0.01194945,0.20996,1.05223
109.246,17.2838,-0.01307464,0.21153,1.05199
109.946,17.35224,-0.01186161,0.21332,1.05175
110.646,17.4208,-0.01186,0.21243,1.05152
111.346,17.48881,-0.01182564,0.21671,1.05128
112.046,17.55708,-0.01187683,0.21627,1.05104
112.746,17.62505,-0.01185659,0.21924,1.0508
113.446,17.6935,-0.01317379,0.21834,1.05057
114.146,17.76174,-0.01317,0.221,1.05033
114.846,17.8302,-0.0131702,0.22161,1.05009
115.546,17.89811,-0.01184753,0.22521,1.04985
116.246,17.9662,-0.0118827,0.22696,1.04961
116.946,18.0343,-0.01185998,0.22857,1.04936
117.646,18.10292,-0.01199129,0.22856,1.04912
118.346,18.17135,-0.01181477,0.22941,1.04888
119.046,18.2397,-0.01221277,0.23213,1.04864
119.746,18.3078,-0.01186,0.23308,1.04839
120.446,18.3758,-0.01186,0.23621,1.04815
121.146,18.44387,-0.01186149,0.23495,1.0479
121.846,18.51156,-0.01316868,0.2398,1.04766
122.546,18.5795,-0.0125516,0.23944,1.04741
123.246,18.6473,-0.0118436,0.24092,1.04717
123.946,18.71559,-0.01279985,0.2405,1.04692
124.646,18.7837,-0.01320581,0.2422,1.04667
125.346,18.8518,-0.01317997,0.24202,1.04643
126.046,18.91921,-0.01255744,0.24508,1.04618
126.746,18.98723,-0.01251825,0.24477,1.04593
127.446,19.055,-0.01111014,0.24622,1.04568
128.146,19.123,-0.01252003,0.24571,1.04543
128.846,19.19067,-0.01252,0.24729,1.04518
129.546,19.25827,-0.01251998,0.24934,1.04493
130.246,19.32581,-0.01287703,0.25169,1.04468
130.946,19.3934,-0.01218185,0.25135,1.04442
131.646,19.46125,-0.01217941,0.25352,1.04417
132.346,19.52906,-0.01251091,0.25407,1.04392
133.046,19.5966,-0.01380682,0.25494,1.04366
133.746,19.66412,-0.01272347,0.25475,1.04341
134.446,19.73163,-0.01318483,0.25428,1.04315
135.146,19.79938,-0.01318,0.25638,1.0429
135.846,19.86686,-0.01318,0.25911,1.04264
136.546,19.9345,-0.01317999,0.25711,1.04239
137.246,20.002,-0.01320731,0.25846,1.04213
137.946,20.06975,-0.01251995,0.26088,1.04187
138.646,20.13699,-0.01392248,0.26316,1.04161
139.346,20.2041,-0.01251973,0.2648,1.04136
140.046,20.27143,-0.0125205,0.26459,1.0411
140.746,20.3386,-0.01384219,0.26384,1.04084
141.446,20.40612,-0.01283975,0.26472,1.04058
142.146,20.47342,-0.01283997,0.26576,1.04032
142.846,20.54105,-0.01249185,0.26563,1.04006
143.546,20.6087,-0.01254144,0.26431,1.03979
144.246,20.67599,-0.01232201,0.26779,1.03953
144.946,20.74318,-0.01252002,0.26682,1.03927
145.646,20.81069,-0.01252,0.27076,1.039
146.346,20.878,-0.01252,0.27172,1.03874
147.046,20.9452,-0.01251342,0.27044,1.03848
147.746,21.01221,-0.01185878,0.2706,1.03821
148.446,21.0793,-0.01318768,0.27255,1.03795
149.146,21.1465,-0.01251991,0.2737,1.03768
149.846,21.2137,-0.01253403,0.27512,1.03741
150.546,21.28114,-0.01382974,0.27272,1.03715
151.246,21.3485,-0.01384,0.27452,1.03688
151.946,21.41555,-0.01383639,0.27673,1.03661
152.646,21.48268,-0.01515347,0.27683,1.03634
153.346,21.55,-0.01515005,0.27614,1.03607
154.046,21.6171,-0.01484353,0.27725,1.0358
154.746,21.68434,-0.01515336,0.27577,1.03553
155.446,21.75137,-0.0138277,0.27849,1.03526
156.146,21.81843,-0.01382999,0.27786,1.03499
156.846,21.88516,-0.01399377,0.27953,1.03472
157.546,21.9522,-0.0151499,0.27859,1.03444
158.246,22.01923,-0.01384188,0.28017,1.03417
158.946,22.08671,-0.01500821,0.28217,1.0339
159.646,22.15381,-0.01515898,0.28307,1.03362
160.346,22.22108,-0.01449733,0.28305,1.03335
161.046,22.28818,-0.01449997,0.28435,1.03307
161.746,22.35537,-0.01395905,0.28426,1.03279
162.446,22.4223,-0.01383999,0.28478,1.03252
163.146,22.48929,-0.01384003,0.28659,1.03224
163.846,22.55622,-0.01456106,0.28602,1.03196
164.546,22.62304,-0.01514909,0.28706,1.03168
165.246,22.69003,-0.01415986,0.28867,1.03141
165.946,22.75686,-0.01393805,0.28979,1.03113
166.646,22.82372,-0.01514902,0.29294,1.03085
167.346,22.8911,-0.01515001,0.29054,1.03057
168.046,22.9582,-0.01523613,0.29304,1.03029
168.746,23.02555,-0.01515194,0.29342,1.03
169.446,23.09253,-0.01515,0.29434,1.02972
170.146,23.1596,-0.01515,0.29497,1.02944
170.846,23.22645,-0.01515761,0.29484,1.02916
171.546,23.29364,-0.01417217,0.29602,1.02887
172.246,23.3606,-0.01384303,0.29686,1.02859
172.946,23.42754,-0.01429624,0.29821,1.0283
173.646,23.4944,-0.01385366,0.29678,1.02802
174.346,23.56128,-0.01383988,0.2986,1.02773
175.046,23.62833,-0.01515286,0.29839,1.02744
175.746,23.69529,-0.01618423,0.30013,1.02716
176.446,23.7623,-0.01515006,0.30091,1.02687
177.146,23.8294,-0.01515,0.30233,1.02658
177.846,23.89645,-0.01521115,0.30225,1.02629
178.546,23.9634,-0.01415986,0.30148,1.026
179.246,24.03036,-0.01347723,0.30182,1.02571
179.946,24.0973,-0.01284035,0.30157,1.02542
180.646,24.1643,-0.01425551,0.30309,1.02513
181.346,24.23115,-0.01416,0.30258,1.02484
182.046,24.29806,-0.01423636,0.30237,1.02455
182.746,24.365,-0.01286434,0.30286,1.02426
183.446,24.43194,-0.01416066,0.30215,1.02396
184.146,24.49871,-0.01316307,0.30269,1.02367
184.846,24.56549,-0.01302074,0.30272,1.02337
185.546,24.63235,-0.01251003,0.30432,1.02308
186.246,24.69837,-0.01251023,0.30471,1.02278
186.946,24.76536,-0.01348517,0.30591,1.02249
187.646,24.83219,-0.01221168,0.30383,1.02219
188.346,24.89976,-0.01219,0.30463,1.02189
189.046,24.96667,-0.01219,0.30505,1.0216
189.746,25.0335,-0.01219048,0.30674,1.0213
190.446,25.1002,-0.01252006,0.30769,1.021
191.146,25.16695,-0.01383886,0.30909,1.0207
191.846,25.23382,-0.0138391,0.30979,1.0204
192.546,25.30036,-0.0128509,0.3079,1.0201
193.246,25.36702,-0.01249873,0.30869,1.0198
193.946,25.43362,-0.01252,0.31003,1.0195
194.646,25.50044,-0.01251952,0.31106,1.01919
195.346,25.567,-0.01253386,0.31158,1.01889
196.046,25.63365,-0.01250994,0.31273,1.01859
196.746,25.70025,-0.0135085,0.31244,1.01828
197.446,25.7671,-0.01481896,0.31338,1.01798
198.146,25.83376,-0.0144955,0.31464,1.01767
198.846,25.90061,-0.01350074,0.31462,1.01737
199.546,25.96719,-0.01218107,0.31613,1.01706
200.246,26.03408,-0.01215115,0.31693,1.01676
200.946,26.10078,-0.01383273,0.31612,1.01645
201.646,26.16763,-0.01383,0.31788,1.01614
202.346,26.2342,-0.01383,0.31902,1.01583
203.046,26.3007,-0.01383,0.31744,1.01552
203.746,26.3672,-0.01383,0.31846,1.01521
204.446,26.4338,-0.01382714,0.31855,1.0149
205.146,26.5007,-0.01515131,0.31975,1.01459
205.846,26.5673,-0.0152882,0.32073,1.01428
206.546,26.63413,-0.0125197,0.32221,1.01397
207.246,26.7009,-0.01292907,0.32405,1.01366
207.946,26.76735,-0.01383993,0.32344,1.01334
208.646,26.83387,-0.01384,0.32589,1.01303
209.346,26.9002,-0.01384,0.32392,1.01272
210.046,26.9668,-0.01383935,0.32546,1.0124
210.746,27.0336,-0.01394962,0.32596,1.01209
211.446,27.10026,-0.01383,0.32745,1.01177
212.146,27.16702,-0.01383,0.329,1.01145
212.846,27.23384,-0.01383,0.33094,1.01114
213.546,27.3005,-0.01383,0.33025,1.01082
214.246,27.36737,-0.01382892,0.33247,1.0105
214.946,27.4339,-0.01284438,0.33205,1.01018
215.646,27.5006,-0.01284,0.33282,1.00986
216.346,27.56718,-0.01274832,0.33371,1.00954
217.046,27.63383,-0.01416004,0.33572,1.00922
217.746,27.70042,-0.01415995,0.33574,1.0089
218.446,27.7668,-0.01383606,0.3382,1.00858
219.146,27.83333,-0.01519234,0.33783,1.00826
219.846,27.89967,-0.01415998,0.33893,1.00793
220.546,27.96645,-0.01416,0.33958,1.00761
221.246,28.0332,-0.01416,0.34146,1.00729
221.946,28.0999,-0.01415949,0.34359,1.00696
222.646,28.16665,-0.01245461,0.34388,1.00664
223.346,28.2333,-0.01251538,0.34501,1.00631
224.046,28.30009,-0.01384503,0.34392,1.00598
224.746,28.3668,-0.01516689,0.34604,1.00566
225.446,28.43337,-0.01383698,0.34746,1.00533
226.146,28.5,-0.01516,0.34996,1.005
226.846,28.5665,-0.01516002,0.34999,1.00467
227.546,28.6331,-0.01499762,0.35351,1.00434
228.246,28.6997,-0.01417,0.3543,1.00402
228.946,28.7665,-0.01417,0.35559,1.00368
229.646,28.83326,-0.01418072,0.35732,1.00335
230.346,28.9001,-0.01514998,0.35845,1.00302
231.046,28.96677,-0.01515,0.36052,1.00269
231.746,29.0335,-0.01515,0.3631,1.00236
232.446,29.1002,-0.01515,0.36376,1.00202
233.146,29.1668,-0.01514973,0.36557,1.00169
233.846,29.23338,-0.01584899,0.36804,1.00136
234.546,29.3,-0.01515,0.36965,1.00102
235.246,29.3668,-0.0138464,0.37412,1.00069
235.946,29.4338,-0.01379052,0.37498,1.00035
236.646,29.50054,-0.01515008,0.37996,1.00001
237.346,29.5673,-0.01515,0.38375,0.99968
238.046,29.6333,-0.01515002,0.38723,0.99934
238.746,29.70007,-0.01514609,0.39064,0.999
239.446,29.76694,-0.01514655,0.39598,0.99866
240.146,29.83417,-0.01653707,0.40031,0.99832
240.846,29.90105,-0.01448979,0.40455,0.99798
241.546,29.96762,-0.01449,0.4119,0.99764
242.246,30.0344,-0.01449171,0.41609,0.9973
242.946,30.10108,-0.01650756,0.42581,0.99696
243.646,30.16787,-0.01582174,0.4338,0.99661
244.346,30.2347,-0.01581,0.44346,0.99627
245.046,30.3015,-0.01581,0.45588,0.99593
245.746,30.3682,-0.01581004,0.46869,0.99558
246.446,30.4347,-0.01617492,0.48221,0.99524
247.146,30.50106,-0.01614,0.50172,0.99489
247.846,30.56775,-0.01613897,0.52154,0.99455
248.546,30.6346,-0.01510755,0.55219,0.9942
249.246,30.7016,-0.01646034,0.60821,0.99385
249.946,30.76857,-0.01515823,0.6942,0.99351
250.646,30.83577,-0.01515013,0.78199,0.99316
251.346,30.90297,-0.01643542,0.86625,0.99281
252.046,30.9702,-0.01646,0.94546,0.99246
252.746,31.03748,-0.01620194,1.02158,0.99211
253.446,31.1047,-0.01612999,1.09445,0.99176
254.146,31.1722,-0.01612621,1.16093,0.99141
254.846,31.2397,-0.01613956,1.22761,0.99105
255.546,31.3073,-0.01767698,1.28345,0.9907
256.246,31.3746,-0.01636575,1.32738,0.99035
256.946,31.44207,-0.01536904,1.34664,0.99
257.646,31.5094,-0.01536984,1.32785,0.98964
258.346,31.57664,-0.01669472,1.25573,0.98929
259.046,31.6438,-0.01669,1.12981,0.98893
259.746,31.7105,-0.01669,0.9724,0.98857
260.446,31.77693,-0.01669,0.81763,0.98822
261.146,31.84307,-0.01669,0.69505,0.98786
261.846,31.9092,-0.01669006,0.60355,0.9875
262.546,31.9751,-0.01794306,0.54286,0.98714
263.246,32.04101,-0.01837236,0.49822,0.98679
263.946,32.1071,-0.01942895,0.46817,0.98643
264.646,32.17301,-0.01964487,0.44604,0.98607
265.346,32.2391,-0.01833915,0.43265,0.98571
266.046,32.30515,-0.01545487,0.41956,0.98534
266.746,32.37161,-0.01555067,0.41141,0.98498
267.446,32.438,-0.01791345,0.40787,0.98462
268.146,32.50464,-0.01897266,0.40292,0.98426
268.846,32.57116,-0.01765101,0.39973,0.98389
269.546,32.63756,-0.01767999,0.40083,0.98353
270.246,32.70393,-0.01768003,0.39421,0.98316
270.946,32.77022,-0.01766692,0.39534,0.9828
271.646,32.83641,-0.01636002,0.39297,0.98243
272.346,32.90298,-0.01672391,0.3935,0.98207
273.046,32.9696,-0.0166963,0.39269,0.9817
273.746,33.0362,-0.01667776,0.39415,0.98133
274.446,33.10249,-0.01812118,0.39502,0.98096
275.146,33.16903,-0.01812,0.3925,0.98059
275.846,33.23554,-0.0181199,0.39126,0.98022
276.546,33.30234,-0.01739791,0.39233,0.97985
277.246,33.36923,-0.01746,0.39216,0.97948
277.946,33.43594,-0.0174595,0.39193,0.97911
278.646,33.5025,-0.01877079,0.3916,0.97874
279.346,33.56912,-0.01778312,0.39198,0.97837
280.046,33.63583,-0.01778,0.3918,0.97799
280.746,33.70244,-0.01778,0.39204,0.97762
281.446,33.76898,-0.01778,0.39082,0.97725
282.146,33.83567,-0.01778,0.39336,0.97687
282.846,33.9024,-0.01778,0.39371,0.9765
283.546,33.96913,-0.01778193,0.39241,0.97612
284.246,34.03586,-0.01876903,0.39219,0.97574
284.946,34.1026,-0.01877,0.39247,0.97536
285.646,34.16933,-0.01877251,0.39443,0.97499
286.346,34.2361,-0.01874942,0.39227,0.97461
287.046,34.3031,-0.01877,0.3913,0.97423
287.746,34.36976,-0.01877,0.39427,0.97385
288.446,34.43665,-0.01877,0.39223,0.97347
289.146,34.50352,-0.01877019,0.39215,0.97309
289.846,34.57043,-0.01744815,0.39199,0.97271
290.546,34.63712,-0.01747543,0.39402,0.97232
291.246,34.70394,-0.01843968,0.39443,0.97194
291.946,34.77069,-0.01844,0.39362,0.97156
292.646,34.8377,-0.01844,0.39312,0.97118
293.346,34.90475,-0.01844,0.39418,0.97079
294.046,34.97175,-0.01844005,0.3938,0.97041
294.746,35.03859,-0.01978554,0.39342,0.97002
295.446,35.1053,-0.01976415,0.39468,0.96963
296.146,35.17212,-0.01764194,0.39444,0.96925
296.846,35.23928,-0.01746,0.39589,0.96886
297.546,35.30616,-0.01746,0.39439,0.96847
298.246,35.37292,-0.01746,0.39587,0.96808
298.946,35.43953,-0.01745987,0.39617,0.96769
299.646,35.50631,-0.01878566,0.3962,0.9673
300.346,35.5733,-0.01745312,0.39667,0.96691
301.046,35.64007,-0.01910393,0.39784,0.96652
301.746,35.70694,-0.01910002,0.39748,0.96613
302.446,35.7738,-0.0191,0.39918,0.96574
303.146,35.84067,-0.0191,0.3979,0.96535
303.846,35.9076,-0.0191,0.39815,0.96495
304.546,35.9745,-0.0191,0.39646,0.96456
305.246,36.0415,-0.0191,0.39667,0.96416
305.946,36.1083,-0.0191,0.39844,0.96377
306.646,36.17518,-0.0191,0.40033,0.96337
307.346,36.242,-0.0191,0.39988,0.96298
308.046,36.30912,-0.0191,0.39896,0.96258
308.746,36.37601,-0.0191,0.39794,0.96218
309.446,36.44317,-0.0191,0.39855,0.96178
310.146,36.51032,-0.0191,0.39779,0.96138
310.846,36.57724,-0.0191,0.39672,0.96099
311.546,36.6442,-0.01909999,0.39685,0.96059
312.246,36.7111,-0.01912604,0.39503,0.96018
312.946,36.7782,-0.01942998,0.39608,0.95978
313.646,36.8456,-0.01943,0.3981,0.95938
314.346,36.91278,-0.0194209,0.39662,0.95898
315.046,36.97985,-0.02140436,0.39638,0.95858
315.746,37.04694,-0.02141001,0.39653,0.95817
316.446,37.11398,-0.02141,0.39704,0.95777
317.146,37.18093,-0.02140998,0.39928,0.95736
317.846,37.24785,-0.02005948,0.39988,0.95696
318.546,37.31469,-0.0200543,0.39666,0.95655
319.246,37.3818,-0.0214102,0.39834,0.95615
319.946,37.44905,-0.02140904,0.3978,0.95574
320.646,37.51645,-0.02041462,0.39879,0.95533
321.346,37.5839,-0.02042,0.39758,0.95492
322.046,37.65103,-0.02042,0.3975,0.95451
322.746,37.71801,-0.0204139,0.39679,0.9541
323.446,37.78516,-0.02140812,0.39752,0.95369
324.146,37.85223,-0.02141,0.39777,0.95328
324.846,37.9195,-0.02140995,0.39876,0.95287
325.546,37.98659,-0.02173346,0.39912,0.95246
326.246,38.05388,-0.02174,0.39995,0.95205
326.946,38.12121,-0.02173974,0.39785,0.95163
327.646,38.18846,-0.02074163,0.39922,0.95122
328.346,38.2558,-0.02173064,0.39968,0.95081
329.046,38.32311,-0.02311066,0.40208,0.95039
329.746,38.39031,-0.02306,0.40234,0.94998
330.446,38.4574,-0.02306,0.40367,0.94956
331.146,38.5244,-0.02306,0.40326,0.94914
331.846,38.59174,-0.02306,0.40313,0.94873
332.546,38.6591,-0.02306,0.4054,0.94831
333.246,38.72647,-0.02306018,0.40525,0.94789
333.946,38.79379,-0.02273949,0.40398,0.94747
334.646,38.86111,-0.02273014,0.40597,0.94705
335.346,38.92842,-0.0230572,0.40705,0.94663
336.046,38.99579,-0.02416046,0.4073,0.94621
336.746,39.06324,-0.02437002,0.40542,0.94579
337.446,39.1308,-0.02437749,0.40594,0.94536
338.146,39.19825,-0.02306033,0.40649,0.94494
338.846,39.26556,-0.02305997,0.40743,0.94452
339.546,39.3328,-0.02322103,0.4077,0.94409
340.246,39.40005,-0.02371017,0.40788,0.94367
340.946,39.4675,-0.02436932,0.40613,0.94325
341.646,39.5349,-0.02437,0.40849,0.94282
342.346,39.60233,-0.02437,0.40879,0.94239
343.046,39.66976,-0.02437,0.40903,0.94197
343.746,39.737,-0.02437,0.41075,0.94154
344.446,39.8041,-0.02437,0.41219,0.94111
345.146,39.8715,-0.02437,0.41055,0.94068
345.846,39.939,-0.02437069,0.41278,0.94025
346.546,40.0068,-0.0250333,0.41314,0.93982
347.246,40.07432,-0.02513866,0.41141,0.93939
347.946,40.1421,-0.02568997,0.41555,0.93896
348.646,40.20975,-0.02569026,0.41457,0.93853
349.346,40.27746,-0.02700948,0.41373,0.9381
350.046,40.34502,-0.02680448,0.41464,0.93766
350.746,40.41256,-0.02634997,0.41367,0.93723
351.446,40.4799,-0.02635003,0.41433,0.9368
352.146,40.54737,-0.02668133,0.41467,0.93636
352.846,40.6149,-0.02681062,0.41678,0.93593
353.546,40.68245,-0.02733098,0.41748,0.93549
354.246,40.75,-0.02832012,0.41714,0.93505
354.946,40.81757,-0.02831979,0.4186,0.93462
355.646,40.88521,-0.02993203,0.4185,0.93418
356.346,40.95297,-0.02829096,0.42093,0.93374
357.046,41.02074,-0.02700377,0.42024,0.9333
357.746,41.0882,-0.02831869,0.42248,0.93286
358.446,41.1556,-0.0270016,0.42494,0.93242
359.146,41.22306,-0.02759896,0.4224,0.93198
359.846,41.29075,-0.02931,0.42497,0.93154
360.546,41.3584,-0.03027986,0.42382,0.9311
361.246,41.42587,-0.03030001,0.4275,0.93066
361.946,41.49325,-0.03030003,0.42901,0.93021
362.646,41.56069,-0.03064269,0.43302,0.92977
363.346,41.6282,-0.03114108,0.43306,0.92933
364.046,41.69591,-0.03195094,0.43423,0.92888
364.746,41.7633,-0.03324666,0.43443,0.92843
365.446,41.83085,-0.03325963,0.43684,0.92799
366.146,41.89853,-0.03493783,0.43944,0.92754
366.846,41.96628,-0.03490997,0.43846,0.92709
367.546,42.03405,-0.03510873,0.43984,0.92665
368.246,42.10159,-0.03622995,0.44184,0.9262
368.946,42.1693,-0.03622991,0.44443,0.92575
369.646,42.23706,-0.03758125,0.44885,0.9253
370.346,42.30464,-0.03673187,0.44906,0.92485
371.046,42.37229,-0.03760143,0.4522,0.9244
371.746,42.4399,-0.03886134,0.45457,0.92395
372.446,42.50765,-0.03984994,0.45652,0.9235
373.146,42.57522,-0.03985049,0.4566,0.92304
373.846,42.64295,-0.03914959,0.46072,0.92259
374.546,42.7107,-0.04116497,0.4629,0.92214
375.246,42.77837,-0.04251546,0.46581,0.92168
375.946,42.84624,-0.04381443,0.46828,0.92123
376.646,42.91406,-0.04639173,0.47136,0.92077
377.346,42.98214,-0.0483136,0.47507,0.92031
378.046,43.05002,-0.04963217,0.47629,0.91986
378.746,43.11777,-0.048382,0.4806,0.9194
379.446,43.18572,-0.04827203,0.48465,0.91894
380.146,43.2537,-0.05048882,0.48793,0.91848
380.846,43.32172,-0.05352471,0.49093,0.91803
381.546,43.38978,-0.05487803,0.49472,0.91757
382.246,43.45776,-0.0575114,0.49692,0.91711
382.946,43.52532,-0.05873066,0.49977,0.91664
383.646,43.59361,-0.06151412,0.50015,0.91618
384.346,43.66163,-0.06408543,0.50337,0.91572
385.046,43.73033,-0.06861746,0.50538,0.91526
385.746,43.79841,-0.07025786,0.51004,0.91479
386.446,43.86678,-0.07361837,0.51051,0.91433
387.146,43.9349,-0.07523149,0.51143,0.91387
387.846,44.00308,-0.08007241,0.51376,0.9134
388.546,44.071,-0.08422355,0.51494,0.91294
389.246,44.139,-0.08750864,0.51553,0.91247
389.946,44.20665,-0.09029612,0.51885,0.912
390.646,44.27499,-0.0943469,0.52234,0.91154
391.346,44.3431,-0.09901331,0.5245,0.91107
392.046,44.4116,-0.10354,0.52684,0.9106
392.746,44.47945,-0.10919,0.531,0.91013
393.446,44.54759,-0.11448,0.53427,0.90966
394.146,44.6156,-0.119,0.54065,0.90919
394.846,44.68354,-0.12382,0.54186,0.90872
395.546,44.7515,-0.12883,0.54792,0.90825
396.246,44.81915,-0.13582,0.54742,0.90778
396.946,44.88722,-0.14271,0.54885,0.9073
397.646,44.95532,-0.14852,0.55497,0.90683
398.346,45.02368,-0.15608,0.55651,0.90636
399.046,45.09185,-0.16331,0.55823,0.90588
399.746,45.15982,-0.17169,0.56246,0.90541
400.446,45.2273,-0.1809,0.56564,0.90493
401.146,45.29547,-0.18857,0.57246,0.90445
401.846,45.36356,-0.19817,0.57668,0.90398
402.546,45.4321,-0.20883,0.5799,0.9035
403.246,45.5001,-0.21793,0.58593,0.90302
403.946,45.56821,-0.22755,0.58704,0.90254
404.646,45.63643,-0.23906,0.59412,0.90206
405.346,45.70456,-0.24959,0.59791,0.90158
406.046,45.7727,-0.26105,0.60361,0.9011
406.746,45.84093,-0.27367,0.60931,0.90062
407.446,45.90914,-0.28577,0.61485,0.90014
408.146,45.9775,-0.29919,0.62053,0.89966
408.846,46.0456,-0.31314,0.62806,0.89918
409.546,46.11392,-0.32808,0.63468,0.89869
410.246,46.18207,-0.34384,0.63918,0.89821
410.946,46.2502,-0.36038,0.64696,0.89773
411.646,46.31848,-0.37675,0.65311,0.89724
412.346,46.3864,-0.39388,0.65977,0.89676
413.046,46.45463,-0.4121,0.6722,0.89627
413.746,46.52308,-0.42986,0.68139,0.89578
414.446,46.59178,-0.45043,0.6864,0.8953
415.146,46.66019,-0.47004,0.69769,0.89481
415.846,46.7286,-0.49287,0.71483,0.89432
416.546,46.7968,-0.51535,0.72495,0.89383
417.246,46.86528,-0.54017,0.73702,0.89334
417.946,46.93353,-0.56371,0.74896,0.89285
418.646,47.00196,-0.58947,0.76595,0.89236
419.346,47.0704,-0.61601,0.78881,0.89187
420.046,47.13882,-0.64318,0.79627,0.89138
420.746,47.20705,-0.67235,0.79896,0.89088
421.446,47.27503,-0.70394,0.81617,0.89039
422.146,47.34329,-0.73448,0.81872,0.8899
422.846,47.41154,-0.76696,0.82944,0.8894
423.546,47.48018,-0.79986,0.83533,0.88891
424.246,47.5484,-0.83401,0.85102,0.88841
424.946,47.61673,-0.87057,0.8813,0.88792
425.646,47.68488,-0.90677,0.90843,0.88742
426.346,47.75331,-0.94639,0.93525,0.88692
427.046,47.82188,-0.98853,0.95674,0.88643
427.746,47.8904,-1.0306,0.95674,0.88593
428.446,47.9589,-1.07442,0.95224,0.88543
429.146,48.02715,-1.12013,0.96346,0.88493
429.846,48.09547,-1.16528,0.97777,0.88443
430.546,48.16385,-1.2111,0.98028,0.88393
431.246,48.23232,-1.26097,0.97225,0.88343
431.946,48.30082,-1.31083,0.96643,0.88293
432.646,48.3691,-1.35628,0.96394,0.88242
433.346,48.4375,-1.40784,0.96253,0.88192
434.046,48.50569,-1.46024,0.9667,0.88142
434.746,48.57395,-1.5123,0.9742,0.88091
435.446,48.64225,-1.56271,0.97549,0.88041
436.146,48.71083,-1.61744,0.97898,0.8799
436.846,48.77937,-1.67368,0.97775,0.8794
437.546,48.848,-1.72782,0.97227,0.87889
438.246,48.91645,-1.78321,0.96896,0.87839
438.946,48.9848,-1.84113,0.96478,0.87788
439.646,49.05301,-1.89638,0.96057,0.87737
440.346,49.12146,-1.95104,0.95407,0.87686
441.046,49.19017,-2.00783,0.94587,0.87635
441.746,49.2587,-2.065,0.9362,0.87584
442.446,49.32714,-2.11714,0.92289,0.87533
443.146,49.39547,-2.17219,0.91106,0.87482
443.846,49.464,-2.22999,0.8948,0.87431
444.546,49.53253,-2.27889,0.87766,0.8738
445.246,49.60109,-2.32985,0.86148,0.87329
445.946,49.66968,-2.38102,0.84405,0.87277
446.646,49.7384,-2.4306,0.82089,0.87226
447.346,49.80673,-2.47521,0.80062,0.87175
448.046,49.875,-2.52019,0.77927,0.87123
448.746,49.9434,-2.56287,0.75551,0.87072
449.446,50.012,-2.6034,0.73059,0.8702
450.146,50.08037,-2.64126,0.70687,0.86968
450.846,50.14862,-2.67707,0.68159,0.86917
451.546,50.21694,-2.70946,0.65614,0.86865
452.246,50.28537,-2.74015,0.63005,0.86813
452.946,50.3538,-2.76861,0.60753,0.86761
453.646,50.42215,-2.79534,0.58358,0.86709
454.346,50.4906,-2.81883,0.55842,0.86657
455.046,50.5591,-2.84091,0.5357,0.86605
455.746,50.62771,-2.86213,0.5121,0.86553
456.446,50.6962,-2.88112,0.49266,0.86501
457.146,50.76481,-2.89778,0.47537,0.86449
457.846,50.83321,-2.91354,0.45482,0.86397
458.546,50.90169,-2.92905,0.44062,0.86344
459.246,50.97009,-2.94386,0.42591,0.86292
459.946,51.0386,-2.95755,0.41147,0.8624
460.646,51.1072,-2.96941,0.39858,0.86187
461.346,51.17575,-2.9822,0.38257,0.86135
462.046,51.24446,-2.99071,0.36982,0.86082
462.746,51.31312,-2.99996,0.35797,0.86029
463.446,51.3819,-3.00937,0.34587,0.85977
464.146,51.45027,-3.01831,0.33625,0.85924
464.846,51.51872,-3.02652,0.32349,0.85871
465.546,51.58725,-3.03492,0.31138,0.85818
466.246,51.6562,-3.04264,0.30398,0.85765
466.946,51.72487,-3.04823,0.29354,0.85712
467.646,51.79351,-3.0555,0.28239,0.85659
468.346,51.86195,-3.06294,0.27169,0.85606
469.046,51.93033,-3.06737,0.26234,0.85553
469.746,51.99886,-3.07137,0.25682,0.855
470.446,52.06753,-3.0776,0.2466,0.85447
471.146,52.1364,-3.08417,0.23809,0.85393
471.846,52.2051,-3.08866,0.2304,0.8534
472.546,52.27365,-3.09091,0.22178,0.85287
473.246,52.3422,-3.09653,0.21519,0.85233
473.946,52.41056,-3.10034,0.2055,0.8518
474.646,52.47928,-3.10505,0.19995,0.85126
475.346,52.548,-3.10832,0.19496,0.85073
476.046,52.61699,-3.11339,0.18693,0.85019
476.746,52.68566,-3.11565,0.18139,0.84965
477.446,52.75456,-3.11951,0.17563,0.84911
478.146,52.8233,-3.12281,0.16826,0.84858
478.846,52.89221,-3.1256,0.16436,0.84804
479.546,52.96065,-3.12862,0.15842,0.8475
480.246,53.0292,-3.13146,0.15574,0.84696
480.946,53.0979,-3.13449,0.15076,0.84642
481.646,53.16681,-3.13738,0.14653,0.84588
482.346,53.2357,-3.14047,0.14335,0.84533
483.046,53.3044,-3.14341,0.13932,0.84479
483.746,53.3728,-3.14464,0.13948,0.84425
484.446,53.4417,-3.14758,0.13458,0.84371
485.146,53.5106,-3.14885,0.13207,0.84316
485.846,53.5798,-3.15165,0.13129,0.84262
486.546,53.64845,-3.15309,0.12886,0.84207
487.246,53.7172,-3.15551,0.12584,0.84153
487.946,53.78612,-3.15831,0.12541,0.84098
488.646,53.8551,-3.15969,0.12266,0.84044
489.346,53.92422,-3.1612,0.12008,0.83989
490.046,53.99335,-3.16267,0.11853,0.83934
490.746,54.0627,-3.16397,0.1177,0.83879
491.446,54.13182,-3.16527,0.11548,0.83825
492.146,54.20109,-3.1666,0.11409,0.8377
492.846,54.27027,-3.16791,0.113,0.83715
493.546,54.3394,-3.17021,0.11352,0.8366
494.246,54.4085,-3.1715,0.11087,0.83605
494.946,54.47764,-3.17415,0.11035,0.8355
495.646,54.54684,-3.17483,0.11102,0.83494
496.346,54.6159,-3.17656,0.11369,0.83439
497.046,54.6848,-3.1778,0.11587,0.83384
497.746,54.75379,-3.17921,0.1159,0.83329
498.446,54.82284,-3.18041,0.12026,0.83273
499.146,54.892,-3.18172,0.123,0.83218
499.846,54.96083,-3.1831,0.12501,0.83162
500.546,55.0294,-3.18306,0.12757,0.83107
501.246,55.0982,-3.18335,0.12848,0.83051
501.946,55.16704,-3.18512,0.1267,0.82996
502.646,55.2364,-3.18602,0.12616,0.8294
503.346,55.30549,-3.18735,0.12496,0.82884
504.046,55.37481,-3.18706,0.12451,0.82829
504.746,55.4441,-3.18831,0.12508,0.82773
505.446,55.51327,-3.18997,0.1242,0.82717
506.146,55.5824,-3.19134,0.12164,0.82661
506.846,55.65127,-3.19261,0.1202,0.82605
507.546,55.7203,-3.19391,0.12131,0.82549
508.246,55.78957,-3.19291,0.11908,0.82493
508.946,55.85892,-3.19394,0.12005,0.82437
509.646,55.9284,-3.19524,0.11893,0.8238
510.346,55.99751,-3.19657,0.11465,0.82324
511.046,56.0667,-3.19786,0.11532,0.82268
511.746,56.13586,-3.19692,0.11548,0.82212
512.446,56.20516,-3.19788,0.11633,0.82155
513.146,56.27435,-3.19898,0.11509,0.82099
513.846,56.34364,-3.20029,0.11346,0.82042
514.546,56.4129,-3.20149,0.11589,0.81986
515.246,56.48219,-3.20359,0.11293,0.81929
515.946,56.55137,-3.20227,0.11529,0.81873
516.646,56.6205,-3.20357,0.11562,0.81816
517.346,56.6896,-3.20359,0.11428,0.81759
518.046,56.7587,-3.20382,0.11431,0.81702
518.746,56.82784,-3.20491,0.11307,0.81645
519.446,56.897,-3.20532,0.11294,0.81589
520.146,56.9661,-3.20623,0.11435,0.81532
520.846,57.0351,-3.20623,0.1138,0.81475
521.546,57.10451,-3.20763,0.11342,0.81418
522.246,57.1737,-3.20885,0.11326,0.81361
522.946,57.24299,-3.20886,0.11545,0.81303
523.646,57.31224,-3.20884,0.11302,0.81246
524.346,57.3818,-3.2101,0.11425,0.81189
525.046,57.4512,-3.21117,0.11477,0.81132
525.746,57.52074,-3.21117,0.11537,0.81074
526.446,57.5902,-3.21248,0.11558,0.81017
527.146,57.6597,-3.21278,0.11705,0.8096
527.846,57.72899,-3.2138,0.11585,0.80902
528.546,57.79835,-3.21281,0.11877,0.80844
529.246,57.86779,-3.21412,0.11768,0.80787
529.946,57.9372,-3.21413,0.11635,0.80729
530.646,58.00685,-3.21531,0.11819,0.80672
531.346,58.07635,-3.21545,0.11883,0.80614
532.046,58.1458,-3.21417,0.11728,0.80556
532.746,58.2151,-3.21544,0.11471,0.80498
533.446,58.28451,-3.21539,0.11621,0.8044
534.146,58.3542,-3.2168,0.11694,0.80383
534.846,58.42383,-3.21983,0.11601,0.80325
535.546,58.4934,-3.2166,0.11546,0.80267
536.246,58.5629,-3.21687,0.11608,0.80208
536.946,58.6319,-3.21688,0.1132,0.8015
537.646,58.7013,-3.21956,0.11419,0.80092
538.346,58.7707,-3.2195,0.11593,0.80034
539.046,58.8402,-3.21883,0.11448,0.79976
539.746,58.9096,-3.22016,0.11507,0.79917
540.446,58.97886,-3.22016,0.11609,0.79859
541.146,59.04846,-3.22084,0.11626,0.79801
541.846,59.1176,-3.2205,0.11714,0.79742
542.546,59.18719,-3.2205,0.11416,0.79684
543.246,59.25659,-3.2205,0.11669,0.79625
543.946,59.3262,-3.2206,0.11807,0.79567
544.646,59.3954,-3.2219,0.1156,0.79508
545.346,59.46484,-3.22313,0.11821,0.79449
546.046,59.53439,-3.22313,0.11507,0.79391
546.746,59.6042,-3.22313,0.115,0.79332
547.446,59.67375,-3.22305,0.11722,0.79273
548.146,59.7432,-3.22412,0.11484,0.79214
548.846,59.8127,-3.22544,0.11348,0.79155
549.546,59.8822,-3.22532,0.11463,0.79096
550.246,59.95168,-3.22476,0.11307,0.79037
550.946,60.02097,-3.2261,0.11282,0.78978
551.646,60.09033,-3.2261,0.11287,0.78919
552.346,60.1598,-3.2261,0.11344,0.7886
553.046,60.2293,-3.22741,0.11156,0.78801
553.746,60.29895,-3.22741,0.11136,0.78742
554.446,60.36835,-3.22741,0.11179,0.78682
555.146,60.4378,-3.22873,0.11205,0.78623
555.846,60.5076,-3.22879,0.11068,0.78564
556.546,60.57735,-3.22807,0.1112,0.78504
557.246,60.64696,-3.22939,0.11055,0.78445
557.946,60.7164,-3.22942,0.11088,0.78385
558.646,60.78601,-3.23071,0.10942,0.78326
559.346,60.85564,-3.23071,0.11021,0.78266
560.046,60.9252,-3.23235,0.10893,0.78207
560.746,60.99471,-3.23235,0.10843,0.78147
561.446,61.06434,-3.23332,0.10928,0.78087
562.146,61.1342,-3.23367,0.10922,0.78027
562.846,61.20378,-3.23334,0.11093,0.77968
563.546,61.2736,-3.23455,0.10828,0.77908
564.246,61.3432,-3.23466,0.10825,0.77848
564.946,61.4128,-3.23466,0.10954,0.77788
565.646,61.4824,-3.23362,0.10866,0.77728
566.346,61.5521,-3.23499,0.10579,0.77668
567.046,61.6221,-3.235,0.10869,0.77608
567.746,61.69195,-3.2363,0.10824,0.77548
568.446,61.7617,-3.23761,0.1084,0.77488
569.146,61.83126,-3.23762,0.10798,0.77427
569.846,61.901,-3.23761,0.10708,0.77367
570.546,61.9708,-3.23927,0.10486,0.77307
571.246,62.0406,-3.23927,0.10445,0.77247
571.946,62.1104,-3.23924,0.10498,0.77186
572.646,62.1802,-3.2396,0.08340473,0.77126
573.346,62.25026,-3.2396,0.09433927,0.77065
574.046,62.31983,-3.24057,0.09807769,0.77005
574.746,62.38925,-3.24091,0.09708534,0.76944
575.446,62.4588,-3.24147,0.1017,0.76884
576.146,62.5288,-3.24224,0.1074,0.76823
576.846,62.5991,-3.24355,0.10545,0.76762
577.546,62.6691,-3.24355,0.10647,0.76702
578.246,62.73885,-3.24321,0.10631,0.76641
578.946,62.80854,-3.24328,0.10815,0.7658
579.646,62.8781,-3.24241,0.10534,0.76519
580.346,62.9476,-3.24444,0.10659,0.76458
581.046,63.0174,-3.24454,0.10848,0.76397
581.746,63.08724,-3.24497,0.10842,0.76336
582.446,63.1573,-3.24586,0.10833,0.76275
583.146,63.2272,-3.24585,0.10713,0.76214
583.846,63.29691,-3.24468,0.10439,0.76153
584.546,63.3666,-3.24586,0.1041,0.76092
585.246,63.43639,-3.24586,0.10451,0.76031
585.946,63.5063,-3.24686,0.10433,0.7597
586.646,63.57631,-3.24714,0.1047,0.75908
587.346,63.6461,-3.24773,0.10493,0.75847
588.046,63.7158,-3.24948,0.1045,0.75786
588.746,63.78549,-3.24938,0.10651,0.75724
589.446,63.85519,-3.24948,0.10588,0.75663
590.146,63.9253,-3.24948,0.1066,0.75602
590.846,63.9953,-3.25074,0.10629,0.7554
591.546,64.0655,-3.25112,0.10746,0.75478
592.246,64.13539,-3.25169,0.10668,0.75417
592.946,64.20521,-3.2531,0.10862,0.75355
593.646,64.2752,-3.25442,0.10788,0.75294
594.346,64.34509,-3.2544,0.10734,0.75232
595.046,64.41507,-3.2531,0.1081,0.7517
595.746,64.4849,-3.25317,0.10838,0.75108
596.446,64.55494,-3.25309,0.10616,0.75047
597.146,64.62505,-3.25442,0.10622,0.74985
597.846,64.69467,-3.25442,0.10641,0.74923
598.546,64.7645,-3.25544,0.10577,0.74861
599.246,64.83429,-3.25573,0.10699,0.74799
599.946,64.90459,-3.25654,0.10618,0.74737
600.646,64.9747,-3.25837,0.10409,0.74675
601.346,65.04486,-3.25697,0.10544,0.74613
602.046,65.11442,-3.25837,0.10531,0.74551
602.746,65.18418,-3.25837,0.10408,0.74488
603.446,65.2543,-3.25931,0.10706,0.74426
604.146,65.32468,-3.25969,0.10709,0.74364
604.846,65.3946,-3.26071,0.10711,0.74302
605.546,65.46434,-3.261,0.11071,0.74239
606.246,65.53409,-3.261,0.10953,0.74177
606.946,65.60387,-3.26232,0.1113,0.74115
607.646,65.67395,-3.26232,0.11126,0.74052
608.346,65.7441,-3.26369,0.11193,0.7399
609.046,65.81426,-3.26364,0.11103,0.73927
609.746,65.88385,-3.26346,0.11299,0.73865
610.446,65.95363,-3.26364,0.11427,0.73802
611.146,66.02355,-3.26496,0.11567,0.73739
611.846,66.0934,-3.26636,0.12029,0.73677
612.546,66.16305,-3.26627,0.12124,0.73614
613.246,66.23245,-3.26757,0.12243,0.73551
613.946,66.3024,-3.26693,0.12479,0.73489
614.646,66.3717,-3.26766,0.12241,0.73426
615.346,66.44158,-3.26759,0.12585,0.73363
616.046,66.5114,-3.26769,0.12593,0.733
616.746,66.5816,-3.26891,0.12686,0.73237
617.446,66.6517,-3.26891,0.12816,0.73174
618.146,66.7217,-3.27023,0.12725,0.73111
618.846,66.79174,-3.27022,0.12754,0.73048
619.546,66.86159,-3.26958,0.12795,0.72985
620.246,66.93111,-3.27087,0.12745,0.72922
620.946,67.0013,-3.27158,0.12774,0.72859
621.646,67.0716,-3.27155,0.12649,0.72796
622.346,67.14208,-3.27208,0.12786,0.72733
623.046,67.212,-3.27286,0.12559,0.72669
623.746,67.28196,-3.27399,0.12873,0.72606
624.446,67.35184,-3.27416,0.13123,0.72543
625.146,67.42172,-3.27319,0.13127,0.72479
625.846,67.49173,-3.27366,0.13069,0.72416
626.546,67.5618,-3.27418,0.12921,0.72353
627.246,67.6318,-3.27404,0.12894,0.72289
627.946,67.70156,-3.2733,0.12979,0.72226
628.646,67.77169,-3.27451,0.13075,0.72162
629.346,67.842,-3.27564,0.13117,0.72099
630.046,67.9122,-3.27583,0.13234,0.72035
630.746,67.98215,-3.27592,0.13139,0.71971
631.446,68.05205,-3.27714,0.13178,0.71908
632.146,68.12213,-3.27714,0.13359,0.71844
632.846,68.19224,-3.27714,0.13331,0.7178
633.546,68.26233,-3.27712,0.13213,0.71717
634.246,68.33234,-3.27847,0.1343,0.71653
634.946,68.40221,-3.27978,0.13219,0.71589
635.646,68.47219,-3.27978,0.12925,0.71525
636.346,68.5423,-3.27978,0.13285,0.71461
637.046,68.61241,-3.28111,0.13007,0.71397
637.746,68.68259,-3.28071,0.13224,0.71334
638.446,68.75254,-3.28076,0.13002,0.7127
639.146,68.82264,-3.28006,0.12986,0.71206
639.846,68.89283,-3.28142,0.13013,0.71141
640.546,68.96289,-3.28175,0.13083,0.71077
641.246,69.03305,-3.28142,0.12959,0.71013
641.946,69.10315,-3.28234,0.13101,0.70949
642.646,69.17358,-3.28375,0.13169,0.70885
643.346,69.24382,-3.28304,0.12907,0.70821
644.046,69.31411,-3.28308,0.12726,0.70757
644.746,69.38433,-3.2834,0.12841,0.70692
645.446,69.45452,-3.2834,0.13157,0.70628
646.146,69.52476,-3.28471,0.13264,0.70564
646.846,69.59501,-3.28471,0.13119,0.70499
647.546,69.6652,-3.28603,0.13223,0.70435
648.246,69.73507,-3.28462,0.13055,0.70371
648.946,69.80508,-3.28604,0.12999,0.70306
649.646,69.8752,-3.28603,0.13183,0.70242
650.346,69.94577,-3.28603,0.12765,0.70177
651.046,70.0161,-3.28662,0.1316,0.70113
651.746,70.08636,-3.28746,0.13092,0.70048
652.446,70.1563,-3.28867,0.13163,0.69983
653.146,70.22664,-3.28867,0.13096,0.69919
653.846,70.29715,-3.28841,0.13094,0.69854
654.546,70.36766,-3.28769,0.13106,0.69789
655.246,70.43783,-3.28718,0.13162,0.69725
655.946,70.50805,-3.28698,0.12994,0.6966
656.646,70.57831,-3.28812,0.13187,0.69595
657.346,70.64849,-3.28911,0.13194,0.6953
658.046,70.71859,-3.28911,0.13462,0.69466
658.746,70.78879,-3.28917,0.13107,0.69401
659.446,70.85911,-3.28779,0.12967,0.69336
660.146,70.92947,-3.28811,0.13183,0.69271
660.846,70.99974,-3.28944,0.13257,0.69206
661.546,71.07003,-3.29076,0.13242,0.69141
662.246,71.14021,-3.28944,0.13001,0.69076
662.946,71.21035,-3.28944,0.1321,0.69011
663.646,71.28073,-3.28943,0.13226,0.68946
664.346,71.35106,-3.29076,0.13179,0.68881
665.046,71.42137,-3.29076,0.13171,0.68816
665.746,71.49127,-3.29076,0.13234,0.6875
666.446,71.5616,-3.29076,0.1325,0.68685
667.146,71.63184,-3.29069,0.13067,0.6862
667.846,71.7022,-3.29073,0.12855,0.68555
668.546,71.77246,-3.2921,0.13167,0.6849
669.246,71.84308,-3.29075,0.1311,0.68424
669.946,71.9136,-3.29075,0.13222,0.68359
670.646,71.9842,-3.29067,0.13299,0.68294
671.346,72.05453,-3.29207,0.13205,0.68228
672.046,72.12496,-3.29208,0.13292,0.68163
672.746,72.19506,-3.29109,0.13129,0.68098
673.446,72.26517,-3.29241,0.13005,0.68032
674.146,72.33543,-3.29372,0.12997,0.67967
674.846,72.40581,-3.29372,0.13339,0.67901
675.546,72.4765,-3.29372,0.13294,0.67836
676.246,72.54694,-3.29373,0.13465,0.6777
676.946,72.6173,-3.29241,0.13717,0.67705
677.646,72.6871,-3.29311,0.1314,0.67639
678.346,72.7573,-3.29373,0.13181,0.67573
679.046,72.82754,-3.29373,0.1317,0.67508
679.746,72.89819,-3.29373,0.1289,0.67442
680.446,72.9686,-3.29504,0.1301,0.67376
681.146,73.03886,-3.29503,0.13096,0.67311
681.846,73.10896,-3.29405,0.13225,0.67245
682.546,73.17918,-3.29405,0.12909,0.67179
683.246,73.24951,-3.29538,0.12983,0.67113
683.946,73.31994,-3.29504,0.12744,0.67048
684.646,73.3903,-3.29636,0.13075,0.66982
685.346,73.46065,-3.29636,0.12808,0.66916
686.046,73.5309,-3.29636,0.13002,0.6685
686.746,73.60112,-3.29637,0.13075,0.66784
687.446,73.67137,-3.29768,0.12731,0.66718
688.146,73.7417,-3.29768,0.12841,0.66652
688.846,73.81219,-3.29768,0.13127,0.66586
689.546,73.88252,-3.29768,0.13103,0.6652
690.246,73.95273,-3.29768,0.13054,0.66454
690.946,74.02288,-3.29635,0.12854,0.66388
691.646,74.0931,-3.29639,0.12861,0.66322
692.346,74.16345,-3.29762,0.12875,0.66256
693.046,74.2338,-3.2987,0.12507,0.6619
693.746,74.3044,-3.29866,0.12762,0.66124
694.446,74.3749,-3.29763,0.12747,0.66058
695.146,74.44519,-3.29866,0.12449,0.65991
695.846,74.5153,-3.29866,0.12542,0.65925
696.546,74.5856,-3.29866,0.12553,0.65859
697.246,74.6562,-3.30002,0.12091,0.65793
697.946,74.7269,-3.30001,0.11893,0.65726
698.646,74.79743,-3.29965,0.12262,0.6566
699.346,74.86779,-3.29965,0.11879,0.65594
700.046,74.93826,-3.29965,0.12108,0.65528
700.746,75.00872,-3.29965,0.12171,0.65461
701.446,75.07938,-3.29963,0.12096,0.65395
702.146,75.14996,-3.30031,0.12263,0.65328
702.846,75.2204,-3.29998,0.12276,0.65262
703.546,75.2907,-3.30139,0.12253,0.65196
704.246,75.3609,-3.30272,0.11911,0.65129
704.946,75.43121,-3.30272,0.1204,0.65063
705.646,75.5017,-3.30272,0.11803,0.64996
706.346,75.57214,-3.3014,0.118,0.6493
707.046,75.64271,-3.3014,0.11805,0.64863
707.746,75.71306,-3.3014,0.11491,0.64797
708.446,75.78369,-3.30103,0.12015,0.6473
709.146,75.85429,-3.30093,0.11734,0.64663
709.846,75.92494,-3.30042,0.11701,0.64597
710.546,75.99554,-3.30061,0.11707,0.6453
711.246,76.066,-3.30141,0.11606,0.64464
711.946,76.1365,-3.30274,0.1129,0.64397
712.646,76.20698,-3.30141,0.11674,0.6433
713.346,76.27767,-3.30158,0.11449,0.64264
714.046,76.3484,-3.30273,0.11441,0.64197
714.746,76.41917,-3.30273,0.11414,0.6413
715.446,76.4896,-3.30141,0.11609,0.64063
716.146,76.55991,-3.30273,0.11327,0.63997
716.846,76.6305,-3.30273,0.11541,0.6393
717.546,76.70081,-3.30141,0.11376,0.63863
718.246,76.77149,-3.30346,0.11103,0.63796
718.946,76.84186,-3.30404,0.11094,0.63729
719.646,76.91266,-3.30404,0.11347,0.63662
720.346,76.9832,-3.30285,0.11222,0.63596
721.046,77.05382,-3.30272,0.11179,0.63529
721.746,77.1242,-3.30401,0.11231,0.63462
722.446,77.19465,-3.30404,0.1127,0.63395
723.146,77.26518,-3.30404,0.11143,0.63328
723.846,77.33581,-3.30301,0.11335,0.63261
724.546,77.40638,-3.30339,0.11191,0.63194
725.246,77.47681,-3.30371,0.10995,0.63127
725.946,77.54709,-3.30305,0.11423,0.6306
726.646,77.61761,-3.30436,0.11305,0.62993
727.346,77.68847,-3.30558,0.11397,0.62926
728.046,77.75931,-3.30569,0.11257,0.62859
728.746,77.83025,-3.30536,0.11331,0.62792
729.446,77.90065,-3.30536,0.1144,0.62725
730.146,77.97129,-3.30536,0.11489,0.62658
730.846,78.04176,-3.30536,0.11514,0.62591
731.546,78.1126,-3.30405,0.11702,0.62523
732.246,78.1834,-3.30534,0.11744,0.62456
732.946,78.25411,-3.30601,0.11765,0.62389
733.646,78.32468,-3.30701,0.11685,0.62322
734.346,78.39531,-3.307,0.11587,0.62255
735.046,78.46602,-3.307,0.11459,0.62188
735.746,78.53681,-3.30702,0.11019,0.6212
736.446,78.6075,-3.30601,0.11467,0.62053
737.146,78.67819,-3.30601,0.11253,0.61986
737.846,78.74885,-3.30634,0.11257,0.61919
738.546,78.8194,-3.30733,0.11125,0.61851
739.246,78.8901,-3.30898,0.11482,0.61784
739.946,78.96067,-3.30764,0.11195,0.61717
740.646,79.03142,-3.30766,0.11069,0.6165
741.346,79.10203,-3.3067,0.10938,0.61582
742.046,79.1726,-3.30668,0.10621,0.61515
742.746,79.24322,-3.308,0.10246,0.61448
743.446,79.3138,-3.308,0.10437,0.6138
744.146,79.38444,-3.308,0.10372,0.61313
744.846,79.45515,-3.30898,0.10367,0.61246
745.546,79.52575,-3.30902,0.10057,0.61178
746.246,79.59652,-3.30865,0.10416,0.61111
746.946,79.66716,-3.30866,0.10517,0.61043
747.646,79.738,-3.30766,0.10298,0.60976
748.346,79.80855,-3.30788,0.10172,0.60909
749.046,79.87934,-3.3103,0.0997535,0.60841
749.746,79.95011,-3.3093,0.10107,0.60774
750.446,80.02083,-3.30832,0.09750921,0.60706
751.146,80.09172,-3.30832,0.09774875,0.60639
751.846,80.16281,-3.30965,0.10068,0.60571
752.546,80.23406,-3.30964,0.09837488,0.60504
753.246,80.30519,-3.30965,0.0982447,0.60436
753.946,80.37626,-3.31096,0.09766686,0.60369
754.646,80.44728,-3.31194,0.09624834,0.60301
755.346,80.51782,-3.31195,0.0970892,0.60234
756.046,80.58859,-3.31063,0.09501944,0.60166
756.746,80.65937,-3.31063,0.0968001,0.60099
757.446,80.7307,-3.3116,0.09393906,0.60031
758.146,80.80173,-3.31063,0.08989162,0.59964
758.846,80.8726,-3.31095,0.09247224,0.59896
759.546,80.94335,-3.31095,0.09026534,0.59828
760.246,81.0141,-3.31062,0.08733373,0.59761
760.946,81.0848,-3.31062,0.08577412,0.59693
761.646,81.15552,-3.31061,0.08911396,0.59626
762.346,81.22626,-3.31194,0.08855191,0.59558
763.046,81.2971,-3.31194,0.08905819,0.5949
763.746,81.36752,-3.31194,0.08968846,0.59423
764.446,81.43821,-3.31063,0.08957257,0.59355
765.146,81.50916,-3.31063,0.09026181,0.59287
765.846,81.5802,-3.3113,0.09468236,0.5922
766.546,81.6511,-3.31164,0.08989266,0.59152
767.246,81.7218,-3.31195,0.09255678,0.59084
767.946,81.79253,-3.31195,0.09249818,0.59017
768.646,81.86344,-3.31195,0.09094635,0.58949
769.346,81.9345,-3.31195,0.08852013,0.58881
770.046,82.0055,-3.31195,0.08426085,0.58814
770.746,82.07625,-3.31055,0.08407494,0.58746
771.446,82.147,-3.31195,0.08669272,0.58678
772.146,82.2178,-3.31195,0.08378293,0.58611
772.846,82.28864,-3.31195,0.08633526,0.58543
773.546,82.35951,-3.31195,0.08709865,0.58475
774.246,82.43046,-3.31326,0.08714945,0.58407
774.946,82.50155,-3.31326,0.0832739,0.5834
775.646,82.57242,-3.31184,0.08485623,0.58272
776.346,82.6435,-3.31422,0.08355509,0.58204
777.046,82.7145,-3.31315,0.08796138,0.58136
777.746,82.7855,-3.31315,0.08895629,0.58069
778.446,82.8565,-3.31315,0.09096529,0.58001
779.146,82.92746,-3.31315,0.08909916,0.57933
779.846,82.99856,-3.31315,0.09335686,0.57865
780.546,83.06955,-3.31315,0.08778888,0.57798
781.246,83.1405,-3.31315,0.08515679,0.5773
781.946,83.21136,-3.31315,0.08760928,0.57662
782.646,83.2822,-3.31315,0.08945422,0.57594
783.346,83.3531,-3.31315,0.09046703,0.57526
784.046,83.42408,-3.31315,0.09557955,0.57459
784.746,83.4949,-3.31315,0.08996745,0.57391
785.446,83.56544,-3.31315,0.09066937,0.57323
786.146,83.63587,-3.31315,0.09372366,0.57255
786.846,83.70657,-3.31447,0.09495485,0.57187
787.546,83.77764,-3.31452,0.09763969,0.5712
788.246,83.8486,-3.31316,0.10243,0.57052
788.946,83.91935,-3.31316,0.10112,0.56984
789.646,83.98995,-3.31414,0.1012,0.56916
790.346,84.06048,-3.31414,0.10004,0.56848
791.046,84.13112,-3.31315,0.10314,0.56781
791.746,84.20179,-3.31315,0.10216,0.56713
792.446,84.27265,-3.31315,0.10683,0.56645
793.146,84.34326,-3.31348,0.11065,0.56577
793.846,84.4138,-3.31348,0.10948,0.56509
794.546,84.4846,-3.31315,0.10961,0.56441
795.246,84.5557,-3.3138,0.10948,0.56374
795.946,84.62674,-3.31381,0.11076,0.56306
796.646,84.69765,-3.31242,0.11071,0.56238
797.346,84.76839,-3.31315,0.1082,0.5617
798.046,84.83937,-3.31315,0.106,0.56102
798.746,84.91029,-3.31579,0.10071,0.56034
799.446,84.98141,-3.31444,0.101,0.55967
799.546,84.99161,-3.31448,0.10072,0.55957