File: 01_Data/Bean_Bag_Chair_Inner_Lining/STA/N2/10K_min/Bean_Bag_Inner_Liner_STA_N2_10KData_220516_R2.csv
##Temp./Â°C,Time/min,Mass loss(subtr.2)/mg,DSC(subtr.2)/(mW/mg),Sensit./(uV/mW)
49.767,10.01,-0.0201,-0.01926336,1.07016
50.467,10.7696,-0.01977391,0.01019181,1.06997
51.167,10.97453,-0.02036867,0.03257162,1.06978
51.867,11.1273,-0.02238313,0.05224143,1.06958
52.567,11.25687,-0.02109935,0.06763628,1.06939
53.267,11.37209,-0.0222007,0.08268678,1.06919
53.967,11.47841,-0.02274463,0.09277621,1.069
54.667,11.57827,-0.02462726,0.10206,1.0688
55.367,11.6731,-0.02249734,0.11305,1.06861
56.067,11.76395,-0.02344592,0.12332,1.06841
56.767,11.8523,-0.0231739,0.1267,1.06821
57.467,11.93849,-0.02328172,0.13206,1.06802
58.167,12.02316,-0.02463517,0.13984,1.06782
58.867,12.1056,-0.02434315,0.14105,1.06762
59.567,12.18689,-0.02333419,0.14508,1.06742
60.267,12.26736,-0.02356378,0.15007,1.06722
60.967,12.3476,-0.02482225,0.15257,1.06702
61.667,12.42647,-0.0236834,0.15495,1.06682
62.367,12.5046,-0.02420441,0.15856,1.06662
63.067,12.58232,-0.02396893,0.16106,1.06642
63.767,12.65971,-0.02470783,0.16316,1.06622
64.467,12.73632,-0.02523707,0.16794,1.06601
65.167,12.81237,-0.02471095,0.16898,1.06581
65.867,12.88834,-0.02570139,0.17054,1.06561
66.567,12.96457,-0.02510028,0.17223,1.0654
67.267,13.0403,-0.02472743,0.17477,1.0652
67.967,13.11536,-0.02602048,0.17777,1.06499
68.667,13.19006,-0.02603344,0.1775,1.06479
69.367,13.26475,-0.02598314,0.18235,1.06458
70.067,13.3396,-0.02540412,0.18322,1.06438
70.767,13.41412,-0.02603038,0.18493,1.06417
71.467,13.48821,-0.02471482,0.18589,1.06396
72.167,13.56216,-0.02602032,0.1874,1.06375
72.867,13.63587,-0.0270011,0.1903,1.06354
73.567,13.709,-0.0273718,0.18863,1.06334
74.267,13.782,-0.02603078,0.18948,1.06313
74.967,13.8553,-0.02735196,0.19158,1.06292
75.667,13.9285,-0.02603026,0.19,1.06271
76.367,14.00165,-0.02733818,0.18786,1.06249
77.067,14.07499,-0.02871068,0.18865,1.06228
77.767,14.14838,-0.02865968,0.18701,1.06207
78.467,14.22146,-0.02735123,0.18485,1.06186
79.167,14.2936,-0.02735004,0.18212,1.06164
79.867,14.3657,-0.02751717,0.1794,1.06143
80.567,14.43738,-0.02871093,0.17798,1.06122
81.267,14.5092,-0.0273383,0.17577,1.061
81.967,14.58015,-0.0273445,0.17507,1.06079
82.667,14.6518,-0.02734,0.17347,1.06057
83.367,14.7232,-0.02730698,0.17378,1.06035
84.067,14.7949,-0.02734353,0.17231,1.06014
84.767,14.8657,-0.02724607,0.1698,1.05992
85.467,14.93627,-0.02835018,0.17051,1.0597
86.167,15.0072,-0.02853224,0.16912,1.05948
86.867,15.0778,-0.02866,0.16941,1.05926
87.567,15.1485,-0.02872267,0.16885,1.05904
88.267,15.21848,-0.02734008,0.16911,1.05882
88.967,15.2885,-0.02865438,0.16851,1.0586
89.667,15.3585,-0.02968978,0.1682,1.05838
90.367,15.42867,-0.02865993,0.16749,1.05816
91.067,15.49872,-0.02811514,0.16795,1.05794
91.767,15.56829,-0.02734439,0.16662,1.05772
92.467,15.63821,-0.02866018,0.16766,1.05749
93.167,15.70786,-0.02857864,0.1665,1.05727
93.867,15.7773,-0.02860827,0.16615,1.05705
94.567,15.8464,-0.02738481,0.16585,1.05682
95.267,15.9156,-0.02865996,0.16803,1.0566
95.967,15.98495,-0.02965549,0.16954,1.05637
96.667,16.05446,-0.0309701,0.17074,1.05614
97.367,16.12355,-0.03097512,0.16992,1.05592
98.067,16.19267,-0.03052769,0.17369,1.05569
98.767,16.26151,-0.03096001,0.17318,1.05546
99.467,16.3305,-0.03058629,0.17416,1.05523
100.167,16.39932,-0.03096836,0.17668,1.05501
100.867,16.46791,-0.03097083,0.17617,1.05478
101.567,16.53656,-0.03226629,0.17765,1.05455
102.267,16.6053,-0.0309709,0.17758,1.05432
102.967,16.6741,-0.0309685,0.18024,1.05409
103.667,16.7428,-0.03162072,0.18015,1.05385
104.367,16.81146,-0.0323421,0.18218,1.05362
105.067,16.8801,-0.03227957,0.18344,1.05339
105.767,16.94846,-0.02998919,0.18546,1.05316
106.467,17.01695,-0.02997646,0.18643,1.05292
107.167,17.08531,-0.03129337,0.18934,1.05269
107.867,17.1538,-0.03121725,0.19079,1.05245
108.567,17.22203,-0.03261022,0.1925,1.05222
109.267,17.28996,-0.03129884,0.19358,1.05198
109.967,17.35855,-0.03260305,0.19667,1.05175
110.667,17.42701,-0.03130009,0.19678,1.05151
111.367,17.49557,-0.03221973,0.19665,1.05127
112.067,17.5638,-0.03129662,0.19819,1.05104
112.767,17.63223,-0.03262043,0.2011,1.0508
113.467,17.70076,-0.03262096,0.20146,1.05056
114.167,17.7694,-0.0313002,0.20336,1.05032
114.867,17.83752,-0.03129998,0.20464,1.05008
115.567,17.90589,-0.03162324,0.20605,1.04984
116.267,17.9741,-0.0326099,0.20683,1.0496
116.967,18.04257,-0.03281175,0.20779,1.04936
117.667,18.1107,-0.03390702,0.2101,1.04911
118.367,18.1788,-0.03260994,0.21303,1.04887
119.067,18.24682,-0.03261679,0.21246,1.04863
119.767,18.315,-0.03136562,0.21292,1.04839
120.467,18.38307,-0.03261987,0.21515,1.04814
121.167,18.4512,-0.03262,0.2158,1.0479
121.867,18.5194,-0.03261775,0.21685,1.04765
122.567,18.58721,-0.03256569,0.21853,1.04741
123.267,18.6543,-0.03262001,0.22082,1.04716
123.967,18.72164,-0.03262815,0.22234,1.04691
124.667,18.78971,-0.03393002,0.22167,1.04667
125.367,18.85845,-0.03393,0.22322,1.04642
126.067,18.92676,-0.03393,0.22521,1.04617
126.767,18.9944,-0.03390749,0.22676,1.04592
127.467,19.06223,-0.03260989,0.22843,1.04567
128.167,19.12967,-0.0339286,0.22923,1.04542
128.867,19.19707,-0.03393,0.23109,1.04517
129.567,19.26445,-0.0339298,0.23133,1.04492
130.267,19.3324,-0.03510543,0.23198,1.04467
130.967,19.40028,-0.03393,0.23321,1.04442
131.667,19.46803,-0.03393147,0.23643,1.04416
132.367,19.5356,-0.03523859,0.23582,1.04391
133.067,19.6032,-0.03524,0.23982,1.04366
133.767,19.67073,-0.03524065,0.23965,1.0434
134.467,19.7381,-0.03458811,0.23957,1.04315
135.167,19.80542,-0.03459,0.24158,1.04289
135.867,19.87288,-0.03459929,0.24212,1.04264
136.567,19.94029,-0.03492156,0.24157,1.04238
137.267,20.00797,-0.03524973,0.24341,1.04212
137.967,20.07536,-0.03524999,0.24316,1.04187
138.667,20.14266,-0.03531276,0.24535,1.04161
139.367,20.20995,-0.03425987,0.24421,1.04135
140.067,20.27737,-0.03525061,0.246,1.04109
140.767,20.34479,-0.03524994,0.24544,1.04083
141.467,20.4121,-0.03441982,0.24709,1.04057
142.167,20.47918,-0.03525056,0.24688,1.04031
142.867,20.54644,-0.03521411,0.24816,1.04005
143.567,20.61394,-0.03592626,0.24905,1.03979
144.267,20.68147,-0.03688999,0.24905,1.03952
144.967,20.74875,-0.03689,0.25096,1.03926
145.667,20.8159,-0.03689134,0.2514,1.039
146.367,20.8831,-0.035575,0.25244,1.03873
147.067,20.95042,-0.03557,0.25226,1.03847
147.767,21.01744,-0.03558271,0.25289,1.0382
148.467,21.0846,-0.03689297,0.25308,1.03794
149.167,21.15174,-0.0359092,0.25418,1.03767
149.867,21.21924,-0.03591,0.25647,1.0374
150.567,21.28647,-0.03591,0.25482,1.03714
151.267,21.3537,-0.03590962,0.25647,1.03687
151.967,21.42101,-0.03723344,0.25815,1.0366
152.667,21.48836,-0.03722319,0.25731,1.03633
153.367,21.55568,-0.03689954,0.25669,1.03606
154.067,21.62286,-0.03592572,0.25897,1.03579
154.767,21.68982,-0.0359156,0.25937,1.03552
155.467,21.75677,-0.03694681,0.25934,1.03525
156.167,21.8234,-0.03689999,0.26076,1.03498
156.867,21.89045,-0.0369,0.26513,1.03471
157.567,21.95748,-0.03689821,0.26351,1.03443
158.267,22.0249,-0.03558176,0.26466,1.03416
158.967,22.09204,-0.03559025,0.26432,1.03389
159.667,22.15907,-0.03689003,0.26543,1.03361
160.367,22.2261,-0.03559473,0.26567,1.03334
161.067,22.29288,-0.03655884,0.26606,1.03306
161.767,22.35971,-0.03656,0.26864,1.03279
162.467,22.42653,-0.03656,0.26974,1.03251
163.167,22.49353,-0.03655999,0.27015,1.03223
163.867,22.5606,-0.0365738,0.27035,1.03195
164.567,22.62754,-0.03622948,0.2707,1.03168
165.267,22.69439,-0.03586146,0.27147,1.0314
165.967,22.76134,-0.03690321,0.27065,1.03112
166.667,22.828,-0.03687267,0.27381,1.03084
167.367,22.89491,-0.0378953,0.27404,1.03056
168.067,22.96181,-0.03656502,0.27427,1.03028
168.767,23.02889,-0.03657,0.27579,1.03
169.467,23.09587,-0.03657,0.27629,1.02971
170.167,23.16275,-0.03657523,0.27621,1.02943
170.867,23.22974,-0.03689997,0.27611,1.02915
171.567,23.29673,-0.03690096,0.27733,1.02886
172.267,23.36356,-0.03819611,0.27746,1.02858
172.967,23.43058,-0.03821,0.27814,1.02829
173.667,23.4974,-0.03709294,0.27756,1.02801
174.367,23.56459,-0.03688997,0.27922,1.02772
175.067,23.6315,-0.03689,0.2782,1.02744
175.767,23.69864,-0.03689004,0.28005,1.02715
176.467,23.7656,-0.0379878,0.27899,1.02686
177.167,23.83277,-0.0381495,0.27901,1.02657
177.867,23.8997,-0.03688675,0.2784,1.02628
178.567,23.9667,-0.03754657,0.27928,1.026
179.267,24.03367,-0.03817406,0.28075,1.02571
179.967,24.10067,-0.03689004,0.2822,1.02541
180.667,24.16766,-0.03683368,0.28155,1.02512
181.367,24.23442,-0.0382094,0.28223,1.02483
182.067,24.30125,-0.03821452,0.28116,1.02454
182.767,24.3682,-0.03887095,0.28148,1.02425
183.467,24.4353,-0.04018832,0.28219,1.02395
184.167,24.5025,-0.03961631,0.28179,1.02366
184.867,24.5695,-0.03888001,0.28193,1.02337
185.567,24.63654,-0.03888,0.28359,1.02307
186.267,24.70342,-0.03887962,0.28423,1.02278
186.967,24.77047,-0.03985265,0.28398,1.02248
187.667,24.83721,-0.039862,0.28416,1.02218
188.367,24.9039,-0.04115738,0.28585,1.02189
189.067,24.97053,-0.03986028,0.28459,1.02159
189.767,25.03722,-0.03975964,0.28672,1.02129
190.467,25.10361,-0.0408567,0.28711,1.02099
191.167,25.1694,-0.04117994,0.2871,1.02069
191.867,25.23601,-0.04056822,0.28857,1.02039
192.567,25.30278,-0.04018997,0.28817,1.02009
193.267,25.37035,-0.04018638,0.29097,1.01979
193.967,25.43734,-0.04118221,0.29049,1.01949
194.667,25.50392,-0.04085068,0.29077,1.01919
195.367,25.57065,-0.04085,0.29042,1.01888
196.067,25.63728,-0.04084999,0.29031,1.01858
196.767,25.70405,-0.04092713,0.29097,1.01827
197.467,25.77084,-0.03987501,0.29164,1.01797
198.167,25.83748,-0.04107129,0.29068,1.01767
198.867,25.9042,-0.04118002,0.29377,1.01736
199.567,25.97081,-0.04118,0.29449,1.01705
200.267,26.03761,-0.04118,0.29387,1.01675
200.967,26.10437,-0.04118,0.29455,1.01644
201.667,26.17119,-0.04118,0.29531,1.01613
202.367,26.2378,-0.04118001,0.29573,1.01582
203.067,26.3041,-0.04192368,0.29598,1.01551
203.767,26.3705,-0.04249001,0.29702,1.0152
204.467,26.43706,-0.04249,0.2988,1.01489
205.167,26.50419,-0.04249022,0.2993,1.01458
205.867,26.57109,-0.04114274,0.29882,1.01427
206.567,26.6378,-0.04116999,0.30061,1.01396
207.267,26.70422,-0.04117083,0.30026,1.01365
207.967,26.7707,-0.04248021,0.30057,1.01333
208.667,26.8372,-0.0428201,0.3001,1.01302
209.367,26.90387,-0.04282002,0.30197,1.01271
210.067,26.97033,-0.04280745,0.30223,1.01239
210.767,27.03678,-0.04183998,0.3028,1.01208
211.467,27.10325,-0.04230357,0.30181,1.01176
212.167,27.1699,-0.0425,0.30305,1.01144
212.867,27.23677,-0.04296596,0.30351,1.01113
213.567,27.3034,-0.04315984,0.30432,1.01081
214.267,27.37006,-0.04448179,0.30698,1.01049
214.967,27.4366,-0.04447081,0.30856,1.01017
215.667,27.5033,-0.04346363,0.30825,1.00985
216.367,27.56953,-0.04349,0.30919,1.00953
217.067,27.6358,-0.04349,0.30901,1.00921
217.767,27.70205,-0.0434902,0.31044,1.00889
218.467,27.76885,-0.04217617,0.3123,1.00857
219.167,27.83557,-0.04232281,0.31162,1.00825
219.867,27.90227,-0.04282945,0.31378,1.00792
220.567,27.9688,-0.04381621,0.31659,1.0076
221.267,28.0353,-0.04416429,0.31623,1.00728
221.967,28.1016,-0.04447113,0.31675,1.00695
222.667,28.168,-0.04315186,0.31839,1.00663
223.367,28.23426,-0.04414115,0.31875,1.0063
224.067,28.3008,-0.0441487,0.32148,1.00598
224.767,28.3675,-0.04513015,0.32324,1.00565
225.467,28.43435,-0.04434653,0.32445,1.00532
226.167,28.50088,-0.04380998,0.32506,1.00499
226.867,28.5673,-0.04381,0.32691,1.00466
227.567,28.6338,-0.04381001,0.32576,1.00433
228.267,28.7005,-0.04380113,0.32881,1.00401
228.967,28.7673,-0.04512801,0.33072,1.00367
229.667,28.83401,-0.04413229,0.33255,1.00334
230.367,28.90049,-0.04548577,0.33272,1.00301
231.067,28.967,-0.04546002,0.3353,1.00268
231.767,29.0336,-0.04546,0.33789,1.00235
232.467,29.10029,-0.04546,0.33899,1.00201
233.167,29.16692,-0.04546,0.34133,1.00168
233.867,29.2335,-0.04545998,0.34179,1.00135
234.567,29.2999,-0.04677452,0.34509,1.00101
235.267,29.3666,-0.04639568,0.34702,1.00068
235.967,29.43327,-0.04449812,0.35095,1.00034
236.667,29.50013,-0.04480536,0.3541,1.0
237.367,29.56697,-0.04512999,0.35725,0.99967
238.067,29.63363,-0.04505913,0.35962,0.99933
238.767,29.70022,-0.04644994,0.3653,0.99899
239.467,29.7667,-0.04512538,0.36997,0.99865
240.167,29.8331,-0.04654577,0.37465,0.99831
240.867,29.89981,-0.04645,0.37991,0.99797
241.567,29.96637,-0.04645,0.38643,0.99763
242.267,30.0331,-0.04645,0.39402,0.99729
242.967,30.09974,-0.04644985,0.40099,0.99695
243.667,30.16658,-0.04513956,0.41063,0.9966
244.367,30.23328,-0.04512598,0.41842,0.99626
245.067,30.3001,-0.04643967,0.42948,0.99592
245.767,30.3667,-0.04742922,0.44268,0.99557
246.467,30.43341,-0.04743001,0.45914,0.99523
247.167,30.50007,-0.04742787,0.47738,0.99488
247.867,30.567,-0.04610984,0.50124,0.99454
248.567,30.63335,-0.04611,0.53608,0.99419
249.267,30.70048,-0.04611,0.61162,0.99384
249.967,30.7676,-0.04611,0.71996,0.99349
250.667,30.8351,-0.04610975,0.81458,0.99315
251.367,30.90245,-0.04747663,0.90403,0.9928
252.067,30.96997,-0.04743007,0.99486,0.99245
252.767,31.03773,-0.04611874,1.07911,0.9921
253.467,31.10551,-0.04481967,1.1552,0.99175
254.167,31.173,-0.04613387,1.22549,0.9914
254.867,31.2404,-0.04742997,1.28662,0.99104
255.567,31.30775,-0.04743026,1.326,0.99069
256.267,31.37531,-0.04466509,1.33116,0.99034
256.967,31.44278,-0.04482166,1.29406,0.98998
257.667,31.5102,-0.04611998,1.21082,0.98963
258.367,31.57716,-0.04721129,1.08437,0.98928
259.067,31.6439,-0.04646327,0.92861,0.98892
259.767,31.7102,-0.04612,0.77949,0.98856
260.467,31.7763,-0.04612183,0.6587,0.98821
261.167,31.8422,-0.04743836,0.57062,0.98785
261.867,31.9078,-0.04744,0.50814,0.98749
262.567,31.97405,-0.04744,0.46531,0.98713
263.267,32.04,-0.04744,0.43539,0.98678
263.967,32.1066,-0.04744,0.41163,0.98642
264.667,32.1727,-0.04744,0.39933,0.98606
265.367,32.23881,-0.04744,0.38304,0.98569
266.067,32.3048,-0.04744034,0.3773,0.98533
266.767,32.3712,-0.04679051,0.37138,0.98497
267.467,32.43756,-0.04678001,0.36534,0.98461
268.167,32.50375,-0.04677717,0.36245,0.98425
268.867,32.57,-0.04810006,0.36109,0.98388
269.567,32.63635,-0.0480957,0.36051,0.98352
270.267,32.70301,-0.04711113,0.35666,0.98315
270.967,32.76975,-0.04710983,0.35443,0.98279
271.667,32.83663,-0.04809293,0.35383,0.98242
272.367,32.90327,-0.04809065,0.35338,0.98205
273.067,32.9698,-0.04941139,0.35268,0.98169
273.767,33.03615,-0.04802659,0.35016,0.98132
274.467,33.10257,-0.04807315,0.3515,0.98095
275.167,33.1691,-0.04940984,0.3498,0.98058
275.867,33.23585,-0.04950577,0.3499,0.98021
276.567,33.30242,-0.04809003,0.35027,0.97984
277.267,33.36916,-0.04942442,0.3486,0.97947
277.967,33.43567,-0.04940998,0.34886,0.9791
278.667,33.50244,-0.04946151,0.35103,0.97873
279.367,33.56906,-0.0484299,0.35082,0.97836
280.067,33.6357,-0.04848124,0.35039,0.97798
280.767,33.70214,-0.04842559,0.34944,0.97761
281.467,33.76869,-0.0484197,0.35178,0.97723
282.167,33.8354,-0.04974623,0.35034,0.97686
282.867,33.9022,-0.04965207,0.35108,0.97648
283.567,33.96906,-0.04710682,0.35106,0.97611
284.267,34.036,-0.0484204,0.35233,0.97573
284.967,34.10286,-0.04842,0.35099,0.97535
285.667,34.16973,-0.04842,0.35035,0.97498
286.367,34.2361,-0.04841292,0.34992,0.9746
287.067,34.30292,-0.04974578,0.35024,0.97422
287.767,34.36967,-0.04940855,0.34895,0.97384
288.467,34.4369,-0.0494097,0.35022,0.97346
289.167,34.50393,-0.05041636,0.35083,0.97308
289.867,34.57093,-0.0504,0.34731,0.9727
290.567,34.63767,-0.0504,0.35044,0.97231
291.267,34.70432,-0.0504,0.34942,0.97193
291.967,34.77091,-0.0504,0.34888,0.97155
292.667,34.83781,-0.0504,0.34983,0.97116
293.367,34.90481,-0.0504,0.34875,0.97078
294.067,34.97209,-0.0504,0.34934,0.97039
294.767,35.03914,-0.0504003,0.34988,0.97001
295.467,35.10589,-0.05073207,0.35107,0.96962
296.167,35.17246,-0.05073,0.3495,0.96924
296.867,35.23925,-0.05072993,0.34853,0.96885
297.567,35.30627,-0.05103912,0.35109,0.96846
298.267,35.37308,-0.04974096,0.34934,0.96807
298.967,35.44,-0.04974,0.34961,0.96768
299.667,35.50673,-0.04974,0.34955,0.96729
300.367,35.57376,-0.04974,0.34655,0.9669
301.067,35.64067,-0.04973972,0.349,0.96651
301.767,35.7077,-0.05086865,0.34953,0.96612
302.467,35.77485,-0.05106004,0.34815,0.96573
303.167,35.8419,-0.05106,0.34981,0.96533
303.867,35.90886,-0.05106,0.3514,0.96494
304.567,35.97568,-0.05106,0.34821,0.96455
305.267,36.04254,-0.05106,0.34821,0.96415
305.967,36.10928,-0.05106,0.34804,0.96376
306.667,36.1763,-0.05106,0.3492,0.96336
307.367,36.2431,-0.05105841,0.34998,0.96296
308.067,36.3104,-0.05138516,0.35025,0.96257
308.767,36.37762,-0.05213621,0.35079,0.96217
309.467,36.44475,-0.05072367,0.34922,0.96177
310.167,36.51165,-0.05205035,0.34964,0.96137
310.867,36.57841,-0.05205353,0.3489,0.96097
311.567,36.64549,-0.05138935,0.3501,0.96057
312.267,36.71226,-0.05016558,0.34854,0.96017
312.967,36.7794,-0.05138886,0.35002,0.95977
313.667,36.84636,-0.05271244,0.34924,0.95937
314.367,36.91359,-0.05020842,0.34704,0.95897
315.067,36.98053,-0.05010308,0.34671,0.95856
315.767,37.0477,-0.05269824,0.3472,0.95816
316.467,37.1151,-0.05271,0.34591,0.95776
317.167,37.18249,-0.05271,0.34654,0.95735
317.867,37.2496,-0.05271,0.34568,0.95695
318.567,37.3168,-0.05271,0.3461,0.95654
319.267,37.38384,-0.05271,0.34633,0.95613
319.967,37.45113,-0.05271,0.34765,0.95573
320.667,37.51829,-0.05271,0.34633,0.95532
321.367,37.58558,-0.05271,0.3474,0.95491
322.067,37.65233,-0.05271003,0.34723,0.9545
322.767,37.71946,-0.05332532,0.34736,0.95409
323.467,37.78665,-0.05401302,0.34588,0.95368
324.167,37.85419,-0.05533043,0.34626,0.95327
324.867,37.9216,-0.05532222,0.34328,0.95286
325.567,37.98879,-0.05271568,0.34461,0.95245
326.267,38.05617,-0.05274048,0.34503,0.95203
326.967,38.12342,-0.0550087,0.34561,0.95162
327.667,38.1906,-0.05501,0.34734,0.95121
328.367,38.25773,-0.05526878,0.3462,0.95079
329.067,38.32521,-0.05444304,0.34787,0.95038
329.767,38.39262,-0.05435,0.34749,0.94996
330.467,38.46007,-0.05434878,0.34817,0.94955
331.167,38.52714,-0.05529648,0.34775,0.94913
331.867,38.59469,-0.05565983,0.34765,0.94871
332.567,38.66207,-0.05453617,0.34745,0.94829
333.267,38.72936,-0.05434999,0.34702,0.94788
333.967,38.79668,-0.05500491,0.34828,0.94746
334.667,38.8641,-0.05574495,0.3492,0.94704
335.367,38.93172,-0.05468009,0.34774,0.94662
336.067,38.99902,-0.05463322,0.34905,0.9462
336.767,39.06665,-0.05599002,0.34956,0.94577
337.467,39.13408,-0.05599001,0.35153,0.94535
338.167,39.2017,-0.05594571,0.35023,0.94493
338.867,39.26907,-0.05566001,0.3506,0.94451
339.567,39.33638,-0.05566,0.35135,0.94408
340.267,39.40384,-0.05566,0.35147,0.94366
340.967,39.47108,-0.05566003,0.34942,0.94323
341.667,39.5385,-0.05653266,0.35141,0.94281
342.367,39.60597,-0.05797043,0.35106,0.94238
343.067,39.6737,-0.05797,0.34978,0.94195
343.767,39.741,-0.05797,0.34919,0.94153
344.467,39.80867,-0.05797,0.35091,0.9411
345.167,39.87588,-0.05797015,0.35033,0.94067
345.867,39.94359,-0.05909365,0.34992,0.94024
346.567,40.01096,-0.05797036,0.35032,0.93981
347.267,40.07864,-0.05929177,0.35095,0.93938
347.967,40.14618,-0.05928558,0.35262,0.93895
348.667,40.21376,-0.05830122,0.35266,0.93852
349.367,40.28139,-0.05907559,0.35179,0.93808
350.067,40.34899,-0.05961999,0.35238,0.93765
350.767,40.4166,-0.05962,0.35391,0.93722
351.467,40.48413,-0.05962,0.35443,0.93678
352.167,40.55162,-0.05962,0.35564,0.93635
352.867,40.61902,-0.05962001,0.3526,0.93591
353.567,40.6866,-0.05952378,0.35565,0.93548
354.267,40.75424,-0.06094004,0.35395,0.93504
354.967,40.82189,-0.06094066,0.35502,0.9346
355.667,40.88901,-0.06225131,0.35662,0.93417
356.367,40.9563,-0.06153792,0.35715,0.93373
357.067,41.02388,-0.06159001,0.3577,0.93329
357.767,41.09174,-0.06159,0.35838,0.93285
358.467,41.15954,-0.06159,0.35893,0.93241
359.167,41.22704,-0.06159,0.3597,0.93197
359.867,41.29475,-0.06159,0.36063,0.93153
360.567,41.36192,-0.06159005,0.36041,0.93109
361.267,41.42933,-0.06292133,0.36223,0.93064
361.967,41.49655,-0.0639275,0.36353,0.9302
362.667,41.56402,-0.06554854,0.36485,0.92976
363.367,41.63146,-0.06423123,0.36501,0.92931
364.067,41.699,-0.06423,0.36602,0.92887
364.767,41.7665,-0.06422998,0.3664,0.92842
365.467,41.83408,-0.06443121,0.37065,0.92798
366.167,41.90169,-0.0655586,0.37029,0.92753
366.867,41.9694,-0.06685929,0.37372,0.92708
367.567,42.03698,-0.06719139,0.37502,0.92663
368.267,42.10454,-0.06850819,0.37726,0.92619
368.967,42.17199,-0.06851006,0.37768,0.92574
369.667,42.23981,-0.069833,0.37896,0.92529
370.367,42.3076,-0.06982552,0.38372,0.92484
371.067,42.37539,-0.07103056,0.38247,0.92439
371.767,42.44318,-0.07115001,0.38465,0.92393
372.467,42.51113,-0.07157202,0.38645,0.92348
373.167,42.57913,-0.07372317,0.3872,0.92303
373.867,42.64707,-0.0736863,0.38952,0.92258
374.567,42.71488,-0.07510004,0.38907,0.92212
375.267,42.78273,-0.07504646,0.39368,0.92167
375.967,42.85066,-0.07641001,0.39404,0.92121
376.667,42.9184,-0.07761799,0.3968,0.92076
377.367,42.9865,-0.0777234,0.39904,0.9203
378.067,43.0543,-0.08005697,0.40061,0.91984
378.767,43.12249,-0.08169908,0.40318,0.91939
379.467,43.1902,-0.08300091,0.40756,0.91893
380.167,43.25832,-0.08431983,0.40846,0.91847
380.867,43.3262,-0.08554938,0.40916,0.91801
381.567,43.39423,-0.08817763,0.41288,0.91755
382.267,43.46206,-0.08970449,0.41654,0.91709
382.967,43.53014,-0.09102789,0.41805,0.91663
383.667,43.59813,-0.09376326,0.42099,0.91617
384.367,43.66643,-0.09596133,0.42136,0.91571
385.067,43.73425,-0.09881757,0.42461,0.91524
385.767,43.8022,-0.10083,0.42727,0.91478
386.467,43.87019,-0.10365,0.42796,0.91432
387.167,43.93853,-0.10712,0.43074,0.91385
387.867,44.00662,-0.11087,0.43814,0.91339
388.567,44.07452,-0.11443,0.43851,0.91292
389.267,44.1423,-0.11741,0.44034,0.91246
389.967,44.21035,-0.12092,0.4441,0.91199
390.667,44.27837,-0.12506,0.44521,0.91152
391.367,44.3465,-0.12896,0.44634,0.91105
392.067,44.41433,-0.13378,0.44963,0.91058
392.767,44.48229,-0.13829,0.45494,0.91012
393.467,44.55035,-0.14243,0.4606,0.90965
394.167,44.61838,-0.14662,0.4578,0.90918
394.867,44.68612,-0.15275,0.44904,0.9087
395.567,44.75395,-0.15848,0.43129,0.90823
396.267,44.82201,-0.16564,0.42544,0.90776
396.967,44.8902,-0.17129,0.42024,0.90729
397.667,44.95824,-0.17724,0.41891,0.90682
398.367,45.02616,-0.18385,0.41248,0.90634
399.067,45.09388,-0.18947,0.40392,0.90587
399.767,45.1616,-0.19766,0.39713,0.90539
400.467,45.22926,-0.20407,0.38996,0.90492
401.167,45.29721,-0.21052,0.37894,0.90444
401.867,45.3651,-0.21746,0.36876,0.90396
402.567,45.43313,-0.22452,0.35622,0.90349
403.267,45.50107,-0.23328,0.34887,0.90301
403.967,45.5692,-0.24176,0.33597,0.90253
404.667,45.63714,-0.25076,0.32445,0.90205
405.367,45.70495,-0.25882,0.31454,0.90157
406.067,45.77258,-0.26623,0.30229,0.90109
406.767,45.84044,-0.2756,0.29453,0.90061
407.467,45.9086,-0.28514,0.28294,0.90013
408.167,45.97679,-0.29225,0.27846,0.89965
408.867,46.04482,-0.3012,0.27584,0.89916
409.567,46.11274,-0.31016,0.27888,0.89868
410.267,46.18075,-0.32298,0.28321,0.8982
410.967,46.24888,-0.33364,0.29112,0.89771
411.667,46.31708,-0.34477,0.30008,0.89723
412.367,46.38527,-0.35647,0.30561,0.89674
413.067,46.4535,-0.3698,0.31552,0.89625
413.767,46.5219,-0.38335,0.32405,0.89577
414.467,46.59041,-0.39664,0.33412,0.89528
415.167,46.65879,-0.41143,0.34046,0.89479
415.867,46.72726,-0.42713,0.35094,0.8943
416.567,46.79537,-0.44517,0.36324,0.89382
417.267,46.86375,-0.46311,0.37504,0.89333
417.967,46.9319,-0.48018,0.3851,0.89284
418.667,47.00035,-0.49951,0.40186,0.89234
419.367,47.0687,-0.52191,0.41559,0.89185
420.067,47.13714,-0.54327,0.42401,0.89136
420.767,47.20572,-0.56466,0.43534,0.89087
421.467,47.27425,-0.58844,0.4395,0.89038
422.167,47.34257,-0.6118,0.44958,0.88988
422.867,47.41084,-0.63681,0.46779,0.88939
423.567,47.47886,-0.66447,0.47979,0.88889
424.267,47.5469,-0.69216,0.48803,0.8884
424.967,47.6151,-0.72136,0.49588,0.8879
425.667,47.68387,-0.75122,0.51116,0.88741
426.367,47.75275,-0.78406,0.52501,0.88691
427.067,47.82142,-0.81623,0.54127,0.88641
427.767,47.88971,-0.85056,0.55338,0.88591
428.467,47.95813,-0.88605,0.56608,0.88541
429.167,48.0265,-0.9227,0.57109,0.88491
429.867,48.0946,-0.95996,0.58333,0.88441
430.567,48.16282,-0.9996,0.59526,0.88391
431.267,48.23122,-1.04079,0.60958,0.88341
431.967,48.29992,-1.08065,0.6197,0.88291
432.667,48.36833,-1.1223,0.63001,0.88241
433.367,48.4369,-1.16517,0.64193,0.88191
434.067,48.5054,-1.20931,0.64758,0.8814
434.767,48.5741,-1.24796,0.65154,0.8809
435.467,48.6426,-1.28803,0.65666,0.88039
436.167,48.71089,-1.32446,0.6592,0.87989
436.867,48.7789,-1.35394,0.66178,0.87938
437.567,48.84655,-1.36719,0.66202,0.87888
438.267,48.9142,-1.38296,0.66275,0.87837
438.967,48.98218,-1.41472,0.6652,0.87786
439.667,49.05004,-1.45677,0.66932,0.87735
440.367,49.118,-1.5061,0.66904,0.87685
441.067,49.1858,-1.56,0.67212,0.87634
441.767,49.25374,-1.615,0.67318,0.87583
442.467,49.32101,-1.66565,0.67341,0.87532
443.167,49.3883,-1.72178,0.67136,0.87481
443.867,49.45597,-1.79826,0.66848,0.8743
444.567,49.5244,-1.848,0.6634,0.87378
445.267,49.59271,-1.90332,0.65489,0.87327
445.967,49.6605,-1.96115,0.64622,0.87276
446.667,49.72831,-2.01609,0.63704,0.87224
447.367,49.7962,-2.07184,0.62716,0.87173
448.067,49.8638,-2.1287,0.61258,0.87122
448.767,49.93145,-2.18108,0.59732,0.8707
449.467,49.99928,-2.23325,0.57986,0.87018
450.167,50.06718,-2.28529,0.5641,0.86967
450.867,50.1349,-2.3335,0.54334,0.86915
451.567,50.20216,-2.37864,0.52271,0.86863
452.267,50.26996,-2.4284,0.50179,0.86812
452.967,50.33791,-2.47761,0.47666,0.8676
453.667,50.4061,-2.5213,0.45589,0.86708
454.367,50.47376,-2.56517,0.42861,0.86656
455.067,50.54124,-2.60517,0.40239,0.86604
455.767,50.60875,-2.63737,0.37784,0.86552
456.467,50.67615,-2.67126,0.35163,0.865
457.167,50.74371,-2.70225,0.32388,0.86447
457.867,50.81136,-2.72975,0.3016,0.86395
458.567,50.87919,-2.76758,0.27946,0.86343
459.267,50.94706,-2.80488,0.25877,0.8629
459.967,51.01488,-2.82466,0.24105,0.86238
460.667,51.0826,-2.86954,0.22236,0.86186
461.367,51.1505,-2.86008,0.20437,0.86133
462.067,51.21841,-2.8647,0.18616,0.8608
462.767,51.28648,-2.86862,0.17352,0.86028
463.467,51.35439,-2.88334,0.15957,0.85975
464.167,51.4223,-2.90065,0.14641,0.85922
464.867,51.49026,-2.91347,0.1332,0.8587
465.567,51.55842,-2.92637,0.12186,0.85817
466.267,51.6267,-2.93702,0.11048,0.85764
466.967,51.69485,-2.9462,0.09889928,0.85711
467.667,51.763,-2.95635,0.09108444,0.85658
468.367,51.83121,-2.96878,0.08016256,0.85605
469.067,51.8994,-2.97706,0.07357829,0.85552
469.767,51.9677,-2.98708,0.0651166,0.85498
470.467,52.03589,-2.99406,0.05595711,0.85445
471.167,52.104,-2.99968,0.04693336,0.85392
471.867,52.17207,-3.00548,0.0382015,0.85339
472.567,52.24053,-3.01597,0.03294561,0.85285
473.267,52.30908,-3.01934,0.02569533,0.85232
473.967,52.37769,-3.02744,0.01863571,0.85178
474.667,52.4461,-3.03562,0.01042592,0.85125
475.367,52.5147,-3.04218,0.003633806,0.85071
476.067,52.58334,-3.05064,-0.001432315,0.85017
476.767,52.6517,-3.07714,-0.007288805,0.84964
477.467,52.7202,-3.08913,-0.01250236,0.8491
478.167,52.78885,-3.09707,-0.01824529,0.84856
478.867,52.8578,-3.10517,-0.01463949,0.84802
479.567,52.92658,-3.10767,-0.02170042,0.84748
480.267,52.9954,-3.10878,-0.0241614,0.84694
480.967,53.06423,-3.10215,-0.03116745,0.8464
481.667,53.13306,-3.12227,-0.03609826,0.84586
482.367,53.20191,-3.12098,-0.03851486,0.84532
483.067,53.27078,-3.11673,-0.04474676,0.84478
483.767,53.33955,-3.11114,-0.0499754,0.84423
484.467,53.4083,-3.10057,-0.05380487,0.84369
485.167,53.47707,-3.0876,-0.05885445,0.84315
485.867,53.54602,-3.08786,-0.05924361,0.8426
486.567,53.61481,-3.08948,-0.06285643,0.84206
487.267,53.68365,-3.09549,-0.06570019,0.84151
487.967,53.7524,-3.0966,-0.06868207,0.84097
488.667,53.8213,-3.10443,-0.07191862,0.84042
489.367,53.88991,-3.10753,-0.07202828,0.83987
490.067,53.9586,-3.11595,-0.07679255,0.83933
490.767,54.0273,-3.11825,-0.07818248,0.83878
491.467,54.09649,-3.12122,-0.08250771,0.83823
492.167,54.16571,-3.12038,-0.08417829,0.83768
492.867,54.2348,-3.12039,-0.08450052,0.83713
493.567,54.30364,-3.12341,-0.08789774,0.83658
494.267,54.3724,-3.12482,-0.08871389,0.83603
494.967,54.4415,-3.12902,-0.0880133,0.83548
495.667,54.5108,-3.196,-0.08535569,0.83493
496.367,54.58019,-3.21554,-0.08496179,0.83438
497.067,54.6492,-3.2031,-0.08719391,0.83382
497.767,54.7181,-3.18752,-0.08967163,0.83327
498.467,54.7877,-3.18073,-0.09106084,0.83272
499.167,54.8575,-3.17332,-0.09041727,0.83216
499.867,54.9274,-3.16558,-0.09268406,0.83161
500.567,54.99655,-3.15754,-0.0934144,0.83105
501.267,55.0658,-3.15275,-0.09696858,0.8305
501.967,55.1349,-3.15072,-0.09775368,0.82994
502.667,55.2041,-3.14707,-0.09925931,0.82938
503.367,55.27335,-3.14901,-0.09954747,0.82883
504.067,55.34271,-3.15579,-0.09974435,0.82827
504.767,55.41205,-3.16057,-0.10002,0.82771
505.467,55.48112,-3.16694,-0.1012,0.82715
506.167,55.5503,-3.171,-0.09816527,0.82659
506.867,55.61955,-3.18003,-0.09884494,0.82603
507.567,55.68894,-3.1942,-0.09729591,0.82547
508.267,55.7584,-3.20499,-0.09414848,0.82491
508.967,55.8274,-3.20298,-0.09181843,0.82435
509.667,55.89689,-3.20786,-0.08681862,0.82379
510.367,55.9662,-3.20473,-0.08692546,0.82323
511.067,56.03586,-3.19944,-0.08794007,0.82266
511.767,56.1051,-3.19458,-0.08554463,0.8221
512.467,56.1743,-3.19317,-0.08316482,0.82154
513.167,56.2436,-3.19253,-0.08266308,0.82097
513.867,56.31296,-3.191,-0.07962565,0.82041
514.567,56.38216,-3.18779,-0.0782293,0.81984
515.267,56.4515,-3.21531,-0.07302557,0.81927
515.967,56.52103,-3.2237,-0.06809262,0.81871
516.667,56.5906,-3.22178,-0.06683111,0.81814
517.367,56.66007,-3.21645,-0.06456968,0.81757
518.067,56.72961,-3.21771,-0.06526699,0.81701
518.767,56.79929,-3.20432,-0.07008002,0.81644
519.467,56.869,-3.20018,-0.0710571,0.81587
520.167,56.9387,-3.20502,-0.06939972,0.8153
520.867,57.00821,-3.20747,-0.07158654,0.81473
521.567,57.07787,-3.20131,-0.07267713,0.81416
522.267,57.14731,-3.19977,-0.07261804,0.81359
522.967,57.21706,-3.19975,-0.07681064,0.81302
523.667,57.28671,-3.19721,-0.07829915,0.81244
524.367,57.35646,-3.19782,-0.07846372,0.81187
525.067,57.4261,-3.19741,-0.07972147,0.8113
525.767,57.49566,-3.19711,-0.0826054,0.81073
526.467,57.5652,-3.19844,-0.08233939,0.81015
527.167,57.6348,-3.19707,-0.08528653,0.80958
527.867,57.70434,-3.19712,-0.08573409,0.809
528.567,57.774,-3.19692,-0.08492703,0.80843
529.267,57.84364,-3.19437,-0.08647532,0.80785
529.967,57.9134,-3.19566,-0.08584264,0.80728
530.667,57.98281,-3.19811,-0.08693901,0.8067
531.367,58.0524,-3.19793,-0.08930305,0.80612
532.067,58.1216,-3.19155,-0.09075402,0.80554
532.767,58.191,-3.19049,-0.09147516,0.80497
533.467,58.2605,-3.1914,-0.0916795,0.80439
534.167,58.3303,-3.19528,-0.09398187,0.80381
534.867,58.39985,-3.19908,-0.09282794,0.80323
535.567,58.4693,-3.19753,-0.09167123,0.80265
536.267,58.53861,-3.19491,-0.09123808,0.80207
536.967,58.60813,-3.19251,-0.09233381,0.80149
537.667,58.6775,-3.18855,-0.09407809,0.8009
538.367,58.7469,-3.18559,-0.09623259,0.80032
539.067,58.81646,-3.17945,-0.09722316,0.79974
539.767,58.88596,-3.1868,-0.09398124,0.79916
540.467,58.95534,-3.22511,-0.09132406,0.79857
541.167,59.02463,-3.22059,-0.08932537,0.79799
541.867,59.09429,-3.21634,-0.08903868,0.79741
542.567,59.16401,-3.21462,-0.09073106,0.79682
543.267,59.2337,-3.21102,-0.08888799,0.79624
543.967,59.3034,-3.20915,-0.09067469,0.79565
544.667,59.37314,-3.20766,-0.09322645,0.79506
545.367,59.4428,-3.20791,-0.08871737,0.79448
546.067,59.51262,-3.21709,-0.08522357,0.79389
546.767,59.5825,-3.25619,-0.08010461,0.7933
547.467,59.65279,-3.25749,-0.07464009,0.79271
548.167,59.72297,-3.25805,-0.07283669,0.79212
548.867,59.79303,-3.25926,-0.06923275,0.79154
549.567,59.8631,-3.26921,-0.06448244,0.79095
550.267,59.93319,-3.27814,-0.06107473,0.79036
550.967,60.0035,-3.27413,-0.06075647,0.78977
551.667,60.0738,-3.26732,-0.06130747,0.78917
552.367,60.14428,-3.26087,-0.06235792,0.78858
553.067,60.21445,-3.25538,-0.06251272,0.78799
553.767,60.2846,-3.24439,-0.06594688,0.7874
554.467,60.35476,-3.25613,-0.0625782,0.78681
555.167,60.42494,-3.27698,-0.06050194,0.78621
555.867,60.4952,-3.26703,-0.05987292,0.78562
556.567,60.56545,-3.26172,-0.06174981,0.78503
557.267,60.6359,-3.27426,-0.05678127,0.78443
557.967,60.706,-3.2694,-0.05577747,0.78384
558.667,60.77579,-3.26164,-0.05819082,0.78324
559.367,60.84584,-3.25808,-0.0611184,0.78264
560.067,60.9163,-3.25596,-0.0632123,0.78205
560.767,60.9868,-3.25474,-0.0626174,0.78145
561.467,61.057,-3.24899,-0.0632378,0.78085
562.167,61.1273,-3.24584,-0.0660934,0.78026
562.867,61.19764,-3.24093,-0.0683684,0.77966
563.567,61.26797,-3.26785,-0.05677849,0.77906
564.267,61.3385,-3.29184,-0.05089058,0.77846
564.967,61.40905,-3.28409,-0.0512675,0.77786
565.667,61.4796,-3.27905,-0.05079381,0.77726
566.367,61.5497,-3.27092,-0.05605912,0.77666
567.067,61.6199,-3.26585,-0.05859803,0.77606
567.767,61.68988,-3.263,-0.05738143,0.77546
568.467,61.7601,-3.25838,-0.05868929,0.77486
569.167,61.82982,-3.25466,-0.06169544,0.77426
569.867,61.8998,-3.25015,-0.06251172,0.77365
570.567,61.96946,-3.24717,-0.06531235,0.77305
571.267,62.03974,-3.24587,-0.06885044,0.77245
571.967,62.1098,-3.24138,-0.06865158,0.77184
572.667,62.18019,-3.23839,-0.06944272,0.77124
573.367,62.25011,-3.23576,-0.0734958,0.77063
574.067,62.31961,-3.23268,-0.071315,0.77003
574.767,62.3894,-3.23136,-0.07634467,0.76942
575.467,62.4591,-3.23046,-0.07690134,0.76882
576.167,62.52925,-3.22873,-0.07825489,0.76821
576.867,62.59899,-3.22873,-0.07852634,0.7676
577.567,62.669,-3.22873,-0.07937103,0.767
578.267,62.739,-3.23662,-0.07184741,0.76639
578.967,62.80902,-3.26018,-0.06712664,0.76578
579.667,62.87901,-3.26014,-0.06524402,0.76517
580.367,62.94908,-3.25827,-0.06562676,0.76456
581.067,63.0191,-3.25959,-0.06626102,0.76396
581.767,63.089,-3.25827,-0.0668669,0.76335
582.467,63.159,-3.25696,-0.0694122,0.76274
583.167,63.22909,-3.2563,-0.07017681,0.76212
583.867,63.2991,-3.25498,-0.05059241,0.76151
584.567,63.36903,-3.25498,-0.05943732,0.7609
585.267,63.43886,-3.2531,-0.06661816,0.76029
585.967,63.50877,-3.253,-0.06925649,0.75968
586.667,63.5785,-3.25179,-0.07321837,0.75907
587.367,63.64844,-3.25102,-0.07232565,0.75845
588.067,63.71832,-3.25102,-0.07728572,0.75784
588.767,63.78845,-3.25098,-0.07885815,0.75723
589.467,63.8583,-3.25232,-0.07863426,0.75661
590.167,63.92827,-3.25201,-0.07838022,0.756
590.867,63.99813,-3.25069,-0.0820379,0.75538
591.567,64.0681,-3.24938,-0.08276573,0.75477
592.267,64.13808,-3.24807,-0.08498544,0.75415
592.967,64.2081,-3.24675,-0.08630146,0.75353
593.667,64.2783,-3.2512,-0.08348112,0.75292
594.367,64.34838,-3.2537,-0.08477844,0.7523
595.067,64.41846,-3.25513,-0.08530753,0.75168
595.767,64.4884,-3.25355,-0.08604399,0.75107
596.467,64.5586,-3.25222,-0.08677542,0.75045
597.167,64.62865,-3.24987,-0.08811471,0.74983
597.867,64.69878,-3.24726,-0.08724944,0.74921
598.567,64.76884,-3.24584,-0.08828489,0.74859
599.267,64.83898,-3.24454,-0.08804614,0.74797
599.967,64.9091,-3.24455,-0.0919629,0.74735
600.667,64.97905,-3.24329,-0.09318978,0.74673
601.367,65.0491,-3.24191,-0.09428874,0.74611
602.067,65.1191,-3.24059,-0.09401565,0.74549
602.767,65.18927,-3.24059,-0.0932763,0.74487
603.467,65.25931,-3.24125,-0.09223433,0.74424
604.167,65.32925,-3.23993,-0.08909553,0.74362
604.867,65.39879,-3.23996,-0.09150988,0.743
605.567,65.4687,-3.23861,-0.09259298,0.74238
606.267,65.53872,-3.23861,-0.09142529,0.74175
606.967,65.60921,-3.2373,-0.09343333,0.74113
607.667,65.67939,-3.23636,-0.09541946,0.7405
608.367,65.7493,-3.23599,-0.09585124,0.73988
609.067,65.81905,-3.23599,-0.09203493,0.73925
609.767,65.8889,-3.2373,-0.09369073,0.73863
610.467,65.95908,-3.2373,-0.09699463,0.738
611.167,66.02901,-3.23763,-0.09706787,0.73738
611.867,66.09904,-3.23632,-0.09703347,0.73675
612.567,66.16881,-3.23632,-0.0985506,0.73612
613.267,66.23872,-3.23726,-0.09979723,0.73549
613.967,66.3085,-3.23734,-0.09735693,0.73487
614.667,66.3784,-3.23796,-0.09765597,0.73424
615.367,66.44827,-3.23665,-0.09881443,0.73361
616.067,66.5181,-3.23796,-0.09651943,0.73298
616.767,66.5879,-3.23796,-0.09887949,0.73235
617.467,66.65781,-3.23927,-0.09858472,0.73172
618.167,66.7277,-3.23928,-0.09895032,0.73109
618.867,66.7976,-3.23928,-0.09840123,0.73046
619.567,66.8676,-3.23862,-0.09725217,0.72983
620.267,66.93767,-3.23984,-0.10021,0.7292
620.967,67.00776,-3.23994,-0.09785451,0.72857
621.667,67.07762,-3.23993,-0.09855245,0.72794
622.367,67.14747,-3.24127,-0.09818131,0.72731
623.067,67.2174,-3.24257,-0.09842606,0.72667
623.767,67.28753,-3.24144,-0.09865816,0.72604
624.467,67.35762,-3.24125,-0.09862649,0.72541
625.167,67.42781,-3.24125,-0.09645185,0.72478
625.867,67.49803,-3.24257,-0.09694772,0.72414
626.567,67.56829,-3.24252,-0.09861601,0.72351
627.267,67.63847,-3.24318,-0.09778256,0.72287
627.967,67.7086,-3.24389,-0.09907736,0.72224
628.667,67.77892,-3.24389,-0.09860403,0.7216
629.367,67.84916,-3.2452,-0.0980369,0.72097
630.067,67.91939,-3.2452,-0.10022,0.72033
630.767,67.98939,-3.24416,-0.10339,0.7197
631.467,68.05959,-3.24553,-0.10293,0.71906
632.167,68.12969,-3.24553,-0.09977465,0.71842
632.867,68.19996,-3.24685,-0.10119,0.71779
633.567,68.2701,-3.24685,-0.09994226,0.71715
634.267,68.3404,-3.24685,-0.10164,0.71651
634.967,68.4105,-3.24755,-0.10097,0.71587
635.667,68.48069,-3.24817,-0.10191,0.71523
636.367,68.55078,-3.24816,-0.10261,0.71459
637.067,68.62097,-3.24882,-0.09954656,0.71396
637.767,68.69078,-3.24815,-0.10157,0.71332
638.467,68.76102,-3.24816,-0.10179,0.71268
639.167,68.83102,-3.24821,-0.10501,0.71204
639.867,68.90148,-3.24882,-0.105,0.7114
640.567,68.97152,-3.25013,-0.10756,0.71075
641.267,69.04183,-3.24949,-0.10652,0.71011
641.967,69.11196,-3.24881,-0.10773,0.70947
642.667,69.1822,-3.24884,-0.10733,0.70883
643.367,69.2522,-3.25015,-0.1084,0.70819
644.067,69.32211,-3.25015,-0.10771,0.70755
644.767,69.3917,-3.25147,-0.11194,0.7069
645.467,69.46144,-3.25147,-0.11092,0.70626
646.167,69.53121,-3.25147,-0.11103,0.70562
646.867,69.6018,-3.25147,-0.11266,0.70497
647.567,69.67243,-3.25153,-0.11148,0.70433
648.267,69.74295,-3.25172,-0.1153,0.70369
648.967,69.8129,-3.25245,-0.11423,0.70304
649.667,69.88241,-3.25234,-0.11506,0.7024
650.367,69.95224,-3.25245,-0.11494,0.70175
651.067,70.02203,-3.25245,-0.11638,0.70111
651.767,70.0921,-3.25246,-0.1132,0.70046
652.467,70.16225,-3.25377,-0.11366,0.69981
653.167,70.23226,-3.25511,-0.11414,0.69917
653.867,70.30255,-3.25437,-0.11472,0.69852
654.567,70.37281,-3.2541,-0.11608,0.69787
655.267,70.44317,-3.2541,-0.11803,0.69723
655.967,70.5134,-3.25541,-0.12067,0.69658
656.667,70.5841,-3.25543,-0.12209,0.69593
657.367,70.65473,-3.25673,-0.12402,0.69528
658.067,70.72545,-3.25673,-0.12845,0.69464
658.767,70.79516,-3.25636,-0.12676,0.69399
659.467,70.86542,-3.25772,-0.12772,0.69334
660.167,70.9358,-3.25772,-0.12557,0.69269
660.867,71.00635,-3.25772,-0.10913,0.69204
661.567,71.07681,-3.25772,-0.11542,0.69139
662.267,71.14713,-3.25772,-0.11897,0.69074
662.967,71.21751,-3.25903,-0.11739,0.69009
663.667,71.2877,-3.25805,-0.12116,0.68944
664.367,71.35777,-3.25805,-0.12047,0.68879
665.067,71.42797,-3.25807,-0.12361,0.68814
665.767,71.49802,-3.25936,-0.12706,0.68749
666.467,71.56824,-3.26067,-0.12504,0.68683
667.167,71.63869,-3.26068,-0.12818,0.68618
667.867,71.70922,-3.26068,-0.12764,0.68553
668.567,71.7797,-3.26068,-0.12911,0.68488
669.267,71.84942,-3.26167,-0.13074,0.68422
669.967,71.91946,-3.26167,-0.13154,0.68357
670.667,71.98952,-3.26167,-0.12925,0.68292
671.367,72.0602,-3.26235,-0.13016,0.68226
672.067,72.13037,-3.26167,-0.13198,0.68161
672.767,72.20058,-3.26167,-0.13149,0.68096
673.467,72.27065,-3.26265,-0.13255,0.6803
674.167,72.34095,-3.26266,-0.13462,0.67965
674.867,72.4109,-3.26299,-0.13778,0.67899
675.567,72.48103,-3.26406,-0.13761,0.67834
676.267,72.55123,-3.27648,-0.13132,0.67768
676.967,72.62186,-3.28603,-0.13365,0.67703
677.667,72.69232,-3.28595,-0.13439,0.67637
678.367,72.76278,-3.28412,-0.1344,0.67571
679.067,72.83305,-3.28277,-0.13883,0.67506
679.767,72.9032,-3.28051,-0.13851,0.6744
680.467,72.97369,-3.27978,-0.1429,0.67374
681.167,73.0441,-3.27847,-0.14524,0.67309
681.867,73.11465,-3.27848,-0.14843,0.67243
682.567,73.1848,-3.27715,-0.14794,0.67177
683.267,73.25519,-3.27716,-0.15035,0.67111
683.967,73.3255,-3.27566,-0.1499,0.67046
684.667,73.39602,-3.27438,-0.15628,0.6698
685.367,73.46646,-3.27419,-0.1572,0.66914
686.067,73.5367,-3.27426,-0.15889,0.66848
686.767,73.60732,-3.27353,-0.15965,0.66782
687.467,73.6777,-3.27217,-0.16163,0.66716
688.167,73.74845,-3.27221,-0.16284,0.6665
688.867,73.81873,-3.27155,-0.16653,0.66584
689.567,73.88908,-3.27155,-0.16666,0.66518
690.267,73.95923,-3.27023,-0.17069,0.66452
690.967,74.0291,-3.27023,-0.17182,0.66386
691.667,74.09935,-3.27023,-0.17489,0.6632
692.367,74.16963,-3.27156,-0.17446,0.66254
693.067,74.2401,-3.26891,-0.17814,0.66188
693.767,74.3099,-3.27023,-0.18328,0.66122
694.467,74.3802,-3.27023,-0.18318,0.66056
695.167,74.45064,-3.27023,-0.18812,0.65989
695.867,74.52133,-3.26891,-0.18868,0.65923
696.567,74.59143,-3.26937,-0.18787,0.65857
697.267,74.66159,-3.26956,-0.19406,0.65791
697.967,74.73179,-3.26958,-0.1959,0.65724
698.667,74.80218,-3.2689,-0.19965,0.65658
699.367,74.8724,-3.26892,-0.19894,0.65592
700.067,74.94244,-3.26892,-0.20157,0.65526
700.767,75.01266,-3.26892,-0.19985,0.65459
701.467,75.08301,-3.26996,-0.20353,0.65393
702.167,75.15366,-3.26991,-0.20405,0.65326
702.867,75.22407,-3.26911,-0.20463,0.6526
703.567,75.29442,-3.26726,-0.2045,0.65194
704.267,75.3647,-3.26852,-0.21014,0.65127
704.967,75.4351,-3.27123,-0.2141,0.65061
705.667,75.50562,-3.27249,-0.21345,0.64994
706.367,75.57613,-3.27254,-0.21553,0.64928
707.067,75.64652,-3.27253,-0.22026,0.64861
707.767,75.71682,-3.27121,-0.22373,0.64795
708.467,75.7871,-3.27254,-0.22226,0.64728
709.167,75.85752,-3.27254,-0.22418,0.64661
709.867,75.92792,-3.27306,-0.22795,0.64595
710.567,75.99834,-3.27353,-0.22945,0.64528
711.267,76.06869,-3.27386,-0.22866,0.64462
711.967,76.1392,-3.27386,-0.22985,0.64395
712.667,76.20984,-3.27254,-0.23598,0.64328
713.367,76.28067,-3.27254,-0.23814,0.64262
714.067,76.3516,-3.27319,-0.24257,0.64195
714.767,76.42246,-3.27386,-0.24722,0.64128
715.467,76.4932,-3.27386,-0.24898,0.64061
716.167,76.56349,-3.27386,-0.25007,0.63995
716.867,76.63391,-3.27382,-0.25356,0.63928
717.567,76.7045,-3.27517,-0.25691,0.63861
718.267,76.77545,-3.27615,-0.257,0.63794
718.967,76.84623,-3.27614,-0.26003,0.63727
719.667,76.9167,-3.27418,-0.26216,0.6366
720.367,76.98739,-3.27555,-0.26695,0.63594
721.067,77.05812,-3.2755,-0.26689,0.63527
721.767,77.12906,-3.27484,-0.27147,0.6346
722.467,77.19967,-3.27484,-0.27197,0.63393
723.167,77.27038,-3.27484,-0.2772,0.63326
723.867,77.34095,-3.2742,-0.27816,0.63259
724.567,77.41128,-3.27551,-0.27929,0.63192
725.267,77.48151,-3.27551,-0.28183,0.63125
725.967,77.5519,-3.27551,-0.28404,0.63058
726.667,77.6225,-3.27551,-0.28892,0.62991
727.367,77.69312,-3.27485,-0.28997,0.62924
728.067,77.7636,-3.27618,-0.2984,0.62857
728.767,77.83414,-3.27613,-0.295,0.6279
729.467,77.9045,-3.27485,-0.29924,0.62723
730.167,77.97487,-3.27589,-0.29953,0.62656
730.867,78.04549,-3.27653,-0.30047,0.62589
731.567,78.11622,-3.2775,-0.30165,0.62521
732.267,78.187,-3.27696,-0.30229,0.62454
732.967,78.25763,-3.27682,-0.30222,0.62387
733.667,78.3282,-3.27682,-0.30513,0.6232
734.367,78.39849,-3.27682,-0.30916,0.62253
735.067,78.46861,-3.2768,-0.31382,0.62186
735.767,78.539,-3.27748,-0.3184,0.62118
736.467,78.60965,-3.27616,-0.32227,0.62051
737.167,78.68039,-3.27748,-0.32106,0.61984
737.867,78.75095,-3.27885,-0.32063,0.61917
738.567,78.82126,-3.27885,-0.32578,0.61849
739.267,78.89179,-3.28012,-0.32983,0.61782
739.967,78.9626,-3.2788,-0.33232,0.61715
740.667,79.0338,-3.27875,-0.33662,0.61648
741.367,79.105,-3.27979,-0.33817,0.6158
742.067,79.17588,-3.27979,-0.34182,0.61513
742.767,79.24653,-3.28069,-0.33895,0.61446
743.467,79.3171,-3.27978,-0.34359,0.61378
744.167,79.38733,-3.27978,-0.34598,0.61311
744.867,79.4577,-3.27978,-0.34738,0.61244
745.567,79.52834,-3.27939,-0.34836,0.61176
746.267,79.59926,-3.27976,-0.34935,0.61109
746.967,79.67002,-3.28044,-0.34814,0.61041
747.667,79.74048,-3.28112,-0.34856,0.60974
748.367,79.81087,-3.28105,-0.35025,0.60907
749.067,79.8814,-3.28045,-0.3502,0.60839
749.767,79.95196,-3.28177,-0.35363,0.60772
750.467,80.02255,-3.28176,-0.35783,0.60704
751.167,80.09317,-3.28045,-0.35671,0.60637
751.867,80.1639,-3.28181,-0.36156,0.60569
752.567,80.2346,-3.28176,-0.36689,0.60502
753.267,80.30505,-3.28175,-0.36568,0.60434
753.967,80.3758,-3.28308,-0.36692,0.60367
754.667,80.4467,-3.28347,-0.36844,0.60299
755.367,80.51772,-3.28448,-0.37238,0.60232
756.067,80.5886,-3.28436,-0.36608,0.60164
756.767,80.6593,-3.28308,-0.37219,0.60097
757.467,80.73015,-3.28308,-0.37454,0.60029
758.167,80.8005,-3.28311,-0.37462,0.59961
758.867,80.8712,-3.2844,-0.3779,0.59894
759.567,80.9418,-3.2844,-0.38077,0.59826
760.267,81.0129,-3.2844,-0.38531,0.59759
760.967,81.0835,-3.28438,-0.3846,0.59691
761.667,81.1541,-3.28514,-0.38608,0.59624
762.367,81.22462,-3.28679,-0.38796,0.59556
763.067,81.29564,-3.28571,-0.39178,0.59488
763.767,81.36655,-3.28455,-0.39654,0.59421
764.467,81.43766,-3.28325,-0.39671,0.59353
765.167,81.5085,-3.28565,-0.40034,0.59285
765.867,81.57961,-3.28702,-0.3982,0.59218
766.567,81.65042,-3.28604,-0.40263,0.5915
767.267,81.72103,-3.28604,-0.40559,0.59082
767.967,81.7916,-3.28604,-0.40735,0.59015
768.667,81.86239,-3.2867,-0.40543,0.58947
769.367,81.9332,-3.28736,-0.40595,0.58879
770.067,82.0042,-3.28703,-0.40851,0.58812
770.767,82.07507,-3.28704,-0.40517,0.58744
771.467,82.146,-3.28572,-0.40653,0.58676
772.167,82.21678,-3.28703,-0.4066,0.58609
772.867,82.28772,-3.28703,-0.41177,0.58541
773.567,82.35855,-3.2867,-0.41227,0.58473
774.267,82.42934,-3.28571,-0.41232,0.58405
774.967,82.50001,-3.28571,-0.41545,0.58338
775.667,82.57115,-3.28571,-0.41453,0.5827
776.367,82.64227,-3.28703,-0.41991,0.58202
777.067,82.71339,-3.28703,-0.41606,0.58134
777.767,82.7843,-3.28703,-0.42168,0.58067
778.467,82.85563,-3.2867,-0.42397,0.57999
779.167,82.9263,-3.2867,-0.42731,0.57931
779.867,82.99726,-3.2867,-0.4286,0.57863
780.567,83.068,-3.28672,-0.43324,0.57796
781.267,83.1391,-3.28802,-0.43058,0.57728
781.967,83.21014,-3.2867,-0.43103,0.5766
782.667,83.2812,-3.2867,-0.43413,0.57592
783.367,83.35236,-3.28835,-0.43301,0.57524
784.067,83.42326,-3.28845,-0.43194,0.57457
784.767,83.49429,-3.28868,-0.43718,0.57389
785.467,83.56534,-3.28868,-0.43225,0.57321
786.167,83.6365,-3.28802,-0.43485,0.57253
786.867,83.7076,-3.28769,-0.44105,0.57185
787.567,83.77858,-3.28768,-0.44792,0.57118
788.267,83.84954,-3.28737,-0.44304,0.5705
788.967,83.9204,-3.28736,-0.44706,0.56982
789.667,83.9914,-3.28605,-0.45328,0.56914
790.367,84.06224,-3.28605,-0.45597,0.56846
791.067,84.1332,-3.28738,-0.45901,0.56779
791.767,84.20406,-3.28867,-0.45636,0.56711
792.467,84.27511,-3.28874,-0.45906,0.56643
793.167,84.34611,-3.28802,-0.45563,0.56575
793.867,84.41718,-3.28802,-0.45781,0.56507
794.567,84.4883,-3.28828,-0.46094,0.56439
795.267,84.55934,-3.28868,-0.46278,0.56372
795.967,84.63042,-3.28868,-0.46399,0.56304
796.667,84.70159,-3.28868,-0.46902,0.56236
797.367,84.77256,-3.28868,-0.47265,0.56168
798.067,84.84343,-3.28936,-0.47332,0.561
798.767,84.91416,-3.28935,-0.47284,0.56032
799.467,84.98487,-3.28835,-0.46892,0.55965
799.567,84.995,-3.28835,-0.46963,0.55955