File: 01_Data/Bean_Bag_Chair_Inner_Lining/STA/N2/10K_min/Bean_Bag_Liner_STA_N2_10KData_220516_R3.csv
##Temp./Â°C,Time/min,Mass loss(subtr.2)/mg,DSC(subtr.2)/(mW/mg),Sensit./(uV/mW)
49.797,10.00833,-0.00593,0.00163682,1.07015
50.497,10.77128,-0.00726181,0.03670167,1.06996
51.197,10.97295,-0.00631759,0.05925627,1.06977
51.897,11.1275,-0.008110254,0.08356214,1.06957
52.597,11.25561,-0.004692328,0.10012,1.06938
53.297,11.3704,-0.00637652,0.11697,1.06919
53.997,11.4752,-0.006558166,0.1278,1.06899
54.697,11.5746,-0.006262739,0.13751,1.0688
55.397,11.66891,-0.00625964,0.14549,1.0686
56.097,11.76027,-0.006389149,0.15285,1.0684
56.797,11.8485,-0.005503481,0.16092,1.06821
57.497,11.93487,-0.00524015,0.16592,1.06801
58.197,12.01902,-0.00657438,0.17338,1.06781
58.897,12.102,-0.007019438,0.17807,1.06761
59.597,12.18375,-0.007154673,0.18031,1.06741
60.297,12.26362,-0.008177755,0.18319,1.06721
60.997,12.34325,-0.00796625,0.18439,1.06701
61.697,12.42255,-0.00803174,0.18904,1.06681
62.397,12.50055,-0.008002865,0.19224,1.06661
63.097,12.5779,-0.008013789,0.19454,1.06641
63.797,12.65514,-0.00673257,0.19834,1.06621
64.497,12.73183,-0.00685945,0.20064,1.06601
65.197,12.8081,-0.006702151,0.20141,1.0658
65.897,12.88397,-0.008020216,0.20428,1.0656
66.597,12.9597,-0.006639582,0.20295,1.0654
67.297,13.03508,-0.006700008,0.2076,1.06519
67.997,13.11024,-0.006172658,0.20726,1.06499
68.697,13.1853,-0.006635898,0.21011,1.06478
69.397,13.2605,-0.006700748,0.21378,1.06457
70.097,13.33446,-0.00670747,0.21294,1.06437
70.797,13.4082,-0.008009929,0.21451,1.06416
71.497,13.4817,-0.008001253,0.21636,1.06395
72.197,13.55574,-0.007986551,0.21672,1.06374
72.897,13.62948,-0.00777117,0.21945,1.06354
73.597,13.7032,-0.006693768,0.22093,1.06333
74.297,13.7765,-0.008020545,0.21975,1.06312
74.997,13.84951,-0.00667994,0.2215,1.06291
75.697,13.92239,-0.008088359,0.2199,1.0627
76.397,13.9954,-0.0067036,0.21922,1.06248
77.097,14.06846,-0.00669954,0.21656,1.06227
77.797,14.1418,-0.006633064,0.21681,1.06206
78.497,14.21502,-0.006688164,0.21444,1.06185
79.197,14.288,-0.00771435,0.21375,1.06163
79.897,14.3605,-0.00669974,0.21068,1.06142
80.597,14.43244,-0.008022722,0.20877,1.06121
81.297,14.5039,-0.006689574,0.20841,1.06099
81.997,14.5754,-0.00668305,0.20808,1.06078
82.697,14.647,-0.00668604,0.20649,1.06056
83.397,14.71824,-0.008020134,0.20594,1.06034
84.097,14.7889,-0.00670071,0.20336,1.06013
84.797,14.85994,-0.00769523,0.20121,1.05991
85.497,14.9313,-0.00639479,0.20183,1.05969
86.197,15.00257,-0.006690833,0.20321,1.05947
86.897,15.0731,-0.005377595,0.20276,1.05925
87.597,15.14373,-0.00669867,0.2014,1.05904
88.297,15.2142,-0.005381532,0.203,1.05882
88.997,15.2845,-0.00636332,0.20147,1.05859
89.697,15.3545,-0.006629831,0.20067,1.05837
90.397,15.4245,-0.00724691,0.20118,1.05815
91.097,15.4941,-0.006697889,0.20165,1.05793
91.797,15.5636,-0.005199237,0.20124,1.05771
92.497,15.6331,-0.00669835,0.20236,1.05748
93.197,15.7028,-0.0053912,0.202,1.05726
93.897,15.77232,-0.006707536,0.2012,1.05704
94.597,15.8415,-0.00670447,0.20175,1.05681
95.297,15.91071,-0.005376271,0.20213,1.05659
95.997,15.9797,-0.006700303,0.20336,1.05636
96.697,16.0489,-0.00670003,0.20386,1.05614
97.397,16.11806,-0.00571319,0.20405,1.05591
98.097,16.18724,-0.005380665,0.20402,1.05568
98.797,16.2563,-0.006694598,0.20566,1.05545
99.497,16.32538,-0.00708534,0.20491,1.05522
100.197,16.39425,-0.006700008,0.20768,1.055
100.897,16.4629,-0.008082603,0.20886,1.05477
101.597,16.5311,-0.006700116,0.20985,1.05454
102.297,16.59999,-0.0067,0.20987,1.05431
102.997,16.66883,-0.006699998,0.21159,1.05408
103.697,16.738,-0.00669053,0.21457,1.05384
104.397,16.80647,-0.006701031,0.21644,1.05361
105.097,16.87508,-0.00770416,0.2189,1.05338
105.797,16.94354,-0.006376205,0.21953,1.05315
106.497,17.01199,-0.006369769,0.22316,1.05291
107.197,17.08036,-0.00539325,0.22287,1.05268
107.897,17.14852,-0.005380598,0.22399,1.05244
108.597,17.217,-0.006051415,0.22526,1.05221
109.297,17.28546,-0.00670055,0.22804,1.05197
109.997,17.354,-0.006247425,0.22931,1.05174
110.697,17.42253,-0.00637008,0.23309,1.0515
111.397,17.49096,-0.00532384,0.23383,1.05126
112.097,17.55935,-0.00538128,0.23498,1.05103
112.797,17.62771,-0.006355561,0.23781,1.05079
113.497,17.69591,-0.00637005,0.24039,1.05055
114.197,17.76409,-0.00672909,0.23927,1.05031
114.897,17.83209,-0.00688109,0.2417,1.05007
115.597,17.9003,-0.00689201,0.24131,1.04983
116.297,17.96867,-0.0067,0.24421,1.04959
116.997,18.03725,-0.006726791,0.2442,1.04935
117.697,18.1054,-0.006028386,0.24636,1.0491
118.397,18.1737,-0.00602407,0.24684,1.04886
119.097,18.2418,-0.007026809,0.24726,1.04862
119.797,18.31011,-0.00628561,0.25119,1.04838
120.497,18.37819,-0.006359399,0.25048,1.04813
121.197,18.44622,-0.00772207,0.25221,1.04789
121.897,18.514,-0.006369774,0.2532,1.04764
122.597,18.58192,-0.006369996,0.25488,1.0474
123.297,18.64954,-0.0063816,0.25395,1.04715
123.997,18.71738,-0.006336274,0.25735,1.0469
124.697,18.78513,-0.00637005,0.25935,1.04666
125.397,18.85304,-0.00494171,0.26071,1.04641
126.097,18.9211,-0.006040305,0.26161,1.04616
126.797,18.98868,-0.006040003,0.26462,1.04591
127.497,19.0568,-0.00633128,0.2658,1.04566
128.197,19.12461,-0.006371002,0.2659,1.04541
128.897,19.19271,-0.007710157,0.26794,1.04516
129.597,19.26052,-0.006369694,0.26807,1.04491
130.297,19.32751,-0.006705245,0.26839,1.04466
130.997,19.39457,-0.007770771,0.26875,1.04441
131.697,19.4614,-0.007004732,0.27041,1.04415
132.397,19.52881,-0.00703014,0.27199,1.0439
133.097,19.59636,-0.008351622,0.27352,1.04365
133.797,19.66388,-0.007685689,0.27481,1.04339
134.497,19.7315,-0.007689999,0.27557,1.04314
135.197,19.79951,-0.00769581,0.27642,1.04288
135.897,19.86796,-0.00901108,0.27683,1.04262
136.597,19.93626,-0.00636496,0.27696,1.04237
137.297,20.00401,-0.007690436,0.27792,1.04211
137.997,20.07142,-0.007690316,0.27877,1.04185
138.697,20.13897,-0.00636081,0.28032,1.0416
139.397,20.2065,-0.007349896,0.28272,1.04134
140.097,20.27414,-0.00735,0.2806,1.04108
140.797,20.3416,-0.00735,0.28102,1.04082
141.497,20.409,-0.00735001,0.28226,1.04056
142.197,20.4765,-0.00764212,0.28495,1.0403
142.897,20.54393,-0.00699475,0.28367,1.04004
143.597,20.6113,-0.00768756,0.2862,1.03977
144.297,20.67856,-0.007690002,0.28756,1.03951
144.997,20.74567,-0.007939415,0.28828,1.03925
145.697,20.81308,-0.007031155,0.28847,1.03899
146.397,20.8804,-0.007030039,0.28844,1.03872
147.097,20.94765,-0.00765822,0.29138,1.03846
147.797,21.01473,-0.007688134,0.29163,1.03819
148.497,21.0819,-0.006371843,0.2909,1.03793
149.197,21.1492,-0.00637,0.2919,1.03766
149.897,21.21625,-0.00637,0.29383,1.03739
150.597,21.28367,-0.006369965,0.29407,1.03713
151.297,21.35105,-0.006588081,0.29481,1.03686
151.997,21.41865,-0.00769,0.29663,1.03659
152.697,21.48575,-0.00767834,0.29527,1.03632
153.397,21.55286,-0.00734651,0.29754,1.03605
154.097,21.6199,-0.007673563,0.29802,1.03578
154.797,21.68692,-0.00768005,0.29857,1.03551
155.497,21.75398,-0.008781032,0.29995,1.03524
156.197,21.82113,-0.00900519,0.30088,1.03497
156.897,21.8883,-0.007351004,0.30096,1.0347
157.597,21.9553,-0.007029982,0.30069,1.03442
158.297,22.02242,-0.00665828,0.30313,1.03415
158.997,22.08948,-0.00797149,0.30399,1.03388
159.697,22.15648,-0.00702997,0.30425,1.0336
160.397,22.2235,-0.00703,0.30352,1.03333
161.097,22.2905,-0.00703,0.30399,1.03305
161.797,22.35745,-0.0070303,0.30444,1.03277
162.497,22.42439,-0.0074146,0.3049,1.0325
163.197,22.49145,-0.006040878,0.30578,1.03222
163.897,22.55872,-0.007359598,0.30686,1.03194
164.597,22.62596,-0.007190893,0.30722,1.03166
165.297,22.69334,-0.006040588,0.30929,1.03139
165.997,22.76054,-0.006694135,0.30756,1.03111
166.697,22.82734,-0.00729401,0.30829,1.03083
167.397,22.89401,-0.00768998,0.31024,1.03055
168.097,22.96084,-0.00769,0.30906,1.03026
168.797,23.02788,-0.00769,0.3097,1.02998
169.497,23.09514,-0.007689024,0.31033,1.0297
170.197,23.16219,-0.00638402,0.31115,1.02942
170.897,23.22922,-0.006369999,0.31283,1.02914
171.597,23.2963,-0.006368001,0.31371,1.02885
172.297,23.36328,-0.006689373,0.31357,1.02857
172.997,23.43015,-0.00669066,0.31433,1.02828
173.697,23.497,-0.008011684,0.31604,1.028
174.397,23.56406,-0.008008112,0.31608,1.02771
175.097,23.63102,-0.00670172,0.31788,1.02742
175.797,23.698,-0.0067,0.31646,1.02714
176.497,23.76476,-0.006699999,0.31767,1.02685
177.197,23.83158,-0.00670324,0.31919,1.02656
177.897,23.89844,-0.007035,0.32033,1.02627
178.597,23.9653,-0.006369795,0.32131,1.02598
179.297,24.03228,-0.00637,0.32151,1.02569
179.997,24.09911,-0.00637,0.32382,1.0254
180.697,24.16607,-0.00637,0.32301,1.02511
181.397,24.23292,-0.006369996,0.32462,1.02482
182.097,24.2999,-0.00638526,0.3243,1.02453
182.797,24.36675,-0.00505687,0.32505,1.02423
183.497,24.4335,-0.005380166,0.32475,1.02394
184.197,24.50038,-0.005379801,0.32476,1.02365
184.897,24.5672,-0.0066943,0.32639,1.02335
185.597,24.6341,-0.006700502,0.32712,1.02306
186.297,24.70084,-0.005373835,0.32834,1.02276
186.997,24.76751,-0.005379789,0.32903,1.02247
187.697,24.83426,-0.006705375,0.33041,1.02217
188.397,24.9007,-0.00595783,0.33085,1.02187
189.097,24.96733,-0.006688716,0.3315,1.02157
189.797,25.03421,-0.007019448,0.331,1.02128
190.497,25.10139,-0.00702,0.33183,1.02098
191.197,25.168,-0.007021296,0.33104,1.02068
191.897,25.23453,-0.00564803,0.33237,1.02038
192.597,25.30098,-0.006700081,0.33412,1.02008
193.297,25.36777,-0.0067,0.33454,1.01978
193.997,25.43441,-0.0067,0.33468,1.01947
194.697,25.50078,-0.006699342,0.33527,1.01917
195.397,25.56746,-0.00604293,0.33658,1.01887
196.097,25.63413,-0.006039966,0.33564,1.01857
196.797,25.70105,-0.005578725,0.33751,1.01826
197.497,25.7676,-0.005708021,0.33657,1.01796
198.197,25.83405,-0.00636383,0.33729,1.01765
198.897,25.9008,-0.00702878,0.33706,1.01735
199.597,25.9675,-0.00703,0.33776,1.01704
200.297,26.03416,-0.00703,0.33779,1.01673
200.997,26.10097,-0.007016353,0.33969,1.01643
201.697,26.16764,-0.00570994,0.33915,1.01612
202.397,26.23418,-0.00571,0.34016,1.01581
203.097,26.3008,-0.00769006,0.3394,1.0155
203.797,26.36767,-0.007412602,0.34135,1.01519
204.497,26.4347,-0.006370014,0.34178,1.01488
205.197,26.501,-0.00556815,0.34187,1.01457
205.897,26.5675,-0.005676411,0.34194,1.01426
206.597,26.63428,-0.00637337,0.34404,1.01395
207.297,26.70133,-0.007386551,0.3444,1.01363
207.997,26.76786,-0.006370025,0.34646,1.01332
208.697,26.83445,-0.00637,0.34561,1.01301
209.397,26.90095,-0.00637,0.34677,1.01269
210.097,26.96773,-0.006369973,0.34721,1.01238
210.797,27.0343,-0.00739792,0.3493,1.01206
211.497,27.1009,-0.007349645,0.34976,1.01175
212.197,27.1674,-0.007021119,0.35045,1.01143
212.897,27.23361,-0.00586831,0.35064,1.01111
213.597,27.3004,-0.005710009,0.35169,1.0108
214.297,27.3671,-0.006009832,0.35296,1.01048
214.997,27.434,-0.00669461,0.3515,1.01016
215.697,27.50068,-0.007354043,0.35478,1.00984
216.397,27.5674,-0.00607503,0.35565,1.00952
217.097,27.6342,-0.006039984,0.35551,1.0092
217.797,27.7007,-0.00604,0.35699,1.00888
218.497,27.76732,-0.00604005,0.35989,1.00856
219.197,27.83385,-0.006762196,0.36093,1.00823
219.897,27.90038,-0.00669998,0.36266,1.00791
220.597,27.96684,-0.0066354,0.36264,1.00759
221.297,28.03345,-0.00802003,0.36401,1.00726
221.997,28.09993,-0.00802,0.36433,1.00694
222.697,28.1661,-0.008020001,0.36599,1.00661
223.397,28.2324,-0.008008577,0.36666,1.00629
224.097,28.2988,-0.00670038,0.36687,1.00596
224.797,28.36542,-0.009319868,0.36985,1.00563
225.497,28.43205,-0.008034,0.37057,1.00531
226.197,28.49865,-0.008019999,0.36987,1.00498
226.897,28.5654,-0.00802,0.37386,1.00465
227.597,28.63206,-0.00802,0.3723,1.00432
228.297,28.69877,-0.00802,0.37606,1.00399
228.997,28.7654,-0.008019965,0.37769,1.00366
229.697,28.8318,-0.008311185,0.37986,1.00333
230.397,28.8983,-0.009329989,0.38188,1.003
231.097,28.9649,-0.008666499,0.38292,1.00267
231.797,29.0316,-0.008670001,0.38518,1.00233
232.497,29.0984,-0.00867,0.38654,1.002
233.197,29.165,-0.00867,0.38949,1.00167
233.897,29.23157,-0.00867,0.3921,1.00133
234.597,29.2981,-0.00867,0.3949,1.001
235.297,29.3647,-0.008669767,0.39695,1.00066
235.997,29.43123,-0.008627238,0.39973,1.00033
236.697,29.4977,-0.008669999,0.40116,0.99999
237.397,29.56407,-0.00867,0.40571,0.99965
238.097,29.63076,-0.008669999,0.40907,0.99931
238.797,29.69753,-0.008667939,0.41491,0.99897
239.497,29.76431,-0.009328919,0.41961,0.99864
240.197,29.8309,-0.00932999,0.4243,0.9983
240.897,29.8976,-0.009314256,0.43005,0.99796
241.597,29.96425,-0.007020365,0.43719,0.99762
242.297,30.03091,-0.00702,0.44239,0.99727
242.997,30.09736,-0.007019991,0.45133,0.99693
243.697,30.1642,-0.007345901,0.46036,0.99659
244.397,30.2309,-0.008339935,0.47028,0.99625
245.097,30.2977,-0.008339999,0.4829,0.9959
245.797,30.3642,-0.00837436,0.49722,0.99556
246.497,30.431,-0.008020044,0.51059,0.99521
247.197,30.4977,-0.008019997,0.53136,0.99487
247.897,30.5645,-0.008091063,0.55311,0.99452
248.597,30.63123,-0.007360384,0.58689,0.99417
249.297,30.69805,-0.008021216,0.65501,0.99383
249.997,30.76506,-0.007557124,0.7605,0.99348
250.697,30.8319,-0.00767059,0.86029,0.99313
251.397,30.89909,-0.006370386,0.9523,0.99278
252.097,30.96632,-0.006327935,1.04158,0.99243
252.797,31.03391,-0.007690229,1.12491,0.99208
253.497,31.1013,-0.007690218,1.19901,0.99173
254.197,31.16889,-0.007035528,1.26917,0.99138
254.897,31.23654,-0.007030002,1.33154,0.99103
255.597,31.30418,-0.007029987,1.37779,0.99068
256.297,31.37182,-0.007134441,1.38903,0.99032
256.997,31.439,-0.00768977,1.35574,0.98997
257.697,31.50556,-0.007690002,1.2825,0.98961
258.397,31.57194,-0.007670801,1.16685,0.98926
259.097,31.63885,-0.00835006,1.00828,0.9889
259.797,31.70563,-0.00714802,0.85451,0.98855
260.497,31.77235,-0.00703001,0.73013,0.98819
261.197,31.8385,-0.007020274,0.64012,0.98783
261.897,31.90452,-0.005709972,0.57556,0.98748
262.597,31.9705,-0.00571,0.52935,0.98712
263.297,32.03649,-0.005711467,0.4997,0.98676
263.997,32.10255,-0.00702815,0.47442,0.9864
264.697,32.16876,-0.007030267,0.46217,0.98604
265.397,32.23502,-0.005719256,0.4478,0.98568
266.097,32.30131,-0.005709837,0.44099,0.98532
266.797,32.36773,-0.00700941,0.43587,0.98496
267.497,32.43404,-0.007030016,0.43067,0.98459
268.197,32.50015,-0.00703,0.4279,0.98423
268.897,32.56649,-0.00703,0.42297,0.98387
269.597,32.63273,-0.00703,0.42182,0.9835
270.297,32.69939,-0.00703072,0.42219,0.98314
270.997,32.76577,-0.005717071,0.42244,0.98277
271.697,32.83215,-0.00568061,0.41965,0.98241
272.397,32.89868,-0.007699541,0.41833,0.98204
273.097,32.9651,-0.00703839,0.41804,0.98167
273.797,33.03184,-0.00703003,0.41745,0.9813
274.497,33.09833,-0.007359908,0.41766,0.98094
275.197,33.16494,-0.007360009,0.41763,0.98057
275.897,33.23157,-0.00736,0.41755,0.9802
276.597,33.29822,-0.00736,0.41595,0.97983
277.297,33.36452,-0.00736048,0.41449,0.97946
277.997,33.43118,-0.006033366,0.41765,0.97908
278.697,33.4974,-0.00604006,0.41599,0.97871
279.397,33.5643,-0.00731696,0.41708,0.97834
280.097,33.6307,-0.007360003,0.41766,0.97797
280.797,33.69721,-0.00736,0.41773,0.97759
281.497,33.7643,-0.00736,0.41701,0.97722
282.197,33.8312,-0.007358895,0.41697,0.97684
282.897,33.89865,-0.00604032,0.41976,0.97647
283.597,33.96547,-0.006039998,0.418,0.97609
284.297,34.03216,-0.006059573,0.41866,0.97571
284.997,34.099,-0.007345848,0.41765,0.97534
285.697,34.1659,-0.007680089,0.4189,0.97496
286.397,34.23281,-0.00768,0.41753,0.97458
287.097,34.2993,-0.00768,0.42021,0.9742
287.797,34.36611,-0.00768,0.41967,0.97382
288.497,34.4332,-0.007672811,0.41784,0.97344
289.197,34.50047,-0.00737978,0.41965,0.97306
289.897,34.56734,-0.00736005,0.41913,0.97268
290.597,34.63428,-0.008066456,0.41973,0.9723
291.297,34.70136,-0.007697909,0.42078,0.97191
291.997,34.76818,-0.007680012,0.41969,0.97153
292.697,34.8352,-0.00768,0.41991,0.97115
293.397,34.90197,-0.00768,0.41887,0.97076
294.097,34.9691,-0.00768,0.41884,0.97038
294.797,35.03582,-0.00768,0.41964,0.96999
295.497,35.10288,-0.00768,0.41708,0.96961
296.197,35.1699,-0.00768,0.41726,0.96922
296.897,35.2371,-0.007679845,0.41985,0.96883
297.597,35.30404,-0.009043625,0.41784,0.96844
298.297,35.3709,-0.00899999,0.41904,0.96805
298.997,35.43795,-0.008700895,0.41815,0.96767
299.697,35.50501,-0.00732622,0.41882,0.96728
300.397,35.57158,-0.007522381,0.41886,0.96688
301.097,35.6383,-0.008340001,0.41986,0.96649
301.797,35.70514,-0.00833982,0.42063,0.9661
302.497,35.77221,-0.008660621,0.42121,0.96571
303.197,35.83944,-0.008670001,0.41839,0.96532
303.897,35.90614,-0.00867,0.4188,0.96492
304.597,35.97315,-0.00867,0.42006,0.96453
305.297,36.04005,-0.00867,0.41913,0.96413
305.997,36.1071,-0.008670211,0.42011,0.96374
306.697,36.17411,-0.00803561,0.42156,0.96334
307.397,36.24111,-0.008019998,0.42154,0.96295
308.097,36.30814,-0.00802,0.42221,0.96255
308.797,36.37514,-0.008020006,0.42271,0.96215
309.497,36.44193,-0.00797004,0.4222,0.96175
310.197,36.50851,-0.00867,0.4209,0.96136
310.897,36.57517,-0.009699415,0.42188,0.96096
311.597,36.64184,-0.009659994,0.42285,0.96056
312.297,36.70877,-0.00966,0.42319,0.96016
312.997,36.77575,-0.00966,0.42247,0.95975
313.697,36.8429,-0.009663235,0.42333,0.95935
314.397,36.91008,-0.00833722,0.42303,0.95895
315.097,36.97755,-0.008345441,0.4245,0.95855
315.797,37.04495,-0.00965932,0.4235,0.95814
316.497,37.11258,-0.00888771,0.42289,0.95774
317.197,37.1798,-0.008339979,0.42219,0.95733
317.897,37.24716,-0.00835446,0.42054,0.95693
318.597,37.3142,-0.00965989,0.42095,0.95652
319.297,37.3816,-0.00966,0.42355,0.95612
319.997,37.44887,-0.00966,0.42375,0.95571
320.697,37.51616,-0.009660006,0.42432,0.9553
321.397,37.58352,-0.009592696,0.42382,0.95489
322.097,37.65084,-0.01031991,0.42342,0.95448
322.797,37.71819,-0.01032,0.42226,0.95407
323.497,37.78537,-0.01032,0.42428,0.95366
324.197,37.85288,-0.01032,0.42253,0.95325
324.897,37.92029,-0.01031981,0.42446,0.95284
325.597,37.98765,-0.01163687,0.42396,0.95243
326.297,38.05468,-0.01292489,0.42459,0.95202
326.997,38.12208,-0.0129604,0.42444,0.9516
327.697,38.18946,-0.01155934,0.4251,0.95119
328.397,38.25691,-0.0103321,0.42527,0.95078
329.097,38.32394,-0.01135723,0.42615,0.95036
329.797,38.3911,-0.01164002,0.42648,0.94995
330.497,38.45816,-0.01163997,0.42737,0.94953
331.197,38.52535,-0.01263993,0.42608,0.94911
331.897,38.59267,-0.01263,0.42873,0.94869
332.597,38.66017,-0.01263003,0.42877,0.94828
333.297,38.72775,-0.01324089,0.42805,0.94786
333.997,38.79503,-0.01356031,0.42899,0.94744
334.697,38.86187,-0.01263007,0.42962,0.94702
335.397,38.92892,-0.01263,0.43054,0.9466
336.097,38.99625,-0.01254245,0.42924,0.94618
336.797,39.06381,-0.01358528,0.42807,0.94576
337.497,39.13142,-0.01394995,0.42947,0.94533
338.197,39.19847,-0.01395,0.43131,0.94491
338.897,39.26591,-0.01395,0.43229,0.94449
339.597,39.3333,-0.01393432,0.43256,0.94406
340.297,39.40117,-0.01634067,0.43225,0.94364
340.997,39.46862,-0.01494223,0.43314,0.94321
341.697,39.53609,-0.01371359,0.43333,0.94279
342.397,39.60345,-0.01352696,0.43434,0.94236
343.097,39.67111,-0.01493799,0.43224,0.94194
343.797,39.73853,-0.01625041,0.43287,0.94151
344.497,39.80599,-0.01549437,0.43462,0.94108
345.197,39.87341,-0.01689811,0.43519,0.94065
345.897,39.9409,-0.01591311,0.43453,0.94022
346.597,40.00846,-0.01591992,0.43532,0.93979
347.297,40.07595,-0.0172234,0.43605,0.93936
347.997,40.14372,-0.01723691,0.43652,0.93893
348.697,40.21115,-0.01586502,0.43876,0.9385
349.397,40.27859,-0.01723001,0.43797,0.93807
350.097,40.3461,-0.01723,0.43795,0.93763
350.797,40.4131,-0.01723,0.44052,0.9372
351.497,40.48066,-0.01722682,0.44019,0.93676
352.197,40.54821,-0.01854996,0.44127,0.93633
352.897,40.61615,-0.01855,0.44142,0.93589
353.597,40.68398,-0.01855,0.4449,0.93546
354.297,40.75159,-0.01855,0.44417,0.93502
354.997,40.81879,-0.01855,0.44505,0.93459
355.697,40.8858,-0.01854954,0.44505,0.93415
356.397,40.9527,-0.01987684,0.44586,0.93371
357.097,41.02035,-0.01987005,0.44387,0.93327
357.797,41.088,-0.02083023,0.44609,0.93283
358.497,41.15568,-0.02094404,0.44792,0.93239
359.197,41.22339,-0.02086999,0.44751,0.93195
359.897,41.29104,-0.02086999,0.44672,0.93151
360.597,41.35881,-0.02088608,0.44903,0.93107
361.297,41.42708,-0.02283051,0.4514,0.93062
361.997,41.4953,-0.0227602,0.45334,0.93018
362.697,41.56347,-0.02345178,0.45325,0.92974
363.397,41.631,-0.02350223,0.45324,0.92929
364.097,41.69866,-0.02447978,0.45575,0.92885
364.797,41.7663,-0.02447846,0.45917,0.9284
365.497,41.8341,-0.02349175,0.45957,0.92796
366.197,41.90166,-0.02448865,0.46164,0.92751
366.897,41.96931,-0.02649715,0.46232,0.92706
367.597,42.03671,-0.02704009,0.46338,0.92661
368.297,42.10445,-0.02812937,0.46628,0.92617
368.997,42.17202,-0.02673821,0.46694,0.92572
369.697,42.23957,-0.02810192,0.47097,0.92527
370.397,42.3072,-0.02810998,0.47072,0.92482
371.097,42.37489,-0.02874925,0.47588,0.92437
371.797,42.44265,-0.03007115,0.47849,0.92391
372.497,42.5105,-0.03062535,0.48117,0.92346
373.197,42.5781,-0.03140012,0.48602,0.92301
373.897,42.64593,-0.0328172,0.48981,0.92256
374.597,42.71353,-0.03342079,0.49226,0.9221
375.297,42.78134,-0.03409162,0.49758,0.92165
375.997,42.84892,-0.0354603,0.50097,0.92119
376.697,42.9167,-0.03674348,0.50394,0.92074
377.397,42.9844,-0.03809303,0.50838,0.92028
378.097,43.0523,-0.03942011,0.51289,0.91982
378.797,43.11951,-0.0407452,0.51506,0.91937
379.497,43.18737,-0.04371902,0.51966,0.91891
380.197,43.25519,-0.04499663,0.52111,0.91845
380.897,43.32378,-0.04635546,0.52272,0.91799
381.597,43.3919,-0.0476135,0.5282,0.91753
382.297,43.45973,-0.04961727,0.53011,0.91707
382.997,43.5278,-0.05155923,0.53254,0.91661
383.697,43.59601,-0.05356002,0.53622,0.91615
384.397,43.6644,-0.05702625,0.53929,0.91569
385.097,43.73247,-0.05975796,0.54061,0.91522
385.797,43.80053,-0.06291009,0.537,0.91476
386.497,43.8685,-0.06587915,0.53365,0.9143
387.197,43.9362,-0.06861648,0.53153,0.91383
387.897,44.0041,-0.07138294,0.53104,0.91337
388.597,44.0719,-0.07446116,0.53159,0.9129
389.297,44.1403,-0.07778456,0.53494,0.91244
389.997,44.20833,-0.07971,0.53866,0.91197
390.697,44.27655,-0.08425163,0.54051,0.9115
391.397,44.34454,-0.08911444,0.54131,0.91103
392.097,44.41252,-0.0929778,0.54616,0.91056
392.797,44.4805,-0.09647767,0.54655,0.9101
393.497,44.54853,-0.10114,0.54925,0.90963
394.197,44.61636,-0.10445,0.55266,0.90916
394.897,44.68437,-0.10818,0.55668,0.90868
395.597,44.7524,-0.11331,0.56254,0.90821
396.297,44.82077,-0.11875,0.56339,0.90774
396.997,44.88898,-0.12365,0.56812,0.90727
397.697,44.95711,-0.12899,0.57189,0.90679
398.397,45.0248,-0.13372,0.57384,0.90632
399.097,45.0925,-0.13666,0.57344,0.90585
399.797,45.1604,-0.14112,0.57563,0.90537
400.497,45.22845,-0.14493,0.57449,0.9049
401.197,45.2966,-0.14853,0.57816,0.90442
401.897,45.3645,-0.14984,0.58441,0.90394
402.597,45.43217,-0.15386,0.58174,0.90347
403.297,45.49985,-0.16042,0.58409,0.90299
403.997,45.5675,-0.16118,0.58651,0.90251
404.697,45.63507,-0.16261,0.59157,0.90203
405.397,45.7027,-0.16638,0.59482,0.90155
406.097,45.77025,-0.17211,0.60153,0.90107
406.797,45.83785,-0.17725,0.5995,0.90059
407.497,45.90545,-0.181,0.60496,0.90011
408.197,45.97292,-0.18477,0.60488,0.89962
408.897,46.04045,-0.18585,0.61609,0.89914
409.597,46.10764,-0.1918,0.6252,0.89866
410.297,46.17512,-0.20358,0.63773,0.89818
410.997,46.2425,-0.2119,0.64754,0.89769
411.697,46.31012,-0.21613,0.66406,0.89721
412.397,46.37727,-0.2281,0.66854,0.89672
413.097,46.44481,-0.24286,0.68442,0.89623
413.797,46.5124,-0.26012,0.70063,0.89575
414.497,46.58,-0.26433,0.7195,0.89526
415.197,46.64752,-0.27963,0.72644,0.89477
415.897,46.71476,-0.30117,0.74754,0.89428
416.597,46.78229,-0.3274,0.7698,0.89379
417.297,46.84972,-0.3591,0.77975,0.8933
417.997,46.91702,-0.3918,0.78252,0.89281
418.697,46.98429,-0.42281,0.78796,0.89232
419.397,47.05154,-0.45419,0.80565,0.89183
420.097,47.11895,-0.48589,0.81213,0.89134
420.797,47.1869,-0.51886,0.8223,0.89085
421.497,47.25505,-0.5541,0.83315,0.89035
422.197,47.32322,-0.59134,0.86244,0.88986
422.897,47.3906,-0.62925,0.88157,0.88937
423.597,47.4585,-0.66946,0.89556,0.88887
424.297,47.52623,-0.70703,0.90374,0.88838
424.997,47.59455,-0.74661,0.90967,0.88788
425.697,47.66232,-0.78566,0.92918,0.88738
426.397,47.7303,-0.82956,0.94576,0.88689
427.097,47.7983,-0.8753,0.95997,0.88639
427.797,47.86632,-0.9264,0.96766,0.88589
428.497,47.93442,-0.97213,0.97159,0.88539
429.197,48.00224,-1.0199,0.98942,0.88489
429.897,48.07054,-1.06332,0.99883,0.88439
430.597,48.13865,-1.11322,0.99974,0.88389
431.297,48.20711,-1.16583,0.98668,0.88339
431.997,48.27516,-1.21502,0.98546,0.88289
432.697,48.34321,-1.26459,0.98382,0.88239
433.397,48.41137,-1.31679,0.98866,0.88188
434.097,48.47933,-1.37164,1.00296,0.88138
434.797,48.54755,-1.42548,1.01486,0.88088
435.497,48.6156,-1.48119,1.01166,0.88037
436.197,48.68395,-1.53501,1.00652,0.87987
436.897,48.7521,-1.59022,1.00408,0.87936
437.597,48.8204,-1.64371,1.00528,0.87886
438.297,48.8887,-1.69949,1.00285,0.87835
438.997,48.957,-1.75767,1.00495,0.87784
439.697,49.02543,-1.81141,1.00502,0.87733
440.397,49.09347,-1.86703,1.00047,0.87682
441.097,49.16179,-1.9241,0.99531,0.87632
441.797,49.22981,-1.97875,0.98633,0.87581
442.497,49.29818,-2.03154,0.98038,0.8753
443.197,49.36631,-2.08783,0.96896,0.87478
443.897,49.43444,-2.14435,0.95986,0.87427
444.597,49.50262,-2.19356,0.94774,0.87376
445.297,49.57076,-2.24866,0.93088,0.87325
445.997,49.63882,-2.2981,0.91489,0.87274
446.697,49.7069,-2.3446,0.89651,0.87222
447.397,49.77502,-2.39107,0.87802,0.87171
448.097,49.84333,-2.43683,0.85738,0.87119
448.797,49.9116,-2.47882,0.83462,0.87068
449.497,49.97984,-2.51832,0.81118,0.87016
450.197,50.04817,-2.55722,0.78583,0.86965
450.897,50.11637,-2.59441,0.76325,0.86913
451.597,50.18466,-2.62713,0.73695,0.86861
452.297,50.25264,-2.6584,0.71502,0.86809
452.997,50.32076,-2.68919,0.68595,0.86757
453.697,50.38888,-2.71489,0.66221,0.86706
454.397,50.45731,-2.74345,0.63632,0.86654
455.097,50.5254,-2.76608,0.61369,0.86602
455.797,50.59368,-2.78815,0.59052,0.86549
456.497,50.66196,-2.80823,0.5705,0.86497
457.197,50.73018,-2.83736,0.5499,0.86445
457.897,50.79825,-2.85544,0.53146,0.86393
458.597,50.86627,-2.86906,0.51369,0.86341
459.297,50.93455,-2.88247,0.49856,0.86288
459.997,51.0028,-2.89454,0.48446,0.86236
460.697,51.071,-2.90604,0.46755,0.86183
461.397,51.13902,-2.91538,0.45746,0.86131
462.097,51.20742,-2.92524,0.44244,0.86078
462.797,51.27582,-2.93416,0.43329,0.86026
463.497,51.34437,-2.94267,0.42149,0.85973
464.197,51.4127,-2.95032,0.4088,0.8592
464.897,51.48109,-2.95747,0.39885,0.85867
465.597,51.54971,-2.96585,0.38697,0.85814
466.297,51.6182,-2.9716,0.37876,0.85762
466.997,51.68671,-2.97817,0.36539,0.85709
467.697,51.7547,-2.98483,0.35789,0.85656
468.397,51.82292,-2.98917,0.34844,0.85602
469.097,51.8911,-2.99384,0.33786,0.85549
469.797,51.95989,-2.99942,0.32931,0.85496
470.497,52.0281,-3.00499,0.32009,0.85443
471.197,52.096,-3.0092,0.31034,0.8539
471.897,52.16397,-3.01334,0.29956,0.85336
472.597,52.2327,-3.0183,0.29323,0.85283
473.297,52.3018,-3.02131,0.2851,0.85229
473.997,52.37068,-3.02441,0.27687,0.85176
474.697,52.43914,-3.02738,0.27004,0.85122
475.397,52.50725,-3.03188,0.26249,0.85069
476.097,52.57535,-3.03341,0.25584,0.85015
476.797,52.6434,-3.03732,0.24442,0.84961
477.497,52.71184,-3.04017,0.24265,0.84908
478.197,52.78054,-3.04257,0.23601,0.84854
478.897,52.84932,-3.04564,0.22716,0.848
479.597,52.91806,-3.04847,0.22534,0.84746
480.297,52.98679,-3.04979,0.2185,0.84692
480.997,53.05574,-3.0523,0.21456,0.84638
481.697,53.1246,-3.05521,0.21115,0.84584
482.397,53.1934,-3.05679,0.20493,0.8453
483.097,53.26262,-3.05802,0.2003,0.84475
483.797,53.33192,-3.05951,0.19899,0.84421
484.497,53.4013,-3.06218,0.19534,0.84367
485.197,53.47006,-3.06358,0.19304,0.84312
485.897,53.53881,-3.06613,0.19052,0.84258
486.597,53.60756,-3.06746,0.187,0.84203
487.297,53.67609,-3.06876,0.18556,0.84149
487.997,53.7446,-3.07119,0.18267,0.84094
488.697,53.8134,-3.07272,0.17908,0.8404
489.397,53.8824,-3.07563,0.17712,0.83985
490.097,53.9513,-3.08631,0.17584,0.8393
490.797,54.0199,-3.08881,0.17238,0.83875
491.497,54.0888,-3.08932,0.17255,0.83821
492.197,54.1578,-3.09062,0.17025,0.83766
492.897,54.227,-3.09121,0.17191,0.83711
493.597,54.2959,-3.09128,0.17071,0.83656
494.297,54.365,-3.0926,0.16959,0.83601
494.997,54.43387,-3.0926,0.16844,0.83546
495.697,54.503,-3.09343,0.16937,0.8349
496.397,54.572,-3.09458,0.16599,0.83435
497.097,54.6411,-3.0959,0.16602,0.8338
497.797,54.71011,-3.09721,0.16462,0.83325
498.497,54.7793,-3.09852,0.1627,0.83269
499.197,54.8485,-3.09985,0.16279,0.83214
499.897,54.91745,-3.10115,0.16292,0.83158
500.597,54.98653,-3.10241,0.16004,0.83103
501.297,55.0557,-3.1038,0.16023,0.83047
501.997,55.125,-3.10511,0.16043,0.82992
502.697,55.1943,-3.10603,0.1597,0.82936
503.397,55.2633,-3.10577,0.15933,0.8288
504.097,55.3325,-3.10643,0.15982,0.82824
504.797,55.4018,-3.10707,0.16058,0.82769
505.497,55.471,-3.10709,0.16007,0.82713
506.197,55.54003,-3.10709,0.15666,0.82657
506.897,55.6091,-3.10709,0.15674,0.82601
507.597,55.6784,-3.10709,0.15564,0.82545
508.297,55.7478,-3.10841,0.15551,0.82489
508.997,55.8171,-3.10841,0.15356,0.82433
509.697,55.8863,-3.10841,0.15364,0.82376
510.397,55.9555,-3.10706,0.15091,0.8232
511.097,56.0245,-3.10709,0.15064,0.82264
511.797,56.0939,-3.10709,0.15152,0.82208
512.497,56.16295,-3.10711,0.14952,0.82151
513.197,56.23225,-3.11226,0.14902,0.82095
513.897,56.30143,-3.12458,0.15107,0.82038
514.597,56.37084,-3.11837,0.15203,0.81982
515.297,56.44005,-3.11838,0.14985,0.81925
515.997,56.5094,-3.1184,0.14911,0.81868
516.697,56.5787,-3.11839,0.14916,0.81812
517.397,56.64793,-3.12037,0.14925,0.81755
518.097,56.71706,-3.1138,0.14904,0.81698
518.797,56.78581,-3.10743,0.14889,0.81641
519.497,56.85519,-3.10731,0.15135,0.81584
520.197,56.9246,-3.1076,0.14992,0.81527
520.897,56.9942,-3.10896,0.14906,0.8147
521.597,57.06351,-3.10898,0.15275,0.81413
522.297,57.13275,-3.11094,0.1545,0.81356
522.997,57.202,-3.11235,0.1536,0.81299
523.697,57.2712,-3.11225,0.15324,0.81242
524.397,57.3402,-3.11225,0.15329,0.81185
525.097,57.40928,-3.1112,0.15275,0.81127
525.797,57.4783,-3.11225,0.15197,0.8107
526.497,57.5474,-3.11225,0.15429,0.81013
527.197,57.6165,-3.11475,0.15576,0.80955
527.897,57.6859,-3.11563,0.15718,0.80898
528.597,57.75524,-3.1162,0.15533,0.8084
529.297,57.8246,-3.11618,0.15535,0.80783
529.997,57.89357,-3.11489,0.15585,0.80725
530.697,57.9628,-3.11489,0.15809,0.80667
531.397,58.0321,-3.11587,0.1582,0.8061
532.097,58.10168,-3.11652,0.15871,0.80552
532.797,58.17063,-3.11648,0.158,0.80494
533.497,58.2395,-3.11752,0.15986,0.80436
534.197,58.30826,-3.11785,0.16127,0.80378
534.897,58.3776,-3.12046,0.16285,0.8032
535.597,58.4469,-3.12049,0.16312,0.80262
536.297,58.51642,-3.11988,0.16373,0.80204
536.997,58.58549,-3.12048,0.16244,0.80146
537.697,58.6547,-3.12048,0.16204,0.80088
538.397,58.72425,-3.12048,0.16533,0.8003
539.097,58.79407,-3.12189,0.16172,0.79972
539.797,58.8644,-3.12312,0.16368,0.79913
540.497,58.9344,-3.12313,0.16561,0.79855
541.197,59.0044,-3.12311,0.16551,0.79796
541.897,59.07402,-3.12411,0.16625,0.79738
542.597,59.14355,-3.12411,0.16677,0.7968
543.297,59.21305,-3.12411,0.16752,0.79621
543.997,59.28253,-3.12447,0.16649,0.79562
544.697,59.35227,-3.12576,0.16759,0.79504
545.397,59.4222,-3.12575,0.17056,0.79445
546.097,59.49204,-3.12478,0.17038,0.79386
546.797,59.5617,-3.12613,0.16938,0.79328
547.497,59.6314,-3.12608,0.17035,0.79269
548.197,59.70106,-3.12738,0.1697,0.7921
548.897,59.77074,-3.12708,0.16926,0.79151
549.597,59.84015,-3.12707,0.17344,0.79092
550.297,59.90973,-3.12707,0.17052,0.79033
550.997,59.97877,-3.12707,0.17152,0.78974
551.697,60.04786,-3.12706,0.17436,0.78915
552.397,60.1171,-3.12706,0.17197,0.78856
553.097,60.1866,-3.127,0.17434,0.78797
553.797,60.2562,-3.12838,0.17717,0.78737
554.497,60.32581,-3.12937,0.17407,0.78678
555.197,60.39615,-3.12937,0.17404,0.78619
555.897,60.4665,-3.12803,0.17947,0.78559
556.597,60.5366,-3.12937,0.17676,0.785
557.297,60.60626,-3.12937,0.17867,0.78441
557.997,60.6759,-3.12937,0.17973,0.78381
558.697,60.7456,-3.12937,0.17948,0.78322
559.397,60.81513,-3.13069,0.17911,0.78262
560.097,60.88459,-3.12937,0.1805,0.78202
560.797,60.9538,-3.12938,0.17818,0.78143
561.497,61.02313,-3.13107,0.17831,0.78083
562.197,61.09242,-3.13103,0.17814,0.78023
562.897,61.1623,-3.13103,0.17866,0.77963
563.597,61.23234,-3.13233,0.18187,0.77903
564.297,61.30251,-3.13129,0.18107,0.77844
564.997,61.3723,-3.13268,0.18078,0.77784
565.697,61.44203,-3.13267,0.18213,0.77724
566.397,61.51171,-3.13267,0.18061,0.77664
567.097,61.58133,-3.134,0.18263,0.77603
567.797,61.6509,-3.13399,0.18086,0.77543
568.497,61.7205,-3.13399,0.18198,0.77483
569.197,61.79014,-3.13399,0.17942,0.77423
569.897,61.85996,-3.13399,0.18139,0.77363
570.597,61.92966,-3.13537,0.18154,0.77302
571.297,61.9992,-3.13531,0.18142,0.77242
571.997,62.06889,-3.13662,0.17807,0.77182
572.697,62.13853,-3.13662,0.17995,0.77121
573.397,62.2083,-3.13816,0.18236,0.77061
574.097,62.27777,-3.13948,0.17845,0.77
574.797,62.34734,-3.13947,0.17984,0.7694
575.497,62.41661,-3.14041,0.17988,0.76879
576.197,62.4863,-3.15395,0.18041,0.76819
576.897,62.5561,-3.15764,0.17961,0.76758
577.597,62.62611,-3.15711,0.18142,0.76697
578.297,62.69585,-3.1543,0.18221,0.76636
578.997,62.76569,-3.15222,0.18021,0.76576
579.697,62.8358,-3.15221,0.17995,0.76515
580.397,62.90575,-3.15288,0.17949,0.76454
581.097,62.97569,-3.15243,0.18199,0.76393
581.797,63.0455,-3.15155,0.17905,0.76332
582.497,63.1155,-3.15023,0.17983,0.76271
583.197,63.1854,-3.15022,0.18126,0.7621
583.897,63.25541,-3.14894,0.18309,0.76149
584.597,63.3254,-3.15023,0.18219,0.76088
585.297,63.3953,-3.15023,0.18298,0.76026
585.997,63.4652,-3.15155,0.18408,0.75965
586.697,63.53519,-3.15155,0.1824,0.75904
587.397,63.6051,-3.15154,0.18041,0.75843
588.097,63.67505,-3.16314,0.18546,0.75781
588.797,63.74494,-3.17153,0.18444,0.7572
589.497,63.81474,-3.16702,0.18554,0.75659
590.197,63.8844,-3.16367,0.18741,0.75597
590.897,63.954,-3.16222,0.18866,0.75536
591.597,64.02386,-3.16099,0.18896,0.75474
592.297,64.09362,-3.16,0.18852,0.75412
592.997,64.16362,-3.16,0.18803,0.75351
593.697,64.23343,-3.15868,0.19136,0.75289
594.397,64.3035,-3.15869,0.18693,0.75227
595.097,64.37344,-3.1613,0.18747,0.75166
595.797,64.44343,-3.16133,0.18575,0.75104
596.497,64.51349,-3.16,0.18775,0.75042
597.197,64.5835,-3.16133,0.18913,0.7498
597.897,64.65353,-3.16133,0.18855,0.74918
598.597,64.72341,-3.16203,0.18691,0.74856
599.297,64.79334,-3.16229,0.18647,0.74794
599.997,64.86329,-3.16132,0.18638,0.74732
600.697,64.9333,-3.16159,0.18915,0.7467
601.397,65.00332,-3.16264,0.18724,0.74608
602.097,65.07351,-3.16316,0.18583,0.74546
602.797,65.1438,-3.16399,0.18744,0.74484
603.497,65.214,-3.16396,0.1863,0.74422
604.197,65.28408,-3.16396,0.1894,0.74359
604.897,65.35395,-3.16386,0.18846,0.74297
605.597,65.4235,-3.16529,0.18877,0.74235
606.297,65.49348,-3.16685,0.18831,0.74172
606.997,65.56349,-3.1944,0.1936,0.7411
607.697,65.634,-3.20176,0.19657,0.74048
608.397,65.70391,-3.20624,0.20125,0.73985
609.097,65.77402,-3.20919,0.20647,0.73923
609.797,65.8439,-3.20787,0.20744,0.7386
610.497,65.914,-3.20655,0.21281,0.73798
611.197,65.98415,-3.20522,0.22245,0.73735
611.897,66.0544,-3.20397,0.22548,0.73672
612.597,66.1245,-3.2026,0.2349,0.7361
613.297,66.19461,-3.2026,0.2382,0.73547
613.997,66.2647,-3.20384,0.24753,0.73484
614.697,66.33476,-3.20387,0.25396,0.73421
615.397,66.40455,-3.20528,0.26182,0.73358
616.097,66.47418,-3.21699,0.2738,0.73296
616.797,66.54385,-3.227,0.28678,0.73233
617.497,66.61408,-3.23189,0.297,0.7317
618.197,66.68456,-3.23361,0.30561,0.73107
618.897,66.75495,-3.23137,0.31115,0.73044
619.597,66.82505,-3.22733,0.31558,0.72981
620.297,66.89528,-3.22598,0.31637,0.72917
620.997,66.96571,-3.22558,0.32444,0.72854
621.697,67.0363,-3.22209,0.34715,0.72791
622.397,67.10701,-3.21809,0.34344,0.72728
623.097,67.17793,-3.21263,0.3354,0.72665
623.797,67.2487,-3.20798,0.3319,0.72601
624.497,67.3194,-3.20644,0.33121,0.72538
625.197,67.39,-3.20302,0.32726,0.72475
625.897,67.46069,-3.20044,0.32527,0.72411
626.597,67.53134,-3.19578,0.32225,0.72348
627.297,67.60181,-3.19648,0.32164,0.72285
627.997,67.6724,-3.19306,0.32064,0.72221
628.697,67.74274,-3.19436,0.31456,0.72158
629.397,67.81336,-3.19205,0.31306,0.72094
630.097,67.88393,-3.19223,0.31519,0.7203
630.797,67.95464,-3.19347,0.31679,0.71967
631.497,68.02513,-3.19236,0.31794,0.71903
632.197,68.0954,-3.19237,0.30472,0.7184
632.897,68.1657,-3.19234,0.35714,0.71776
633.597,68.23614,-3.19983,0.38566,0.71712
634.297,68.3068,-3.20271,0.39517,0.71648
634.997,68.37728,-3.20271,0.40102,0.71584
635.697,68.44787,-3.20209,0.40465,0.71521
636.397,68.51846,-3.19997,0.40613,0.71457
637.097,68.58919,-3.19818,0.40172,0.71393
637.797,68.65952,-3.19558,0.4023,0.71329
638.497,68.73002,-3.19689,0.4026,0.71265
639.197,68.80033,-3.1935,0.40104,0.71201
639.897,68.87077,-3.19218,0.40021,0.71137
640.597,68.94099,-3.19349,0.39657,0.71073
641.297,69.01134,-3.19216,0.39902,0.71009
641.997,69.08182,-3.19187,0.39454,0.70944
642.697,69.1521,-3.19085,0.39621,0.7088
643.397,69.22253,-3.18954,0.39673,0.70816
644.097,69.29284,-3.19293,0.4013,0.70752
644.797,69.3635,-3.22311,0.40951,0.70688
645.497,69.43419,-3.2271,0.41315,0.70623
646.197,69.50487,-3.22462,0.41349,0.70559
646.897,69.57535,-3.21962,0.41238,0.70495
647.597,69.64579,-3.22038,0.42092,0.7043
648.297,69.7165,-3.22436,0.41961,0.70366
648.997,69.7872,-3.2399,0.42384,0.70301
649.697,69.85773,-3.24478,0.42904,0.70237
650.397,69.92833,-3.2419,0.42852,0.70172
651.097,69.99889,-3.23802,0.43028,0.70108
651.797,70.06951,-3.23474,0.42846,0.70043
652.497,70.13996,-3.22874,0.43047,0.69979
653.197,70.2104,-3.22706,0.42777,0.69914
653.897,70.2808,-3.22461,0.42776,0.69849
654.597,70.35101,-3.22382,0.42601,0.69785
655.297,70.42096,-3.21996,0.42525,0.6972
655.997,70.49065,-3.21732,0.42267,0.69655
656.697,70.5605,-3.22447,0.43001,0.6959
657.397,70.63076,-3.24058,0.43559,0.69526
658.097,70.70148,-3.24049,0.43984,0.69461
658.797,70.77231,-3.2361,0.43609,0.69396
659.497,70.8434,-3.24045,0.4407,0.69331
660.197,70.91456,-3.24253,0.44254,0.69266
660.897,70.98554,-3.23884,0.44069,0.69201
661.597,71.05632,-3.23447,0.43718,0.69136
662.297,71.1267,-3.23027,0.43299,0.69071
662.997,71.19729,-3.22709,0.43389,0.69006
663.697,71.26775,-3.22414,0.43363,0.68941
664.397,71.33829,-3.2228,0.43629,0.68876
665.097,71.4087,-3.22148,0.43244,0.68811
665.797,71.47923,-3.22181,0.43321,0.68746
666.497,71.54992,-3.22422,0.4397,0.68681
667.197,71.62053,-3.25359,0.44873,0.68615
667.897,71.69077,-3.25523,0.45098,0.6855
668.597,71.76111,-3.2507,0.45516,0.68485
669.297,71.83174,-3.24587,0.45156,0.6842
669.997,71.9025,-3.24235,0.44897,0.68354
670.697,71.9728,-3.24102,0.44752,0.68289
671.397,72.04289,-3.23971,0.44566,0.68224
672.097,72.11304,-3.23585,0.44563,0.68158
672.797,72.18341,-3.23263,0.4493,0.68093
673.497,72.25372,-3.2325,0.44951,0.68027
674.197,72.3241,-3.23421,0.45373,0.67962
674.897,72.3943,-3.23285,0.45211,0.67896
675.597,72.4645,-3.22956,0.44314,0.67831
676.297,72.5346,-3.2195,0.44557,0.67765
676.997,72.60503,-3.21684,0.44094,0.677
677.697,72.67546,-3.21551,0.44061,0.67634
678.397,72.74588,-3.21416,0.43836,0.67569
679.097,72.81604,-3.22255,0.43855,0.67503
679.797,72.8862,-3.22697,0.44231,0.67437
680.497,72.95647,-3.22825,0.44345,0.67372
681.197,73.027,-3.22972,0.44212,0.67306
681.897,73.09731,-3.22715,0.44128,0.6724
682.597,73.1677,-3.22708,0.43898,0.67174
683.297,73.23783,-3.22577,0.43736,0.67109
683.997,73.3082,-3.22445,0.43748,0.67043
684.697,73.37873,-3.22333,0.43729,0.66977
685.397,73.44941,-3.22268,0.43583,0.66911
686.097,73.51971,-3.23012,0.43855,0.66845
686.797,73.59008,-3.23348,0.43712,0.66779
687.497,73.6605,-3.23048,0.43762,0.66713
688.197,73.73096,-3.22907,0.4386,0.66647
688.897,73.80136,-3.22765,0.43555,0.66581
689.597,73.87161,-3.22486,0.4334,0.66515
690.297,73.94198,-3.22357,0.43274,0.66449
690.997,74.0121,-3.22228,0.43181,0.66383
691.697,74.08245,-3.22225,0.43266,0.66317
692.397,74.1528,-3.22528,0.43358,0.66251
693.097,74.22331,-3.22891,0.43677,0.66185
693.797,74.2937,-3.22961,0.43317,0.66119
694.497,74.36395,-3.22821,0.43564,0.66053
695.197,74.43435,-3.22661,0.4329,0.65987
695.897,74.50479,-3.22598,0.43236,0.6592
696.597,74.57542,-3.22186,0.42916,0.65854
697.297,74.64584,-3.21712,0.42769,0.65788
697.997,74.71638,-3.21903,0.42456,0.65722
698.697,74.7864,-3.21907,0.42626,0.65655
699.397,74.8566,-3.21907,0.42435,0.65589
700.097,74.92659,-3.21939,0.42443,0.65523
700.797,74.997,-3.2194,0.42581,0.65456
701.497,75.0673,-3.2194,0.422,0.6539
702.197,75.13757,-3.22039,0.4228,0.65324
702.897,75.208,-3.2194,0.42441,0.65257
703.597,75.27888,-3.22038,0.42166,0.65191
704.297,75.3502,-3.2251,0.42749,0.65124
704.997,75.42126,-3.23226,0.42918,0.65058
705.697,75.49192,-3.23224,0.42745,0.64991
706.397,75.56249,-3.2322,0.42808,0.64925
707.097,75.63285,-3.22945,0.4262,0.64858
707.797,75.7032,-3.22917,0.42823,0.64792
708.497,75.77351,-3.22862,0.42703,0.64725
709.197,75.8439,-3.22819,0.42827,0.64659
709.897,75.9144,-3.22686,0.4276,0.64592
710.597,75.98488,-3.22489,0.42966,0.64525
711.297,76.05552,-3.22354,0.42279,0.64459
711.997,76.12605,-3.22357,0.42683,0.64392
712.697,76.1965,-3.22357,0.42363,0.64325
713.397,76.2668,-3.22357,0.42438,0.64259
714.097,76.3369,-3.22491,0.42443,0.64192
714.797,76.40703,-3.22621,0.4213,0.64125
715.497,76.47734,-3.22621,0.42084,0.64058
716.197,76.54774,-3.22621,0.42192,0.63992
716.897,76.6182,-3.22621,0.41833,0.63925
717.597,76.6892,-3.22489,0.41903,0.63858
718.297,76.76029,-3.22504,0.42217,0.63791
718.997,76.8314,-3.22712,0.42034,0.63724
719.697,76.90208,-3.22884,0.42235,0.63658
720.397,76.97273,-3.23018,0.4241,0.63591
721.097,77.0434,-3.24041,0.43322,0.63524
721.797,77.11406,-3.25984,0.43668,0.63457
722.497,77.18491,-3.26112,0.43972,0.6339
723.197,77.25565,-3.25615,0.43587,0.63323
723.897,77.32641,-3.25319,0.436,0.63256
724.597,77.3969,-3.24775,0.43221,0.63189
725.297,77.46762,-3.24026,0.42469,0.63122
725.997,77.53839,-3.23554,0.42132,0.63055
726.697,77.6092,-3.23419,0.42379,0.62988
727.397,77.68004,-3.2322,0.42293,0.62921
728.097,77.75075,-3.23223,0.42411,0.62854
728.797,77.82164,-3.23092,0.4214,0.62787
729.497,77.89241,-3.23092,0.42183,0.6272
730.197,77.96333,-3.23026,0.42111,0.62653
730.897,78.0342,-3.23026,0.41805,0.62586
731.597,78.1049,-3.23026,0.41961,0.62519
732.297,78.17573,-3.22829,0.41515,0.62451
732.997,78.2465,-3.2283,0.41475,0.62384
733.697,78.31729,-3.2283,0.41548,0.62317
734.397,78.3879,-3.22764,0.41608,0.6225
735.097,78.45854,-3.22865,0.4188,0.62183
735.797,78.52919,-3.24366,0.41544,0.62116
736.497,78.59998,-3.24542,0.41635,0.62048
737.197,78.6709,-3.24409,0.41632,0.61981
737.897,78.74173,-3.24479,0.4179,0.61914
738.597,78.8125,-3.24596,0.41754,0.61847
739.297,78.88309,-3.24625,0.41632,0.61779
739.997,78.95366,-3.24439,0.41345,0.61712
740.697,79.02416,-3.2419,0.41563,0.61645
741.397,79.0945,-3.24563,0.42195,0.61577
742.097,79.1649,-3.25373,0.42365,0.6151
742.797,79.23532,-3.25248,0.4238,0.61443
743.497,79.306,-3.2511,0.42384,0.61375
744.197,79.37671,-3.24897,0.42326,0.61308
744.897,79.44731,-3.24719,0.42266,0.61241
745.597,79.5179,-3.2452,0.41746,0.61173
746.297,79.58851,-3.24224,0.41531,0.61106
746.997,79.65929,-3.24086,0.4179,0.61038
747.697,79.73,-3.23798,0.41871,0.60971
748.397,79.80043,-3.23664,0.41617,0.60904
749.097,79.87096,-3.23664,0.41676,0.60836
749.797,79.94136,-3.23532,0.41605,0.60769
750.497,80.012,-3.23399,0.41336,0.60701
751.197,80.0826,-3.23398,0.41115,0.60634
751.897,80.1533,-3.23147,0.40963,0.60566
752.597,80.22417,-3.22553,0.40731,0.60499
753.297,80.29509,-3.2225,0.4049,0.60431
753.997,80.36596,-3.22247,0.40349,0.60364
754.697,80.43664,-3.22122,0.40475,0.60296
755.397,80.50731,-3.22088,0.4006,0.60229
756.097,80.57803,-3.22082,0.40408,0.60161
756.797,80.6489,-3.22114,0.40378,0.60094
757.497,80.71976,-3.22082,0.40428,0.60026
758.197,80.79084,-3.21951,0.40205,0.59959
758.897,80.86175,-3.21951,0.40081,0.59891
759.597,80.93275,-3.21984,0.40091,0.59823
760.297,81.0036,-3.21984,0.39837,0.59756
760.997,81.07454,-3.21856,0.40004,0.59688
761.697,81.14534,-3.21852,0.40038,0.59621
762.397,81.21647,-3.21854,0.40009,0.59553
763.097,81.28758,-3.21984,0.40093,0.59485
763.797,81.35866,-3.21852,0.39858,0.59418
764.497,81.42971,-3.21852,0.39933,0.5935
765.197,81.5007,-3.21852,0.39899,0.59282
765.897,81.57175,-3.21852,0.39793,0.59215
766.597,81.6426,-3.21774,0.39808,0.59147
767.297,81.71364,-3.2172,0.39738,0.59079
767.997,81.78469,-3.21852,0.39645,0.59012
768.697,81.8559,-3.21852,0.39898,0.58944
769.397,81.9269,-3.21852,0.40068,0.58876
770.097,81.9981,-3.22266,0.40143,0.58809
770.797,82.06904,-3.23072,0.40081,0.58741
771.497,82.13941,-3.23202,0.40419,0.58673
772.197,82.20976,-3.23202,0.40192,0.58606
772.897,82.28073,-3.23072,0.40132,0.58538
773.597,82.35259,-3.22807,0.39833,0.5847
774.297,82.42425,-3.22677,0.39939,0.58402
774.997,82.49544,-3.22816,0.39851,0.58335
775.697,82.56644,-3.22626,0.3989,0.58267
776.397,82.63745,-3.22453,0.39619,0.58199
777.097,82.70838,-3.22412,0.39707,0.58131
777.797,82.7791,-3.2228,0.3968,0.58064
778.497,82.84968,-3.2228,0.39986,0.57996
779.197,82.92068,-3.22175,0.39817,0.57928
779.897,82.99172,-3.23234,0.40166,0.5786
780.597,83.06304,-3.23502,0.40015,0.57793
781.297,83.1339,-3.23641,0.39642,0.57725
781.997,83.20486,-3.23378,0.39772,0.57657
782.697,83.27584,-3.23398,0.39901,0.57589
783.397,83.3469,-3.23224,0.39658,0.57522
784.097,83.41793,-3.23114,0.39707,0.57454
784.797,83.48903,-3.22983,0.39388,0.57386
785.497,83.55991,-3.22853,0.39421,0.57318
786.197,83.63073,-3.22966,0.39406,0.5725
786.897,83.7016,-3.23017,0.39614,0.57183
787.597,83.77282,-3.22884,0.39301,0.57115
788.297,83.84391,-3.22784,0.39503,0.57047
788.997,83.91503,-3.22647,0.39396,0.56979
789.697,83.98601,-3.22662,0.39431,0.56911
790.397,84.057,-3.22524,0.39217,0.56843
791.097,84.12796,-3.22491,0.39115,0.56776
791.797,84.19876,-3.22225,0.39087,0.56708
792.497,84.2698,-3.22225,0.3902,0.5664
793.197,84.34052,-3.21964,0.39077,0.56572
793.897,84.4115,-3.21922,0.38737,0.56504
794.597,84.4826,-3.21831,0.3871,0.56436
795.297,84.5539,-3.21778,0.38618,0.56369
795.997,84.6251,-3.21699,0.39013,0.56301
796.697,84.69595,-3.21486,0.38529,0.56233
797.397,84.76706,-3.19755,0.38094,0.56165
798.097,84.8381,-3.19679,0.37778,0.56097
798.797,84.90929,-3.1981,0.37766,0.5603
799.497,84.9802,-3.19946,0.38013,0.55962
799.597,84.99051,-3.19941,0.38142,0.55952