File: 01_Data/LatexPillow_A_Outer_Fabric/MCC/LatexPillow_A_Outer_Fabric_MCC_30K_min_211210_R1.txt
Sample ID:	C:\MCC\MCC Cal\Test\LatexPillow_A_Outer_Fabric_MCC_30K_min_211210_R1.txt
Sample Weight (mg):	4.62
Heating Rate (C/s):	0.5
Combustor Temp (C):	900
N2 Flow Rate (cc/min):	80
O2 Flow Rate (cc/min):	20
Calibration File:	C:\MCC\MCC Cal\Coeff1 JN10440_30_210304.txt.txt
T Correction Coefficients:	0	1.024463	0
Time Shift (s):	14
*
Time (s)	Temperature (C)	N2 flow rate (cc/min)	O2 flow rate (cc/min)	Flow Rate (cc/min)	Oxygen (%)	HRR (W/g)	Heating rate (C/s)
0.000	109.254	80.009	19.996	103.099	20.164	-0.126	-0.002
1.500	109.287	80.008	19.995	103.097	20.163	-0.086	0.008
3.000	109.247	80.007	19.996	103.098	20.165	-0.195	-0.027
4.500	109.278	80.008	19.995	103.098	20.164	-0.132	-0.005
6.000	109.254	80.009	19.995	103.108	20.159	0.186	-0.027
7.500	109.265	80.010	19.995	103.115	20.163	-0.090	0.021
9.001	109.284	80.011	19.995	103.118	20.159	0.192	-0.002
10.501	109.293	80.011	19.994	103.128	20.160	0.125	0.002
12.000	109.286	80.008	19.994	103.127	20.156	0.428	-0.023
13.500	109.289	80.009	19.993	103.133	20.155	0.474	0.009
15.000	109.328	80.011	19.994	103.145	20.156	0.405	0.003
16.500	109.328	80.009	19.994	103.156	20.156	0.451	0.018
18.000	109.384	80.009	19.994	103.171	20.150	0.852	0.029
19.500	109.367	80.008	19.995	103.189	20.149	0.871	-0.019
21.000	109.442	80.008	19.995	103.212	20.150	0.856	0.061
22.500	109.504	80.009	19.995	103.217	20.146	1.128	0.055
24.000	109.572	80.009	19.994	103.214	20.144	1.248	0.041
25.500	109.646	80.007	19.994	103.225	20.143	1.321	0.046
27.000	109.717	80.010	19.995	103.246	20.142	1.392	0.060
28.500	109.857	80.008	19.996	103.254	20.140	1.544	0.094
30.000	109.980	80.009	19.995	103.277	20.135	1.891	0.079
31.500	110.090	80.012	19.995	103.272	20.134	1.945	0.067
33.000	110.291	80.009	19.994	103.272	20.132	2.066	0.130
34.500	110.454	80.010	19.994	103.293	20.132	2.085	0.128
36.000	110.671	80.008	19.994	103.302	20.132	2.068	0.157
37.501	110.848	80.010	19.995	103.301	20.129	2.310	0.126
39.001	111.059	80.007	19.995	103.316	20.128	2.391	0.151
40.501	111.323	80.009	19.994	103.313	20.126	2.491	0.179
42.001	111.538	80.009	19.994	103.318	20.126	2.477	0.159
43.501	111.818	80.007	19.995	103.318	20.125	2.595	0.167
45.000	112.106	80.008	19.995	103.324	20.121	2.893	0.202
46.501	112.379	80.007	19.995	103.336	20.122	2.823	0.192
48.000	112.730	80.009	19.995	103.336	20.122	2.804	0.227
49.500	113.076	80.006	19.995	103.343	20.118	3.081	0.232
51.001	113.413	80.007	19.995	103.348	20.117	3.150	0.234
52.501	113.762	80.008	19.996	103.337	20.115	3.262	0.257
54.000	114.145	80.006	19.996	103.348	20.116	3.181	0.266
55.501	114.497	80.008	19.995	103.364	20.114	3.339	0.241
57.000	114.920	80.004	19.995	103.364	20.114	3.345	0.269
58.500	115.342	80.005	19.996	103.367	20.111	3.547	0.289
60.000	115.761	80.007	19.995	103.372	20.109	3.700	0.291
61.501	116.228	80.006	19.996	103.376	20.111	3.564	0.317
63.000	116.703	80.008	19.996	103.383	20.110	3.626	0.291
64.501	117.188	80.008	19.995	103.382	20.110	3.622	0.338
66.000	117.673	80.006	19.995	103.374	20.107	3.827	0.338
67.500	118.214	80.008	19.995	103.383	20.108	3.764	0.365
69.001	118.737	80.006	19.995	103.392	20.107	3.838	0.370
70.500	119.260	80.009	19.994	103.391	20.107	3.823	0.357
72.000	119.805	80.009	19.995	103.392	20.107	3.868	0.368
73.500	120.376	80.008	19.995	103.399	20.107	3.814	0.392
75.000	120.942	80.007	19.994	103.400	20.104	4.039	0.375
76.500	121.495	80.006	19.995	103.391	20.103	4.106	0.360
78.001	122.115	80.007	19.995	103.393	20.105	4.009	0.423
79.500	122.733	80.006	19.994	103.394	20.108	3.777	0.413
81.000	123.320	80.007	19.994	103.386	20.106	3.907	0.370
82.500	123.956	80.006	19.994	103.402	20.105	3.996	0.425
84.001	124.604	80.007	19.994	103.396	20.106	3.889	0.465
85.500	125.224	80.007	19.995	103.398	20.104	4.033	0.424
87.000	125.897	80.007	19.994	103.396	20.108	3.754	0.447
88.501	126.529	80.008	19.994	103.380	20.109	3.733	0.414
90.000	127.196	80.007	19.996	103.379	20.108	3.738	0.440
91.500	127.891	80.007	19.995	103.386	20.109	3.668	0.454
93.000	128.539	80.008	19.994	103.380	20.106	3.937	0.437
94.500	129.235	80.009	19.994	103.388	20.110	3.622	0.476
96.000	129.910	80.009	19.994	103.392	20.112	3.480	0.446
97.501	130.637	80.008	19.995	103.384	20.110	3.639	0.473
99.001	131.306	80.008	19.994	103.386	20.112	3.493	0.462
100.500	132.032	80.008	19.995	103.386	20.108	3.740	0.490
102.001	132.775	80.008	19.995	103.398	20.109	3.709	0.496
103.500	133.486	80.007	19.994	103.403	20.111	3.563	0.452
105.000	134.224	80.007	19.995	103.401	20.112	3.511	0.482
106.501	134.963	80.005	19.993	103.404	20.111	3.582	0.473
108.000	135.706	80.009	19.998	103.407	20.113	3.402	0.483
109.500	136.434	80.008	19.995	103.402	20.111	3.573	0.485
111.001	137.207	80.008	19.995	103.384	20.111	3.551	0.513
112.500	137.952	80.008	19.994	103.380	20.113	3.428	0.509
114.001	138.676	80.009	19.996	103.376	20.112	3.499	0.497
115.500	139.428	80.009	19.996	103.381	20.111	3.563	0.517
117.000	140.188	80.011	19.993	103.376	20.109	3.711	0.493
118.500	140.984	80.010	19.994	103.373	20.111	3.532	0.530
120.001	141.759	80.011	19.994	103.368	20.113	3.440	0.528
121.500	142.516	80.009	19.996	103.370	20.109	3.684	0.506
123.000	143.298	80.009	19.995	103.367	20.111	3.565	0.513
124.501	144.053	80.009	19.996	103.363	20.109	3.718	0.503
126.000	144.815	80.008	19.995	103.363	20.111	3.543	0.513
127.500	145.623	80.006	19.996	103.364	20.107	3.848	0.533
129.000	146.368	80.008	19.996	103.364	20.109	3.724	0.500
130.500	147.133	80.006	19.995	103.363	20.109	3.668	0.512
132.000	147.949	80.007	19.995	103.361	20.111	3.547	0.563
133.500	148.734	80.007	19.995	103.359	20.112	3.489	0.535
135.000	149.502	80.007	19.996	103.358	20.113	3.422	0.514
136.500	150.274	80.007	19.996	103.352	20.114	3.324	0.517
138.000	151.008	80.007	19.995	103.347	20.112	3.520	0.501
139.500	151.774	80.008	19.995	103.351	20.114	3.345	0.501
141.000	152.567	80.007	19.995	103.350	20.115	3.260	0.517
142.500	153.323	80.007	19.995	103.338	20.111	3.565	0.502
144.000	154.079	80.006	19.995	103.340	20.111	3.560	0.512
145.500	154.837	80.005	19.996	103.340	20.111	3.537	0.508
147.000	155.580	80.007	19.995	103.331	20.111	3.571	0.486
148.500	156.345	80.006	19.995	103.330	20.113	3.448	0.513
150.000	157.155	80.006	19.995	103.334	20.114	3.349	0.532
151.500	157.884	80.004	19.996	103.332	20.112	3.510	0.474
153.000	158.675	80.006	19.996	103.329	20.108	3.765	0.504
154.500	159.396	80.006	19.995	103.328	20.110	3.596	0.495
156.000	160.149	80.006	19.997	103.331	20.111	3.565	0.488
157.500	160.931	80.004	19.996	103.331	20.111	3.539	0.528
159.000	161.661	80.005	19.995	103.329	20.115	3.266	0.476
160.500	162.456	80.006	19.996	103.329	20.115	3.281	0.523
162.000	163.201	80.005	19.996	103.329	20.119	3.012	0.490
163.500	163.974	80.007	19.996	103.328	20.116	3.181	0.507
165.000	164.696	80.007	19.995	103.329	20.115	3.293	0.478
166.501	165.467	80.005	19.994	103.329	20.115	3.277	0.513
168.000	166.224	80.007	19.995	103.329	20.116	3.206	0.502
169.501	166.977	80.007	19.995	103.330	20.113	3.438	0.500
171.000	167.719	80.006	19.993	103.322	20.116	3.223	0.506
172.500	168.489	80.007	19.994	103.318	20.116	3.177	0.510
174.000	169.248	80.008	19.995	103.326	20.118	3.047	0.504
175.500	169.997	80.008	19.994	103.327	20.117	3.167	0.499
177.000	170.772	80.009	19.993	103.325	20.114	3.334	0.507
178.500	171.482	80.009	19.996	103.323	20.115	3.298	0.479
180.000	172.205	80.008	19.994	103.317	20.117	3.125	0.480
181.501	172.922	80.007	19.994	103.307	20.117	3.169	0.481
183.000	173.649	80.007	19.994	103.306	20.113	3.384	0.478
184.500	174.390	80.008	19.995	103.311	20.112	3.469	0.513
186.000	175.130	80.008	19.996	103.307	20.111	3.565	0.487
187.500	175.831	80.008	19.995	103.300	20.112	3.507	0.482
189.001	176.602	80.006	19.994	103.311	20.112	3.471	0.502
190.500	177.312	80.005	19.996	103.317	20.115	3.267	0.474
192.001	178.020	80.007	19.995	103.311	20.112	3.484	0.447
193.501	178.767	80.007	19.995	103.303	20.113	3.388	0.513
195.000	179.484	80.008	19.994	103.315	20.111	3.582	0.457
196.500	180.232	80.009	19.994	103.316	20.112	3.501	0.498
198.001	180.945	80.008	19.994	103.306	20.112	3.464	0.487
199.501	181.682	80.008	19.994	103.312	20.111	3.580	0.482
201.001	182.425	80.008	19.994	103.303	20.112	3.463	0.505
202.500	183.158	80.010	19.995	103.301	20.112	3.490	0.473
204.000	183.900	80.010	19.993	103.301	20.115	3.302	0.484
205.501	184.627	80.008	19.995	103.298	20.117	3.119	0.501
207.001	185.385	80.009	19.995	103.306	20.116	3.213	0.490
208.501	186.131	80.008	19.994	103.298	20.115	3.296	0.487
210.000	186.876	80.008	19.995	103.290	20.111	3.539	0.514
211.500	187.588	80.007	19.995	103.290	20.110	3.620	0.506
213.000	188.365	80.006	19.995	103.299	20.109	3.710	0.499
214.501	189.100	80.006	19.995	103.302	20.111	3.537	0.499
216.000	189.781	80.006	19.994	103.297	20.106	3.890	0.481
217.500	190.571	80.007	19.995	103.295	20.110	3.593	0.509
219.000	191.296	80.006	19.995	103.299	20.111	3.545	0.459
220.500	192.067	80.008	19.994	103.296	20.113	3.418	0.493
222.000	192.723	80.008	19.995	103.293	20.110	3.622	0.439
223.500	193.491	80.006	19.995	103.292	20.117	3.111	0.495
225.001	194.234	80.005	19.995	103.292	20.114	3.336	0.487
226.501	194.916	80.006	19.994	103.291	20.113	3.440	0.468
228.000	195.616	80.006	19.996	103.293	20.115	3.288	0.485
229.501	196.386	80.006	19.996	103.302	20.115	3.278	0.513
231.000	197.107	80.007	19.996	103.295	20.115	3.273	0.495
232.500	197.840	80.006	19.995	103.292	20.116	3.217	0.503
234.000	198.561	80.006	19.996	103.293	20.116	3.182	0.468
235.500	199.322	80.006	19.995	103.293	20.119	3.013	0.516
237.001	200.014	80.006	19.994	103.299	20.117	3.134	0.456
238.500	200.770	80.005	19.995	103.297	20.119	3.021	0.501
240.000	201.540	80.005	19.995	103.291	20.116	3.190	0.497
241.500	202.278	80.005	19.995	103.293	20.118	3.044	0.485
243.000	203.027	80.006	19.994	103.293	20.117	3.149	0.498
244.501	203.781	80.005	19.996	103.291	20.120	2.960	0.501
246.000	204.514	80.006	19.996	103.290	20.120	2.938	0.498
247.500	205.262	80.005	19.995	103.290	20.119	2.992	0.494
249.000	205.984	80.005	19.996	103.288	20.122	2.775	0.465
250.500	206.714	80.006	19.997	103.290	20.120	2.929	0.498
252.000	207.483	80.005	19.996	103.294	20.118	3.088	0.502
253.500	208.189	80.005	19.997	103.285	20.124	2.675	0.481
255.000	208.945	80.007	19.995	103.285	20.122	2.794	0.462
256.501	209.676	80.007	19.994	103.291	20.120	2.898	0.484
258.001	210.428	80.006	19.996	103.289	20.122	2.789	0.515
259.500	211.180	80.007	19.995	103.284	20.119	2.984	0.504
261.000	211.913	80.008	19.995	103.285	20.119	2.998	0.488
262.500	212.632	80.008	19.995	103.284	20.123	2.739	0.483
264.000	213.398	80.008	19.996	103.284	20.125	2.564	0.518
265.500	214.156	80.007	19.994	103.287	20.123	2.710	0.487
267.000	214.920	80.008	19.995	103.288	20.125	2.608	0.507
268.500	215.624	80.007	19.994	103.286	20.125	2.574	0.466
270.000	216.380	80.007	19.995	103.286	20.125	2.606	0.496
271.500	217.118	80.006	19.995	103.288	20.124	2.614	0.484
273.000	217.900	80.006	19.996	103.288	20.127	2.461	0.509
274.501	218.639	80.007	19.994	103.289	20.126	2.518	0.459
276.000	219.343	80.007	19.995	103.286	20.129	2.288	0.468
277.500	220.115	80.008	19.995	103.287	20.128	2.345	0.515
279.000	220.860	80.008	19.993	103.288	20.130	2.226	0.517
280.500	221.637	80.009	19.994	103.290	20.129	2.328	0.506
282.000	222.395	80.008	19.995	103.288	20.130	2.215	0.511
283.501	223.161	80.009	19.995	103.287	20.130	2.219	0.526
285.000	223.956	80.009	19.995	103.288	20.133	2.011	0.528
286.501	224.707	80.008	19.993	103.288	20.136	1.844	0.523
288.000	225.445	80.009	19.995	103.289	20.132	2.105	0.485
289.500	226.224	80.010	19.995	103.288	20.135	1.912	0.525
291.000	226.927	80.007	19.994	103.288	20.134	1.977	0.498
292.500	227.749	80.008	19.994	103.290	20.134	1.942	0.534
294.001	228.517	80.008	19.994	103.290	20.133	2.042	0.535
295.501	229.276	80.007	19.995	103.288	20.134	1.921	0.517
297.000	230.092	80.006	19.994	103.288	20.132	2.061	0.541
298.501	230.860	80.007	19.994	103.289	20.133	2.021	0.523
300.001	231.575	80.007	19.994	103.291	20.133	2.000	0.454
301.501	232.359	80.005	19.995	103.289	20.133	2.052	0.511
303.000	233.128	80.008	19.994	103.290	20.131	2.186	0.521
304.500	233.911	80.006	19.994	103.292	20.129	2.267	0.511
306.000	234.683	80.006	19.993	103.292	20.132	2.061	0.492
307.500	235.388	80.007	19.994	103.291	20.127	2.426	0.477
309.001	236.147	80.008	19.995	103.288	20.132	2.123	0.493
310.500	236.907	80.007	19.994	103.287	20.137	1.735	0.513
312.000	237.708	80.005	19.994	103.285	20.138	1.706	0.536
313.500	238.435	80.007	19.994	103.287	20.138	1.641	0.489
315.000	239.100	80.007	19.994	103.287	20.138	1.685	0.517
316.501	239.914	80.006	19.994	103.286	20.138	1.670	0.545
318.000	240.740	80.005	19.994	103.282	20.136	1.816	0.543
319.500	241.281	80.006	19.994	103.280	20.133	1.998	0.560
321.000	242.202	80.006	19.995	103.282	20.133	2.023	0.768
322.501	242.750	80.007	19.995	103.282	20.132	2.082	0.569
324.000	243.539	80.006	19.995	103.279	20.136	1.835	0.528
325.500	244.340	80.006	19.995	103.283	20.133	1.990	0.479
327.001	245.105	80.007	19.995	103.287	20.136	1.837	0.466
328.500	245.940	80.006	19.996	103.284	20.134	1.931	0.518
330.000	246.615	80.006	19.995	103.284	20.135	1.879	0.443
331.500	247.346	80.007	19.995	103.282	20.134	1.938	0.492
333.000	248.111	80.006	19.995	103.285	20.135	1.892	0.506
334.500	248.902	80.007	19.995	103.282	20.134	1.919	0.522
336.000	249.622	80.007	19.995	103.282	20.138	1.698	0.531
337.500	250.374	80.006	19.995	103.279	20.136	1.777	0.503
339.000	251.111	80.006	19.995	103.280	20.137	1.771	0.486
340.500	251.928	80.007	19.995	103.282	20.136	1.802	0.528
342.000	252.630	80.006	19.995	103.276	20.136	1.842	0.470
343.500	253.377	80.008	19.995	103.281	20.137	1.741	0.502
345.001	254.147	80.007	19.995	103.285	20.138	1.697	0.530
346.500	254.869	80.007	19.996	103.284	20.135	1.913	0.492
348.001	255.609	80.006	19.995	103.282	20.136	1.838	0.496
349.501	256.377	80.008	19.996	103.286	20.137	1.746	0.519
351.000	257.091	80.007	19.995	103.283	20.133	2.005	0.497
352.500	257.812	80.007	19.995	103.275	20.135	1.896	0.488
354.000	258.590	80.007	19.996	103.274	20.136	1.804	0.513
355.500	259.350	80.008	19.995	103.281	20.139	1.595	0.543
357.000	260.050	80.006	19.996	103.286	20.137	1.727	0.450
358.500	260.821	80.007	19.995	103.279	20.136	1.806	0.516
360.000	261.513	80.008	19.994	103.274	20.134	1.921	0.477
361.500	262.248	80.008	19.994	103.278	20.142	1.424	0.491
363.000	263.039	80.008	19.995	103.278	20.137	1.725	0.517
364.500	263.782	80.009	19.995	103.279	20.140	1.528	0.477
366.000	264.517	80.009	19.994	103.285	20.136	1.802	0.511
367.500	265.320	80.009	19.994	103.286	20.135	1.861	0.521
369.000	266.045	80.009	19.994	103.282	20.141	1.483	0.479
370.501	266.806	80.009	19.994	103.281	20.138	1.668	0.509
372.000	267.561	80.009	19.994	103.279	20.135	1.858	0.504
373.501	268.316	80.009	19.994	103.277	20.135	1.879	0.523
375.000	269.042	80.010	19.994	103.285	20.137	1.735	0.480
376.500	269.832	80.008	19.994	103.286	20.142	1.393	0.527
378.000	270.601	80.009	19.994	103.279	20.141	1.470	0.511
379.500	271.398	80.007	19.994	103.280	20.142	1.374	0.538
381.001	272.151	80.006	19.994	103.279	20.138	1.696	0.487
382.500	272.916	80.006	19.994	103.274	20.140	1.501	0.507
384.000	273.645	80.007	19.994	103.271	20.143	1.307	0.484
385.500	274.418	80.007	19.995	103.272	20.140	1.502	0.508
387.000	275.154	80.008	19.995	103.271	20.139	1.625	0.495
388.501	275.940	80.007	19.993	103.276	20.142	1.414	0.539
390.001	276.708	80.008	19.994	103.273	20.142	1.370	0.519
391.500	277.502	80.008	19.995	103.268	20.142	1.360	0.532
393.000	278.253	80.009	19.994	103.272	20.144	1.247	0.513
394.500	278.976	80.007	19.994	103.262	20.139	1.591	0.479
396.001	279.764	80.006	19.995	103.265	20.141	1.445	0.525
397.500	280.495	80.009	19.995	103.257	20.147	1.017	0.497
399.000	281.275	80.009	19.994	103.260	20.144	1.238	0.535
400.500	281.989	80.008	19.995	103.267	20.144	1.232	0.501
402.000	282.735	80.009	19.996	103.262	20.143	1.322	0.476
403.501	283.535	80.009	19.994	103.257	20.145	1.168	0.520
405.000	284.309	80.007	19.994	103.255	20.140	1.508	0.508
406.501	285.057	80.007	19.994	103.264	20.143	1.293	0.494
408.001	285.772	80.007	19.994	103.263	20.143	1.293	0.459
409.500	286.565	80.008	19.995	103.255	20.139	1.594	0.508
411.000	287.352	80.006	19.995	103.260	20.149	0.923	0.532
412.500	288.073	80.007	19.995	103.270	20.140	1.514	0.471
414.000	288.857	80.005	19.995	103.260	20.147	1.061	0.517
415.500	289.598	80.006	19.994	103.255	20.144	1.218	0.487
417.000	290.365	80.007	19.995	103.256	20.145	1.165	0.492
418.500	291.133	80.006	19.995	103.263	20.143	1.314	0.488
420.000	291.885	80.007	19.996	103.262	20.145	1.149	0.502
421.500	292.662	80.008	19.995	103.256	20.139	1.587	0.487
423.000	293.431	80.007	19.995	103.256	20.142	1.391	0.497
424.500	294.174	80.008	19.996	103.261	20.142	1.378	0.512
426.000	294.947	80.009	19.995	103.252	20.141	1.473	0.519
427.500	295.689	80.008	19.995	103.258	20.140	1.535	0.489
429.000	296.444	80.008	19.994	103.255	20.141	1.487	0.486
430.500	297.177	80.008	19.994	103.255	20.144	1.236	0.503
432.001	297.932	80.008	19.995	103.263	20.140	1.504	0.494
433.501	298.670	80.007	19.995	103.255	20.144	1.236	0.502
435.000	299.462	80.007	19.994	103.252	20.145	1.207	0.540
436.501	300.200	80.008	19.994	103.252	20.144	1.230	0.487
438.000	300.948	80.008	19.996	103.253	20.145	1.163	0.513
439.500	301.670	80.007	19.995	103.254	20.142	1.387	0.497
441.000	302.416	80.007	19.995	103.253	20.145	1.184	0.507
442.500	303.184	80.007	19.995	103.253	20.144	1.239	0.505
444.000	303.914	80.007	19.995	103.250	20.148	1.001	0.499
445.500	304.695	80.009	19.996	103.248	20.144	1.245	0.502
447.001	305.457	80.008	19.995	103.246	20.148	0.982	0.492
448.500	306.189	80.009	19.995	103.247	20.147	1.076	0.491
450.000	306.955	80.008	19.995	103.248	20.149	0.919	0.508
451.500	307.699	80.010	19.995	103.246	20.144	1.224	0.461
453.000	308.441	80.010	19.995	103.244	20.147	1.013	0.513
454.501	309.188	80.009	19.995	103.245	20.148	1.003	0.506
456.000	309.928	80.010	19.994	103.245	20.147	1.036	0.492
457.500	310.694	80.010	19.993	103.247	20.148	1.005	0.505
459.000	311.495	80.009	19.994	103.247	20.149	0.934	0.548
460.500	312.274	80.009	19.995	103.246	20.146	1.101	0.528
462.000	313.009	80.008	19.994	103.246	20.143	1.301	0.494
463.500	313.754	80.008	19.995	103.246	20.144	1.264	0.503
465.000	314.512	80.007	19.994	103.247	20.147	1.030	0.492
466.500	315.250	80.007	19.994	103.248	20.144	1.266	0.485
468.001	316.009	80.008	19.995	103.253	20.146	1.132	0.504
469.500	316.743	80.008	19.994	103.251	20.145	1.212	0.497
471.000	317.530	80.007	19.994	103.247	20.143	1.326	0.530
472.501	318.293	80.007	19.995	103.249	20.142	1.379	0.500
474.001	319.030	80.007	19.995	103.249	20.143	1.307	0.511
475.500	319.777	80.006	19.995	103.251	20.141	1.439	0.479
477.001	320.496	80.006	19.995	103.249	20.141	1.439	0.483
478.500	321.278	80.007	19.994	103.247	20.145	1.188	0.517
480.001	322.055	80.007	19.994	103.248	20.145	1.213	0.512
481.500	322.804	80.006	19.994	103.247	20.149	0.919	0.507
483.000	323.562	80.007	19.994	103.249	20.145	1.193	0.513
484.500	324.287	80.006	19.994	103.250	20.143	1.312	0.482
486.000	325.043	80.007	19.994	103.250	20.144	1.259	0.472
487.501	325.823	80.008	19.994	103.249	20.142	1.389	0.510
489.000	326.578	80.007	19.994	103.246	20.146	1.118	0.515
490.500	327.324	80.008	19.995	103.247	20.140	1.514	0.481
492.001	328.101	80.007	19.994	103.251	20.144	1.232	0.505
493.501	328.901	80.008	19.994	103.251	20.146	1.134	0.549
495.000	329.690	80.007	19.995	103.250	20.144	1.278	0.519
496.501	330.417	80.007	19.995	103.247	20.142	1.364	0.481
498.001	331.183	80.006	19.994	103.243	20.144	1.226	0.502
499.500	331.924	80.007	19.994	103.244	20.145	1.172	0.507
501.000	332.694	80.006	19.993	103.251	20.142	1.379	0.515
502.500	333.471	80.006	19.995	103.252	20.149	0.909	0.518
504.000	334.228	80.006	19.993	103.250	20.144	1.270	0.530
505.500	335.026	80.007	19.994	103.252	20.143	1.301	0.531
507.000	335.776	80.007	19.996	103.248	20.143	1.322	0.493
508.501	336.536	80.008	19.995	103.246	20.142	1.418	0.501
510.000	337.299	80.009	19.995	103.251	20.145	1.199	0.511
511.500	338.027	80.008	19.994	103.250	20.143	1.352	0.498
513.000	338.812	80.009	19.994	103.247	20.145	1.191	0.518
514.500	339.556	80.009	19.995	103.245	20.142	1.404	0.517
516.000	340.311	80.009	19.995	103.247	20.140	1.535	0.504
517.500	341.073	80.011	19.994	103.247	20.142	1.377	0.511
519.000	341.837	80.008	19.995	103.247	20.146	1.113	0.484
520.500	342.603	80.008	19.994	103.247	20.143	1.333	0.508
522.000	343.341	80.010	19.995	103.242	20.142	1.358	0.493
523.500	344.049	80.009	19.996	103.237	20.143	1.314	0.474
525.000	344.893	80.009	19.996	103.243	20.144	1.272	0.563
526.500	345.645	80.007	19.993	103.242	20.142	1.395	0.502
528.000	346.376	80.008	19.995	103.246	20.147	1.013	0.484
529.500	347.128	80.009	19.995	103.245	20.146	1.126	0.490
531.000	347.899	80.009	19.995	103.242	20.141	1.479	0.515
532.500	348.658	80.009	19.994	103.245	20.146	1.128	0.506
534.000	349.459	80.009	19.994	103.246	20.144	1.287	0.543
535.500	350.209	80.010	19.995	103.246	20.146	1.136	0.525
537.000	350.979	80.010	19.995	103.247	20.143	1.318	0.499
538.500	351.725	80.010	19.996	103.246	20.141	1.491	0.487
540.000	352.548	80.010	19.995	103.246	20.141	1.435	0.534
541.500	353.302	80.010	19.994	103.245	20.140	1.560	0.509
543.000	354.098	80.009	19.995	103.244	20.142	1.358	0.517
544.500	354.841	80.008	19.995	103.243	20.141	1.448	0.500
546.000	355.609	80.008	19.994	103.240	20.138	1.652	0.511
547.500	356.385	80.008	19.996	103.245	20.136	1.798	0.534
549.000	357.157	80.026	19.998	103.249	20.140	1.500	0.500
550.500	357.876	80.023	19.996	103.250	20.138	1.683	0.477
552.000	358.620	80.006	19.997	103.251	20.138	1.677	0.482
553.500	359.414	80.007	19.994	103.247	20.136	1.813	0.522
555.000	360.172	80.008	19.995	103.243	20.132	2.120	0.496
556.500	360.924	80.008	19.994	103.250	20.132	2.076	0.513
558.000	361.711	80.007	19.993	103.250	20.132	2.085	0.514
559.500	362.465	80.009	19.995	103.249	20.127	2.410	0.528
561.000	363.196	80.008	19.995	103.251	20.127	2.450	0.472
562.500	363.983	80.008	19.997	103.250	20.130	2.249	0.499
564.000	364.744	80.007	19.995	103.250	20.126	2.479	0.524
565.500	365.458	80.008	19.994	103.251	20.125	2.594	0.503
567.000	366.244	80.007	19.994	103.252	20.126	2.542	0.543
568.500	366.987	80.008	19.995	103.250	20.124	2.628	0.480
570.000	367.721	80.007	19.994	103.249	20.119	3.004	0.482
571.500	368.506	80.008	19.994	103.251	20.118	3.081	0.526
573.000	369.250	80.008	19.995	103.251	20.113	3.427	0.507
574.500	370.024	80.007	19.994	103.252	20.108	3.743	0.525
576.000	370.777	80.007	19.994	103.251	20.107	3.809	0.516
577.500	371.561	80.006	19.995	103.250	20.107	3.831	0.534
579.000	372.351	80.008	19.995	103.249	20.104	4.039	0.509
580.500	373.131	80.007	19.995	103.249	20.099	4.409	0.510
582.000	373.906	80.008	19.994	103.248	20.091	4.939	0.514
583.500	374.640	80.008	19.995	103.249	20.088	5.162	0.499
585.000	375.457	80.008	19.995	103.250	20.087	5.224	0.517
586.500	376.179	80.008	19.993	103.258	20.084	5.425	0.477
588.000	376.964	80.008	19.995	103.254	20.072	6.285	0.521
589.500	377.728	80.009	19.994	103.259	20.075	6.034	0.518
591.000	378.457	80.009	19.996	103.264	20.068	6.537	0.503
592.500	379.256	80.010	19.994	103.268	20.060	7.090	0.535
594.000	380.063	80.009	19.994	103.273	20.053	7.573	0.541
595.500	380.837	80.010	19.995	103.273	20.047	8.045	0.557
597.000	381.556	80.011	19.994	103.275	20.039	8.564	0.505
598.500	382.360	80.009	19.994	103.274	20.034	8.931	0.519
600.000	383.135	80.009	19.994	103.284	20.027	9.395	0.513
601.500	383.918	80.009	19.994	103.288	20.020	9.871	0.511
603.000	384.670	80.009	19.994	103.287	20.016	10.181	0.512
604.500	385.421	80.009	19.994	103.285	20.009	10.667	0.523
606.000	386.224	80.007	19.995	103.285	19.999	11.377	0.529
607.500	386.989	80.008	19.996	103.286	19.993	11.773	0.492
609.000	387.770	80.008	19.996	103.288	19.987	12.228	0.506
610.500	388.532	80.009	19.996	103.291	19.978	12.855	0.485
612.001	389.267	80.008	19.996	103.304	19.967	13.607	0.506
613.500	390.067	80.008	19.995	103.315	19.961	14.046	0.515
615.000	390.836	80.009	19.995	103.317	19.949	14.892	0.514
616.500	391.632	80.008	19.995	103.315	19.941	15.443	0.531
618.000	392.377	80.009	19.995	103.318	19.926	16.432	0.493
619.500	393.167	80.009	19.995	103.322	19.912	17.433	0.546
621.000	393.924	80.008	19.994	103.327	19.897	18.492	0.510
622.500	394.711	80.008	19.995	103.326	19.879	19.769	0.503
624.000	395.462	80.011	19.994	103.319	19.869	20.471	0.485
625.500	396.268	80.010	19.995	103.332	19.850	21.796	0.517
627.000	397.059	80.010	19.995	103.336	19.843	22.287	0.549
628.500	397.883	80.008	19.994	103.321	19.831	23.104	0.566
630.000	398.686	80.007	19.995	103.322	19.827	23.384	0.554
631.500	399.440	80.006	19.994	103.340	19.820	23.905	0.506
633.000	400.228	80.006	19.995	103.349	19.806	24.858	0.518
634.500	400.997	80.007	19.995	103.367	19.794	25.713	0.521
636.000	401.739	80.007	19.995	103.392	19.781	26.618	0.500
637.500	402.529	80.006	19.995	103.401	19.766	27.626	0.525
639.000	403.317	80.006	19.994	103.392	19.751	28.675	0.515
640.500	404.040	80.007	19.995	103.396	19.726	30.467	0.480
642.000	404.818	80.006	19.995	103.405	19.698	32.435	0.512
643.500	405.560	80.008	19.995	103.423	19.674	34.107	0.508
645.000	406.385	80.007	19.996	103.425	19.648	35.934	0.537
646.500	407.145	80.007	19.995	103.420	19.621	37.802	0.530
648.000	407.857	80.006	19.995	103.408	19.604	38.986	0.470
649.501	408.684	80.007	19.994	103.402	19.578	40.801	0.543
651.000	409.413	80.008	19.996	103.406	19.554	42.484	0.493
652.500	410.184	80.007	19.994	103.441	19.522	44.705	0.514
654.000	410.933	80.007	19.994	103.480	19.490	46.970	0.487
655.500	411.653	80.008	19.995	103.499	19.459	49.140	0.478
657.000	412.388	80.008	19.994	103.495	19.431	51.153	0.510
658.500	413.176	80.007	19.994	103.488	19.401	53.217	0.526
660.000	413.894	80.009	19.995	103.492	19.375	55.053	0.488
661.500	414.672	80.007	19.994	103.488	19.339	57.573	0.511
663.000	415.422	80.007	19.993	103.502	19.299	60.374	0.505
664.500	416.189	80.007	19.994	103.547	19.263	62.912	0.485
666.000	416.910	80.007	19.995	103.575	19.228	65.325	0.471
667.500	417.681	80.006	19.995	103.586	19.189	68.077	0.489
669.000	418.457	80.007	19.994	103.576	19.145	71.144	0.505
670.500	419.183	80.007	19.995	103.588	19.092	74.907	0.500
672.000	420.004	80.008	19.995	103.619	19.041	78.507	0.517
673.500	420.695	80.007	19.995	103.643	18.997	81.635	0.472
675.000	421.485	80.009	19.995	103.649	18.956	84.528	0.508
676.500	422.246	80.008	19.995	103.625	18.915	87.370	0.506
678.000	422.943	80.010	19.994	103.613	18.882	89.687	0.475
679.500	423.717	80.010	19.996	103.622	18.836	92.983	0.506
681.000	424.500	80.009	19.995	103.675	18.797	95.691	0.525
682.500	425.220	80.008	19.994	103.732	18.752	98.877	0.480
684.000	426.030	80.010	19.994	103.757	18.708	101.978	0.531
685.500	426.798	80.009	19.995	103.761	18.656	105.655	0.514
687.000	427.565	80.009	19.994	103.777	18.604	109.305	0.522
688.500	428.329	80.009	19.994	103.788	18.553	112.959	0.512
690.000	429.071	80.008	19.993	103.802	18.508	116.114	0.488
691.500	429.807	80.008	19.993	103.824	18.457	119.671	0.485
693.000	430.548	80.009	19.994	103.833	18.406	123.288	0.510
694.500	431.325	80.010	19.995	103.843	18.356	126.832	0.515
696.000	432.083	80.007	19.994	103.874	18.297	130.935	0.501
697.501	432.790	80.009	19.993	103.896	18.238	135.131	0.486
699.000	433.598	80.009	19.994	103.931	18.181	139.153	0.548
700.500	434.397	80.008	19.994	103.952	18.116	143.762	0.519
702.000	435.147	80.008	19.994	103.972	18.062	147.584	0.494
703.500	435.882	80.009	19.994	103.969	17.998	152.124	0.477
705.000	436.653	80.009	19.995	103.986	17.960	154.752	0.536
706.500	437.374	80.009	19.994	103.979	17.926	157.144	0.489
708.000	438.165	80.009	19.995	103.981	17.879	160.448	0.537
709.500	438.919	80.011	19.995	104.023	17.843	163.070	0.490
711.000	439.652	80.009	19.995	104.046	17.800	166.095	0.472
712.500	440.392	80.009	19.996	104.059	17.772	168.105	0.491
714.000	441.157	80.009	19.995	104.091	17.755	169.291	0.521
715.500	441.940	80.008	19.994	104.093	17.738	170.460	0.536
717.000	442.643	80.008	19.996	104.066	17.730	171.078	0.456
718.500	443.443	80.008	19.995	104.082	17.703	172.917	0.532
720.000	444.199	80.009	19.994	104.109	17.686	174.119	0.499
721.500	444.946	80.008	19.995	104.129	17.673	174.982	0.499
723.000	445.717	80.007	19.995	104.146	17.655	176.269	0.512
724.500	446.462	80.008	19.995	104.152	17.640	177.321	0.495
726.000	447.206	80.007	19.995	104.150	17.630	178.030	0.495
727.500	447.997	80.007	19.997	104.148	17.609	179.459	0.534
729.000	448.771	80.007	19.995	104.147	17.608	179.531	0.526
730.500	449.487	80.008	19.997	104.144	17.599	180.103	0.490
732.000	450.255	80.007	19.995	104.127	17.611	179.268	0.487
733.500	450.989	80.009	19.997	104.117	17.616	178.884	0.503
735.000	451.778	80.009	19.997	104.108	17.637	177.359	0.505
736.500	452.539	80.007	19.996	104.105	17.667	175.204	0.512
738.000	453.254	80.008	19.997	104.103	17.705	172.525	0.480
739.500	454.042	80.007	19.995	104.085	17.749	169.359	0.519
741.000	454.821	80.007	19.996	104.068	17.798	165.885	0.506
742.500	455.598	80.007	19.996	104.060	17.864	161.182	0.506
744.000	456.358	80.005	19.995	104.037	17.927	156.735	0.500
745.500	457.097	80.009	19.996	104.020	18.003	151.361	0.510
747.000	457.863	80.008	19.995	104.001	18.073	146.409	0.515
748.500	458.626	80.007	19.995	103.971	18.160	140.276	0.520
750.000	459.402	80.007	19.993	103.934	18.255	133.546	0.543
751.500	460.176	80.006	19.994	103.909	18.343	127.373	0.535
753.000	460.902	80.007	19.994	103.886	18.434	121.009	0.486
754.500	461.690	80.006	19.995	103.856	18.525	114.558	0.501
756.000	462.473	80.008	19.993	103.828	18.632	107.113	0.494
757.500	463.216	80.008	19.994	103.797	18.727	100.418	0.507
759.000	463.994	80.009	19.995	103.764	18.837	92.691	0.511
760.500	464.748	80.010	19.994	103.738	18.941	85.377	0.500
762.000	465.477	80.009	19.993	103.699	19.052	77.602	0.496
763.500	466.276	80.009	19.993	103.673	19.139	71.495	0.541
765.000	467.053	80.010	19.994	103.655	19.224	65.572	0.513
766.500	467.824	80.007	19.992	103.637	19.297	60.433	0.482
768.000	468.569	80.008	19.994	103.624	19.373	55.084	0.495
769.500	469.369	80.008	19.996	103.583	19.430	51.141	0.538
771.000	470.131	80.008	19.995	103.548	19.495	46.597	0.494
772.500	470.929	80.008	19.993	103.525	19.552	42.600	0.526
774.000	471.659	80.009	19.994	103.500	19.603	39.025	0.496
775.500	472.477	80.010	19.994	103.480	19.645	36.116	0.534
777.000	473.206	80.009	19.994	103.458	19.691	32.887	0.489
778.500	474.048	80.008	19.993	103.442	19.718	30.989	0.550
780.000	474.791	80.009	19.994	103.425	19.755	28.430	0.499
781.500	475.585	80.009	19.994	103.413	19.791	25.926	0.525
783.000	476.315	80.009	19.993	103.396	19.817	24.094	0.482
784.500	477.077	80.009	19.994	103.377	19.838	22.622	0.503
786.000	477.897	80.010	19.993	103.383	19.859	21.170	0.558
787.500	478.666	80.010	19.994	103.373	19.882	19.518	0.501
789.000	479.407	80.011	19.993	103.360	19.905	17.959	0.508
790.500	480.223	80.010	19.993	103.359	19.928	16.340	0.545
792.000	480.959	80.011	19.994	103.361	19.938	15.635	0.481
793.500	481.744	80.011	19.994	103.352	19.949	14.863	0.523
795.000	482.544	80.009	19.994	103.334	19.968	13.546	0.529
796.500	483.290	80.010	19.994	103.326	19.973	13.147	0.517
798.000	484.053	80.009	19.996	103.325	19.984	12.405	0.492
799.500	484.807	80.009	19.995	103.322	19.997	11.523	0.493
801.000	485.594	80.008	19.994	103.309	20.007	10.809	0.541
802.500	486.325	80.008	19.994	103.302	20.018	10.053	0.497
804.000	487.122	80.008	19.995	103.304	20.020	9.880	0.513
805.500	487.857	80.007	19.994	103.291	20.030	9.204	0.506
807.000	488.646	80.006	19.994	103.288	20.041	8.411	0.507
808.500	489.388	80.008	19.995	103.291	20.046	8.121	0.508
810.000	490.133	80.008	19.995	103.289	20.049	7.904	0.491
811.500	490.938	80.009	19.995	103.287	20.061	7.071	0.538
813.000	491.665	80.008	19.994	103.283	20.060	7.141	0.493
814.500	492.397	80.008	19.995	103.280	20.069	6.481	0.493
816.000	493.261	80.007	19.995	103.284	20.067	6.642	0.547
817.500	493.964	80.009	19.995	103.281	20.074	6.134	0.472
819.000	494.749	80.007	19.993	103.272	20.077	5.946	0.541
820.500	495.580	80.009	19.994	103.273	20.082	5.545	0.556
822.000	496.327	80.007	19.993	103.267	20.089	5.109	0.501
823.500	497.110	80.008	19.994	103.260	20.085	5.341	0.528
825.000	497.861	80.008	19.994	103.253	20.092	4.854	0.493
826.500	498.688	80.006	19.994	103.253	20.092	4.854	0.527
828.000	499.463	80.007	19.996	103.251	20.098	4.472	0.552
829.500	500.211	80.008	19.996	103.251	20.098	4.466	0.488
831.000	500.984	80.006	19.995	103.249	20.099	4.378	0.530
832.500	501.781	80.006	19.996	103.249	20.101	4.228	0.546
834.000	502.559	80.007	19.994	103.249	20.103	4.124	0.512
835.500	503.391	80.006	19.996	103.248	20.108	3.783	0.560
837.000	504.109	80.006	19.995	103.249	20.104	4.019	0.481
838.500	504.849	80.004	19.997	103.249	20.112	3.497	0.486
840.000	505.656	80.008	19.996	103.251	20.109	3.705	0.559
841.500	506.485	80.007	19.996	103.245	20.108	3.754	0.546
843.000	507.276	80.008	19.994	103.236	20.111	3.553	0.526
844.500	508.005	80.009	19.995	103.232	20.111	3.552	0.497
846.000	508.817	80.011	19.995	103.239	20.111	3.583	0.534
847.500	509.541	80.009	19.994	103.238	20.109	3.705	0.488
849.000	510.397	80.009	19.994	103.235	20.110	3.598	0.548
850.500	511.177	80.010	19.994	103.243	20.108	3.765	0.531
852.000	511.937	80.008	19.994	103.244	20.113	3.437	0.537
853.500	512.744	80.010	19.994	103.238	20.112	3.501	0.525
855.000	513.489	80.009	19.994	103.227	20.112	3.501	0.529
856.500	514.286	80.009	19.994	103.219	20.115	3.247	0.544
858.000	515.070	80.009	19.995	103.220	20.115	3.258	0.488
859.500	515.861	80.009	19.994	103.217	20.114	3.312	0.572
861.000	516.650	80.008	19.994	103.228	20.115	3.283	0.555
862.500	517.455	80.009	19.994	103.221	20.115	3.283	0.528
864.000	518.183	80.008	19.995	103.220	20.117	3.147	0.492
865.500	518.996	80.009	19.996	103.227	20.117	3.105	0.538
867.001	519.775	80.010	19.995	103.217	20.114	3.322	0.531
868.501	520.561	80.011	19.994	103.213	20.117	3.138	0.525
870.002	521.355	80.010	19.994	103.211	20.119	2.971	0.532
871.500	522.110	80.009	19.993	103.211	20.120	2.955	0.492
873.000	522.863	80.010	19.993	103.214	20.119	2.977	0.517
874.500	523.638	80.011	19.993	103.210	20.122	2.819	0.509
876.001	524.429	80.010	19.994	103.208	20.117	3.122	0.545
877.500	525.204	80.010	19.993	103.215	20.114	3.312	0.526
879.000	525.940	80.011	19.994	103.216	20.113	3.389	0.516
880.501	526.731	80.010	19.993	103.213	20.119	2.978	0.524
882.000	527.487	80.010	19.995	103.211	20.113	3.393	0.501
883.501	528.283	80.010	19.995	103.212	20.117	3.103	0.528
885.000	529.046	80.009	19.994	103.217	20.114	3.360	0.493
886.500	529.775	80.008	19.993	103.218	20.116	3.197	0.480
888.000	530.585	80.008	19.994	103.214	20.117	3.119	0.518
889.500	531.381	80.008	19.994	103.217	20.118	3.032	0.518
891.000	532.081	80.008	19.994	103.215	20.117	3.165	0.465
892.500	532.847	80.008	19.995	103.214	20.111	3.570	0.532
894.000	533.645	80.008	19.994	103.215	20.119	3.023	0.530
895.500	534.405	80.007	19.993	103.214	20.121	2.854	0.504
897.000	535.164	80.008	19.995	103.214	20.118	3.073	0.503
898.501	535.962	80.007	19.994	103.218	20.119	3.027	0.525
900.000	536.750	80.009	19.994	103.213	20.121	2.879	0.523
901.500	537.491	80.009	19.994	103.215	20.119	3.002	0.514
903.000	538.268	80.008	19.996	103.224	20.114	3.318	0.522
904.500	539.055	80.008	19.993	103.225	20.119	3.017	0.518
906.000	539.827	80.006	19.995	103.223	20.117	3.157	0.510
907.500	540.607	80.009	19.994	103.214	20.115	3.243	0.515
909.000	541.353	80.009	19.994	103.220	20.121	2.869	0.513
910.500	542.129	80.007	19.995	103.218	20.114	3.316	0.501
912.000	542.909	80.007	19.995	103.217	20.116	3.209	0.525
913.500	543.669	80.009	19.995	103.221	20.120	2.892	0.503
915.000	544.428	80.008	19.995	103.215	20.117	3.132	0.522
916.500	545.192	80.009	19.995	103.210	20.117	3.116	0.522
918.000	545.952	80.008	19.995	103.209	20.113	3.429	0.495
919.500	546.711	80.008	19.995	103.210	20.119	2.998	0.507
921.000	547.490	80.008	19.996	103.210	20.119	2.998	0.525
922.500	548.287	80.009	19.996	103.211	20.122	2.767	0.511
924.000	549.031	80.007	19.995	103.212	20.120	2.957	0.512
925.500	549.813	80.010	19.995	103.211	20.122	2.790	0.510
927.000	550.619	80.008	19.995	103.210	20.117	3.124	0.526
928.500	551.387	80.010	19.996	103.209	20.122	2.765	0.518
930.001	552.117	80.010	19.996	103.208	20.119	2.971	0.487
931.500	552.872	80.009	19.996	103.209	20.119	2.965	0.517
933.001	553.644	80.010	19.996	103.208	20.116	3.197	0.510
934.500	554.454	80.010	19.996	103.206	20.115	3.243	0.534
936.000	555.202	80.009	19.996	103.211	20.117	3.124	0.522
937.500	555.980	80.009	19.996	103.212	20.113	3.416	0.511
939.000	556.729	80.009	19.995	103.206	20.114	3.337	0.525
940.500	557.478	80.008	19.995	103.209	20.117	3.164	0.530
942.000	558.223	80.010	19.995	103.210	20.119	2.967	0.499
943.500	558.970	80.009	19.995	103.213	20.118	3.059	0.515
945.001	559.740	80.010	19.995	103.209	20.117	3.128	0.511
946.500	560.475	80.008	19.994	103.210	20.115	3.289	0.484
948.000	561.293	80.009	19.996	103.211	20.119	3.005	0.553
949.500	562.044	80.010	19.995	103.211	20.116	3.203	0.496
951.000	562.755	80.011	19.994	103.212	20.115	3.308	0.476
952.500	563.508	80.010	19.995	103.212	20.117	3.136	0.489
954.001	564.253	80.011	19.995	103.215	20.113	3.431	0.499
955.500	564.962	80.011	19.993	103.214	20.114	3.345	0.465
957.000	565.718	80.010	19.995	103.210	20.116	3.197	0.506
958.500	566.522	80.011	19.995	103.212	20.116	3.178	0.538
960.000	567.264	80.010	19.994	103.216	20.114	3.320	0.494
961.500	568.001	80.009	19.995	103.214	20.115	3.253	0.502
963.000	568.784	80.007	19.994	103.209	20.117	3.115	0.523
964.500	569.550	80.009	19.994	103.209	20.113	3.429	0.546
966.000	570.342	80.007	19.993	103.212	20.112	3.496	0.531
967.500	571.101	80.008	19.994	103.213	20.114	3.377	0.519
969.001	571.836	80.007	19.994	103.212	20.112	3.481	0.493
970.500	572.627	80.008	19.994	103.213	20.111	3.558	0.543
972.000	573.406	80.007	19.993	103.215	20.108	3.763	0.514
973.500	574.248	80.008	19.994	103.214	20.108	3.770	0.548
975.000	574.987	80.006	19.996	103.213	20.109	3.688	0.506
976.500	575.784	80.008	19.995	103.213	20.108	3.765	0.517
978.000	576.570	80.009	19.993	103.213	20.111	3.583	0.530
979.500	577.301	80.007	19.993	103.213	20.109	3.705	0.524
981.000	578.128	80.008	19.995	103.211	20.110	3.640	0.556
982.500	578.897	80.009	19.994	103.211	20.110	3.615	0.527
984.000	579.656	80.009	19.994	103.212	20.107	3.813	0.516
985.500	580.410	80.009	19.995	103.212	20.103	4.087	0.508
987.000	581.196	80.010	19.994	103.211	20.108	3.790	0.522
988.500	581.978	80.009	19.993	103.213	20.107	3.803	0.540
990.000	582.726	80.010	19.994	103.212	20.106	3.928	0.513
991.500	583.495	80.009	19.994	103.213	20.105	3.991	0.514
993.000	584.311	80.009	19.995	103.212	20.108	3.784	0.540
994.500	585.067	80.009	19.994	103.210	20.101	4.269	0.485
996.000	585.864	80.008	19.995	103.208	20.105	3.949	0.562
997.500	586.596	80.007	19.994	103.209	20.110	3.592	0.487
999.000	587.383	80.008	19.995	103.210	20.104	4.024	0.526
1000.500	588.175	80.007	19.995	103.213	20.108	3.780	0.502
1002.000	588.949	80.007	19.996	103.214	20.098	4.474	0.519
1003.500	589.709	80.008	19.994	103.213	20.104	4.049	0.494
1005.000	590.516	80.008	19.995	103.211	20.104	4.012	0.548
1006.500	591.297	80.008	19.993	103.210	20.102	4.214	0.536
1008.000	592.038	80.008	19.996	103.214	20.105	3.953	0.494
1009.500	592.807	80.007	19.996	103.215	20.105	4.003	0.535
1011.000	593.655	80.009	19.995	103.218	20.103	4.123	0.532
1012.500	594.459	80.009	19.996	103.213	20.101	4.281	0.521
1014.000	595.247	80.010	19.995	103.211	20.105	3.962	0.546
1015.500	595.972	80.010	19.995	103.211	20.108	3.728	0.511
1017.000	596.760	80.009	19.994	103.212	20.100	4.300	0.537
1018.500	597.538	80.010	19.995	103.211	20.107	3.858	0.535
1020.000	598.344	80.009	19.995	103.211	20.103	4.133	0.539
1021.500	599.130	80.009	19.995	103.212	20.101	4.254	0.522
1023.000	599.888	80.009	19.995	103.215	20.103	4.091	0.488
1024.501	600.667	80.009	19.995	103.215	20.102	4.164	0.514
1026.000	601.466	80.008	19.995	103.212	20.106	3.876	0.520
1027.500	602.199	80.008	19.996	103.211	20.103	4.112	0.495
1029.000	602.974	80.009	19.995	103.209	20.105	3.999	0.493
1030.501	603.752	80.009	19.996	103.205	20.103	4.091	0.525
1032.000	604.536	80.009	19.996	103.212	20.101	4.244	0.513
1033.500	605.279	80.009	19.995	103.212	20.096	4.608	0.490
1035.000	606.065	80.008	19.996	103.213	20.099	4.397	0.504
1036.501	606.776	80.009	19.995	103.212	20.100	4.344	0.485
1038.000	607.580	80.009	19.995	103.210	20.101	4.234	0.521
1039.501	608.349	80.011	19.994	103.210	20.098	4.426	0.523
1041.000	609.126	80.011	19.995	103.212	20.100	4.288	0.518
1042.500	609.902	80.010	19.996	103.211	20.101	4.271	0.516
1044.000	610.647	80.011	19.994	103.208	20.098	4.424	0.501
1045.500	611.419	80.011	19.995	103.209	20.100	4.315	0.521
1047.000	612.204	80.009	19.995	103.208	20.096	4.597	0.531
1048.500	612.942	80.008	19.994	103.207	20.097	4.526	0.476
1050.000	613.701	80.010	19.996	103.209	20.099	4.405	0.528
1051.500	614.456	80.008	19.995	103.212	20.101	4.267	0.500
1053.000	615.258	80.008	19.995	103.208	20.100	4.325	0.519
1054.500	616.029	80.007	19.995	103.211	20.100	4.296	0.515
1056.001	616.816	80.007	19.994	103.208	20.096	4.607	0.528
1057.500	617.574	80.007	19.995	103.207	20.104	4.056	0.515
1059.000	618.304	80.008	19.996	103.211	20.101	4.244	0.469
1060.500	619.091	80.008	19.995	103.211	20.100	4.319	0.510
1062.000	619.873	80.007	19.995	103.211	20.103	4.121	0.527
1063.500	620.611	80.008	19.995	103.210	20.102	4.173	0.504
1065.001	621.389	80.009	19.995	103.210	20.102	4.192	0.528
1066.501	622.185	80.006	19.993	103.210	20.103	4.137	0.519
1068.000	622.920	80.007	19.996	103.212	20.106	3.918	0.519
1069.500	623.736	80.009	19.995	103.212	20.105	3.951	0.537
1071.001	624.546	80.009	19.995	103.209	20.101	4.221	0.512
1072.500	625.302	80.008	19.994	103.209	20.104	4.012	0.489
1074.000	626.091	80.008	19.994	103.209	20.105	3.966	0.544
1075.500	626.824	80.008	19.995	103.208	20.102	4.181	0.495
1077.000	627.617	80.008	19.994	103.210	20.103	4.079	0.521
1078.500	628.418	80.008	19.994	103.210	20.107	3.824	0.529
1080.000	629.242	80.007	19.995	103.212	20.107	3.834	0.550
1081.501	629.960	80.009	19.993	103.212	20.104	4.026	0.479
1083.000	630.729	80.007	19.994	103.213	20.105	3.937	0.525
1084.500	631.495	80.007	19.994	103.213	20.104	4.012	0.496
1086.000	632.276	80.006	19.994	103.214	20.110	3.638	0.518
1087.500	633.041	80.006	19.995	103.215	20.110	3.592	0.497
1089.000	633.808	80.007	19.995	103.214	20.105	3.989	0.517
1090.500	634.589	80.007	19.995	103.215	20.109	3.661	0.522
1092.000	635.410	80.009	19.996	103.213	20.109	3.694	0.559
1093.500	636.169	80.008	19.995	103.207	20.110	3.611	0.506
1095.001	636.940	80.009	19.994	103.210	20.112	3.481	0.508
1096.500	637.742	80.009	19.995	103.213	20.109	3.724	0.537
1098.001	638.507	80.010	19.994	103.212	20.108	3.730	0.513
1099.500	639.285	80.010	19.994	103.204	20.111	3.538	0.496
1101.000	640.081	80.010	19.996	103.192	20.109	3.703	0.540
1102.501	640.839	80.009	19.995	103.204	20.110	3.655	0.494
1104.001	641.584	80.009	19.995	103.212	20.107	3.801	0.544
1105.500	642.413	80.009	19.995	103.204	20.108	3.772	0.545
1107.001	643.225	80.008	19.995	103.204	20.109	3.719	0.527
1108.500	643.924	80.008	19.995	103.208	20.109	3.709	0.472
1110.000	644.632	80.009	19.995	103.202	20.108	3.736	0.495
1111.500	645.452	80.009	19.995	103.196	20.110	3.655	0.529
1113.000	646.202	80.008	19.995	103.194	20.109	3.672	0.519
1114.500	646.957	80.008	19.995	103.202	20.113	3.408	0.494
1116.001	647.743	80.009	19.995	103.203	20.112	3.467	0.522
1117.500	648.521	80.008	19.994	103.206	20.109	3.659	0.512
1119.000	649.272	80.010	19.996	103.207	20.109	3.697	0.501
1120.500	649.994	80.011	19.994	103.208	20.115	3.291	0.488
1122.001	650.708	80.010	19.996	103.206	20.115	3.239	0.452
1123.500	651.523	80.010	19.995	103.205	20.115	3.300	0.538
1125.000	652.242	80.011	19.996	103.204	20.116	3.203	0.483
1126.501	652.988	80.009	19.996	103.200	20.112	3.456	0.530
1128.001	653.718	80.010	19.996	103.202	20.115	3.277	0.490
1129.501	654.543	80.010	19.996	103.206	20.113	3.394	0.533
1131.000	655.271	80.010	19.996	103.204	20.112	3.517	0.486
1132.501	656.057	80.009	19.996	103.203	20.114	3.367	0.534
1134.000	656.753	80.007	19.996	103.203	20.118	3.049	0.467
1135.500	657.541	80.008	19.996	103.206	20.118	3.032	0.534
1137.000	658.315	80.009	19.996	103.206	20.117	3.113	0.529
1138.500	659.049	80.009	19.994	103.206	20.118	3.068	0.483
1140.000	659.812	80.007	19.995	103.198	20.119	3.015	0.506
1141.500	660.548	80.008	19.994	103.196	20.118	3.057	0.490
1143.000	661.289	80.008	19.994	103.203	20.116	3.237	0.494
1144.500	662.068	80.009	19.994	103.205	20.116	3.181	0.524
1146.000	662.800	80.009	19.995	103.211	20.118	3.077	0.494
1147.500	663.570	80.008	19.995	103.210	20.114	3.325	0.501
1149.000	664.331	80.006	19.994	103.210	20.116	3.208	0.509
1150.500	665.099	80.009	19.994	103.205	20.119	2.961	0.526
1152.000	665.804	80.009	19.995	103.207	20.119	3.024	0.478
1153.501	666.570	80.008	19.995	103.204	20.116	3.201	0.499
1155.001	667.288	80.008	19.996	103.196	20.121	2.888	0.513
1156.500	668.053	80.009	19.995	103.187	20.114	3.314	0.495
1158.000	668.828	80.009	19.994	103.193	20.115	3.293	0.515
1159.500	669.542	80.007	19.995	103.206	20.115	3.289	0.477
1161.001	670.346	80.007	19.994	103.207	20.117	3.162	0.530
1162.500	671.073	80.009	19.995	103.208	20.113	3.396	0.510
1164.000	671.847	80.008	19.995	103.210	20.122	2.802	0.502
1165.500	672.572	80.008	19.994	103.208	20.118	3.091	0.484
1167.000	673.392	80.007	19.994	103.205	20.121	2.848	0.545
1168.500	674.148	80.008	19.994	103.212	20.120	2.922	0.536
1170.000	674.965	80.008	19.995	103.203	20.122	2.775	0.510
1171.500	675.695	80.008	19.995	103.195	20.121	2.830	0.506
1173.000	676.475	80.009	19.994	103.205	20.116	3.170	0.506
1174.500	677.290	80.009	19.994	103.198	20.120	2.918	0.538
1176.001	678.077	80.008	19.996	103.206	20.118	3.070	0.511
1177.500	678.839	80.009	19.995	103.204	20.118	3.064	0.520
1179.000	679.625	80.009	19.996	103.199	20.125	2.606	0.513
1180.500	680.421	80.009	19.993	103.196	20.119	2.987	0.547
1182.001	681.227	80.010	19.994	103.189	20.120	2.918	0.535
1183.501	682.037	80.010	19.994	103.197	20.121	2.853	0.515
1185.000	682.768	80.008	19.993	103.195	20.121	2.857	0.491
1186.501	683.581	80.011	19.993	103.188	20.125	2.569	0.508
1188.000	684.310	80.008	19.996	103.192	20.122	2.777	0.498
1189.501	685.089	80.010	19.996	103.191	20.124	2.663	0.492
1191.000	685.853	80.009	19.996	103.191	20.124	2.638	0.503
1192.500	686.669	80.010	19.995	103.179	20.124	2.652	0.556
1194.000	687.479	80.009	19.996	103.185	20.127	2.445	0.569
1195.500	688.229	80.010	19.995	103.189	20.124	2.621	0.470
1197.000	689.023	80.010	19.996	103.187	20.126	2.531	0.529
1198.501	689.788	80.010	19.995	103.195	20.126	2.529	0.493
1200.001	690.546	80.010	19.995	103.193	20.127	2.460	0.530
1201.500	691.340	80.010	19.995	103.177	20.126	2.481	0.538
1203.001	692.155	80.010	19.994	103.176	20.129	2.330	0.527
1204.501	692.924	80.011	19.994	103.187	20.124	2.617	0.516
1206.000	693.614	80.011	19.995	103.182	20.123	2.742	0.450
1207.500	694.441	80.011	19.994	103.170	20.119	2.964	0.534
1209.000	695.198	80.013	19.995	103.173	20.120	2.901	0.491
1210.501	696.001	80.011	19.995	103.180	20.125	2.610	0.528
1212.000	696.765	80.010	19.994	103.180	20.122	2.784	0.514
1213.500	697.543	80.009	19.995	103.186	20.124	2.616	0.503
1215.000	698.304	80.010	19.995	103.180	20.122	2.803	0.500
1216.500	699.020	80.010	19.995	103.176	20.122	2.774	0.484
1218.000	699.728	80.010	19.995	103.179	20.120	2.891	0.482
1219.500	700.567	80.010	19.995	103.188	20.123	2.727	0.522
1221.000	701.237	80.007	19.995	103.199	20.123	2.736	0.470
1222.500	701.995	80.007	19.996	103.193	20.119	2.962	0.489
1224.000	702.781	80.007	19.997	103.198	20.118	3.081	0.524
1225.500	703.550	80.007	19.996	103.197	20.120	2.926	0.498
1227.000	704.322	80.007	19.995	103.189	20.117	3.131	0.497
1228.501	705.059	80.011	19.995	103.189	20.122	2.771	0.498
1230.000	705.790	80.007	19.995	103.194	20.119	3.001	0.490
1231.500	706.562	80.010	19.994	103.191	20.117	3.125	0.490
1233.000	707.331	80.008	19.994	103.178	20.118	3.058	0.529
1234.500	708.085	80.009	19.995	103.176	20.117	3.114	0.493
1236.000	708.828	80.011	19.993	103.179	20.123	2.692	0.483
1237.500	709.565	80.008	19.994	103.193	20.121	2.880	0.505
1239.000	710.322	80.011	19.994	103.193	20.122	2.799	0.507
1240.500	711.082	80.008	19.994	103.188	20.118	3.077	0.514
1242.000	711.861	80.008	19.994	103.186	20.122	2.784	0.530
1243.500	712.629	80.009	19.996	103.188	20.121	2.866	0.502
1245.001	713.404	80.010	19.994	103.195	20.117	3.115	0.514
1246.500	714.120	80.008	19.993	103.189	20.119	3.002	0.476
1248.000	714.918	80.009	19.995	103.185	20.121	2.883	0.521
1249.500	715.697	80.009	19.994	103.192	20.118	3.041	0.537
1251.000	716.473	80.008	19.997	103.189	20.121	2.845	0.530
1252.500	717.233	80.008	19.995	103.187	20.120	2.912	0.486
1254.001	717.983	80.008	19.997	103.173	20.119	2.991	0.509
1255.500	718.727	80.009	19.994	103.174	20.119	3.000	0.502
1257.000	719.508	80.008	19.994	103.175	20.120	2.931	0.526
1258.501	720.251	80.009	19.995	103.172	20.119	3.012	0.482
1260.000	721.012	80.009	19.995	103.182	20.122	2.765	0.525
1261.500	721.755	80.010	19.995	103.190	20.116	3.204	0.492
1263.001	722.535	80.010	19.994	103.177	20.118	3.077	0.521
1264.500	723.309	80.011	19.994	103.173	20.119	2.987	0.534
1266.000	724.050	80.012	19.993	103.178	20.115	3.259	0.501
1267.500	724.789	80.010	19.994	103.174	20.116	3.186	0.508
1269.000	725.559	80.010	19.993	103.174	20.120	2.934	0.521
1270.501	726.319	80.011	19.994	103.175	20.118	3.033	0.507
1272.001	727.091	80.011	19.995	103.174	20.117	3.121	0.496
1273.500	727.855	80.010	19.994	103.178	20.116	3.196	0.505
1275.000	728.635	80.010	19.995	103.183	20.115	3.240	0.530
1276.500	729.379	80.009	19.995	103.185	20.117	3.125	0.501
1278.000	730.116	80.009	19.995	103.179	20.120	2.939	0.501
1279.501	730.878	80.009	19.994	103.184	20.122	2.759	0.495
1281.000	731.660	80.008	19.995	103.193	20.120	2.903	0.509
1282.500	732.410	80.009	19.995	103.188	20.122	2.757	0.506
1284.000	733.170	80.013	19.994	103.183	20.124	2.655	0.505
1285.500	733.961	80.010	19.996	103.189	20.121	2.855	0.509
1287.000	734.701	80.009	19.996	103.188	20.120	2.958	0.485
1288.500	735.476	80.009	19.996	103.177	20.121	2.885	0.535
1290.000	736.250	80.009	19.995	103.179	20.119	2.972	0.516
1291.500	737.020	80.010	19.995	103.187	20.119	2.972	0.512
1293.000	737.804	80.011	19.995	103.186	20.121	2.890	0.518
1294.501	738.603	80.012	19.995	103.186	20.121	2.888	0.527
1296.000	739.367	80.011	19.994	103.179	20.118	3.037	0.526
1297.500	740.107	80.011	19.994	103.174	20.118	3.033	0.494
1299.000	740.858	80.007	19.994	103.179	20.121	2.861	0.489
1300.500	741.609	80.008	19.995	103.182	20.119	2.974	0.528
1302.001	742.387	80.008	19.995	103.177	20.119	3.027	0.528
1303.500	743.165	80.009	19.994	103.181	20.118	3.098	0.506
1304.500	743.669	80.009	19.995	103.188	20.121	2.885	0.521