File: 01_Data/LatexPillow_A_Outer_Fabric/MCC/LatexPillow_A_Outer_Fabric_MCC_30K_min_211210_R3.txt
Sample ID:	C:\MCC\MCC Cal\Test\LatexPillow_A_Outer_Fabric_MCC_30K_min_211210_R3.txt
Sample Weight (mg):	4.39
Heating Rate (C/s):	0.5
Combustor Temp (C):	900
N2 Flow Rate (cc/min):	80
O2 Flow Rate (cc/min):	20
Calibration File:	C:\MCC\MCC Cal\Coeff1 JN10440_30_210304.txt.txt
T Correction Coefficients:	0	1.024463	0
Time Shift (s):	14
*
Time (s)	Temperature (C)	N2 flow rate (cc/min)	O2 flow rate (cc/min)	Flow Rate (cc/min)	Oxygen (%)	HRR (W/g)	Heating rate (C/s)
0.000	109.056	80.027	20.000	103.126	20.280	-0.355	0.043
2.000	109.084	80.027	20.002	103.127	20.279	-0.280	0.010
4.000	109.074	80.028	19.999	103.104	20.276	-0.079	-0.010
6.000	109.097	80.025	20.001	103.128	20.273	0.101	0.026
8.000	109.087	80.025	19.999	103.156	20.273	0.127	0.022
10.000	109.075	80.011	19.996	103.149	20.267	0.551	0.008
12.000	109.104	80.007	19.996	103.168	20.267	0.581	0.030
14.000	109.134	80.006	19.995	103.168	20.266	0.676	0.058
16.000	109.206	80.007	19.994	103.163	20.264	0.790	0.048
18.000	109.249	80.006	19.994	103.169	20.262	0.941	0.073
20.000	109.346	80.007	19.994	103.172	20.261	0.998	0.060
22.000	109.441	80.008	19.995	103.173	20.260	1.089	0.041
24.000	109.520	80.008	19.993	103.209	20.253	1.594	0.032
26.000	109.700	80.008	19.995	103.281	20.247	2.021	0.060
28.000	109.816	80.006	19.995	103.293	20.245	2.215	0.052
30.000	110.044	80.007	19.994	103.314	20.238	2.680	0.107
32.000	110.287	80.005	19.995	103.327	20.232	3.156	0.139
34.000	110.579	80.006	19.996	103.328	20.234	2.993	0.134
35.999	110.875	80.005	19.997	103.342	20.229	3.342	0.198
37.999	111.229	80.006	19.996	103.345	20.229	3.331	0.188
39.999	111.615	80.006	19.995	103.328	20.228	3.462	0.200
41.999	112.006	80.008	19.995	103.340	20.226	3.605	0.254
43.999	112.458	80.005	19.996	103.331	20.229	3.381	0.216
45.999	112.921	80.006	19.995	103.330	20.226	3.557	0.201
47.999	113.410	80.006	19.996	103.337	20.225	3.652	0.260
49.999	113.928	80.006	19.995	103.347	20.228	3.423	0.279
52.000	114.447	80.007	19.996	103.331	20.224	3.726	0.264
53.999	115.038	80.008	19.995	103.337	20.223	3.803	0.293
55.999	115.578	80.007	19.996	103.337	20.226	3.598	0.299
57.999	116.163	80.008	19.996	103.337	20.226	3.614	0.289
59.999	116.737	80.007	19.994	103.333	20.224	3.711	0.299
62.000	117.396	80.008	19.995	103.340	20.222	3.859	0.302
63.999	118.045	80.006	19.995	103.339	20.223	3.786	0.317
66.000	118.708	80.006	19.995	103.348	20.222	3.889	0.342
67.999	119.370	80.007	19.994	103.365	20.220	3.996	0.322
70.000	120.029	80.006	19.995	103.360	20.217	4.220	0.321
72.000	120.796	80.007	19.995	103.363	20.218	4.184	0.384
73.999	121.533	80.007	19.994	103.363	20.222	3.913	0.381
75.999	122.259	80.009	19.994	103.366	20.225	3.695	0.399
78.000	122.996	80.010	19.995	103.362	20.222	3.905	0.372
79.999	123.777	80.008	19.993	103.362	20.220	4.018	0.381
82.000	124.529	80.010	19.995	103.364	20.217	4.251	0.377
84.000	125.321	80.009	19.994	103.364	20.216	4.308	0.393
85.999	126.108	80.008	19.995	103.363	20.220	4.029	0.397
88.000	126.934	80.009	19.995	103.363	20.220	4.016	0.376
90.000	127.809	80.006	19.995	103.364	20.223	3.816	0.416
92.000	128.664	80.007	19.995	103.366	20.216	4.334	0.432
94.000	129.458	80.006	19.995	103.366	20.219	4.101	0.416
95.999	130.343	80.007	19.996	103.367	20.218	4.172	0.446
98.000	131.166	80.006	19.994	103.366	20.214	4.447	0.420
99.999	132.112	80.008	19.995	103.366	20.215	4.419	0.488
102.000	133.000	80.007	19.995	103.367	20.216	4.330	0.464
103.999	133.923	80.007	19.996	103.369	20.216	4.342	0.460
105.999	134.769	80.007	19.995	103.366	20.214	4.431	0.446
107.999	135.681	80.007	19.994	103.365	20.216	4.336	0.438
109.999	136.612	80.007	19.994	103.366	20.217	4.283	0.458
112.000	137.539	80.007	19.994	103.367	20.215	4.403	0.476
113.999	138.440	80.009	19.994	103.367	20.218	4.164	0.480
116.000	139.331	80.007	19.994	103.367	20.216	4.310	0.485
117.999	140.320	80.006	19.994	103.367	20.220	4.051	0.483
119.999	141.268	80.006	19.993	103.369	20.215	4.401	0.450
121.999	142.203	80.007	19.995	103.369	20.215	4.390	0.458
124.000	143.176	80.005	19.995	103.367	20.218	4.204	0.487
125.999	144.137	80.005	19.995	103.370	20.214	4.443	0.486
127.999	145.148	80.005	19.995	103.370	20.219	4.064	0.500
130.000	146.111	80.006	19.994	103.369	20.217	4.268	0.499
132.000	147.111	80.006	19.995	103.363	20.216	4.299	0.477
134.000	148.032	80.007	19.995	103.359	20.214	4.483	0.481
136.000	149.042	80.005	19.994	103.367	20.214	4.493	0.523
138.000	150.037	80.008	19.995	103.360	20.213	4.525	0.478
140.000	151.009	80.008	19.995	103.350	20.215	4.382	0.470
142.000	152.009	80.009	19.995	103.352	20.212	4.581	0.477
144.000	153.011	80.007	19.994	103.351	20.214	4.440	0.499
146.000	153.978	80.008	19.994	103.359	20.215	4.359	0.476
148.000	154.942	80.009	19.995	103.350	20.217	4.276	0.484
150.000	155.938	80.009	19.996	103.348	20.212	4.579	0.480
152.000	156.931	80.007	19.996	103.353	20.214	4.461	0.467
154.000	157.914	80.008	19.996	103.347	20.216	4.306	0.502
156.000	158.892	80.009	19.997	103.349	20.214	4.482	0.506
158.001	159.903	80.007	19.996	103.347	20.217	4.259	0.530
160.000	160.920	80.006	19.997	103.337	20.214	4.492	0.542
162.000	161.876	80.008	19.995	103.327	20.212	4.601	0.501
164.000	162.904	80.009	19.995	103.327	20.219	4.080	0.532
166.000	163.849	80.008	19.995	103.323	20.213	4.560	0.494
168.000	164.892	80.008	19.995	103.328	20.215	4.369	0.494
170.000	165.897	80.007	19.995	103.326	20.212	4.621	0.489
172.000	166.931	80.007	19.993	103.325	20.212	4.581	0.504
174.000	167.929	80.006	19.994	103.329	20.213	4.534	0.478
176.001	168.886	80.007	19.995	103.330	20.217	4.259	0.502
178.000	169.917	80.006	19.994	103.328	20.212	4.589	0.501
180.000	170.873	80.008	19.995	103.328	20.214	4.433	0.471
182.000	171.903	80.006	19.994	103.328	20.215	4.360	0.515
184.000	172.872	80.005	19.994	103.325	20.215	4.370	0.473
186.000	173.863	80.006	19.994	103.328	20.213	4.522	0.491
188.000	174.844	80.005	19.994	103.324	20.214	4.457	0.514
190.000	175.804	80.007	19.995	103.328	20.210	4.732	0.483
192.000	176.831	80.004	19.994	103.329	20.209	4.823	0.497
194.000	177.825	80.006	19.994	103.316	20.210	4.750	0.519
196.000	178.855	80.008	19.994	103.323	20.211	4.671	0.513
198.000	179.830	80.007	19.994	103.321	20.211	4.677	0.479
200.000	180.809	80.005	19.994	103.316	20.211	4.715	0.506
202.001	181.777	80.006	19.994	103.324	20.212	4.646	0.485
204.000	182.744	80.004	19.994	103.318	20.217	4.265	0.467
206.000	183.728	80.006	19.995	103.326	20.216	4.313	0.482
208.000	184.706	80.007	19.994	103.317	20.214	4.444	0.482
210.000	185.727	80.007	19.994	103.322	20.219	4.119	0.503
212.000	186.721	80.006	19.994	103.305	20.216	4.293	0.488
214.000	187.784	80.007	19.995	103.309	20.211	4.648	0.506
216.000	188.761	80.009	19.996	103.313	20.215	4.382	0.507
218.000	189.766	80.010	19.995	103.306	20.214	4.472	0.515
220.001	190.762	80.008	19.995	103.308	20.217	4.280	0.520
222.000	191.735	80.010	19.996	103.308	20.214	4.442	0.499
224.000	192.690	80.009	19.994	103.296	20.217	4.280	0.469
226.000	193.664	80.010	19.995	103.296	20.223	3.840	0.500
228.000	194.656	80.007	19.994	103.302	20.217	4.242	0.488
230.000	195.615	80.007	19.995	103.293	20.221	3.963	0.457
232.000	196.609	80.008	19.994	103.293	20.220	4.040	0.485
234.000	197.558	80.007	19.995	103.294	20.220	4.005	0.479
236.001	198.546	80.008	19.996	103.293	20.221	3.929	0.481
238.000	199.580	80.009	19.995	103.286	20.221	3.929	0.498
240.000	200.537	80.008	19.996	103.288	20.223	3.800	0.478
242.000	201.512	80.008	19.994	103.288	20.223	3.771	0.466
244.000	202.460	80.010	19.995	103.294	20.225	3.658	0.460
246.000	203.519	80.007	19.995	103.296	20.224	3.733	0.513
248.000	204.411	80.009	19.996	103.293	20.225	3.648	0.428
250.000	205.442	80.009	19.995	103.301	20.223	3.840	0.501
252.000	206.433	80.007	19.996	103.291	20.225	3.644	0.527
254.000	207.447	80.007	19.996	103.301	20.225	3.668	0.515
256.000	208.402	80.006	19.996	103.293	20.222	3.898	0.453
258.000	209.436	80.005	19.996	103.291	20.224	3.721	0.492
260.000	210.366	80.005	19.995	103.293	20.227	3.502	0.485
262.000	211.365	80.005	19.995	103.294	20.224	3.706	0.515
264.000	212.355	80.004	19.997	103.291	20.230	3.292	0.502
266.000	213.360	80.007	19.995	103.295	20.225	3.654	0.498
268.000	214.335	80.007	19.994	103.292	20.227	3.535	0.483
270.000	215.290	80.007	19.995	103.291	20.231	3.234	0.461
272.000	216.329	80.009	19.995	103.292	20.232	3.157	0.510
274.000	217.314	80.005	19.995	103.289	20.231	3.236	0.490
276.000	218.343	80.006	19.996	103.289	20.234	2.979	0.478
278.000	219.325	80.008	19.995	103.289	20.234	2.979	0.502
280.000	220.314	80.007	19.994	103.288	20.233	3.090	0.490
282.000	221.362	80.007	19.996	103.286	20.232	3.106	0.542
284.000	222.349	80.009	19.996	103.285	20.235	2.953	0.522
286.000	223.360	80.007	19.997	103.288	20.235	2.894	0.541
288.000	224.364	80.006	19.995	103.288	20.230	3.284	0.502
290.000	225.385	80.006	19.996	103.287	20.231	3.225	0.500
292.000	226.437	80.008	19.996	103.286	20.233	3.068	0.536
294.000	227.430	80.005	19.995	103.285	20.234	2.967	0.513
296.000	228.439	80.006	19.994	103.286	20.238	2.703	0.527
298.000	229.417	80.008	19.995	103.288	20.239	2.642	0.498
300.000	230.447	80.009	19.995	103.282	20.237	2.767	0.520
302.000	231.442	80.008	19.995	103.290	20.238	2.668	0.486
304.000	232.448	80.009	19.995	103.290	20.243	2.314	0.524
306.000	233.491	80.008	19.994	103.287	20.241	2.514	0.498
308.000	234.506	80.008	19.994	103.288	20.241	2.449	0.538
310.000	235.506	80.009	19.994	103.289	20.238	2.695	0.495
312.000	236.553	80.008	19.995	103.290	20.238	2.682	0.519
314.000	237.533	80.007	19.994	103.288	20.239	2.664	0.518
316.000	238.541	80.007	19.995	103.242	20.235	2.896	0.484
318.000	239.518	80.007	19.995	103.284	20.239	2.604	0.474
320.000	240.481	80.008	19.995	103.340	20.242	2.401	0.481
322.000	241.499	80.006	19.996	103.282	20.239	2.644	0.477
324.000	242.479	80.008	19.994	103.288	20.242	2.417	0.499
326.000	243.470	80.009	19.995	103.285	20.240	2.527	0.499
328.000	244.443	80.010	19.995	103.288	20.241	2.462	0.489
330.000	245.463	80.009	19.994	103.287	20.241	2.514	0.511
332.000	246.426	80.007	19.995	103.283	20.238	2.682	0.495
334.000	247.421	80.009	19.994	103.246	20.239	2.624	0.480
336.000	248.439	80.008	19.996	103.268	20.240	2.567	0.517
338.000	249.410	80.005	19.994	103.286	20.245	2.193	0.525
340.000	250.439	80.008	19.995	103.324	20.241	2.498	0.493
342.000	251.445	80.006	19.995	103.309	20.242	2.428	0.531
344.000	252.461	80.006	19.994	103.284	20.243	2.357	0.508
346.000	253.389	80.006	19.996	103.280	20.244	2.242	0.480
348.000	254.422	80.006	19.996	103.280	20.243	2.361	0.478
350.000	255.425	80.006	19.996	103.273	20.240	2.559	0.510
352.000	256.426	80.005	19.996	103.285	20.242	2.383	0.535
354.000	257.395	80.004	19.997	103.278	20.245	2.193	0.497
356.000	258.410	80.004	19.996	103.280	20.245	2.205	0.517
358.000	259.353	80.005	19.996	103.272	20.246	2.117	0.463
360.000	260.377	80.005	19.996	103.265	20.247	2.076	0.489
362.000	261.316	80.009	19.995	103.282	20.243	2.315	0.467
364.000	262.268	80.007	19.995	103.265	20.248	1.997	0.469
366.000	263.294	80.007	19.995	103.277	20.244	2.248	0.491
368.000	264.308	80.007	19.994	103.275	20.245	2.217	0.508
370.000	265.301	80.006	19.995	103.284	20.246	2.106	0.473
372.000	266.281	80.004	19.995	103.286	20.245	2.215	0.513
374.000	267.301	80.005	19.995	103.279	20.244	2.246	0.519
376.000	268.283	80.005	19.995	103.273	20.249	1.898	0.475
378.000	269.282	80.006	19.994	103.267	20.252	1.666	0.493
380.000	270.271	80.007	19.995	103.263	20.246	2.124	0.473
382.000	271.307	80.008	19.995	103.272	20.249	1.858	0.501
384.000	272.342	80.007	19.995	103.269	20.249	1.866	0.505
386.000	273.355	80.008	19.994	103.267	20.247	2.036	0.527
388.000	274.334	80.009	19.995	103.277	20.250	1.807	0.533
390.000	275.346	80.008	19.994	103.274	20.247	2.025	0.556
392.000	276.337	80.005	19.994	103.260	20.249	1.916	0.522
394.000	277.372	80.007	19.993	103.266	20.249	1.872	0.525
396.000	278.339	80.008	19.995	103.269	20.248	1.991	0.525
398.000	279.370	80.006	19.994	103.264	20.250	1.850	0.515
400.000	280.364	80.006	19.995	103.257	20.248	1.961	0.473
402.000	281.328	80.008	19.995	103.251	20.248	1.973	0.497
404.000	282.336	80.008	19.994	103.262	20.248	1.975	0.520
406.000	283.359	80.010	19.995	103.260	20.250	1.828	0.528
408.000	284.354	80.010	19.995	103.258	20.250	1.832	0.511
410.000	285.351	80.007	19.994	103.263	20.247	2.025	0.469
412.000	286.375	80.010	19.996	103.255	20.252	1.652	0.513
414.000	287.365	80.008	19.995	103.267	20.252	1.686	0.503
416.000	288.383	80.010	19.996	103.276	20.249	1.868	0.470
418.000	289.377	80.008	19.996	103.263	20.249	1.898	0.481
420.000	290.410	80.005	19.995	103.262	20.252	1.658	0.528
422.000	291.404	80.007	19.996	103.257	20.248	1.952	0.497
424.000	292.417	80.008	19.995	103.252	20.247	2.066	0.488
426.000	293.465	80.006	19.995	103.252	20.246	2.122	0.495
428.000	294.494	80.008	19.995	103.253	20.248	1.934	0.548
430.000	295.488	80.007	19.996	103.254	20.248	1.963	0.520
432.000	296.482	80.007	19.995	103.253	20.246	2.134	0.532
434.000	297.517	80.005	19.996	103.250	20.247	2.007	0.506
436.000	298.488	80.005	19.995	103.251	20.250	1.833	0.503
438.000	299.487	80.006	19.994	103.253	20.245	2.169	0.502
440.000	300.490	80.007	19.994	103.259	20.250	1.815	0.501
442.000	301.486	80.006	19.996	103.256	20.253	1.579	0.512
444.000	302.481	80.006	19.996	103.257	20.251	1.779	0.492
446.000	303.543	80.005	19.996	103.250	20.250	1.813	0.501
448.000	304.551	80.005	19.995	103.256	20.248	1.971	0.504
450.000	305.563	80.006	19.995	103.255	20.251	1.771	0.513
452.000	306.567	80.005	19.996	103.255	20.249	1.866	0.503
454.000	307.615	80.005	19.995	103.252	20.252	1.698	0.513
456.000	308.633	80.004	19.996	103.256	20.247	2.023	0.514
458.000	309.633	80.006	19.994	103.252	20.253	1.625	0.506
460.000	310.616	80.006	19.995	103.254	20.252	1.639	0.526
462.000	311.634	80.008	19.995	103.254	20.250	1.785	0.512
464.000	312.694	80.005	19.994	103.252	20.250	1.817	0.518
466.000	313.686	80.008	19.995	103.258	20.253	1.621	0.494
468.000	314.740	80.009	19.995	103.252	20.252	1.664	0.513
470.000	315.785	80.008	19.994	103.250	20.252	1.639	0.513
472.000	316.796	80.009	19.993	103.248	20.252	1.698	0.527
474.000	317.820	80.008	19.995	103.248	20.251	1.736	0.500
476.000	318.811	80.008	19.994	103.248	20.250	1.849	0.489
478.000	319.827	80.009	19.994	103.249	20.249	1.857	0.499
480.000	320.870	80.009	19.995	103.248	20.253	1.623	0.544
482.000	321.874	80.007	19.995	103.249	20.256	1.361	0.473
484.000	322.886	80.008	19.994	103.247	20.252	1.696	0.519
486.000	323.906	80.007	19.995	103.247	20.251	1.712	0.502
488.000	324.920	80.010	19.994	103.247	20.248	1.969	0.528
490.000	325.887	80.011	19.995	103.247	20.251	1.728	0.506
492.000	326.940	80.010	19.994	103.249	20.255	1.444	0.507
494.000	327.962	80.012	19.995	103.248	20.251	1.730	0.503
496.000	328.967	80.012	19.994	103.249	20.251	1.736	0.503
498.000	330.006	80.009	19.995	103.248	20.253	1.603	0.502
500.000	330.986	80.010	19.994	103.250	20.248	1.967	0.497
502.000	332.014	80.006	19.994	103.250	20.249	1.904	0.500
504.000	333.064	80.008	19.995	103.250	20.250	1.819	0.539
506.000	334.085	80.006	19.995	103.251	20.249	1.864	0.497
508.000	335.150	80.007	19.995	103.256	20.249	1.882	0.539
510.000	336.124	80.006	19.995	103.254	20.250	1.817	0.507
512.000	337.154	80.007	19.995	103.247	20.246	2.122	0.516
514.000	338.130	80.006	19.995	103.246	20.246	2.110	0.487
516.000	339.165	80.008	19.996	103.251	20.246	2.078	0.533
518.000	340.161	80.006	19.996	103.251	20.249	1.920	0.485
520.000	341.186	80.006	19.995	103.247	20.249	1.888	0.518
522.000	342.200	80.007	19.995	103.250	20.246	2.124	0.465
524.000	343.185	80.009	19.994	103.251	20.251	1.775	0.503
526.000	344.210	80.006	19.994	103.249	20.249	1.878	0.545
528.000	345.182	80.006	19.996	103.253	20.249	1.902	0.496
530.000	346.198	80.006	19.995	103.250	20.248	1.985	0.487
532.000	347.231	80.008	19.996	103.249	20.252	1.670	0.494
534.000	348.252	80.006	19.996	103.248	20.253	1.635	0.540
536.000	349.272	80.007	19.996	103.243	20.248	1.998	0.518
538.000	350.299	80.005	19.995	103.247	20.250	1.839	0.539
540.000	351.290	80.006	19.995	103.195	20.250	1.851	0.504
542.000	352.312	80.006	19.997	103.214	20.251	1.765	0.513
544.000	353.341	80.007	19.997	103.236	20.253	1.635	0.511
546.000	354.363	80.007	19.996	103.258	20.248	2.003	0.481
548.000	355.368	80.008	19.995	103.300	20.246	2.102	0.524
550.000	356.361	80.010	19.995	103.239	20.253	1.573	0.492
552.000	357.360	80.009	19.995	103.243	20.249	1.915	0.506
554.000	358.391	80.009	19.995	103.243	20.248	1.946	0.514
556.000	359.367	80.010	19.995	103.247	20.247	2.054	0.485
558.000	360.383	80.007	19.994	103.246	20.246	2.130	0.517
560.000	361.366	80.007	19.995	103.241	20.242	2.427	0.497
562.000	362.350	80.006	19.994	103.244	20.241	2.502	0.505
564.000	363.382	80.006	19.995	103.194	20.243	2.338	0.534
566.000	364.347	80.006	19.994	103.280	20.239	2.639	0.481
568.000	365.364	80.006	19.994	103.279	20.234	3.016	0.539
570.000	366.341	80.010	19.994	103.249	20.234	3.018	0.461
572.000	367.353	80.007	19.996	103.249	20.231	3.233	0.504
574.000	368.338	80.007	19.994	103.248	20.225	3.620	0.489
576.000	369.356	80.009	19.995	103.248	20.224	3.760	0.522
578.000	370.377	80.008	19.995	103.249	20.222	3.869	0.518
580.000	371.391	80.009	19.995	103.248	20.216	4.344	0.520
582.000	372.370	80.008	19.993	103.246	20.216	4.342	0.516
584.000	373.387	80.008	19.994	103.252	20.204	5.164	0.529
586.000	374.415	80.006	19.994	103.253	20.200	5.489	0.505
588.000	375.441	80.008	19.994	103.253	20.189	6.292	0.509
590.000	376.501	80.007	19.994	103.271	20.182	6.840	0.529
592.000	377.511	80.008	19.995	103.258	20.177	7.182	0.537
594.000	378.525	80.008	19.994	103.278	20.165	8.026	0.485
596.000	379.536	80.007	19.995	103.273	20.156	8.727	0.487
598.000	380.601	80.007	19.996	103.277	20.148	9.287	0.522
600.000	381.601	80.007	19.995	103.282	20.140	9.879	0.501
602.000	382.603	80.006	19.994	103.282	20.130	10.614	0.533
604.000	383.655	80.006	19.995	103.282	20.119	11.445	0.525
606.000	384.683	80.007	19.996	103.281	20.115	11.700	0.527
608.000	385.750	80.006	19.996	103.283	20.114	11.806	0.558
610.000	386.736	80.007	19.996	103.290	20.105	12.455	0.482
612.000	387.806	80.005	19.995	103.292	20.099	12.881	0.509
614.000	388.850	80.008	19.994	103.292	20.089	13.636	0.542
616.000	389.888	80.006	19.996	103.294	20.080	14.330	0.510
618.000	390.903	80.006	19.995	103.301	20.071	14.956	0.511
620.000	392.010	80.007	19.994	103.306	20.061	15.727	0.489
622.000	392.997	80.004	19.995	103.307	20.046	16.817	0.485
624.000	394.080	80.004	19.996	103.313	20.033	17.747	0.504
626.000	395.178	80.007	19.995	103.323	20.022	18.565	0.551
628.000	396.132	80.006	19.995	103.327	19.996	20.491	0.477
630.000	397.258	80.006	19.995	103.333	19.973	22.169	0.550
632.000	398.307	80.007	19.995	103.340	19.955	23.471	0.496
634.000	399.338	80.008	19.996	103.311	19.940	24.570	0.513
636.000	400.394	80.006	19.996	103.299	19.926	25.669	0.529
638.000	401.300	80.006	19.996	103.308	19.915	26.456	0.518
640.000	402.566	80.007	19.996	103.372	19.898	27.659	0.364
642.000	403.115	80.006	19.996	103.401	19.883	28.837	0.381
644.000	404.405	80.006	19.994	103.379	19.869	29.836	0.870
646.000	405.561	80.008	19.995	103.393	19.844	31.670	0.147
648.000	406.633	80.008	19.994	103.400	19.820	33.414	0.534
650.000	407.393	80.008	19.995	103.410	19.790	35.633	0.371
652.000	408.547	80.007	19.995	103.428	19.753	38.350	0.476
654.000	409.597	80.008	19.994	103.445	19.699	42.373	0.528
656.000	410.573	80.007	19.994	103.464	19.653	45.748	0.497
658.001	411.629	80.009	19.994	103.445	19.614	48.590	0.499
660.000	412.630	80.008	19.993	103.422	19.578	51.306	0.496
662.000	413.665	80.008	19.994	103.429	19.547	53.540	0.474
664.000	414.681	80.006	19.995	103.484	19.513	56.087	0.508
666.000	415.679	80.008	19.994	103.528	19.475	58.884	0.519
668.000	416.699	80.007	19.994	103.534	19.434	61.944	0.500
670.000	417.740	80.007	19.995	103.542	19.391	65.111	0.543
672.000	418.699	80.006	19.995	103.556	19.347	68.342	0.480
674.000	419.748	80.006	19.993	103.558	19.295	72.154	0.486
676.000	420.753	80.006	19.995	103.583	19.236	76.559	0.487
678.000	421.756	80.008	19.994	103.627	19.176	81.024	0.507
680.000	422.741	80.007	19.995	103.639	19.118	85.250	0.486
682.000	423.778	80.008	19.994	103.637	19.061	89.500	0.487
684.000	424.806	80.006	19.993	103.639	18.995	94.385	0.519
686.000	425.762	80.007	19.994	103.671	18.938	98.630	0.514
688.000	426.751	80.009	19.994	103.710	18.878	103.062	0.476
690.000	427.785	80.007	19.995	103.722	18.820	107.367	0.482
692.000	428.806	80.007	19.994	103.732	18.759	111.895	0.533
694.000	429.825	80.006	19.995	103.763	18.694	116.773	0.506
696.000	430.818	80.006	19.996	103.798	18.631	121.447	0.502
698.000	431.811	80.007	19.995	103.814	18.563	126.476	0.506
700.000	432.821	80.006	19.995	103.854	18.493	131.577	0.495
702.000	433.801	80.004	19.996	103.878	18.411	137.677	0.508
704.000	434.862	80.006	19.995	103.921	18.333	143.463	0.543
706.000	435.863	80.006	19.996	103.919	18.253	149.471	0.491
708.000	436.875	80.006	19.995	103.937	18.186	154.474	0.530
710.000	437.917	80.006	19.994	103.938	18.128	158.814	0.492
712.000	438.950	80.007	19.995	103.930	18.084	162.057	0.539
714.000	439.947	80.006	19.994	103.965	18.053	164.296	0.519
716.000	440.971	80.005	19.994	103.971	18.020	166.768	0.508
718.000	441.970	80.008	19.995	104.016	17.985	169.382	0.509
720.000	442.961	80.006	19.995	104.055	17.947	172.170	0.489
722.000	443.991	80.006	19.995	104.092	17.919	174.298	0.499
724.000	444.961	80.007	19.995	104.081	17.888	176.541	0.494
726.000	446.039	80.007	19.995	104.071	17.862	178.461	0.570
728.000	447.068	80.007	19.995	104.069	17.842	179.972	0.488
730.000	448.072	80.008	19.996	104.076	17.827	181.043	0.503
732.000	449.126	80.008	19.996	104.091	17.816	181.788	0.522
734.000	450.108	80.007	19.995	104.084	17.806	182.523	0.548
736.000	451.164	80.009	19.995	104.081	17.813	181.969	0.529
738.000	452.168	80.009	19.995	104.070	17.831	180.571	0.473
740.000	453.193	80.009	19.994	104.065	17.864	178.098	0.508
742.000	454.219	80.012	19.994	104.037	17.912	174.499	0.516
744.000	455.282	80.009	19.993	104.015	17.972	169.998	0.534
746.000	456.288	80.009	19.994	104.008	18.039	165.015	0.509
748.000	457.284	80.008	19.994	103.987	18.128	158.360	0.508
750.000	458.291	80.007	19.993	103.967	18.217	151.728	0.530
752.000	459.344	80.008	19.994	103.931	18.321	144.024	0.520
754.000	460.354	80.007	19.995	103.898	18.428	136.064	0.508
756.000	461.431	80.007	19.995	103.845	18.537	127.988	0.552
758.000	462.437	80.006	19.995	103.829	18.655	119.320	0.525
760.000	463.436	80.007	19.995	103.787	18.789	109.411	0.506
762.001	464.414	80.008	19.995	103.748	18.922	99.572	0.514
764.000	465.481	80.007	19.996	103.705	19.052	89.960	0.514
766.000	466.476	80.007	19.994	103.665	19.180	80.549	0.506
768.000	467.488	80.006	19.993	103.644	19.294	72.097	0.489
770.000	468.543	80.007	19.993	103.614	19.402	64.199	0.514
772.000	469.535	80.007	19.994	103.594	19.497	57.180	0.519
774.000	470.567	80.007	19.994	103.545	19.581	50.980	0.531
776.000	471.583	80.007	19.994	103.509	19.655	45.530	0.508
778.000	472.587	80.005	19.993	103.486	19.722	40.648	0.504
780.000	473.620	80.007	19.995	103.463	19.778	36.481	0.511
782.000	474.651	80.005	19.994	103.441	19.824	33.126	0.485
784.000	475.712	80.006	19.994	103.417	19.867	29.923	0.498
786.000	476.773	80.005	19.994	103.394	19.912	26.667	0.548
788.000	477.748	80.006	19.994	103.376	19.943	24.334	0.511
790.000	478.784	80.007	19.995	103.368	19.974	22.071	0.487
792.000	479.793	80.008	19.994	103.363	20.004	19.854	0.483
794.000	480.828	80.006	19.995	103.360	20.027	18.171	0.511
796.000	481.825	80.009	19.995	103.342	20.052	16.327	0.532
798.000	482.839	80.010	19.995	103.325	20.072	14.915	0.483
800.000	483.859	80.009	19.994	103.310	20.088	13.710	0.542
802.000	484.847	80.008	19.994	103.309	20.102	12.718	0.504
804.000	485.860	80.008	19.993	103.300	20.117	11.601	0.517
806.000	486.854	80.009	19.994	103.289	20.133	10.420	0.490
808.000	487.873	80.009	19.994	103.295	20.138	10.018	0.507
810.000	488.879	80.010	19.995	103.284	20.154	8.894	0.496
812.000	489.873	80.007	19.995	103.279	20.160	8.393	0.470
814.000	490.871	80.007	19.995	103.280	20.171	7.589	0.478
816.000	491.913	80.009	19.996	103.284	20.175	7.307	0.491
818.000	492.904	80.008	19.997	103.269	20.182	6.784	0.485
820.000	493.956	80.008	19.995	103.258	20.190	6.247	0.520
822.000	494.955	80.007	19.995	103.248	20.195	5.869	0.506
824.000	495.944	80.009	19.995	103.247	20.198	5.611	0.501
826.000	496.953	80.008	19.995	103.247	20.200	5.499	0.527
828.000	497.956	80.009	19.995	103.248	20.203	5.239	0.523
830.000	498.984	80.007	19.996	103.248	20.208	4.918	0.510
832.000	499.990	80.007	19.995	103.248	20.211	4.690	0.530
834.000	500.995	80.007	19.994	103.246	20.212	4.627	0.518
836.000	501.964	80.006	19.995	103.243	20.215	4.381	0.482
838.000	503.011	80.007	19.994	103.235	20.217	4.227	0.512
840.000	504.057	80.007	19.993	103.238	20.219	4.083	0.530
842.000	505.002	80.005	19.995	103.240	20.220	3.989	0.536
844.000	506.035	80.007	19.995	103.240	20.220	4.019	0.506
846.000	507.053	80.006	19.994	103.237	20.221	3.934	0.523
848.000	508.039	80.008	19.994	103.225	20.223	3.805	0.509
850.000	509.061	80.007	19.993	103.223	20.225	3.645	0.471
852.000	510.116	80.007	19.993	103.219	20.225	3.668	0.523
854.000	511.130	80.006	19.995	103.220	20.226	3.553	0.537
856.000	512.116	80.007	19.995	103.214	20.225	3.641	0.467
858.000	513.114	80.007	19.994	103.216	20.227	3.494	0.490
860.000	514.214	80.007	19.994	103.224	20.230	3.254	0.525
862.000	515.220	80.008	19.995	103.217	20.224	3.722	0.501
864.000	516.283	80.008	19.996	103.225	20.230	3.270	0.518
866.000	517.326	80.007	19.995	103.223	20.229	3.334	0.520
868.000	518.335	80.008	19.994	103.215	20.227	3.537	0.501
870.000	519.382	80.006	19.994	103.215	20.230	3.283	0.531
872.000	520.435	80.008	19.995	103.217	20.228	3.455	0.542
874.000	521.451	80.008	19.994	103.216	20.231	3.235	0.516
876.000	522.435	80.008	19.995	103.233	20.233	3.074	0.526
878.000	523.530	80.008	19.995	103.180	20.233	3.031	0.544
880.000	524.543	80.009	19.995	103.241	20.233	3.056	0.504
882.000	525.543	80.009	19.995	103.239	20.232	3.139	0.486
884.000	526.586	80.008	19.995	103.212	20.233	3.102	0.510
886.000	527.644	80.008	19.994	103.210	20.230	3.268	0.518
888.000	528.664	80.007	19.994	103.210	20.232	3.157	0.523
890.000	529.732	80.004	19.994	103.214	20.231	3.177	0.515
892.000	530.741	80.006	19.994	103.214	20.233	3.062	0.507
894.000	531.766	80.008	19.995	103.212	20.236	2.826	0.522
896.000	532.804	80.010	19.994	103.212	20.230	3.278	0.553
898.000	533.827	80.010	19.994	103.213	20.236	2.846	0.513
900.000	534.875	80.010	19.996	103.213	20.235	2.886	0.543
902.000	535.911	80.009	19.995	103.216	20.237	2.793	0.537
904.000	536.911	80.010	19.994	103.216	20.235	2.933	0.499
906.000	537.985	80.010	19.993	103.211	20.235	2.896	0.518
908.000	538.996	80.008	19.994	103.217	20.230	3.268	0.507
910.000	540.015	80.006	19.994	103.213	20.232	3.114	0.502
912.000	541.095	80.007	19.994	103.211	20.229	3.326	0.531
914.000	542.110	80.005	19.995	103.213	20.230	3.314	0.514
916.000	543.081	80.005	19.996	103.214	20.231	3.223	0.476
918.000	544.127	80.006	19.994	103.212	20.230	3.296	0.500
920.000	545.078	80.006	19.995	103.213	20.232	3.134	0.498
922.000	546.068	80.007	19.995	103.212	20.233	3.048	0.490
924.000	547.133	80.004	19.996	103.209	20.235	2.914	0.528
926.000	548.142	80.008	19.995	103.210	20.234	2.981	0.505
928.000	549.148	80.005	19.995	103.207	20.233	3.042	0.488
930.000	550.180	80.006	19.995	103.212	20.229	3.336	0.526
932.000	551.233	80.006	19.994	103.208	20.229	3.342	0.533
934.000	552.298	80.007	19.994	103.211	20.234	2.967	0.519
936.000	553.336	80.006	19.995	103.209	20.232	3.148	0.523
938.000	554.412	80.006	19.995	103.210	20.232	3.161	0.531
940.000	555.446	80.007	19.996	103.209	20.231	3.183	0.528
942.000	556.486	80.007	19.995	103.209	20.230	3.296	0.507
944.000	557.493	80.007	19.994	103.209	20.227	3.471	0.518
946.000	558.521	80.007	19.995	103.208	20.234	2.995	0.519
948.000	559.592	80.006	19.994	103.209	20.230	3.258	0.514
950.000	560.595	80.008	19.996	103.211	20.229	3.359	0.502
952.000	561.646	80.006	19.995	103.212	20.228	3.409	0.537
954.000	562.694	80.007	19.995	103.211	20.225	3.653	0.561
956.000	563.740	80.006	19.994	103.211	20.227	3.502	0.544
958.000	564.750	80.009	19.994	103.212	20.224	3.736	0.502
960.000	565.812	80.008	19.995	103.212	20.225	3.621	0.509
962.000	566.821	80.008	19.995	103.212	20.226	3.603	0.499
964.000	567.853	80.009	19.996	103.217	20.225	3.688	0.550
966.000	568.906	80.008	19.994	103.216	20.227	3.488	0.524
968.000	569.903	80.008	19.992	103.214	20.224	3.692	0.514
970.000	570.963	80.009	19.993	103.213	20.230	3.314	0.514
972.000	571.987	80.006	19.994	103.214	20.224	3.692	0.527
974.000	573.026	80.005	19.993	103.217	20.227	3.482	0.507
976.000	574.089	80.007	19.995	103.214	20.226	3.564	0.510
978.000	575.154	80.006	19.995	103.214	20.224	3.734	0.508
980.000	576.203	80.007	19.994	103.213	20.219	4.069	0.540
982.000	577.209	80.006	19.994	103.214	20.223	3.821	0.512
984.000	578.214	80.009	19.993	103.213	20.223	3.774	0.479
986.000	579.228	80.009	19.995	103.211	20.223	3.774	0.505
988.000	580.304	80.010	19.994	103.209	20.223	3.816	0.520
990.000	581.290	80.008	19.995	103.210	20.223	3.829	0.513
992.000	582.301	80.008	19.993	103.207	20.226	3.554	0.497
994.000	583.318	80.007	19.994	103.207	20.221	3.944	0.498
996.000	584.331	80.006	19.996	103.209	20.222	3.899	0.515
998.000	585.391	80.007	19.994	103.208	20.222	3.847	0.510
1000.000	586.380	80.007	19.996	103.206	20.222	3.895	0.491
1002.000	587.435	80.007	19.996	103.209	20.221	3.982	0.515
1004.000	588.473	80.007	19.995	103.209	20.220	4.028	0.535
1006.000	589.473	80.006	19.997	103.204	20.217	4.255	0.497
1008.000	590.465	80.006	19.996	103.210	20.215	4.372	0.479
1010.000	591.519	80.005	19.996	103.208	20.215	4.376	0.517
1012.000	592.538	80.006	19.995	103.210	20.219	4.093	0.494
1014.000	593.577	80.006	19.995	103.207	20.223	3.821	0.514
1016.000	594.565	80.006	19.996	103.206	20.216	4.341	0.470
1018.000	595.653	80.007	19.996	103.210	20.219	4.099	0.521
1020.000	596.670	80.006	19.997	103.211	20.216	4.301	0.515
1022.000	597.679	80.005	19.995	103.210	20.217	4.244	0.503
1024.000	598.687	80.007	19.996	103.212	20.217	4.273	0.516
1025.999	599.748	80.007	19.995	103.213	20.211	4.683	0.508
1028.000	600.786	80.007	19.996	103.211	20.217	4.224	0.520
1029.999	601.863	80.005	19.994	103.216	20.218	4.200	0.527
1031.999	602.876	80.006	19.995	103.215	20.215	4.410	0.520
1033.999	603.892	80.006	19.995	103.208	20.217	4.271	0.490
1036.000	604.922	80.007	19.995	103.213	20.218	4.194	0.510
1037.999	605.965	80.006	19.994	103.212	20.217	4.267	0.520
1039.999	607.006	80.008	19.995	103.204	20.218	4.160	0.546
1042.001	608.035	80.009	19.995	103.213	20.217	4.273	0.512
1043.999	609.042	80.009	19.995	103.211	20.216	4.305	0.518
1045.999	610.007	80.007	19.994	103.210	20.217	4.254	0.502
1048.000	611.069	80.010	19.994	103.212	20.218	4.178	0.502
1050.000	612.099	80.009	19.994	103.208	20.210	4.737	0.535
1052.000	613.118	80.008	19.996	103.209	20.217	4.222	0.514
1053.999	614.136	80.008	19.996	103.208	20.216	4.301	0.492
1055.999	615.168	80.007	19.995	103.204	20.216	4.343	0.503
1057.999	616.203	80.008	19.994	103.209	20.221	3.972	0.530
1059.999	617.198	80.007	19.996	103.208	20.215	4.420	0.488
1061.999	618.197	80.008	19.994	103.205	20.219	4.059	0.490
1063.999	619.200	80.008	19.993	103.207	20.218	4.192	0.492
1065.999	620.215	80.008	19.995	103.208	20.216	4.345	0.489
1068.000	621.244	80.009	19.994	103.209	20.219	4.059	0.509
1070.001	622.269	80.009	19.995	103.207	20.218	4.166	0.518
1071.999	623.267	80.009	19.995	103.209	20.219	4.085	0.507
1073.999	624.334	80.007	19.994	103.207	20.221	3.960	0.515
1075.999	625.271	80.007	19.995	103.208	20.216	4.289	0.461
1077.999	626.311	80.005	19.995	103.207	20.219	4.067	0.513
1079.999	627.290	80.007	19.996	103.207	20.218	4.176	0.493
1082.000	628.340	80.007	19.996	103.209	20.214	4.436	0.522
1083.999	629.367	80.007	19.996	103.209	20.213	4.549	0.520
1086.000	630.412	80.005	19.995	103.210	20.220	4.055	0.527
1087.999	631.390	80.008	19.995	103.209	20.218	4.174	0.490
1089.999	632.430	80.007	19.994	103.211	20.219	4.097	0.522
1091.999	633.459	80.006	19.995	103.206	20.224	3.742	0.519
1093.999	634.500	80.006	19.994	103.207	20.225	3.679	0.549
1095.999	635.547	80.007	19.994	103.211	20.223	3.774	0.523
1098.000	636.585	80.007	19.994	103.211	20.225	3.673	0.520
1099.999	637.595	80.007	19.995	103.210	20.224	3.713	0.506
1101.999	638.608	80.007	19.996	103.209	20.226	3.597	0.499
1103.999	639.680	80.007	19.995	103.207	20.225	3.673	0.507
1106.000	640.769	80.007	19.996	103.212	20.223	3.812	0.549
1107.999	641.797	80.006	19.996	103.210	20.219	4.063	0.539
1109.999	642.840	80.006	19.997	103.210	20.222	3.859	0.519
1111.999	643.891	80.006	19.996	103.200	20.221	3.921	0.527
1114.000	644.915	80.005	19.996	103.175	20.227	3.520	0.493
1116.000	645.954	80.006	19.996	103.172	20.220	4.048	0.543
1117.999	646.988	80.007	19.996	103.249	20.224	3.747	0.520
1120.000	648.053	80.007	19.995	103.196	20.227	3.507	0.536
1121.999	649.113	80.006	19.993	103.204	20.221	3.916	0.528
1123.999	650.173	80.007	19.995	103.202	20.224	3.709	0.532
1125.999	651.197	80.009	19.995	103.190	20.223	3.790	0.553
1127.999	652.234	80.009	19.994	103.183	20.224	3.713	0.524
1130.000	653.323	80.008	19.993	103.197	20.231	3.218	0.503
1132.000	654.370	80.007	19.994	103.186	20.228	3.432	0.534
1133.999	655.442	80.008	19.994	103.185	20.230	3.261	0.577
1135.999	656.462	80.007	19.993	103.197	20.228	3.414	0.518
1137.999	657.493	80.007	19.993	103.181	20.230	3.259	0.539
1140.000	658.518	80.005	19.994	103.184	20.232	3.168	0.514
1142.000	659.589	80.009	19.994	103.183	20.230	3.295	0.518
1144.000	660.576	80.008	19.994	103.186	20.234	2.988	0.507
1145.999	661.625	80.008	19.995	103.182	20.228	3.405	0.535
1147.999	662.645	80.010	19.995	103.195	20.233	3.030	0.511
1149.999	663.616	80.009	19.995	103.182	20.226	3.563	0.505
1152.000	664.656	80.009	19.995	103.181	20.233	3.065	0.486
1154.000	665.645	80.010	19.995	103.183	20.234	3.015	0.495
1156.000	666.622	80.009	19.994	103.185	20.230	3.293	0.514
1157.999	667.623	80.008	19.994	103.135	20.233	3.077	0.506
1160.000	668.625	80.007	19.995	103.216	20.234	3.025	0.512
1161.999	669.603	80.006	19.993	103.218	20.232	3.168	0.515
1164.000	670.596	80.005	19.994	103.186	20.232	3.142	0.506
1166.000	671.639	80.007	19.995	103.182	20.233	3.065	0.501
1167.999	672.606	80.007	19.996	103.183	20.235	2.904	0.484
1169.999	673.641	80.005	19.995	103.181	20.237	2.778	0.510
1172.000	674.627	80.005	19.995	103.188	20.240	2.528	0.503
1173.999	675.663	80.006	19.995	103.197	20.238	2.708	0.520
1175.999	676.627	80.007	19.996	103.194	20.237	2.784	0.559
1177.999	677.626	80.006	19.996	103.184	20.233	3.042	0.504
1180.000	678.632	80.007	19.994	103.175	20.238	2.665	0.486
1182.000	679.629	80.007	19.996	103.176	20.232	3.144	0.482
1183.999	680.653	80.006	19.993	103.180	20.234	2.979	0.540
1186.000	681.686	80.006	19.994	103.186	20.237	2.762	0.489
1187.999	682.633	80.007	19.995	103.175	20.230	3.265	0.481
1190.000	683.635	80.006	19.995	103.175	20.236	2.841	0.479
1192.000	684.682	80.005	19.994	103.179	20.233	3.084	0.518
1194.000	685.680	80.006	19.996	103.196	20.233	3.069	0.517
1196.000	686.707	80.007	19.995	103.191	20.234	2.998	0.524
1197.999	687.699	80.005	19.995	103.175	20.235	2.891	0.494
1200.000	688.747	80.006	19.996	103.182	20.234	2.958	0.512
1201.999	689.820	80.006	19.996	103.203	20.238	2.666	0.522
1203.999	690.869	80.007	19.996	103.198	20.238	2.670	0.526
1205.999	691.888	80.007	19.996	103.177	20.238	2.678	0.537
1208.000	692.940	80.007	19.996	103.173	20.239	2.593	0.525
1209.999	694.023	80.007	19.995	103.178	20.233	3.073	0.456
1211.999	695.062	80.005	19.995	103.183	20.234	2.984	0.539
1213.999	696.123	80.008	19.996	103.197	20.232	3.118	0.542
1216.000	697.207	80.006	19.995	103.191	20.239	2.601	0.540
1217.999	698.270	80.007	19.994	103.183	20.234	3.015	0.529
1219.999	699.353	80.006	19.994	103.173	20.235	2.902	0.545
1221.999	700.391	80.006	19.995	103.174	20.235	2.938	0.523
1223.999	701.413	80.005	19.993	103.186	20.234	3.004	0.522
1226.000	702.444	80.007	19.994	103.181	20.238	2.732	0.502
1227.999	703.509	80.007	19.994	103.179	20.238	2.677	0.567
1230.000	704.516	80.008	19.995	103.190	20.238	2.663	0.522
1231.999	705.544	80.008	19.995	103.184	20.240	2.546	0.513
1233.999	706.552	80.008	19.994	103.174	20.235	2.938	0.502
1235.999	707.611	80.009	19.994	103.180	20.236	2.863	0.500
1237.999	708.623	80.008	19.995	103.178	20.241	2.502	0.484
1239.999	709.649	80.007	19.994	103.179	20.234	2.980	0.532
1241.999	710.691	80.005	19.994	103.177	20.239	2.657	0.487
1243.999	711.700	80.007	19.996	103.173	20.234	2.988	0.496
1245.999	712.716	80.006	19.995	103.175	20.238	2.685	0.524
1247.999	713.710	80.006	19.995	103.175	20.239	2.633	0.475
1249.999	714.793	80.006	19.994	103.180	20.238	2.732	0.530
1252.000	715.797	80.005	19.995	103.171	20.235	2.936	0.495
1253.999	716.842	80.005	19.994	103.176	20.234	2.976	0.512
1255.999	717.849	80.006	19.995	103.171	20.235	2.887	0.527
1257.999	718.853	80.007	19.993	103.177	20.233	3.039	0.486
1259.999	719.885	80.006	19.994	103.175	20.235	2.919	0.510
1261.999	720.881	80.006	19.995	103.177	20.229	3.335	0.512
1263.999	721.924	80.006	19.994	103.173	20.228	3.442	0.513
1265.999	722.939	80.006	19.995	103.180	20.230	3.278	0.552
1268.000	723.946	80.006	19.993	103.177	20.231	3.220	0.513
1269.999	724.919	80.004	19.996	103.171	20.232	3.141	0.483
1272.000	725.947	80.004	19.994	103.171	20.232	3.141	0.495
1274.000	726.906	80.005	19.995	103.173	20.232	3.155	0.515
1275.999	727.912	80.003	19.995	103.170	20.233	3.079	0.488
1278.000	728.930	80.004	19.994	103.171	20.235	2.899	0.512
1279.999	729.900	80.005	19.996	103.173	20.236	2.865	0.495
1281.999	730.912	80.005	19.994	103.175	20.229	3.394	0.499
1284.000	731.926	80.006	19.995	103.175	20.233	3.063	0.537
1286.000	732.892	80.005	19.994	103.173	20.232	3.146	0.509
1288.000	733.872	80.005	19.994	103.174	20.233	3.087	0.486
1290.000	734.893	80.008	19.995	103.175	20.233	3.095	0.516
1291.999	735.875	80.006	19.996	103.175	20.232	3.166	0.474
1294.000	736.891	80.008	19.996	103.176	20.235	2.952	0.511
1295.999	737.871	80.007	19.996	103.171	20.238	2.726	0.487
1297.999	738.808	80.006	19.995	103.181	20.234	2.976	0.468
1299.999	739.753	80.007	19.996	103.171	20.238	2.714	0.458
1301.999	740.774	80.005	19.994	103.173	20.234	2.984	0.520
1303.999	741.763	80.006	19.995	103.172	20.234	2.982	0.495
1306.000	742.728	80.005	19.994	103.173	20.234	3.008	0.476
1308.000	743.709	80.006	19.994	103.175	20.232	3.172	0.482
1308.499	743.922	80.008	19.995	103.174	20.231	3.240	0.490