File: 01_Data/Fiberboard_Pressed_Paper/MCC/Fiberboard_Pressed_Paper_MCC_30K_min_211005_R3.txt
Sample ID:	C:\MCC\MCC Cal\Test\Fiberboard_Pressed_Paper_MCC_30K_min_211005_R3.txt
Sample Weight (mg):	4.63
Heating Rate (C/s):	0.5
Combustor Temp (C):	900
N2 Flow Rate (cc/min):	80
O2 Flow Rate (cc/min):	20
Calibration File:	C:\MCC\MCC Cal\Coeff1 JN10440_30_210304.txt.txt
T Correction Coefficients:	0	1.024463	0
Time Shift (s):	14
*
Time (s)	Temperature (C)	N2 flow rate (cc/min)	O2 flow rate (cc/min)	Flow Rate (cc/min)	Oxygen (%)	HRR (W/g)	Heating rate (C/s)
0.000	108.088	79.995	19.998	100.810	20.042	-0.028	-0.020
2.000	108.076	79.995	19.997	100.823	20.040	0.120	0.005
4.000	108.061	79.995	19.996	100.823	20.042	0.037	0.000
6.000	108.056	79.995	19.996	100.814	20.043	-0.046	-0.008
8.000	108.096	79.996	19.995	100.813	20.041	0.050	0.021
10.000	108.048	79.996	19.996	100.821	20.043	-0.086	-0.024
12.000	108.074	79.997	19.994	100.824	20.040	0.156	-0.015
14.000	108.075	79.996	19.997	100.843	20.042	-0.028	0.024
16.000	108.055	79.998	19.995	100.858	20.038	0.287	0.025
18.000	108.052	79.997	19.995	100.863	20.039	0.217	-0.005
20.000	108.102	79.997	19.995	100.862	20.034	0.525	0.043
22.000	108.117	79.996	19.995	100.862	20.035	0.460	0.038
24.000	108.179	79.997	19.996	100.881	20.033	0.584	0.038
26.000	108.273	79.995	19.997	100.894	20.033	0.619	0.045
28.000	108.325	79.996	19.996	100.892	20.030	0.792	0.020
30.000	108.430	79.996	19.996	100.924	20.026	1.115	0.036
32.000	108.550	79.996	19.997	100.942	20.022	1.367	0.097
33.999	108.626	79.997	19.995	100.965	20.018	1.612	0.026
35.999	108.803	79.996	19.996	100.982	20.015	1.860	0.081
37.999	109.042	79.997	19.996	100.991	20.012	2.074	0.114
39.999	109.221	79.998	19.995	101.015	20.008	2.312	0.115
41.999	109.470	79.998	19.996	101.017	20.010	2.148	0.141
43.999	109.753	79.997	19.996	100.996	20.013	1.995	0.166
45.999	110.033	79.996	19.996	100.992	20.012	2.060	0.150
47.999	110.340	79.998	19.996	100.986	20.014	1.909	0.165
50.001	110.663	79.997	19.997	100.990	20.010	2.172	0.167
52.000	110.991	79.997	19.994	100.991	20.013	1.992	0.176
54.000	111.342	79.997	19.996	101.000	20.008	2.334	0.150
56.000	111.695	79.997	19.996	101.022	20.007	2.412	0.159
58.000	112.156	79.999	19.997	101.023	20.010	2.200	0.208
60.000	112.557	79.999	19.996	101.022	20.009	2.223	0.205
62.000	113.002	79.998	19.996	101.024	20.006	2.475	0.243
64.000	113.431	80.000	19.996	101.021	20.006	2.472	0.202
66.000	113.967	79.999	19.996	101.028	20.000	2.868	0.242
68.000	114.438	79.998	19.996	101.042	20.002	2.702	0.225
70.000	114.962	79.998	19.996	101.052	19.997	3.062	0.272
72.000	115.526	79.996	19.995	101.058	19.999	2.953	0.292
74.000	116.108	79.998	19.994	101.062	19.996	3.161	0.279
76.000	116.690	79.997	19.996	101.060	19.994	3.280	0.318
78.000	117.282	79.997	19.996	101.068	19.996	3.169	0.309
80.000	117.874	79.997	19.995	101.080	19.996	3.169	0.302
82.000	118.536	79.996	19.995	101.077	19.996	3.141	0.342
84.000	119.223	79.996	19.995	101.068	19.992	3.431	0.326
86.000	119.905	79.998	19.997	101.077	19.992	3.433	0.335
88.000	120.612	79.997	19.995	101.076	19.990	3.512	0.352
90.000	121.321	79.996	19.996	101.071	19.992	3.420	0.355
92.000	122.051	79.995	19.997	101.073	19.994	3.275	0.359
94.000	122.852	79.997	19.995	101.085	19.991	3.457	0.377
96.000	123.622	79.997	19.995	101.083	19.993	3.321	0.385
98.000	124.403	79.996	19.996	101.084	19.992	3.431	0.400
100.000	125.199	79.996	19.995	101.089	19.994	3.250	0.396
102.000	126.009	79.996	19.996	101.089	19.996	3.121	0.449
104.000	126.836	79.996	19.995	101.095	19.994	3.251	0.394
106.000	127.675	79.996	19.995	101.095	19.996	3.156	0.414
108.000	128.494	79.995	19.995	101.091	19.994	3.276	0.385
110.000	129.362	79.996	19.996	101.087	19.993	3.335	0.416
112.000	130.229	79.996	19.995	101.080	19.993	3.333	0.433
114.000	131.107	79.997	19.995	101.079	19.997	3.080	0.445
116.000	132.046	79.996	19.996	101.068	19.995	3.235	0.488
118.000	132.942	79.999	19.995	101.088	19.994	3.283	0.467
120.000	133.809	79.996	19.995	101.082	19.993	3.331	0.442
122.000	134.736	79.997	19.995	101.069	19.993	3.318	0.455
124.000	135.647	79.997	19.995	101.068	19.996	3.139	0.451
126.000	136.583	79.996	19.997	101.079	19.999	2.918	0.468
128.000	137.526	79.996	19.997	101.069	19.998	2.997	0.473
130.000	138.479	79.997	19.996	101.068	19.998	2.977	0.482
132.000	139.406	79.997	19.995	101.062	19.998	2.978	0.490
134.000	140.272	79.997	19.996	101.060	20.001	2.824	0.440
136.000	141.250	79.998	19.996	101.062	19.995	3.191	0.477
138.000	142.225	79.996	19.995	101.061	19.996	3.148	0.489
140.000	143.229	79.998	19.996	101.059	19.998	3.030	0.491
142.000	144.205	79.998	19.997	101.060	19.997	3.100	0.494
144.000	145.222	79.999	19.995	101.062	19.999	2.932	0.499
146.000	146.152	79.999	19.996	101.061	19.999	2.953	0.463
148.000	147.098	79.998	19.996	101.063	19.996	3.154	0.468
150.000	148.063	79.997	19.996	101.059	19.999	2.940	0.496
152.000	149.088	79.996	19.998	101.055	19.993	3.360	0.546
154.000	150.039	79.996	19.996	101.057	19.998	3.006	0.520
156.000	150.985	79.996	19.997	101.057	19.996	3.132	0.458
158.000	151.982	79.994	19.998	101.058	19.999	2.953	0.502
160.000	153.022	79.996	19.998	101.057	19.998	2.990	0.510
162.000	153.923	79.996	19.996	101.058	19.996	3.128	0.481
164.000	154.899	79.996	19.996	101.062	19.995	3.185	0.492
165.999	155.842	79.996	19.995	101.063	19.996	3.124	0.473
167.999	156.840	79.995	19.996	101.061	19.997	3.079	0.514
169.999	157.880	79.996	19.995	101.061	19.999	2.949	0.525
171.999	158.809	79.995	19.995	101.060	20.000	2.884	0.458
173.999	159.826	79.997	19.995	101.060	20.001	2.766	0.479
175.999	160.793	79.996	19.995	101.050	20.001	2.768	0.472
177.999	161.792	79.996	19.996	101.042	20.002	2.753	0.509
180.000	162.809	79.997	19.995	101.054	19.999	2.907	0.533
181.999	163.749	79.995	19.996	101.053	20.000	2.847	0.483
183.999	164.763	79.996	19.996	101.048	20.000	2.841	0.526
185.999	165.805	79.994	19.995	101.055	20.000	2.897	0.524
187.999	166.770	79.996	19.996	101.055	19.999	2.935	0.481
190.000	167.794	79.996	19.995	101.050	19.997	3.046	0.486
191.999	168.747	79.995	19.995	101.056	19.999	2.921	0.495
193.999	169.749	79.996	19.995	101.039	19.998	3.011	0.486
195.999	170.751	79.998	19.995	101.035	19.996	3.160	0.499
197.999	171.711	79.997	19.995	101.033	20.001	2.788	0.470
199.999	172.682	79.998	19.995	101.036	19.996	3.114	0.483
201.999	173.706	79.999	19.995	101.048	20.001	2.805	0.514
203.999	174.660	79.999	19.996	101.028	20.002	2.723	0.480
205.999	175.672	79.998	19.995	101.031	19.999	2.928	0.489
207.999	176.646	79.997	19.995	101.032	19.996	3.130	0.480
209.999	177.655	79.996	19.996	101.022	19.996	3.132	0.517
211.999	178.627	79.995	19.996	101.039	19.999	2.933	0.501
213.999	179.648	79.997	19.995	101.032	19.994	3.246	0.491
215.999	180.651	79.996	19.997	101.039	19.996	3.121	0.496
217.999	181.664	79.997	19.996	101.025	19.998	3.025	0.526
219.999	182.613	79.999	19.997	101.021	19.998	3.001	0.501
221.999	183.609	79.999	19.996	101.022	19.995	3.221	0.502
223.999	184.642	79.999	19.997	101.022	19.993	3.335	0.529
225.999	185.645	80.000	19.995	101.020	19.994	3.252	0.519
227.999	186.675	79.999	19.996	101.020	19.995	3.171	0.510
229.999	187.647	79.998	19.996	101.020	19.995	3.191	0.511
231.999	188.678	79.997	19.997	101.021	19.994	3.278	0.526
234.000	189.631	79.996	19.997	101.023	19.988	3.652	0.475
235.999	190.625	79.995	19.996	101.021	19.991	3.462	0.493
238.000	191.614	79.996	19.998	101.021	19.990	3.558	0.468
240.000	192.565	79.996	19.998	101.022	19.994	3.285	0.456
242.000	193.591	79.995	19.997	101.020	19.988	3.652	0.494
243.999	194.567	79.994	19.997	101.019	19.986	3.823	0.463
245.999	195.544	79.994	19.997	101.021	19.985	3.915	0.496
247.999	196.492	79.994	19.997	101.019	19.985	3.906	0.497
249.999	197.495	79.995	19.996	101.020	19.986	3.821	0.489
251.999	198.481	79.996	19.996	101.019	19.983	4.005	0.493
253.999	199.482	79.995	19.995	101.019	19.980	4.225	0.522
255.999	200.459	79.995	19.995	101.015	19.976	4.471	0.480
258.000	201.435	79.995	19.996	101.015	19.975	4.558	0.485
260.000	202.445	79.996	19.995	101.018	19.976	4.486	0.512
262.000	203.389	79.996	19.995	101.019	19.973	4.727	0.480
264.000	204.393	79.996	19.996	101.018	19.974	4.641	0.503
266.000	205.331	79.996	19.996	101.018	19.975	4.552	0.465
268.000	206.342	79.996	19.995	101.019	19.974	4.657	0.487
270.000	207.319	79.996	19.996	101.021	19.974	4.645	0.468
272.000	208.304	79.995	19.996	101.018	19.969	4.943	0.469
274.000	209.309	79.997	19.995	101.019	19.972	4.799	0.508
276.000	210.298	79.997	19.996	101.019	19.968	5.068	0.512
278.000	211.306	79.997	19.998	101.013	19.965	5.214	0.483
280.000	212.288	79.998	19.995	101.016	19.965	5.219	0.489
282.000	213.288	79.998	19.997	101.016	19.959	5.667	0.485
284.000	214.326	79.997	19.995	101.016	19.961	5.516	0.523
286.000	215.272	79.997	19.996	101.021	19.958	5.722	0.442
288.000	216.279	79.997	19.996	101.017	19.958	5.756	0.511
290.000	217.229	79.996	19.996	101.019	19.961	5.496	0.485
292.000	218.215	79.996	19.995	101.018	19.956	5.859	0.491
294.000	219.245	79.997	19.996	101.015	19.953	6.039	0.504
296.000	220.196	79.997	19.995	101.022	19.953	6.087	0.500
298.000	221.163	79.997	19.996	101.013	19.950	6.292	0.486
300.000	222.181	79.996	19.996	101.021	19.946	6.537	0.527
302.000	223.163	79.998	19.995	101.016	19.944	6.689	0.502
304.000	224.182	79.998	19.996	101.020	19.942	6.813	0.508
306.000	225.106	79.999	19.996	101.018	19.942	6.798	0.476
308.000	226.135	79.997	19.997	101.015	19.938	7.069	0.478
310.000	227.098	79.997	19.997	101.017	19.936	7.185	0.452
312.000	228.084	79.997	19.995	101.006	19.936	7.232	0.470
314.000	229.096	79.995	19.996	101.010	19.933	7.398	0.497
316.000	230.109	79.997	19.997	101.013	19.932	7.481	0.501
318.000	231.061	79.996	19.996	101.017	19.930	7.597	0.466
320.000	232.070	79.996	19.996	101.016	19.926	7.929	0.495
322.000	233.001	79.996	19.996	101.009	19.928	7.786	0.482
324.000	234.008	79.996	19.997	101.006	19.925	7.941	0.491
326.000	235.015	79.994	19.997	101.011	19.920	8.281	0.504
328.000	236.024	79.995	19.997	100.999	19.918	8.461	0.502
330.000	236.965	79.995	19.999	101.015	19.915	8.634	0.470
332.000	238.015	79.997	19.996	101.002	19.914	8.710	0.475
334.000	238.951	79.996	19.996	100.998	19.911	8.912	0.479
336.000	239.911	79.996	19.997	101.004	19.911	8.931	0.459
338.000	240.938	79.997	19.998	101.010	19.908	9.118	0.513
340.000	241.885	79.996	19.997	100.999	19.907	9.161	0.496
342.000	242.863	79.995	19.998	101.003	19.906	9.233	0.472
344.000	243.871	79.995	19.996	101.000	19.907	9.209	0.490
346.000	244.889	79.995	19.995	101.014	19.902	9.501	0.537
348.000	245.839	79.995	19.996	101.008	19.898	9.806	0.492
350.000	246.867	79.996	19.995	101.000	19.897	9.898	0.512
352.000	247.837	79.996	19.996	101.009	19.896	9.948	0.471
354.000	248.844	79.996	19.996	101.012	19.895	10.018	0.496
356.000	249.840	79.997	19.996	101.010	19.894	10.073	0.505
358.000	250.897	79.998	19.996	101.006	19.890	10.328	0.536
360.000	251.845	79.999	19.996	101.014	19.887	10.577	0.452
362.000	252.798	79.998	19.996	101.012	19.888	10.484	0.481
364.000	253.798	79.996	19.996	101.017	19.884	10.750	0.483
366.000	254.747	79.997	19.995	101.004	19.882	10.874	0.477
368.000	255.749	79.999	19.997	101.012	19.880	11.052	0.511
370.000	256.674	79.997	19.997	101.013	19.879	11.106	0.463
372.000	257.639	79.998	19.995	101.013	19.876	11.310	0.461
374.000	258.623	79.998	19.995	101.012	19.873	11.483	0.475
376.000	259.616	79.997	19.996	101.016	19.871	11.638	0.518
378.000	260.530	79.998	19.994	101.018	19.872	11.581	0.447
380.000	261.484	79.999	19.994	101.019	19.871	11.636	0.474
382.000	262.472	79.999	19.994	101.020	19.869	11.754	0.503
384.000	263.421	79.999	19.994	101.018	19.870	11.745	0.446
386.000	264.385	79.999	19.995	101.016	19.872	11.581	0.485
388.000	265.334	80.000	19.996	101.014	19.870	11.708	0.465
390.000	266.295	79.998	19.995	101.017	19.866	12.009	0.484
392.000	267.286	79.998	19.995	101.016	19.866	12.005	0.494
394.000	268.206	79.997	19.996	101.015	19.859	12.428	0.494
396.000	269.128	79.995	19.996	101.017	19.861	12.327	0.446
398.000	270.145	79.996	19.994	101.019	19.861	12.315	0.458
400.000	271.165	79.996	19.996	101.020	19.860	12.400	0.492
402.000	272.151	79.995	19.997	101.023	19.854	12.772	0.481
404.000	273.083	79.998	19.995	101.018	19.850	13.080	0.459
406.000	274.055	79.996	19.996	101.025	19.852	12.942	0.498
408.000	275.003	79.996	19.997	101.018	19.850	13.108	0.505
410.000	275.993	79.998	19.997	101.033	19.851	12.977	0.491
412.000	276.934	79.997	19.995	101.029	19.845	13.411	0.459
414.000	277.915	79.997	19.995	101.023	19.841	13.668	0.514
416.000	278.886	79.997	19.996	101.026	19.843	13.586	0.467
418.000	279.803	79.995	19.997	101.036	19.840	13.729	0.451
420.000	280.768	79.995	19.997	101.036	19.834	14.149	0.449
422.000	281.737	79.996	19.997	101.039	19.832	14.283	0.495
424.000	282.748	79.995	19.996	101.053	19.829	14.502	0.492
426.000	283.718	79.996	19.997	101.055	19.825	14.808	0.480
428.001	284.659	79.994	19.996	101.051	19.820	15.088	0.460
430.000	285.641	79.995	19.997	101.057	19.817	15.354	0.453
432.000	286.620	79.995	19.997	101.060	19.809	15.875	0.477
434.000	287.605	79.996	19.997	101.061	19.805	16.162	0.473
436.000	288.591	79.996	19.996	101.061	19.798	16.654	0.517
438.000	289.553	79.997	19.996	101.062	19.795	16.831	0.484
440.000	290.546	79.997	19.993	101.067	19.794	16.882	0.475
442.000	291.548	79.997	19.995	101.066	19.787	17.378	0.506
444.000	292.520	79.998	19.995	101.063	19.783	17.626	0.503
446.000	293.513	79.997	19.994	101.072	19.777	18.038	0.509
448.000	294.438	79.998	19.995	101.064	19.772	18.376	0.459
450.000	295.446	79.996	19.996	101.082	19.768	18.684	0.501
452.000	296.430	79.996	19.997	101.086	19.760	19.196	0.487
454.000	297.435	79.996	19.996	101.078	19.754	19.616	0.500
456.000	298.428	79.998	19.996	101.093	19.747	20.078	0.504
458.000	299.401	79.997	19.995	101.091	19.738	20.708	0.500
460.000	300.399	79.998	19.995	101.090	19.734	21.018	0.469
462.000	301.376	79.999	19.996	101.093	19.726	21.560	0.490
464.000	302.379	79.999	19.995	101.094	19.720	21.909	0.476
466.000	303.373	80.000	19.995	101.099	19.711	22.536	0.502
468.000	304.351	79.999	19.994	101.100	19.702	23.156	0.469
470.000	305.333	79.998	19.995	101.106	19.698	23.411	0.496
472.000	306.304	79.999	19.994	101.102	19.689	24.047	0.465
474.000	307.345	79.997	19.994	101.111	19.680	24.673	0.488
476.000	308.364	79.998	19.995	101.101	19.674	25.080	0.500
478.000	309.359	79.996	19.995	101.121	19.667	25.532	0.500
480.000	310.347	79.996	19.996	101.129	19.659	26.133	0.463
482.000	311.371	79.996	19.996	101.126	19.648	26.838	0.532
484.000	312.368	79.995	19.997	101.138	19.641	27.317	0.510
486.000	313.418	79.995	19.997	101.145	19.632	27.932	0.523
488.000	314.424	79.996	19.996	101.144	19.620	28.763	0.544
490.000	315.519	79.997	19.996	101.150	19.609	29.495	0.497
492.000	316.524	79.995	19.995	101.148	19.594	30.553	0.507
494.000	317.614	79.997	19.996	101.157	19.584	31.225	0.565
496.000	318.609	79.998	19.996	101.167	19.578	31.637	0.511
498.000	319.706	79.996	19.994	101.175	19.564	32.579	0.537
500.000	320.832	79.996	19.997	101.175	19.544	33.967	0.551
502.000	321.870	79.996	19.998	101.180	19.541	34.166	0.565
504.000	322.934	79.994	19.996	101.181	19.522	35.482	0.552
506.000	323.983	79.997	19.995	101.181	19.510	36.281	0.504
508.000	325.067	79.995	19.997	101.182	19.498	37.122	0.575
510.000	326.174	79.995	19.996	101.195	19.483	38.100	0.531
512.000	327.245	79.997	19.997	101.197	19.471	38.964	0.510
514.000	328.368	79.995	19.997	101.188	19.458	39.868	0.629
516.000	329.415	79.995	19.997	101.209	19.445	40.752	0.685
518.000	330.405	79.996	19.997	101.205	19.428	41.849	0.508
520.000	331.603	79.998	19.997	101.206	19.417	42.641	0.554
522.000	332.597	79.999	19.996	101.210	19.400	43.771	0.505
524.000	333.726	79.997	19.996	101.214	19.386	44.759	0.550
526.000	334.844	79.997	19.995	101.216	19.367	46.046	0.596
528.000	335.941	79.998	19.995	101.216	19.351	47.139	0.553
530.000	336.949	79.997	19.995	101.220	19.339	47.944	0.541
532.000	338.041	79.997	19.996	101.228	19.319	49.306	0.516
534.000	339.149	79.997	19.995	101.248	19.305	50.297	0.522
536.000	340.211	79.997	19.995	101.245	19.289	51.406	0.543
538.000	341.283	79.997	19.994	101.240	19.273	52.470	0.568
540.000	342.290	79.997	19.994	101.242	19.260	53.347	0.526
542.000	343.352	79.997	19.996	101.248	19.241	54.629	0.526
544.000	344.419	79.999	19.996	101.254	19.233	55.200	0.550
546.000	345.454	79.998	19.995	101.252	19.218	56.251	0.544
548.000	346.465	79.997	19.996	101.256	19.203	57.222	0.504
550.000	347.499	79.998	19.995	101.256	19.190	58.150	0.497
552.000	348.568	79.997	19.994	101.257	19.172	59.381	0.506
554.000	349.624	79.996	19.994	101.261	19.160	60.212	0.547
556.000	350.675	79.996	19.994	101.269	19.148	61.012	0.532
558.000	351.740	79.996	19.994	101.261	19.136	61.801	0.551
560.000	352.764	79.997	19.995	101.262	19.126	62.516	0.482
562.000	353.790	79.996	19.994	101.274	19.117	63.119	0.513
564.000	354.783	79.995	19.996	101.271	19.108	63.734	0.489
566.000	355.824	79.997	19.995	101.267	19.103	64.058	0.511
568.000	356.860	79.997	19.995	101.260	19.097	64.444	0.512
570.000	357.872	79.996	19.996	101.262	19.096	64.517	0.508
572.000	358.869	79.997	19.995	101.257	19.098	64.397	0.514
574.000	359.893	79.996	19.996	101.249	19.101	64.166	0.516
576.000	360.867	79.997	19.997	101.233	19.103	63.989	0.502
578.000	361.857	79.997	19.996	101.222	19.109	63.588	0.478
580.000	362.875	79.996	19.997	101.211	19.127	62.391	0.493
582.000	363.862	79.996	19.997	101.204	19.138	61.569	0.506
584.000	364.892	79.995	19.997	101.180	19.158	60.247	0.513
586.000	365.872	79.996	19.995	101.173	19.181	58.673	0.485
588.000	366.865	79.995	19.996	101.153	19.203	57.146	0.495
590.000	367.860	79.995	19.995	101.148	19.231	55.215	0.504
592.000	368.850	79.996	19.997	101.127	19.259	53.297	0.480
594.000	369.885	79.996	19.996	101.103	19.296	50.767	0.498
596.000	370.887	79.996	19.996	101.098	19.329	48.533	0.511
598.000	371.934	79.996	19.995	101.078	19.368	45.900	0.529
600.000	372.957	79.997	19.996	101.057	19.406	43.281	0.537
602.000	373.954	79.996	19.996	101.042	19.444	40.699	0.505
604.000	374.926	79.998	19.996	101.021	19.486	37.822	0.499
606.000	375.995	79.998	19.997	101.016	19.529	34.875	0.529
608.000	376.983	79.997	19.997	100.999	19.572	31.985	0.493
610.000	377.995	79.996	19.997	100.984	19.612	29.224	0.491
612.000	379.025	79.995	19.997	100.973	19.652	26.517	0.509
614.000	380.040	79.996	19.997	100.966	19.690	23.924	0.544
616.000	380.984	79.997	19.996	100.960	19.724	21.600	0.495
618.000	382.063	79.996	19.996	100.942	19.761	19.132	0.534
620.000	383.062	79.997	19.995	100.943	19.790	17.165	0.512
622.000	384.066	79.998	19.995	100.942	19.815	15.416	0.519
624.000	385.080	79.999	19.994	100.942	19.844	13.463	0.521
626.000	386.124	79.999	19.995	100.942	19.863	12.185	0.527
628.000	387.117	79.998	19.996	100.943	19.881	10.974	0.492
630.000	388.150	79.998	19.995	100.943	19.895	10.002	0.527
632.000	389.172	79.997	19.994	100.941	19.909	9.039	0.512
634.000	390.201	79.996	19.995	100.943	19.921	8.220	0.511
636.000	391.228	79.997	19.995	100.942	19.927	7.817	0.528
638.000	392.237	79.995	19.994	100.941	19.934	7.364	0.529
640.000	393.244	79.996	19.997	100.941	19.940	6.931	0.503
642.000	394.308	79.995	19.995	100.940	19.948	6.399	0.529
644.000	395.288	79.996	19.995	100.940	19.951	6.221	0.503
646.000	396.337	79.996	19.995	100.940	19.950	6.243	0.520
648.000	397.327	79.996	19.996	100.941	19.954	5.963	0.511
650.000	398.305	79.996	19.996	100.940	19.956	5.858	0.474
652.000	399.314	79.998	19.995	100.941	19.957	5.797	0.493
654.000	400.356	79.998	19.995	100.940	19.956	5.856	0.521
656.000	401.338	79.998	19.996	100.940	19.954	5.974	0.509
658.000	402.381	79.998	19.998	100.940	19.959	5.637	0.485
660.000	403.356	79.997	19.995	100.940	19.961	5.503	0.490
662.000	404.354	79.996	19.996	100.939	19.963	5.379	0.507
664.000	405.347	79.997	19.995	100.939	19.962	5.425	0.484
666.000	406.329	79.996	19.996	100.940	19.960	5.573	0.529
668.000	407.343	79.996	19.996	100.941	19.963	5.355	0.496
670.000	408.350	79.996	19.996	100.941	19.966	5.168	0.527
672.000	409.313	79.995	19.996	100.943	19.966	5.168	0.484
674.000	410.355	79.996	19.997	100.943	19.963	5.394	0.525
676.000	411.312	79.997	19.996	100.944	19.966	5.201	0.492
678.000	412.316	79.998	19.995	100.942	19.969	4.974	0.496
680.000	413.306	79.998	19.995	100.944	19.965	5.236	0.486
682.000	414.282	79.998	19.995	100.943	19.968	5.052	0.526
684.000	415.288	79.997	19.996	100.943	19.966	5.190	0.515
686.000	416.241	79.997	19.996	100.942	19.964	5.335	0.521
688.000	417.243	79.997	19.996	100.943	19.967	5.101	0.494
690.000	418.275	79.997	19.996	100.944	19.965	5.219	0.496
692.000	419.272	79.996	19.996	100.941	19.966	5.197	0.491
694.000	420.259	79.995	19.995	100.944	19.969	4.985	0.468
696.000	421.258	79.996	19.997	100.943	19.970	4.875	0.519
698.000	422.226	79.997	19.997	100.941	19.973	4.694	0.468
700.000	423.199	79.997	19.997	100.940	19.970	4.867	0.469
702.000	424.200	79.999	19.997	100.939	19.970	4.882	0.487
704.000	425.202	79.999	19.996	100.938	19.972	4.796	0.482
706.000	426.197	79.998	19.996	100.936	19.975	4.542	0.488
708.000	427.216	79.999	19.995	100.938	19.974	4.650	0.505
710.000	428.242	79.998	19.996	100.938	19.977	4.448	0.514
712.000	429.289	79.997	19.995	100.936	19.976	4.504	0.550
714.000	430.252	79.998	19.995	100.939	19.978	4.355	0.480
716.000	431.222	79.996	19.996	100.937	19.977	4.400	0.475
718.000	432.293	79.997	19.997	100.938	19.974	4.633	0.523
720.000	433.333	79.997	19.995	100.939	19.976	4.507	0.533
722.000	434.396	79.996	19.995	100.936	19.974	4.612	0.522
724.000	435.418	79.997	19.995	100.920	19.976	4.514	0.503
726.000	436.397	79.997	19.996	100.939	19.974	4.600	0.494
728.000	437.433	79.996	19.997	100.938	19.974	4.654	0.492
730.000	438.478	79.996	19.996	100.938	19.975	4.552	0.509
732.000	439.509	79.998	19.995	100.941	19.977	4.417	0.512
734.000	440.527	79.996	19.995	100.937	19.979	4.286	0.537
736.000	441.517	79.996	19.996	100.926	19.981	4.157	0.493
738.000	442.542	79.996	19.996	100.932	19.980	4.234	0.500
740.000	443.576	79.996	19.996	100.934	19.983	3.989	0.528
742.000	444.604	79.996	19.995	100.939	19.979	4.304	0.512
744.000	445.611	79.995	19.995	100.938	19.982	4.058	0.485
746.000	446.635	79.995	19.995	100.935	19.979	4.298	0.501
748.000	447.638	79.996	19.996	100.941	19.984	3.923	0.487
750.000	448.701	79.995	19.996	100.936	19.986	3.834	0.523
752.000	449.720	79.995	19.995	100.930	19.982	4.086	0.515
754.000	450.729	79.995	19.994	100.942	19.984	3.932	0.515
756.000	451.791	79.995	19.995	100.938	19.988	3.685	0.504
758.000	452.791	79.996	19.996	100.938	19.985	3.869	0.528
760.000	453.811	79.998	19.995	100.937	19.987	3.768	0.516
762.000	454.827	79.997	19.996	100.926	19.988	3.694	0.494
764.000	455.845	79.999	19.997	100.918	19.991	3.459	0.486
766.000	456.884	79.998	19.996	100.930	19.989	3.608	0.512
768.000	457.872	79.998	19.996	100.934	19.992	3.392	0.496
770.000	458.915	79.996	19.996	100.934	19.994	3.297	0.531
772.000	459.965	79.997	19.996	100.927	19.991	3.459	0.548
774.000	460.963	79.998	19.997	100.929	19.993	3.359	0.516
776.000	462.000	79.997	19.995	100.928	19.995	3.208	0.541
778.000	463.007	79.997	19.996	100.934	19.999	2.939	0.528
780.000	463.996	79.999	19.996	100.909	19.997	3.078	0.481
782.000	465.009	79.998	19.996	100.935	19.998	2.969	0.518
784.000	466.012	80.001	19.996	100.928	19.996	3.127	0.499
786.000	467.069	79.999	19.996	100.918	20.000	2.873	0.514
788.000	468.046	80.000	19.996	100.919	19.998	2.987	0.499
790.000	469.047	79.997	19.996	100.917	19.997	3.070	0.490
792.000	470.035	79.998	19.996	100.925	20.000	2.862	0.468
794.000	471.061	79.996	19.997	100.931	20.003	2.650	0.511
796.000	472.029	79.995	19.997	100.923	20.006	2.446	0.468
798.000	473.036	79.997	19.995	100.930	20.006	2.429	0.497
800.000	474.071	79.996	19.995	100.917	20.008	2.339	0.522
802.000	475.062	79.998	19.995	100.922	20.009	2.233	0.471
804.000	476.062	79.997	19.994	100.920	20.006	2.470	0.506
806.000	477.070	79.996	19.995	100.925	20.009	2.238	0.500
808.000	478.014	79.996	19.995	100.920	20.013	2.008	0.478
810.000	479.047	79.996	19.995	100.917	20.014	1.884	0.520
812.000	480.079	79.998	19.995	100.924	20.016	1.743	0.526
814.000	481.069	79.997	19.995	100.915	20.017	1.711	0.496
816.000	482.032	79.996	19.996	100.909	20.018	1.658	0.499
818.000	482.980	79.996	19.995	100.914	20.015	1.866	0.477
820.000	483.968	79.997	19.996	100.905	20.022	1.336	0.480
822.000	484.964	79.997	19.995	100.905	20.019	1.598	0.505
824.000	485.872	79.997	19.996	100.906	20.020	1.478	0.480
826.000	486.847	79.996	19.994	100.905	20.022	1.371	0.480
828.000	487.775	79.997	19.995	100.909	20.022	1.397	0.465
830.000	488.680	79.996	19.995	100.906	20.025	1.132	0.459
832.000	489.654	79.998	19.996	100.911	20.024	1.257	0.466
834.000	490.588	79.997	19.995	100.923	20.025	1.126	0.466
836.000	491.531	79.998	19.995	100.912	20.025	1.180	0.483
838.000	492.508	79.998	19.995	100.919	20.025	1.183	0.516
840.000	493.470	79.999	19.995	100.913	20.025	1.134	0.495
842.000	494.430	79.998	19.995	100.903	20.025	1.159	0.481
844.000	495.394	79.998	19.996	100.908	20.023	1.264	0.527
846.000	496.317	79.999	19.996	100.910	20.023	1.292	0.470
848.000	497.261	79.998	19.995	100.909	20.024	1.252	0.455
850.000	498.226	79.997	19.996	100.907	20.024	1.213	0.453
852.000	499.168	79.997	19.996	100.913	20.025	1.173	0.491
854.000	500.124	79.997	19.997	100.909	20.027	1.009	0.493
856.000	501.087	79.998	19.995	100.917	20.026	1.117	0.492
858.000	502.040	79.998	19.995	100.931	20.026	1.086	0.497
860.000	503.040	79.998	19.997	100.938	20.027	1.046	0.507
862.000	504.050	79.998	19.995	100.938	20.024	1.219	0.518
864.000	505.135	79.998	19.995	100.934	20.027	1.013	0.556
866.000	506.163	79.999	19.996	100.933	20.024	1.206	0.530
868.000	507.243	79.999	19.996	100.935	20.024	1.211	0.522
870.000	508.359	79.998	19.996	100.939	20.027	1.042	0.542
872.000	509.457	79.998	19.996	100.939	20.028	0.937	0.565
874.000	510.558	79.993	19.995	100.938	20.026	1.099	0.530
876.000	511.670	79.995	19.998	100.941	20.027	0.994	0.551
878.000	512.804	79.995	19.996	100.936	20.029	0.915	0.561
880.000	513.963	79.994	19.996	100.940	20.028	0.957	0.569
882.000	515.112	79.996	19.996	100.941	20.028	0.972	0.540
884.000	516.275	79.995	19.995	100.940	20.029	0.915	0.596
886.000	517.439	79.995	19.997	100.944	20.028	0.979	0.583
888.000	518.531	79.996	19.995	100.944	20.027	1.031	0.526
890.000	519.711	79.998	19.995	100.942	20.028	0.939	0.573
892.000	520.922	79.996	19.995	100.942	20.026	1.108	0.573
894.000	522.019	79.996	19.996	100.941	20.029	0.880	0.565
896.000	523.203	79.996	19.996	100.937	20.027	1.049	0.594
898.000	524.345	79.996	19.996	100.934	20.029	0.874	0.545
900.000	525.505	79.998	19.994	100.930	20.031	0.736	0.557
902.000	526.635	79.995	19.996	100.937	20.032	0.661	0.575
904.000	527.805	79.996	19.995	100.940	20.034	0.558	0.583
906.000	528.902	79.996	19.995	100.937	20.031	0.747	0.556
908.000	530.081	79.997	19.996	100.938	20.032	0.692	0.583
910.001	531.222	79.997	19.996	100.939	20.031	0.723	0.556
912.000	532.340	79.997	19.996	100.939	20.030	0.803	0.559
914.000	533.484	79.997	19.996	100.939	20.031	0.775	0.552
916.000	534.677	79.997	19.996	100.941	20.030	0.819	0.581
918.000	535.839	79.999	19.995	100.934	20.032	0.689	0.584
920.000	536.945	79.998	19.995	100.938	20.030	0.806	0.559
922.000	538.055	79.999	19.996	100.939	20.031	0.764	0.570
924.000	539.151	80.000	19.995	100.941	20.030	0.788	0.551
926.000	540.239	79.998	19.995	100.938	20.029	0.898	0.534
928.000	541.398	79.998	19.995	100.942	20.031	0.718	0.571
930.000	542.471	79.997	19.995	100.942	20.031	0.780	0.538
932.000	543.565	79.998	19.995	100.942	20.030	0.828	0.530
934.000	544.646	79.997	19.994	100.940	20.029	0.911	0.542
936.000	545.737	79.997	19.995	100.941	20.029	0.860	0.559
938.000	546.836	79.997	19.996	100.934	20.031	0.755	0.561
940.000	547.932	79.998	19.995	100.926	20.031	0.768	0.544
942.000	549.003	79.998	19.995	100.926	20.032	0.657	0.524
944.000	550.104	79.999	19.995	100.937	20.034	0.563	0.551
946.000	551.148	79.999	19.994	100.941	20.033	0.641	0.518
948.000	552.185	79.999	19.995	100.940	20.033	0.615	0.552
950.000	553.274	79.999	19.995	100.942	20.036	0.422	0.508
952.000	554.368	79.999	19.994	100.942	20.032	0.683	0.533
954.000	555.433	79.996	19.995	100.935	20.031	0.733	0.540
956.000	556.479	79.996	19.996	100.920	20.032	0.679	0.521
958.000	557.575	79.997	19.995	100.923	20.031	0.736	0.527
960.000	558.534	79.997	19.996	100.925	20.033	0.642	0.486
962.000	559.622	79.996	19.996	100.925	20.030	0.832	0.514
964.000	560.690	79.996	19.996	100.934	20.032	0.666	0.501
966.000	561.692	79.998	19.997	100.933	20.031	0.731	0.530
968.000	562.761	79.997	19.996	100.932	20.037	0.330	0.557
970.000	563.765	79.997	19.998	100.938	20.034	0.545	0.496
972.000	564.800	79.995	19.997	100.930	20.039	0.210	0.519
974.000	565.813	79.998	19.995	100.933	20.032	0.655	0.493
976.000	566.861	79.997	19.997	100.923	20.033	0.582	0.516
978.000	567.870	79.996	19.996	100.935	20.032	0.698	0.513
980.000	568.892	79.997	19.996	100.934	20.030	0.812	0.516
982.000	569.939	79.996	19.995	100.928	20.035	0.503	0.534
984.000	570.981	79.996	19.995	100.927	20.031	0.755	0.506
986.000	571.992	79.997	19.996	100.933	20.034	0.523	0.501
988.000	573.015	79.996	19.996	100.920	20.031	0.757	0.491
990.000	574.025	79.996	19.996	100.928	20.033	0.619	0.511
992.000	575.105	79.997	19.995	100.936	20.031	0.781	0.544
994.000	576.108	79.996	19.995	100.934	20.028	0.924	0.483
996.000	577.136	79.997	19.995	100.929	20.030	0.830	0.520
998.000	578.128	79.998	19.995	100.942	20.034	0.538	0.525
1000.000	579.154	79.999	19.995	100.936	20.033	0.619	0.487
1002.000	580.137	79.998	19.996	100.937	20.035	0.449	0.482
1004.000	581.133	79.999	19.996	100.933	20.031	0.731	0.507
1006.000	582.156	79.997	19.995	100.942	20.028	0.928	0.507
1008.000	583.140	79.996	19.995	100.941	20.033	0.589	0.483
1010.000	584.130	79.996	19.995	100.944	20.032	0.670	0.497
1012.000	585.187	79.997	19.995	100.936	20.031	0.780	0.499
1014.000	586.193	79.998	19.995	100.932	20.031	0.777	0.533
1016.000	587.156	79.997	19.995	100.938	20.031	0.771	0.517
1018.000	588.169	79.998	19.995	100.933	20.032	0.696	0.488
1020.000	589.160	79.998	19.994	100.940	20.034	0.554	0.481
1022.000	590.239	79.997	19.997	100.937	20.032	0.683	0.534
1024.000	591.201	79.999	19.996	100.928	20.036	0.407	0.473
1026.000	592.213	79.998	19.994	100.935	20.033	0.602	0.492
1028.000	593.197	79.998	19.994	100.933	20.033	0.615	0.497
1030.000	594.252	79.999	19.996	100.933	20.029	0.880	0.508
1032.000	595.232	79.998	19.996	100.934	20.034	0.556	0.454
1034.000	596.275	79.997	19.996	100.930	20.032	0.698	0.524
1036.001	597.274	79.996	19.996	100.919	20.032	0.701	0.532
1038.000	598.274	79.997	19.996	100.929	20.030	0.850	0.479
1040.000	599.289	79.998	19.996	100.934	20.032	0.657	0.500
1042.000	600.303	79.997	19.997	100.919	20.032	0.652	0.507
1044.000	601.269	79.997	19.995	100.921	20.032	0.683	0.496
1046.000	602.284	79.997	19.996	100.915	20.029	0.865	0.477
1048.000	603.328	79.997	19.996	100.926	20.030	0.797	0.531
1050.000	604.306	79.996	19.996	100.935	20.032	0.672	0.536
1052.000	605.299	79.997	19.997	100.926	20.032	0.665	0.508
1054.000	606.304	79.996	19.995	100.932	20.031	0.745	0.522
1056.000	607.303	79.996	19.997	100.937	20.031	0.744	0.494
1058.000	608.330	79.995	19.995	100.936	20.032	0.676	0.485
1060.000	609.343	79.997	19.997	100.939	20.029	0.895	0.499
1062.000	610.363	79.997	19.996	100.940	20.032	0.685	0.488
1064.000	611.374	79.996	19.998	100.929	20.027	0.996	0.523
1066.000	612.367	79.996	19.996	100.926	20.034	0.571	0.533
1068.000	613.398	79.996	19.996	100.926	20.029	0.893	0.515
1070.000	614.383	79.996	19.996	100.931	20.025	1.152	0.488
1072.000	615.421	79.996	19.996	100.932	20.031	0.781	0.501
1074.000	616.421	79.997	19.996	100.933	20.032	0.694	0.486
1076.000	617.423	79.997	19.995	100.942	20.029	0.887	0.505
1078.000	618.464	79.998	19.995	100.933	20.027	1.051	0.535
1080.000	619.470	79.997	19.995	100.941	20.032	0.707	0.507
1082.000	620.469	79.998	19.996	100.941	20.026	1.081	0.517
1084.000	621.441	79.998	19.994	100.932	20.027	1.018	0.507
1086.000	622.476	79.998	19.996	100.922	20.029	0.898	0.516
1088.000	623.491	79.998	19.996	100.926	20.027	1.035	0.495
1090.000	624.483	79.996	19.996	100.939	20.027	1.009	0.490
1092.000	625.477	79.998	19.996	100.942	20.030	0.808	0.507
1094.000	626.501	79.998	19.995	100.936	20.029	0.867	0.492
1096.001	627.513	79.999	19.995	100.939	20.029	0.893	0.508
1098.000	628.499	79.998	19.995	100.928	20.029	0.874	0.510
1100.000	629.535	79.999	19.995	100.940	20.031	0.768	0.524
1102.000	630.487	80.000	19.995	100.936	20.026	1.086	0.504
1104.000	631.518	80.000	19.995	100.935	20.027	0.990	0.501
1106.000	632.531	80.001	19.995	100.934	20.028	0.956	0.504
1108.000	633.542	80.000	19.995	100.937	20.028	0.970	0.515
1110.000	634.579	80.000	19.994	100.938	20.026	1.088	0.507
1112.000	635.603	79.999	19.995	100.941	20.025	1.130	0.525
1114.000	636.617	79.998	19.996	100.937	20.024	1.233	0.503
1116.000	637.612	79.997	19.995	100.953	20.026	1.066	0.484
1118.000	638.623	79.997	19.996	100.945	20.028	0.970	0.474
1120.000	639.668	79.997	19.997	100.940	20.024	1.224	0.543
1122.000	640.643	79.997	19.997	100.943	20.023	1.263	0.510
1124.000	641.665	79.998	19.996	100.943	20.021	1.410	0.514
1126.000	642.712	79.997	19.997	100.945	20.025	1.132	0.531
1128.000	643.683	79.996	19.996	100.943	20.023	1.318	0.506
1130.000	644.688	79.997	19.996	100.942	20.028	0.965	0.504
1132.000	645.683	79.997	19.995	100.946	20.027	0.991	0.524
1134.000	646.676	79.996	19.996	100.944	20.026	1.081	0.464
1136.000	647.661	79.994	19.996	100.947	20.022	1.362	0.488
1138.000	648.674	79.995	19.996	100.946	20.027	1.038	0.516
1140.000	649.695	79.997	19.996	100.946	20.023	1.324	0.512
1142.000	650.728	79.996	19.997	100.949	20.030	0.801	0.513
1144.000	651.744	79.995	19.996	100.953	20.028	0.957	0.533
1146.000	652.758	79.996	19.996	100.952	20.027	1.013	0.519
1148.000	653.759	79.996	19.996	100.950	20.027	1.040	0.521
1150.000	654.783	79.994	19.996	100.942	20.025	1.147	0.510
1152.000	655.815	79.996	19.998	100.955	20.026	1.079	0.518
1154.000	656.790	79.996	19.997	100.951	20.025	1.156	0.455
1156.000	657.829	79.997	19.997	100.963	20.025	1.188	0.534
1158.000	658.882	79.997	19.996	100.960	20.030	0.825	0.497
1160.000	659.894	79.998	19.998	100.949	20.026	1.079	0.522
1162.000	660.941	79.997	19.996	100.960	20.025	1.129	0.520
1164.000	661.910	79.997	19.996	100.947	20.022	1.398	0.485
1166.000	662.910	79.999	19.995	100.953	20.028	0.928	0.496
1168.000	663.941	79.997	19.996	100.969	20.023	1.274	0.521
1170.000	664.949	79.999	19.997	100.973	20.028	0.943	0.507
1172.000	665.977	79.998	19.995	100.966	20.027	0.994	0.466
1174.000	666.984	79.999	19.995	100.965	20.025	1.147	0.536
1176.000	668.007	79.999	19.996	100.973	20.024	1.260	0.519
1178.000	669.021	80.000	19.996	100.970	20.024	1.215	0.520
1180.000	670.020	79.999	19.996	100.975	20.021	1.401	0.510
1182.000	671.023	79.997	19.997	100.968	20.026	1.118	0.509
1184.000	672.092	79.999	19.996	100.971	20.024	1.206	0.541
1186.000	673.001	79.999	19.995	100.972	20.023	1.271	0.463
1188.000	674.044	79.999	19.995	100.963	20.026	1.064	0.496
1190.000	675.123	79.999	19.995	100.973	20.020	1.492	0.549
1192.000	676.130	79.997	19.996	100.974	20.022	1.372	0.507
1194.000	677.141	79.997	19.995	100.976	20.020	1.530	0.509
1196.000	678.149	79.997	19.996	100.974	20.021	1.435	0.523
1198.000	679.152	79.997	19.996	100.977	20.021	1.436	0.486
1200.000	680.205	79.996	19.994	100.973	20.023	1.320	0.518
1202.000	681.202	79.996	19.996	100.974	20.019	1.558	0.517
1204.000	682.244	79.997	19.996	100.983	20.019	1.560	0.509
1206.000	683.244	79.997	19.996	100.983	20.019	1.564	0.493
1208.000	684.243	79.997	19.996	100.982	20.018	1.617	0.534
1210.000	685.225	79.997	19.996	100.974	20.020	1.499	0.493
1212.000	686.264	79.995	19.996	100.981	20.019	1.584	0.495
1214.000	687.255	79.996	19.997	100.980	20.020	1.521	0.499
1216.000	688.240	79.997	19.997	100.977	20.017	1.722	0.469
1218.000	689.243	79.998	19.996	100.977	20.020	1.525	0.491
1220.000	690.210	79.997	19.996	100.975	20.020	1.527	0.460
1222.000	691.252	79.997	19.996	100.977	20.019	1.558	0.504
1224.000	692.249	79.996	19.996	100.979	20.018	1.620	0.505
1226.001	693.252	79.997	19.995	100.974	20.020	1.525	0.483
1228.000	694.265	79.998	19.997	100.976	20.022	1.366	0.519
1230.000	695.277	79.997	19.996	100.981	20.020	1.477	0.512
1232.000	696.263	79.996	19.997	100.979	20.020	1.491	0.473
1234.000	697.269	79.997	19.997	100.966	20.021	1.462	0.504
1236.000	698.265	79.998	19.997	100.972	20.025	1.131	0.488
1238.000	699.296	79.998	19.998	100.979	20.023	1.313	0.505
1240.001	700.310	79.999	19.998	100.978	20.025	1.134	0.486
1242.000	701.320	79.999	19.996	100.974	20.024	1.243	0.479
1244.001	702.341	79.998	19.996	100.962	20.023	1.320	0.483
1246.000	703.325	79.999	19.995	100.974	20.021	1.405	0.494
1248.000	704.321	79.998	19.996	100.974	20.024	1.217	0.468
1250.000	705.372	79.997	19.995	100.961	20.022	1.385	0.499
1252.000	706.359	79.998	19.996	100.973	20.022	1.379	0.515
1254.000	707.345	79.996	19.994	100.971	20.022	1.348	0.478
1256.000	708.371	79.997	19.996	100.966	20.024	1.221	0.510
1258.000	709.347	79.998	19.995	100.962	20.022	1.383	0.508
1260.000	710.369	79.996	19.995	100.951	20.023	1.311	0.490
1262.000	711.373	79.999	19.996	100.952	20.021	1.454	0.487
1264.000	712.381	79.999	19.995	100.944	20.023	1.288	0.508
1266.000	713.400	79.998	19.995	100.947	20.025	1.152	0.502
1268.000	714.405	79.999	19.996	100.944	20.023	1.268	0.505
1270.000	715.416	79.999	19.996	100.935	20.024	1.195	0.510
1272.000	716.431	80.000	19.996	100.934	20.024	1.253	0.507
1274.000	717.472	79.999	19.996	100.924	20.022	1.344	0.513
1276.000	718.486	79.997	19.996	100.916	20.025	1.167	0.517
1278.000	719.479	79.997	19.995	100.910	20.025	1.149	0.516
1280.000	720.474	79.998	19.997	100.925	20.025	1.172	0.478
1282.000	721.499	79.996	19.996	100.920	20.027	1.056	0.516
1284.000	722.532	79.998	19.996	100.915	20.028	0.957	0.509
1286.000	723.531	79.998	19.995	100.912	20.029	0.876	0.511
1288.000	724.471	79.997	19.996	100.924	20.027	0.992	0.477
1290.000	725.508	79.998	19.996	100.915	20.029	0.876	0.498
1292.000	726.468	79.998	19.995	100.910	20.027	1.003	0.491
1294.000	727.468	79.997	19.995	100.901	20.031	0.762	0.490
1296.000	728.464	79.995	19.996	100.911	20.028	0.948	0.530
1298.000	729.484	79.998	19.996	100.934	20.025	1.159	0.522
1300.000	730.520	79.999	19.996	100.919	20.025	1.165	0.558
1302.001	731.500	79.998	19.997	100.914	20.027	1.049	0.518
1304.000	732.441	79.998	19.997	100.904	20.025	1.182	0.496
1306.000	733.493	79.995	19.997	100.910	20.028	0.935	0.510
1308.000	734.507	79.995	19.995	100.906	20.028	0.981	0.500
1310.000	735.494	79.996	19.996	100.911	20.027	1.055	0.482
1312.000	736.509	79.997	19.995	100.918	20.028	0.983	0.521
1314.000	737.505	79.998	19.997	100.921	20.028	0.987	0.486
1316.000	738.509	79.998	19.995	100.913	20.024	1.217	0.516
1318.000	739.530	79.997	19.996	100.913	20.027	1.023	0.476
1320.000	740.532	80.000	19.995	100.911	20.030	0.812	0.524
1322.000	741.540	79.998	19.996	100.909	20.027	1.021	0.529
1324.000	742.545	79.999	19.995	100.922	20.027	1.040	0.492
1326.000	743.529	79.999	19.996	100.918	20.024	1.196	0.481
1326.500	743.777	79.999	19.995	100.916	20.024	1.198	0.459