File: 01_Data/Fiberboard_Pressed_Paper/MCC/Fiberboard_Pressed_Paper_MCC_30K_min_211005_R1.txt
Sample ID:	C:\MCC\MCC Cal\Test\Fiberboard_Pressed_Paper_MCC_30K_min_211005_R1.txt
Sample Weight (mg):	4.86
Heating Rate (C/s):	0.5
Combustor Temp (C):	900
N2 Flow Rate (cc/min):	80
O2 Flow Rate (cc/min):	20
Calibration File:	C:\MCC\MCC Cal\Coeff1 JN10440_30_210304.txt.txt
T Correction Coefficients:	0	1.024463	0
Time Shift (s):	14
*
Time (s)	Temperature (C)	N2 flow rate (cc/min)	O2 flow rate (cc/min)	Flow Rate (cc/min)	Oxygen (%)	HRR (W/g)	Heating rate (C/s)
0.000	108.152	79.994	19.997	100.625	20.032	0.108	-0.020
2.000	108.151	79.996	19.997	100.618	20.036	-0.142	-0.002
4.000	108.102	79.995	19.996	100.614	20.033	0.049	-0.056
6.000	108.159	79.994	19.996	100.618	20.036	-0.185	0.010
8.001	108.148	79.995	19.997	100.626	20.031	0.122	-0.007
10.000	108.159	79.995	19.997	100.624	20.029	0.278	-0.021
12.000	108.160	79.996	19.998	100.627	20.028	0.367	0.008
14.000	108.145	79.997	19.997	100.637	20.028	0.320	-0.012
16.000	108.167	79.996	19.997	100.650	20.029	0.296	0.023
18.000	108.152	79.998	19.997	100.666	20.022	0.758	-0.010
20.000	108.214	79.995	19.998	100.682	20.023	0.667	0.024
22.000	108.230	79.995	19.998	100.699	20.020	0.883	0.023
24.000	108.266	79.996	19.998	100.686	20.016	1.128	0.015
26.000	108.357	79.997	19.997	100.714	20.013	1.302	0.045
28.000	108.468	79.996	19.997	100.742	20.010	1.491	0.047
30.000	108.586	79.995	19.997	100.750	20.007	1.676	0.077
32.000	108.731	79.997	19.997	100.781	20.005	1.850	0.080
34.000	108.878	79.996	19.997	100.798	20.001	2.101	0.077
36.000	109.089	79.996	19.997	100.813	19.998	2.286	0.095
38.001	109.316	79.997	19.997	100.819	19.998	2.321	0.104
40.000	109.604	79.998	19.995	100.820	19.998	2.289	0.129
42.000	109.890	79.998	19.996	100.826	19.991	2.716	0.160
44.000	110.228	79.997	19.997	100.829	19.993	2.627	0.166
46.000	110.614	79.997	19.996	100.828	19.993	2.597	0.183
48.000	110.955	79.996	19.995	100.829	19.995	2.490	0.174
50.000	111.371	79.996	19.996	100.852	19.995	2.469	0.220
52.000	111.794	79.995	19.997	100.850	19.992	2.662	0.202
54.000	112.214	79.995	19.997	100.842	19.991	2.748	0.195
56.000	112.682	79.995	19.996	100.859	19.985	3.118	0.238
58.000	113.207	79.995	19.997	100.858	19.988	2.967	0.247
60.000	113.752	79.994	19.997	100.864	19.988	2.946	0.255
62.000	114.253	79.994	19.997	100.864	19.988	2.951	0.246
64.000	114.856	79.995	19.997	100.867	19.986	3.093	0.297
66.000	115.435	79.996	19.997	100.867	19.985	3.138	0.297
68.000	116.047	79.996	19.996	100.877	19.981	3.369	0.298
70.000	116.643	79.996	19.996	100.873	19.982	3.304	0.299
72.000	117.302	79.995	19.995	100.869	19.977	3.630	0.299
74.000	118.012	79.995	19.995	100.866	19.979	3.511	0.365
76.000	118.665	79.996	19.995	100.877	19.980	3.459	0.354
78.000	119.363	79.996	19.996	100.887	19.980	3.480	0.350
80.001	120.071	79.994	19.996	100.883	19.978	3.583	0.374
82.000	120.779	79.995	19.997	100.891	19.980	3.484	0.339
84.000	121.548	79.993	19.997	100.880	19.982	3.331	0.382
86.000	122.316	79.995	19.999	100.888	19.978	3.581	0.369
88.000	123.130	79.995	19.997	100.893	19.981	3.386	0.412
90.000	123.898	79.995	19.997	100.890	19.979	3.534	0.416
92.001	124.707	79.994	19.997	100.884	19.977	3.651	0.442
94.000	125.527	79.996	19.996	100.883	19.980	3.467	0.423
96.000	126.369	79.996	19.997	100.894	19.976	3.685	0.416
98.001	127.241	79.997	19.997	100.888	19.977	3.622	0.425
100.000	128.047	79.998	19.997	100.879	19.977	3.664	0.424
102.001	128.891	79.997	19.995	100.885	19.977	3.658	0.448
104.000	129.743	79.996	19.996	100.889	19.978	3.574	0.401
106.000	130.621	79.995	19.997	100.889	19.980	3.462	0.462
108.000	131.545	79.995	19.996	100.894	19.979	3.553	0.470
110.000	132.383	79.994	19.997	100.886	19.976	3.686	0.445
112.000	133.323	79.996	19.998	100.885	19.976	3.724	0.462
114.000	134.225	79.995	19.996	100.874	19.978	3.591	0.455
116.000	135.124	79.996	19.997	100.874	19.978	3.579	0.467
118.000	136.060	79.997	19.996	100.880	19.979	3.554	0.476
120.000	136.971	79.997	19.996	100.884	19.980	3.437	0.478
122.000	137.878	79.998	19.997	100.878	19.979	3.491	0.431
124.001	138.816	79.997	19.998	100.866	19.980	3.430	0.485
126.000	139.724	79.998	19.997	100.866	19.979	3.518	0.446
128.000	140.674	79.998	19.995	100.865	19.983	3.246	0.489
130.000	141.670	79.997	19.995	100.866	19.981	3.367	0.499
132.000	142.564	79.995	19.996	100.874	19.981	3.391	0.455
134.001	143.549	79.996	19.997	100.867	19.981	3.379	0.513
136.000	144.484	79.996	19.996	100.868	19.979	3.519	0.447
138.000	145.447	79.995	19.997	100.873	19.981	3.382	0.461
140.000	146.437	79.994	19.996	100.870	19.978	3.559	0.495
142.000	147.395	79.997	19.996	100.868	19.984	3.177	0.499
144.000	148.378	79.996	19.995	100.866	19.981	3.384	0.509
146.000	149.329	79.996	19.997	100.866	19.982	3.314	0.488
148.000	150.270	79.996	19.997	100.864	19.983	3.290	0.482
150.000	151.216	79.997	19.997	100.862	19.982	3.314	0.483
152.000	152.191	79.997	19.997	100.865	19.984	3.209	0.492
154.000	153.117	79.997	19.997	100.864	19.980	3.454	0.496
156.000	154.095	79.995	19.996	100.858	19.984	3.185	0.491
158.000	155.029	79.996	19.997	100.863	19.981	3.407	0.435
160.000	155.957	79.995	19.997	100.868	19.985	3.158	0.465
162.000	156.904	79.997	19.996	100.872	19.983	3.251	0.465
164.000	157.867	79.996	19.996	100.871	19.983	3.244	0.469
166.000	158.796	79.995	19.997	100.871	19.988	2.937	0.484
168.000	159.781	79.996	19.996	100.872	19.983	3.234	0.476
170.000	160.758	79.994	19.996	100.868	19.987	2.992	0.486
172.000	161.705	79.996	19.998	100.873	19.987	3.009	0.465
174.000	162.700	79.997	19.997	100.869	19.984	3.175	0.491
176.000	163.680	79.996	19.996	100.866	19.983	3.279	0.467
178.000	164.701	79.996	19.996	100.869	19.984	3.214	0.494
180.000	165.724	79.997	19.997	100.870	19.983	3.280	0.487
182.000	166.677	79.997	19.998	100.869	19.980	3.475	0.483
184.000	167.665	79.996	19.996	100.865	19.981	3.364	0.496
186.000	168.651	79.997	19.997	100.860	19.981	3.422	0.484
188.000	169.582	79.998	19.996	100.859	19.979	3.505	0.490
190.000	170.569	79.997	19.997	100.848	19.979	3.491	0.486
192.000	171.543	79.997	19.997	100.849	19.980	3.459	0.464
194.000	172.496	79.998	19.995	100.850	19.976	3.690	0.478
196.000	173.492	79.997	19.997	100.859	19.977	3.626	0.488
198.000	174.454	79.997	19.997	100.854	19.974	3.825	0.484
200.000	175.465	79.997	19.997	100.865	19.974	3.832	0.492
202.000	176.396	79.999	19.997	100.860	19.974	3.827	0.493
204.000	177.394	79.997	19.997	100.849	19.980	3.476	0.497
206.000	178.327	79.998	19.997	100.855	19.974	3.820	0.490
208.000	179.318	79.998	19.997	100.849	19.976	3.717	0.486
210.000	180.283	79.998	19.998	100.845	19.971	4.025	0.461
212.000	181.276	79.997	19.998	100.843	19.970	4.086	0.494
214.000	182.258	79.996	19.996	100.853	19.971	4.067	0.476
216.001	183.271	79.997	19.996	100.848	19.968	4.252	0.511
218.000	184.211	79.998	19.997	100.854	19.967	4.325	0.466
220.000	185.217	79.995	19.996	100.848	19.965	4.402	0.482
222.000	186.234	79.996	19.996	100.838	19.968	4.216	0.498
224.000	187.196	79.997	19.997	100.850	19.968	4.217	0.496
226.000	188.206	79.995	19.996	100.838	19.967	4.324	0.511
228.000	189.157	79.996	19.996	100.846	19.966	4.377	0.473
230.000	190.122	79.995	19.996	100.854	19.965	4.415	0.478
232.000	191.124	79.996	19.996	100.852	19.963	4.584	0.476
234.000	192.122	79.994	19.997	100.852	19.961	4.663	0.467
236.000	193.117	79.996	19.997	100.834	19.961	4.657	0.491
238.000	194.098	79.995	19.996	100.848	19.961	4.666	0.503
240.000	195.068	79.994	19.997	100.837	19.959	4.844	0.491
242.000	196.071	79.995	19.996	100.852	19.954	5.154	0.476
244.000	197.073	79.995	19.996	100.854	19.953	5.235	0.518
246.000	198.057	79.994	19.999	100.844	19.958	4.912	0.493
248.000	199.093	79.995	19.997	100.853	19.956	4.988	0.499
250.000	200.021	79.994	19.996	100.839	19.955	5.087	0.489
252.000	201.003	79.996	19.996	100.829	19.955	5.091	0.509
254.000	202.016	79.996	19.996	100.830	19.951	5.345	0.508
256.000	202.977	79.997	19.996	100.829	19.950	5.380	0.463
258.000	203.920	79.998	19.996	100.830	19.951	5.338	0.483
260.000	204.986	79.997	19.995	100.829	19.948	5.520	0.537
262.000	205.989	79.998	19.996	100.828	19.947	5.583	0.528
264.000	207.029	79.998	19.996	100.828	19.946	5.643	0.535
266.001	208.013	79.997	19.997	100.829	19.946	5.669	0.511
268.000	208.986	79.997	19.997	100.826	19.943	5.871	0.492
270.000	209.991	79.996	19.997	100.826	19.940	6.027	0.507
272.000	211.004	79.997	19.997	100.830	19.939	6.091	0.510
274.000	211.951	79.995	19.997	100.832	19.936	6.283	0.491
276.000	212.989	79.997	19.996	100.831	19.936	6.307	0.480
278.000	213.942	79.996	19.996	100.830	19.935	6.363	0.493
280.000	214.917	79.997	19.997	100.830	19.931	6.598	0.488
282.000	215.942	79.998	19.997	100.835	19.930	6.674	0.510
284.000	216.957	79.998	19.996	100.831	19.927	6.863	0.524
286.000	217.908	79.998	19.996	100.836	19.929	6.782	0.475
288.000	218.888	79.998	19.997	100.845	19.927	6.914	0.469
290.000	219.914	79.998	19.995	100.859	19.923	7.126	0.501
292.000	220.912	79.997	19.996	100.857	19.921	7.246	0.487
294.000	221.970	79.996	19.996	100.848	19.920	7.367	0.528
296.000	222.977	79.996	19.997	100.838	19.916	7.579	0.517
298.000	223.989	79.994	19.997	100.838	19.912	7.870	0.490
300.000	225.032	79.995	19.997	100.841	19.915	7.651	0.496
302.000	226.109	79.995	19.998	100.832	19.911	7.906	0.525
304.000	227.139	79.995	19.996	100.832	19.904	8.352	0.513
306.000	228.205	79.997	19.996	100.838	19.905	8.297	0.545
308.000	229.270	79.996	19.996	100.840	19.905	8.318	0.542
310.000	230.316	79.998	19.996	100.834	19.901	8.539	0.516
312.000	231.310	79.996	19.996	100.830	19.901	8.563	0.520
314.000	232.382	79.996	19.996	100.833	19.895	8.955	0.534
316.000	233.390	79.997	19.996	100.840	19.893	9.062	0.503
318.000	234.461	79.997	19.996	100.827	19.888	9.390	0.519
320.000	235.491	79.996	19.997	100.828	19.888	9.418	0.502
322.000	236.549	79.996	19.998	100.832	19.887	9.502	0.509
324.000	237.565	79.997	19.997	100.828	19.884	9.672	0.504
326.000	238.613	79.995	19.997	100.827	19.882	9.768	0.546
328.000	239.617	79.996	19.996	100.828	19.877	10.118	0.498
330.000	240.655	79.995	19.996	100.826	19.873	10.384	0.528
332.000	241.645	79.994	19.996	100.826	19.871	10.481	0.505
334.000	242.699	79.996	19.997	100.826	19.868	10.685	0.532
336.000	243.701	79.997	19.996	100.828	19.866	10.805	0.506
338.001	244.775	79.997	19.996	100.825	19.864	10.977	0.504
340.000	245.767	79.998	19.995	100.824	19.864	10.977	0.531
342.000	246.789	79.998	19.997	100.822	19.861	11.130	0.515
344.000	247.754	79.999	19.995	100.826	19.859	11.305	0.459
346.000	248.768	79.996	19.995	100.827	19.859	11.282	0.525
348.000	249.844	79.997	19.996	100.828	19.854	11.613	0.511
350.000	250.851	79.997	19.996	100.827	19.855	11.526	0.479
352.000	251.842	79.997	19.996	100.826	19.852	11.713	0.495
354.000	252.829	79.997	19.996	100.828	19.848	11.976	0.483
356.000	253.847	79.997	19.996	100.830	19.850	11.897	0.510
358.000	254.797	79.996	19.997	100.830	19.843	12.346	0.510
360.000	255.825	79.996	19.996	100.830	19.845	12.211	0.514
362.000	256.802	79.997	19.996	100.831	19.840	12.544	0.490
364.000	257.786	79.997	19.996	100.829	19.839	12.577	0.499
366.000	258.753	79.997	19.997	100.828	19.836	12.778	0.458
368.001	259.703	79.997	19.997	100.828	19.836	12.808	0.459
370.000	260.704	79.997	19.996	100.830	19.834	12.877	0.505
372.000	261.639	79.997	19.995	100.829	19.832	13.010	0.480
374.000	262.611	79.996	19.996	100.831	19.836	12.800	0.486
376.000	263.603	79.995	19.996	100.829	19.835	12.873	0.495
378.000	264.547	79.995	19.997	100.830	19.828	13.322	0.470
380.000	265.507	79.995	19.998	100.834	19.826	13.443	0.488
382.000	266.486	79.994	19.997	100.833	19.826	13.399	0.473
384.000	267.409	79.994	19.998	100.838	19.825	13.513	0.451
386.000	268.414	79.995	19.997	100.833	19.822	13.658	0.473
388.000	269.418	79.996	19.997	100.838	19.823	13.620	0.489
390.000	270.366	79.995	19.998	100.850	19.818	13.926	0.488
392.000	271.311	79.995	19.998	100.839	19.818	13.929	0.488
394.000	272.296	79.995	19.997	100.852	19.815	14.127	0.476
396.000	273.262	79.995	19.997	100.859	19.814	14.229	0.476
398.000	274.224	79.995	19.998	100.852	19.811	14.429	0.487
400.000	275.227	79.996	19.996	100.847	19.810	14.487	0.492
402.000	276.181	79.995	19.996	100.852	19.803	14.919	0.501
404.000	277.131	79.996	19.996	100.852	19.806	14.704	0.471
406.000	278.066	79.995	19.997	100.864	19.801	15.070	0.481
408.000	279.043	79.995	19.996	100.862	19.798	15.211	0.509
410.000	280.016	79.994	19.995	100.861	19.795	15.464	0.482
412.000	280.951	79.995	19.997	100.868	19.794	15.490	0.455
414.000	281.933	79.995	19.997	100.867	19.789	15.817	0.473
416.000	282.873	79.995	19.996	100.868	19.789	15.841	0.475
418.000	283.829	79.995	19.996	100.869	19.788	15.923	0.465
420.000	284.795	79.996	19.996	100.869	19.786	16.050	0.473
422.000	285.766	79.995	19.997	100.885	19.781	16.370	0.472
424.000	286.725	79.996	19.996	100.883	19.773	16.851	0.464
426.000	287.737	79.996	19.996	100.882	19.771	17.017	0.493
428.000	288.609	79.997	19.995	100.887	19.765	17.359	0.513
430.001	289.625	79.995	19.996	100.890	19.760	17.726	0.436
432.000	290.581	79.996	19.996	100.893	19.756	17.940	0.574
434.000	291.472	79.997	19.996	100.908	19.754	18.125	0.443
436.000	292.727	79.996	19.996	100.909	19.748	18.497	0.526
438.000	293.528	79.995	19.996	100.910	19.746	18.647	0.465
440.000	294.515	79.996	19.996	100.911	19.736	19.291	0.483
442.000	295.549	79.998	19.996	100.909	19.729	19.747	0.508
444.000	296.466	79.996	19.995	100.909	19.724	20.042	0.522
446.000	297.456	79.998	19.997	100.907	19.718	20.456	0.523
448.000	298.445	79.998	19.997	100.925	19.714	20.698	0.510
450.000	299.442	79.996	19.996	100.927	19.706	21.207	0.519
452.000	300.418	79.998	19.997	100.914	19.698	21.702	0.514
454.000	301.386	79.996	19.998	100.912	19.693	22.036	0.471
456.000	302.377	79.995	19.997	100.921	19.684	22.652	0.460
458.000	303.378	79.996	19.997	100.926	19.675	23.213	0.478
460.000	304.325	79.994	19.997	100.932	19.668	23.650	0.503
462.000	305.330	79.994	19.997	100.943	19.658	24.319	0.488
464.000	306.292	79.996	19.998	100.944	19.653	24.676	0.476
466.000	307.301	79.994	19.997	100.944	19.644	25.245	0.502
468.000	308.282	79.994	19.997	100.949	19.634	25.883	0.484
470.000	309.257	79.995	19.997	100.964	19.625	26.469	0.458
472.000	310.311	79.997	19.997	100.948	19.616	27.043	0.534
474.000	311.266	79.996	19.997	100.964	19.601	28.049	0.490
476.000	312.334	79.995	19.996	100.969	19.596	28.386	0.530
478.000	313.359	79.995	19.997	100.973	19.585	29.094	0.516
480.000	314.392	79.995	19.996	100.975	19.573	29.855	0.502
482.000	315.389	79.995	19.997	100.980	19.563	30.473	0.505
484.000	316.444	79.995	19.998	100.983	19.552	31.181	0.541
486.000	317.411	79.996	19.998	100.987	19.543	31.828	0.497
488.000	318.442	79.994	19.997	100.986	19.532	32.526	0.514
490.000	319.521	79.994	19.997	100.994	19.519	33.356	0.565
492.000	320.533	79.995	19.997	101.007	19.509	34.008	0.527
494.000	321.550	79.994	19.997	100.998	19.496	34.828	0.498
496.000	322.612	79.996	19.996	101.010	19.485	35.550	0.571
498.000	323.617	79.995	19.997	101.021	19.473	36.324	0.516
500.000	324.677	79.997	19.997	101.022	19.461	37.147	0.538
502.000	325.698	79.997	19.996	101.023	19.446	38.094	0.504
504.000	326.752	79.998	19.996	101.025	19.433	38.973	0.503
506.001	327.812	80.000	19.998	101.024	19.420	39.825	0.540
508.000	328.822	79.998	19.997	101.025	19.406	40.707	0.534
510.000	329.854	79.997	19.996	101.029	19.388	41.871	0.513
512.000	330.905	79.995	19.996	101.033	19.374	42.756	0.491
514.000	331.979	79.996	19.997	101.057	19.364	43.425	0.513
516.000	332.996	79.996	19.997	101.054	19.348	44.476	0.521
518.000	334.032	79.997	19.996	101.055	19.335	45.312	0.521
520.000	335.071	79.997	19.996	101.060	19.322	46.162	0.503
522.000	336.137	79.997	19.996	101.061	19.303	47.371	0.518
524.000	337.149	79.997	19.997	101.067	19.290	48.260	0.486
526.000	338.198	79.998	19.997	101.066	19.273	49.321	0.514
528.000	339.219	79.999	19.996	101.061	19.263	49.991	0.498
530.000	340.257	80.000	19.996	101.068	19.245	51.145	0.479
532.000	341.320	80.000	19.997	101.073	19.232	51.978	0.547
534.000	342.308	79.999	19.996	101.080	19.217	52.970	0.546
536.000	343.264	79.998	19.997	101.070	19.201	54.015	0.503
538.000	344.286	79.996	19.996	101.090	19.189	54.823	0.526
540.000	345.327	79.996	19.997	101.099	19.174	55.802	0.497
542.000	346.337	79.995	19.995	101.094	19.161	56.648	0.516
544.002	347.323	79.995	19.997	101.102	19.148	57.501	0.502
546.000	348.341	79.994	19.996	101.103	19.131	58.584	0.530
548.000	349.347	79.995	19.997	101.103	19.122	59.124	0.533
550.000	350.300	79.996	19.996	101.114	19.104	60.345	0.481
552.000	351.347	79.997	19.997	101.108	19.094	60.946	0.530
554.000	352.296	79.996	19.997	101.111	19.086	61.514	0.498
556.000	353.368	79.997	19.996	101.106	19.078	62.031	0.521
558.000	354.382	79.996	19.996	101.104	19.069	62.568	0.517
560.000	355.345	79.996	19.997	101.105	19.061	63.105	0.489
562.000	356.344	79.996	19.997	101.107	19.058	63.270	0.496
564.000	357.332	79.996	19.997	101.105	19.055	63.478	0.489
566.000	358.381	79.995	19.997	101.105	19.052	63.673	0.528
568.000	359.383	79.995	19.996	101.105	19.054	63.500	0.496
570.000	360.395	79.995	19.998	101.103	19.058	63.248	0.481
572.000	361.411	79.995	19.997	101.073	19.064	62.847	0.513
574.000	362.396	79.995	19.997	101.062	19.072	62.312	0.508
576.000	363.411	79.995	19.997	101.059	19.087	61.364	0.499
578.000	364.427	79.995	19.997	101.032	19.106	60.111	0.499
580.000	365.455	79.995	19.998	101.022	19.125	58.847	0.562
582.000	366.466	79.996	19.997	101.017	19.145	57.570	0.491
584.000	367.477	79.998	19.996	100.989	19.170	55.954	0.505
586.000	368.517	79.997	19.997	100.980	19.197	54.189	0.505
588.000	369.558	79.998	19.996	100.967	19.228	52.130	0.496
590.000	370.573	79.997	19.996	100.945	19.262	49.924	0.482
592.000	371.579	79.997	19.996	100.934	19.302	47.334	0.495
594.000	372.698	79.996	19.996	100.911	19.339	44.971	0.562
596.000	373.685	79.997	19.996	100.905	19.375	42.597	0.508
598.000	374.681	79.997	19.995	100.890	19.416	39.984	0.513
600.001	375.747	79.997	19.997	100.863	19.460	37.123	0.534
602.000	376.769	79.996	19.996	100.836	19.500	34.485	0.502
604.000	377.808	79.998	19.997	100.826	19.544	31.685	0.511
606.000	378.804	79.998	19.996	100.822	19.582	29.230	0.512
608.000	379.859	79.997	19.996	100.820	19.622	26.618	0.515
610.000	380.866	79.998	19.996	100.801	19.659	24.192	0.483
612.000	381.862	79.997	19.996	100.801	19.696	21.846	0.507
614.000	382.882	79.997	19.997	100.790	19.731	19.580	0.527
616.000	383.872	79.997	19.997	100.786	19.759	17.780	0.499
618.000	384.868	79.997	19.996	100.784	19.786	16.026	0.494
620.000	385.873	79.995	19.997	100.783	19.809	14.495	0.488
622.000	386.862	79.996	19.995	100.788	19.829	13.243	0.504
624.000	387.873	79.995	19.997	100.782	19.845	12.199	0.514
626.000	388.873	79.994	19.996	100.784	19.862	11.066	0.494
628.000	389.852	79.996	19.996	100.790	19.876	10.201	0.496
630.000	390.864	79.995	19.997	100.790	19.882	9.805	0.499
632.001	391.869	79.995	19.996	100.791	19.893	9.057	0.491
634.000	392.906	79.995	19.997	100.793	19.897	8.835	0.536
636.000	393.939	79.995	19.996	100.792	19.901	8.540	0.531
638.000	394.905	79.995	19.997	100.787	19.905	8.276	0.492
640.000	395.991	79.995	19.997	100.789	19.910	8.001	0.555
642.000	396.963	79.997	19.998	100.787	19.907	8.176	0.485
644.000	398.016	79.996	19.996	100.786	19.910	7.964	0.524
646.000	399.012	79.996	19.997	100.786	19.913	7.758	0.537
648.000	400.031	79.996	19.998	100.780	19.912	7.844	0.502
650.000	401.004	79.995	19.997	100.787	19.917	7.519	0.490
652.000	402.031	79.996	19.997	100.787	19.914	7.698	0.533
654.000	403.018	79.996	19.996	100.788	19.914	7.740	0.486
656.001	404.016	79.997	19.997	100.787	19.914	7.705	0.495
658.000	404.982	79.995	19.996	100.790	19.917	7.539	0.495
660.000	406.002	79.995	19.997	100.790	19.916	7.591	0.491
662.000	407.012	79.996	19.998	100.786	19.917	7.502	0.498
664.000	408.037	79.996	19.997	100.785	19.919	7.392	0.507
666.000	409.033	79.997	19.997	100.788	19.918	7.449	0.498
668.000	410.006	79.997	19.998	100.790	19.920	7.341	0.503
670.000	410.998	79.996	19.996	100.789	19.919	7.371	0.512
672.000	412.021	79.994	19.998	100.789	19.919	7.424	0.465
674.000	413.030	79.995	19.996	100.789	19.921	7.271	0.514
676.000	413.994	79.995	19.996	100.790	19.920	7.368	0.474
678.000	414.997	79.995	19.997	100.787	19.924	7.047	0.495
680.000	415.980	79.997	19.996	100.791	19.923	7.138	0.471
682.000	417.048	79.996	19.997	100.792	19.923	7.174	0.523
684.000	418.075	79.997	19.996	100.791	19.921	7.282	0.504
686.000	419.116	79.996	19.997	100.797	19.921	7.250	0.526
688.000	420.115	79.997	19.996	100.804	19.920	7.319	0.498
690.000	421.179	79.998	19.996	100.792	19.924	7.110	0.486
692.000	422.211	79.998	19.996	100.801	19.921	7.293	0.506
694.000	423.228	79.998	19.996	100.792	19.922	7.178	0.554
696.001	424.227	79.997	19.995	100.798	19.923	7.159	0.496
698.000	425.321	79.996	19.997	100.794	19.923	7.131	0.519
700.001	426.352	79.996	19.996	100.796	19.924	7.098	0.532
702.000	427.406	79.995	19.995	100.797	19.921	7.277	0.514
704.000	428.460	79.995	19.996	100.794	19.927	6.884	0.543
706.000	429.494	79.995	19.996	100.792	19.928	6.817	0.518
708.000	430.581	79.996	19.998	100.792	19.929	6.770	0.538
710.000	431.647	79.997	19.997	100.791	19.928	6.849	0.557
712.000	432.701	79.996	19.996	100.793	19.928	6.838	0.560
714.000	433.777	79.995	19.996	100.802	19.932	6.562	0.560
716.000	434.885	79.996	19.997	100.791	19.932	6.536	0.561
718.000	435.947	79.996	19.996	100.785	19.932	6.540	0.547
720.002	436.977	79.997	19.996	100.791	19.934	6.422	0.502
722.000	438.014	79.997	19.996	100.788	19.933	6.488	0.497
724.000	439.074	79.997	19.996	100.788	19.933	6.507	0.510
726.000	440.141	79.997	19.996	100.793	19.933	6.476	0.546
728.000	441.200	79.995	19.997	100.785	19.935	6.362	0.499
730.000	442.256	79.995	19.997	100.786	19.935	6.362	0.519
732.000	443.270	79.995	19.998	100.788	19.935	6.380	0.502
734.000	444.294	79.994	19.997	100.789	19.933	6.504	0.502
736.000	445.337	79.993	19.997	100.791	19.936	6.316	0.517
738.000	446.367	79.995	19.997	100.791	19.935	6.344	0.544
740.000	447.374	79.995	19.997	100.793	19.937	6.262	0.488
742.000	448.391	79.995	19.997	100.790	19.936	6.270	0.518
744.000	449.402	79.996	19.996	100.787	19.938	6.166	0.512
746.000	450.409	79.995	19.998	100.790	19.939	6.098	0.503
748.000	451.424	79.996	19.997	100.788	19.937	6.212	0.506
750.000	452.382	79.997	19.997	100.787	19.938	6.161	0.473
752.000	453.395	79.997	19.996	100.777	19.942	5.914	0.505
754.000	454.359	79.996	19.997	100.777	19.943	5.831	0.462
756.000	455.326	79.997	19.996	100.788	19.943	5.858	0.498
758.000	456.286	79.996	19.998	100.790	19.943	5.824	0.475
760.000	457.269	79.995	19.998	100.790	19.944	5.760	0.502
762.000	458.247	79.995	19.998	100.786	19.944	5.779	0.497
764.000	459.229	79.995	19.997	100.789	19.947	5.609	0.519
766.000	460.219	79.997	19.999	100.787	19.943	5.849	0.505
768.000	461.226	79.998	19.998	100.785	19.946	5.666	0.512
770.000	462.175	79.998	19.997	100.787	19.948	5.500	0.480
772.000	463.171	79.999	19.996	100.785	19.949	5.476	0.468
774.000	464.216	79.998	19.997	100.787	19.951	5.313	0.548
776.001	465.172	79.997	19.996	100.788	19.954	5.140	0.501
778.000	466.195	79.998	19.996	100.785	19.953	5.217	0.502
780.000	467.170	79.997	19.995	100.775	19.958	4.866	0.507
782.000	468.148	79.996	19.997	100.783	19.956	5.020	0.489
784.001	469.173	79.996	19.996	100.786	19.959	4.841	0.538
786.000	470.187	79.996	19.996	100.788	19.960	4.749	0.510
788.000	471.138	79.995	19.995	100.786	19.959	4.830	0.478
790.000	472.102	79.996	19.997	100.785	19.964	4.522	0.498
792.000	473.109	79.996	19.996	100.784	19.961	4.693	0.504
794.000	474.117	79.996	19.998	100.767	19.963	4.569	0.534
796.000	475.093	79.996	19.996	100.778	19.965	4.397	0.474
798.000	476.079	79.995	19.997	100.785	19.963	4.564	0.516
800.000	477.094	79.996	19.996	100.787	19.963	4.569	0.515
802.000	478.085	79.996	19.996	100.790	19.964	4.504	0.513
804.000	479.113	79.996	19.996	100.791	19.964	4.467	0.509
806.000	480.089	79.996	19.996	100.787	19.964	4.462	0.490
808.000	481.122	79.996	19.996	100.794	19.967	4.298	0.516
810.000	482.153	79.997	19.997	100.789	19.967	4.306	0.508
812.000	483.122	79.995	19.996	100.789	19.966	4.346	0.520
814.000	484.147	79.996	19.995	100.789	19.968	4.199	0.521
816.000	485.168	79.995	19.995	100.790	19.968	4.241	0.502
818.000	486.240	79.994	19.996	100.791	19.972	3.944	0.539
820.000	487.272	79.994	19.996	100.791	19.968	4.210	0.527
822.000	488.315	79.996	19.997	100.790	19.969	4.178	0.521
824.000	489.398	79.994	19.997	100.784	19.966	4.339	0.544
826.000	490.447	79.995	19.996	100.786	19.971	4.049	0.537
828.000	491.481	79.998	19.998	100.786	19.972	3.963	0.512
830.000	492.514	79.998	19.997	100.783	19.974	3.821	0.510
832.000	493.637	79.996	19.998	100.787	19.974	3.852	0.541
834.000	494.652	79.997	19.998	100.789	19.974	3.835	0.499
836.000	495.724	79.997	19.997	100.789	19.974	3.810	0.524
838.000	496.769	79.996	19.997	100.788	19.974	3.810	0.523
840.000	497.812	79.996	19.997	100.789	19.972	3.966	0.510
842.000	498.871	79.996	19.998	100.782	19.976	3.744	0.515
844.000	499.898	79.997	19.998	100.789	19.975	3.796	0.511
846.000	500.980	79.997	19.998	100.781	19.976	3.734	0.529
848.000	502.009	79.996	19.998	100.783	19.977	3.639	0.551
850.000	503.095	79.997	19.997	100.786	19.978	3.576	0.516
852.000	504.091	79.997	19.998	100.786	19.977	3.665	0.511
854.000	505.117	79.998	19.998	100.785	19.976	3.711	0.497
856.000	506.210	79.998	19.999	100.766	19.975	3.762	0.542
858.000	507.165	79.998	19.997	100.775	19.976	3.716	0.508
860.000	508.209	79.997	19.997	100.777	19.975	3.809	0.517
862.000	509.247	79.997	19.998	100.784	19.979	3.543	0.508
864.000	510.254	79.996	19.997	100.787	19.977	3.630	0.497
866.001	511.245	79.995	19.998	100.789	19.976	3.698	0.497
868.000	512.263	79.997	19.997	100.789	19.981	3.388	0.509
870.000	513.292	79.995	19.998	100.790	19.977	3.619	0.501
872.000	514.310	79.994	19.996	100.786	19.976	3.693	0.527
874.000	515.372	79.996	19.997	100.788	19.980	3.480	0.537
876.000	516.425	79.996	19.996	100.777	19.979	3.525	0.540
878.000	517.428	79.996	19.997	100.777	19.979	3.537	0.506
880.000	518.452	79.995	19.996	100.775	19.984	3.227	0.530
882.000	519.514	79.996	19.997	100.789	19.982	3.318	0.545
884.000	520.480	79.995	19.997	100.787	19.976	3.735	0.511
886.000	521.509	79.995	19.995	100.789	19.983	3.241	0.517
888.000	522.517	79.995	19.998	100.785	19.980	3.437	0.486
890.000	523.531	79.996	19.997	100.789	19.979	3.499	0.480
892.000	524.554	79.995	19.996	100.779	19.981	3.415	0.511
894.000	525.567	79.995	19.997	100.779	19.981	3.397	0.512
896.000	526.533	79.995	19.996	100.780	19.981	3.418	0.467
898.000	527.548	79.995	19.996	100.766	19.982	3.332	0.508
900.000	528.504	79.995	19.997	100.781	19.984	3.185	0.482
902.000	529.477	79.996	19.996	100.786	19.984	3.174	0.482
904.000	530.430	79.996	19.996	100.788	19.984	3.164	0.487
906.000	531.486	79.997	19.996	100.769	19.980	3.425	0.485
908.000	532.447	79.997	19.996	100.779	19.984	3.178	0.509
910.000	533.475	79.998	19.996	100.785	19.982	3.311	0.515
912.000	534.433	79.999	19.996	100.766	19.985	3.100	0.547
914.000	535.474	79.998	19.997	100.773	19.980	3.450	0.508
916.000	536.456	79.997	19.997	100.781	19.982	3.303	0.504
918.000	537.462	79.997	19.998	100.784	19.982	3.357	0.509
920.000	538.448	79.997	19.997	100.783	19.985	3.148	0.509
922.000	539.459	79.996	19.997	100.782	19.983	3.266	0.499
924.000	540.501	79.998	19.998	100.788	19.983	3.239	0.501
926.000	541.522	79.998	19.998	100.785	19.982	3.294	0.517
928.000	542.531	79.997	19.999	100.785	19.983	3.240	0.514
930.000	543.558	79.997	19.995	100.779	19.984	3.168	0.528
932.000	544.588	79.997	19.996	100.780	19.984	3.170	0.505
934.000	545.591	79.998	19.996	100.779	19.983	3.243	0.502
936.000	546.594	79.999	19.996	100.784	19.985	3.152	0.511
938.000	547.701	79.997	19.997	100.786	19.982	3.322	0.546
940.000	548.735	79.998	19.996	100.786	19.983	3.276	0.537
942.000	549.787	79.997	19.998	100.792	19.978	3.583	0.515
944.000	550.781	79.996	19.998	100.792	19.982	3.341	0.489
946.000	551.914	79.994	19.998	100.789	19.984	3.226	0.535
948.000	552.967	79.994	19.998	100.789	19.985	3.161	0.528
950.000	554.050	79.994	19.996	100.789	19.987	3.031	0.529
952.000	555.117	79.994	19.998	100.790	19.987	2.984	0.523
954.000	556.217	79.995	19.997	100.792	19.984	3.173	0.558
956.000	557.258	79.995	19.997	100.791	19.984	3.201	0.537
958.000	558.326	79.994	19.997	100.788	19.983	3.266	0.543
960.000	559.429	79.995	19.997	100.788	19.987	3.033	0.551
962.000	560.557	79.996	19.997	100.790	19.981	3.362	0.556
964.000	561.649	79.997	19.996	100.791	19.985	3.115	0.545
966.000	562.749	79.997	19.998	100.791	19.985	3.142	0.532
968.000	563.892	79.997	19.997	100.788	19.986	3.056	0.546
970.000	565.015	79.996	19.997	100.789	19.985	3.133	0.564
972.000	566.148	79.996	19.996	100.790	19.981	3.364	0.575
974.000	567.310	79.997	19.996	100.789	19.985	3.121	0.569
976.000	568.404	79.995	19.997	100.792	19.987	2.995	0.566
978.000	569.574	79.996	19.997	100.788	19.984	3.226	0.582
980.000	570.733	79.995	19.996	100.790	19.985	3.105	0.592
982.000	571.910	79.995	19.998	100.789	19.983	3.247	0.584
984.000	573.102	79.996	19.996	100.791	19.989	2.883	0.606
986.000	574.250	79.995	19.996	100.788	19.992	2.673	0.562
988.000	575.464	79.998	19.998	100.795	19.992	2.704	0.636
990.000	576.628	79.999	19.997	100.794	20.000	2.187	0.574
992.000	577.776	79.997	19.995	100.814	20.004	1.925	0.600
994.000	578.900	79.998	19.996	100.806	20.001	2.070	0.579
996.000	580.032	79.996	19.996	100.817	20.003	1.986	0.542
998.000	581.143	79.997	19.996	100.807	20.001	2.065	0.535
1000.000	582.328	79.997	19.998	100.802	19.999	2.229	0.579
1002.001	583.469	79.997	19.996	100.800	20.002	2.009	0.568
1004.000	584.587	79.996	19.998	100.796	19.993	2.595	0.547
1006.000	585.761	79.998	19.997	100.792	19.993	2.644	0.569
1008.000	586.852	79.998	19.997	100.792	19.994	2.564	0.546
1010.000	587.995	79.997	19.998	100.790	19.990	2.805	0.548
1012.000	589.157	79.997	19.997	100.790	19.990	2.794	0.577
1014.000	590.268	79.999	19.996	100.791	19.988	2.924	0.575
1016.000	591.406	79.997	19.996	100.791	19.994	2.578	0.558
1018.000	592.521	79.998	19.996	100.791	19.989	2.891	0.542
1020.000	593.642	79.998	19.997	100.790	19.987	3.033	0.535
1022.000	594.788	79.998	19.995	100.786	19.984	3.166	0.565
1024.000	595.889	79.996	19.996	100.773	19.985	3.105	0.537
1026.000	597.007	79.995	19.996	100.787	19.983	3.234	0.577
1028.000	598.129	79.995	19.996	100.788	19.988	2.950	0.575
1030.000	599.255	79.996	19.998	100.786	19.988	2.945	0.565
1032.000	600.327	79.994	19.999	100.783	19.980	3.476	0.567
1034.001	601.431	79.995	19.997	100.780	19.984	3.225	0.552
1036.000	602.492	79.994	19.996	100.779	19.981	3.358	0.520
1038.000	603.570	79.995	19.998	100.776	19.984	3.199	0.541
1040.000	604.624	79.995	19.998	100.784	19.981	3.399	0.549
1042.000	605.718	79.997	19.999	100.785	19.983	3.269	0.545
1044.000	606.783	79.995	19.998	100.778	19.983	3.292	0.537
1046.001	607.856	79.996	19.997	100.762	19.982	3.344	0.519
1048.001	608.915	79.998	19.996	100.778	19.982	3.294	0.528
1050.001	609.978	79.997	19.997	100.778	19.981	3.420	0.522
1052.000	611.033	79.997	19.996	100.785	19.979	3.532	0.535
1054.000	612.055	79.996	19.997	100.785	19.984	3.189	0.508
1056.000	613.099	79.996	19.996	100.780	19.980	3.460	0.539
1058.001	614.171	79.995	19.998	100.779	19.981	3.409	0.517
1060.000	615.214	79.996	19.997	100.785	19.979	3.499	0.490
1062.000	616.244	79.997	19.996	100.790	19.981	3.376	0.504
1064.000	617.260	79.997	19.997	100.786	19.980	3.472	0.513
1066.000	618.341	79.996	19.996	100.788	19.978	3.576	0.544
1068.000	619.325	79.996	19.998	100.783	19.982	3.308	0.525
1070.000	620.383	79.996	19.996	100.787	19.978	3.564	0.506
1072.000	621.372	79.997	19.995	100.790	19.976	3.725	0.534
1074.000	622.377	79.997	19.995	100.786	19.980	3.434	0.535
1076.000	623.388	79.999	19.997	100.784	19.975	3.763	0.517
1078.000	624.411	79.997	19.995	100.790	19.978	3.615	0.468
1080.000	625.386	79.998	19.996	100.791	19.972	3.940	0.479
1082.000	626.384	79.998	19.997	100.792	19.975	3.790	0.504
1084.000	627.424	79.996	19.996	100.792	19.976	3.681	0.521
1086.000	628.399	79.997	19.995	100.792	19.976	3.719	0.508
1088.000	629.376	79.998	19.997	100.790	19.978	3.606	0.483
1090.000	630.400	79.996	19.996	100.789	19.976	3.726	0.520
1092.000	631.405	79.997	19.996	100.788	19.974	3.874	0.492
1094.000	632.363	79.998	19.995	100.788	19.975	3.755	0.436
1096.000	633.404	79.998	19.996	100.782	19.979	3.492	0.503
1098.000	634.374	79.997	19.996	100.781	19.976	3.683	0.485
1100.001	635.444	79.999	19.996	100.785	19.975	3.800	0.522
1102.000	636.415	79.998	19.997	100.788	19.976	3.684	0.501
1104.000	637.404	79.997	19.998	100.787	19.975	3.763	0.492
1106.000	638.420	79.994	19.997	100.787	19.977	3.636	0.481
1108.000	639.426	79.996	19.998	100.794	19.979	3.523	0.511
1110.000	640.428	79.996	19.998	100.789	19.971	4.033	0.513
1112.000	641.412	79.996	19.997	100.789	19.974	3.842	0.487
1114.000	642.419	79.995	19.996	100.789	19.976	3.685	0.492
1116.000	643.394	79.995	19.998	100.796	19.975	3.748	0.488
1118.000	644.355	79.996	19.997	100.790	19.973	3.928	0.492
1120.000	645.358	79.996	19.997	100.790	19.971	4.063	0.497
1122.000	646.381	79.998	19.997	100.792	19.973	3.935	0.493
1124.000	647.368	79.994	19.998	100.793	19.976	3.745	0.484
1126.000	648.380	79.995	19.997	100.795	19.975	3.806	0.507
1128.001	649.304	79.995	19.998	100.803	19.975	3.787	0.470
1130.000	650.358	79.994	19.998	100.799	19.970	4.095	0.514
1132.000	651.328	79.995	19.998	100.797	19.971	4.059	0.485
1134.001	652.364	79.994	19.997	100.795	19.974	3.869	0.503
1136.000	653.365	79.995	19.997	100.811	19.973	3.934	0.521
1138.000	654.373	79.996	19.997	100.809	19.977	3.670	0.488
1140.000	655.376	79.996	19.996	100.806	19.979	3.529	0.505
1142.001	656.379	79.995	19.997	100.815	19.976	3.728	0.479
1144.000	657.359	79.993	19.995	100.816	19.972	4.004	0.477
1146.000	658.386	79.994	19.996	100.806	19.971	4.034	0.488
1148.000	659.407	79.999	19.996	100.811	19.972	3.999	0.519
1150.000	660.378	79.997	19.995	100.806	19.971	4.060	0.519
1152.000	661.421	79.997	19.997	100.816	19.970	4.073	0.503
1154.000	662.437	79.997	19.998	100.809	19.971	4.048	0.463
1156.000	663.460	79.998	19.997	100.800	19.971	4.042	0.495
1158.000	664.400	79.997	19.996	100.819	19.974	3.852	0.492
1160.000	665.409	79.997	19.996	100.807	19.970	4.131	0.528
1162.000	666.382	79.997	19.997	100.817	19.970	4.096	0.494
1164.000	667.391	79.996	19.997	100.821	19.972	3.950	0.478
1166.000	668.358	79.997	19.996	100.824	19.969	4.164	0.460
1168.000	669.381	79.996	19.996	100.828	19.971	4.026	0.468
1170.001	670.418	79.996	19.996	100.824	19.970	4.071	0.535
1172.000	671.451	79.998	19.996	100.816	19.970	4.085	0.550
1174.001	672.437	79.997	19.996	100.823	19.971	4.050	0.509
1176.000	673.473	79.998	19.996	100.825	19.970	4.115	0.521
1178.000	674.530	80.000	19.997	100.836	19.972	3.968	0.506
1180.000	675.553	79.999	19.998	100.827	19.972	4.005	0.510
1182.000	676.643	79.999	19.996	100.827	19.976	3.690	0.525
1184.000	677.649	79.998	19.996	100.826	19.970	4.116	0.488
1186.000	678.720	79.998	19.997	100.833	19.971	4.064	0.514
1188.000	679.756	79.995	19.996	100.834	19.972	4.000	0.503
1190.000	680.789	79.995	19.996	100.834	19.971	4.028	0.485
1192.000	681.848	79.996	19.998	100.835	19.971	4.067	0.544
1194.000	682.926	79.995	19.997	100.842	19.970	4.102	0.525
1196.000	683.945	79.995	19.997	100.858	19.974	3.861	0.503
1198.001	684.982	79.995	19.996	100.848	19.968	4.219	0.506
1200.000	686.064	79.998	19.997	100.831	19.967	4.305	0.542
1202.000	687.074	79.995	19.998	100.834	19.970	4.121	0.530
1204.000	688.103	79.995	19.996	100.842	19.970	4.114	0.518
1206.000	689.130	79.997	19.996	100.840	19.971	4.045	0.517
1208.001	690.183	79.995	19.996	100.834	19.974	3.849	0.541
1210.000	691.238	79.995	19.996	100.844	19.970	4.080	0.486
1212.000	692.257	79.995	19.997	100.842	19.971	4.037	0.518
1214.000	693.261	79.995	19.997	100.840	19.965	4.403	0.519
1216.001	694.310	79.995	19.997	100.830	19.970	4.076	0.515
1218.000	695.355	79.997	19.998	100.831	19.971	4.014	0.496
1220.000	696.432	79.997	19.998	100.837	19.969	4.196	0.569
1222.000	697.451	79.995	19.998	100.830	19.971	4.049	0.514
1224.000	698.475	79.996	19.997	100.832	19.964	4.475	0.542
1226.000	699.483	79.995	19.999	100.838	19.964	4.491	0.522
1228.000	700.483	79.996	19.998	100.842	19.963	4.571	0.500
1230.002	701.534	79.997	19.998	100.834	19.969	4.136	0.535
1232.000	702.540	79.997	19.996	100.828	19.967	4.310	0.516
1234.000	703.572	79.998	19.995	100.837	19.968	4.259	0.500
1236.000	704.571	79.998	19.996	100.834	19.966	4.343	0.526
1238.000	705.587	79.997	19.995	100.842	19.962	4.650	0.503
1240.000	706.584	79.998	19.997	100.833	19.960	4.726	0.494
1242.000	707.622	79.998	19.995	100.829	19.964	4.509	0.515
1244.000	708.604	79.999	19.997	100.829	19.959	4.831	0.479
1246.000	709.650	79.998	19.996	100.826	19.963	4.556	0.509
1248.000	710.671	79.999	19.996	100.829	19.964	4.522	0.514
1250.000	711.659	79.996	19.996	100.825	19.964	4.462	0.511
1252.000	712.649	79.997	19.994	100.825	19.960	4.721	0.477
1254.000	713.634	79.996	19.997	100.820	19.963	4.555	0.469
1256.000	714.661	79.998	19.996	100.819	19.965	4.432	0.514
1258.000	715.644	79.998	19.997	100.813	19.967	4.308	0.517
1260.000	716.686	79.998	19.996	100.794	19.970	4.082	0.526
1262.000	717.664	79.998	19.996	100.790	19.966	4.373	0.485
1264.000	718.655	79.997	19.995	100.790	19.969	4.154	0.505
1266.001	719.666	79.999	19.995	100.787	19.969	4.184	0.489
1268.000	720.662	79.996	19.995	100.789	19.966	4.340	0.521
1270.000	721.651	79.996	19.996	100.789	19.974	3.851	0.509
1272.000	722.689	79.997	19.996	100.794	19.971	4.045	0.474
1274.000	723.702	79.997	19.997	100.801	19.968	4.210	0.505
1276.000	724.707	79.996	19.995	100.792	19.976	3.707	0.512
1278.000	725.667	79.997	19.996	100.791	19.974	3.863	0.469
1280.000	726.675	79.995	19.998	100.791	19.969	4.149	0.488
1282.001	727.701	79.995	19.995	100.789	19.973	3.909	0.497
1284.000	728.711	79.996	19.997	100.787	19.975	3.781	0.476
1286.000	729.731	79.997	19.997	100.787	19.969	4.185	0.470
1288.000	730.732	79.997	19.996	100.791	19.973	3.877	0.517
1290.000	731.767	79.998	19.998	100.789	19.972	3.993	0.534
1292.000	732.744	79.997	19.998	100.789	19.967	4.310	0.491
1294.000	733.780	79.998	19.997	100.788	19.968	4.240	0.538
1296.001	734.778	79.996	19.998	100.791	19.966	4.346	0.517
1298.000	735.827	79.996	19.997	100.791	19.963	4.544	0.539
1300.000	736.800	79.996	19.995	100.791	19.967	4.292	0.496
1302.001	737.805	79.996	19.997	100.792	19.968	4.261	0.535
1304.000	738.819	79.995	19.998	100.801	19.974	3.814	0.517
1306.000	739.792	79.995	19.997	100.793	19.973	3.939	0.519
1308.000	740.811	79.995	19.998	100.788	19.965	4.397	0.493
1310.000	741.813	79.998	19.999	100.788	19.971	4.068	0.473
1312.000	742.821	79.996	19.997	100.787	19.971	4.017	0.510
1313.500	743.625	79.996	19.997	100.786	19.970	4.074	0.523