File: 01_Data/Fiberboard_Pressed_Paper/MCC/Fiberboard_Pressed_Paper_MCC_30K_min_211005_R2.txt
Sample ID:	C:\MCC\MCC Cal\Test\Fiberboard_Pressed_Paper_MCC_30K_min_211005_R2.txt
Sample Weight (mg):	4.6
Heating Rate (C/s):	0.5
Combustor Temp (C):	900
N2 Flow Rate (cc/min):	80
O2 Flow Rate (cc/min):	20
Calibration File:	C:\MCC\MCC Cal\Coeff1 JN10440_30_210304.txt.txt
T Correction Coefficients:	0	1.024463	0
Time Shift (s):	14
*
Time (s)	Temperature (C)	N2 flow rate (cc/min)	O2 flow rate (cc/min)	Flow Rate (cc/min)	Oxygen (%)	HRR (W/g)	Heating rate (C/s)
0.000	109.330	79.996	19.996	100.749	19.995	0.094	-0.006
2.000	109.272	79.994	19.996	100.751	19.995	0.089	-0.033
4.000	109.294	79.994	19.996	100.758	19.996	0.015	0.017
6.000	109.311	79.993	19.997	100.760	19.998	-0.129	0.012
8.000	109.291	79.994	19.997	100.765	19.994	0.157	-0.025
10.000	109.295	79.995	19.997	100.790	19.992	0.290	0.009
12.002	109.270	79.995	19.998	100.787	19.989	0.444	0.004
14.000	109.284	79.995	19.996	100.783	19.991	0.354	0.005
16.000	109.347	79.996	19.996	100.769	19.993	0.211	0.011
18.000	109.364	79.995	19.998	100.783	19.992	0.259	-0.004
20.000	109.349	79.995	19.998	100.788	19.991	0.339	-0.001
22.000	109.340	79.997	19.997	100.796	19.987	0.628	-0.021
24.000	109.380	79.995	19.995	100.830	19.987	0.639	0.000
26.000	109.446	79.996	19.996	100.863	19.981	1.014	0.012
28.000	109.528	79.995	19.996	100.882	19.975	1.425	0.042
30.000	109.638	79.994	19.998	100.891	19.972	1.650	0.075
32.002	109.780	79.996	19.996	100.900	19.968	1.883	0.069
34.002	109.944	79.995	19.996	100.914	19.963	2.274	0.094
36.000	110.148	79.996	19.997	100.943	19.962	2.326	0.094
38.000	110.373	79.998	19.997	100.950	19.957	2.683	0.137
40.000	110.643	79.997	19.996	100.961	19.957	2.678	0.108
42.001	110.920	79.997	19.997	100.964	19.952	3.026	0.141
44.000	111.234	79.998	19.997	100.974	19.954	2.856	0.186
46.001	111.601	79.999	19.996	100.980	19.953	2.930	0.134
48.000	111.965	79.999	19.995	100.958	19.951	3.061	0.180
50.000	112.349	79.997	19.996	100.946	19.951	3.091	0.188
52.000	112.766	79.998	19.996	100.950	19.956	2.732	0.184
54.000	113.195	79.997	19.996	100.950	19.957	2.641	0.225
56.001	113.599	79.997	19.995	100.948	19.951	3.076	0.219
58.000	114.116	79.995	19.994	100.903	19.954	2.901	0.217
60.000	114.571	79.998	19.996	100.986	19.951	3.089	0.243
62.000	115.035	79.997	19.996	100.997	19.953	2.916	0.235
64.000	115.539	79.997	19.996	100.964	19.951	3.066	0.231
66.000	116.056	79.997	19.995	100.963	19.950	3.131	0.270
68.001	116.601	79.999	19.995	100.968	19.948	3.280	0.255
70.000	117.146	79.997	19.995	100.994	19.953	2.961	0.265
72.000	117.750	79.998	19.996	100.990	19.949	3.211	0.339
74.000	118.298	79.996	19.994	100.985	19.951	3.090	0.286
76.000	118.872	79.998	19.994	100.989	19.944	3.539	0.285
78.000	119.469	79.996	19.995	100.998	19.949	3.183	0.300
80.000	120.097	79.996	19.997	100.991	19.949	3.219	0.285
82.000	120.777	79.995	19.997	100.990	19.946	3.445	0.338
84.000	121.432	79.995	19.997	100.989	19.947	3.359	0.327
86.000	122.148	79.995	19.997	100.987	19.949	3.189	0.347
88.000	122.828	79.995	19.997	100.976	19.949	3.205	0.366
90.000	123.470	79.995	19.997	100.995	19.946	3.384	0.339
92.000	124.203	79.996	19.996	101.012	19.947	3.352	0.357
94.000	124.981	79.997	19.997	101.002	19.944	3.556	0.368
96.000	125.661	79.997	19.996	100.999	19.944	3.588	0.332
98.000	126.467	79.997	19.997	101.020	19.940	3.814	0.399
100.000	127.208	79.998	19.996	100.946	19.942	3.710	0.398
102.000	127.985	79.995	19.997	101.024	19.947	3.367	0.385
104.000	128.765	79.995	19.998	101.057	19.946	3.448	0.410
106.000	129.545	79.996	19.998	101.008	19.944	3.530	0.375
108.000	130.305	79.996	19.997	100.996	19.941	3.732	0.380
110.000	131.119	79.995	19.998	100.998	19.944	3.564	0.430
112.000	131.934	79.994	19.997	100.993	19.945	3.492	0.405
114.000	132.778	79.995	19.997	100.992	19.945	3.488	0.428
116.000	133.608	79.994	19.997	100.996	19.944	3.531	0.433
118.001	134.481	79.995	19.997	100.997	19.944	3.572	0.426
120.000	135.309	79.995	19.995	100.998	19.946	3.418	0.434
122.000	136.170	79.998	19.997	101.015	19.945	3.497	0.453
124.000	137.083	79.996	19.997	101.009	19.943	3.614	0.467
126.000	137.906	79.998	19.996	101.009	19.947	3.319	0.414
128.000	138.814	79.995	19.997	101.023	19.949	3.217	0.458
130.000	139.684	79.997	19.996	101.019	19.944	3.525	0.449
132.000	140.580	79.996	19.996	101.015	19.945	3.517	0.435
134.000	141.500	79.997	19.995	101.016	19.941	3.768	0.442
136.000	142.407	79.996	19.996	101.016	19.942	3.689	0.445
138.000	143.293	79.997	19.995	101.021	19.945	3.500	0.440
140.000	144.281	79.995	19.996	101.016	19.943	3.645	0.472
142.000	145.203	79.997	19.996	101.010	19.945	3.473	0.465
144.000	146.113	79.997	19.996	101.003	19.946	3.436	0.430
146.000	147.058	79.998	19.997	100.997	19.949	3.230	0.433
148.000	148.014	79.998	19.996	100.992	19.945	3.499	0.493
150.000	148.965	79.999	19.996	100.995	19.945	3.460	0.488
152.000	149.930	79.999	19.997	101.006	19.947	3.319	0.487
154.000	150.888	79.999	19.996	101.005	19.947	3.345	0.499
156.000	151.830	79.999	19.997	101.010	19.947	3.354	0.480
158.000	152.783	79.998	19.996	100.996	19.947	3.356	0.446
160.000	153.761	79.996	19.995	101.013	19.948	3.278	0.488
162.000	154.714	79.995	19.996	101.003	19.947	3.324	0.469
164.000	155.642	79.998	19.996	100.992	19.945	3.478	0.498
166.000	156.638	79.998	19.996	101.009	19.944	3.543	0.483
168.000	157.612	79.995	19.997	101.002	19.942	3.665	0.503
170.000	158.549	79.995	19.998	101.006	19.943	3.609	0.471
172.000	159.544	79.995	19.997	100.996	19.944	3.532	0.488
174.000	160.508	79.996	19.997	100.988	19.945	3.495	0.515
176.000	161.523	79.997	19.996	100.988	19.941	3.791	0.502
178.000	162.512	79.995	19.996	100.995	19.944	3.552	0.513
180.000	163.431	79.995	19.996	100.986	19.947	3.357	0.472
182.000	164.421	79.997	19.997	100.987	19.947	3.346	0.517
184.000	165.378	79.996	19.996	100.992	19.947	3.329	0.502
186.000	166.412	79.995	19.997	100.987	19.948	3.289	0.498
188.000	167.408	79.995	19.996	100.987	19.944	3.543	0.495
190.000	168.391	79.995	19.996	100.986	19.946	3.443	0.476
192.000	169.369	79.995	19.997	100.983	19.944	3.526	0.492
194.000	170.392	79.995	19.997	100.985	19.947	3.381	0.515
196.000	171.364	79.994	19.998	100.987	19.945	3.479	0.497
198.000	172.328	79.994	19.997	100.987	19.943	3.630	0.481
200.000	173.353	79.994	19.996	100.987	19.940	3.835	0.503
202.000	174.340	79.994	19.998	100.991	19.938	3.948	0.494
204.000	175.336	79.996	19.998	100.987	19.939	3.906	0.524
206.000	176.302	79.997	19.997	100.985	19.940	3.857	0.498
208.000	177.274	79.998	19.996	100.983	19.941	3.794	0.485
210.000	178.227	79.997	19.997	100.979	19.943	3.655	0.496
212.000	179.225	79.997	19.998	100.976	19.942	3.683	0.490
214.000	180.204	79.997	19.997	100.981	19.941	3.729	0.485
216.000	181.255	79.998	19.996	100.981	19.938	3.932	0.503
218.000	182.226	79.997	19.995	100.976	19.940	3.829	0.509
220.000	183.209	79.997	19.996	100.974	19.942	3.712	0.476
222.000	184.252	79.997	19.997	100.977	19.940	3.810	0.515
224.000	185.273	79.998	19.996	100.980	19.937	4.053	0.526
226.000	186.331	79.998	19.996	100.961	19.938	3.954	0.544
228.000	187.322	79.999	19.996	100.953	19.937	4.009	0.507
230.000	188.336	79.998	19.995	100.955	19.939	3.925	0.530
232.000	189.281	79.999	19.996	100.951	19.935	4.179	0.512
234.000	190.293	79.999	19.995	100.965	19.936	4.069	0.515
236.000	191.245	79.999	19.996	100.954	19.934	4.216	0.506
238.000	192.253	79.998	19.996	100.949	19.935	4.143	0.474
240.000	193.274	79.997	19.996	100.956	19.937	4.019	0.497
242.000	194.230	79.996	19.994	100.961	19.933	4.303	0.504
244.000	195.199	79.995	19.995	100.955	19.929	4.596	0.507
246.000	196.156	79.995	19.995	100.951	19.931	4.444	0.483
248.000	197.165	79.996	19.996	100.952	19.931	4.436	0.504
250.000	198.083	79.996	19.995	100.945	19.931	4.475	0.438
252.000	199.039	79.996	19.995	100.943	19.930	4.479	0.502
254.000	199.989	79.995	19.995	100.946	19.932	4.403	0.468
256.001	200.956	79.996	19.996	100.947	19.929	4.564	0.453
258.000	201.906	79.996	19.996	100.952	19.930	4.503	0.480
260.000	202.847	79.996	19.997	100.948	19.923	4.976	0.505
262.000	203.812	79.995	19.996	100.955	19.926	4.787	0.482
264.000	204.752	79.995	19.995	100.949	19.924	4.925	0.466
266.000	205.726	79.995	19.996	100.947	19.920	5.165	0.496
268.001	206.668	79.995	19.997	100.947	19.918	5.324	0.478
270.000	207.618	79.996	19.997	100.950	19.918	5.322	0.488
272.000	208.563	79.996	19.996	100.951	19.918	5.337	0.480
274.000	209.523	79.995	19.996	100.953	19.916	5.476	0.469
276.000	210.479	79.996	19.996	100.946	19.916	5.479	0.491
278.000	211.438	79.996	19.997	100.947	19.915	5.567	0.490
280.000	212.364	79.996	19.995	100.944	19.910	5.869	0.451
282.000	213.330	79.997	19.996	100.945	19.907	6.100	0.485
284.000	214.320	79.998	19.996	100.943	19.905	6.206	0.487
286.000	215.283	79.998	19.997	100.944	19.903	6.374	0.490
288.000	216.261	79.997	19.997	100.952	19.904	6.265	0.502
290.000	217.203	79.998	19.998	100.946	19.898	6.709	0.493
292.000	218.225	79.996	19.997	100.949	19.898	6.673	0.521
294.000	219.167	79.998	19.997	100.943	19.897	6.779	0.509
296.000	220.147	79.997	19.997	100.943	19.893	7.057	0.484
298.000	221.092	79.997	19.997	100.940	19.897	6.742	0.488
300.000	222.075	79.997	19.995	100.951	19.892	7.137	0.504
302.000	223.099	79.996	19.997	100.957	19.889	7.338	0.483
304.000	224.060	79.995	19.996	100.957	19.890	7.284	0.492
306.000	225.080	79.996	19.996	100.951	19.885	7.579	0.502
308.000	226.105	79.998	19.995	100.951	19.884	7.677	0.501
310.000	227.115	79.997	19.996	100.955	19.884	7.633	0.508
312.000	228.139	80.000	19.996	100.955	19.882	7.773	0.528
314.000	229.173	79.998	19.995	100.944	19.877	8.174	0.532
316.000	230.164	79.998	19.995	100.944	19.879	8.018	0.490
318.000	231.231	79.999	19.995	100.946	19.874	8.376	0.504
320.000	232.193	79.998	19.995	100.944	19.870	8.598	0.496
322.000	233.203	79.995	19.995	100.944	19.866	8.863	0.508
324.000	234.237	79.996	19.995	100.944	19.868	8.733	0.524
326.000	235.255	79.995	19.996	100.947	19.864	9.008	0.539
328.000	236.259	79.995	19.995	100.947	19.864	9.056	0.510
330.000	237.287	79.995	19.996	100.948	19.864	9.022	0.521
332.000	238.314	79.996	19.996	100.947	19.859	9.372	0.502
334.000	239.284	79.997	19.995	100.947	19.857	9.537	0.472
336.000	240.311	79.997	19.996	100.946	19.856	9.572	0.531
338.000	241.285	79.996	19.995	100.944	19.854	9.723	0.488
340.000	242.335	79.998	19.995	100.944	19.847	10.167	0.529
342.000	243.382	79.997	19.994	100.942	19.846	10.232	0.526
344.000	244.385	79.997	19.996	100.940	19.844	10.425	0.498
346.000	245.331	79.997	19.996	100.940	19.839	10.775	0.495
348.000	246.358	79.996	19.996	100.943	19.837	10.879	0.503
350.000	247.354	79.996	19.995	100.943	19.838	10.792	0.479
352.000	248.350	79.997	19.996	100.938	19.834	11.070	0.494
354.000	249.319	79.997	19.996	100.943	19.835	11.007	0.497
356.000	250.331	79.996	19.997	100.943	19.837	10.886	0.499
358.000	251.291	79.995	19.997	100.945	19.832	11.244	0.447
360.000	252.293	79.996	19.997	100.943	19.831	11.257	0.476
362.000	253.255	79.996	19.996	100.941	19.833	11.176	0.457
364.000	254.258	79.997	19.996	100.942	19.827	11.574	0.486
366.000	255.238	79.997	19.996	100.941	19.829	11.405	0.492
368.000	256.261	79.998	19.995	100.939	19.823	11.839	0.519
370.000	257.241	79.997	19.996	100.939	19.824	11.766	0.479
372.000	258.176	79.997	19.997	100.943	19.821	11.984	0.509
374.000	259.199	79.998	19.996	100.945	19.823	11.861	0.503
376.000	260.166	79.997	19.996	100.944	19.820	12.067	0.493
378.000	261.177	79.996	19.997	100.944	19.819	12.140	0.486
380.000	262.151	79.997	19.997	100.946	19.817	12.241	0.501
382.000	263.097	79.996	19.997	100.957	19.816	12.309	0.473
384.000	264.120	79.996	19.997	100.950	19.816	12.312	0.532
386.000	265.117	79.997	19.997	100.954	19.815	12.398	0.486
388.000	266.112	79.996	19.997	100.956	19.812	12.624	0.493
390.000	267.088	79.996	19.997	100.965	19.812	12.620	0.471
392.001	268.064	79.997	19.996	100.965	19.809	12.809	0.494
394.000	269.031	79.997	19.996	100.962	19.809	12.796	0.484
396.000	270.014	79.999	19.995	100.961	19.805	13.052	0.514
398.000	271.093	79.999	19.995	100.972	19.804	13.165	0.502
400.000	272.100	79.999	19.995	100.967	19.801	13.321	0.505
402.000	273.119	79.998	19.996	100.973	19.798	13.566	0.506
404.000	274.138	79.996	19.995	100.957	19.796	13.676	0.489
406.000	275.161	79.995	19.996	100.978	19.793	13.905	0.487
408.000	276.161	79.997	19.996	100.978	19.791	14.044	0.515
410.000	277.188	79.997	19.995	100.980	19.787	14.296	0.538
412.000	278.161	79.997	19.996	100.976	19.784	14.518	0.481
414.000	279.190	79.996	19.996	100.972	19.786	14.359	0.510
416.000	280.170	79.996	19.996	100.983	19.784	14.486	0.478
418.000	281.227	79.997	19.996	100.981	19.777	14.973	0.554
420.002	282.184	79.997	19.996	100.983	19.775	15.124	0.514
422.000	283.213	79.997	19.996	100.982	19.773	15.255	0.527
424.000	284.234	79.998	19.997	100.980	19.769	15.522	0.512
426.000	285.273	79.996	19.996	100.984	19.763	15.973	0.479
428.000	286.321	79.996	19.996	100.990	19.760	16.149	0.523
430.000	287.371	79.996	19.996	100.989	19.757	16.398	0.537
432.000	288.344	79.995	19.995	100.993	19.749	16.919	0.497
434.000	289.354	79.996	19.996	100.987	19.747	17.042	0.492
436.000	290.390	79.996	19.998	100.997	19.738	17.673	0.508
438.000	291.392	79.994	19.997	101.008	19.734	17.947	0.522
440.000	292.400	79.995	19.996	101.021	19.730	18.204	0.499
442.000	293.438	79.995	19.998	101.011	19.728	18.374	0.505
444.000	294.411	79.997	19.997	101.023	19.721	18.817	0.516
446.000	295.446	79.997	19.996	101.022	19.713	19.359	0.519
448.001	296.441	79.998	19.996	101.020	19.707	19.815	0.521
450.000	297.427	79.998	19.996	101.020	19.699	20.372	0.503
452.000	298.438	79.997	19.995	101.016	19.698	20.388	0.495
454.000	299.431	79.997	19.997	101.022	19.690	20.955	0.512
456.001	300.471	79.997	19.997	101.022	19.682	21.502	0.520
458.000	301.394	79.996	19.995	101.023	19.679	21.703	0.450
460.000	302.421	79.996	19.995	101.023	19.671	22.240	0.486
462.000	303.396	79.998	19.996	101.029	19.665	22.661	0.488
464.000	304.388	79.997	19.996	101.026	19.655	23.388	0.509
466.000	305.338	79.997	19.996	101.025	19.647	23.915	0.470
468.000	306.326	79.997	19.997	101.036	19.639	24.449	0.487
470.000	307.228	79.998	19.997	101.036	19.632	24.912	0.416
472.000	308.176	79.998	19.996	101.037	19.625	25.402	0.555
474.000	309.400	79.998	19.996	101.041	19.619	25.804	0.785
476.000	310.205	79.999	19.997	101.047	19.613	26.224	0.640
478.000	311.060	79.998	19.997	101.052	19.602	26.997	0.510
480.000	312.125	79.999	19.997	101.054	19.595	27.482	0.504
482.000	313.125	79.998	19.997	101.057	19.589	27.908	0.495
484.000	314.097	79.997	19.997	101.056	19.580	28.549	0.457
486.000	315.046	79.995	19.996	101.057	19.571	29.142	0.480
488.000	316.021	79.997	19.997	101.062	19.558	30.050	0.483
490.000	317.029	79.997	19.997	101.074	19.550	30.543	0.509
492.000	317.970	79.998	19.996	101.078	19.541	31.191	0.493
494.000	318.978	79.997	19.997	101.097	19.531	31.871	0.496
496.000	319.951	79.997	19.996	101.100	19.518	32.799	0.538
498.000	320.928	79.995	19.997	101.098	19.509	33.419	0.499
500.000	321.971	79.997	19.997	101.101	19.498	34.129	0.526
502.000	322.983	79.996	19.996	101.101	19.493	34.527	0.471
504.000	323.983	79.997	19.996	101.107	19.480	35.418	0.482
506.000	325.018	79.997	19.997	101.108	19.468	36.233	0.484
508.000	326.066	79.997	19.997	101.103	19.456	37.013	0.537
510.000	327.065	79.997	19.996	101.126	19.444	37.891	0.499
512.000	328.137	79.996	19.996	101.135	19.432	38.676	0.510
514.000	329.170	79.996	19.996	101.133	19.418	39.623	0.516
516.001	330.251	79.994	19.996	101.135	19.405	40.512	0.503
518.000	331.293	79.995	19.996	101.142	19.391	41.490	0.541
520.000	332.308	79.993	19.996	101.143	19.382	42.144	0.516
522.000	333.445	79.996	19.995	101.146	19.365	43.294	0.563
524.000	334.448	79.997	19.996	101.161	19.350	44.339	0.512
526.000	335.512	79.998	19.996	101.162	19.336	45.302	0.499
528.000	336.534	79.997	19.995	101.164	19.324	46.142	0.497
530.000	337.595	80.000	19.996	101.165	19.311	46.997	0.506
532.000	338.680	79.998	19.995	101.168	19.292	48.280	0.525
534.000	339.722	79.998	19.996	101.174	19.279	49.172	0.541
536.000	340.771	79.998	19.996	101.178	19.262	50.400	0.496
538.000	341.794	79.999	19.996	101.180	19.247	51.394	0.533
540.000	342.869	79.998	19.996	101.179	19.233	52.342	0.527
542.000	343.868	79.997	19.996	101.178	19.220	53.226	0.499
544.001	344.930	79.998	19.997	101.186	19.205	54.315	0.530
546.000	345.935	79.997	19.997	101.192	19.190	55.286	0.500
548.000	346.954	79.997	19.997	101.200	19.180	56.034	0.488
550.000	347.993	79.997	19.996	101.207	19.165	57.045	0.515
552.000	349.018	79.997	19.997	101.194	19.149	58.143	0.528
554.000	350.028	79.999	19.995	101.206	19.134	59.178	0.492
556.000	351.069	79.998	19.997	101.193	19.122	59.962	0.517
558.000	352.080	79.999	19.995	101.208	19.112	60.688	0.494
560.000	353.154	79.999	19.996	101.206	19.105	61.130	0.512
562.000	354.132	79.998	19.997	101.201	19.098	61.619	0.487
564.000	355.111	79.997	19.996	101.205	19.085	62.528	0.504
566.000	356.081	79.995	19.997	101.203	19.077	63.081	0.461
568.000	357.137	79.995	19.997	101.192	19.073	63.298	0.507
570.000	358.108	79.996	19.996	101.203	19.074	63.280	0.486
572.000	359.125	79.996	19.997	101.186	19.074	63.266	0.501
574.000	360.101	79.997	19.997	101.187	19.075	63.162	0.483
576.000	361.123	79.997	19.997	101.180	19.083	62.625	0.517
578.000	362.093	79.997	19.996	101.176	19.088	62.231	0.477
580.000	363.021	79.996	19.996	101.166	19.099	61.499	0.484
582.000	364.049	79.997	19.996	101.146	19.108	60.857	0.512
584.000	365.038	79.996	19.995	101.141	19.128	59.509	0.499
586.000	366.011	79.997	19.995	101.128	19.147	58.152	0.483
588.000	366.999	79.996	19.996	101.108	19.167	56.772	0.501
590.000	368.033	79.996	19.996	101.106	19.196	54.798	0.535
592.000	369.004	79.995	19.995	101.084	19.220	53.167	0.487
594.000	369.980	79.997	19.996	101.065	19.250	51.116	0.481
596.000	370.992	79.996	19.996	101.056	19.283	48.829	0.486
598.000	371.973	79.996	19.996	101.040	19.315	46.616	0.503
600.000	372.998	79.997	19.997	101.021	19.355	43.878	0.530
602.000	374.002	79.995	19.996	101.009	19.396	41.054	0.507
604.000	375.012	79.996	19.996	100.988	19.435	38.378	0.488
606.000	376.026	79.996	19.996	100.964	19.478	35.472	0.524
608.000	377.017	79.997	19.996	100.943	19.518	32.718	0.492
610.000	378.040	79.998	19.996	100.944	19.560	29.822	0.483
612.000	379.059	79.997	19.995	100.931	19.600	27.071	0.478
614.000	380.086	79.998	19.995	100.915	19.637	24.529	0.497
616.000	381.110	79.999	19.995	100.907	19.672	22.153	0.508
618.000	382.128	79.998	19.996	100.913	19.705	19.900	0.535
620.000	383.139	79.997	19.996	100.905	19.735	17.869	0.528
622.000	384.196	79.996	19.996	100.904	19.765	15.794	0.520
624.000	385.205	79.998	19.997	100.901	19.789	14.144	0.489
626.000	386.209	79.997	19.996	100.885	19.810	12.697	0.512
628.000	387.211	79.998	19.996	100.903	19.828	11.504	0.526
630.000	388.228	79.996	19.996	100.895	19.846	10.252	0.487
632.000	389.181	79.998	19.996	100.904	19.855	9.619	0.456
634.000	390.243	79.998	19.998	100.900	19.868	8.771	0.518
636.000	391.269	79.998	19.997	100.904	19.872	8.471	0.518
638.000	392.350	79.999	19.996	100.903	19.880	7.919	0.504
640.000	393.353	79.998	19.995	100.904	19.883	7.695	0.525
642.000	394.353	79.997	19.996	100.903	19.888	7.374	0.513
644.000	395.451	79.997	19.996	100.906	19.891	7.173	0.565
646.000	396.474	79.995	19.996	100.914	19.894	6.952	0.524
648.000	397.487	79.994	19.996	100.907	19.899	6.620	0.529
650.000	398.495	79.997	19.996	100.911	19.900	6.572	0.480
652.000	399.569	79.996	19.996	100.912	19.901	6.474	0.534
654.000	400.570	79.995	19.998	100.913	19.904	6.290	0.465
656.001	401.617	79.996	19.996	100.911	19.900	6.592	0.505
658.000	402.657	79.996	19.998	100.909	19.899	6.633	0.514
660.000	403.704	79.996	19.997	100.906	19.900	6.546	0.521
662.000	404.785	79.996	19.997	100.909	19.903	6.385	0.520
664.000	405.840	79.997	19.997	100.904	19.901	6.507	0.548
666.000	406.869	79.995	19.997	100.905	19.901	6.526	0.551
668.000	407.866	79.996	19.997	100.907	19.902	6.437	0.507
670.000	408.892	79.997	19.996	100.904	19.902	6.433	0.477
672.000	409.929	79.997	19.997	100.904	19.901	6.481	0.526
674.000	410.912	79.997	19.996	100.906	19.903	6.355	0.500
676.000	412.018	79.997	19.996	100.904	19.902	6.402	0.532
678.000	412.986	79.997	19.996	100.905	19.904	6.270	0.478
680.000	414.011	79.995	19.995	100.905	19.907	6.051	0.471
682.000	415.022	79.997	19.996	100.908	19.905	6.200	0.512
684.000	416.031	79.997	19.996	100.904	19.906	6.172	0.503
686.000	417.048	79.997	19.995	100.905	19.909	5.925	0.508
688.000	418.091	79.997	19.996	100.905	19.907	6.118	0.536
690.000	419.074	79.999	19.997	100.904	19.909	5.946	0.504
692.000	420.103	79.998	19.996	100.903	19.910	5.896	0.526
694.000	421.120	80.000	19.996	100.905	19.907	6.076	0.521
696.000	422.133	79.999	19.996	100.905	19.912	5.774	0.484
698.000	423.138	79.998	19.995	100.903	19.908	6.024	0.501
700.000	424.145	79.996	19.997	100.904	19.908	6.016	0.527
702.001	425.154	79.997	19.996	100.903	19.913	5.681	0.518
704.000	426.122	79.997	19.995	100.901	19.908	5.992	0.489
706.000	427.115	79.998	19.997	100.906	19.912	5.731	0.520
708.000	428.123	79.998	19.996	100.905	19.915	5.557	0.469
710.000	429.120	79.997	19.995	100.906	19.915	5.540	0.476
712.000	430.099	79.999	19.995	100.907	19.915	5.527	0.486
714.000	431.064	79.997	19.995	100.905	19.915	5.560	0.467
716.000	432.091	79.998	19.995	100.904	19.916	5.449	0.542
718.000	433.059	79.998	19.996	100.902	19.916	5.484	0.478
720.000	434.054	79.998	19.996	100.900	19.914	5.588	0.504
722.000	435.060	79.998	19.997	100.904	19.918	5.360	0.504
724.000	436.038	79.999	19.997	100.891	19.919	5.295	0.503
726.001	437.010	79.997	19.996	100.896	19.920	5.223	0.481
728.000	437.961	79.996	19.998	100.896	19.919	5.265	0.472
730.000	438.963	79.997	19.997	100.898	19.921	5.095	0.510
732.000	439.921	79.997	19.998	100.889	19.922	5.075	0.498
734.000	440.880	79.996	19.996	100.895	19.922	5.075	0.485
736.000	441.857	79.997	19.997	100.898	19.919	5.260	0.474
738.000	442.816	79.996	19.997	100.894	19.922	5.090	0.501
740.000	443.750	79.997	19.997	100.883	19.921	5.151	0.465
742.000	444.722	79.997	19.997	100.894	19.922	5.044	0.475
744.000	445.656	79.997	19.996	100.904	19.922	5.084	0.464
746.000	446.621	79.996	19.997	100.897	19.922	5.083	0.483
748.000	447.562	79.999	19.997	100.899	19.925	4.871	0.496
750.000	448.501	79.995	19.998	100.900	19.923	4.960	0.465
752.000	449.482	79.997	19.999	100.900	19.920	5.166	0.477
754.000	450.434	79.997	19.999	100.899	19.923	4.992	0.489
756.000	451.487	79.996	19.999	100.902	19.923	4.983	0.516
758.000	452.474	79.996	19.997	100.894	19.922	5.029	0.513
760.000	453.493	79.995	19.997	100.896	19.924	4.894	0.544
762.001	454.488	79.995	19.996	100.906	19.925	4.862	0.513
764.000	455.485	79.997	19.996	100.905	19.924	4.949	0.519
766.000	456.494	79.996	19.996	100.906	19.927	4.722	0.499
768.000	457.467	79.995	19.996	100.904	19.929	4.607	0.489
770.000	458.482	79.998	19.996	100.906	19.931	4.423	0.516
772.000	459.547	79.997	19.996	100.906	19.933	4.293	0.516
774.000	460.550	79.998	19.996	100.906	19.932	4.397	0.494
776.000	461.603	79.998	19.995	100.906	19.928	4.638	0.529
778.000	462.601	79.996	19.995	100.904	19.931	4.415	0.496
780.000	463.647	79.997	19.995	100.903	19.932	4.360	0.485
782.000	464.663	79.996	19.996	100.897	19.934	4.264	0.525
784.000	465.728	79.998	19.996	100.902	19.935	4.195	0.517
786.000	466.758	79.999	19.996	100.899	19.939	3.878	0.523
788.000	467.783	79.998	19.997	100.892	19.934	4.214	0.532
790.000	468.768	79.997	19.998	100.886	19.939	3.916	0.491
792.000	469.857	79.997	19.996	100.895	19.939	3.917	0.545
794.000	470.870	80.000	19.996	100.897	19.940	3.819	0.500
796.000	471.917	79.998	19.995	100.886	19.940	3.847	0.499
798.000	472.933	80.000	19.996	100.900	19.940	3.813	0.522
800.000	473.998	80.000	19.995	100.899	19.941	3.779	0.565
802.001	475.003	79.999	19.996	100.893	19.945	3.478	0.536
804.000	476.038	79.998	19.994	100.884	19.945	3.476	0.488
806.000	477.047	79.999	19.996	100.900	19.948	3.259	0.493
808.000	478.107	79.997	19.998	100.888	19.950	3.172	0.542
810.000	479.101	79.997	19.997	100.871	19.951	3.102	0.487
812.000	480.097	79.996	19.997	100.873	19.949	3.234	0.501
814.000	481.128	79.997	19.996	100.874	19.953	2.925	0.480
816.000	482.101	79.996	19.997	100.874	19.955	2.767	0.494
818.000	483.107	79.995	19.997	100.878	19.954	2.843	0.478
820.001	484.097	79.997	19.997	100.872	19.955	2.773	0.503
822.001	485.103	79.997	19.996	100.881	19.954	2.884	0.495
824.000	486.114	79.996	19.996	100.897	19.956	2.721	0.508
826.000	487.074	79.996	19.997	100.898	19.958	2.599	0.478
828.000	488.115	79.997	19.996	100.886	19.955	2.808	0.536
830.000	489.111	79.997	19.996	100.892	19.961	2.356	0.528
832.000	490.139	79.997	19.996	100.904	19.957	2.656	0.520
834.000	491.098	79.994	19.997	100.904	19.960	2.476	0.493
836.000	492.139	79.995	19.997	100.903	19.957	2.671	0.499
838.000	493.218	79.995	19.997	100.901	19.960	2.491	0.513
840.000	494.290	79.995	19.997	100.900	19.958	2.623	0.529
842.000	495.347	79.994	19.997	100.898	19.959	2.534	0.532
844.000	496.357	79.992	19.998	100.900	19.963	2.221	0.491
846.000	497.404	79.995	19.998	100.896	19.965	2.123	0.512
848.000	498.455	79.997	19.997	100.899	19.961	2.402	0.508
850.000	499.504	79.995	19.998	100.898	19.964	2.202	0.556
852.000	500.575	79.999	19.997	100.902	19.964	2.173	0.571
854.000	501.637	79.999	19.997	100.900	19.964	2.163	0.518
856.000	502.682	79.998	19.995	100.893	19.966	2.058	0.508
858.000	503.792	79.998	19.996	100.901	19.962	2.343	0.532
860.000	504.870	79.999	19.996	100.899	19.964	2.174	0.532
862.000	505.942	79.998	19.996	100.901	19.966	2.062	0.527
864.000	507.050	79.998	19.996	100.899	19.967	1.969	0.556
866.000	508.096	79.999	19.997	100.896	19.965	2.093	0.533
868.000	509.227	79.998	19.997	100.896	19.967	1.973	0.553
870.000	510.275	79.996	19.995	100.894	19.967	1.947	0.533
872.000	511.377	79.999	19.997	100.901	19.969	1.826	0.543
874.000	512.431	79.999	19.996	100.898	19.971	1.721	0.539
876.000	513.554	80.000	19.996	100.901	19.968	1.943	0.547
878.000	514.619	79.998	19.996	100.900	19.969	1.830	0.558
880.000	515.720	79.998	19.997	100.898	19.971	1.737	0.560
882.000	516.795	80.000	19.996	100.900	19.971	1.715	0.527
884.000	517.911	79.997	19.995	100.898	19.969	1.862	0.530
886.000	518.991	79.998	19.997	100.894	19.970	1.767	0.547
888.000	520.122	79.996	19.995	100.905	19.973	1.569	0.571
890.000	521.144	79.997	19.996	100.899	19.968	1.904	0.528
892.000	522.251	79.996	19.995	100.900	19.970	1.765	0.549
894.000	523.350	79.998	19.997	100.904	19.970	1.800	0.552
896.000	524.447	79.997	19.997	100.905	19.973	1.570	0.577
898.000	525.513	79.994	19.995	100.904	19.970	1.797	0.538
900.000	526.596	79.997	19.997	100.904	19.971	1.700	0.511
902.000	527.698	79.995	19.996	100.901	19.970	1.786	0.558
904.001	528.739	79.996	19.997	100.895	19.971	1.715	0.532
906.000	529.831	79.995	19.997	100.880	19.969	1.847	0.530
908.000	530.875	79.996	19.997	100.896	19.968	1.934	0.519
910.000	531.989	79.997	19.998	100.897	19.968	1.928	0.548
912.000	533.025	79.997	19.997	100.904	19.967	1.961	0.532
914.000	534.082	79.997	19.996	100.902	19.971	1.721	0.491
916.000	535.164	79.994	19.997	100.895	19.969	1.835	0.512
918.000	536.239	79.996	19.996	100.900	19.971	1.685	0.525
920.000	537.275	79.994	19.996	100.901	19.966	2.049	0.521
922.000	538.310	79.997	19.997	100.898	19.968	1.911	0.513
924.000	539.371	79.994	19.997	100.895	19.967	1.963	0.537
926.000	540.390	79.995	19.996	100.896	19.972	1.639	0.507
928.000	541.419	79.995	19.997	100.897	19.970	1.747	0.508
930.000	542.450	79.997	19.998	100.899	19.972	1.632	0.520
932.000	543.454	79.996	19.998	100.900	19.970	1.782	0.471
934.000	544.421	79.996	19.998	100.893	19.969	1.867	0.461
936.000	545.469	79.997	19.997	100.888	19.976	1.376	0.514
938.000	546.465	79.996	19.997	100.901	19.969	1.863	0.516
940.000	547.472	79.998	19.998	100.900	19.973	1.574	0.493
942.000	548.523	79.998	19.998	100.899	19.971	1.689	0.506
944.000	549.471	79.998	19.997	100.896	19.975	1.402	0.485
946.000	550.451	79.998	19.995	100.899	19.971	1.704	0.489
948.000	551.462	79.997	19.995	100.896	19.972	1.649	0.498
950.000	552.453	79.998	19.997	100.898	19.974	1.500	0.478
952.000	553.431	79.997	19.995	100.904	19.973	1.573	0.479
954.000	554.488	79.998	19.995	100.899	19.968	1.937	0.510
956.000	555.532	79.998	19.995	100.904	19.969	1.815	0.510
958.000	556.481	79.999	19.995	100.906	19.970	1.741	0.477
960.000	557.470	79.999	19.995	100.906	19.970	1.806	0.502
962.000	558.521	79.999	19.996	100.905	19.972	1.662	0.501
964.000	559.570	79.998	19.995	100.904	19.970	1.745	0.553
966.000	560.532	79.998	19.996	100.904	19.972	1.637	0.467
968.000	561.551	79.996	19.996	100.904	19.971	1.673	0.514
970.000	562.553	79.997	19.995	100.904	19.971	1.686	0.498
972.000	563.568	79.997	19.996	100.906	19.970	1.741	0.513
974.000	564.528	79.996	19.995	100.909	19.970	1.749	0.493
976.000	565.560	79.997	19.996	100.907	19.973	1.563	0.492
978.000	566.528	79.997	19.995	100.907	19.969	1.869	0.483
980.000	567.510	79.999	19.996	100.910	19.969	1.856	0.479
982.000	568.540	79.997	19.995	100.903	19.968	1.913	0.510
984.000	569.566	79.996	19.996	100.905	19.968	1.917	0.508
986.000	570.539	79.998	19.995	100.904	19.974	1.497	0.491
988.000	571.514	79.998	19.996	100.903	19.973	1.537	0.498
990.000	572.513	79.999	19.996	100.902	19.971	1.682	0.448
992.000	573.541	79.997	19.996	100.902	19.970	1.747	0.494
994.000	574.556	79.995	19.995	100.897	19.971	1.674	0.511
996.000	575.539	79.998	19.998	100.902	19.975	1.441	0.479
998.000	576.546	79.996	19.998	100.903	19.973	1.576	0.488
1000.000	577.564	79.997	19.997	100.902	19.971	1.737	0.515
1002.000	578.529	79.996	19.997	100.902	19.970	1.741	0.494
1004.000	579.528	79.999	19.998	100.903	19.972	1.667	0.487
1006.000	580.503	79.998	19.997	100.902	19.971	1.723	0.509
1008.000	581.463	79.996	19.997	100.903	19.971	1.680	0.500
1010.000	582.472	79.997	19.997	100.900	19.972	1.669	0.517
1012.000	583.437	79.999	19.998	100.901	19.971	1.706	0.491
1014.000	584.417	79.998	19.997	100.904	19.975	1.417	0.515
1016.000	585.411	79.997	19.997	100.904	19.974	1.526	0.503
1018.000	586.402	79.996	19.997	100.904	19.971	1.734	0.499
1020.000	587.406	79.996	19.996	100.905	19.969	1.830	0.495
1022.000	588.407	79.998	19.997	100.904	19.967	1.975	0.490
1024.000	589.413	79.996	19.996	100.903	19.972	1.608	0.475
1026.000	590.451	79.995	19.997	100.904	19.970	1.769	0.490
1028.000	591.502	79.997	19.998	100.903	19.970	1.750	0.524
1030.000	592.526	79.997	19.998	100.912	19.971	1.684	0.539
1032.000	593.522	79.994	19.997	100.907	19.974	1.515	0.495
1034.000	594.592	79.997	19.996	100.914	19.968	1.936	0.497
1036.000	595.631	79.998	19.994	100.906	19.966	2.026	0.516
1038.000	596.686	79.998	19.996	100.905	19.968	1.936	0.516
1040.000	597.682	80.000	19.995	100.904	19.968	1.910	0.500
1042.000	598.697	79.999	19.994	100.904	19.965	2.091	0.497
1044.000	599.708	79.997	19.996	100.902	19.966	2.025	0.483
1046.000	600.701	79.997	19.997	100.902	19.973	1.587	0.522
1048.000	601.689	79.999	19.996	100.902	19.971	1.682	0.490
1050.001	602.675	79.994	19.997	100.902	19.970	1.752	0.510
1052.000	603.703	79.997	19.997	100.902	19.970	1.776	0.530
1054.000	604.712	79.998	19.996	100.908	19.970	1.789	0.515
1056.002	605.716	79.995	19.995	100.907	19.970	1.780	0.496
1058.000	606.755	79.995	19.997	100.901	19.967	1.950	0.501
1060.000	607.831	79.995	19.995	100.901	19.972	1.665	0.540
1062.000	608.844	79.995	19.996	100.901	19.973	1.550	0.522
1064.000	609.903	79.998	19.997	100.901	19.971	1.724	0.539
1066.000	610.932	79.997	19.995	100.903	19.969	1.871	0.540
1068.001	611.961	80.000	19.996	100.902	19.971	1.737	0.512
1070.000	612.959	79.996	19.996	100.906	19.969	1.865	0.511
1072.000	614.051	79.999	19.995	100.903	19.970	1.765	0.533
1074.000	615.091	79.997	19.996	100.903	19.965	2.147	0.519
1076.000	616.110	79.995	19.996	100.903	19.968	1.902	0.501
1078.000	617.161	79.996	19.996	100.905	19.969	1.871	0.509
1080.000	618.183	79.995	19.996	100.906	19.963	2.249	0.512
1082.000	619.251	79.996	19.997	100.905	19.970	1.765	0.511
1084.000	620.209	79.996	19.998	100.906	19.970	1.806	0.490
1086.000	621.252	79.995	19.997	100.906	19.969	1.839	0.522
1088.001	622.191	79.996	19.997	100.904	19.967	1.975	0.499
1090.001	623.206	79.995	19.997	100.906	19.966	2.038	0.510
1092.001	624.143	79.997	19.995	100.903	19.970	1.760	0.470
1094.000	625.155	79.996	19.995	100.908	19.971	1.725	0.495
1096.000	626.110	79.996	19.995	100.907	19.968	1.919	0.505
1098.000	627.077	79.996	19.995	100.908	19.972	1.651	0.480
1100.000	628.021	79.997	19.995	100.908	19.969	1.873	0.473
1102.000	628.963	79.996	19.995	100.906	19.965	2.141	0.491
1104.000	629.934	79.996	19.995	100.908	19.967	1.951	0.494
1106.000	630.917	79.996	19.996	100.911	19.970	1.775	0.492
1108.000	631.865	79.997	19.997	100.912	19.970	1.749	0.488
1110.000	632.801	79.995	19.996	100.913	19.966	2.080	0.459
1112.000	633.797	79.995	19.996	100.915	19.965	2.092	0.489
1114.000	634.834	79.996	19.998	100.909	19.968	1.886	0.494
1116.000	635.839	79.998	19.995	100.921	19.969	1.827	0.495
1118.000	636.876	79.998	19.996	100.918	19.968	1.931	0.515
1120.001	637.862	79.999	19.996	100.906	19.970	1.777	0.485
1122.000	638.893	79.999	19.996	100.929	19.964	2.209	0.478
1124.000	639.936	79.999	19.996	100.935	19.968	1.879	0.523
1126.000	641.006	80.000	19.996	100.938	19.967	2.009	0.545
1128.000	642.095	79.996	19.997	100.940	19.968	1.896	0.524
1130.000	643.182	79.997	19.995	100.925	19.965	2.114	0.536
1132.000	644.367	79.997	19.996	100.925	19.965	2.098	0.609
1134.000	645.484	79.996	19.997	100.941	19.965	2.109	0.570
1136.000	646.600	80.000	19.996	100.940	19.965	2.137	0.565
1138.000	647.751	79.997	19.996	100.943	19.965	2.092	0.567
1140.000	648.914	79.997	19.996	100.948	19.967	2.003	0.564
1142.000	650.082	79.997	19.996	100.946	19.965	2.140	0.573
1144.000	651.305	79.998	19.996	100.942	19.969	1.855	0.616
1146.000	652.446	79.996	19.996	100.943	19.968	1.894	0.568
1148.000	653.599	79.998	19.997	100.946	19.964	2.179	0.576
1150.000	654.791	79.997	19.995	100.945	19.969	1.849	0.582
1152.000	655.957	79.995	19.996	100.944	19.967	1.955	0.626
1154.000	657.157	79.997	19.996	100.943	19.967	2.013	0.593
1156.000	658.318	79.996	19.995	100.942	19.967	1.968	0.621
1158.000	659.506	79.998	19.996	100.944	19.963	2.257	0.568
1160.000	660.636	79.996	19.996	100.951	19.965	2.140	0.575
1162.000	661.768	79.997	19.996	100.950	19.964	2.153	0.562
1164.000	662.921	79.997	19.995	100.952	19.961	2.365	0.538
1166.000	664.059	79.996	19.995	100.948	19.963	2.257	0.569
1168.000	665.212	79.997	19.997	100.950	19.962	2.340	0.575
1170.000	666.381	79.998	19.995	100.948	19.958	2.567	0.588
1172.000	667.499	79.997	19.994	100.945	19.963	2.241	0.566
1174.001	668.615	79.998	19.996	100.944	19.963	2.278	0.570
1176.001	669.792	79.999	19.996	100.949	19.963	2.280	0.606
1178.000	670.889	79.998	19.996	100.945	19.967	1.959	0.547
1180.001	671.996	79.998	19.995	100.950	19.966	2.031	0.558
1182.000	673.129	79.997	19.997	100.954	19.965	2.141	0.539
1184.000	674.229	79.997	19.996	100.961	19.960	2.493	0.568
1186.000	675.376	79.996	19.996	100.969	19.960	2.476	0.572
1188.000	676.509	79.998	19.996	100.961	19.960	2.447	0.589
1190.000	677.563	79.997	19.997	100.951	19.965	2.118	0.545
1192.000	678.678	79.998	19.995	100.959	19.962	2.335	0.588
1194.000	679.714	79.998	19.997	100.957	19.963	2.227	0.522
1196.000	680.768	79.997	19.997	100.955	19.959	2.550	0.498
1198.000	681.844	79.998	19.996	100.966	19.961	2.385	0.534
1200.000	682.872	79.998	19.997	100.972	19.957	2.643	0.527
1202.000	683.946	79.999	19.996	100.960	19.958	2.571	0.533
1204.000	685.013	79.998	19.997	100.955	19.958	2.624	0.552
1206.000	686.087	79.998	19.996	100.948	19.960	2.480	0.547
1208.000	687.117	79.996	19.997	100.954	19.956	2.699	0.537
1210.000	688.127	79.996	19.997	100.965	19.958	2.610	0.480
1212.000	689.141	79.995	19.997	100.977	19.957	2.647	0.497
1214.000	690.169	79.994	19.996	100.966	19.960	2.482	0.515
1216.000	691.220	79.995	19.996	100.970	19.956	2.758	0.518
1218.001	692.229	79.996	19.996	100.976	19.957	2.643	0.532
1220.000	693.303	79.995	19.998	100.977	19.956	2.760	0.554
1222.000	694.296	79.995	19.995	100.972	19.956	2.725	0.522
1224.000	695.325	79.996	19.995	100.974	19.956	2.752	0.525
1226.000	696.343	79.996	19.994	100.982	19.951	3.058	0.480
1228.000	697.364	79.996	19.997	100.982	19.956	2.756	0.498
1230.000	698.386	79.996	19.996	100.983	19.953	2.904	0.520
1232.000	699.388	79.997	19.996	100.977	19.957	2.650	0.505
1234.000	700.372	79.996	19.995	100.967	19.956	2.723	0.523
1236.000	701.372	79.997	19.996	100.969	19.955	2.801	0.501
1238.000	702.367	79.996	19.997	100.972	19.957	2.695	0.487
1240.000	703.358	79.996	19.996	100.971	19.955	2.774	0.479
1242.001	704.414	79.994	19.995	100.970	19.957	2.659	0.508
1244.000	705.378	79.994	19.996	100.961	19.956	2.713	0.490
1246.000	706.372	79.996	19.996	100.965	19.960	2.463	0.493
1248.000	707.413	79.997	19.996	100.959	19.953	2.965	0.504
1250.001	708.403	79.997	19.996	100.946	19.958	2.577	0.493
1252.000	709.454	79.998	19.994	100.958	19.956	2.763	0.508
1254.000	710.413	79.997	19.996	100.949	19.951	3.079	0.490
1256.000	711.451	79.998	19.996	100.949	19.956	2.727	0.509
1258.000	712.391	80.000	19.996	100.943	19.957	2.658	0.480
1260.000	713.418	79.998	19.997	100.944	19.961	2.401	0.499
1262.000	714.476	79.997	19.995	100.940	19.960	2.462	0.530
1264.000	715.456	79.998	19.996	100.935	19.965	2.088	0.530
1266.000	716.491	79.997	19.996	100.917	19.957	2.630	0.530
1268.000	717.484	79.998	19.997	100.912	19.966	2.014	0.498
1270.000	718.511	79.996	19.995	100.919	19.961	2.367	0.522
1272.001	719.546	79.998	19.997	100.918	19.958	2.606	0.522
1274.001	720.502	79.997	19.995	100.911	19.965	2.127	0.498
1276.001	721.521	79.998	19.996	100.909	19.962	2.308	0.527
1278.000	722.468	79.999	19.996	100.919	19.958	2.577	0.508
1280.001	723.496	79.998	19.996	100.906	19.957	2.639	0.499
1282.000	724.516	80.000	19.996	100.910	19.965	2.128	0.515
1284.000	725.485	80.001	19.996	100.906	19.969	1.819	0.490
1286.001	726.493	79.998	19.995	100.917	19.964	2.158	0.504
1288.001	727.470	79.998	19.996	100.905	19.963	2.269	0.469
1290.000	728.428	79.996	19.996	100.902	19.966	2.069	0.484
1292.000	729.428	79.995	19.996	100.904	19.967	1.978	0.463
1294.000	730.411	79.996	19.996	100.906	19.961	2.399	0.475
1296.000	731.411	79.994	19.997	100.908	19.961	2.406	0.485
1298.001	732.424	79.996	19.998	100.909	19.965	2.112	0.516
1300.001	733.388	79.997	19.996	100.907	19.968	1.912	0.477
1302.000	734.395	79.996	19.996	100.909	19.962	2.312	0.514
1304.000	735.396	79.996	19.995	100.901	19.965	2.108	0.498
1306.000	736.392	79.995	19.995	100.905	19.966	2.039	0.507
1308.000	737.344	79.997	19.996	100.909	19.961	2.367	0.516
1310.000	738.353	79.997	19.996	100.907	19.969	1.819	0.463
1312.001	739.359	79.997	19.996	100.908	19.970	1.778	0.493
1314.000	740.302	79.998	19.996	100.916	19.965	2.127	0.496
1316.000	741.319	79.998	19.996	100.919	19.970	1.795	0.510
1318.000	742.319	79.997	19.996	100.904	19.964	2.193	0.517
1320.000	743.327	79.996	19.996	100.903	19.968	1.886	0.529
1321.000	743.812	79.998	19.997	100.905	19.966	2.040	0.488