File: 01_Data/Wood_Stud/STA/N2/10K_min/Wood_Stud_STA_N2_10KData_220126_R2.csv
##Temp./Â°C,Time/min,Mass loss(subtr.2)/mg,DSC(subtr.2)/(mW/mg),Sensit./(uV/mW)
49.365,10.01,-0.02533,0.004156476,1.07447
50.065,10.7609,-0.0256111,0.02913464,1.07442
50.765,10.96267,-0.02851311,0.04982803,1.07437
51.465,11.11536,-0.02848969,0.06871581,1.07432
52.165,11.24434,-0.02873347,0.08686498,1.07427
52.865,11.3596,-0.0274281,0.09545629,1.07421
53.565,11.46589,-0.02899546,0.10617,1.07416
54.265,11.56602,-0.02814046,0.11635,1.0741
54.965,11.66077,-0.02743018,0.12417,1.07405
55.665,11.75178,-0.02914978,0.13298,1.07399
56.365,11.8406,-0.02928841,0.13923,1.07393
57.065,11.9268,-0.03023613,0.14762,1.07387
57.765,12.0107,-0.03091746,0.15249,1.07381
58.465,12.09273,-0.03035568,0.15812,1.07375
59.165,12.17428,-0.02889316,0.16417,1.07368
59.865,12.2555,-0.02905021,0.1656,1.07362
60.565,12.3352,-0.03001957,0.16901,1.07355
61.265,12.41413,-0.02873552,0.17477,1.07349
61.965,12.49235,-0.02905171,0.176,1.07342
62.665,12.56987,-0.02872919,0.17959,1.07335
63.365,12.6469,-0.02954361,0.182,1.07328
64.065,12.72379,-0.02919925,0.1848,1.07321
64.765,12.8003,-0.02917917,0.1876,1.07314
65.465,12.87648,-0.03151278,0.18868,1.07306
66.165,12.95246,-0.03059365,0.19214,1.07299
66.865,13.02775,-0.03050539,0.1955,1.07291
67.565,13.1028,-0.03110362,0.19694,1.07283
68.265,13.17796,-0.0318101,0.19753,1.07276
68.965,13.25324,-0.03189209,0.19911,1.07268
69.665,13.32836,-0.03045313,0.20188,1.0726
70.365,13.40316,-0.03206168,0.20193,1.07251
71.065,13.47802,-0.0331192,0.20416,1.07243
71.765,13.5526,-0.03268138,0.20523,1.07235
72.465,13.627,-0.03443875,0.20753,1.07226
73.165,13.7009,-0.03311947,0.21047,1.07218
73.865,13.7745,-0.03439046,0.21051,1.07209
74.565,13.848,-0.03361406,0.21495,1.072
75.265,13.9215,-0.03444002,0.21518,1.07191
75.965,13.99474,-0.03308658,0.2162,1.07182
76.665,14.0679,-0.03443972,0.21667,1.07173
77.365,14.14075,-0.03575463,0.22,1.07164
78.065,14.2135,-0.034847,0.2204,1.07154
78.765,14.2858,-0.03575098,0.22237,1.07145
79.465,14.35816,-0.03706502,0.22528,1.07135
80.165,14.43029,-0.03706523,0.22478,1.07125
80.865,14.50254,-0.03773689,0.22687,1.07115
81.565,14.5746,-0.03853973,0.22634,1.07105
82.265,14.6464,-0.03837146,0.22667,1.07095
82.965,14.7179,-0.03839003,0.22701,1.07085
83.665,14.78919,-0.03705574,0.22753,1.07075
84.365,14.8604,-0.03838958,0.22575,1.07064
85.065,14.9316,-0.03838974,0.22871,1.07054
85.765,15.0025,-0.03836356,0.22893,1.07043
86.465,15.0733,-0.03837042,0.22752,1.07032
87.165,15.1441,-0.03837695,0.22776,1.07022
87.865,15.21478,-0.03970357,0.2295,1.07011
88.565,15.28522,-0.03970203,0.22803,1.06999
89.265,15.3553,-0.03966116,0.2257,1.06988
89.965,15.4253,-0.04002408,0.22732,1.06977
90.665,15.495,-0.04102231,0.22597,1.06965
91.365,15.565,-0.04102,0.2254,1.06954
92.065,15.6351,-0.04102132,0.22618,1.06942
92.765,15.7051,-0.0416187,0.22375,1.0693
93.465,15.7748,-0.04033666,0.22156,1.06918
94.165,15.8439,-0.04101427,0.22186,1.06906
94.865,15.91346,-0.04233049,0.21916,1.06894
95.565,15.98325,-0.04233064,0.21877,1.06882
96.265,16.0524,-0.04363796,0.2178,1.0687
96.965,16.1219,-0.0423609,0.2168,1.06857
97.665,16.19076,-0.04365927,0.21562,1.06845
98.365,16.2605,-0.04365989,0.2141,1.06832
99.065,16.32969,-0.04299772,0.21273,1.06819
99.765,16.39914,-0.04260398,0.21261,1.06806
100.465,16.46821,-0.04364996,0.20789,1.06793
101.165,16.5371,-0.04365,0.20961,1.0678
101.865,16.60584,-0.04364772,0.21024,1.06767
102.565,16.6743,-0.04366082,0.20803,1.06754
103.265,16.74299,-0.0449582,0.20787,1.0674
103.965,16.81166,-0.04496,0.2053,1.06727
104.665,16.88052,-0.04496,0.20615,1.06713
105.365,16.9491,-0.04496024,0.20471,1.06699
106.065,17.01755,-0.0436456,0.20664,1.06685
106.765,17.08607,-0.0446409,0.20437,1.06671
107.465,17.15456,-0.04473694,0.20365,1.06657
108.165,17.22298,-0.04433714,0.20127,1.06643
108.865,17.29131,-0.04496992,0.19877,1.06628
109.565,17.35965,-0.04625321,0.20059,1.06614
110.265,17.4283,-0.04528411,0.19971,1.06599
110.965,17.49691,-0.04627971,0.20034,1.06585
111.665,17.5655,-0.04758798,0.19916,1.0657
112.365,17.634,-0.0475999,0.19965,1.06555
113.065,17.70243,-0.04645767,0.20278,1.0654
113.765,17.77103,-0.04629,0.19894,1.06525
114.465,17.8393,-0.04628995,0.19825,1.0651
115.165,17.9072,-0.0449913,0.19998,1.06494
115.865,17.97553,-0.04497013,0.20036,1.06479
116.565,18.04403,-0.04618219,0.19957,1.06463
117.265,18.11283,-0.04629491,0.19888,1.06447
117.965,18.18096,-0.04628709,0.20098,1.06432
118.665,18.24896,-0.04629,0.20098,1.06416
119.365,18.31718,-0.04633921,0.20126,1.064
120.065,18.38553,-0.04496977,0.19959,1.06384
120.765,18.45375,-0.04496477,0.19925,1.06367
121.465,18.522,-0.04628034,0.19936,1.06351
122.165,18.5901,-0.04628,0.20057,1.06335
122.865,18.65856,-0.04650427,0.20065,1.06318
123.565,18.72674,-0.04701449,0.19937,1.06301
124.265,18.79479,-0.0466069,0.20277,1.06285
124.965,18.86273,-0.04768747,0.20113,1.06268
125.665,18.93068,-0.04760014,0.2018,1.06251
126.365,18.99841,-0.04662489,0.20047,1.06234
127.065,19.06635,-0.04662,0.20397,1.06216
127.765,19.1343,-0.046623,0.20507,1.06199
128.465,19.20228,-0.04758876,0.20489,1.06182
129.165,19.2701,-0.04627203,0.2049,1.06164
129.865,19.33801,-0.0475996,0.2043,1.06146
130.565,19.40604,-0.0476,0.20587,1.06129
131.265,19.47394,-0.0476,0.2068,1.06111
131.965,19.5414,-0.04759999,0.20631,1.06093
132.665,19.60901,-0.04754024,0.20643,1.06075
133.365,19.67672,-0.04897297,0.20753,1.06057
134.065,19.7445,-0.04891022,0.20674,1.06038
134.765,19.81211,-0.04755794,0.20933,1.0602
135.465,19.87971,-0.04629136,0.2097,1.06001
136.165,19.94736,-0.04758643,0.20898,1.05983
136.865,20.01503,-0.0476,0.20864,1.05964
137.565,20.0827,-0.04759619,0.21087,1.05945
138.265,20.15018,-0.04892005,0.21009,1.05926
138.965,20.21771,-0.04815218,0.21194,1.05907
139.665,20.2851,-0.04758678,0.20955,1.05888
140.365,20.3527,-0.04628194,0.21081,1.05869
141.065,20.4204,-0.04759977,0.21091,1.05849
141.765,20.48801,-0.04891307,0.21001,1.0583
142.465,20.5555,-0.04759373,0.21183,1.0581
143.165,20.6231,-0.0476,0.20996,1.0579
143.865,20.6907,-0.04760007,0.21104,1.05771
144.565,20.75841,-0.04825753,0.21167,1.05751
145.265,20.82597,-0.04882406,0.21207,1.05731
145.965,20.8936,-0.04820839,0.21335,1.05711
146.665,20.96142,-0.04958461,0.21542,1.0569
147.365,21.02885,-0.04833064,0.2156,1.0567
148.065,21.09618,-0.04693978,0.21628,1.05649
148.765,21.16341,-0.04693998,0.2153,1.05629
149.465,21.2306,-0.04696349,0.2174,1.05608
150.165,21.2982,-0.04925206,0.21687,1.05587
150.865,21.3657,-0.05055894,0.21719,1.05567
151.565,21.43315,-0.04923316,0.21805,1.05546
152.265,21.50069,-0.04924,0.21951,1.05524
152.965,21.56795,-0.04924,0.21888,1.05503
153.665,21.63524,-0.04923337,0.21952,1.05482
154.365,21.70251,-0.04858045,0.218,1.05461
155.065,21.77001,-0.04858,0.21972,1.05439
155.765,21.83746,-0.04858032,0.22043,1.05417
156.465,21.90492,-0.04797173,0.2225,1.05396
157.165,21.97225,-0.0492499,0.22371,1.05374
157.865,22.0395,-0.04927731,0.22228,1.05352
158.565,22.10663,-0.04792998,0.22417,1.0533
159.265,22.17365,-0.04792495,0.22512,1.05308
159.965,22.24096,-0.04925023,0.22606,1.05285
160.665,22.30825,-0.0490457,0.22495,1.05263
161.365,22.37546,-0.04793012,0.22977,1.05241
162.065,22.4424,-0.04793,0.22812,1.05218
162.765,22.50956,-0.0479362,0.22848,1.05195
163.465,22.5768,-0.04924089,0.23078,1.05172
164.165,22.64387,-0.05054626,0.23247,1.0515
164.865,22.71098,-0.05056,0.23297,1.05127
165.565,22.77796,-0.05055997,0.23339,1.05103
166.265,22.84524,-0.05002204,0.23558,1.0508
166.965,22.91255,-0.05122038,0.23503,1.05057
167.665,22.97976,-0.04992444,0.23469,1.05034
168.365,23.04703,-0.04990998,0.23512,1.0501
169.065,23.1143,-0.04991,0.23506,1.04986
169.765,23.18153,-0.04990799,0.2346,1.04963
170.465,23.24869,-0.04924954,0.23683,1.04939
171.165,23.31545,-0.04924996,0.2381,1.04915
171.865,23.38243,-0.05064217,0.23893,1.04891
172.565,23.44926,-0.05122065,0.2397,1.04867
173.265,23.51621,-0.05086303,0.24092,1.04842
173.965,23.58319,-0.04979599,0.24009,1.04818
174.665,23.65021,-0.04990006,0.2438,1.04794
175.365,23.71726,-0.0512238,0.24351,1.04769
176.065,23.78429,-0.05122,0.24493,1.04744
176.765,23.851,-0.05122,0.24453,1.0472
177.465,23.9178,-0.05123242,0.2455,1.04695
178.165,23.9845,-0.05089155,0.24711,1.0467
178.865,24.05128,-0.05088836,0.24909,1.04645
179.565,24.11808,-0.05220927,0.24887,1.0462
180.265,24.185,-0.05230025,0.25033,1.04594
180.965,24.25212,-0.05094851,0.24927,1.04569
181.665,24.3193,-0.05122018,0.25162,1.04543
182.365,24.38637,-0.0518749,0.25057,1.04518
183.065,24.45327,-0.05187998,0.25047,1.04492
183.765,24.5203,-0.05189368,0.25349,1.04466
184.465,24.58719,-0.05253982,0.25272,1.0444
185.165,24.6541,-0.05125573,0.25373,1.04414
185.865,24.7209,-0.05123001,0.25532,1.04388
186.565,24.78766,-0.05175148,0.25426,1.04362
187.265,24.85472,-0.05188003,0.25361,1.04336
187.965,24.92182,-0.0518554,0.25553,1.04309
188.665,24.98891,-0.05252989,0.25632,1.04283
189.365,25.0557,-0.05302258,0.25713,1.04256
190.065,25.1225,-0.05254004,0.25866,1.0423
190.765,25.18923,-0.05254,0.25895,1.04203
191.465,25.25631,-0.05253982,0.25838,1.04176
192.165,25.32327,-0.05286057,0.26145,1.04149
192.865,25.3905,-0.0528694,0.26117,1.04122
193.565,25.45776,-0.05417604,0.26222,1.04094
194.265,25.52502,-0.0555024,0.26332,1.04067
194.965,25.59216,-0.05452348,0.26433,1.0404
195.665,25.6589,-0.05452,0.26444,1.04012
196.365,25.72567,-0.05452,0.26588,1.03985
197.065,25.7925,-0.05451979,0.26668,1.03957
197.765,25.85954,-0.05582972,0.26911,1.03929
198.465,25.92623,-0.05583386,0.26683,1.03901
199.165,25.99323,-0.05582,0.26922,1.03873
199.865,26.06,-0.05582,0.27058,1.03845
200.565,26.12694,-0.05581999,0.27114,1.03817
201.265,26.1938,-0.05591289,0.27067,1.03788
201.965,26.2607,-0.05716505,0.27179,1.0376
202.665,26.32746,-0.05714001,0.27341,1.03732
203.365,26.39423,-0.05714,0.27519,1.03703
204.065,26.46105,-0.05714,0.2749,1.03674
204.765,26.52798,-0.05714,0.27608,1.03645
205.465,26.595,-0.05714,0.27839,1.03616
206.165,26.66191,-0.05714001,0.27756,1.03587
206.865,26.72887,-0.05742305,0.2784,1.03558
207.565,26.79591,-0.0576941,0.27974,1.03529
208.265,26.8627,-0.05879866,0.28177,1.035
208.965,26.9293,-0.05978014,0.28109,1.0347
209.665,26.9961,-0.05977743,0.2821,1.03441
210.365,27.06305,-0.06011057,0.28494,1.03411
211.065,27.13,-0.06108998,0.28439,1.03382
211.765,27.19683,-0.0610552,0.28585,1.03352
212.465,27.2636,-0.06237307,0.28622,1.03322
213.165,27.33029,-0.06273,0.28759,1.03292
213.865,27.3971,-0.06273,0.28827,1.03262
214.565,27.4639,-0.06272999,0.28715,1.03232
215.265,27.5309,-0.06275222,0.28889,1.03201
215.965,27.59778,-0.06306021,0.29005,1.03171
216.665,27.6646,-0.06564957,0.29207,1.0314
217.365,27.73119,-0.06570799,0.29193,1.0311
218.065,27.7979,-0.06570098,0.29286,1.03079
218.765,27.8646,-0.06569957,0.29221,1.03048
219.465,27.93148,-0.06702456,0.29485,1.03018
220.165,27.9982,-0.06825861,0.29651,1.02987
220.865,28.06503,-0.06833002,0.29617,1.02955
221.565,28.13161,-0.06833004,0.29648,1.02924
222.265,28.19817,-0.06914553,0.29862,1.02893
222.965,28.2646,-0.06964999,0.29944,1.02862
223.665,28.3312,-0.06965,0.29982,1.0283
224.365,28.3979,-0.06983332,0.30044,1.02799
225.065,28.46453,-0.07096995,0.30097,1.02767
225.765,28.5313,-0.07213907,0.30201,1.02735
226.465,28.59783,-0.07359032,0.30215,1.02703
227.165,28.6644,-0.07300928,0.30331,1.02672
227.865,28.7309,-0.07559279,0.30638,1.0264
228.565,28.7973,-0.07557001,0.30402,1.02607
229.265,28.8638,-0.07557001,0.30497,1.02575
229.965,28.9306,-0.07595056,0.30722,1.02543
230.665,28.9974,-0.07820716,0.30717,1.0251
231.365,29.06411,-0.07722215,0.31004,1.02478
232.065,29.1304,-0.07853379,0.30957,1.02445
232.765,29.19691,-0.08057663,0.31069,1.02413
233.465,29.2637,-0.08179381,0.31204,1.0238
234.165,29.33035,-0.08181423,0.31272,1.02347
234.865,29.3973,-0.08312328,0.31308,1.02314
235.565,29.46407,-0.08445011,0.31425,1.02281
236.265,29.5311,-0.08577354,0.31498,1.02248
236.965,29.59784,-0.08706495,0.31533,1.02214
237.665,29.66436,-0.0885959,0.31669,1.02181
238.365,29.73122,-0.09036508,0.31989,1.02148
239.065,29.798,-0.09154158,0.31998,1.02114
239.765,29.86481,-0.09168372,0.31878,1.0208
240.465,29.93151,-0.09301787,0.32142,1.02047
241.165,29.99832,-0.09483799,0.31878,1.02013
241.865,30.06537,-0.09696324,0.32039,1.01979
242.565,30.13225,-0.09780201,0.32153,1.01945
243.265,30.1991,-0.10092,0.32418,1.01911
243.965,30.26592,-0.101,0.32472,1.01877
244.665,30.333,-0.10356,0.32346,1.01842
245.365,30.40005,-0.10639,0.32607,1.01808
246.065,30.467,-0.10771,0.32608,1.01774
246.765,30.53394,-0.10903,0.32633,1.01739
247.465,30.6008,-0.11179,0.32689,1.01704
248.165,30.66793,-0.11308,0.32712,1.0167
248.865,30.7346,-0.11434,0.32648,1.01635
249.565,30.80169,-0.11803,0.32699,1.016
250.265,30.86872,-0.11957,0.32609,1.01565
250.965,30.9362,-0.12198,0.32548,1.0153
251.665,31.0035,-0.12484,0.32837,1.01494
252.365,31.0707,-0.12768,0.32608,1.01459
253.065,31.13771,-0.13044,0.32929,1.01424
253.765,31.20441,-0.1326,0.32805,1.01388
254.465,31.2712,-0.13511,0.32706,1.01353
255.165,31.33817,-0.13784,0.32867,1.01317
255.865,31.40523,-0.14074,0.3288,1.01281
256.565,31.4723,-0.14386,0.32973,1.01245
257.265,31.5392,-0.1457,0.33,1.01209
257.965,31.6063,-0.15014,0.33238,1.01173
258.665,31.67322,-0.15415,0.33375,1.01137
259.365,31.7401,-0.15696,0.33465,1.01101
260.065,31.80694,-0.15867,0.33263,1.01065
260.765,31.8737,-0.16216,0.33576,1.01028
261.465,31.94042,-0.16796,0.3356,1.00992
262.165,32.00714,-0.17084,0.33842,1.00955
262.865,32.07396,-0.17534,0.3392,1.00919
263.565,32.14074,-0.17855,0.34245,1.00882
264.265,32.2076,-0.18302,0.34241,1.00845
264.965,32.27446,-0.18649,0.34295,1.00808
265.665,32.34129,-0.1902,0.3414,1.00771
266.365,32.40813,-0.19317,0.3487,1.00734
267.065,32.47484,-0.19649,0.3449,1.00697
267.765,32.5417,-0.2011,0.34555,1.0066
268.465,32.60857,-0.2051,0.34489,1.00622
269.165,32.67542,-0.21126,0.346,1.00585
269.865,32.74239,-0.21524,0.34653,1.00547
270.565,32.80928,-0.21908,0.34878,1.0051
271.265,32.87638,-0.22337,0.34823,1.00472
271.965,32.94334,-0.22971,0.3475,1.00434
272.665,33.01032,-0.23422,0.34757,1.00396
273.365,33.0773,-0.23988,0.35172,1.00358
274.065,33.14427,-0.24449,0.35185,1.0032
274.765,33.21139,-0.2499,0.35162,1.00282
275.465,33.2785,-0.25481,0.3532,1.00244
276.165,33.34574,-0.26061,0.35403,1.00205
276.865,33.4129,-0.26631,0.3559,1.00167
277.565,33.4797,-0.27221,0.35675,1.00128
278.265,33.54676,-0.27857,0.35928,1.0009
278.965,33.61368,-0.28427,0.36089,1.00051
279.665,33.68094,-0.29008,0.36186,1.00012
280.365,33.7479,-0.29597,0.36314,0.99974
281.065,33.81503,-0.30193,0.36488,0.99935
281.765,33.88193,-0.3077,0.36763,0.99896
282.465,33.94877,-0.31516,0.368,0.99856
283.165,34.01558,-0.32179,0.36911,0.99817
283.865,34.08253,-0.32826,0.37068,0.99778
284.565,34.14949,-0.33483,0.37195,0.99739
285.265,34.21648,-0.34184,0.37562,0.99699
285.965,34.2834,-0.34833,0.3757,0.9966
286.665,34.3502,-0.35661,0.376,0.9962
287.365,34.41703,-0.3635,0.37798,0.9958
288.065,34.48368,-0.37008,0.3778,0.9954
288.765,34.55064,-0.37893,0.38117,0.99501
289.465,34.61757,-0.38628,0.38101,0.99461
290.165,34.6849,-0.39412,0.38251,0.99421
290.865,34.75177,-0.40354,0.38597,0.9938
291.565,34.81875,-0.41219,0.38649,0.9934
292.265,34.8855,-0.42136,0.38849,0.993
292.965,34.9526,-0.42926,0.38919,0.99259
293.665,35.01988,-0.43817,0.39293,0.99219
294.365,35.08697,-0.44696,0.39562,0.99178
295.065,35.15403,-0.45768,0.39671,0.99138
295.765,35.22085,-0.46604,0.39842,0.99097
296.465,35.28781,-0.47558,0.40295,0.99056
297.165,35.3547,-0.48416,0.40654,0.99015
297.865,35.42179,-0.49396,0.40988,0.98974
298.565,35.48881,-0.50444,0.41145,0.98933
299.265,35.5558,-0.514,0.41354,0.98892
299.965,35.62254,-0.52477,0.417,0.98851
300.665,35.68938,-0.53427,0.42012,0.9881
301.365,35.75634,-0.54454,0.42262,0.98768
302.065,35.8233,-0.5544,0.4285,0.98727
302.765,35.8904,-0.56521,0.43198,0.98685
303.465,35.95752,-0.57785,0.43456,0.98644
304.165,36.02469,-0.58962,0.43637,0.98602
304.865,36.09171,-0.60164,0.44215,0.9856
305.565,36.15876,-0.61245,0.44639,0.98518
306.265,36.22591,-0.62571,0.44976,0.98476
306.965,36.29303,-0.63849,0.45458,0.98434
307.665,36.36019,-0.6495,0.45842,0.98392
308.365,36.42755,-0.66225,0.46077,0.9835
309.065,36.49491,-0.67579,0.46621,0.98308
309.765,36.56218,-0.68889,0.47117,0.98265
310.465,36.62895,-0.70286,0.47389,0.98223
311.165,36.69607,-0.71687,0.4791,0.9818
311.865,36.76325,-0.731,0.48426,0.98138
312.565,36.83083,-0.74412,0.48969,0.98095
313.265,36.89836,-0.75929,0.49441,0.98052
313.965,36.96588,-0.77491,0.49719,0.98009
314.665,37.03346,-0.79018,0.50288,0.97966
315.365,37.101,-0.80749,0.50759,0.97923
316.065,37.16834,-0.82268,0.5143,0.9788
316.765,37.23572,-0.83838,0.51653,0.97837
317.465,37.30308,-0.85338,0.51907,0.97794
318.165,37.3706,-0.87183,0.5247,0.97751
318.865,37.4381,-0.88768,0.52899,0.97707
319.565,37.50585,-0.90309,0.53431,0.97664
320.265,37.57346,-0.92265,0.53963,0.9762
320.965,37.64114,-0.9399,0.54306,0.97577
321.665,37.70882,-0.95692,0.54439,0.97533
322.365,37.77648,-0.9756,0.55072,0.97489
323.065,37.84402,-0.99238,0.55619,0.97445
323.765,37.91135,-1.00938,0.55973,0.97401
324.465,37.97888,-1.03003,0.56517,0.97357
325.165,38.0463,-1.04861,0.56808,0.97313
325.865,38.1138,-1.06744,0.57039,0.97269
326.565,38.1813,-1.08598,0.57331,0.97225
327.265,38.2489,-1.10596,0.57544,0.9718
327.965,38.31649,-1.12418,0.57783,0.97136
328.665,38.3838,-1.14363,0.57903,0.97091
329.365,38.45113,-1.16367,0.58284,0.97047
330.065,38.5184,-1.18318,0.5843,0.97002
330.765,38.58574,-1.20299,0.58759,0.96957
331.465,38.6532,-1.22247,0.58851,0.96913
332.165,38.72078,-1.24302,0.59179,0.96868
332.865,38.78841,-1.26393,0.59245,0.96823
333.565,38.85606,-1.28377,0.59463,0.96778
334.265,38.92341,-1.30433,0.59638,0.96733
334.965,38.99092,-1.3268,0.59733,0.96687
335.665,39.0578,-1.34589,0.60226,0.96642
336.365,39.12486,-1.36609,0.60143,0.96597
337.065,39.1917,-1.38628,0.60336,0.96551
337.765,39.25939,-1.40887,0.60495,0.96506
338.465,39.3275,-1.43036,0.60854,0.9646
339.165,39.39528,-1.45096,0.60884,0.96415
339.865,39.46302,-1.4717,0.61441,0.96369
340.565,39.53025,-1.49291,0.61722,0.96323
341.265,39.59776,-1.51381,0.61971,0.96277
341.965,39.6654,-1.53623,0.62183,0.96232
342.665,39.73322,-1.55922,0.62758,0.96186
343.365,39.8009,-1.5808,0.62697,0.96139
344.065,39.86847,-1.60207,0.63179,0.96093
344.765,39.93609,-1.6256,0.63741,0.96047
345.465,40.00362,-1.64696,0.64479,0.96001
346.165,40.07115,-1.67039,0.65076,0.95954
346.865,40.1387,-1.69213,0.65557,0.95908
347.565,40.2064,-1.71547,0.66332,0.95861
348.265,40.274,-1.73825,0.66911,0.95815
348.965,40.34166,-1.76194,0.68086,0.95768
349.665,40.4092,-1.78625,0.68362,0.95721
350.365,40.4768,-1.80959,0.69175,0.95675
351.065,40.54437,-1.83376,0.70199,0.95628
351.765,40.61195,-1.85906,0.71095,0.95581
352.465,40.67961,-1.88292,0.7195,0.95534
353.165,40.74735,-1.90817,0.72766,0.95487
353.865,40.81523,-1.93432,0.73497,0.95439
354.565,40.8832,-1.95922,0.74485,0.95392
355.265,40.951,-1.9847,0.75375,0.95345
355.965,41.01878,-2.01179,0.76485,0.95298
356.665,41.08648,-2.04142,0.7712,0.9525
357.365,41.15428,-2.06705,0.77785,0.95203
358.065,41.22208,-2.09307,0.78604,0.95155
358.765,41.28988,-2.12106,0.79472,0.95107
359.465,41.35779,-2.14908,0.80075,0.9506
360.165,41.42568,-2.17725,0.80729,0.95012
360.865,41.4936,-2.20501,0.81659,0.94964
361.565,41.5615,-2.23252,0.82095,0.94916
362.265,41.62921,-2.26095,0.8243,0.94868
362.965,41.69699,-2.2914,0.82713,0.9482
363.665,41.76461,-2.31845,0.82791,0.94772
364.365,41.83234,-2.34564,0.82858,0.94723
365.065,41.9,-2.37492,0.82668,0.94675
365.765,41.96784,-2.40507,0.82648,0.94627
366.465,42.03525,-2.43358,0.82017,0.94578
367.165,42.103,-2.46191,0.81618,0.9453
367.865,42.17072,-2.49215,0.80628,0.94481
368.565,42.2387,-2.5179,0.79739,0.94433
369.265,42.30637,-2.54534,0.78518,0.94384
369.965,42.3741,-2.57422,0.77073,0.94335
370.665,42.442,-2.60062,0.75454,0.94286
371.365,42.50991,-2.62586,0.73537,0.94237
372.065,42.57754,-2.65432,0.71772,0.94188
372.765,42.64499,-2.67677,0.69233,0.94139
373.465,42.71261,-2.70094,0.66949,0.9409
374.165,42.78027,-2.72565,0.64478,0.94041
374.865,42.84794,-2.74919,0.62012,0.93992
375.565,42.91552,-2.77137,0.58727,0.93942
376.265,42.98298,-2.79045,0.5558,0.93893
376.965,43.05046,-2.81064,0.52578,0.93843
377.665,43.11807,-2.8291,0.49284,0.93794
378.365,43.18553,-2.84722,0.45997,0.93744
379.065,43.253,-2.86316,0.425,0.93695
379.765,43.32015,-2.87941,0.38996,0.93645
380.465,43.3875,-2.89466,0.35672,0.93595
381.165,43.455,-2.90782,0.31852,0.93545
381.865,43.52257,-2.92187,0.28781,0.93495
382.565,43.59022,-2.93162,0.25502,0.93445
383.265,43.65761,-2.94199,0.22332,0.93395
383.965,43.7251,-2.95215,0.19131,0.93345
384.665,43.79248,-2.96071,0.1618,0.93295
385.365,43.86,-2.96898,0.13593,0.93245
386.065,43.92749,-2.97498,0.11128,0.93194
386.765,43.99507,-2.98222,0.08908785,0.93144
387.465,44.0626,-2.98853,0.0696248,0.93094
388.165,44.13033,-2.99468,0.05169773,0.93043
388.865,44.19787,-2.99849,0.03593698,0.92993
389.565,44.2657,-3.0006,0.02139112,0.92942
390.265,44.33352,-3.00495,0.01140847,0.92891
390.965,44.40153,-3.00874,0.002804782,0.9284
391.665,44.46911,-3.01246,-0.00588922,0.9279
392.365,44.53693,-3.01586,-0.01250032,0.92739
393.065,44.6049,-3.01878,-0.01993909,0.92688
393.765,44.67313,-3.0216,-0.02538448,0.92637
394.465,44.7407,-3.02408,-0.02892811,0.92586
395.165,44.8087,-3.02669,-0.03109195,0.92535
395.865,44.87676,-3.02823,-0.0360314,0.92483
396.565,44.94531,-3.03127,-0.04070444,0.92432
397.265,45.01343,-3.03329,-0.04261956,0.92381
397.965,45.0816,-3.0366,-0.04514374,0.92329
398.665,45.14974,-3.03972,-0.0452853,0.92278
399.365,45.21797,-3.04097,-0.05126428,0.92226
400.065,45.2864,-3.04282,-0.04972164,0.92175
400.765,45.35463,-3.04532,-0.05295815,0.92123
401.465,45.42288,-3.04805,-0.05516204,0.92071
402.165,45.49113,-3.05047,-0.05552964,0.9202
402.865,45.55937,-3.05214,-0.05721817,0.91968
403.565,45.62751,-3.05504,-0.06071756,0.91916
404.265,45.6956,-3.05705,-0.06174433,0.91864
404.965,45.7637,-3.05781,-0.05997567,0.91812
405.665,45.83197,-3.06077,-0.06169074,0.9176
406.365,45.90025,-3.06332,-0.06450644,0.91708
407.065,45.96849,-3.06595,-0.06689329,0.91656
407.765,46.0366,-3.06835,-0.06742324,0.91603
408.465,46.10499,-3.07091,-0.06789315,0.91551
409.165,46.17326,-3.0734,-0.07202422,0.91499
409.865,46.24195,-3.07375,-0.07281502,0.91446
410.565,46.3102,-3.07636,-0.07287528,0.91394
411.265,46.3788,-3.07707,-0.07412462,0.91341
411.965,46.44726,-3.07904,-0.0781512,0.91288
412.665,46.5159,-3.08038,-0.08095028,0.91236
413.365,46.5845,-3.08343,-0.08384608,0.91183
414.065,46.65309,-3.08619,-0.08341391,0.9113
414.765,46.7218,-3.08755,-0.08444837,0.91077
415.465,46.7903,-3.08888,-0.08631476,0.91025
416.165,46.85893,-3.09283,-0.08905362,0.90972
416.865,46.9276,-3.09511,-0.09191928,0.90919
417.565,46.99635,-3.09755,-0.09137233,0.90865
418.265,47.06496,-3.09872,-0.09267989,0.90812
418.965,47.1335,-3.10001,-0.0955119,0.90759
419.665,47.20221,-3.10421,-0.09523531,0.90706
420.365,47.27105,-3.10554,-0.09789781,0.90653
421.065,47.3399,-3.10696,-0.09963849,0.90599
421.765,47.40842,-3.10842,-0.09924961,0.90546
422.465,47.47698,-3.10846,-0.103,0.90492
423.165,47.54544,-3.11122,-0.10329,0.90439
423.865,47.6143,-3.11425,-0.10212,0.90385
424.565,47.6831,-3.11593,-0.10548,0.90331
425.265,47.75184,-3.11794,-0.10965,0.90278
425.965,47.82033,-3.12092,-0.10798,0.90224
426.665,47.8887,-3.12322,-0.1106,0.9017
427.365,47.95709,-3.12475,-0.10957,0.90116
428.065,48.02556,-3.12654,-0.11083,0.90062
428.765,48.09402,-3.12879,-0.11142,0.90008
429.465,48.16254,-3.13015,-0.11188,0.89954
430.165,48.23085,-3.13195,-0.11426,0.899
430.865,48.29933,-3.13421,-0.11103,0.89846
431.565,48.36789,-3.13652,-0.11474,0.89792
432.265,48.43656,-3.13798,-0.11357,0.89738
432.965,48.50528,-3.14001,-0.11373,0.89683
433.665,48.5739,-3.14174,-0.11337,0.89629
434.365,48.64249,-3.14358,-0.11036,0.89574
435.065,48.7111,-3.14623,-0.11129,0.8952
435.765,48.77969,-3.14831,-0.1142,0.89465
436.465,48.84845,-3.15064,-0.1121,0.89411
437.165,48.91705,-3.1532,-0.11462,0.89356
437.865,48.9857,-3.15487,-0.11344,0.89301
438.565,49.05431,-3.15628,-0.11274,0.89247
439.265,49.12303,-3.15788,-0.11424,0.89192
439.965,49.19171,-3.1594,-0.1126,0.89137
440.665,49.26047,-3.16191,-0.11172,0.89082
441.365,49.32911,-3.16321,-0.11048,0.89027
442.065,49.3974,-3.16602,-0.11108,0.88972
442.765,49.46591,-3.16732,-0.10736,0.88917
443.465,49.53445,-3.16732,-0.10806,0.88862
444.165,49.60341,-3.16891,-0.10433,0.88807
444.865,49.67204,-3.17246,-0.10613,0.88751
445.565,49.74064,-3.17267,-0.10264,0.88696
446.265,49.80905,-3.1756,-0.10139,0.88641
446.965,49.87754,-3.17747,-0.1007,0.88585
447.665,49.94603,-3.17945,-0.10023,0.8853
448.365,50.01462,-3.18077,-0.10117,0.88475
449.065,50.08318,-3.18174,-0.09824997,0.88419
449.765,50.15173,-3.18388,-0.09411597,0.88363
450.465,50.2203,-3.18539,-0.09228679,0.88308
451.165,50.2887,-3.18798,-0.0931234,0.88252
451.865,50.35711,-3.18868,-0.09197601,0.88196
452.565,50.42573,-3.18997,-0.08957303,0.8814
453.265,50.4946,-3.19124,-0.08952182,0.88085
453.965,50.56347,-3.19357,-0.08507513,0.88029
454.665,50.63244,-3.19525,-0.08376111,0.87973
455.365,50.70128,-3.19571,-0.07909252,0.87917
456.065,50.77024,-3.19792,-0.08068093,0.87861
456.765,50.83909,-3.19955,-0.0797074,0.87805
457.465,50.908,-3.20086,-0.07651299,0.87749
458.165,50.97695,-3.20217,-0.0768635,0.87692
458.865,51.04585,-3.20349,-0.07465818,0.87636
459.565,51.11477,-3.20482,-0.07252789,0.8758
460.265,51.18381,-3.20605,-0.07038446,0.87523
460.965,51.2529,-3.20896,-0.06870808,0.87467
461.665,51.32189,-3.20887,-0.07061484,0.87411
462.365,51.391,-3.21018,-0.07005876,0.87354
463.065,51.46008,-3.2115,-0.067151,0.87298
463.765,51.5294,-3.21309,-0.06667932,0.87241
464.465,51.59856,-3.2128,-0.06321195,0.87184
465.165,51.6678,-3.21405,-0.06364247,0.87128
465.865,51.73649,-3.21683,-0.06550463,0.87071
466.565,51.80546,-3.21943,-0.06219267,0.87014
467.265,51.87473,-3.22068,-0.06467694,0.86957
467.965,51.94428,-3.21938,-0.05988243,0.86901
468.665,52.01337,-3.22071,-0.06146806,0.86844
469.365,52.08229,-3.22072,-0.06184163,0.86787
470.065,52.1513,-3.22202,-0.06035579,0.8673
470.765,52.2203,-3.22334,-0.06005751,0.86673
471.465,52.28938,-3.22608,-0.05819701,0.86615
472.165,52.3585,-3.22604,-0.05803996,0.86558
472.865,52.42758,-3.22735,-0.05826234,0.86501
473.565,52.4966,-3.22872,-0.0575149,0.86444
474.265,52.56561,-3.22863,-0.05843921,0.86387
474.965,52.6346,-3.23127,-0.05678289,0.86329
475.665,52.7035,-3.23263,-0.05587252,0.86272
476.365,52.77254,-3.2315,-0.05732582,0.86215
477.065,52.84146,-3.23266,-0.05462768,0.86157
477.765,52.91069,-3.23397,-0.05544553,0.861
478.465,52.97961,-3.2349,-0.0552967,0.86042
479.165,53.0487,-3.23755,-0.05309049,0.85984
479.865,53.11744,-3.23759,-0.05440729,0.85927
480.565,53.1864,-3.23892,-0.0527694,0.85869
481.265,53.25516,-3.24017,-0.05315932,0.85811
481.965,53.3241,-3.24156,-0.05585987,0.85754
482.665,53.3928,-3.24291,-0.05308429,0.85696
483.365,53.46144,-3.24154,-0.05258103,0.85638
484.065,53.5304,-3.24286,-0.05262707,0.8558
484.765,53.59939,-3.24483,-0.05243406,0.85522
485.465,53.66854,-3.24615,-0.05227636,0.85464
486.165,53.73729,-3.24615,-0.05085668,0.85406
486.865,53.80608,-3.24745,-0.04941886,0.85348
487.565,53.8749,-3.24879,-0.0529844,0.8529
488.265,53.9438,-3.25011,-0.05312114,0.85232
488.965,54.01279,-3.25127,-0.05045432,0.85173
489.665,54.08172,-3.25142,-0.05366996,0.85115
490.365,54.1508,-3.25247,-0.05226957,0.85057
491.065,54.21996,-3.25405,-0.05255107,0.84999
491.765,54.2892,-3.25405,-0.05269788,0.8494
492.465,54.3584,-3.25422,-0.05140376,0.84882
493.165,54.4276,-3.25438,-0.04987428,0.84823
493.865,54.49683,-3.2557,-0.0526487,0.84765
494.565,54.56609,-3.25705,-0.0493871,0.84706
495.265,54.6354,-3.25795,-0.04413616,0.84648
495.965,54.7048,-3.25801,-0.0447645,0.84589
496.665,54.774,-3.25991,-0.04374155,0.8453
497.365,54.8432,-3.25998,-0.04210084,0.84472
498.065,54.9124,-3.2613,-0.04038252,0.84413
498.765,54.98191,-3.26125,-0.04246762,0.84354
499.465,55.0514,-3.26139,-0.03687864,0.84295
500.165,55.1209,-3.26397,-0.03665039,0.84236
500.865,55.1903,-3.26393,-0.03753714,0.84178
501.565,55.2596,-3.26393,-0.03890863,0.84119
502.265,55.3291,-3.26519,-0.03349765,0.8406
502.965,55.3985,-3.26782,-0.03694811,0.84001
503.665,55.4681,-3.26819,-0.03731837,0.83942
504.365,55.53761,-3.26788,-0.0351554,0.83882
505.065,55.60706,-3.26788,-0.03611466,0.83823
505.765,55.6765,-3.2692,-0.03548132,0.83764
506.465,55.74587,-3.26885,-0.03003588,0.83705
507.165,55.81524,-3.27191,-0.02965939,0.83646
507.865,55.88459,-3.27182,-0.02853826,0.83586
508.565,55.95394,-3.27201,-0.02501174,0.83527
509.265,56.023,-3.27314,-0.02204912,0.83468
509.965,56.092,-3.27315,-0.02249814,0.83408
510.665,56.1611,-3.27445,-0.02028037,0.83349
511.365,56.23045,-3.27577,-0.019925,0.83289
512.065,56.29981,-3.27577,-0.01659016,0.8323
512.765,56.36909,-3.27577,-0.01635685,0.8317
513.465,56.43846,-3.27698,-0.01577255,0.83111
514.165,56.5076,-3.27709,-0.0156591,0.83051
514.865,56.57682,-3.27972,-0.0160712,0.82991
515.565,56.6461,-3.28068,-0.01222914,0.82932
516.265,56.71544,-3.28073,-0.01298412,0.82872
516.965,56.78499,-3.28101,-0.01335051,0.82812
517.665,56.8544,-3.28236,-0.01027638,0.82752
518.365,56.92389,-3.28237,-0.007384974,0.82692
519.065,56.99325,-3.28332,-0.01111345,0.82633
519.765,57.06272,-3.28302,-0.00871964,0.82573
520.465,57.13222,-3.28433,-0.009947125,0.82513
521.165,57.2019,-3.28433,-0.01043843,0.82453
521.865,57.2714,-3.2861,-0.009739373,0.82393
522.565,57.34115,-3.28827,-0.0147071,0.82333
523.265,57.41066,-3.28961,-0.01462851,0.82272
523.965,57.4802,-3.28959,-0.02107006,0.82212
524.665,57.5496,-3.29091,-0.027201,0.82152
525.365,57.6191,-3.29123,-0.0286548,0.82092
526.065,57.6886,-3.29123,-0.02859003,0.82032
526.765,57.75786,-3.29119,-0.03111573,0.81971
527.465,57.82711,-3.29255,-0.0268431,0.81911
528.165,57.89634,-3.29386,-0.03247842,0.81851
528.865,57.96552,-3.29364,-0.03450906,0.8179
529.565,58.0348,-3.29387,-0.03445093,0.8173
530.265,58.10389,-3.29518,-0.03569316,0.8167
530.965,58.17304,-3.29627,-0.03577058,0.81609
531.665,58.24216,-3.29747,-0.03874981,0.81549
532.365,58.31155,-3.29743,-0.03814716,0.81488
533.065,58.38084,-3.29621,-0.03771016,0.81428
533.765,58.45029,-3.29749,-0.04244396,0.81367
534.465,58.5197,-3.29881,-0.04395077,0.81306
535.165,58.5892,-3.3001,-0.04450877,0.81246
535.865,58.6585,-3.30013,-0.04553222,0.81185
536.565,58.72764,-3.30013,-0.04675023,0.81124
537.265,58.79708,-3.30144,-0.04945755,0.81063
537.965,58.8666,-3.3026,-0.04624853,0.81003
538.665,58.93616,-3.30277,-0.05101614,0.80942
539.365,59.0058,-3.30277,-0.0538194,0.80881
540.065,59.07546,-3.30306,-0.05033107,0.8082
540.765,59.14516,-3.30503,-0.05357292,0.80759
541.465,59.2148,-3.30583,-0.05794832,0.80698
542.165,59.28467,-3.30671,-0.05845608,0.80637
542.865,59.35451,-3.3059,-0.05579291,0.80576
543.565,59.4243,-3.30699,-0.05857657,0.80515
544.265,59.49422,-3.30835,-0.06001592,0.80454
544.965,59.5642,-3.30835,-0.0587518,0.80393
545.665,59.6342,-3.30935,-0.058123,0.80332
546.365,59.7041,-3.30967,-0.06023879,0.80271
547.065,59.77386,-3.30969,-0.05955828,0.8021
547.765,59.8438,-3.31065,-0.05554547,0.80148
548.465,59.9139,-3.31065,-0.05616515,0.80087
549.165,59.9839,-3.31198,-0.0552252,0.80026
549.865,60.0537,-3.31065,-0.05525246,0.79964
550.565,60.12341,-3.31262,-0.05416356,0.79903
551.265,60.1931,-3.31343,-0.05405639,0.79842
551.965,60.26268,-3.3146,-0.05369761,0.7978
552.665,60.33226,-3.31542,-0.05514018,0.79719
553.365,60.40195,-3.31559,-0.05575619,0.79657
554.065,60.47165,-3.31555,-0.05545652,0.79596
554.765,60.54136,-3.31589,-0.05587138,0.79534
555.465,60.611,-3.31592,-0.05601777,0.79473
556.165,60.6806,-3.31723,-0.05786888,0.79411
556.865,60.7503,-3.31723,-0.05742792,0.7935
557.565,60.82005,-3.31723,-0.05609905,0.79288
558.265,60.88984,-3.31855,-0.0559153,0.79227
558.965,60.95961,-3.31984,-0.05805729,0.79165
559.665,61.02935,-3.32085,-0.05739046,0.79103
560.365,61.09924,-3.32013,-0.05830019,0.79041
561.065,61.1691,-3.32086,-0.06020689,0.7898
561.765,61.23911,-3.32218,-0.05725069,0.78918
562.465,61.3091,-3.32153,-0.05959613,0.78856
563.165,61.37902,-3.32278,-0.05923604,0.78794
563.865,61.44891,-3.32415,-0.05958699,0.78732
564.565,61.5185,-3.32415,-0.06173784,0.7867
565.265,61.58809,-3.32352,-0.06146959,0.78609
565.965,61.65765,-3.3248,-0.05995516,0.78547
566.665,61.7273,-3.32527,-0.05940373,0.78485
567.365,61.79704,-3.3258,-0.05867979,0.78423
568.065,61.86679,-3.32613,-0.05916286,0.78361
568.765,61.9365,-3.32744,-0.05988458,0.78299
569.465,62.0063,-3.32744,-0.06050632,0.78237
570.165,62.0761,-3.32734,-0.06107735,0.78174
570.865,62.14611,-3.32875,-0.06091979,0.78112
571.565,62.2158,-3.32874,-0.06062658,0.7805
572.265,62.28545,-3.33007,-0.06014852,0.77988
572.965,62.3551,-3.33007,-0.06124,0.77926
573.665,62.42488,-3.33016,-0.06186204,0.77864
574.365,62.4949,-3.33112,-0.06381767,0.77801
575.065,62.56499,-3.3327,-0.06174407,0.77739
575.765,62.63501,-3.3327,-0.06372151,0.77677
576.465,62.70488,-3.3327,-0.06334555,0.77615
577.165,62.7748,-3.33374,-0.0631364,0.77552
577.865,62.84466,-3.33401,-0.06316287,0.7749
578.565,62.9146,-3.33428,-0.06483033,0.77428
579.265,62.98434,-3.33533,-0.0626601,0.77365
579.965,63.05445,-3.33528,-0.06421064,0.77303
580.665,63.1244,-3.33665,-0.06349317,0.7724
581.365,63.19432,-3.33643,-0.06593634,0.77178
582.065,63.2641,-3.33667,-0.06545677,0.77115
582.765,63.33404,-3.33871,-0.06509752,0.77053
583.465,63.40415,-3.33852,-0.06541968,0.7699
584.165,63.474,-3.33797,-0.06544496,0.76928
584.865,63.54387,-3.34058,-0.06604402,0.76865
585.565,63.6137,-3.33929,-0.06676368,0.76803
586.265,63.6835,-3.34065,-0.0680798,0.7674
586.965,63.7534,-3.3406,-0.06657067,0.76677
587.665,63.82303,-3.34178,-0.06903199,0.76615
588.365,63.8928,-3.34192,-0.06716317,0.76552
589.065,63.9627,-3.34192,-0.06828881,0.76489
589.765,64.0329,-3.34189,-0.07024309,0.76427
590.465,64.10288,-3.34323,-0.068335,0.76364
591.165,64.1728,-3.3444,-0.0702568,0.76301
591.865,64.24247,-3.34455,-0.07060831,0.76238
592.565,64.31229,-3.34318,-0.06933682,0.76175
593.265,64.38202,-3.34331,-0.0692382,0.76113
593.965,64.45166,-3.34452,-0.07195586,0.7605
594.665,64.52147,-3.34685,-0.07137102,0.75987
595.365,64.59133,-3.34685,-0.07005019,0.75924
596.065,64.66125,-3.34686,-0.07157135,0.75861
596.765,64.73097,-3.34685,-0.06814224,0.75798
597.465,64.8008,-3.34819,-0.07151075,0.75735
598.165,64.87066,-3.34814,-0.07009427,0.75672
598.865,64.94069,-3.34821,-0.07213141,0.75609
599.565,65.01049,-3.3508,-0.07348213,0.75546
600.265,65.08049,-3.35082,-0.07076521,0.75483
600.965,65.15039,-3.35047,-0.07683721,0.7542
601.665,65.2205,-3.35047,-0.0720333,0.75357
602.365,65.29057,-3.3508,-0.0747431,0.75294
603.065,65.36076,-3.35215,-0.07490053,0.75231
603.765,65.43096,-3.35211,-0.07656204,0.75168
604.465,65.5012,-3.35342,-0.07679039,0.75105
605.165,65.57121,-3.35273,-0.07551897,0.75042
605.865,65.64126,-3.35282,-0.07548232,0.74978
606.565,65.71125,-3.35339,-0.07756289,0.74915
607.265,65.78129,-3.35343,-0.07734686,0.74852
607.965,65.8512,-3.35344,-0.07846778,0.74789
608.665,65.92125,-3.35474,-0.07859263,0.74726
609.365,65.99149,-3.35606,-0.07614049,0.74662
610.065,66.06181,-3.35606,-0.07857294,0.74599
610.765,66.1319,-3.35606,-0.08021328,0.74536
611.465,66.20212,-3.3569,-0.080255,0.74473
612.165,66.27208,-3.35734,-0.08103372,0.74409
612.865,66.34232,-3.35869,-0.07924625,0.74346
613.565,66.41238,-3.35869,-0.08242344,0.74283
614.265,66.48268,-3.35741,-0.0805788,0.74219
614.965,66.55282,-3.3587,-0.08131772,0.74156
615.665,66.62304,-3.35915,-0.08041192,0.74093
616.365,66.69324,-3.35936,-0.07766941,0.74029
617.065,66.7635,-3.35932,-0.0774822,0.73966
617.765,66.83369,-3.36067,-0.07893415,0.73902
618.465,66.90397,-3.36069,-0.08220189,0.73839
619.165,66.9744,-3.36191,-0.07975169,0.73775
619.865,67.0449,-3.361,-0.08019464,0.73712
620.565,67.1152,-3.36232,-0.08111093,0.73648
621.265,67.1854,-3.36232,-0.08241103,0.73585
621.965,67.2554,-3.36232,-0.08013832,0.73521
622.665,67.32558,-3.36365,-0.08401221,0.73458
623.365,67.39582,-3.36409,-0.08132257,0.73394
624.065,67.46636,-3.36495,-0.08105721,0.73331
624.765,67.53676,-3.36496,-0.08318102,0.73267
625.465,67.6071,-3.36647,-0.07924677,0.73204
626.165,67.67727,-3.36528,-0.07960837,0.7314
626.865,67.7475,-3.36528,-0.08480725,0.73076
627.565,67.81787,-3.36658,-0.08667973,0.73013
628.265,67.88842,-3.36659,-0.08567116,0.72949
628.965,67.95907,-3.36659,-0.08425082,0.72885
629.665,68.0296,-3.36659,-0.0814255,0.72822
630.365,68.1002,-3.36857,-0.08390563,0.72758
631.065,68.17064,-3.36857,-0.08586672,0.72694
631.765,68.2412,-3.36856,-0.08773099,0.72631
632.465,68.3116,-3.36856,-0.08693219,0.72567
633.165,68.3824,-3.36856,-0.08716382,0.72503
633.865,68.45295,-3.36987,-0.08458031,0.7244
634.565,68.52376,-3.3697,-0.0855634,0.72376
635.265,68.59429,-3.36857,-0.08723756,0.72312
635.965,68.66503,-3.36963,-0.08767488,0.72248
636.665,68.73584,-3.36989,-0.08503264,0.72184
637.365,68.80667,-3.36989,-0.09092292,0.72121
638.065,68.87741,-3.36989,-0.08937153,0.72057
638.765,68.9478,-3.37119,-0.08945901,0.71993
639.465,69.01849,-3.3712,-0.08582319,0.71929
640.165,69.08918,-3.3712,-0.08733068,0.71865
640.865,69.1601,-3.37252,-0.08705377,0.71802
641.565,69.2307,-3.37252,-0.08492875,0.71738
642.265,69.30126,-3.37261,-0.08989406,0.71674
642.965,69.37183,-3.37253,-0.08737545,0.7161
643.665,69.44237,-3.37252,-0.09029658,0.71546
644.365,69.51273,-3.37492,-0.08884954,0.71482
645.065,69.58314,-3.37482,-0.08590188,0.71418
645.765,69.65374,-3.3747,-0.08674902,0.71354
646.465,69.72436,-3.37449,-0.08712619,0.7129
647.165,69.7949,-3.37515,-0.08919673,0.71226
647.865,69.8653,-3.37567,-0.08785712,0.71162
648.565,69.9354,-3.37646,-0.08884173,0.71099
649.265,70.0057,-3.3758,-0.08855414,0.71035
649.965,70.07579,-3.3758,-0.08651237,0.70971
650.665,70.14624,-3.3758,-0.08802682,0.70907
651.365,70.2165,-3.3771,-0.08778518,0.70843
652.065,70.2867,-3.37712,-0.08954406,0.70779
652.765,70.35705,-3.37712,-0.09106203,0.70715
653.465,70.42739,-3.37712,-0.09010782,0.70651
654.165,70.4978,-3.37844,-0.08855038,0.70587
654.865,70.56817,-3.37775,-0.08589982,0.70523
655.565,70.63852,-3.37779,-0.08777298,0.70459
656.265,70.70899,-3.37909,-0.08901031,0.70395
656.965,70.77923,-3.37909,-0.08948422,0.7033
657.665,70.84952,-3.38041,-0.09626979,0.70266
658.365,70.91991,-3.38041,-0.09251809,0.70202
659.065,70.99044,-3.38044,-0.09191835,0.70138
659.765,71.06101,-3.38009,-0.0935599,0.70074
660.465,71.13147,-3.38008,-0.09310846,0.7001
661.165,71.20187,-3.38041,-0.09419166,0.69946
661.865,71.27216,-3.37973,-0.09330209,0.69882
662.565,71.34263,-3.37975,-0.09098294,0.69818
663.265,71.41297,-3.37975,-0.09292382,0.69754
663.965,71.4834,-3.38138,-0.09314446,0.6969
664.665,71.55379,-3.38177,-0.09321377,0.69626
665.365,71.6242,-3.38296,-0.09195002,0.69561
666.065,71.69479,-3.38305,-0.08963597,0.69497
666.765,71.76541,-3.38347,-0.08985081,0.69433
667.465,71.8362,-3.3837,-0.0887337,0.69369
668.165,71.90687,-3.38373,-0.08713253,0.69305
668.865,71.97762,-3.38304,-0.09038206,0.69241
669.565,72.04821,-3.38304,-0.09135185,0.69177
670.265,72.11883,-3.383,-0.08977898,0.69112
670.965,72.18938,-3.3837,-0.09200391,0.69048
671.665,72.25984,-3.3837,-0.09228556,0.68984
672.365,72.33049,-3.38436,-0.09116779,0.6892
673.065,72.40095,-3.38542,-0.09331898,0.68856
673.765,72.47158,-3.38568,-0.09183564,0.68792
674.465,72.54191,-3.38568,-0.09185191,0.68727
675.165,72.61246,-3.38568,-0.0901403,0.68663
675.865,72.68299,-3.38529,-0.08975989,0.68599
676.565,72.7534,-3.38568,-0.08940844,0.68535
677.265,72.8241,-3.38569,-0.0915606,0.68471
677.965,72.89482,-3.38663,-0.09395203,0.68406
678.665,72.96552,-3.38699,-0.0932442,0.68342
679.365,73.03594,-3.38831,-0.09255858,0.68278
680.065,73.10645,-3.3883,-0.09232714,0.68214
680.765,73.1772,-3.3884,-0.08983209,0.6815
681.465,73.248,-3.38831,-0.09074289,0.68085
682.165,73.31854,-3.38831,-0.0946695,0.68021
682.865,73.38885,-3.38699,-0.09759155,0.67957
683.565,73.45902,-3.38699,-0.09776916,0.67893
684.265,73.52935,-3.38831,-0.09758293,0.67828
684.965,73.5998,-3.38831,-0.09772507,0.67764
685.665,73.67007,-3.38831,-0.09181255,0.677
686.365,73.7405,-3.38831,-0.08989049,0.67636
687.065,73.81085,-3.38963,-0.08661274,0.67571
687.765,73.88159,-3.38884,-0.09013246,0.67507
688.465,73.95212,-3.38893,-0.09199606,0.67443
689.165,74.0226,-3.39094,-0.09147274,0.67379
689.865,74.09297,-3.391,-0.09001822,0.67315
690.565,74.16341,-3.38962,-0.09097472,0.6725
691.265,74.2338,-3.38962,-0.09056523,0.67186
691.965,74.3043,-3.38962,-0.09145155,0.67122
692.665,74.37472,-3.39085,-0.09265623,0.67058
693.365,74.44511,-3.39227,-0.09269076,0.66993
694.065,74.5158,-3.39094,-0.092939,0.66929
694.765,74.58673,-3.39094,-0.0927375,0.66865
695.465,74.65776,-3.39225,-0.09404141,0.66801
696.165,74.7284,-3.39226,-0.0945474,0.66736
696.865,74.79897,-3.39226,-0.09271262,0.66672
697.565,74.86905,-3.39259,-0.09325351,0.66608
698.265,74.93981,-3.39259,-0.09316249,0.66544
698.965,75.01054,-3.39225,-0.09366518,0.66479
699.665,75.0818,-3.39226,-0.09330271,0.66415
700.365,75.15266,-3.39358,-0.09302486,0.66351
701.065,75.2235,-3.39358,-0.0915472,0.66287
701.765,75.29422,-3.39358,-0.09379101,0.66222
702.465,75.36476,-3.39349,-0.0944982,0.66158
703.165,75.4354,-3.39489,-0.09348878,0.66094
703.865,75.50622,-3.39489,-0.09433038,0.6603
704.565,75.5768,-3.39489,-0.09478976,0.65965
705.265,75.64751,-3.39605,-0.09451312,0.65901
705.965,75.71808,-3.39489,-0.09678637,0.65837
706.665,75.78882,-3.39489,-0.09841965,0.65773
707.365,75.85937,-3.39621,-0.09784459,0.65709
708.065,75.93006,-3.39621,-0.09498157,0.65644
708.765,76.00066,-3.39621,-0.09774127,0.6558
709.465,76.07126,-3.39621,-0.09646073,0.65516
710.165,76.1418,-3.39498,-0.0986002,0.65452
710.865,76.21243,-3.3962,-0.09653532,0.65387
711.565,76.2829,-3.3962,-0.09681448,0.65323
712.265,76.35339,-3.39621,-0.0956228,0.65259
712.965,76.42405,-3.39722,-0.09593243,0.65195
713.665,76.49486,-3.39816,-0.09551924,0.65131
714.365,76.56563,-3.39687,-0.09594168,0.65066
715.065,76.63629,-3.39687,-0.09716756,0.65002
715.765,76.70694,-3.39687,-0.09426863,0.64938
716.465,76.77731,-3.39687,-0.09433054,0.64874
717.165,76.84776,-3.39819,-0.0945646,0.6481
717.865,76.91843,-3.39819,-0.09387022,0.64746
718.565,76.9894,-3.39819,-0.09242627,0.64681
719.265,77.06015,-3.39819,-0.09509465,0.64617
719.965,77.131,-3.39819,-0.09525071,0.64553
720.665,77.20178,-3.3995,-0.09341484,0.64489
721.365,77.27257,-3.3995,-0.09359113,0.64425
722.065,77.34334,-3.3994,-0.09515018,0.64361
722.765,77.41416,-3.40018,-0.09208821,0.64296
723.465,77.4849,-3.40016,-0.0970844,0.64232
724.165,77.5555,-3.39979,-0.09467853,0.64168
724.865,77.62626,-3.40011,-0.09928908,0.64104
725.565,77.69715,-3.40081,-0.09906156,0.6404
726.265,77.768,-3.40081,-0.09979977,0.63976
726.965,77.83899,-3.40081,-0.09854332,0.63912
727.665,77.90993,-3.40015,-0.09908662,0.63847
728.365,77.98065,-3.40147,-0.0975233,0.63783
729.065,78.05163,-3.40258,-0.0968589,0.63719
729.765,78.12256,-3.40279,-0.09825329,0.63655
730.465,78.19367,-3.40278,-0.09960253,0.63591
731.165,78.2645,-3.40213,-0.09643657,0.63527
731.865,78.33533,-3.40141,-0.09608152,0.63463
732.565,78.40612,-3.40085,-0.09510952,0.63399
733.265,78.4769,-3.40115,-0.09541953,0.63335
733.965,78.5476,-3.40112,-0.09497597,0.63271
734.665,78.61839,-3.40148,-0.0952391,0.63207
735.365,78.68924,-3.40345,-0.09810771,0.63143
736.065,78.76025,-3.40345,-0.09378544,0.63079
736.765,78.8314,-3.40345,-0.09592211,0.63015
737.465,78.90261,-3.40345,-0.09794823,0.62951
738.165,78.97386,-3.40345,-0.09796768,0.62887
738.865,79.04488,-3.40246,-0.09715095,0.62823
739.565,79.11587,-3.40374,-0.09866988,0.62759
740.265,79.18664,-3.40472,-0.09992329,0.62695
740.965,79.25751,-3.40477,-0.09900886,0.62631
741.665,79.3284,-3.40477,-0.0971699,0.62567
742.365,79.39926,-3.40406,-0.09725396,0.62503
743.065,79.4701,-3.40443,-0.09982539,0.62439
743.765,79.54081,-3.40338,-0.09863596,0.62375
744.465,79.61155,-3.40344,-0.09841049,0.62311
745.165,79.68223,-3.40344,-0.09709223,0.62247
745.865,79.75277,-3.40443,-0.09483998,0.62183
746.565,79.82338,-3.40476,-0.09634798,0.62119
747.265,79.8939,-3.40575,-0.09318411,0.62055
747.965,79.96449,-3.40575,-0.09128219,0.61991
748.665,80.0351,-3.40575,-0.08925691,0.61927
749.365,80.10598,-3.40448,-0.09087188,0.61863
750.065,80.17689,-3.40444,-0.08864433,0.618
750.765,80.24803,-3.40477,-0.09275855,0.61736
751.465,80.31914,-3.40473,-0.09107507,0.61672
752.165,80.39039,-3.40608,-0.08999557,0.61608
752.865,80.46158,-3.40608,-0.08748563,0.61544
753.565,80.53275,-3.40608,-0.08929456,0.6148
754.265,80.60398,-3.40741,-0.08903398,0.61416
754.965,80.67524,-3.4074,-0.08846697,0.61353
755.665,80.74664,-3.4074,-0.08584555,0.61289
756.365,80.81796,-3.40878,-0.08751566,0.61225
757.065,80.88927,-3.40739,-0.09119649,0.61161
757.765,80.96021,-3.40739,-0.09076612,0.61098
758.465,81.03113,-3.40871,-0.09034242,0.61034
759.165,81.10204,-3.40871,-0.09412646,0.6097
759.865,81.17316,-3.40871,-0.09171483,0.60906
760.565,81.24441,-3.40738,-0.08893531,0.60843
761.265,81.31543,-3.40747,-0.0945277,0.60779
761.965,81.38646,-3.40871,-0.09435631,0.60715
762.665,81.45732,-3.40896,-0.09426538,0.60652
763.365,81.52839,-3.40902,-0.09427481,0.60588
764.065,81.59945,-3.40905,-0.09824024,0.60524
764.765,81.6704,-3.40904,-0.09510399,0.60461
765.465,81.7414,-3.40904,-0.09503998,0.60397
766.165,81.81224,-3.41036,-0.0976844,0.60333
766.865,81.88328,-3.40999,-0.09771066,0.6027
767.565,81.95446,-3.41002,-0.09589303,0.60206
768.265,82.02548,-3.40866,-0.09900493,0.60142
768.965,82.0967,-3.40872,-0.09865061,0.60079
769.665,82.16795,-3.40904,-0.09737909,0.60015
770.365,82.2392,-3.40902,-0.09678756,0.59952
771.065,82.31036,-3.41036,-0.1006,0.59888
771.765,82.38149,-3.41036,-0.09789821,0.59825
772.465,82.45244,-3.41166,-0.0998716,0.59761
773.165,82.52345,-3.41168,-0.09960457,0.59698
773.865,82.59453,-3.41168,-0.09637222,0.59634
774.565,82.66572,-3.41135,-0.10427,0.59571
775.265,82.73653,-3.41005,-0.10193,0.59507
775.965,82.80745,-3.41003,-0.0979414,0.59444
776.665,82.8784,-3.41167,-0.103,0.5938
777.365,82.94944,-3.41167,-0.1018,0.59317
778.065,83.0205,-3.41167,-0.10312,0.59253
778.765,83.09167,-3.41167,-0.10243,0.5919
779.465,83.16291,-3.41299,-0.10276,0.59127
780.165,83.2339,-3.41299,-0.10111,0.59063
780.865,83.3048,-3.41299,-0.1038,0.59
781.565,83.3758,-3.41171,-0.10215,0.58937
782.265,83.44691,-3.41298,-0.10218,0.58873
782.965,83.51807,-3.41298,-0.10197,0.5881
783.665,83.58918,-3.41298,-0.10173,0.58747
784.365,83.66031,-3.41298,-0.11035,0.58683
785.065,83.73151,-3.41298,-0.10473,0.5862
785.765,83.80286,-3.41321,-0.10031,0.58557
786.465,83.8742,-3.41299,-0.09962678,0.58494
787.165,83.9455,-3.41337,-0.10357,0.5843
787.865,84.01689,-3.41431,-0.10155,0.58367
788.565,84.0882,-3.41566,-0.0998722,0.58304
789.265,84.15949,-3.41466,-0.10102,0.58241
789.965,84.2306,-3.41431,-0.10076,0.58178
790.665,84.30195,-3.41513,-0.10178,0.58115
791.365,84.3734,-3.41563,-0.10377,0.58051
792.065,84.44464,-3.41561,-0.1067,0.57988
792.765,84.51584,-3.415,-0.1022,0.57925
793.465,84.5869,-3.41628,-0.10083,0.57862
794.165,84.6583,-3.41628,-0.09979871,0.57799
794.865,84.72967,-3.41565,-0.10311,0.57736
795.565,84.80099,-3.41496,-0.10321,0.57673
796.265,84.87219,-3.41632,-0.10352,0.5761
796.965,84.94324,-3.41765,-0.10215,0.57547
797.465,84.99374,-3.41631,-0.10237,0.57502