File: 01_Data/Wood_Stud/STA/N2/10K_min/Wood_Stud_STA_N2_10KData_220127_R3.csv
##Temp./Â°C,Time/min,Mass loss(subtr.2)/mg,DSC(subtr.2)/(mW/mg),Sensit./(uV/mW)
49.358,10.01,0.00131,0.03341479,1.07447
50.058,10.76159,0.002205796,0.0684971,1.07442
50.758,10.967,0.0033876,0.09971399,1.07437
51.458,11.1194,0.001880856,0.12019,1.07432
52.158,11.24832,0.00358637,0.14076,1.07427
52.858,11.36294,0.003150087,0.15757,1.07421
53.558,11.4684,0.002185826,0.16961,1.07416
54.258,11.56765,0.004159606,0.18123,1.0741
54.958,11.66269,0.00373492,0.19218,1.07405
55.658,11.7541,0.002759645,0.20022,1.07399
56.358,11.8424,0.004948257,0.20873,1.07393
57.058,11.929,0.004457314,0.21578,1.07387
57.758,12.01378,0.00162605,0.22309,1.07381
58.458,12.0969,0.002947936,0.22976,1.07375
59.158,12.17902,0.00433735,0.23612,1.07368
59.858,12.2594,0.00312088,0.24215,1.07362
60.558,12.3393,0.00311186,0.24537,1.07355
61.258,12.41801,0.00283508,0.25161,1.07349
61.958,12.4963,0.002780645,0.25625,1.07342
62.658,12.57388,0.00284304,0.26303,1.07335
63.358,12.65138,0.002840062,0.26433,1.07328
64.058,12.72833,0.00288268,0.26884,1.07321
64.758,12.80515,0.003694105,0.27353,1.07314
65.458,12.88137,0.001403636,0.27611,1.07306
66.158,12.9564,0.00280022,0.28297,1.07299
66.858,13.031,0.002309036,0.28577,1.07291
67.558,13.10675,0.001435041,0.28662,1.07284
68.258,13.1829,0.001414586,0.28966,1.07276
68.958,13.25844,0.001419062,0.29439,1.07268
69.658,13.33298,0.002020976,0.29726,1.0726
70.358,13.4077,0.00142051,0.30211,1.07252
71.058,13.48209,0.000186295,0.30257,1.07243
71.758,13.5564,0.001405885,0.30863,1.07235
72.458,13.63023,0.000100043,0.3118,1.07226
73.158,13.70376,0.001096348,0.31345,1.07218
73.858,13.77718,-0.0002191946,0.31572,1.07209
74.558,13.85041,-0.001221263,0.31944,1.072
75.258,13.92366,0.0001527515,0.32335,1.07191
75.958,13.99669,-0.001191148,0.32507,1.07182
76.658,14.06991,-0.001220004,0.32696,1.07173
77.358,14.1426,-0.0007567187,0.33057,1.07164
78.058,14.21504,-0.00121002,0.3349,1.07154
78.758,14.2876,-0.00137554,0.33374,1.07145
79.458,14.36045,-0.002898956,0.33578,1.07135
80.158,14.43312,-0.003839945,0.33641,1.07125
80.858,14.5053,-0.002563821,0.33938,1.07115
81.558,14.57724,-0.003872638,0.34009,1.07106
82.258,14.6492,-0.00385006,0.34253,1.07095
82.958,14.721,-0.005173424,0.34555,1.07085
83.658,14.79225,-0.00514705,0.34696,1.07075
84.358,14.8635,-0.005755807,0.34677,1.07064
85.058,14.9343,-0.00648023,0.3503,1.07054
85.758,15.00547,-0.00648,0.34985,1.07043
86.458,15.0762,-0.00648,0.34989,1.07032
87.158,15.14691,-0.006480129,0.34841,1.07022
87.858,15.2173,-0.007785844,0.35139,1.07011
88.558,15.28776,-0.00779407,0.3499,1.07
89.258,15.35825,-0.009110152,0.35149,1.06988
89.958,15.42857,-0.009965864,0.35065,1.06977
90.658,15.49872,-0.00911044,0.35236,1.06965
91.358,15.56877,-0.009110005,0.35081,1.06954
92.058,15.6388,-0.009056229,0.34814,1.06942
92.758,15.7089,-0.01042001,0.35094,1.0693
93.458,15.77875,-0.0104204,0.34909,1.06919
94.158,15.84847,-0.0109687,0.348,1.06907
94.858,15.91797,-0.01206995,0.34703,1.06894
95.558,15.98754,-0.01206999,0.34494,1.06882
96.258,16.05709,-0.01099722,0.34571,1.0687
96.958,16.12635,-0.01172,0.34238,1.06857
97.658,16.19562,-0.01207996,0.34182,1.06845
98.358,16.26484,-0.01208817,0.34159,1.06832
99.058,16.33425,-0.0120676,0.3408,1.06819
99.758,16.4035,-0.01207009,0.341,1.06806
100.458,16.4726,-0.01323224,0.33747,1.06793
101.158,16.54143,-0.01338899,0.33603,1.0678
101.858,16.61015,-0.01471034,0.33419,1.06767
102.558,16.67876,-0.01372374,0.33597,1.06754
103.258,16.74766,-0.01372218,0.3343,1.0674
103.958,16.81615,-0.01339149,0.33054,1.06727
104.658,16.88508,-0.01468704,0.32802,1.06713
105.358,16.95391,-0.0147107,0.32787,1.06699
106.058,17.023,-0.01599397,0.32842,1.06685
106.758,17.0916,-0.01470952,0.32547,1.06671
107.458,17.16013,-0.01339014,0.32433,1.06657
108.158,17.2288,-0.01339008,0.32355,1.06643
108.858,17.2975,-0.01468703,0.32285,1.06629
109.558,17.3661,-0.01469242,0.32054,1.06614
110.258,17.4342,-0.01561522,0.32025,1.06599
110.958,17.50265,-0.01437578,0.31921,1.06585
111.658,17.5711,-0.0147001,0.31864,1.0657
112.358,17.63993,-0.01470004,0.31552,1.06555
113.058,17.7085,-0.01601599,0.31858,1.0654
113.758,17.77709,-0.01465326,0.31727,1.06525
114.458,17.8456,-0.01471002,0.31663,1.0651
115.158,17.91413,-0.01463156,0.3174,1.06494
115.858,17.98258,-0.01602195,0.31555,1.06479
116.558,18.05094,-0.01469824,0.31611,1.06463
117.258,18.11945,-0.0147,0.31576,1.06448
117.958,18.1878,-0.01471046,0.31608,1.06432
118.658,18.25631,-0.01471,0.31684,1.06416
119.358,18.32424,-0.01471586,0.31639,1.064
120.058,18.39246,-0.01339005,0.31608,1.06384
120.758,18.4604,-0.01470682,0.31752,1.06368
121.458,18.52865,-0.01344055,0.31624,1.06351
122.158,18.5969,-0.01338999,0.31851,1.06335
122.858,18.66517,-0.01339,0.31924,1.06318
123.558,18.7335,-0.01339007,0.31722,1.06302
124.258,18.80149,-0.01408586,0.32039,1.06285
124.958,18.86975,-0.01374005,0.32028,1.06268
125.658,18.93771,-0.01339001,0.31986,1.06251
126.358,19.00587,-0.01339031,0.32123,1.06234
127.058,19.07415,-0.01436656,0.3231,1.06217
127.758,19.1423,-0.01305664,0.32435,1.06199
128.458,19.21035,-0.01338817,0.32498,1.06182
129.158,19.27816,-0.01288277,0.32582,1.06164
129.858,19.34589,-0.01338563,0.32519,1.06147
130.558,19.41364,-0.01338,0.32691,1.06129
131.258,19.48166,-0.01338,0.32643,1.06111
131.958,19.54954,-0.01338,0.32774,1.06093
132.658,19.6175,-0.01340217,0.3276,1.06075
133.358,19.68515,-0.01339158,0.32713,1.06057
134.058,19.75319,-0.01338729,0.32682,1.06038
134.758,19.82101,-0.01240059,0.32684,1.0602
135.458,19.88883,-0.0124,0.32748,1.06001
136.158,19.95656,-0.01240001,0.32932,1.05983
136.858,20.02435,-0.01235615,0.33107,1.05964
137.558,20.09219,-0.0137354,0.32827,1.05945
138.258,20.15981,-0.01209106,0.33032,1.05926
138.958,20.22748,-0.01207998,0.32989,1.05907
139.658,20.2951,-0.01208175,0.32965,1.05888
140.358,20.36276,-0.012093,0.33205,1.05869
141.058,20.4304,-0.01207,0.3318,1.05849
141.758,20.49796,-0.01207,0.33286,1.0583
142.458,20.56555,-0.01207433,0.33235,1.0581
143.158,20.63305,-0.01121628,0.33428,1.05791
143.858,20.70082,-0.01239987,0.33621,1.05771
144.558,20.76846,-0.01207279,0.33651,1.05751
145.258,20.83628,-0.01214004,0.3366,1.05731
145.958,20.9039,-0.01141904,0.33532,1.05711
146.658,20.97147,-0.01075663,0.33637,1.0569
147.358,21.03911,-0.01076622,0.33604,1.0567
148.058,21.10669,-0.01207938,0.34088,1.0565
148.758,21.17436,-0.0106639,0.33881,1.05629
149.458,21.24181,-0.01075999,0.34117,1.05608
150.158,21.30927,-0.01072409,0.34322,1.05588
150.858,21.37676,-0.01204209,0.34559,1.05567
151.558,21.444,-0.01107945,0.34574,1.05546
152.258,21.5115,-0.01108,0.34724,1.05525
152.958,21.57876,-0.01108147,0.34877,1.05503
153.658,21.6461,-0.01075053,0.35239,1.05482
154.358,21.71365,-0.01070913,0.34882,1.05461
155.058,21.78097,-0.0104298,0.35098,1.05439
155.758,21.84842,-0.01043,0.35368,1.05418
156.458,21.9158,-0.01043933,0.35474,1.05396
157.158,21.98316,-0.01072686,0.35616,1.05374
157.858,22.0506,-0.01207008,0.35483,1.05352
158.558,22.11777,-0.01207598,0.35661,1.0533
159.258,22.18498,-0.01074954,0.35674,1.05308
159.958,22.2522,-0.01074996,0.35796,1.05286
160.658,22.31935,-0.01013211,0.35973,1.05263
161.358,22.38652,-0.01107169,0.36029,1.05241
162.058,22.45334,-0.01109,0.3619,1.05218
162.758,22.52034,-0.01109,0.36572,1.05195
163.458,22.5874,-0.01109,0.36524,1.05173
164.158,22.65456,-0.0110931,0.36629,1.0515
164.858,22.7217,-0.0120701,0.36797,1.05127
165.558,22.7888,-0.01208,0.36747,1.05104
166.258,22.85602,-0.01194663,0.36937,1.0508
166.958,22.92285,-0.01109784,0.36802,1.05057
167.658,22.98994,-0.01240004,0.36906,1.05034
168.358,23.0569,-0.01239814,0.37015,1.0501
169.058,23.12425,-0.01112177,0.37151,1.04987
169.758,23.19131,-0.009406865,0.37124,1.04963
170.458,23.25844,-0.01074911,0.37473,1.04939
171.158,23.3257,-0.01207587,0.37703,1.04915
171.858,23.39251,-0.01206312,0.37844,1.04891
172.558,23.4594,-0.01138925,0.377,1.04867
173.258,23.5263,-0.01216829,0.37696,1.04843
173.958,23.59359,-0.01072212,0.38063,1.04818
174.658,23.6604,-0.01207006,0.382,1.04794
175.358,23.72701,-0.01211946,0.38205,1.04769
176.058,23.7937,-0.01075984,0.38296,1.04745
176.758,23.86011,-0.01175828,0.38498,1.0472
177.458,23.92718,-0.01305982,0.38561,1.04695
178.158,23.99389,-0.01305878,0.38606,1.0467
178.858,24.0611,-0.01175099,0.39024,1.04645
179.558,24.12805,-0.01174997,0.38912,1.0462
180.258,24.195,-0.01315007,0.38908,1.04595
180.958,24.26197,-0.01305999,0.38835,1.04569
181.658,24.329,-0.01306256,0.3912,1.04544
182.358,24.396,-0.01240108,0.39073,1.04518
183.058,24.463,-0.0124,0.39222,1.04492
183.758,24.52993,-0.0124,0.39345,1.04467
184.458,24.59693,-0.01240001,0.39354,1.04441
185.158,24.66391,-0.01235985,0.39549,1.04415
185.858,24.73074,-0.0137201,0.39629,1.04389
186.558,24.7977,-0.01372,0.39789,1.04362
187.258,24.86477,-0.01372,0.39785,1.04336
187.958,24.93177,-0.01372005,0.39852,1.0431
188.658,24.9985,-0.01505225,0.40321,1.04283
189.358,25.06546,-0.01437044,0.40201,1.04257
190.058,25.13251,-0.01437,0.40154,1.0423
190.758,25.1997,-0.01437,0.40449,1.04203
191.458,25.26653,-0.01436965,0.40468,1.04176
192.158,25.33338,-0.01490812,0.40759,1.04149
192.858,25.40053,-0.0147,0.40683,1.04122
193.558,25.46775,-0.0147163,0.40936,1.04095
194.258,25.53484,-0.0153125,0.41048,1.04067
194.958,25.6018,-0.01667957,0.41215,1.0404
195.658,25.6687,-0.0153583,0.41311,1.04013
196.358,25.73571,-0.01629836,0.41416,1.03985
197.058,25.80259,-0.01668003,0.41692,1.03957
197.758,25.86925,-0.01667999,0.41917,1.03929
198.458,25.936,-0.01701213,0.41814,1.03901
199.158,26.00303,-0.01798993,0.41871,1.03873
199.858,26.06995,-0.01799,0.41903,1.03845
200.558,26.13704,-0.01799005,0.42384,1.03817
201.258,26.20383,-0.01835591,0.42333,1.03789
201.958,26.27062,-0.01832,0.42607,1.0376
202.658,26.33734,-0.01832173,0.42476,1.03732
203.358,26.40437,-0.01963819,0.42516,1.03703
204.058,26.47121,-0.01964,0.43008,1.03675
204.758,26.538,-0.01964,0.42913,1.03646
205.458,26.60476,-0.01964007,0.43156,1.03617
206.158,26.67158,-0.02043177,0.43117,1.03588
206.858,26.7383,-0.02095998,0.43212,1.03559
207.558,26.8049,-0.02096,0.43558,1.03529
208.258,26.87155,-0.02095365,0.43656,1.035
208.958,26.9384,-0.02063116,0.43737,1.03471
209.658,27.00527,-0.02063,0.43801,1.03441
210.358,27.07201,-0.02063,0.43804,1.03412
211.058,27.13873,-0.02063,0.44103,1.03382
211.758,27.2054,-0.02070862,0.44357,1.03352
212.458,27.2722,-0.02334217,0.44477,1.03322
213.158,27.33898,-0.02326001,0.44557,1.03292
213.858,27.4059,-0.02326,0.44646,1.03262
214.558,27.4727,-0.02326,0.44615,1.03232
215.258,27.5394,-0.02326,0.44934,1.03202
215.958,27.6061,-0.02328569,0.44995,1.03171
216.658,27.6728,-0.02454085,0.45091,1.03141
217.358,27.73943,-0.0258899,0.45315,1.0311
218.058,27.806,-0.02589,0.45248,1.03079
218.758,27.8728,-0.02588999,0.45402,1.03049
219.458,27.93947,-0.02587532,0.45331,1.03018
220.158,28.0061,-0.02721031,0.4567,1.02987
220.858,28.07276,-0.02794199,0.45601,1.02956
221.558,28.1393,-0.02819992,0.45462,1.02925
222.258,28.2059,-0.02820184,0.45817,1.02893
222.958,28.27266,-0.02952326,0.45841,1.02862
223.658,28.33942,-0.02984993,0.45752,1.02831
224.358,28.4059,-0.02987522,0.46062,1.02799
225.058,28.4726,-0.03117348,0.46288,1.02767
225.758,28.5392,-0.03248008,0.46375,1.02736
226.458,28.60595,-0.03249047,0.46355,1.02704
227.158,28.67278,-0.03378592,0.46521,1.02672
227.858,28.7396,-0.03376646,0.46564,1.0264
228.558,28.80677,-0.03509434,0.46503,1.02608
229.258,28.8737,-0.03642186,0.46521,1.02575
229.958,28.9406,-0.0377394,0.4664,1.02543
230.658,29.00725,-0.03775495,0.46746,1.02511
231.358,29.07403,-0.04036703,0.4696,1.02478
232.058,29.1408,-0.03931572,0.47067,1.02446
232.758,29.20768,-0.04028223,0.47,1.02413
233.458,29.27453,-0.04168989,0.47181,1.0238
234.158,29.34145,-0.04307445,0.47184,1.02347
234.858,29.4084,-0.04300605,0.47247,1.02314
235.558,29.4752,-0.04432058,0.47516,1.02281
236.258,29.54195,-0.04561926,0.47546,1.02248
236.958,29.6087,-0.04564862,0.47754,1.02215
237.658,29.6758,-0.04694926,0.4776,1.02181
238.358,29.74247,-0.04781457,0.47881,1.02148
239.058,29.8094,-0.04958753,0.47959,1.02114
239.758,29.8761,-0.05153083,0.48076,1.02081
240.458,29.94292,-0.05288409,0.48256,1.02047
241.158,30.0099,-0.05420115,0.48502,1.02013
241.858,30.07674,-0.0555067,0.48619,1.01979
242.558,30.14375,-0.05682975,0.48803,1.01945
243.258,30.21054,-0.05812955,0.48829,1.01911
243.958,30.2774,-0.06009023,0.48933,1.01877
244.658,30.34435,-0.06134547,0.48867,1.01843
245.358,30.41125,-0.06404723,0.49012,1.01808
246.058,30.47812,-0.06701994,0.49273,1.01774
246.758,30.5447,-0.06613131,0.49318,1.01739
247.458,30.6113,-0.06839766,0.49178,1.01705
248.158,30.6781,-0.06966257,0.49332,1.0167
248.858,30.7449,-0.07229062,0.49448,1.01635
249.558,30.8119,-0.07374245,0.49245,1.016
250.258,30.87857,-0.07654236,0.49365,1.01565
250.958,30.9453,-0.07892946,0.49241,1.0153
251.658,31.01205,-0.08110488,0.49564,1.01495
252.358,31.07883,-0.08365881,0.49432,1.0146
253.058,31.1453,-0.08623847,0.49407,1.01424
253.758,31.212,-0.08921555,0.49801,1.01389
254.458,31.27892,-0.09047536,0.49704,1.01353
255.158,31.34631,-0.09367237,0.49714,1.01317
255.858,31.4134,-0.0971014,0.49759,1.01282
256.558,31.48013,-0.09950765,0.4983,1.01246
257.258,31.54697,-0.10325,0.49965,1.0121
257.958,31.61386,-0.10613,0.50053,1.01174
258.658,31.68096,-0.10871,0.5011,1.01138
259.358,31.7479,-0.10969,0.50225,1.01101
260.058,31.8147,-0.11302,0.49934,1.01065
260.758,31.88147,-0.11751,0.50333,1.01029
261.458,31.9485,-0.12126,0.50206,1.00992
262.158,32.01545,-0.12414,0.5057,1.00956
262.858,32.08231,-0.12806,0.50699,1.00919
263.558,32.1492,-0.13213,0.50578,1.00882
264.258,32.21621,-0.1348,0.50863,1.00846
264.958,32.28335,-0.1396,0.50624,1.00809
265.658,32.3502,-0.14271,0.50953,1.00772
266.358,32.4169,-0.14541,0.51076,1.00734
267.058,32.48385,-0.14949,0.51177,1.00697
267.758,32.55077,-0.15402,0.51279,1.0066
268.458,32.61764,-0.1588,0.51264,1.00623
269.158,32.6845,-0.16238,0.51581,1.00585
269.858,32.7509,-0.16546,0.51811,1.00548
270.558,32.81792,-0.17051,0.51714,1.0051
271.258,32.88466,-0.17606,0.51823,1.00472
271.958,32.95175,-0.17916,0.51871,1.00434
272.658,33.01853,-0.18598,0.52083,1.00397
273.358,33.08532,-0.18986,0.52107,1.00359
274.058,33.15234,-0.1952,0.51994,1.0032
274.758,33.2192,-0.19902,0.52331,1.00282
275.458,33.28595,-0.20506,0.5236,1.00244
276.158,33.3527,-0.2102,0.52241,1.00206
276.858,33.41966,-0.21484,0.52394,1.00167
277.558,33.48656,-0.21897,0.52333,1.00129
278.258,33.55357,-0.22515,0.52559,1.0009
278.958,33.6203,-0.23082,0.52556,1.00052
279.658,33.68719,-0.23748,0.52775,1.00013
280.358,33.75412,-0.24324,0.52968,0.99974
281.058,33.8212,-0.25029,0.52697,0.99935
281.758,33.88821,-0.25636,0.53016,0.99896
282.458,33.95521,-0.26151,0.53205,0.99857
283.158,34.02217,-0.26791,0.53513,0.99818
283.858,34.08913,-0.27481,0.53437,0.99778
284.558,34.15612,-0.28093,0.5384,0.99739
285.258,34.22302,-0.28821,0.53399,0.997
285.958,34.29006,-0.29529,0.53851,0.9966
286.658,34.35707,-0.30201,0.53944,0.9962
287.358,34.4242,-0.3096,0.53921,0.99581
288.058,34.49125,-0.3161,0.53943,0.99541
288.758,34.55836,-0.32293,0.54162,0.99501
289.458,34.62558,-0.33046,0.54341,0.99461
290.158,34.69276,-0.33823,0.54466,0.99421
290.858,34.75998,-0.34508,0.54586,0.99381
291.558,34.8272,-0.35344,0.54646,0.99341
292.258,34.89458,-0.3614,0.54735,0.993
292.958,34.96184,-0.37014,0.55329,0.9926
293.658,35.02924,-0.37713,0.55434,0.99219
294.358,35.09637,-0.38632,0.55361,0.99179
295.058,35.16365,-0.39508,0.55535,0.99138
295.758,35.231,-0.4043,0.55764,0.99097
296.458,35.29806,-0.41299,0.56055,0.99057
297.158,35.36509,-0.4226,0.56364,0.99016
297.858,35.43197,-0.43254,0.56418,0.98975
298.558,35.4992,-0.44135,0.56725,0.98934
299.258,35.56622,-0.45189,0.57239,0.98893
299.958,35.63349,-0.46169,0.57441,0.98851
300.658,35.7006,-0.47261,0.57709,0.9881
301.358,35.76786,-0.4818,0.57791,0.98769
302.058,35.8351,-0.49113,0.58269,0.98727
302.758,35.90224,-0.50352,0.58498,0.98686
303.458,35.9694,-0.51278,0.58987,0.98644
304.158,36.03669,-0.52406,0.59197,0.98602
304.858,36.104,-0.5362,0.59561,0.98561
305.558,36.1714,-0.54686,0.59924,0.98519
306.258,36.23884,-0.55837,0.60306,0.98477
306.958,36.30608,-0.57196,0.60591,0.98435
307.658,36.37343,-0.58289,0.6081,0.98393
308.358,36.44043,-0.59591,0.61073,0.9835
309.058,36.50799,-0.60873,0.61585,0.98308
309.758,36.57535,-0.62247,0.6202,0.98266
310.458,36.64297,-0.63519,0.62419,0.98223
311.158,36.71042,-0.64799,0.62985,0.98181
311.858,36.77785,-0.66282,0.63452,0.98138
312.558,36.84525,-0.67525,0.63963,0.98095
313.258,36.91292,-0.6907,0.64427,0.98053
313.958,36.98038,-0.70308,0.64642,0.9801
314.658,37.0477,-0.71833,0.64878,0.97967
315.358,37.11461,-0.73396,0.65432,0.97924
316.058,37.1818,-0.74818,0.66088,0.97881
316.758,37.24925,-0.76423,0.66523,0.97838
317.458,37.31671,-0.78115,0.66761,0.97794
318.158,37.3841,-0.79531,0.67127,0.97751
318.858,37.45138,-0.81189,0.67568,0.97708
319.558,37.51869,-0.82709,0.67941,0.97664
320.258,37.58612,-0.84425,0.68197,0.97621
320.958,37.65359,-0.86103,0.68595,0.97577
321.658,37.72098,-0.87701,0.6909,0.97533
322.358,37.7883,-0.8968,0.69613,0.97489
323.058,37.85536,-0.91329,0.69647,0.97446
323.758,37.92262,-0.9291,0.70427,0.97402
324.458,37.99006,-0.94662,0.70855,0.97358
325.158,38.05782,-0.96649,0.70967,0.97313
325.858,38.12542,-0.98431,0.71336,0.97269
326.558,38.19287,-1.00085,0.71524,0.97225
327.258,38.2602,-1.02148,0.71929,0.97181
327.958,38.3273,-1.03952,0.72261,0.97136
328.658,38.39484,-1.05822,0.72521,0.97092
329.358,38.46215,-1.07701,0.72927,0.97047
330.058,38.53,-1.0962,0.73236,0.97003
330.758,38.59765,-1.11533,0.73518,0.96958
331.458,38.66536,-1.13476,0.73848,0.96913
332.158,38.73307,-1.15473,0.73888,0.96868
332.858,38.80058,-1.17469,0.74068,0.96823
333.558,38.8682,-1.1941,0.74394,0.96778
334.258,38.93582,-1.21478,0.74586,0.96733
334.958,39.00333,-1.23464,0.74864,0.96688
335.658,39.0709,-1.25447,0.74941,0.96643
336.358,39.1383,-1.2758,0.75165,0.96597
337.058,39.20598,-1.29569,0.75518,0.96552
337.758,39.27355,-1.31575,0.76012,0.96506
338.458,39.34109,-1.33796,0.76229,0.96461
339.158,39.4086,-1.35754,0.76275,0.96415
339.858,39.47619,-1.37884,0.76764,0.9637
340.558,39.54385,-1.40055,0.77358,0.96324
341.258,39.61138,-1.41921,0.77644,0.96278
341.958,39.6791,-1.44143,0.77978,0.96232
342.658,39.74685,-1.46321,0.78512,0.96186
343.358,39.8146,-1.48493,0.79137,0.9614
344.058,39.88219,-1.50724,0.79641,0.96094
344.758,39.94983,-1.52877,0.80505,0.96048
345.458,40.01747,-1.55161,0.80836,0.96001
346.158,40.08512,-1.57401,0.81458,0.95955
346.858,40.1526,-1.59655,0.82574,0.95908
347.558,40.22007,-1.61955,0.83081,0.95862
348.258,40.2875,-1.64162,0.84018,0.95815
348.958,40.35522,-1.66484,0.8474,0.95769
349.658,40.42277,-1.69205,0.85641,0.95722
350.358,40.49027,-1.71493,0.86287,0.95675
351.058,40.5576,-1.7373,0.87407,0.95628
351.758,40.6252,-1.7635,0.88344,0.95581
352.458,40.69287,-1.78867,0.89271,0.95534
353.158,40.76052,-1.8135,0.90164,0.95487
353.858,40.8279,-1.83755,0.91065,0.9544
354.558,40.89549,-1.86366,0.91839,0.95393
355.258,40.963,-1.89021,0.92718,0.95345
355.958,41.03058,-1.91608,0.93619,0.95298
356.658,41.09836,-1.94488,0.94452,0.95251
357.358,41.166,-1.97124,0.95392,0.95203
358.058,41.23426,-1.99679,0.96219,0.95155
358.758,41.30195,-2.02566,0.96648,0.95108
359.458,41.36992,-2.05395,0.97588,0.9506
360.158,41.4375,-2.08248,0.97914,0.95012
360.858,41.50515,-2.11101,0.98298,0.94964
361.558,41.5728,-2.13879,0.98929,0.94916
362.258,41.6407,-2.16624,0.99302,0.94868
362.958,41.70836,-2.19589,0.99032,0.9482
363.658,41.77642,-2.22453,0.99041,0.94772
364.358,41.84415,-2.25239,0.988,0.94724
365.058,41.912,-2.28027,0.98142,0.94676
365.758,41.97971,-2.31184,0.97741,0.94627
366.458,42.04752,-2.33945,0.97195,0.94579
367.158,42.11527,-2.36783,0.96074,0.9453
367.858,42.1832,-2.39561,0.94926,0.94482
368.558,42.25077,-2.42182,0.93522,0.94433
369.258,42.31858,-2.44807,0.91922,0.94384
369.958,42.3864,-2.47405,0.9027,0.94336
370.658,42.45458,-2.50212,0.88329,0.94287
371.358,42.5225,-2.52725,0.86166,0.94238
372.058,42.5901,-2.55189,0.83976,0.94189
372.758,42.6576,-2.57523,0.81622,0.9414
373.458,42.72527,-2.59668,0.78968,0.94091
374.158,42.79293,-2.61903,0.75983,0.94041
374.858,42.8607,-2.64004,0.73258,0.93992
375.558,42.92832,-2.66019,0.70032,0.93943
376.258,42.99595,-2.67865,0.6694,0.93893
376.958,43.06375,-2.69787,0.63775,0.93844
377.658,43.1314,-2.71494,0.60418,0.93794
378.358,43.19917,-2.7306,0.57058,0.93745
379.058,43.26679,-2.74426,0.53835,0.93695
379.758,43.33449,-2.75972,0.50774,0.93645
380.458,43.40238,-2.77275,0.47765,0.93596
381.158,43.47023,-2.78368,0.44486,0.93546
381.858,43.53802,-2.79352,0.41221,0.93496
382.558,43.6059,-2.80417,0.38505,0.93446
383.258,43.67375,-2.81369,0.35892,0.93396
383.958,43.74174,-2.82259,0.33459,0.93346
384.658,43.80983,-2.83033,0.30872,0.93296
385.358,43.8778,-2.8369,0.28975,0.93245
386.058,43.94575,-2.84175,0.27166,0.93195
386.758,44.01348,-2.84805,0.25514,0.93145
387.458,44.08149,-2.85346,0.23652,0.93094
388.158,44.14933,-2.85858,0.22244,0.93044
388.858,44.21737,-2.86172,0.2105,0.92993
389.558,44.28521,-2.86505,0.20222,0.92942
390.258,44.3532,-2.86921,0.19526,0.92892
390.958,44.42109,-2.87271,0.18599,0.92841
391.658,44.48894,-2.87614,0.17699,0.9279
392.358,44.5569,-2.87868,0.17516,0.92739
393.058,44.62465,-2.88182,0.1731,0.92688
393.758,44.69263,-2.88364,0.16732,0.92637
394.458,44.76044,-2.88655,0.16401,0.92586
395.158,44.82837,-2.89131,0.16449,0.92535
395.858,44.8962,-2.89208,0.1603,0.92484
396.558,44.96419,-2.89504,0.15836,0.92433
397.258,45.03217,-2.89788,0.15545,0.92381
397.958,45.1002,-2.89912,0.15454,0.9233
398.658,45.16796,-2.90188,0.15052,0.92278
399.358,45.23587,-2.90506,0.14976,0.92227
400.058,45.3039,-2.90654,0.14824,0.92175
400.758,45.37226,-2.90925,0.14766,0.92124
401.458,45.44048,-2.91189,0.14679,0.92072
402.158,45.50863,-2.91383,0.14316,0.9202
402.858,45.57675,-2.91678,0.14194,0.91968
403.558,45.64498,-2.9188,0.13956,0.91916
404.258,45.71335,-2.92024,0.13758,0.91864
404.958,45.78144,-2.92295,0.13678,0.91812
405.658,45.84949,-2.92487,0.13624,0.9176
406.358,45.9176,-2.92841,0.1324,0.91708
407.058,45.9859,-2.92986,0.12973,0.91656
407.758,46.0542,-2.93149,0.12997,0.91604
408.458,46.1222,-2.93277,0.12764,0.91551
409.158,46.19024,-2.93663,0.12915,0.91499
409.858,46.25841,-2.93848,0.12555,0.91447
410.558,46.32666,-2.94065,0.12556,0.91394
411.258,46.39499,-2.9419,0.12304,0.91342
411.958,46.4634,-2.94323,0.1219,0.91289
412.658,46.53165,-2.94629,0.11788,0.91236
413.358,46.59993,-2.94892,0.11774,0.91184
414.058,46.66816,-2.95159,0.11546,0.91131
414.758,46.73643,-2.95436,0.11166,0.91078
415.458,46.80489,-2.95571,0.11243,0.91025
416.158,46.87295,-2.95869,0.10928,0.90972
416.858,46.94135,-2.95989,0.10896,0.90919
417.558,47.00945,-2.96129,0.10828,0.90866
418.258,47.07788,-2.96397,0.10619,0.90813
418.958,47.14606,-2.96661,0.10367,0.9076
419.658,47.21434,-2.96784,0.10275,0.90706
420.358,47.28269,-2.97018,0.10129,0.90653
421.058,47.351,-2.97316,0.10321,0.906
421.758,47.41924,-2.97514,0.09725019,0.90546
422.458,47.48753,-2.97854,0.09854931,0.90493
423.158,47.55601,-2.97887,0.09495578,0.90439
423.858,47.62451,-2.98127,0.09674368,0.90386
424.558,47.6928,-2.9826,0.09433065,0.90332
425.258,47.76125,-2.98524,0.09400426,0.90278
425.958,47.82966,-2.98654,0.09291528,0.90225
426.658,47.89822,-2.98943,0.09064691,0.90171
427.358,47.9667,-2.99217,0.09121281,0.90117
428.058,48.03529,-2.99594,0.08945541,0.90063
428.758,48.10394,-2.99767,0.0886042,0.90009
429.458,48.17242,-2.99893,0.0896052,0.89955
430.158,48.241,-3.00061,0.08862603,0.89901
430.858,48.30968,-3.0032,0.08511738,0.89847
431.558,48.37858,-3.00454,0.08289641,0.89792
432.258,48.44747,-3.00564,0.08522345,0.89738
432.958,48.5161,-3.0072,0.08396414,0.89684
433.658,48.58483,-3.01022,0.08302225,0.89629
434.358,48.6535,-3.01252,0.08251372,0.89575
435.058,48.72235,-3.01427,0.08522209,0.8952
435.758,48.79102,-3.01692,0.08409446,0.89466
436.458,48.85971,-3.01823,0.08445213,0.89411
437.158,48.92843,-3.0182,0.08390144,0.89357
437.858,48.99742,-3.0225,0.08157181,0.89302
438.558,49.06624,-3.02687,0.08301933,0.89247
439.258,49.13518,-3.02699,0.08735212,0.89192
439.958,49.20386,-3.02727,0.08641849,0.89138
440.658,49.2727,-3.02892,0.08982358,0.89083
441.358,49.3414,-3.03098,0.08993857,0.89028
442.058,49.4103,-3.03394,0.09268103,0.88973
442.758,49.47922,-3.03493,0.09278902,0.88918
443.458,49.54805,-3.03764,0.09443901,0.88862
444.158,49.61698,-3.04064,0.09326674,0.88807
444.858,49.68592,-3.04185,0.09619069,0.88752
445.558,49.75472,-3.04315,0.09822524,0.88697
446.258,49.82352,-3.04514,0.10087,0.88641
446.958,49.8924,-3.04717,0.10085,0.88586
447.658,49.96118,-3.04989,0.10383,0.88531
448.358,50.03007,-3.05114,0.10166,0.88475
449.058,50.0987,-3.05246,0.10686,0.8842
449.758,50.16772,-3.05394,0.10909,0.88364
450.458,50.23658,-3.0566,0.11058,0.88308
451.158,50.3056,-3.05904,0.11178,0.88253
451.858,50.37468,-3.05986,0.11354,0.88197
452.558,50.44364,-3.06067,0.11448,0.88141
453.258,50.5126,-3.06128,0.11933,0.88085
453.958,50.58148,-3.06281,0.11939,0.88029
454.658,50.6504,-3.06497,0.12116,0.87973
455.358,50.71913,-3.06781,0.125,0.87917
456.058,50.78802,-3.06906,0.12519,0.87861
456.758,50.85678,-3.07046,0.12842,0.87805
457.458,50.92561,-3.07176,0.13144,0.87749
458.158,50.9942,-3.07308,0.13113,0.87693
458.858,51.06278,-3.0744,0.13456,0.87637
459.558,51.13149,-3.07571,0.13765,0.8758
460.258,51.2004,-3.07835,0.1378,0.87524
460.958,51.26932,-3.07927,0.13859,0.87468
461.658,51.3382,-3.08097,0.14078,0.87411
462.358,51.40698,-3.08229,0.14167,0.87355
463.058,51.47572,-3.08356,0.14716,0.87298
463.758,51.54444,-3.08486,0.14794,0.87242
464.458,51.61327,-3.087,0.14983,0.87185
465.158,51.68231,-3.087,0.14925,0.87128
465.858,51.75139,-3.08951,0.15141,0.87072
466.558,51.8205,-3.09085,0.1526,0.87015
467.258,51.8893,-3.09218,0.15321,0.86958
467.958,51.95825,-3.09211,0.15507,0.86901
468.658,52.02707,-3.09304,0.15627,0.86844
469.358,52.0959,-3.09579,0.15868,0.86787
470.058,52.1648,-3.09584,0.15872,0.8673
470.758,52.23369,-3.09726,0.16124,0.86673
471.458,52.30265,-3.09772,0.16081,0.86616
472.158,52.37157,-3.09919,0.1614,0.86559
472.858,52.44064,-3.1004,0.16258,0.86502
473.558,52.5099,-3.10203,0.16115,0.86444
474.258,52.579,-3.10335,0.16404,0.86387
474.958,52.64813,-3.10566,0.16571,0.8633
475.658,52.71705,-3.10613,0.16552,0.86272
476.358,52.786,-3.10726,0.1684,0.86215
477.058,52.8549,-3.10725,0.16652,0.86158
477.758,52.9241,-3.10862,0.16747,0.861
478.458,52.99309,-3.10887,0.16434,0.86043
479.158,53.06199,-3.11097,0.16505,0.85985
479.858,53.1309,-3.11224,0.16642,0.85927
480.558,53.19987,-3.11224,0.16815,0.8587
481.258,53.26889,-3.1138,0.16711,0.85812
481.958,53.3378,-3.11487,0.16921,0.85754
482.658,53.4065,-3.11619,0.17155,0.85696
483.358,53.4754,-3.1167,0.17217,0.85638
484.058,53.54421,-3.11828,0.17148,0.85581
484.758,53.6134,-3.12015,0.17329,0.85523
485.458,53.68252,-3.12014,0.17266,0.85465
486.158,53.7518,-3.12159,0.17404,0.85407
486.858,53.82088,-3.12408,0.17312,0.85348
487.558,53.88992,-3.12408,0.17823,0.8529
488.258,53.959,-3.12545,0.17596,0.85232
488.958,54.0281,-3.12573,0.17487,0.85174
489.658,54.0974,-3.12617,0.1748,0.85116
490.358,54.16653,-3.12705,0.17532,0.85057
491.058,54.236,-3.12839,0.17265,0.84999
491.758,54.3053,-3.12968,0.1761,0.84941
492.458,54.37475,-3.12967,0.17683,0.84882
493.158,54.44405,-3.13098,0.17735,0.84824
493.858,54.5134,-3.13231,0.17795,0.84765
494.558,54.58279,-3.13228,0.17778,0.84707
495.258,54.6523,-3.13362,0.17678,0.84648
495.958,54.7218,-3.13461,0.17723,0.8459
496.658,54.79139,-3.13466,0.17973,0.84531
497.358,54.86076,-3.13594,0.17649,0.84472
498.058,54.93031,-3.13725,0.17899,0.84413
498.758,54.99965,-3.13856,0.17891,0.84355
499.458,55.0692,-3.1399,0.18367,0.84296
500.158,55.1385,-3.13989,0.18619,0.84237
500.858,55.20789,-3.14119,0.18343,0.84178
501.558,55.27717,-3.14163,0.18726,0.84119
502.258,55.34641,-3.14387,0.18968,0.8406
502.958,55.4157,-3.14383,0.1896,0.84001
503.658,55.4848,-3.14383,0.18944,0.83942
504.358,55.55406,-3.14515,0.19409,0.83883
505.058,55.62325,-3.14518,0.1924,0.83824
505.758,55.69235,-3.14648,0.19422,0.83765
506.458,55.76155,-3.14778,0.19427,0.83705
507.158,55.8308,-3.1491,0.19562,0.83646
507.858,55.9003,-3.14976,0.19509,0.83587
508.558,55.9696,-3.15042,0.19746,0.83528
509.258,56.03906,-3.15173,0.19794,0.83468
509.958,56.10841,-3.15308,0.20032,0.83409
510.658,56.17755,-3.15305,0.20008,0.83349
511.358,56.2468,-3.15442,0.2004,0.8329
512.058,56.3162,-3.15566,0.20435,0.8323
512.758,56.3857,-3.15565,0.20617,0.83171
513.458,56.45494,-3.15436,0.2048,0.83111
514.158,56.5241,-3.15704,0.20864,0.83052
514.858,56.5934,-3.15694,0.21199,0.82992
515.558,56.66271,-3.15765,0.21688,0.82932
516.258,56.7319,-3.15766,0.21625,0.82872
516.958,56.80106,-3.15897,0.22023,0.82813
517.658,56.87024,-3.16029,0.2199,0.82753
518.358,56.9396,-3.16161,0.2242,0.82693
519.058,57.0091,-3.16127,0.22542,0.82633
519.758,57.0785,-3.16249,0.22654,0.82573
520.458,57.1478,-3.16261,0.228,0.82513
521.158,57.21711,-3.16326,0.23157,0.82453
521.858,57.28649,-3.1638,0.23192,0.82393
522.558,57.3561,-3.1665,0.23209,0.82333
523.258,57.42552,-3.16654,0.23136,0.82273
523.958,57.49487,-3.16653,0.23288,0.82213
524.658,57.5641,-3.16784,0.23209,0.82153
525.358,57.6335,-3.16917,0.23265,0.82093
526.058,57.7027,-3.16929,0.23368,0.82032
526.758,57.7722,-3.1705,0.23715,0.81972
527.458,57.8416,-3.1718,0.2348,0.81912
528.158,57.91121,-3.17145,0.2357,0.81851
528.858,57.98058,-3.17147,0.23692,0.81791
529.558,58.05005,-3.1718,0.23771,0.81731
530.258,58.1196,-3.17311,0.23791,0.8167
530.958,58.18914,-3.17443,0.23598,0.8161
531.658,58.25865,-3.17443,0.23632,0.81549
532.358,58.32805,-3.17523,0.23126,0.81489
533.058,58.39755,-3.17575,0.22528,0.81428
533.758,58.46711,-3.17683,0.22396,0.81368
534.458,58.5368,-3.17706,0.22073,0.81307
535.158,58.60643,-3.17706,0.21771,0.81246
535.858,58.6762,-3.17837,0.2169,0.81186
536.558,58.7461,-3.17839,0.21553,0.81125
537.258,58.81598,-3.17969,0.21567,0.81064
537.958,58.88564,-3.18101,0.21459,0.81003
538.658,58.9551,-3.18238,0.21113,0.80942
539.358,59.0244,-3.18233,0.21111,0.80882
540.058,59.09397,-3.18267,0.20872,0.80821
540.758,59.1637,-3.18435,0.20567,0.8076
541.458,59.23336,-3.1864,0.20745,0.80699
542.158,59.30299,-3.18595,0.203,0.80638
542.858,59.37256,-3.18591,0.2046,0.80577
543.558,59.4423,-3.18628,0.20266,0.80516
544.258,59.51198,-3.18628,0.20177,0.80455
544.958,59.5818,-3.18759,0.20111,0.80394
545.658,59.6517,-3.18759,0.20071,0.80332
546.358,59.7215,-3.18633,0.19832,0.80271
547.058,59.79124,-3.18892,0.20067,0.8021
547.758,59.86101,-3.18892,0.19758,0.80149
548.458,59.9308,-3.18892,0.1985,0.80088
549.158,60.00055,-3.19023,0.20077,0.80026
549.858,60.0703,-3.19156,0.19761,0.79965
550.558,60.14004,-3.19188,0.20009,0.79904
551.258,60.20991,-3.19188,0.19909,0.79842
551.958,60.27958,-3.19319,0.19955,0.79781
552.658,60.34929,-3.1932,0.20254,0.7972
553.358,60.41876,-3.19451,0.19861,0.79658
554.058,60.48825,-3.19483,0.20024,0.79597
554.758,60.55785,-3.19484,0.20232,0.79535
555.458,60.62744,-3.19618,0.20474,0.79474
556.158,60.69724,-3.19615,0.20276,0.79412
556.858,60.76705,-3.19462,0.2044,0.7935
557.558,60.837,-3.19756,0.20514,0.79289
558.258,60.9069,-3.19864,0.20578,0.79227
558.958,60.9764,-3.199,0.2068,0.79165
559.658,61.046,-3.20021,0.20801,0.79104
560.358,61.1157,-3.20132,0.20605,0.79042
561.058,61.1857,-3.20153,0.20788,0.7898
561.758,61.25544,-3.20153,0.20788,0.78919
562.458,61.3253,-3.20285,0.21291,0.78857
563.158,61.39513,-3.20284,0.2121,0.78795
563.858,61.4648,-3.20421,0.21073,0.78733
564.558,61.53454,-3.20416,0.21139,0.78671
565.258,61.60426,-3.20418,0.21439,0.78609
565.958,61.674,-3.20552,0.21358,0.78547
566.658,61.74357,-3.20678,0.21543,0.78485
567.358,61.8132,-3.20646,0.2166,0.78423
568.058,61.8828,-3.20646,0.2161,0.78361
568.758,61.9526,-3.20646,0.21867,0.78299
569.458,62.0223,-3.20782,0.21779,0.78237
570.158,62.0921,-3.20907,0.2171,0.78175
570.858,62.16182,-3.20909,0.21978,0.78113
571.558,62.2315,-3.21041,0.21836,0.78051
572.258,62.30124,-3.2104,0.21922,0.77989
572.958,62.37095,-3.21073,0.22002,0.77926
573.658,62.4409,-3.21139,0.22064,0.77864
574.358,62.51079,-3.21173,0.21817,0.77802
575.058,62.5806,-3.21305,0.22004,0.7774
575.758,62.65041,-3.21242,0.22272,0.77678
576.458,62.7204,-3.21436,0.22172,0.77615
577.158,62.7906,-3.21303,0.22069,0.77553
577.858,62.86054,-3.21436,0.21866,0.77491
578.558,62.9303,-3.21436,0.21981,0.77428
579.258,63.0001,-3.21633,0.21753,0.77366
579.958,63.06994,-3.21633,0.22085,0.77303
580.658,63.1396,-3.21765,0.21832,0.77241
581.358,63.20936,-3.21765,0.22248,0.77178
582.058,63.2792,-3.21761,0.22426,0.77116
582.758,63.34927,-3.21764,0.22037,0.77053
583.458,63.41919,-3.21962,0.22274,0.76991
584.158,63.4891,-3.22054,0.22181,0.76928
584.858,63.55895,-3.22165,0.22329,0.76866
585.558,63.62871,-3.22005,0.22338,0.76803
586.258,63.69836,-3.22028,0.22372,0.76741
586.958,63.7682,-3.22028,0.22556,0.76678
587.658,63.83809,-3.2222,0.22475,0.76615
588.358,63.90789,-3.22291,0.2224,0.76553
589.058,63.9778,-3.22339,0.2241,0.7649
589.758,64.04762,-3.22423,0.22581,0.76427
590.458,64.11757,-3.22423,0.22609,0.76364
591.158,64.18755,-3.22424,0.22361,0.76302
591.858,64.2576,-3.22686,0.22508,0.76239
592.558,64.3279,-3.22562,0.2251,0.76176
593.258,64.39796,-3.22686,0.22528,0.76113
593.958,64.46819,-3.22737,0.22621,0.7605
594.658,64.5384,-3.2288,0.22734,0.75988
595.358,64.60897,-3.22781,0.22507,0.75925
596.058,64.67962,-3.22816,0.22772,0.75862
596.758,64.7501,-3.22949,0.22449,0.75799
597.458,64.8205,-3.22949,0.22594,0.75736
598.158,64.891,-3.22991,0.22627,0.75673
598.858,64.96146,-3.23081,0.22775,0.7561
599.558,65.03175,-3.23081,0.22843,0.75547
600.258,65.1019,-3.23077,0.22609,0.75484
600.958,65.1722,-3.23212,0.22842,0.75421
601.658,65.24244,-3.23334,0.22682,0.75358
602.358,65.31262,-3.23213,0.22667,0.75295
603.058,65.38291,-3.23346,0.22848,0.75232
603.758,65.45317,-3.23476,0.22896,0.75169
604.458,65.5234,-3.23476,0.22817,0.75105
605.158,65.59347,-3.23476,0.22502,0.75042
605.858,65.6636,-3.23476,0.22965,0.74979
606.558,65.73371,-3.23608,0.23053,0.74916
607.258,65.80368,-3.23671,0.22999,0.74853
607.958,65.87366,-3.23675,0.22965,0.7479
608.658,65.94364,-3.23699,0.225,0.74726
609.358,66.01395,-3.23805,0.22992,0.74663
610.058,66.08402,-3.23805,0.22929,0.746
610.758,66.15411,-3.23938,0.22922,0.74537
611.458,66.22407,-3.23937,0.2285,0.74473
612.158,66.29411,-3.24069,0.22899,0.7441
612.858,66.3641,-3.24069,0.22864,0.74347
613.558,66.43429,-3.24071,0.22729,0.74283
614.258,66.50457,-3.23999,0.22917,0.7422
614.958,66.57471,-3.24134,0.23096,0.74157
615.658,66.6447,-3.24134,0.22926,0.74093
616.358,66.71476,-3.24134,0.22986,0.7403
617.058,66.78494,-3.2425,0.23097,0.73966
617.758,66.85521,-3.24233,0.23264,0.73903
618.458,66.92532,-3.24365,0.23419,0.73839
619.158,66.99571,-3.2443,0.23103,0.73776
619.858,67.06612,-3.2443,0.23309,0.73713
620.558,67.13683,-3.24453,0.23447,0.73649
621.258,67.20721,-3.24463,0.23176,0.73586
621.958,67.27761,-3.24595,0.23473,0.73522
622.658,67.34787,-3.24595,0.23166,0.73458
623.358,67.41835,-3.24595,0.23188,0.73395
624.058,67.48881,-3.24722,0.23601,0.73331
624.758,67.55918,-3.24721,0.23413,0.73268
625.458,67.6296,-3.24726,0.23122,0.73204
626.158,67.7,-3.24726,0.23368,0.73141
626.858,67.7707,-3.24726,0.23225,0.73077
627.558,67.8411,-3.24858,0.23374,0.73013
628.258,67.9118,-3.2489,0.23461,0.7295
628.958,67.98244,-3.24891,0.23053,0.72886
629.658,68.05311,-3.24901,0.23382,0.72822
630.358,68.12342,-3.24989,0.22817,0.72759
631.058,68.1936,-3.25023,0.23139,0.72695
631.758,68.26405,-3.25023,0.2308,0.72631
632.458,68.33458,-3.25023,0.23103,0.72568
633.158,68.40521,-3.25156,0.22864,0.72504
633.858,68.4756,-3.25286,0.22841,0.7244
634.558,68.54598,-3.25287,0.23008,0.72376
635.258,68.61645,-3.25191,0.22797,0.72313
635.958,68.68687,-3.25286,0.23045,0.72249
636.658,68.7572,-3.25286,0.23379,0.72185
637.358,68.82763,-3.25352,0.23109,0.72121
638.058,68.89806,-3.25352,0.22822,0.72057
638.758,68.96856,-3.25483,0.22992,0.71994
639.458,69.0389,-3.25483,0.23115,0.7193
640.158,69.10932,-3.25483,0.23315,0.71866
640.858,69.17962,-3.25483,0.22768,0.71802
641.558,69.25,-3.25615,0.23095,0.71738
642.258,69.3202,-3.25747,0.22978,0.71674
642.958,69.39014,-3.25747,0.22955,0.71611
643.658,69.4603,-3.25783,0.23004,0.71547
644.358,69.53034,-3.25878,0.22752,0.71483
645.058,69.60077,-3.25812,0.22825,0.71419
645.758,69.67095,-3.25812,0.22763,0.71355
646.458,69.74117,-3.25812,0.23042,0.71291
647.158,69.81125,-3.2578,0.23009,0.71227
647.858,69.8814,-3.25911,0.23147,0.71163
648.558,69.95175,-3.26053,0.23043,0.71099
649.258,70.02208,-3.25926,0.22791,0.71035
649.958,70.09219,-3.25791,0.23101,0.70971
650.658,70.16226,-3.25792,0.22815,0.70907
651.358,70.23261,-3.25922,0.23025,0.70843
652.058,70.30309,-3.25922,0.23066,0.70779
652.758,70.37354,-3.2598,0.22761,0.70715
653.458,70.44385,-3.26021,0.22586,0.70651
654.158,70.51411,-3.26023,0.231,0.70587
654.858,70.58444,-3.26191,0.22478,0.70523
655.558,70.65479,-3.26186,0.22669,0.70459
656.258,70.72531,-3.26186,0.22745,0.70395
656.958,70.79563,-3.26316,0.23265,0.70331
657.658,70.86601,-3.26351,0.23168,0.70267
658.358,70.93645,-3.26334,0.23288,0.70203
659.058,71.00723,-3.26317,0.23096,0.70139
659.758,71.0779,-3.26317,0.2294,0.70075
660.458,71.14851,-3.26317,0.22953,0.70011
661.158,71.21897,-3.26317,0.22563,0.69947
661.858,71.28954,-3.26316,0.23143,0.69883
662.558,71.36024,-3.26186,0.23004,0.69818
663.258,71.43104,-3.26317,0.22977,0.69754
663.958,71.50183,-3.26317,0.23076,0.6969
664.658,71.57275,-3.26317,0.22492,0.69626
665.358,71.64355,-3.26318,0.22622,0.69562
666.058,71.71429,-3.26449,0.22889,0.69498
666.758,71.78478,-3.26717,0.23106,0.69434
667.458,71.85518,-3.26558,0.22848,0.6937
668.158,71.92591,-3.26459,0.22778,0.69305
668.858,71.99653,-3.26459,0.22997,0.69241
669.558,72.0673,-3.26583,0.22501,0.69177
670.258,72.13781,-3.26591,0.22353,0.69113
670.958,72.2084,-3.26675,0.22424,0.69049
671.658,72.2791,-3.26722,0.22498,0.68985
672.358,72.34963,-3.26722,0.22573,0.68921
673.058,72.42021,-3.26722,0.22788,0.68856
673.758,72.49053,-3.26689,0.22358,0.68792
674.458,72.5612,-3.26689,0.22571,0.68728
675.158,72.63176,-3.26739,0.22266,0.68664
675.858,72.70229,-3.26825,0.22787,0.686
676.558,72.77285,-3.2669,0.22411,0.68535
677.258,72.84348,-3.26691,0.22266,0.68471
677.958,72.9143,-3.26821,0.22582,0.68407
678.658,72.98484,-3.26692,0.22608,0.68343
679.358,73.05537,-3.26757,0.22598,0.68279
680.058,73.1259,-3.26822,0.22376,0.68214
680.758,73.19629,-3.26822,0.22275,0.6815
681.458,73.2668,-3.26822,0.22197,0.68086
682.158,73.3373,-3.26932,0.22416,0.68022
682.858,73.4079,-3.26955,0.22806,0.67957
683.558,73.4783,-3.27085,0.22416,0.67893
684.258,73.54894,-3.27085,0.22555,0.67829
684.958,73.6194,-3.27085,0.22984,0.67765
685.658,73.68977,-3.27085,0.22957,0.67701
686.358,73.75999,-3.27085,0.22837,0.67636
687.058,73.83043,-3.27085,0.22529,0.67572
687.758,73.9009,-3.27212,0.22577,0.67508
688.458,73.97126,-3.27151,0.22541,0.67444
689.158,74.04165,-3.27151,0.22575,0.67379
689.858,74.11222,-3.27151,0.2255,0.67315
690.558,74.1828,-3.27253,0.22733,0.67251
691.258,74.25324,-3.27249,0.22483,0.67187
691.958,74.32366,-3.27246,0.22487,0.67122
692.658,74.3942,-3.27209,0.22686,0.67058
693.358,74.46504,-3.27349,0.22418,0.66994
694.058,74.53573,-3.27479,0.22811,0.6693
694.758,74.60637,-3.27479,0.22392,0.66865
695.458,74.67696,-3.27597,0.22354,0.66801
696.158,74.7478,-3.27495,0.22249,0.66737
696.858,74.8185,-3.27388,0.22316,0.66673
697.558,74.88898,-3.27275,0.21969,0.66609
698.258,74.95942,-3.27512,0.2215,0.66544
698.958,75.03,-3.27512,0.22137,0.6648
699.658,75.1005,-3.27512,0.21669,0.66416
700.358,75.1711,-3.27644,0.22126,0.66352
701.058,75.2418,-3.2738,0.22175,0.66287
701.758,75.31246,-3.27496,0.21698,0.66223
702.458,75.383,-3.27512,0.21857,0.66159
703.158,75.4537,-3.27511,0.21681,0.66095
703.858,75.52452,-3.27644,0.21931,0.6603
704.558,75.59541,-3.27517,0.21874,0.65966
705.258,75.66609,-3.2764,0.21535,0.65902
705.958,75.73674,-3.27646,0.21589,0.65838
706.658,75.8076,-3.27743,0.21606,0.65773
707.358,75.87861,-3.27775,0.21653,0.65709
708.058,75.94972,-3.27808,0.21735,0.65645
708.758,76.0208,-3.27913,0.21737,0.65581
709.458,76.0919,-3.27842,0.21428,0.65517
710.158,76.1631,-3.27842,0.21442,0.65452
710.858,76.23415,-3.27842,0.21318,0.65388
711.558,76.30512,-3.27842,0.2151,0.65324
712.258,76.37606,-3.2794,0.21499,0.6526
712.958,76.44697,-3.2794,0.21591,0.65196
713.658,76.518,-3.28044,0.21423,0.65131
714.358,76.58906,-3.28039,0.21749,0.65067
715.058,76.66016,-3.28039,0.21514,0.65003
715.758,76.7311,-3.27973,0.21329,0.64939
716.458,76.8019,-3.27973,0.20919,0.64875
717.158,76.87269,-3.28104,0.21284,0.6481
717.858,76.94337,-3.28109,0.2144,0.64746
718.558,77.0141,-3.28139,0.20747,0.64682
719.258,77.08474,-3.28138,0.21027,0.64618
719.958,77.1554,-3.28138,0.21389,0.64554
720.658,77.22588,-3.28138,0.21188,0.64489
721.358,77.2963,-3.28138,0.21068,0.64425
722.058,77.3667,-3.28138,0.21283,0.64361
722.758,77.43751,-3.28169,0.20837,0.64297
723.458,77.50828,-3.2817,0.21307,0.64233
724.158,77.57905,-3.28104,0.21442,0.64169
724.858,77.6499,-3.28104,0.21176,0.64105
725.558,77.72075,-3.28137,0.21473,0.6404
726.258,77.79146,-3.28275,0.21136,0.63976
726.958,77.86233,-3.28269,0.20978,0.63912
727.658,77.93313,-3.28265,0.21221,0.63848
728.358,78.00408,-3.28368,0.21332,0.63784
729.058,78.07459,-3.28403,0.21513,0.6372
729.758,78.14511,-3.28268,0.2141,0.63656
730.458,78.2158,-3.28404,0.22167,0.63592
731.158,78.28663,-3.28465,0.22195,0.63528
731.858,78.35754,-3.28435,0.21781,0.63464
732.558,78.42851,-3.28434,0.2161,0.634
733.258,78.49969,-3.28533,0.21683,0.63335
733.958,78.5708,-3.28533,0.21651,0.63271
734.658,78.64174,-3.28533,0.21424,0.63207
735.358,78.71256,-3.28533,0.21322,0.63143
736.058,78.78336,-3.28533,0.2131,0.63079
736.758,78.8541,-3.28534,0.21105,0.63015
737.458,78.925,-3.284,0.21286,0.62951
738.158,78.9962,-3.28531,0.21354,0.62887
738.858,79.06747,-3.28664,0.21289,0.62823
739.558,79.13843,-3.28697,0.213,0.62759
740.258,79.20925,-3.28565,0.21158,0.62695
740.958,79.2799,-3.28663,0.21018,0.62631
741.658,79.35073,-3.28697,0.21546,0.62567
742.358,79.42149,-3.28697,0.21026,0.62503
743.058,79.49226,-3.28661,0.20875,0.62439
743.758,79.5629,-3.28664,0.21201,0.62375
744.458,79.63343,-3.28653,0.21232,0.62311
745.158,79.70432,-3.28796,0.20664,0.62247
745.858,79.77511,-3.28796,0.20996,0.62184
746.558,79.84618,-3.28679,0.20838,0.6212
747.258,79.91716,-3.28796,0.20937,0.62056
747.958,79.98828,-3.2893,0.21349,0.61992
748.658,80.05933,-3.29061,0.20554,0.61928
749.358,80.1305,-3.28928,0.20791,0.61864
750.058,80.20138,-3.28928,0.20353,0.618
750.758,80.27255,-3.28928,0.20915,0.61736
751.458,80.34361,-3.28817,0.20702,0.61672
752.158,80.415,-3.28787,0.20651,0.61609
752.858,80.48626,-3.28992,0.20611,0.61545
753.558,80.55745,-3.28993,0.20142,0.61481
754.258,80.62876,-3.29124,0.19934,0.61417
754.958,80.6998,-3.29125,0.20453,0.61353
755.658,80.77086,-3.29126,0.20384,0.6129
756.358,80.84198,-3.29059,0.20529,0.61226
757.058,80.91311,-3.29059,0.20501,0.61162
757.758,80.98433,-3.29191,0.20701,0.61098
758.458,81.05536,-3.29058,0.20537,0.61034
759.158,81.1264,-3.29059,0.20347,0.60971
759.858,81.1974,-3.29059,0.20611,0.60907
760.558,81.26855,-3.2919,0.20926,0.60843
761.258,81.3398,-3.29189,0.21229,0.6078
761.958,81.41085,-3.29322,0.20939,0.60716
762.658,81.48199,-3.29322,0.21063,0.60652
763.358,81.55311,-3.29322,0.20759,0.60588
764.058,81.62431,-3.29322,0.20891,0.60525
764.758,81.69536,-3.29322,0.21011,0.60461
765.458,81.76631,-3.29256,0.20625,0.60398
766.158,81.83743,-3.29256,0.20642,0.60334
766.858,81.90862,-3.29387,0.20639,0.6027
767.558,81.98014,-3.29388,0.20689,0.60207
768.258,82.0513,-3.29388,0.20803,0.60143
768.958,82.1224,-3.29486,0.20743,0.6008
769.658,82.19315,-3.29486,0.20869,0.60016
770.358,82.26422,-3.29484,0.20853,0.59952
771.058,82.33535,-3.29421,0.2103,0.59889
771.758,82.40635,-3.29582,0.20948,0.59825
772.458,82.4772,-3.2957,0.21011,0.59762
773.158,82.548,-3.29446,0.20456,0.59698
773.858,82.6191,-3.29586,0.20584,0.59635
774.558,82.6899,-3.29586,0.2028,0.59571
775.258,82.7611,-3.29586,0.20616,0.59508
775.958,82.8322,-3.29586,0.20738,0.59444
776.658,82.90351,-3.29586,0.20119,0.59381
777.358,82.97451,-3.29586,0.20384,0.59318
778.058,83.04552,-3.29589,0.20431,0.59254
778.758,83.1165,-3.29586,0.20405,0.59191
779.458,83.1876,-3.29617,0.20313,0.59127
780.158,83.2584,-3.29722,0.20337,0.59064
780.858,83.3293,-3.2969,0.20212,0.59001
781.558,83.40007,-3.2975,0.20593,0.58937
782.258,83.47089,-3.2975,0.20572,0.58874
782.958,83.54194,-3.2975,0.20121,0.58811
783.658,83.6126,-3.29759,0.20402,0.58747
784.358,83.68392,-3.29716,0.20341,0.58684
785.058,83.75487,-3.29717,0.20095,0.58621
785.758,83.8262,-3.29717,0.20215,0.58558
786.458,83.8971,-3.29717,0.2009,0.58494
787.158,83.96817,-3.29717,0.20241,0.58431
787.858,84.03934,-3.29717,0.20771,0.58368
788.558,84.11055,-3.2975,0.20477,0.58305
789.258,84.18171,-3.29745,0.20096,0.58241
789.958,84.25278,-3.2975,0.2047,0.58178
790.658,84.32375,-3.2975,0.20575,0.58115
791.358,84.39485,-3.29751,0.20386,0.58052
792.058,84.46595,-3.29874,0.20258,0.57989
792.758,84.5374,-3.29879,0.20093,0.57926
793.458,84.60869,-3.29882,0.20235,0.57863
794.158,84.68013,-3.29882,0.20216,0.578
794.858,84.7513,-3.30014,0.20368,0.57737
795.558,84.82261,-3.30014,0.20636,0.57674
796.258,84.8937,-3.30014,0.20122,0.57611
796.958,84.96494,-3.29881,0.20152,0.57548
797.258,84.99539,-3.29882,0.19779,0.57521