File: 01_Data/Wood_Stud/STA/N2/10K_min/Wood_Stud_STA_N2_10KData_220126_R1.csv
##Temp./Â°C,Time/min,Mass loss(subtr.2)/mg,DSC(subtr.2)/(mW/mg),Sensit./(uV/mW)
49.219,10.01,-0.0328,0.02875296,1.07448
49.919,10.76861,-0.03476091,0.05718733,1.07443
50.619,10.97095,-0.03477892,0.08511737,1.07438
51.319,11.1218,-0.03655471,0.10491,1.07433
52.019,11.25108,-0.03731779,0.12215,1.07428
52.719,11.36495,-0.03651305,0.1367,1.07422
53.419,11.47021,-0.0375052,0.1498,1.07417
54.119,11.57005,-0.03969826,0.16205,1.07411
54.819,11.6655,-0.03983607,0.17105,1.07406
55.519,11.75769,-0.04000714,0.17885,1.074
56.219,11.8462,-0.03883438,0.18568,1.07394
56.919,11.93215,-0.03911992,0.19169,1.07388
57.619,12.0165,-0.03808438,0.19783,1.07382
58.319,12.09903,-0.03891535,0.20312,1.07376
59.019,12.1805,-0.03893747,0.20655,1.0737
59.719,12.26089,-0.0389352,0.21243,1.07363
60.419,12.34126,-0.03951896,0.21632,1.07357
61.119,12.42022,-0.04045795,0.22059,1.0735
61.819,12.4986,-0.04032157,0.22518,1.07343
62.519,12.57648,-0.03918029,0.22725,1.07336
63.219,12.65405,-0.04013638,0.22955,1.07329
63.919,12.73095,-0.04181449,0.23344,1.07322
64.619,12.80766,-0.04262741,0.23609,1.07315
65.319,12.88422,-0.04186265,0.23979,1.07308
66.019,12.96035,-0.04247945,0.24012,1.073
66.719,13.03645,-0.04182201,0.24435,1.07293
67.419,13.11224,-0.04308943,0.24648,1.07285
68.119,13.18759,-0.04366206,0.24878,1.07277
68.819,13.26249,-0.04309283,0.25215,1.07269
69.519,13.33671,-0.04311519,0.25579,1.07261
70.219,13.4114,-0.04338822,0.25606,1.07253
70.919,13.4863,-0.04320763,0.25971,1.07245
71.619,13.56165,-0.04324682,0.26288,1.07237
72.319,13.6365,-0.04505101,0.26318,1.07228
73.019,13.7108,-0.04573993,0.26635,1.0722
73.719,13.7845,-0.0470668,0.26894,1.07211
74.419,13.85801,-0.04706006,0.2711,1.07202
75.119,13.9313,-0.04840445,0.27252,1.07193
75.819,14.00505,-0.04706166,0.27527,1.07184
76.519,14.0783,-0.04837521,0.27889,1.07175
77.219,14.1512,-0.04837215,0.28014,1.07166
77.919,14.2239,-0.04855918,0.27994,1.07156
78.619,14.29609,-0.04977646,0.2843,1.07147
79.319,14.36847,-0.0483795,0.28815,1.07137
80.019,14.44074,-0.04969012,0.28804,1.07127
80.719,14.51295,-0.04894974,0.29083,1.07117
81.419,14.58486,-0.05033315,0.29084,1.07108
82.119,14.65652,-0.04916464,0.29226,1.07097
82.819,14.72819,-0.04978077,0.29317,1.07087
83.519,14.79962,-0.04848024,0.29386,1.07077
84.219,14.87067,-0.04979993,0.29571,1.07067
84.919,14.94164,-0.05114588,0.29505,1.07056
85.619,15.01261,-0.05110996,0.29855,1.07045
86.319,15.08381,-0.05010084,0.29902,1.07035
87.019,15.15458,-0.05134499,0.29794,1.07024
87.719,15.22517,-0.05242994,0.29827,1.07013
88.419,15.29543,-0.05332988,0.29822,1.07002
89.119,15.3659,-0.05374001,0.29926,1.06991
89.819,15.43617,-0.0540876,0.29656,1.06979
90.519,15.506,-0.05505994,0.29668,1.06968
91.219,15.576,-0.05505816,0.29563,1.06956
91.919,15.64591,-0.05375306,0.29583,1.06945
92.619,15.71615,-0.05505478,0.29503,1.06933
93.319,15.786,-0.0563892,0.29176,1.06921
94.019,15.8555,-0.05638592,0.29375,1.06909
94.719,15.92505,-0.05638,0.29146,1.06897
95.419,15.9946,-0.05638,0.2907,1.06885
96.119,16.06426,-0.05642785,0.2908,1.06872
96.819,16.1337,-0.05637407,0.28965,1.0686
97.519,16.20281,-0.05768857,0.2853,1.06847
98.219,16.2718,-0.05880912,0.28537,1.06835
98.919,16.34102,-0.05769094,0.28391,1.06822
99.619,16.41017,-0.0576895,0.28414,1.06809
100.319,16.47929,-0.05901016,0.2827,1.06796
101.019,16.54826,-0.05900491,0.28256,1.06783
101.719,16.61737,-0.05895964,0.28102,1.0677
102.419,16.6864,-0.05901001,0.27975,1.06756
103.119,16.75532,-0.05901,0.27855,1.06743
103.819,16.82421,-0.05900998,0.27614,1.06729
104.519,16.893,-0.05914346,0.27721,1.06716
105.219,16.96167,-0.06032977,0.27573,1.06702
105.919,17.0303,-0.06131475,0.27509,1.06688
106.619,17.09875,-0.05999988,0.27545,1.06674
107.319,17.16734,-0.05996711,0.27466,1.0666
108.019,17.23607,-0.06035573,0.27385,1.06646
108.719,17.30472,-0.06039287,0.27344,1.06631
109.419,17.3732,-0.06187579,0.27521,1.06617
110.119,17.44139,-0.0617114,0.27209,1.06602
110.819,17.50981,-0.05922996,0.27221,1.06588
111.519,17.57822,-0.06056805,0.27064,1.06573
112.219,17.64663,-0.06054987,0.2711,1.06558
112.919,17.71515,-0.05925377,0.26932,1.06543
113.619,17.78368,-0.06041953,0.26971,1.06528
114.319,17.85229,-0.05923085,0.26828,1.06513
115.019,17.92073,-0.0592337,0.2694,1.06497
115.719,17.98925,-0.05993452,0.27073,1.06482
116.419,18.05738,-0.05919728,0.26993,1.06466
117.119,18.12554,-0.05955996,0.26906,1.06451
117.819,18.1936,-0.05955525,0.27024,1.06435
118.519,18.26203,-0.06052087,0.27005,1.06419
119.219,18.3305,-0.05923049,0.27044,1.06403
119.919,18.39875,-0.06045532,0.27153,1.06387
120.619,18.46687,-0.05954951,0.27018,1.06371
121.319,18.53503,-0.05951056,0.26871,1.06355
122.019,18.6033,-0.06088027,0.27131,1.06338
122.719,18.6714,-0.06086607,0.27174,1.06322
123.419,18.7397,-0.06219986,0.27132,1.06305
124.119,18.8078,-0.0631677,0.27455,1.06288
124.819,18.87576,-0.06285796,0.27272,1.06271
125.519,18.94375,-0.06252599,0.2742,1.06254
126.219,19.01175,-0.06188602,0.27281,1.06237
126.919,19.08011,-0.06318045,0.2749,1.0622
127.619,19.14808,-0.06318295,0.27392,1.06203
128.319,19.21625,-0.0618572,0.27619,1.06185
129.019,19.28431,-0.06186,0.27471,1.06168
129.719,19.35249,-0.06187816,0.27445,1.0615
130.419,19.42041,-0.06316995,0.2744,1.06132
131.119,19.48839,-0.06442764,0.27672,1.06115
131.819,19.55612,-0.06454133,0.27795,1.06097
132.519,19.62396,-0.06318066,0.2767,1.06079
133.219,19.69165,-0.06416686,0.27675,1.0606
133.919,19.75968,-0.06417,0.27815,1.06042
134.619,19.82744,-0.06416818,0.27633,1.06024
135.319,19.89534,-0.06158743,0.27712,1.06005
136.019,19.9631,-0.06153,0.27865,1.05987
136.719,20.03108,-0.06153275,0.27821,1.05968
137.419,20.0989,-0.06285077,0.2782,1.05949
138.119,20.1664,-0.06277881,0.27931,1.0593
138.819,20.23398,-0.0635099,0.28037,1.05911
139.519,20.30149,-0.06351038,0.28205,1.05892
140.219,20.3692,-0.06388688,0.2823,1.05873
140.919,20.43669,-0.06389258,0.28222,1.05853
141.619,20.5042,-0.0641816,0.28356,1.05834
142.319,20.5714,-0.06549263,0.28656,1.05814
143.019,20.63873,-0.06546873,0.28369,1.05795
143.719,20.70594,-0.06514841,0.28502,1.05775
144.419,20.77334,-0.06423125,0.28527,1.05755
145.119,20.84048,-0.06284085,0.28837,1.05735
145.819,20.90758,-0.06285003,0.28877,1.05715
146.519,20.9746,-0.06240507,0.28696,1.05694
147.219,21.04194,-0.06186997,0.28759,1.05674
147.919,21.10912,-0.06187006,0.28962,1.05654
148.619,21.17633,-0.06315733,0.28925,1.05633
149.319,21.24345,-0.06450381,0.29138,1.05613
150.019,21.31055,-0.06417277,0.29385,1.05592
150.719,21.37774,-0.06302261,0.29232,1.05571
151.419,21.4447,-0.06388027,0.29422,1.0555
152.119,21.5119,-0.06416163,0.29756,1.05529
152.819,21.57903,-0.06515077,0.29673,1.05508
153.519,21.64635,-0.06511326,0.29687,1.05486
154.219,21.71359,-0.0641739,0.29614,1.05465
154.919,21.78085,-0.06416001,0.29703,1.05443
155.619,21.84807,-0.06326054,0.29832,1.05422
156.319,21.91516,-0.06316345,0.29783,1.054
157.019,21.98225,-0.0644791,0.2998,1.05378
157.719,22.04926,-0.06317993,0.29896,1.05356
158.419,22.1164,-0.06320569,0.29791,1.05334
159.119,22.18369,-0.06449996,0.30028,1.05312
159.819,22.25103,-0.0655673,0.29999,1.0529
160.519,22.3184,-0.06584622,0.30045,1.05268
161.219,22.38563,-0.06575601,0.30286,1.05245
161.919,22.45263,-0.06482109,0.30187,1.05223
162.619,22.51953,-0.06482665,0.3029,1.052
163.319,22.5866,-0.06613991,0.30405,1.05177
164.019,22.65377,-0.06613862,0.30547,1.05154
164.719,22.72117,-0.06482105,0.30536,1.05131
165.419,22.78849,-0.06482009,0.30601,1.05108
166.119,22.85581,-0.06611861,0.30495,1.05085
166.819,22.92292,-0.06617055,0.30566,1.05062
167.519,22.98997,-0.06483,0.30686,1.05038
168.219,23.05708,-0.06484852,0.30831,1.05015
168.919,23.12422,-0.06549025,0.30944,1.04991
169.619,23.19132,-0.0641858,0.30969,1.04968
170.319,23.25822,-0.06416962,0.30966,1.04944
171.019,23.32524,-0.06584035,0.31263,1.0492
171.719,23.39249,-0.06614192,0.31214,1.04896
172.419,23.45985,-0.06482075,0.31289,1.04872
173.119,23.52719,-0.06580933,0.31442,1.04848
173.819,23.59433,-0.06581,0.31416,1.04823
174.519,23.66146,-0.06581,0.31581,1.04799
175.219,23.72855,-0.06581,0.31739,1.04774
175.919,23.79574,-0.06580749,0.31787,1.0475
176.619,23.8627,-0.06615905,0.31543,1.04725
177.319,23.92965,-0.06613696,0.31752,1.047
178.019,23.99665,-0.06741908,0.32004,1.04675
178.719,24.06364,-0.06743132,0.31794,1.0465
179.419,24.1307,-0.06614005,0.3202,1.04625
180.119,24.19752,-0.06614,0.31946,1.046
180.819,24.2645,-0.06613167,0.32142,1.04574
181.519,24.3315,-0.06580988,0.32286,1.04549
182.219,24.39808,-0.06581,0.32312,1.04523
182.919,24.465,-0.06580349,0.32535,1.04497
183.619,24.53183,-0.06712034,0.32393,1.04472
184.319,24.59919,-0.06711949,0.32228,1.04446
185.019,24.66613,-0.0677559,0.32665,1.0442
185.719,24.7329,-0.0677827,0.32641,1.04394
186.419,24.79965,-0.06613614,0.32591,1.04368
187.119,24.86636,-0.06614001,0.32794,1.04341
187.819,24.93318,-0.06613968,0.3292,1.04315
188.519,24.99995,-0.06745981,0.33146,1.04288
189.219,25.06616,-0.06746,0.33254,1.04262
189.919,25.13247,-0.06746,0.33173,1.04235
190.619,25.19941,-0.06745956,0.33395,1.04208
191.319,25.26683,-0.06679674,0.33307,1.04181
192.019,25.33436,-0.06679998,0.33233,1.04154
192.719,25.40126,-0.06684712,0.33589,1.04127
193.419,25.46797,-0.06945335,0.33516,1.041
194.119,25.53458,-0.07073986,0.33728,1.04073
194.819,25.6012,-0.07074,0.3376,1.04045
195.519,25.668,-0.07074,0.33801,1.04018
196.219,25.73479,-0.07073999,0.33994,1.0399
196.919,25.80153,-0.07025456,0.34112,1.03963
197.619,25.86831,-0.0679845,0.34091,1.03935
198.319,25.9349,-0.06932481,0.34193,1.03907
199.019,26.00189,-0.06799778,0.34292,1.03879
199.719,26.06876,-0.06925934,0.34505,1.03851
200.419,26.1354,-0.06932016,0.3463,1.03823
201.119,26.20214,-0.07060867,0.34317,1.03794
201.819,26.2688,-0.07062205,0.34847,1.03766
202.519,26.336,-0.0693347,0.3486,1.03738
203.219,26.4028,-0.07063904,0.35207,1.03709
203.919,26.4694,-0.07064492,0.35097,1.0368
204.619,26.53592,-0.06964988,0.35446,1.03651
205.319,26.6024,-0.07080239,0.35399,1.03623
206.019,26.6692,-0.07096998,0.35656,1.03594
206.719,26.73599,-0.07154865,0.35758,1.03564
207.419,26.803,-0.07090959,0.35827,1.03535
208.119,26.8696,-0.07096,0.35999,1.03506
208.819,26.9364,-0.07095296,0.36009,1.03477
209.519,27.0031,-0.07227611,0.36132,1.03447
210.219,27.06969,-0.07358927,0.36126,1.03418
210.919,27.1363,-0.07491276,0.36282,1.03388
211.619,27.20304,-0.07490969,0.36371,1.03358
212.319,27.27,-0.07622996,0.36444,1.03328
213.019,27.3368,-0.07648793,0.36723,1.03298
213.719,27.40356,-0.07481317,0.36866,1.03268
214.419,27.4702,-0.07559518,0.36837,1.03238
215.119,27.53711,-0.07754748,0.36926,1.03208
215.819,27.60391,-0.07623188,0.36988,1.03177
216.519,27.67057,-0.07623,0.37118,1.03147
217.219,27.73725,-0.07623093,0.37187,1.03116
217.919,27.8037,-0.0775264,0.37155,1.03086
218.619,27.87047,-0.07753223,0.37181,1.03055
219.319,27.937,-0.07887893,0.37264,1.03024
220.019,28.0036,-0.07985292,0.37242,1.02993
220.719,28.0702,-0.07985,0.37433,1.02962
221.419,28.13685,-0.07985097,0.37563,1.02931
222.119,28.2034,-0.08115618,0.37515,1.029
222.819,28.26993,-0.08117,0.37615,1.02868
223.519,28.33667,-0.08116749,0.37724,1.02837
224.219,28.40359,-0.08142908,0.37773,1.02805
224.919,28.47002,-0.08282,0.37814,1.02774
225.619,28.537,-0.08282145,0.37985,1.02742
226.319,28.60385,-0.08412242,0.38161,1.0271
227.019,28.6711,-0.0854457,0.38094,1.02678
227.719,28.7377,-0.08676023,0.38122,1.02646
228.419,28.8042,-0.08676157,0.38291,1.02614
229.119,28.8709,-0.08806912,0.38156,1.02582
229.819,28.93771,-0.08929352,0.38258,1.0255
230.519,29.0047,-0.08939002,0.38512,1.02517
231.219,29.07165,-0.08939755,0.38479,1.02485
231.919,29.1386,-0.09200184,0.38416,1.02452
232.619,29.20556,-0.0933844,0.38702,1.02419
233.319,29.27257,-0.09334167,0.38786,1.02387
234.019,29.33949,-0.09333794,0.38867,1.02354
234.719,29.4066,-0.09524282,0.38917,1.02321
235.419,29.47346,-0.09737886,0.39081,1.02288
236.119,29.54066,-0.09729173,0.39065,1.02255
236.819,29.60762,-0.09871425,0.39027,1.02221
237.519,29.67489,-0.10002,0.39198,1.02188
238.219,29.74196,-0.10267,0.39164,1.02155
238.919,29.80935,-0.10267,0.39274,1.02121
239.619,29.8765,-0.10536,0.39541,1.02088
240.319,29.9439,-0.10662,0.39522,1.02054
241.019,30.01115,-0.1066,0.39575,1.0202
241.719,30.07862,-0.10794,0.39674,1.01986
242.419,30.1461,-0.10925,0.39692,1.01952
243.119,30.2133,-0.11057,0.39957,1.01918
243.819,30.28057,-0.1119,0.40025,1.01884
244.519,30.3478,-0.11488,0.39831,1.0185
245.219,30.41498,-0.11666,0.39998,1.01815
245.919,30.4823,-0.11913,0.40343,1.01781
246.619,30.54948,-0.12044,0.40415,1.01746
247.319,30.6168,-0.12178,0.40325,1.01712
248.019,30.68403,-0.12428,0.40555,1.01677
248.719,30.75127,-0.1257,0.4063,1.01642
249.419,30.8184,-0.12941,0.40471,1.01607
250.119,30.88542,-0.13315,0.4061,1.01572
250.819,30.95253,-0.1371,0.40633,1.01537
251.519,31.0194,-0.13723,0.40815,1.01502
252.219,31.0864,-0.13995,0.40813,1.01467
252.919,31.1533,-0.14202,0.4105,1.01431
253.619,31.22043,-0.14423,0.40899,1.01396
254.319,31.2874,-0.14556,0.41069,1.0136
255.019,31.3543,-0.14687,0.4094,1.01324
255.719,31.42117,-0.14925,0.41069,1.01289
256.419,31.4882,-0.15305,0.41268,1.01253
257.119,31.5553,-0.1559,0.41262,1.01217
257.819,31.6222,-0.15838,0.41168,1.01181
258.519,31.68911,-0.16159,0.41548,1.01145
259.219,31.75605,-0.16576,0.4173,1.01109
259.919,31.82305,-0.16961,0.41706,1.01072
260.619,31.8899,-0.17374,0.41745,1.01036
261.319,31.95675,-0.17524,0.41684,1.01
262.019,32.0237,-0.17806,0.42056,1.00963
262.719,32.09053,-0.18141,0.42264,1.00926
263.419,32.15746,-0.18472,0.42271,1.0089
264.119,32.22418,-0.18767,0.42454,1.00853
264.819,32.29107,-0.19051,0.42305,1.00816
265.519,32.35785,-0.19543,0.42243,1.00779
266.219,32.4244,-0.19888,0.42465,1.00742
266.919,32.49119,-0.2006,0.42351,1.00705
267.619,32.55791,-0.20732,0.42363,1.00667
268.319,32.625,-0.21217,0.42716,1.0063
269.019,32.69185,-0.21591,0.42605,1.00593
269.719,32.7587,-0.21978,0.42867,1.00555
270.419,32.82573,-0.22424,0.42764,1.00517
271.119,32.8926,-0.22905,0.4306,1.0048
271.819,32.95952,-0.23294,0.42724,1.00442
272.519,33.02625,-0.23776,0.42867,1.00404
273.219,33.09301,-0.24296,0.43062,1.00366
273.919,33.1599,-0.24755,0.43036,1.00328
274.619,33.22694,-0.25148,0.4311,1.0029
275.319,33.2941,-0.25704,0.43212,1.00252
276.019,33.3613,-0.26274,0.43122,1.00213
276.719,33.42803,-0.26779,0.43444,1.00175
277.419,33.49492,-0.27303,0.43132,1.00136
278.119,33.56198,-0.2788,0.43443,1.00098
278.819,33.62905,-0.28487,0.43593,1.00059
279.519,33.69642,-0.29109,0.43377,1.0002
280.219,33.7635,-0.29758,0.43499,0.99982
280.919,33.83059,-0.30396,0.43631,0.99943
281.619,33.89775,-0.30836,0.43942,0.99904
282.319,33.9647,-0.31504,0.43823,0.99865
283.019,34.03164,-0.32105,0.4377,0.99825
283.719,34.09847,-0.32724,0.44276,0.99786
284.419,34.1654,-0.33215,0.44309,0.99747
285.119,34.23229,-0.3395,0.44513,0.99707
285.819,34.2993,-0.34664,0.44541,0.99668
286.519,34.36637,-0.3547,0.44522,0.99628
287.219,34.43355,-0.36036,0.44956,0.99589
287.919,34.50057,-0.36719,0.45106,0.99549
288.619,34.5676,-0.37502,0.45334,0.99509
289.319,34.63445,-0.38391,0.45438,0.99469
290.019,34.70146,-0.39197,0.45587,0.99429
290.719,34.7682,-0.39938,0.45908,0.99389
291.419,34.8352,-0.40759,0.46154,0.99349
292.119,34.90211,-0.41563,0.46309,0.99308
292.819,34.96926,-0.42338,0.4666,0.99268
293.519,35.03638,-0.43156,0.4675,0.99227
294.219,35.10328,-0.44026,0.4698,0.99187
294.919,35.1702,-0.44831,0.47178,0.99146
295.619,35.23713,-0.4572,0.47462,0.99106
296.319,35.30401,-0.46521,0.47705,0.99065
297.019,35.3714,-0.47478,0.47792,0.99024
297.719,35.43857,-0.48444,0.48261,0.98983
298.419,35.506,-0.49377,0.48635,0.98942
299.119,35.57312,-0.50342,0.48751,0.98901
299.819,35.6404,-0.51132,0.49148,0.9886
300.519,35.70745,-0.52349,0.49226,0.98818
301.219,35.7746,-0.53393,0.49603,0.98777
301.919,35.84186,-0.54365,0.50021,0.98735
302.619,35.90941,-0.55478,0.5052,0.98694
303.319,35.97685,-0.56603,0.50641,0.98652
304.019,36.04407,-0.57707,0.51087,0.98611
304.719,36.11125,-0.5897,0.51629,0.98569
305.419,36.1784,-0.59965,0.51878,0.98527
306.119,36.2455,-0.61175,0.52168,0.98485
306.819,36.31262,-0.62371,0.52783,0.98443
307.519,36.38007,-0.63673,0.53088,0.98401
308.219,36.44758,-0.64904,0.53472,0.98359
308.919,36.51501,-0.66176,0.53888,0.98316
309.619,36.5824,-0.67261,0.54189,0.98274
310.319,36.6496,-0.68569,0.54744,0.98232
311.019,36.71709,-0.7002,0.5495,0.98189
311.719,36.7846,-0.71277,0.55342,0.98147
312.419,36.85219,-0.72681,0.55928,0.98104
313.119,36.91964,-0.74151,0.56407,0.98061
313.819,36.98715,-0.75556,0.57077,0.98018
314.519,37.05457,-0.76947,0.57249,0.97975
315.219,37.12193,-0.78593,0.57744,0.97932
315.919,37.1889,-0.80223,0.58426,0.97889
316.619,37.25618,-0.81763,0.58701,0.97846
317.319,37.3237,-0.83137,0.59314,0.97803
318.019,37.39145,-0.84682,0.59754,0.9776
318.719,37.45916,-0.86402,0.60308,0.97716
319.419,37.5265,-0.87892,0.60785,0.97673
320.119,37.59393,-0.89589,0.61113,0.97629
320.819,37.6609,-0.91249,0.61763,0.97586
321.519,37.72822,-0.92823,0.61911,0.97542
322.219,37.79568,-0.94515,0.6242,0.97498
322.919,37.86374,-0.96211,0.62887,0.97454
323.619,37.9314,-0.98089,0.63278,0.9741
324.319,37.9987,-0.99944,0.63537,0.97366
325.019,38.06583,-1.01717,0.64123,0.97322
325.719,38.13312,-1.03546,0.6449,0.97278
326.419,38.20048,-1.05255,0.64606,0.97234
327.119,38.26806,-1.07117,0.65278,0.9719
327.819,38.3352,-1.08969,0.65529,0.97145
328.519,38.4024,-1.10916,0.65941,0.97101
329.219,38.46963,-1.12744,0.66358,0.97056
329.919,38.53683,-1.14515,0.66428,0.97011
330.619,38.60416,-1.16459,0.66796,0.96967
331.319,38.67151,-1.18341,0.67172,0.96922
332.019,38.73915,-1.20313,0.67552,0.96877
332.719,38.80665,-1.2239,0.67679,0.96832
333.419,38.87413,-1.24351,0.67773,0.96787
334.119,38.94157,-1.2606,0.67873,0.96742
334.819,39.009,-1.28123,0.67977,0.96697
335.519,39.07674,-1.30368,0.68501,0.96652
336.219,39.14431,-1.32372,0.68641,0.96606
336.919,39.21209,-1.34356,0.69056,0.96561
337.619,39.2795,-1.36271,0.69498,0.96515
338.319,39.34701,-1.38298,0.69615,0.9647
339.019,39.41458,-1.40361,0.69976,0.96424
339.719,39.48226,-1.42485,0.70425,0.96379
340.419,39.5501,-1.44701,0.70772,0.96333
341.119,39.61786,-1.46747,0.71549,0.96287
341.819,39.68553,-1.49143,0.72119,0.96241
342.519,39.75322,-1.5127,0.72632,0.96195
343.219,39.82077,-1.53195,0.73329,0.96149
343.919,39.88836,-1.55297,0.73802,0.96103
344.619,39.95552,-1.57459,0.74437,0.96057
345.319,40.02304,-1.59724,0.7499,0.9601
346.019,40.09013,-1.61932,0.75559,0.95964
346.719,40.158,-1.6417,0.76436,0.95918
347.419,40.2254,-1.66499,0.77023,0.95871
348.119,40.2933,-1.68946,0.77844,0.95825
348.819,40.36092,-1.71295,0.78452,0.95778
349.519,40.4287,-1.73428,0.79483,0.95731
350.219,40.4965,-1.75804,0.80223,0.95684
350.919,40.56436,-1.78256,0.81206,0.95637
351.619,40.63225,-1.80607,0.8208,0.95591
352.319,40.70002,-1.83067,0.83244,0.95544
353.019,40.76791,-1.85889,0.84236,0.95496
353.719,40.83574,-1.88277,0.85174,0.95449
354.419,40.90339,-1.907,0.85934,0.95402
355.119,40.97102,-1.93288,0.87249,0.95355
355.819,41.03867,-1.95909,0.88252,0.95307
356.519,41.10621,-1.98476,0.89091,0.9526
357.219,41.17392,-2.0116,0.90157,0.95212
357.919,41.2416,-2.03913,0.90823,0.95165
358.619,41.30977,-2.06582,0.91774,0.95117
359.319,41.37754,-2.09527,0.9252,0.95069
360.019,41.44538,-2.12411,0.92896,0.95022
360.719,41.51315,-2.15219,0.9347,0.94974
361.419,41.58088,-2.18025,0.94022,0.94926
362.119,41.64865,-2.20827,0.94499,0.94878
362.819,41.71638,-2.23802,0.94875,0.9483
363.519,41.78437,-2.26488,0.94683,0.94782
364.219,41.85236,-2.29328,0.94365,0.94733
364.919,41.92029,-2.32272,0.94147,0.94685
365.619,41.988,-2.34983,0.93809,0.94637
366.319,42.05558,-2.37788,0.93004,0.94588
367.019,42.12319,-2.40823,0.92435,0.9454
367.719,42.19093,-2.43473,0.90952,0.94491
368.419,42.2588,-2.46219,0.89772,0.94443
369.119,42.32677,-2.48993,0.88342,0.94394
369.819,42.3947,-2.51566,0.86646,0.94345
370.519,42.4625,-2.54141,0.84931,0.94296
371.219,42.53006,-2.56722,0.82808,0.94247
371.919,42.59771,-2.59267,0.80244,0.94198
372.619,42.66532,-2.6154,0.78172,0.94149
373.319,42.73301,-2.63793,0.75504,0.941
374.019,42.80077,-2.66148,0.72453,0.94051
374.719,42.86849,-2.68221,0.69815,0.94002
375.419,42.9362,-2.70275,0.66613,0.93953
376.119,43.0038,-2.72352,0.63534,0.93903
376.819,43.07154,-2.74139,0.60176,0.93854
377.519,43.1391,-2.75774,0.56955,0.93804
378.219,43.2067,-2.77427,0.53526,0.93755
378.919,43.27431,-2.78919,0.50596,0.93705
379.619,43.34202,-2.80152,0.47051,0.93655
380.319,43.40988,-2.81484,0.43614,0.93606
381.019,43.47765,-2.82644,0.4057,0.93556
381.719,43.5452,-2.83801,0.3775,0.93506
382.419,43.61268,-2.84658,0.34767,0.93456
383.119,43.6802,-2.85647,0.32011,0.93406
383.819,43.74796,-2.86431,0.29563,0.93356
384.519,43.81568,-2.86958,0.2708,0.93306
385.219,43.88354,-2.87811,0.24579,0.93255
385.919,43.9512,-2.88335,0.23019,0.93205
386.619,44.01882,-2.88899,0.20776,0.93155
387.319,44.0865,-2.89416,0.19462,0.93104
388.019,44.15415,-2.90059,0.17918,0.93054
388.719,44.22183,-2.90445,0.16733,0.93003
389.419,44.28946,-2.90895,0.15583,0.92953
390.119,44.35706,-2.91303,0.14829,0.92902
390.819,44.42473,-2.91624,0.14295,0.92851
391.519,44.49232,-2.91924,0.13293,0.928
392.219,44.56009,-2.92094,0.1304,0.92749
392.919,44.62788,-2.9237,0.12442,0.92698
393.619,44.6958,-2.92586,0.12293,0.92647
394.319,44.76377,-2.92847,0.12097,0.92596
395.019,44.8316,-2.93096,0.11553,0.92545
395.719,44.8994,-2.93218,0.11536,0.92494
396.419,44.96711,-2.93393,0.11166,0.92443
397.119,45.03495,-2.93688,0.11154,0.92391
397.819,45.1027,-2.9398,0.11021,0.9234
398.519,45.17064,-2.94271,0.11038,0.92289
399.219,45.23845,-2.94417,0.10812,0.92237
399.919,45.3065,-2.94763,0.10598,0.92186
400.619,45.37435,-2.95083,0.10655,0.92134
401.319,45.44238,-2.95266,0.10477,0.92082
402.019,45.51041,-2.95257,0.10437,0.9203
402.719,45.5786,-2.95358,0.10265,0.91979
403.419,45.64667,-2.95522,0.09948987,0.91927
404.119,45.71481,-2.95737,0.1007,0.91875
404.819,45.7828,-2.96038,0.09967721,0.91823
405.519,45.85096,-2.96329,0.09533226,0.91771
406.219,45.91895,-2.96561,0.09472916,0.91719
406.919,45.98697,-2.96871,0.09442029,0.91666
407.619,46.055,-2.96983,0.09103417,0.91614
408.319,46.12308,-2.97044,0.09284858,0.91562
409.019,46.19142,-2.97212,0.09059021,0.9151
409.719,46.25954,-2.97462,0.08687611,0.91457
410.419,46.3277,-2.97766,0.08850616,0.91405
411.119,46.39591,-2.98114,0.08913668,0.91352
411.819,46.46431,-2.98398,0.08354914,0.91299
412.519,46.53265,-2.98622,0.08461041,0.91247
413.219,46.601,-2.98807,0.08288311,0.91194
413.919,46.6693,-2.98899,0.08074447,0.91141
414.619,46.73764,-2.99081,0.07833476,0.91088
415.319,46.8061,-2.99086,0.07927976,0.91036
416.019,46.87444,-2.99505,0.07358144,0.90983
416.719,46.94269,-2.9989,0.07562524,0.9093
417.419,47.01088,-3.00013,0.07254739,0.90877
418.119,47.079,-3.00149,0.07218526,0.90823
418.819,47.14727,-3.00158,0.07194274,0.9077
419.519,47.2156,-3.00462,0.07224695,0.90717
420.219,47.2839,-3.00605,0.06702888,0.90664
420.919,47.35239,-3.00768,0.06770596,0.9061
421.619,47.42085,-3.01084,0.06488695,0.90557
422.319,47.48936,-3.01271,0.06532699,0.90503
423.019,47.55794,-3.01402,0.06285926,0.9045
423.719,47.62644,-3.01702,0.06164373,0.90396
424.419,47.6948,-3.01971,0.0598245,0.90343
425.119,47.7631,-3.0226,0.05945584,0.90289
425.819,47.83169,-3.02383,0.05921032,0.90235
426.519,47.9003,-3.02582,0.0585149,0.90181
427.219,47.96925,-3.02815,0.05438251,0.90127
427.919,48.03803,-3.03063,0.05235434,0.90074
428.619,48.10696,-3.03206,0.05411628,0.9002
429.319,48.17568,-3.03484,0.05259645,0.89966
430.019,48.24438,-3.03533,0.05090204,0.89911
430.719,48.3132,-3.03687,0.05542781,0.89857
431.419,48.38213,-3.0389,0.05068762,0.89803
432.119,48.45107,-3.03886,0.05066201,0.89749
432.819,48.51978,-3.04245,0.05000207,0.89695
433.519,48.58868,-3.04433,0.04660698,0.8964
434.219,48.65753,-3.04566,0.04600017,0.89586
434.919,48.72659,-3.04975,0.05035613,0.89531
435.619,48.7956,-3.05084,0.04936604,0.89477
436.319,48.86446,-3.05257,0.04545722,0.89422
437.019,48.93342,-3.05396,0.04568851,0.89368
437.719,49.00224,-3.05587,0.04798548,0.89313
438.419,49.07115,-3.05805,0.04608226,0.89258
439.119,49.1401,-3.05937,0.04604106,0.89203
439.819,49.20903,-3.0621,0.04890204,0.89148
440.519,49.27783,-3.06503,0.04995375,0.89094
441.219,49.3468,-3.06671,0.05134228,0.89039
441.919,49.41577,-3.06804,0.05152574,0.88984
442.619,49.48486,-3.06805,0.05232942,0.88928
443.319,49.55387,-3.07008,0.05279019,0.88873
444.019,49.6229,-3.07221,0.05233993,0.88818
444.719,49.692,-3.07212,0.05471306,0.88763
445.419,49.76095,-3.07357,0.05464646,0.88708
446.119,49.82992,-3.07747,0.05480632,0.88652
446.819,49.89862,-3.0788,0.05625961,0.88597
447.519,49.96755,-3.07878,0.05709115,0.88542
448.219,50.0364,-3.08144,0.06151321,0.88486
448.919,50.10545,-3.08393,0.06186839,0.88431
449.619,50.17451,-3.08558,0.06301406,0.88375
450.319,50.24358,-3.08683,0.06428796,0.88319
451.019,50.31259,-3.08819,0.06821647,0.88264
451.719,50.38158,-3.0895,0.06763989,0.88208
452.419,50.4506,-3.09156,0.06901972,0.88152
453.119,50.51947,-3.0931,0.07238662,0.88096
453.819,50.5884,-3.09483,0.07285639,0.8804
454.519,50.65745,-3.09742,0.07490101,0.87984
455.219,50.7264,-3.09871,0.08022033,0.87928
455.919,50.7954,-3.10061,0.0808759,0.87872
456.619,50.86422,-3.10293,0.0804543,0.87816
457.319,50.93322,-3.10437,0.08463945,0.8776
458.019,51.00206,-3.10423,0.08628881,0.87704
458.719,51.071,-3.10555,0.08562713,0.87648
459.419,51.13987,-3.10686,0.08883304,0.87592
460.119,51.2089,-3.10689,0.09091478,0.87535
460.819,51.27758,-3.10956,0.09143874,0.87479
461.519,51.34635,-3.11142,0.09207038,0.87422
462.219,51.4151,-3.11213,0.09272821,0.87366
462.919,51.484,-3.11334,0.09528727,0.87309
463.619,51.55271,-3.11476,0.09366203,0.87253
464.319,51.62127,-3.11608,0.09448054,0.87196
465.019,51.6899,-3.11608,0.09509481,0.8714
465.719,51.75849,-3.11739,0.09538802,0.87083
466.419,51.82735,-3.11806,0.09889132,0.87026
467.119,51.89608,-3.11946,0.09850639,0.86969
467.819,51.96496,-3.12081,0.09877535,0.86912
468.519,52.0337,-3.12205,0.09938695,0.86855
469.219,52.10259,-3.12274,0.09960098,0.86799
469.919,52.1714,-3.12397,0.10217,0.86742
470.619,52.24037,-3.12528,0.10238,0.86684
471.319,52.30917,-3.12791,0.10288,0.86627
472.019,52.378,-3.12923,0.1029,0.8657
472.719,52.4468,-3.1304,0.104,0.86513
473.419,52.51563,-3.13089,0.10412,0.86456
474.119,52.58439,-3.13127,0.10263,0.86399
474.819,52.65315,-3.13338,0.10376,0.86341
475.519,52.72204,-3.13481,0.10433,0.86284
476.219,52.791,-3.13351,0.1031,0.86226
476.919,52.85996,-3.13417,0.10582,0.86169
477.619,52.92896,-3.13616,0.10398,0.86112
478.319,52.99799,-3.13616,0.10582,0.86054
479.019,53.067,-3.13746,0.10269,0.85996
479.719,53.13618,-3.13877,0.10753,0.85939
480.419,53.20524,-3.13871,0.1045,0.85881
481.119,53.27451,-3.14176,0.10577,0.85823
481.819,53.3435,-3.14141,0.10703,0.85766
482.519,53.4124,-3.14272,0.10554,0.85708
483.219,53.48141,-3.14404,0.10561,0.8565
483.919,53.55055,-3.14539,0.10815,0.85592
484.619,53.6197,-3.14667,0.10509,0.85534
485.319,53.6888,-3.14635,0.10651,0.85476
486.019,53.7579,-3.14793,0.10594,0.85418
486.719,53.8272,-3.14908,0.10582,0.8536
487.419,53.8964,-3.14993,0.10838,0.85302
488.119,53.9657,-3.15071,0.10931,0.85244
488.819,54.0351,-3.15201,0.10838,0.85186
489.519,54.1044,-3.15325,0.10829,0.85127
490.219,54.17363,-3.15325,0.1079,0.85069
490.919,54.2429,-3.15459,0.10937,0.85011
491.619,54.31204,-3.15589,0.11082,0.84952
492.319,54.38129,-3.15587,0.11292,0.84894
493.019,54.45055,-3.15589,0.11337,0.84835
493.719,54.5197,-3.15721,0.11484,0.84777
494.419,54.58869,-3.15852,0.11911,0.84718
495.119,54.65753,-3.15953,0.11901,0.8466
495.819,54.72674,-3.15852,0.12271,0.84601
496.519,54.7958,-3.15947,0.12228,0.84543
497.219,54.865,-3.16121,0.12255,0.84484
497.919,54.93396,-3.16248,0.12468,0.84425
498.619,55.0031,-3.16277,0.12505,0.84366
499.319,55.07218,-3.16408,0.12669,0.84308
500.019,55.14131,-3.16543,0.13203,0.84249
500.719,55.21057,-3.16543,0.12725,0.8419
501.419,55.2797,-3.16543,0.13234,0.84131
502.119,55.349,-3.16633,0.13371,0.84072
502.819,55.4181,-3.16675,0.13521,0.84013
503.519,55.48746,-3.1672,0.13342,0.83954
504.219,55.5566,-3.16807,0.13664,0.83895
504.919,55.6259,-3.16938,0.14018,0.83836
505.619,55.6951,-3.17068,0.14166,0.83776
506.319,55.7644,-3.1707,0.14519,0.83717
507.019,55.8335,-3.17164,0.14464,0.83658
507.719,55.9027,-3.17309,0.14688,0.83599
508.419,55.972,-3.17296,0.14923,0.83539
509.119,56.0415,-3.173,0.1494,0.8348
509.819,56.11093,-3.17431,0.14913,0.83421
510.519,56.18035,-3.17431,0.15058,0.83361
511.219,56.2497,-3.17433,0.15247,0.83302
511.919,56.3188,-3.17432,0.15051,0.83242
512.619,56.3881,-3.17563,0.15219,0.83183
513.319,56.4574,-3.17831,0.15259,0.83123
514.019,56.52689,-3.17866,0.15429,0.83063
514.719,56.59655,-3.17958,0.1555,0.83004
515.419,56.6661,-3.17958,0.15522,0.82944
516.119,56.73594,-3.18089,0.15534,0.82884
516.819,56.80531,-3.17959,0.15243,0.82825
517.519,56.87474,-3.17983,0.14722,0.82765
518.219,56.94421,-3.1819,0.14272,0.82705
518.919,57.01365,-3.18222,0.13995,0.82645
519.619,57.08314,-3.18354,0.13682,0.82585
520.319,57.1525,-3.18625,0.13759,0.82525
521.019,57.2221,-3.18606,0.1353,0.82465
521.719,57.2916,-3.18583,0.13201,0.82405
522.419,57.36114,-3.18586,0.1301,0.82345
523.119,57.43059,-3.18747,0.13047,0.82285
523.819,57.5,-3.18879,0.12899,0.82225
524.519,57.5693,-3.18881,0.1283,0.82165
525.219,57.63873,-3.1888,0.12723,0.82105
525.919,57.7083,-3.18774,0.1259,0.82044
526.619,57.7779,-3.19043,0.12513,0.81984
527.319,57.84743,-3.19044,0.12173,0.81924
528.019,57.917,-3.19111,0.12463,0.81863
528.719,57.98653,-3.19209,0.12211,0.81803
529.419,58.05614,-3.19245,0.11865,0.81743
530.119,58.1256,-3.19232,0.12069,0.81682
530.819,58.1949,-3.19399,0.12133,0.81622
531.519,58.2644,-3.19505,0.11908,0.81561
532.219,58.33395,-3.19542,0.11699,0.81501
532.919,58.4035,-3.19539,0.11593,0.8144
533.619,58.47296,-3.19669,0.11471,0.8138
534.319,58.54241,-3.19843,0.11448,0.81319
535.019,58.61189,-3.19834,0.11595,0.81258
535.719,58.68136,-3.19966,0.11316,0.81198
536.419,58.75095,-3.19966,0.11537,0.81137
537.119,58.8206,-3.19964,0.11586,0.81076
537.819,58.89042,-3.19965,0.11433,0.81015
538.519,58.96,-3.20097,0.11309,0.80955
539.219,59.02949,-3.20097,0.11387,0.80894
539.919,59.09891,-3.20228,0.115,0.80833
540.619,59.1685,-3.20228,0.11671,0.80772
541.319,59.2378,-3.2036,0.11306,0.80711
542.019,59.3072,-3.2037,0.11505,0.8065
542.719,59.3765,-3.2035,0.1105,0.80589
543.419,59.44621,-3.20491,0.11499,0.80528
544.119,59.5159,-3.20576,0.11407,0.80467
544.819,59.5859,-3.20618,0.11201,0.80406
545.519,59.6555,-3.20755,0.11589,0.80345
546.219,59.7252,-3.20469,0.12003,0.80283
546.919,59.7949,-3.20625,0.11534,0.80222
547.619,59.8646,-3.20849,0.11525,0.80161
548.319,59.9344,-3.21019,0.11747,0.801
549.019,60.00413,-3.21149,0.11726,0.80039
549.719,60.0739,-3.21151,0.11553,0.79977
550.419,60.1436,-3.21018,0.11535,0.79916
551.119,60.2133,-3.21149,0.11594,0.79855
551.819,60.2831,-3.21173,0.11596,0.79793
552.519,60.35309,-3.2115,0.11588,0.79732
553.219,60.42279,-3.2115,0.11728,0.7967
553.919,60.4925,-3.21237,0.11498,0.79609
554.619,60.5622,-3.21278,0.11369,0.79547
555.319,60.6322,-3.21413,0.11497,0.79486
556.019,60.70215,-3.21414,0.11684,0.79424
556.719,60.7721,-3.21545,0.11269,0.79363
557.419,60.84191,-3.21545,0.11298,0.79301
558.119,60.9118,-3.21689,0.11535,0.79239
558.819,60.98163,-3.21753,0.11669,0.79178
559.519,61.05164,-3.21821,0.11471,0.79116
560.219,61.12177,-3.21819,0.11291,0.79054
560.919,61.19186,-3.21689,0.11492,0.78993
561.619,61.262,-3.21837,0.11598,0.78931
562.319,61.3321,-3.22005,0.11606,0.78869
563.019,61.40166,-3.22035,0.1115,0.78807
563.719,61.4715,-3.2217,0.11444,0.78745
564.419,61.54156,-3.2217,0.11513,0.78683
565.119,61.6121,-3.2203,0.11443,0.78621
565.819,61.68245,-3.22057,0.11403,0.7856
566.519,61.75244,-3.22285,0.11325,0.78498
567.219,61.8225,-3.22157,0.11481,0.78436
567.919,61.89258,-3.2228,0.11413,0.78374
568.619,61.9627,-3.22159,0.11306,0.78312
569.319,62.0329,-3.22292,0.11334,0.7825
570.019,62.10304,-3.22553,0.11708,0.78187
570.719,62.1731,-3.22553,0.11514,0.78125
571.419,62.2431,-3.22553,0.11467,0.78063
572.119,62.31306,-3.22486,0.11512,0.78001
572.819,62.38305,-3.22685,0.11559,0.77939
573.519,62.4531,-3.22686,0.11327,0.77877
574.219,62.523,-3.22817,0.11531,0.77814
574.919,62.5929,-3.22817,0.11361,0.77752
575.619,62.66259,-3.22887,0.11419,0.7769
576.319,62.7325,-3.22817,0.11378,0.77628
577.019,62.80235,-3.22815,0.11543,0.77565
577.719,62.87229,-3.23081,0.11404,0.77503
578.419,62.9421,-3.23217,0.11328,0.77441
579.119,63.01178,-3.23081,0.11373,0.77378
579.819,63.08164,-3.23179,0.11164,0.77316
580.519,63.1513,-3.23135,0.11253,0.77253
581.219,63.2212,-3.22949,0.11288,0.77191
581.919,63.2909,-3.2308,0.11107,0.77128
582.619,63.3608,-3.2308,0.11343,0.77066
583.319,63.43048,-3.23212,0.11192,0.77003
584.019,63.5003,-3.23211,0.11728,0.76941
584.719,63.56985,-3.23343,0.11319,0.76878
585.419,63.6395,-3.23375,0.11327,0.76816
586.119,63.7093,-3.23441,0.11316,0.76753
586.819,63.7793,-3.23575,0.11823,0.7669
587.519,63.8492,-3.23574,0.11439,0.76628
588.219,63.9191,-3.23574,0.11469,0.76565
588.919,63.98901,-3.23574,0.11502,0.76502
589.619,64.05893,-3.23442,0.11572,0.7644
590.319,64.12897,-3.23541,0.11584,0.76377
591.019,64.19865,-3.23575,0.11512,0.76314
591.719,64.2685,-3.23804,0.11951,0.76251
592.419,64.33832,-3.23937,0.11803,0.76189
593.119,64.40827,-3.23937,0.11552,0.76126
593.819,64.47825,-3.23783,0.11499,0.76063
594.519,64.54815,-3.241,0.11536,0.76
595.219,64.61822,-3.24232,0.11811,0.75937
595.919,64.6881,-3.24138,0.11674,0.75874
596.619,64.75802,-3.24002,0.11744,0.75811
597.319,64.8278,-3.24,0.11644,0.75748
598.019,64.89794,-3.2402,0.11459,0.75685
598.719,64.96805,-3.24265,0.11216,0.75622
599.419,65.03825,-3.24258,0.11356,0.75559
600.119,65.10837,-3.24397,0.11303,0.75496
600.819,65.1785,-3.24265,0.11502,0.75433
601.519,65.24882,-3.24398,0.11456,0.7537
602.219,65.31889,-3.24528,0.11553,0.75307
602.919,65.3892,-3.24529,0.11586,0.75244
603.619,65.4593,-3.2466,0.11648,0.75181
604.319,65.5296,-3.24661,0.11134,0.75118
605.019,65.5996,-3.24791,0.11286,0.75055
605.719,65.66973,-3.24791,0.1132,0.74992
606.419,65.73994,-3.24791,0.11389,0.74928
607.119,65.81015,-3.24791,0.1117,0.74865
607.819,65.8802,-3.24791,0.11105,0.74802
608.519,65.94978,-3.24923,0.11453,0.74739
609.219,66.01987,-3.24792,0.11405,0.74676
609.919,66.0899,-3.24792,0.11337,0.74612
610.619,66.16056,-3.24923,0.11135,0.74549
611.319,66.2308,-3.25139,0.11344,0.74486
612.019,66.30125,-3.25327,0.11311,0.74423
612.719,66.3716,-3.25181,0.11435,0.74359
613.419,66.44191,-3.25309,0.11395,0.74296
614.119,66.51221,-3.25274,0.11193,0.74232
614.819,66.58249,-3.25274,0.11199,0.74169
615.519,66.6527,-3.25404,0.11379,0.74106
616.219,66.72292,-3.25407,0.11411,0.74042
616.919,66.79319,-3.25406,0.11633,0.73979
617.619,66.86338,-3.25272,0.11357,0.73915
618.319,66.9337,-3.25143,0.11075,0.73852
619.019,67.00392,-3.25139,0.11345,0.73789
619.719,67.07428,-3.25405,0.11314,0.73725
620.419,67.1445,-3.25456,0.11353,0.73662
621.119,67.21459,-3.25471,0.11323,0.73598
621.819,67.28466,-3.25471,0.11413,0.73535
622.519,67.35465,-3.25471,0.11641,0.73471
623.219,67.42483,-3.25334,0.11643,0.73408
623.919,67.49497,-3.25473,0.114,0.73344
624.619,67.56525,-3.25735,0.1174,0.7328
625.319,67.63548,-3.25735,0.11897,0.73217
626.019,67.7058,-3.25867,0.11485,0.73153
626.719,67.7762,-3.25866,0.11704,0.7309
627.419,67.84657,-3.25834,0.11657,0.73026
628.119,67.91709,-3.25811,0.11676,0.72962
628.819,67.98742,-3.25988,0.11975,0.72899
629.519,68.05824,-3.26075,0.11797,0.72835
630.219,68.12889,-3.26075,0.11797,0.72771
630.919,68.1996,-3.26074,0.11758,0.72708
631.619,68.26998,-3.26074,0.11981,0.72644
632.319,68.34052,-3.26074,0.11956,0.7258
633.019,68.4109,-3.26206,0.11975,0.72517
633.719,68.48101,-3.26206,0.12018,0.72453
634.419,68.55119,-3.26203,0.1226,0.72389
635.119,68.6214,-3.26205,0.12796,0.72325
635.819,68.69173,-3.26259,0.12866,0.72262
636.519,68.76179,-3.26207,0.13443,0.72198
637.219,68.83196,-3.26207,0.13187,0.72134
637.919,68.9021,-3.26337,0.12967,0.7207
638.619,68.97239,-3.26333,0.12978,0.72006
639.319,69.04284,-3.266,0.13125,0.71943
640.019,69.11327,-3.26601,0.13384,0.71879
640.719,69.1838,-3.26601,0.13399,0.71815
641.419,69.25412,-3.26601,0.13272,0.71751
642.119,69.32471,-3.26698,0.13298,0.71687
642.819,69.39509,-3.2655,0.13961,0.71623
643.519,69.46547,-3.26768,0.13889,0.71559
644.219,69.53588,-3.26744,0.14122,0.71495
644.919,69.60636,-3.26875,0.1392,0.71432
645.619,69.67698,-3.26875,0.13635,0.71368
646.319,69.74749,-3.26873,0.13935,0.71304
647.019,69.81811,-3.26739,0.14048,0.7124
647.719,69.88857,-3.26875,0.13879,0.71176
648.419,69.9589,-3.26971,0.14072,0.71112
649.119,70.02932,-3.26876,0.13937,0.71048
649.819,70.09989,-3.27007,0.14333,0.70984
650.519,70.1703,-3.27207,0.14295,0.7092
651.219,70.24076,-3.27402,0.14462,0.70856
651.919,70.31138,-3.27264,0.14406,0.70792
652.619,70.3823,-3.27348,0.1425,0.70728
653.319,70.453,-3.27271,0.14148,0.70664
654.019,70.52355,-3.27271,0.1409,0.706
654.719,70.59403,-3.27172,0.14182,0.70536
655.419,70.66453,-3.27139,0.14296,0.70472
656.119,70.73522,-3.27139,0.1438,0.70408
656.819,70.80582,-3.27139,0.14154,0.70344
657.519,70.8761,-3.27251,0.13958,0.7028
658.219,70.94636,-3.27269,0.14215,0.70216
658.919,71.01696,-3.27139,0.14304,0.70152
659.619,71.08779,-3.27263,0.14202,0.70088
660.319,71.15819,-3.27568,0.14274,0.70023
661.019,71.2287,-3.27416,0.14327,0.69959
661.719,71.29932,-3.27282,0.14396,0.69895
662.419,71.37011,-3.27282,0.14647,0.69831
663.119,71.44054,-3.27147,0.14346,0.69767
663.819,71.5111,-3.27282,0.1446,0.69703
664.519,71.58184,-3.27545,0.14663,0.69639
665.219,71.65261,-3.27446,0.1484,0.69575
665.919,71.72326,-3.27511,0.14996,0.69511
666.619,71.79386,-3.27642,0.14951,0.69447
667.319,71.8647,-3.27766,0.15118,0.69382
668.019,71.9354,-3.27906,0.15158,0.69318
668.719,72.00595,-3.27767,0.15376,0.69254
669.419,72.07635,-3.27674,0.15382,0.6919
670.119,72.14689,-3.27643,0.15561,0.69126
670.819,72.21762,-3.27643,0.15515,0.69062
671.519,72.28815,-3.27777,0.15371,0.68997
672.219,72.35871,-3.2804,0.1552,0.68933
672.919,72.42925,-3.28038,0.15722,0.68869
673.619,72.49981,-3.28037,0.15734,0.68805
674.319,72.57029,-3.28104,0.15511,0.68741
675.019,72.6405,-3.28038,0.15829,0.68677
675.719,72.71083,-3.27972,0.15548,0.68612
676.419,72.78104,-3.27873,0.15707,0.68548
677.119,72.8514,-3.27803,0.15602,0.68484
677.819,72.92164,-3.27807,0.15508,0.6842
678.519,72.99204,-3.27807,0.16044,0.68356
679.219,73.06266,-3.27944,0.16053,0.68291
679.919,73.1334,-3.27939,0.16077,0.68227
680.619,73.20381,-3.27939,0.16065,0.68163
681.319,73.27433,-3.2807,0.16205,0.68099
682.019,73.34475,-3.27967,0.16095,0.68034
682.719,73.41529,-3.28076,0.15909,0.6797
683.419,73.48573,-3.28364,0.16097,0.67906
684.119,73.55625,-3.28356,0.16141,0.67842
684.819,73.62705,-3.28355,0.16707,0.67778
685.519,73.69775,-3.28224,0.16825,0.67713
686.219,73.76835,-3.28093,0.17532,0.67649
686.919,73.8389,-3.28092,0.17045,0.67585
687.619,73.90918,-3.28093,0.1726,0.67521
688.319,73.97972,-3.2819,0.16897,0.67456
689.019,74.05022,-3.28225,0.17334,0.67392
689.719,74.12103,-3.28225,0.17257,0.67328
690.419,74.19157,-3.2826,0.1633,0.67264
691.119,74.26227,-3.28324,0.1666,0.67199
691.819,74.33284,-3.28193,0.17268,0.67135
692.519,74.40374,-3.28207,0.17149,0.67071
693.219,74.4745,-3.28093,0.17228,0.67007
693.919,74.54521,-3.28233,0.17612,0.66942
694.619,74.61573,-3.28243,0.17473,0.66878
695.319,74.68642,-3.28315,0.17794,0.66814
696.019,74.7572,-3.28356,0.17693,0.6675
696.719,74.82797,-3.2841,0.1784,0.66686
697.419,74.89833,-3.28554,0.18012,0.66621
698.119,74.96882,-3.28551,0.17996,0.66557
698.819,75.03944,-3.28653,0.18092,0.66493
699.519,75.1103,-3.28653,0.18274,0.66429
700.219,75.1811,-3.28522,0.18582,0.66364
700.919,75.2517,-3.28521,0.18637,0.663
701.619,75.32244,-3.28556,0.1869,0.66236
702.319,75.39313,-3.28686,0.18825,0.66172
703.019,75.46384,-3.28553,0.18651,0.66107
703.719,75.5346,-3.28554,0.18409,0.66043
704.419,75.60536,-3.28652,0.18744,0.65979
705.119,75.67608,-3.28784,0.19001,0.65915
705.819,75.74664,-3.28669,0.1921,0.6585
706.519,75.81725,-3.28782,0.19259,0.65786
707.219,75.88763,-3.28786,0.18623,0.65722
707.919,75.95815,-3.28916,0.18797,0.65658
708.619,76.02841,-3.28784,0.18797,0.65594
709.319,76.09909,-3.28784,0.18918,0.65529
710.019,76.16963,-3.28784,0.19125,0.65465
710.719,76.24046,-3.28652,0.18782,0.65401
711.419,76.31111,-3.28651,0.1922,0.65337
712.119,76.3819,-3.28902,0.18959,0.65272
712.819,76.4529,-3.28652,0.19038,0.65208
713.519,76.52387,-3.28652,0.19152,0.65144
714.219,76.59472,-3.28783,0.19283,0.6508
714.919,76.66581,-3.28784,0.19277,0.65016
715.619,76.73686,-3.28784,0.19197,0.64951
716.319,76.80812,-3.28785,0.19384,0.64887
717.019,76.8793,-3.2898,0.19606,0.64823
717.719,76.95049,-3.29014,0.19425,0.64759
718.419,77.02155,-3.29047,0.19435,0.64695
719.119,77.09244,-3.2899,0.19627,0.64631
719.819,77.16348,-3.28901,0.19818,0.64566
720.519,77.2346,-3.29092,0.19972,0.64502
721.219,77.3057,-3.29091,0.19801,0.64438
721.919,77.37677,-3.2896,0.19686,0.64374
722.619,77.4478,-3.29057,0.19693,0.6431
723.319,77.5188,-3.28993,0.19956,0.64246
724.019,77.58976,-3.28991,0.20183,0.64181
724.719,77.66065,-3.29257,0.19438,0.64117
725.419,77.73175,-3.29043,0.19731,0.64053
726.119,77.80272,-3.28856,0.19941,0.63989
726.819,77.8736,-3.28731,0.19434,0.63925
727.519,77.9442,-3.28902,0.20145,0.63861
728.219,78.01478,-3.28828,0.19691,0.63797
728.919,78.08542,-3.28828,0.20112,0.63733
729.619,78.15613,-3.2887,0.19914,0.63669
730.319,78.22666,-3.29025,0.2045,0.63604
731.019,78.2971,-3.29223,0.20462,0.6354
731.719,78.36762,-3.29223,0.20564,0.63476
732.419,78.43828,-3.29297,0.20615,0.63412
733.119,78.50921,-3.29453,0.20935,0.63348
733.819,78.58,-3.29584,0.20986,0.63284
734.519,78.65089,-3.29749,0.2115,0.6322
735.219,78.72175,-3.29465,0.20967,0.63156
735.919,78.7927,-3.29465,0.21265,0.63092
736.619,78.86357,-3.29331,0.21249,0.63028
737.319,78.9344,-3.29543,0.21438,0.62964
738.019,79.00519,-3.29562,0.2132,0.629
738.719,79.0761,-3.29483,0.21626,0.62836
739.419,79.147,-3.2953,0.21357,0.62772
740.119,79.21783,-3.2953,0.21602,0.62708
740.819,79.28872,-3.29533,0.21624,0.62644
741.519,79.35955,-3.29401,0.21656,0.6258
742.219,79.43041,-3.29267,0.21486,0.62516
742.919,79.5012,-3.29299,0.21647,0.62452
743.619,79.57204,-3.29431,0.21847,0.62388
744.319,79.6429,-3.29431,0.2151,0.62324
745.019,79.7137,-3.2953,0.21687,0.6226
745.719,79.7845,-3.29399,0.2186,0.62196
746.419,79.8552,-3.29399,0.21945,0.62132
747.119,79.9259,-3.29399,0.21978,0.62068
747.819,79.99665,-3.2953,0.22148,0.62004
748.519,80.0673,-3.2953,0.22258,0.61941
749.219,80.1383,-3.2953,0.21968,0.61877
749.919,80.20919,-3.2953,0.22312,0.61813
750.619,80.28016,-3.29431,0.22267,0.61749
751.319,80.35122,-3.29601,0.2256,0.61685
752.019,80.42219,-3.29596,0.22444,0.61621
752.719,80.49347,-3.29464,0.2284,0.61557
753.419,80.56458,-3.29455,0.22622,0.61494
754.119,80.63574,-3.29657,0.22908,0.6143
754.819,80.70674,-3.29695,0.23069,0.61366
755.519,80.77789,-3.29694,0.22855,0.61302
756.219,80.84912,-3.29563,0.22644,0.61238
756.919,80.92034,-3.29563,0.2319,0.61175
757.619,80.99144,-3.29694,0.22845,0.61111
758.319,81.0625,-3.29694,0.229,0.61047
759.019,81.13367,-3.29663,0.22852,0.60983
759.719,81.20479,-3.29562,0.23007,0.6092
760.419,81.27591,-3.29694,0.23279,0.60856
761.119,81.34714,-3.29895,0.2311,0.60792
761.819,81.41852,-3.29958,0.23182,0.60728
762.519,81.48992,-3.29519,0.2304,0.60665
763.219,81.56127,-3.29667,0.23213,0.60601
763.919,81.63271,-3.29796,0.23165,0.60537
764.619,81.70413,-3.29654,0.23227,0.60474
765.319,81.77547,-3.29793,0.23316,0.6041
766.019,81.84647,-3.29793,0.23181,0.60347
766.719,81.9173,-3.29863,0.2347,0.60283
767.419,81.98844,-3.29859,0.24009,0.60219
768.119,82.0598,-3.29859,0.23646,0.60156
768.819,82.13132,-3.29998,0.23922,0.60092
769.519,82.2021,-3.30056,0.23485,0.60029
770.219,82.27282,-3.29924,0.23406,0.59965
770.919,82.34351,-3.29994,0.23697,0.59901
771.619,82.4143,-3.30064,0.23885,0.59838
772.319,82.485,-3.30066,0.23746,0.59774
773.019,82.55588,-3.29925,0.23704,0.59711
773.719,82.6267,-3.29794,0.2316,0.59647
774.419,82.69774,-3.29794,0.238,0.59584
775.119,82.76857,-3.29794,0.23863,0.5952
775.819,82.8394,-3.29858,0.24355,0.59457
776.519,82.9101,-3.2999,0.23595,0.59394
777.219,82.98089,-3.29885,0.23749,0.5933
777.919,83.05168,-3.29857,0.23808,0.59267
778.619,83.12254,-3.30143,0.2427,0.59203
779.319,83.19318,-3.30276,0.24183,0.5914
780.019,83.2638,-3.30276,0.24329,0.59077
780.719,83.3344,-3.30144,0.23854,0.59013
781.419,83.4051,-3.30171,0.24009,0.5895
782.119,83.47598,-3.3023,0.24309,0.58887
782.819,83.54682,-3.30264,0.24096,0.58823
783.519,83.61786,-3.30199,0.24267,0.5876
784.219,83.68868,-3.30199,0.24426,0.58697
784.919,83.75972,-3.30199,0.24184,0.58633
785.619,83.8307,-3.30133,0.24271,0.5857
786.319,83.90186,-3.30001,0.24265,0.58507
787.019,83.97274,-3.30142,0.24283,0.58444
787.719,84.04356,-3.30144,0.24205,0.5838
788.419,84.11444,-3.30155,0.24549,0.58317
789.119,84.1856,-3.30265,0.24372,0.58254
789.819,84.2569,-3.30265,0.24775,0.58191
790.519,84.32831,-3.30268,0.24177,0.58128
791.219,84.39965,-3.30265,0.24521,0.58065
791.919,84.47105,-3.30265,0.24906,0.58001
792.619,84.54247,-3.30265,0.24569,0.57938
793.319,84.61384,-3.30396,0.25166,0.57875
794.019,84.68521,-3.30396,0.24956,0.57812
794.719,84.7565,-3.30396,0.24864,0.57749
795.419,84.8278,-3.3028,0.2499,0.57686
796.119,84.8993,-3.30324,0.2483,0.57623
796.819,84.97097,-3.30592,0.24855,0.5756
797.019,84.99167,-3.30594,0.24207,0.57542