File: 01_Data/Window_Screen/STA/N2/10K_min/Window_Screen_STA_N2_10KData_220812_R3.csv
##Temp./Â°C,Time/min,Mass loss(subtr.2)/mg,DSC(subtr.2)/(mW/mg),Sensit./(uV/mW)
49.552,10.00917,0.02504,0.01338833,1.07022
50.052,10.69285,0.02572429,0.04402302,1.07008
50.552,10.86885,0.02736716,0.06780176,1.06995
51.052,10.99912,0.02581074,0.08922804,1.06981
51.552,11.10806,0.02624159,0.10901,1.06967
52.052,11.2049,0.02644079,0.12407,1.06953
52.552,11.2925,0.02720335,0.13782,1.06939
53.052,11.3736,0.02628599,0.14943,1.06925
53.552,11.44934,0.02669814,0.1612,1.06911
54.052,11.52206,0.02713294,0.17096,1.06898
54.552,11.5923,0.02616359,0.18219,1.06884
55.052,11.66041,0.02769591,0.19064,1.0687
55.552,11.7262,0.02785692,0.19755,1.06856
56.052,11.79033,0.02747421,0.2052,1.06842
56.552,11.85323,0.02841522,0.21446,1.06827
57.052,11.9147,0.02744166,0.22074,1.06813
57.552,11.975,0.0280232,0.2231,1.06799
58.052,12.0348,0.02775644,0.22998,1.06785
58.552,12.09368,0.0278847,0.23364,1.06771
59.052,12.15281,0.0269681,0.24002,1.06757
59.552,12.2105,0.02652421,0.24181,1.06743
60.052,12.26773,0.02761361,0.24562,1.06728
60.552,12.3245,0.02867918,0.25059,1.06714
61.052,12.38053,0.02926975,0.25404,1.067
61.552,12.43655,0.02921002,0.25855,1.06685
62.052,12.49213,0.03059362,0.25961,1.06671
62.552,12.5468,0.02988372,0.26547,1.06657
63.052,12.602,0.02908298,0.26554,1.06642
63.552,12.6572,0.0293238,0.26869,1.06628
64.052,12.71224,0.02800316,0.27173,1.06613
64.552,12.7674,0.02790983,0.27415,1.06599
65.052,12.8219,0.02832501,0.27677,1.06584
65.552,12.87636,0.02789044,0.27864,1.0657
66.052,12.93051,0.0279662,0.27956,1.06555
66.552,12.9844,0.02788627,0.2802,1.06541
67.052,13.03832,0.02922112,0.28188,1.06526
67.552,13.09215,0.02924959,0.28323,1.06512
68.052,13.1462,0.02792819,0.28445,1.06497
68.552,13.20004,0.02920998,0.28648,1.06482
69.052,13.25358,0.03004536,0.28625,1.06468
69.552,13.3068,0.02920819,0.28908,1.06453
70.052,13.35936,0.02988602,0.289,1.06438
70.552,13.4122,0.03052996,0.28994,1.06423
71.052,13.46525,0.03110841,0.29203,1.06408
71.552,13.5181,0.03055681,0.29283,1.06394
72.052,13.57129,0.03039287,0.29317,1.06379
72.552,13.62408,0.03052149,0.29464,1.06364
73.052,13.6764,0.03051977,0.29492,1.06349
73.552,13.72894,0.03121268,0.29699,1.06334
74.052,13.7814,0.03167334,0.29652,1.06319
74.552,13.8339,0.03184365,0.29804,1.06304
75.052,13.8864,0.03206486,0.2992,1.06289
75.552,13.9388,0.03051349,0.30082,1.06274
76.052,13.9909,0.03199189,0.30208,1.06259
76.552,14.04305,0.03283108,0.30474,1.06244
77.052,14.09475,0.03405506,0.30351,1.06229
77.552,14.1463,0.03277134,0.3057,1.06214
78.052,14.19832,0.03140944,0.3081,1.06198
78.552,14.24973,0.03141,0.30825,1.06183
79.052,14.30149,0.03140129,0.30784,1.06168
79.552,14.35336,0.03063079,0.30903,1.06153
80.052,14.40475,0.03008933,0.31023,1.06137
80.552,14.4565,0.03052534,0.31202,1.06122
81.052,14.5078,0.03139957,0.31202,1.06107
81.552,14.5591,0.03205469,0.31362,1.06091
82.052,14.61016,0.03271514,0.31582,1.06076
82.552,14.6611,0.03141114,0.3143,1.06061
83.052,14.71212,0.03271705,0.31486,1.06045
83.552,14.76285,0.03143496,0.3167,1.0603
84.052,14.81374,0.0303833,0.3176,1.06014
84.552,14.86442,0.03037047,0.31747,1.05999
85.052,14.91501,0.03140922,0.3185,1.05983
85.552,14.9657,0.03129387,0.32004,1.05967
86.052,15.01609,0.03009073,0.32034,1.05952
86.552,15.06642,0.0314535,0.32144,1.05936
87.052,15.11669,0.03140167,0.32219,1.05921
87.552,15.1669,0.03270806,0.32327,1.05905
88.052,15.21705,0.03155971,0.3257,1.05889
88.552,15.2671,0.0313998,0.32346,1.05874
89.052,15.3175,0.03139505,0.32503,1.05858
89.552,15.3675,0.03220924,0.32677,1.05842
90.052,15.41758,0.0314103,0.32792,1.05826
90.552,15.4672,0.03140999,0.32935,1.0581
91.052,15.5169,0.031416,0.32806,1.05794
91.552,15.5667,0.03034633,0.32889,1.05779
92.052,15.6165,0.03117105,0.32997,1.05763
92.552,15.6667,0.03140002,0.33072,1.05747
93.052,15.7165,0.03184274,0.3291,1.05731
93.552,15.7661,0.03203568,0.33092,1.05715
94.052,15.8156,0.03140185,0.33199,1.05699
94.552,15.86464,0.03269753,0.33404,1.05683
95.052,15.9142,0.03271825,0.33769,1.05667
95.552,15.96376,0.03143267,0.3361,1.0565
96.052,16.01362,0.03131242,0.33569,1.05634
96.552,16.06335,0.0313795,0.33745,1.05618
97.052,16.11271,0.03012608,0.33695,1.05602
97.552,16.16189,0.0314081,0.33869,1.05586
98.052,16.21095,0.03148066,0.33797,1.0557
98.552,16.26012,0.03271918,0.33672,1.05553
99.052,16.3094,0.03171618,0.33693,1.05537
99.552,16.3587,0.03141043,0.33962,1.05521
100.052,16.40815,0.03204176,0.34027,1.05504
100.552,16.45733,0.03206525,0.34231,1.05488
101.052,16.5065,0.03099963,0.34086,1.05472
101.552,16.55562,0.03140197,0.34556,1.05455
102.052,16.6047,0.0314,0.34654,1.05439
102.552,16.65338,0.0313996,0.34419,1.05422
103.052,16.70252,0.03167117,0.34648,1.05406
103.552,16.7515,0.0313878,0.34742,1.05389
104.052,16.80036,0.03272207,0.34636,1.05373
104.552,16.84974,0.03272,0.34848,1.05356
105.052,16.8989,0.03272,0.34713,1.05339
105.552,16.94795,0.03271999,0.34895,1.05323
106.052,16.99704,0.03272493,0.34989,1.05306
106.552,17.04616,0.03143684,0.3517,1.05289
107.052,17.09496,0.03139249,0.35135,1.05273
107.552,17.14396,0.03144567,0.3538,1.05256
108.052,17.19269,0.03007365,0.35387,1.05239
108.552,17.24148,0.031445,0.3565,1.05222
109.052,17.29025,0.03139991,0.3569,1.05206
109.552,17.33897,0.03139415,0.3568,1.05189
110.052,17.38792,0.03272006,0.35796,1.05172
110.552,17.43655,0.03202274,0.35943,1.05155
111.052,17.48541,0.03205873,0.35989,1.05138
111.552,17.53412,0.03134477,0.36095,1.05121
112.052,17.583,0.0314101,0.36092,1.05104
112.552,17.63193,0.03141,0.36102,1.05087
113.052,17.68058,0.0314091,0.36211,1.0507
113.552,17.72927,0.03140735,0.36365,1.05053
114.052,17.77776,0.03140994,0.36343,1.05036
114.552,17.8264,0.03140952,0.36473,1.05019
115.052,17.8752,0.03279511,0.36648,1.05002
115.552,17.92403,0.03269584,0.36852,1.04984
116.052,17.97295,0.03140188,0.36601,1.04967
116.552,18.0216,0.03140092,0.36642,1.0495
117.052,18.0704,0.0324843,0.37028,1.04933
117.552,18.11906,0.03272,0.36945,1.04915
118.052,18.16775,0.03272,0.369,1.04898
118.552,18.21649,0.03271827,0.36908,1.04881
119.052,18.26535,0.03143107,0.37085,1.04863
119.552,18.31405,0.03272685,0.3703,1.04846
120.052,18.36274,0.03271996,0.37026,1.04829
120.552,18.41143,0.03273151,0.3709,1.04811
121.052,18.4598,0.03403937,0.37235,1.04794
121.552,18.50852,0.03403896,0.37382,1.04776
122.052,18.55729,0.03177424,0.37293,1.04759
122.552,18.60591,0.03173989,0.37425,1.04741
123.052,18.65466,0.03181931,0.37539,1.04724
123.552,18.70324,0.03306367,0.37529,1.04706
124.052,18.75181,0.0317332,0.37497,1.04688
124.552,18.80029,0.03173995,0.37556,1.04671
125.052,18.8489,0.03173186,0.37696,1.04653
125.552,18.89745,0.03305124,0.37688,1.04635
126.052,18.94601,0.03305,0.3794,1.04617
126.552,18.9947,0.03305,0.37894,1.046
127.052,19.04326,0.03305041,0.38057,1.04582
127.552,19.09176,0.03284487,0.37854,1.04564
128.052,19.14027,0.03173007,0.37814,1.04546
128.552,19.18872,0.03173045,0.37956,1.04528
129.052,19.23714,0.03303687,0.38064,1.0451
129.552,19.28547,0.03304985,0.38266,1.04492
130.052,19.33373,0.03319771,0.38189,1.04475
130.552,19.3821,0.03338017,0.38174,1.04457
131.052,19.43046,0.03338004,0.38307,1.04439
131.552,19.4789,0.03369235,0.3835,1.0442
132.052,19.52714,0.03337636,0.38473,1.04402
132.552,19.57552,0.03347755,0.38486,1.04384
133.052,19.6238,0.03205958,0.38619,1.04366
133.552,19.6722,0.03202504,0.38621,1.04348
134.052,19.72053,0.03174412,0.38571,1.0433
134.552,19.76923,0.03207001,0.38604,1.04312
135.052,19.81754,0.03207,0.38852,1.04293
135.552,19.86591,0.03207,0.38837,1.04275
136.052,19.91435,0.03207095,0.38994,1.04257
136.552,19.96269,0.03301365,0.38919,1.04238
137.052,20.011,0.03339869,0.38993,1.0422
137.552,20.05934,0.03205964,0.39164,1.04202
138.052,20.10761,0.03206035,0.38936,1.04183
138.552,20.1558,0.03067619,0.39304,1.04165
139.052,20.20414,0.03074179,0.39107,1.04146
139.552,20.25231,0.03203479,0.39365,1.04128
140.052,20.30079,0.03206003,0.39135,1.04109
140.552,20.349,0.03206,0.39312,1.04091
141.052,20.3972,0.03206022,0.39451,1.04072
141.552,20.4454,0.03170382,0.39578,1.04054
142.052,20.4935,0.03074078,0.39533,1.04035
142.552,20.54156,0.03084111,0.39541,1.04017
143.052,20.58962,0.03205976,0.39595,1.03998
143.552,20.63781,0.03206,0.39632,1.03979
144.052,20.68573,0.03206,0.39783,1.0396
144.552,20.73374,0.03205993,0.39615,1.03942
145.052,20.7817,0.03209097,0.39642,1.03923
145.552,20.82969,0.03106961,0.39685,1.03904
146.052,20.8778,0.03078383,0.39844,1.03885
146.552,20.92597,0.03073617,0.39974,1.03866
147.052,20.97402,0.02969634,0.3995,1.03847
147.552,21.02186,0.03074906,0.39938,1.03828
148.052,21.06997,0.03075,0.40107,1.0381
148.552,21.11801,0.03075,0.4011,1.03791
149.052,21.16573,0.03075,0.40232,1.03772
149.552,21.2132,0.03074993,0.40208,1.03752
150.052,21.2607,0.03076897,0.40154,1.03733
150.552,21.3086,0.03174043,0.40442,1.03714
151.052,21.35669,0.03174,0.40539,1.03695
151.552,21.40504,0.03174,0.402,1.03676
152.052,21.45364,0.03173884,0.40308,1.03657
152.552,21.50163,0.03101653,0.40287,1.03638
153.052,21.54958,0.03038575,0.40426,1.03618
153.552,21.59761,0.0297603,0.40402,1.03599
154.052,21.64548,0.02975626,0.40589,1.0358
154.552,21.69351,0.03111917,0.40859,1.03561
155.052,21.74146,0.03028452,0.41023,1.03541
155.552,21.7895,0.03007998,0.40555,1.03522
156.052,21.8377,0.03008,0.40638,1.03502
156.552,21.88564,0.03008,0.40914,1.03483
157.052,21.93381,0.03008,0.40955,1.03464
157.552,21.98173,0.03008,0.41055,1.03444
158.052,22.02944,0.03007983,0.40988,1.03425
158.552,22.07747,0.03133446,0.40982,1.03405
159.052,22.1253,0.03107748,0.41092,1.03385
159.552,22.1733,0.03106918,0.41576,1.03366
160.052,22.22121,0.03024278,0.41145,1.03346
160.552,22.2693,0.02975998,0.41295,1.03327
161.052,22.31715,0.02976206,0.41239,1.03307
161.552,22.36505,0.02943888,0.41332,1.03287
162.052,22.4131,0.02837867,0.41441,1.03267
162.552,22.46097,0.02844462,0.41408,1.03248
163.052,22.50881,0.02944118,0.41422,1.03228
163.552,22.5567,0.02942988,0.41473,1.03208
164.052,22.60446,0.02943,0.41596,1.03188
164.552,22.65232,0.02943,0.41582,1.03168
165.052,22.70027,0.02943,0.41653,1.03148
165.552,22.7481,0.02942996,0.42017,1.03128
166.052,22.79574,0.02948102,0.41799,1.03108
166.552,22.8434,0.02806291,0.41882,1.03088
167.052,22.8912,0.02943306,0.4187,1.03068
167.552,22.9389,0.02943,0.41874,1.03048
168.052,22.98665,0.02943622,0.42082,1.03028
168.552,23.03452,0.02810534,0.42009,1.03008
169.052,23.0822,0.02929284,0.42119,1.02988
169.552,23.13029,0.02805697,0.42156,1.02968
170.052,23.17809,0.0281099,0.42227,1.02948
170.552,23.226,0.02810903,0.42298,1.02927
171.052,23.27394,0.02708213,0.42266,1.02907
171.552,23.32183,0.02679948,0.42298,1.02887
172.052,23.36973,0.02683499,0.42385,1.02867
172.552,23.41766,0.02811031,0.42499,1.02846
173.052,23.46516,0.02779147,0.42462,1.02826
173.552,23.51292,0.02661197,0.42467,1.02806
174.052,23.5606,0.02766866,0.42544,1.02785
174.552,23.60753,0.02767,0.42649,1.02765
175.052,23.65513,0.02767,0.42747,1.02744
175.552,23.70293,0.02767,0.42734,1.02724
176.052,23.7506,0.02767014,0.42684,1.02703
176.552,23.79874,0.02769267,0.42747,1.02683
177.052,23.84691,0.02634978,0.42672,1.02662
177.552,23.89459,0.02635,0.4284,1.02641
178.052,23.94221,0.02635,0.42819,1.02621
178.552,23.99005,0.02635,0.42808,1.026
179.052,24.0378,0.02635,0.42867,1.02579
179.552,24.08559,0.02635,0.42847,1.02559
180.052,24.1331,0.02635,0.42958,1.02538
180.552,24.18078,0.02634994,0.43239,1.02517
181.052,24.22839,0.02633595,0.4312,1.02496
181.552,24.27604,0.02667958,0.4294,1.02475
182.052,24.32391,0.02667999,0.43026,1.02455
182.552,24.3717,0.02668351,0.43098,1.02434
183.052,24.41936,0.02535919,0.43008,1.02413
183.552,24.46704,0.02535998,0.43066,1.02392
184.052,24.51465,0.02536014,0.43116,1.02371
184.552,24.5622,0.02529529,0.43044,1.0235
185.052,24.60983,0.02634929,0.43116,1.02329
185.552,24.6573,0.02635,0.43119,1.02308
186.052,24.70482,0.02635,0.4325,1.02287
186.552,24.75253,0.02635,0.43379,1.02265
187.052,24.79972,0.02635036,0.43255,1.02244
187.552,24.84723,0.02510637,0.43269,1.02223
188.052,24.89507,0.02502978,0.43183,1.02202
188.552,24.94266,0.02503,0.43234,1.02181
189.052,24.99033,0.02503,0.4318,1.02159
189.552,25.03817,0.02502996,0.433,1.02138
190.052,25.08589,0.02509,0.43208,1.02117
190.552,25.13352,0.02403076,0.43212,1.02095
191.052,25.18131,0.02366137,0.43176,1.02074
191.552,25.22905,0.02273015,0.43178,1.02053
192.052,25.27657,0.02272995,0.43351,1.02031
192.552,25.3242,0.0227622,0.4341,1.0201
193.052,25.3718,0.02243782,0.4355,1.01988
193.552,25.41933,0.02108966,0.43343,1.01967
194.052,25.4669,0.02108403,0.43395,1.01945
194.552,25.51451,0.02241603,0.433,1.01923
195.052,25.5621,0.02241068,0.43389,1.01902
195.552,25.60981,0.02139928,0.43432,1.0188
196.052,25.6575,0.0214199,0.43395,1.01859
196.552,25.70522,0.02142254,0.4349,1.01837
197.052,25.75307,0.02109953,0.43712,1.01815
197.552,25.8007,0.02109,0.43915,1.01793
198.052,25.84845,0.0210919,0.43873,1.01772
198.552,25.8962,0.02042837,0.4404,1.0175
199.052,25.94361,0.01911557,0.4405,1.01728
199.552,25.99109,0.01877773,0.44281,1.01706
200.052,26.03866,0.01846162,0.44063,1.01684
200.552,26.08612,0.01844989,0.44246,1.01662
201.052,26.13379,0.01845003,0.44167,1.0164
201.552,26.1815,0.01843361,0.44038,1.01618
202.052,26.2291,0.01712989,0.44234,1.01596
202.552,26.27665,0.01711265,0.44065,1.01574
203.052,26.32418,0.01646748,0.44199,1.01552
203.552,26.3713,0.01616954,0.44247,1.0153
204.052,26.4189,0.01482059,0.44143,1.01508
204.552,26.4662,0.01481999,0.44463,1.01486
205.052,26.51381,0.01482,0.44284,1.01463
205.552,26.56157,0.01482012,0.44401,1.01441
206.052,26.6094,0.01481253,0.44401,1.01419
206.552,26.65723,0.01350857,0.44427,1.01397
207.052,26.70485,0.01351002,0.44224,1.01374
207.552,26.7524,0.01350373,0.44336,1.01352
208.052,26.79992,0.01318017,0.44461,1.0133
208.552,26.8473,0.01124704,0.44277,1.01307
209.052,26.8949,0.01120484,0.44452,1.01285
209.552,26.9424,0.01056708,0.44317,1.01262
210.052,26.99012,0.009486413,0.4445,1.0124
210.552,27.0378,0.009230041,0.44407,1.01217
211.052,27.0854,0.00922417,0.44469,1.01195
211.552,27.13305,0.01054736,0.44489,1.01172
212.052,27.18062,0.00916749,0.44713,1.0115
212.552,27.22815,0.009229838,0.44584,1.01127
213.052,27.27573,0.008200604,0.44937,1.01104
213.552,27.32323,0.007966199,0.44971,1.01082
214.052,27.37067,0.007257919,0.45012,1.01059
214.552,27.41814,0.005263156,0.44942,1.01036
215.052,27.46575,0.00528549,0.45101,1.01013
215.552,27.51325,0.004379765,0.45144,1.0099
216.052,27.5607,0.003959185,0.45402,1.00968
216.552,27.60815,0.00306182,0.45261,1.00945
217.052,27.6556,0.00264036,0.45275,1.00922
217.552,27.703,0.00245267,0.45158,1.00899
218.052,27.75051,0.001354971,0.45262,1.00876
218.552,27.79816,1.03305e-05,0.45374,1.00853
219.052,27.84583,-6.40783e-06,0.4545,1.0083
219.552,27.8935,-0.0009762544,0.45486,1.00807
220.052,27.94097,-0.001324093,0.45504,1.00784
220.552,27.98855,-0.002910116,0.45769,1.00761
221.052,28.03585,-0.003277757,0.45605,1.00738
221.552,28.08336,-0.005247902,0.45748,1.00714
222.052,28.13095,-0.005268991,0.45771,1.00691
222.552,28.1787,-0.006580548,0.45844,1.00668
223.052,28.22652,-0.00657329,0.45697,1.00645
223.552,28.2745,-0.007907236,0.45889,1.00622
224.052,28.3221,-0.008787618,0.45856,1.00598
224.552,28.3696,-0.009570189,0.459,1.00575
225.052,28.41703,-0.0103529,0.45879,1.00551
225.552,28.46466,-0.01259395,0.45832,1.00528
226.052,28.5122,-0.01314719,0.45866,1.00505
226.552,28.5601,-0.01386112,0.45856,1.00481
227.052,28.60762,-0.01514642,0.45925,1.00458
227.552,28.6552,-0.01646664,0.45894,1.00434
228.052,28.70283,-0.01745581,0.46096,1.00411
228.552,28.7504,-0.0192688,0.46109,1.00387
229.052,28.798,-0.02148058,0.46273,1.00363
229.552,28.84569,-0.02147256,0.46125,1.0034
230.052,28.8933,-0.02286434,0.46177,1.00316
230.552,28.941,-0.02426661,0.46141,1.00292
231.052,28.98876,-0.02389703,0.46282,1.00269
231.552,29.03622,-0.02581824,0.46392,1.00245
232.052,29.0838,-0.02758138,0.46471,1.00221
232.552,29.1312,-0.02894089,0.46659,1.00197
233.052,29.17884,-0.03161737,0.46978,1.00174
233.552,29.22648,-0.03293323,0.46913,1.0015
234.052,29.2741,-0.03492099,0.47022,1.00126
234.552,29.3219,-0.03730621,0.47378,1.00102
235.052,29.3695,-0.03819482,0.4747,1.00078
235.552,29.41705,-0.03898606,0.47498,1.00054
236.052,29.46452,-0.04059799,0.47749,1.0003
236.552,29.5121,-0.04244133,0.47787,1.00006
237.052,29.55961,-0.04391315,0.47951,0.99982
237.552,29.60724,-0.04584384,0.47892,0.99958
238.052,29.6548,-0.04773967,0.47992,0.99934
238.552,29.7023,-0.04945941,0.47988,0.99909
239.052,29.74985,-0.05177388,0.48196,0.99885
239.552,29.79743,-0.05399608,0.48174,0.99861
240.052,29.84494,-0.05787892,0.48354,0.99837
240.552,29.89247,-0.05970502,0.48264,0.99812
241.052,29.94,-0.06115845,0.48376,0.99788
241.552,29.98762,-0.06392761,0.4841,0.99764
242.052,30.03517,-0.06620293,0.48295,0.99739
242.552,30.0828,-0.06871171,0.4864,0.99715
243.052,30.1304,-0.07168304,0.48515,0.9969
243.552,30.17805,-0.07418029,0.48637,0.99666
244.052,30.22549,-0.07666913,0.48709,0.99642
244.552,30.273,-0.07830726,0.48664,0.99617
245.052,30.3205,-0.08189105,0.48741,0.99592
245.552,30.368,-0.08335894,0.49041,0.99568
246.052,30.4155,-0.08682773,0.48817,0.99543
246.552,30.4633,-0.09031749,0.49032,0.99519
247.052,30.511,-0.09384149,0.49097,0.99494
247.552,30.5585,-0.09553949,0.49218,0.99469
248.052,30.60603,-0.09849924,0.49358,0.99444
248.552,30.65353,-0.10275,0.49635,0.9942
249.052,30.70093,-0.10619,0.4987,0.99395
249.552,30.74843,-0.10944,0.49845,0.9937
250.052,30.79593,-0.11242,0.49936,0.99345
250.552,30.8436,-0.11651,0.50251,0.9932
251.052,30.8911,-0.11994,0.50453,0.99295
251.552,30.9386,-0.12409,0.50851,0.99271
252.052,30.98613,-0.12825,0.50936,0.99246
252.552,31.03357,-0.13232,0.51016,0.99221
253.052,31.0812,-0.13674,0.51117,0.99195
253.552,31.12878,-0.14005,0.51723,0.9917
254.052,31.17635,-0.14501,0.51903,0.99145
254.552,31.22413,-0.15005,0.52015,0.9912
255.052,31.2718,-0.15446,0.52179,0.99095
255.552,31.3195,-0.16065,0.52366,0.9907
256.052,31.36717,-0.16552,0.52387,0.99045
256.552,31.4147,-0.16982,0.52511,0.99019
257.052,31.46215,-0.1755,0.5223,0.98994
257.552,31.50971,-0.1802,0.52329,0.98969
258.052,31.55726,-0.18484,0.5232,0.98944
258.552,31.60483,-0.19138,0.52449,0.98918
259.052,31.6524,-0.19796,0.52893,0.98893
259.552,31.7,-0.20288,0.52966,0.98867
260.052,31.7478,-0.20905,0.53081,0.98842
260.552,31.79553,-0.21505,0.52716,0.98816
261.052,31.84335,-0.22147,0.5287,0.98791
261.552,31.891,-0.22725,0.52979,0.98765
262.052,31.93872,-0.23423,0.52974,0.9874
262.552,31.98638,-0.24102,0.53073,0.98714
263.052,32.03406,-0.2486,0.53051,0.98689
263.552,32.0817,-0.25464,0.53216,0.98663
264.052,32.12943,-0.26132,0.5337,0.98637
264.552,32.17696,-0.26957,0.53845,0.98611
265.052,32.22461,-0.27727,0.54105,0.98586
265.552,32.27225,-0.28419,0.54662,0.9856
266.052,32.31985,-0.29264,0.55411,0.98534
266.552,32.3675,-0.30087,0.56014,0.98508
267.052,32.4152,-0.3085,0.56945,0.98482
267.552,32.46278,-0.31683,0.57624,0.98456
268.052,32.51043,-0.32491,0.58538,0.98431
268.552,32.55814,-0.33347,0.59143,0.98405
269.052,32.6058,-0.34284,0.59988,0.98379
269.552,32.65336,-0.35007,0.60486,0.98353
270.052,32.7012,-0.35933,0.61373,0.98326
270.552,32.74886,-0.36846,0.62087,0.983
271.052,32.79667,-0.378,0.62648,0.98274
271.552,32.84451,-0.38526,0.63182,0.98248
272.052,32.89253,-0.39518,0.64003,0.98222
272.552,32.94042,-0.40547,0.64548,0.98196
273.052,32.98835,-0.41574,0.65163,0.9817
273.552,33.0362,-0.42574,0.65803,0.98143
274.052,33.08395,-0.43536,0.6625,0.98117
274.552,33.13165,-0.44588,0.66846,0.98091
275.052,33.17937,-0.45597,0.67402,0.98064
275.552,33.22698,-0.46616,0.67673,0.98038
276.052,33.27462,-0.47734,0.68343,0.98011
276.552,33.32245,-0.48914,0.68881,0.97985
277.052,33.37034,-0.4995,0.697,0.97959
277.552,33.41823,-0.51101,0.69935,0.97932
278.052,33.46622,-0.52385,0.70509,0.97906
278.552,33.51412,-0.53675,0.71239,0.97879
279.052,33.562,-0.54815,0.71741,0.97852
279.552,33.60987,-0.56104,0.72429,0.97826
280.052,33.6576,-0.57436,0.72914,0.97799
280.552,33.70517,-0.588,0.73581,0.97772
281.052,33.7528,-0.60129,0.74176,0.97746
281.552,33.80049,-0.6166,0.74698,0.97719
282.052,33.84827,-0.63059,0.75481,0.97692
282.552,33.896,-0.64474,0.76075,0.97665
283.052,33.944,-0.66,0.76608,0.97638
283.552,33.99176,-0.67528,0.77693,0.97612
284.052,34.0396,-0.69078,0.78207,0.97585
284.552,34.0876,-0.70617,0.79153,0.97558
285.052,34.1355,-0.7219,0.79818,0.97531
285.552,34.18325,-0.73964,0.80523,0.97504
286.052,34.23077,-0.7573,0.81107,0.97477
286.552,34.27859,-0.77506,0.82023,0.9745
287.052,34.32645,-0.79223,0.8305,0.97423
287.552,34.37427,-0.80966,0.84039,0.97395
288.052,34.4225,-0.82903,0.85386,0.97368
288.552,34.47043,-0.84916,0.86788,0.97341
289.052,34.5184,-0.87011,0.88264,0.97314
289.552,34.56625,-0.88939,0.89667,0.97287
290.052,34.61421,-0.91099,0.91088,0.97259
290.552,34.66214,-0.93078,0.92416,0.97232
291.052,34.71,-0.95025,0.93218,0.97205
291.552,34.75786,-0.97253,0.94333,0.97177
292.052,34.80556,-0.99434,0.94768,0.9715
292.552,34.85346,-1.01606,0.95206,0.97123
293.052,34.90135,-1.03849,0.95381,0.97095
293.552,34.94942,-1.06318,0.95241,0.97068
294.052,34.99753,-1.0873,0.95531,0.9704
294.552,35.04554,-1.11074,0.95093,0.97013
295.052,35.0935,-1.1343,0.95018,0.96985
295.552,35.1415,-1.1584,0.94443,0.96958
296.052,35.1895,-1.18532,0.94916,0.9693
296.552,35.2376,-1.21144,0.95111,0.96902
297.052,35.28559,-1.23479,0.95519,0.96875
297.552,35.33347,-1.25862,0.96159,0.96847
298.052,35.38129,-1.28296,0.96432,0.96819
298.552,35.42926,-1.30637,0.96914,0.96791
299.052,35.47726,-1.32996,0.97159,0.96763
299.552,35.52519,-1.35208,0.97202,0.96736
300.052,35.57332,-1.37106,0.97023,0.96708
300.552,35.62145,-1.39188,0.96672,0.9668
301.052,35.66918,-1.41347,0.96284,0.96652
301.552,35.71723,-1.43237,0.95825,0.96624
302.052,35.76522,-1.45016,0.95174,0.96596
302.552,35.81315,-1.46838,0.94504,0.96568
303.052,35.86122,-1.48659,0.93418,0.9654
303.552,35.90911,-1.50368,0.92414,0.96512
304.052,35.95701,-1.51962,0.91265,0.96484
304.552,36.00495,-1.53442,0.89866,0.96455
305.052,36.05279,-1.5484,0.88927,0.96427
305.552,36.10083,-1.56213,0.87718,0.96399
306.052,36.14887,-1.57594,0.86303,0.96371
306.552,36.19677,-1.58974,0.84721,0.96343
307.052,36.2447,-1.60225,0.83497,0.96314
307.552,36.29271,-1.61351,0.81762,0.96286
308.052,36.34068,-1.62449,0.80092,0.96258
308.552,36.38864,-1.63661,0.78623,0.96229
309.052,36.43647,-1.64874,0.76503,0.96201
309.552,36.48433,-1.65825,0.74965,0.96172
310.052,36.53195,-1.66785,0.73145,0.96144
310.552,36.5798,-1.67693,0.71575,0.96115
311.052,36.6276,-1.68601,0.69758,0.96087
311.552,36.67544,-1.6938,0.67894,0.96058
312.052,36.72336,-1.70247,0.66407,0.9603
312.552,36.77107,-1.70998,0.64745,0.96001
313.052,36.81863,-1.71681,0.63089,0.95972
313.552,36.86616,-1.72197,0.61475,0.95944
314.052,36.91389,-1.7287,0.59991,0.95915
314.552,36.96155,-1.73522,0.58484,0.95886
315.052,37.00943,-1.74019,0.56923,0.95857
315.552,37.05722,-1.74574,0.55685,0.95828
316.052,37.1051,-1.7515,0.5417,0.958
316.552,37.15296,-1.75668,0.52813,0.95771
317.052,37.2008,-1.7614,0.51672,0.95742
317.552,37.24855,-1.76483,0.50392,0.95713
318.052,37.29636,-1.76871,0.49391,0.95684
318.552,37.34403,-1.77456,0.48046,0.95655
319.052,37.39159,-1.77816,0.47047,0.95626
319.552,37.43922,-1.78178,0.46055,0.95597
320.052,37.487,-1.78442,0.44832,0.95568
320.552,37.53485,-1.78778,0.43982,0.95539
321.052,37.58259,-1.79068,0.43093,0.95509
321.552,37.63037,-1.79402,0.42236,0.9548
322.052,37.67815,-1.7973,0.4146,0.95451
322.552,37.72573,-1.80109,0.40739,0.95422
323.052,37.77347,-1.8044,0.39943,0.95392
323.552,37.82124,-1.80661,0.39337,0.95363
324.052,37.86894,-1.80965,0.38533,0.95334
324.552,37.9168,-1.81381,0.37957,0.95304
325.052,37.96461,-1.81568,0.37274,0.95275
325.552,38.0124,-1.81802,0.36709,0.95246
326.052,38.06025,-1.81854,0.36275,0.95216
326.552,38.1081,-1.81947,0.35714,0.95187
327.052,38.15605,-1.82142,0.3512,0.95157
327.552,38.2039,-1.82405,0.34601,0.95128
328.052,38.2519,-1.82521,0.34082,0.95098
328.552,38.29972,-1.82939,0.33568,0.95068
329.052,38.3476,-1.83169,0.33205,0.95039
329.552,38.39545,-1.83374,0.32777,0.95009
330.052,38.44348,-1.83474,0.32222,0.94979
330.552,38.49146,-1.8365,0.31957,0.9495
331.052,38.53947,-1.83669,0.31542,0.9492
331.552,38.58744,-1.83793,0.31188,0.9489
332.052,38.63534,-1.84034,0.3074,0.9486
332.552,38.6833,-1.84245,0.3031,0.9483
333.052,38.73133,-1.84414,0.30007,0.948
333.552,38.77925,-1.845,0.29767,0.94771
334.052,38.82739,-1.84497,0.29455,0.94741
334.552,38.87526,-1.84643,0.29121,0.94711
335.052,38.92325,-1.848,0.2867,0.94681
335.552,38.97136,-1.84913,0.28384,0.94651
336.052,39.01964,-1.85028,0.2831,0.9462
336.552,39.06793,-1.85162,0.27874,0.9459
337.052,39.11598,-1.85292,0.27769,0.9456
337.552,39.1641,-1.85417,0.27539,0.9453
338.052,39.212,-1.85555,0.27226,0.945
338.552,39.25966,-1.85554,0.26989,0.9447
339.052,39.30777,-1.85687,0.2684,0.94439
339.552,39.35586,-1.85682,0.26705,0.94409
340.052,39.4039,-1.85818,0.26327,0.94379
340.552,39.4523,-1.85812,0.26209,0.94348
341.052,39.50051,-1.85955,0.26051,0.94318
341.552,39.54853,-1.86083,0.25935,0.94288
342.052,39.5968,-1.86213,0.25679,0.94257
342.552,39.64508,-1.86209,0.25679,0.94227
343.052,39.69339,-1.86345,0.25634,0.94196
343.552,39.74175,-1.86482,0.25548,0.94166
344.052,39.79,-1.86477,0.25005,0.94135
344.552,39.8384,-1.86606,0.24908,0.94105
345.052,39.88667,-1.86654,0.24896,0.94074
345.552,39.93483,-1.86876,0.24756,0.94043
346.052,39.9831,-1.86872,0.24554,0.94013
346.552,40.03141,-1.86986,0.24612,0.93982
347.052,40.07976,-1.87004,0.24447,0.93951
347.552,40.12798,-1.86871,0.24481,0.9392
348.052,40.17633,-1.87004,0.24335,0.9389
348.552,40.22467,-1.87102,0.24339,0.93859
349.052,40.27284,-1.87199,0.24302,0.93828
349.552,40.32105,-1.87235,0.24168,0.93797
350.052,40.36943,-1.87367,0.24169,0.93766
350.552,40.41765,-1.87366,0.24034,0.93735
351.052,40.46594,-1.87483,0.23894,0.93704
351.552,40.51424,-1.87498,0.23934,0.93673
352.052,40.56264,-1.87361,0.23804,0.93642
352.552,40.6108,-1.87364,0.2364,0.93611
353.052,40.65911,-1.87498,0.23444,0.9358
353.552,40.7076,-1.87494,0.23598,0.93549
354.052,40.75584,-1.87766,0.23528,0.93517
354.552,40.80424,-1.87762,0.23382,0.93486
355.052,40.85259,-1.87762,0.23286,0.93455
355.552,40.9009,-1.87761,0.23186,0.93424
356.052,40.94931,-1.87829,0.23132,0.93392
356.552,40.99759,-1.87893,0.2286,0.93361
357.052,41.04599,-1.87906,0.22836,0.9333
357.552,41.09448,-1.88025,0.22932,0.93298
358.052,41.14275,-1.88025,0.22866,0.93267
358.552,41.19112,-1.88016,0.2281,0.93236
359.052,41.23937,-1.87926,0.22661,0.93204
359.552,41.28764,-1.87928,0.22654,0.93173
360.052,41.336,-1.88058,0.22675,0.93141
360.552,41.38447,-1.88066,0.22447,0.93109
361.052,41.43295,-1.88308,0.22375,0.93078
361.552,41.48145,-1.88322,0.22349,0.93046
362.052,41.53,-1.88322,0.22276,0.93015
362.552,41.57858,-1.88223,0.22313,0.92983
363.052,41.62717,-1.88219,0.22392,0.92951
363.552,41.6757,-1.88354,0.22356,0.92919
364.052,41.7241,-1.88354,0.22264,0.92888
364.552,41.7725,-1.88354,0.22201,0.92856
365.052,41.82092,-1.88493,0.22115,0.92824
365.552,41.86936,-1.88486,0.22159,0.92792
366.052,41.91783,-1.88486,0.22211,0.9276
366.552,41.96632,-1.88486,0.22106,0.92728
367.052,42.01487,-1.88486,0.22053,0.92696
367.552,42.06347,-1.88486,0.2213,0.92664
368.052,42.11206,-1.88499,0.22096,0.92632
368.552,42.16067,-1.88618,0.22121,0.926
369.052,42.2092,-1.88618,0.21951,0.92568
369.552,42.2577,-1.88618,0.21934,0.92536
370.052,42.30616,-1.88618,0.22113,0.92504
370.552,42.35456,-1.88618,0.22043,0.92472
371.052,42.40305,-1.88723,0.21755,0.9244
371.552,42.45156,-1.88717,0.21873,0.92407
372.052,42.50012,-1.88719,0.21951,0.92375
372.552,42.54848,-1.8875,0.21929,0.92343
373.052,42.59686,-1.88745,0.21923,0.9231
373.552,42.64541,-1.88942,0.2185,0.92278
374.052,42.69388,-1.89013,0.21955,0.92246
374.552,42.7425,-1.88949,0.2187,0.92213
375.052,42.7915,-1.88945,0.21826,0.92181
375.552,42.84023,-1.89079,0.21787,0.92148
376.052,42.8889,-1.89079,0.21817,0.92116
376.552,42.93745,-1.89079,0.21817,0.92083
377.052,42.98604,-1.8908,0.21718,0.92051
377.552,43.03456,-1.8921,0.2166,0.92018
378.052,43.08314,-1.8921,0.2167,0.91985
378.552,43.1316,-1.89344,0.21638,0.91953
379.052,43.18022,-1.89343,0.21537,0.9192
379.552,43.22868,-1.89343,0.21499,0.91887
380.052,43.2772,-1.89342,0.21721,0.91855
380.552,43.32585,-1.89474,0.21469,0.91822
381.052,43.37447,-1.89474,0.21557,0.91789
381.552,43.4232,-1.89474,0.21542,0.91756
382.052,43.47143,-1.89474,0.21492,0.91723
382.552,43.5199,-1.89474,0.2168,0.9169
383.052,43.56845,-1.89534,0.21421,0.91657
383.552,43.6171,-1.89606,0.21364,0.91624
384.052,43.66601,-1.89609,0.21466,0.91591
384.552,43.7149,-1.89541,0.2129,0.91558
385.052,43.76362,-1.89671,0.21322,0.91525
385.552,43.8122,-1.89672,0.21203,0.91492
386.052,43.86078,-1.89672,0.21246,0.91459
386.552,43.90951,-1.89673,0.21433,0.91426
387.052,43.9583,-1.89869,0.2118,0.91393
387.552,44.00697,-1.89869,0.21413,0.9136
388.052,44.0557,-1.89869,0.2126,0.91326
388.552,44.10411,-1.89864,0.2122,0.91293
389.052,44.15272,-1.9,0.21148,0.9126
389.552,44.20127,-1.89869,0.21206,0.91227
390.052,44.24989,-1.89872,0.21126,0.91193
390.552,44.2986,-1.89968,0.21273,0.9116
391.052,44.34725,-1.9,0.21037,0.91126
391.552,44.39593,-1.90136,0.21036,0.91093
392.052,44.44461,-1.90134,0.211,0.91059
392.552,44.4933,-1.90395,0.21143,0.91026
393.052,44.54193,-1.90396,0.21097,0.90992
393.552,44.59064,-1.90396,0.20943,0.90959
394.052,44.63915,-1.90396,0.21141,0.90925
394.552,44.68792,-1.90396,0.21025,0.90892
395.052,44.73655,-1.90396,0.21045,0.90858
395.552,44.78528,-1.90455,0.20975,0.90824
396.052,44.83396,-1.90528,0.21106,0.90791
396.552,44.8824,-1.90602,0.21032,0.90757
397.052,44.93097,-1.9066,0.21219,0.90723
397.552,44.9797,-1.9066,0.21089,0.90689
398.052,45.02814,-1.90657,0.21027,0.90655
398.552,45.0769,-1.90791,0.21099,0.90622
399.052,45.12545,-1.90933,0.21051,0.90588
399.552,45.17395,-1.91055,0.20992,0.90554
400.052,45.22252,-1.91055,0.20805,0.9052
400.552,45.2711,-1.91055,0.20861,0.90486
401.052,45.31989,-1.91055,0.21103,0.90452
401.552,45.36861,-1.91055,0.2095,0.90418
402.052,45.4174,-1.91187,0.20947,0.90384
402.552,45.4662,-1.91187,0.20743,0.9035
403.052,45.51491,-1.91326,0.20749,0.90315
403.552,45.56354,-1.9134,0.20866,0.90281
404.052,45.61218,-1.9145,0.20643,0.90247
404.552,45.66082,-1.9145,0.20428,0.90213
405.052,45.70949,-1.9145,0.20717,0.90179
405.552,45.75819,-1.91583,0.20737,0.90144
406.052,45.80684,-1.91581,0.20668,0.9011
406.552,45.85552,-1.91716,0.20356,0.90076
407.052,45.90415,-1.91843,0.20434,0.90041
407.552,45.95285,-1.91978,0.2029,0.90007
408.052,46.00158,-1.92116,0.20083,0.89972
408.552,46.05041,-1.9201,0.19903,0.89938
409.052,46.09913,-1.92142,0.20077,0.89904
409.552,46.14788,-1.92103,0.19825,0.89869
410.052,46.19644,-1.9224,0.19891,0.89834
410.552,46.2453,-1.92373,0.19811,0.898
411.052,46.29383,-1.92372,0.198,0.89765
411.552,46.34265,-1.92372,0.19706,0.89731
412.052,46.39163,-1.92373,0.1969,0.89696
412.552,46.4405,-1.92503,0.1962,0.89661
413.052,46.48955,-1.92636,0.19368,0.89627
413.552,46.53864,-1.92765,0.19255,0.89592
414.052,46.5874,-1.92768,0.19392,0.89557
414.552,46.63608,-1.92897,0.19259,0.89522
415.052,46.68482,-1.92889,0.19108,0.89487
415.552,46.73356,-1.93053,0.19015,0.89452
416.052,46.78233,-1.93164,0.18857,0.89418
416.552,46.8311,-1.93293,0.18704,0.89383
417.052,46.87993,-1.93426,0.18808,0.89348
417.552,46.92873,-1.93426,0.18376,0.89313
418.052,46.97746,-1.93558,0.18456,0.89278
418.552,47.0263,-1.93549,0.18415,0.89243
419.052,47.07508,-1.93699,0.18395,0.89207
419.552,47.12401,-1.93864,0.1819,0.89172
420.052,47.173,-1.93997,0.17994,0.89137
420.552,47.2216,-1.94093,0.17986,0.89102
421.052,47.2704,-1.94227,0.18036,0.89067
421.552,47.31908,-1.94359,0.1785,0.89032
422.052,47.36784,-1.94382,0.17807,0.88996
422.552,47.41685,-1.94544,0.17695,0.88961
423.052,47.4658,-1.94682,0.17763,0.88926
423.552,47.5148,-1.947,0.17577,0.8889
424.052,47.56365,-1.94832,0.17655,0.88855
424.552,47.6124,-1.94964,0.17522,0.8882
425.052,47.66135,-1.95096,0.17566,0.88784
425.552,47.71022,-1.95229,0.17542,0.88749
426.052,47.75905,-1.95359,0.17536,0.88713
426.552,47.80795,-1.9549,0.17437,0.88678
427.052,47.85682,-1.95639,0.17241,0.88642
427.552,47.90574,-1.95776,0.17431,0.88607
428.052,47.95467,-1.95911,0.17426,0.88571
428.552,48.00346,-1.96044,0.1729,0.88535
429.052,48.05243,-1.96248,0.17458,0.885
429.552,48.10132,-1.96467,0.17371,0.88464
430.052,48.1502,-1.96587,0.17431,0.88428
430.552,48.19913,-1.96732,0.17326,0.88392
431.052,48.24788,-1.96886,0.17331,0.88357
431.552,48.29655,-1.97124,0.17273,0.88321
432.052,48.3453,-1.97277,0.17536,0.88285
432.552,48.3941,-1.9741,0.17714,0.88249
433.052,48.44308,-1.97537,0.17435,0.88213
433.552,48.49211,-1.9771,0.17544,0.88177
434.052,48.5412,-1.97942,0.17656,0.88141
434.552,48.59012,-1.98107,0.17767,0.88105
435.052,48.6391,-1.98247,0.1758,0.88069
435.552,48.68821,-1.98534,0.17547,0.88033
436.052,48.7371,-1.98623,0.1759,0.87997
436.552,48.78618,-1.98773,0.17623,0.87961
437.052,48.83513,-1.99079,0.17781,0.87925
437.552,48.88402,-1.9922,0.17826,0.87889
438.052,48.93294,-1.99436,0.17905,0.87853
438.552,48.98171,-1.99692,0.18018,0.87816
439.052,49.03066,-1.99989,0.18105,0.8778
439.552,49.07971,-2.00279,0.1809,0.87744
440.052,49.12872,-2.00604,0.18177,0.87708
440.552,49.17776,-2.00857,0.18242,0.87671
441.052,49.22663,-2.01052,0.1847,0.87635
441.552,49.2754,-2.0134,0.18701,0.87598
442.052,49.3243,-2.01531,0.18938,0.87562
442.552,49.37294,-2.01738,0.18922,0.87526
443.052,49.42187,-2.01896,0.19139,0.87489
443.552,49.4709,-2.0226,0.19168,0.87453
444.052,49.51997,-2.02498,0.19194,0.87416
444.552,49.5692,-2.02802,0.19187,0.87379
445.052,49.6184,-2.02974,0.19347,0.87343
445.552,49.66745,-2.03293,0.19267,0.87306
446.052,49.71648,-2.03524,0.19642,0.8727
446.552,49.7654,-2.03767,0.19816,0.87233
447.052,49.81426,-2.0404,0.20003,0.87196
447.552,49.86333,-2.04607,0.20124,0.87159
448.052,49.91214,-2.04841,0.20361,0.87123
448.552,49.9613,-2.05171,0.20575,0.87086
449.052,50.01068,-2.05544,0.20787,0.87049
449.552,50.05989,-2.05869,0.20703,0.87012
450.052,50.10921,-2.06217,0.21053,0.86975
450.552,50.15863,-2.06587,0.21229,0.86938
451.052,50.20775,-2.06913,0.21424,0.86901
451.552,50.2569,-2.07228,0.21699,0.86864
452.052,50.30597,-2.07324,0.21744,0.86827
452.552,50.3553,-2.07638,0.21891,0.8679
453.052,50.40447,-2.08004,0.22083,0.86753
453.552,50.4538,-2.08464,0.22179,0.86716
454.052,50.50314,-2.08844,0.22299,0.86679
454.552,50.55237,-2.09213,0.22602,0.86642
455.052,50.60171,-2.09575,0.22873,0.86605
455.552,50.65096,-2.09944,0.22937,0.86568
456.052,50.7002,-2.10291,0.23255,0.8653
456.552,50.7495,-2.10541,0.23411,0.86493
457.052,50.7986,-2.10823,0.235,0.86456
457.552,50.84783,-2.11128,0.23419,0.86419
458.052,50.897,-2.11652,0.23918,0.86381
458.552,50.94617,-2.12053,0.23939,0.86344
459.052,50.99534,-2.12386,0.23975,0.86307
459.552,51.0442,-2.12582,0.24199,0.86269
460.052,51.09332,-2.12913,0.24393,0.86232
460.552,51.1423,-2.13422,0.24421,0.86194
461.052,51.19149,-2.13728,0.24646,0.86157
461.552,51.24094,-2.13882,0.24529,0.86119
462.052,51.2902,-2.14211,0.24762,0.86082
462.552,51.33964,-2.14607,0.24894,0.86044
463.052,51.38884,-2.14964,0.25116,0.86006
463.552,51.43793,-2.15437,0.2498,0.85969
464.052,51.48707,-2.15819,0.25285,0.85931
464.552,51.53637,-2.1614,0.25329,0.85893
465.052,51.58551,-2.16398,0.25619,0.85856
465.552,51.63475,-2.16704,0.25629,0.85818
466.052,51.6839,-2.1697,0.25572,0.8578
466.552,51.73295,-2.17316,0.25498,0.85742
467.052,51.78201,-2.17617,0.25722,0.85704
467.552,51.83115,-2.17808,0.25667,0.85667
468.052,51.88051,-2.18145,0.2584,0.85629
468.552,51.9298,-2.18526,0.25959,0.85591
469.052,51.97896,-2.18853,0.2599,0.85553
469.552,52.0283,-2.19157,0.25938,0.85515
470.052,52.0774,-2.19494,0.25912,0.85477
470.552,52.1265,-2.19752,0.25823,0.85439
471.052,52.17569,-2.2,0.26057,0.85401
471.552,52.2248,-2.2035,0.25841,0.85363
472.052,52.27363,-2.2052,0.26019,0.85324
472.552,52.32273,-2.20796,0.25962,0.85286
473.052,52.37186,-2.21093,0.26004,0.85248
473.552,52.42114,-2.21423,0.25843,0.8521
474.052,52.4704,-2.21753,0.25848,0.85172
474.552,52.51965,-2.21953,0.25595,0.85133
475.052,52.56881,-2.222,0.25654,0.85095
475.552,52.6179,-2.22416,0.25838,0.85057
476.052,52.66718,-2.22702,0.25828,0.85018
476.552,52.71663,-2.22998,0.25607,0.8498
477.052,52.76608,-2.23182,0.25639,0.84942
477.552,52.81535,-2.23448,0.25342,0.84903
478.052,52.8646,-2.23638,0.25417,0.84865
478.552,52.9137,-2.23864,0.25555,0.84826
479.052,52.96285,-2.24153,0.25244,0.84788
479.552,53.0119,-2.24322,0.25504,0.84749
480.052,53.061,-2.24606,0.25484,0.84711
480.552,53.11011,-2.24743,0.25351,0.84672
481.052,53.15922,-2.25044,0.25196,0.84634
481.552,53.2086,-2.25348,0.25124,0.84595
482.052,53.2579,-2.25479,0.25135,0.84556
482.552,53.30724,-2.25704,0.25077,0.84518
483.052,53.35651,-2.25936,0.25078,0.84479
483.552,53.40585,-2.26249,0.24931,0.8444
484.052,53.45514,-2.26375,0.2502,0.84401
484.552,53.5044,-2.26515,0.24809,0.84362
485.052,53.554,-2.26758,0.247,0.84324
485.552,53.6032,-2.26956,0.24932,0.84285
486.052,53.6525,-2.2723,0.24741,0.84246
486.552,53.7019,-2.27433,0.24767,0.84207
487.052,53.75115,-2.27553,0.24566,0.84168
487.552,53.8004,-2.27735,0.24594,0.84129
488.052,53.84989,-2.2794,0.24737,0.8409
488.552,53.8992,-2.28085,0.24597,0.84051
489.052,53.9486,-2.28217,0.24542,0.84012
489.552,53.9979,-2.28435,0.24624,0.83973
490.052,54.0472,-2.28622,0.24451,0.83934
490.552,54.09655,-2.28744,0.24461,0.83895
491.052,54.14589,-2.2886,0.24394,0.83856
491.552,54.1953,-2.28984,0.24323,0.83816
492.052,54.2447,-2.29146,0.24005,0.83777
492.552,54.29382,-2.29302,0.24294,0.83738
493.052,54.3431,-2.29566,0.24208,0.83699
493.552,54.3925,-2.29563,0.24262,0.83659
494.052,54.44163,-2.29711,0.24177,0.8362
494.552,54.49115,-2.29843,0.23972,0.83581
495.052,54.54059,-2.2984,0.24137,0.83541
495.552,54.5901,-2.30026,0.24029,0.83502
496.052,54.63984,-2.30116,0.24061,0.83462
496.552,54.6893,-2.30116,0.24045,0.83423
497.052,54.73865,-2.30248,0.23835,0.83384
497.552,54.78799,-2.3038,0.23608,0.83344
498.052,54.83738,-2.30522,0.2359,0.83304
498.552,54.8869,-2.30654,0.2374,0.83265
499.052,54.9363,-2.30654,0.23665,0.83225
499.552,54.98571,-2.30784,0.23667,0.83186
500.052,55.0351,-2.30924,0.23512,0.83146
500.552,55.0844,-2.31054,0.23441,0.83106
501.052,55.1337,-2.31173,0.23577,0.83067
501.552,55.18255,-2.31177,0.2361,0.83027
502.052,55.2317,-2.31323,0.23506,0.82987
502.552,55.28106,-2.31444,0.23601,0.82948
503.052,55.3304,-2.3152,0.23563,0.82908
503.552,55.38,-2.31576,0.23486,0.82868
504.052,55.42954,-2.31709,0.23522,0.82828
504.552,55.4788,-2.31708,0.23511,0.82788
505.052,55.52803,-2.31832,0.23374,0.82748
505.552,55.57716,-2.31905,0.23533,0.82708
506.052,55.62659,-2.3195,0.23452,0.82668
506.552,55.6761,-2.32037,0.23507,0.82628
507.052,55.72544,-2.32099,0.23506,0.82588
507.552,55.77514,-2.32103,0.23393,0.82548
508.052,55.8244,-2.32105,0.23482,0.82508
508.552,55.8735,-2.32235,0.23619,0.82468
509.052,55.9229,-2.32234,0.23479,0.82428
509.552,55.9723,-2.32367,0.23554,0.82388
510.052,56.0218,-2.32361,0.23678,0.82348
510.552,56.07104,-2.32498,0.23842,0.82308
511.052,56.1205,-2.32508,0.23723,0.82267
511.552,56.1699,-2.32599,0.23742,0.82227
512.052,56.21937,-2.3263,0.23687,0.82187
512.552,56.2691,-2.32663,0.23672,0.82147
513.052,56.31861,-2.32696,0.23615,0.82106
513.552,56.36809,-2.32694,0.235,0.82066
514.052,56.4176,-2.32828,0.23441,0.82026
514.552,56.46695,-2.3283,0.23446,0.81985
515.052,56.51635,-2.3296,0.2359,0.81945
515.552,56.56575,-2.33024,0.23536,0.81904
516.052,56.615,-2.33092,0.23641,0.81864
516.552,56.6646,-2.33092,0.23537,0.81823
517.052,56.71409,-2.33092,0.23551,0.81783
517.552,56.7637,-2.33173,0.23543,0.81742
518.052,56.81341,-2.3316,0.23656,0.81702
518.552,56.863,-2.33158,0.23498,0.81661
519.052,56.91264,-2.33299,0.23602,0.81621
519.552,56.96227,-2.33291,0.2346,0.8158
520.052,57.012,-2.33421,0.23379,0.81539
520.552,57.06165,-2.33421,0.2344,0.81499
521.052,57.11127,-2.33422,0.23552,0.81458
521.552,57.1607,-2.33517,0.23496,0.81417
522.052,57.21024,-2.33651,0.23477,0.81376
522.552,57.2598,-2.33651,0.23451,0.81336
523.052,57.3093,-2.33651,0.23508,0.81295
523.552,57.35886,-2.33651,0.23563,0.81254
524.052,57.40831,-2.33783,0.2379,0.81213
524.552,57.4577,-2.33651,0.24181,0.81172
525.052,57.5072,-2.33652,0.24523,0.81131
525.552,57.5567,-2.33647,0.24708,0.8109
526.052,57.60609,-2.33783,0.24891,0.81049
526.552,57.6556,-2.33911,0.2495,0.81008
527.052,57.70514,-2.33911,0.24943,0.80967
527.552,57.75481,-2.33815,0.25374,0.80926
528.052,57.80437,-2.33816,0.25465,0.80885
528.552,57.8539,-2.33815,0.25546,0.80844
529.052,57.90367,-2.33949,0.25681,0.80803
529.552,57.95338,-2.34025,0.25767,0.80762
530.052,58.0031,-2.3408,0.25664,0.80721
530.552,58.05275,-2.3408,0.2549,0.80679
531.052,58.1023,-2.34099,0.25577,0.80638
531.552,58.15189,-2.34141,0.25633,0.80597
532.052,58.20129,-2.34277,0.25868,0.80556
532.552,58.2507,-2.34141,0.25865,0.80514
533.052,58.3003,-2.34145,0.25941,0.80473
533.552,58.3496,-2.34145,0.25864,0.80432
534.052,58.3992,-2.34145,0.25994,0.8039
534.552,58.4487,-2.34277,0.26244,0.80349
535.052,58.49821,-2.34278,0.26029,0.80307
535.552,58.54773,-2.34276,0.25992,0.80266
536.052,58.59735,-2.34345,0.26158,0.80225
536.552,58.647,-2.34277,0.25919,0.80183
537.052,58.6969,-2.34277,0.26037,0.80142
537.552,58.74655,-2.34278,0.25929,0.801
538.052,58.79611,-2.34473,0.25943,0.80058
538.552,58.84576,-2.34475,0.26094,0.80017
539.052,58.89529,-2.34475,0.2558,0.79975
539.552,58.945,-2.34276,0.25994,0.79934
540.052,58.99482,-2.34244,0.25972,0.79892
540.552,59.0446,-2.34374,0.25737,0.7985
541.052,59.0944,-2.34482,0.25862,0.79809
541.552,59.144,-2.34507,0.25762,0.79767
542.052,59.1937,-2.34507,0.25938,0.79725
542.552,59.2433,-2.34671,0.25513,0.79683
543.052,59.29305,-2.34705,0.25377,0.79641
543.552,59.34295,-2.34705,0.25359,0.796
544.052,59.39272,-2.34705,0.25498,0.79558
544.552,59.44245,-2.34824,0.25334,0.79516
545.052,59.49236,-2.34834,0.25338,0.79474
545.552,59.5421,-2.34707,0.25035,0.79432
546.052,59.5918,-2.34837,0.25139,0.7939
546.552,59.64151,-2.34837,0.2517,0.79348
547.052,59.6912,-2.34837,0.24862,0.79306
547.552,59.74096,-2.3497,0.24862,0.79264
548.052,59.79074,-2.34969,0.2473,0.79222
548.552,59.8406,-2.34969,0.2478,0.7918
549.052,59.89055,-2.34969,0.24519,0.79138
549.552,59.94022,-2.34969,0.24485,0.79096
550.052,59.99006,-2.34969,0.24358,0.79054
550.552,60.04,-2.34833,0.24127,0.79012
551.052,60.0898,-2.34968,0.24159,0.78969
551.552,60.13983,-2.35069,0.24208,0.78927
552.052,60.1895,-2.35067,0.23823,0.78885
552.552,60.2392,-2.35067,0.23767,0.78843
553.052,60.2889,-2.35067,0.23897,0.788
553.552,60.33856,-2.35065,0.23719,0.78758
554.052,60.38845,-2.35133,0.23746,0.78716
554.552,60.4383,-2.35133,0.23612,0.78673
555.052,60.48817,-2.35133,0.23352,0.78631
555.552,60.53796,-2.35141,0.23166,0.78589
556.052,60.58781,-2.35067,0.23185,0.78546
556.552,60.63756,-2.35067,0.23014,0.78504
557.052,60.68728,-2.35067,0.22761,0.78461
557.552,60.73695,-2.35066,0.22738,0.78419
558.052,60.7867,-2.35199,0.22389,0.78376
558.552,60.8365,-2.35199,0.22355,0.78334
559.052,60.8864,-2.35199,0.2217,0.78291
559.552,60.93637,-2.35199,0.22031,0.78249
560.052,60.9865,-2.35199,0.21812,0.78206
560.552,61.03651,-2.35199,0.21894,0.78163
561.052,61.0864,-2.35199,0.21607,0.78121
561.552,61.1363,-2.35199,0.21507,0.78078
562.052,61.18614,-2.35213,0.21439,0.78036
562.552,61.2357,-2.35331,0.21162,0.77993
563.052,61.28539,-2.3532,0.21295,0.7795
563.552,61.33503,-2.352,0.21153,0.77907
564.052,61.3847,-2.352,0.2092,0.77865
564.552,61.4345,-2.352,0.20777,0.77822
565.052,61.4842,-2.35263,0.20787,0.77779
565.552,61.53416,-2.35265,0.20593,0.77736
566.052,61.58424,-2.35265,0.20619,0.77693
566.552,61.6343,-2.35265,0.20404,0.7765
567.052,61.68444,-2.35338,0.20128,0.77607
567.552,61.7343,-2.35364,0.20013,0.77564
568.052,61.7841,-2.35364,0.19681,0.77521
568.552,61.834,-2.35364,0.19868,0.77478
569.052,61.88391,-2.35364,0.19592,0.77435
569.552,61.9337,-2.35364,0.19511,0.77392
570.052,61.9834,-2.35364,0.19383,0.77349
570.552,62.0331,-2.35438,0.19186,0.77306
571.052,62.08286,-2.35367,0.19025,0.77263
571.552,62.1327,-2.35364,0.19183,0.7722
572.052,62.18274,-2.35364,0.18881,0.77177
572.552,62.2328,-2.35364,0.18719,0.77134
573.052,62.2828,-2.35364,0.18812,0.77091
573.552,62.33283,-2.35364,0.1838,0.77047
574.052,62.38276,-2.35364,0.18331,0.77004
574.552,62.4328,-2.35364,0.18274,0.76961
575.052,62.4828,-2.35501,0.18421,0.76918
575.552,62.53285,-2.35496,0.18219,0.76874
576.052,62.58295,-2.35494,0.17981,0.76831
576.552,62.63264,-2.35563,0.17804,0.76788
577.052,62.68255,-2.35429,0.17816,0.76744
577.552,62.73251,-2.35458,0.17769,0.76701
578.052,62.7825,-2.35562,0.17639,0.76658
578.552,62.83246,-2.35619,0.17465,0.76614
579.052,62.8826,-2.35661,0.17359,0.76571
579.552,62.9324,-2.35661,0.17298,0.76527
580.052,62.9824,-2.35524,0.17231,0.76484
580.552,63.03233,-2.35529,0.17234,0.7644
581.052,63.08229,-2.35529,0.17104,0.76397
581.552,63.1324,-2.35529,0.17012,0.76353
582.052,63.1822,-2.35529,0.16947,0.7631
582.552,63.232,-2.35531,0.17027,0.76266
583.052,63.2822,-2.3566,0.16895,0.76223
583.552,63.33214,-2.3575,0.16698,0.76179
584.052,63.3822,-2.35792,0.16567,0.76135
584.552,63.43232,-2.35789,0.164,0.76092
585.052,63.4822,-2.3566,0.16317,0.76048
585.552,63.5322,-2.3566,0.16187,0.76004
586.052,63.5822,-2.3566,0.16053,0.7596
586.552,63.6321,-2.35657,0.16021,0.75917
587.052,63.682,-2.35767,0.16178,0.75873
587.552,63.7319,-2.35693,0.15902,0.75829
588.052,63.7816,-2.35693,0.1585,0.75785
588.552,63.8316,-2.35693,0.15729,0.75741
589.052,63.8816,-2.35693,0.15414,0.75698
589.552,63.9315,-2.35693,0.15508,0.75654
590.052,63.9815,-2.35707,0.15384,0.7561
590.552,64.0318,-2.35792,0.15326,0.75566
591.052,64.0818,-2.35792,0.15391,0.75522
591.552,64.13169,-2.35792,0.15369,0.75478
592.052,64.18159,-2.35792,0.15191,0.75434
592.552,64.2312,-2.35792,0.15089,0.7539
593.052,64.2808,-2.35792,0.15015,0.75346
593.552,64.33064,-2.35792,0.14941,0.75302
594.052,64.3806,-2.35792,0.15046,0.75258
594.552,64.43024,-2.35792,0.15091,0.75214
595.052,64.48057,-2.35792,0.14896,0.7517
595.552,64.53066,-2.35792,0.14932,0.75126
596.052,64.58063,-2.35792,0.1481,0.75081
596.552,64.6311,-2.35792,0.14845,0.75037
597.052,64.6811,-2.35803,0.14911,0.74993
597.552,64.73106,-2.35858,0.14745,0.74949
598.052,64.7812,-2.35858,0.14648,0.74905
598.552,64.8313,-2.35857,0.147,0.7486
599.052,64.88135,-2.35855,0.14533,0.74816
599.552,64.9315,-2.3579,0.14269,0.74772
600.052,64.9816,-2.35792,0.14138,0.74728
600.152,64.9916,-2.35792,0.14165,0.74719