File: 01_Data/Window_Screen/STA/N2/10K_min/Window_Screen_STA_N2_10KData_220811_R2.csv
##Temp./Â°C,Time/min,Mass loss(subtr.2)/mg,DSC(subtr.2)/(mW/mg),Sensit./(uV/mW)
49.643,10.00917,-0.00395,0.008512234,1.07019
50.343,10.77624,-0.003854464,0.04271729,1.07
51.043,10.97798,-0.00438837,0.06555863,1.06981
51.743,11.131,-0.001312945,0.08730068,1.06962
52.443,11.26013,-0.003962494,0.10336,1.06942
53.143,11.3756,-0.004745286,0.1158,1.06923
53.843,11.48247,-0.00504036,0.13141,1.06903
54.543,11.58128,-0.004060247,0.13864,1.06884
55.243,11.6751,-0.004650745,0.14743,1.06864
55.943,11.76656,-0.004803371,0.15377,1.06845
56.643,11.85533,-0.00521194,0.16215,1.06825
57.343,11.94127,-0.005293029,0.16771,1.06805
58.043,12.02508,-0.005157985,0.1727,1.06785
58.743,12.10773,-0.003809032,0.17648,1.06766
59.443,12.18896,-0.004482951,0.18188,1.06746
60.143,12.2695,-0.005131498,0.18724,1.06726
60.843,12.34885,-0.003840004,0.18903,1.06706
61.543,12.42817,-0.004407552,0.1919,1.06686
62.243,12.50662,-0.00523907,0.1934,1.06666
62.943,12.5846,-0.0051433,0.19621,1.06645
63.643,12.66212,-0.005077961,0.19826,1.06625
64.343,12.7393,-0.00515776,0.20172,1.06605
65.043,12.81581,-0.005143034,0.20227,1.06585
65.743,12.89166,-0.00515786,0.20417,1.06564
66.443,12.96747,-0.005796884,0.20643,1.06544
67.143,13.04261,-0.005646804,0.20857,1.06524
67.843,13.1181,-0.006598498,0.20936,1.06503
68.543,13.1935,-0.005797624,0.21075,1.06483
69.243,13.2686,-0.003952975,0.2096,1.06462
69.943,13.3432,-0.005187364,0.21121,1.06441
70.643,13.41765,-0.004939352,0.21147,1.06421
71.343,13.49204,-0.005269349,0.21177,1.064
72.043,13.5658,-0.005264389,0.21451,1.06379
72.743,13.6401,-0.00521398,0.21482,1.06358
73.443,13.71375,-0.0065804,0.21309,1.06337
74.143,13.7876,-0.005496903,0.21399,1.06316
74.843,13.8606,-0.005490684,0.2157,1.06295
75.543,13.93326,-0.006593683,0.21746,1.06274
76.243,14.0054,-0.006237151,0.2175,1.06253
76.943,14.0777,-0.00658227,0.21795,1.06232
77.643,14.14998,-0.005270921,0.2183,1.06211
78.343,14.22199,-0.006577096,0.21945,1.06189
79.043,14.294,-0.005263401,0.22064,1.06168
79.743,14.366,-0.005269965,0.22162,1.06147
80.443,14.43805,-0.00661163,0.22239,1.06125
81.143,14.5097,-0.00525255,0.2228,1.06104
81.843,14.5815,-0.00394689,0.22629,1.06082
82.543,14.6531,-0.005260541,0.22231,1.06061
83.243,14.72455,-0.00644436,0.22565,1.06039
83.943,14.79539,-0.0052701,0.22409,1.06018
84.643,14.8666,-0.005270006,0.22419,1.05996
85.343,14.93716,-0.005053118,0.22725,1.05974
86.043,15.008,-0.005619562,0.22676,1.05952
86.743,15.0784,-0.00658664,0.22752,1.0593
87.443,15.14928,-0.005266582,0.22866,1.05908
88.143,15.2194,-0.00659219,0.22978,1.05886
88.843,15.2895,-0.00655888,0.2332,1.05864
89.543,15.3593,-0.00691481,0.23061,1.05842
90.243,15.42961,-0.00690928,0.22884,1.0582
90.943,15.49951,-0.006580014,0.22746,1.05798
91.643,15.56945,-0.00659186,0.22789,1.05776
92.343,15.6387,-0.00658826,0.22951,1.05753
93.043,15.70868,-0.007903275,0.23186,1.05731
93.743,15.77859,-0.006590014,0.23035,1.05709
94.443,15.8487,-0.006590009,0.22935,1.05686
95.143,15.91823,-0.00525349,0.231,1.05664
95.843,15.98739,-0.006582072,0.23127,1.05641
96.543,16.05685,-0.0079037,0.23131,1.05618
97.243,16.12605,-0.00657565,0.23459,1.05596
97.943,16.19536,-0.00658,0.23395,1.05573
98.643,16.26429,-0.006580809,0.23453,1.0555
99.343,16.33301,-0.006601841,0.23393,1.05528
100.043,16.40183,-0.006590001,0.23507,1.05505
100.743,16.4706,-0.00658111,0.23518,1.05482
101.443,16.53957,-0.00659014,0.23631,1.05459
102.143,16.60828,-0.00658676,0.23684,1.05436
102.843,16.67718,-0.00789464,0.23743,1.05413
103.543,16.7458,-0.009226991,0.23716,1.0539
104.243,16.81465,-0.006924212,0.23817,1.05366
104.943,16.88319,-0.006840291,0.23882,1.05343
105.643,16.95224,-0.005921192,0.23921,1.0532
106.343,17.02038,-0.007238854,0.23917,1.05296
107.043,17.0888,-0.00790416,0.23942,1.05273
107.743,17.15744,-0.007558077,0.24279,1.0525
108.443,17.2265,-0.007928808,0.24546,1.05226
109.143,17.29567,-0.006915229,0.24628,1.05203
109.843,17.3642,-0.00686299,0.24871,1.05179
110.543,17.4328,-0.008311264,0.24883,1.05155
111.243,17.5005,-0.006920132,0.25002,1.05132
111.943,17.56852,-0.006923802,0.25105,1.05108
112.643,17.63645,-0.006906511,0.24861,1.05084
113.343,17.70514,-0.008207419,0.24771,1.0506
114.043,17.77344,-0.009210675,0.2482,1.05036
114.743,17.84186,-0.009220021,0.24905,1.05012
115.443,17.90996,-0.007859974,0.25022,1.04988
116.143,17.97824,-0.007903847,0.25094,1.04964
116.843,18.0462,-0.007252744,0.25595,1.0494
117.543,18.11421,-0.00758453,0.25713,1.04916
118.243,18.18216,-0.007909965,0.25861,1.04892
118.943,18.25039,-0.00721235,0.25922,1.04867
119.643,18.31854,-0.00856039,0.25798,1.04843
120.343,18.38658,-0.008624625,0.25815,1.04818
121.043,18.45453,-0.007875659,0.25919,1.04794
121.743,18.5219,-0.006576289,0.26064,1.0477
122.443,18.58985,-0.007900177,0.26072,1.04745
123.143,18.65803,-0.0079,0.26052,1.0472
123.843,18.72666,-0.0079,0.25529,1.04696
124.543,18.79508,-0.007899493,0.25766,1.04671
125.243,18.8631,-0.009226982,0.26082,1.04646
125.943,18.93117,-0.009219972,0.25941,1.04621
126.643,18.9988,-0.008588897,0.25672,1.04596
127.343,19.0665,-0.009219046,0.25702,1.04572
128.043,19.13423,-0.009206699,0.26013,1.04547
128.743,19.2024,-0.007910966,0.26105,1.04521
129.443,19.2705,-0.007910001,0.26039,1.04496
130.143,19.33837,-0.007915687,0.26006,1.04471
130.843,19.40615,-0.009219412,0.25949,1.04446
131.543,19.47416,-0.009220006,0.25893,1.04421
132.243,19.54218,-0.009174466,0.25891,1.04395
132.943,19.61009,-0.008891565,0.25871,1.0437
133.643,19.67766,-0.009551408,0.26152,1.04345
134.343,19.74527,-0.00919223,0.25908,1.04319
135.043,19.81309,-0.009410195,0.26112,1.04294
135.743,19.88099,-0.00923978,0.26193,1.04268
136.443,19.9488,-0.009220001,0.26287,1.04243
137.143,20.0164,-0.00922,0.26288,1.04217
137.843,20.08383,-0.00922,0.26345,1.04191
138.543,20.1513,-0.009220057,0.26449,1.04165
139.243,20.2189,-0.01018723,0.26501,1.04139
139.943,20.28632,-0.01053999,0.26697,1.04114
140.643,20.35365,-0.01054,0.26624,1.04088
141.343,20.421,-0.01054246,0.26407,1.04062
142.043,20.4884,-0.009221035,0.2702,1.04035
142.743,20.55582,-0.01052866,0.26766,1.04009
143.443,20.623,-0.009683963,0.26859,1.03983
144.143,20.6902,-0.009549997,0.27047,1.03957
144.843,20.75735,-0.009549997,0.26557,1.03931
145.543,20.82465,-0.00958519,0.26568,1.03904
146.243,20.89181,-0.01052738,0.27013,1.03878
146.943,20.95907,-0.01054011,0.26553,1.03852
147.643,21.0265,-0.01141872,0.26582,1.03825
148.343,21.094,-0.01054007,0.26715,1.03798
149.043,21.16135,-0.01054,0.26789,1.03772
149.743,21.22871,-0.01053999,0.26908,1.03745
150.443,21.29591,-0.01192269,0.26949,1.03718
151.143,21.3631,-0.01185999,0.27007,1.03692
151.843,21.43025,-0.0118598,0.27058,1.03665
152.543,21.49742,-0.01052258,0.26854,1.03638
153.243,21.56454,-0.01054002,0.2709,1.03611
153.943,21.6317,-0.0104671,0.26814,1.03584
154.643,21.69896,-0.01151914,0.26923,1.03557
155.343,21.76611,-0.01152,0.26951,1.0353
156.043,21.83325,-0.01152,0.26944,1.03503
156.743,21.90043,-0.01152668,0.26669,1.03476
157.443,21.96789,-0.01284012,0.27094,1.03448
158.143,22.0353,-0.01282351,0.26832,1.03421
158.843,22.10238,-0.01185031,0.26791,1.03394
159.543,22.16936,-0.01185,0.27045,1.03366
160.243,22.2364,-0.01185,0.27022,1.03339
160.943,22.30344,-0.01185084,0.2699,1.03311
161.643,22.3706,-0.01316096,0.26922,1.03284
162.343,22.4378,-0.01316869,0.26896,1.03256
163.043,22.50499,-0.01277462,0.2711,1.03228
163.743,22.57191,-0.01318004,0.26865,1.032
164.443,22.63874,-0.01318,0.27114,1.03173
165.143,22.70579,-0.01318,0.27323,1.03145
165.843,22.77299,-0.01317267,0.27184,1.03117
166.543,22.84,-0.01284953,0.27154,1.03089
167.243,22.9071,-0.01318103,0.26991,1.03061
167.943,22.9741,-0.01318984,0.27297,1.03033
168.643,23.04121,-0.01350015,0.27482,1.03005
169.343,23.1083,-0.0135,0.27323,1.02976
170.043,23.1755,-0.0135,0.27517,1.02948
170.743,23.24261,-0.01349999,0.27512,1.0292
171.443,23.30968,-0.01351179,0.2749,1.02891
172.143,23.37663,-0.01527881,0.27316,1.02863
172.843,23.44346,-0.01614308,0.27446,1.02834
173.543,23.5104,-0.01481786,0.274,1.02806
174.243,23.57701,-0.01482,0.27475,1.02777
174.943,23.6437,-0.0148218,0.27583,1.02749
175.643,23.71053,-0.01581478,0.27595,1.0272
176.343,23.7776,-0.01581,0.2755,1.02691
177.043,23.8448,-0.01581,0.27646,1.02662
177.743,23.91164,-0.01581,0.27822,1.02634
178.443,23.97845,-0.01581353,0.27701,1.02605
179.143,24.04504,-0.01614964,0.27654,1.02576
179.843,24.11192,-0.01646116,0.27776,1.02547
180.543,24.1785,-0.01745987,0.27896,1.02518
181.243,24.245,-0.01745411,0.2779,1.02488
181.943,24.31157,-0.01876721,0.27793,1.02459
182.643,24.37813,-0.02066483,0.27827,1.0243
183.343,24.4449,-0.02008683,0.27813,1.02401
184.043,24.51122,-0.02007952,0.27944,1.02371
184.743,24.5777,-0.01877123,0.28135,1.02342
185.443,24.64433,-0.01976697,0.28099,1.02312
186.143,24.71097,-0.01976,0.27924,1.02283
186.843,24.7776,-0.01976,0.27876,1.02253
187.543,24.84411,-0.01976608,0.2795,1.02224
188.243,24.9106,-0.01976408,0.28142,1.02194
188.943,24.97729,-0.02107048,0.27966,1.02164
189.643,25.04401,-0.02108,0.2806,1.02134
190.343,25.11084,-0.02107962,0.27938,1.02104
191.043,25.1775,-0.02206508,0.28288,1.02074
191.743,25.24407,-0.02070122,0.2796,1.02044
192.443,25.31056,-0.02075002,0.28295,1.02014
193.143,25.37707,-0.02123554,0.28032,1.01984
193.843,25.44355,-0.02206993,0.2805,1.01954
194.543,25.5102,-0.02206946,0.28094,1.01924
195.243,25.57692,-0.02308242,0.28084,1.01894
195.943,25.6437,-0.02304999,0.2826,1.01863
196.643,25.71039,-0.02304981,0.28255,1.01833
197.343,25.77696,-0.02504636,0.2822,1.01802
198.043,25.84336,-0.02503,0.28615,1.01772
198.743,25.90991,-0.02503,0.28609,1.01741
199.443,25.97649,-0.02502653,0.28497,1.01711
200.143,26.04325,-0.02635369,0.28569,1.0168
200.843,26.11019,-0.02635,0.28126,1.01649
201.543,26.1768,-0.02636209,0.2787,1.01619
202.243,26.2436,-0.0277104,0.2801,1.01588
202.943,26.3105,-0.02898,0.28064,1.01557
203.643,26.37748,-0.02801148,0.28038,1.01526
204.343,26.4444,-0.02799174,0.28086,1.01495
205.043,26.51091,-0.02930735,0.28141,1.01464
205.743,26.5777,-0.02936036,0.28299,1.01433
206.443,26.64465,-0.02933546,0.28367,1.01401
207.143,26.7119,-0.03074813,0.2824,1.0137
207.843,26.77877,-0.03194002,0.28203,1.01339
208.543,26.84552,-0.03194001,0.28144,1.01308
209.243,26.91222,-0.03188082,0.28315,1.01276
209.943,26.97885,-0.03326,0.28078,1.01245
210.643,27.0455,-0.03417258,0.28384,1.01213
211.343,27.11225,-0.03590012,0.28543,1.01182
212.043,27.179,-0.03654869,0.28558,1.0115
212.743,27.2458,-0.03720992,0.28476,1.01118
213.443,27.3125,-0.03749295,0.28581,1.01086
214.143,27.37923,-0.03853026,0.28754,1.01055
214.843,27.446,-0.03985031,0.28758,1.01023
215.543,27.51274,-0.03985,0.28765,1.00991
216.243,27.5792,-0.0398501,0.2878,1.00959
216.943,27.6455,-0.0424731,0.2867,1.00927
217.643,27.7122,-0.04374095,0.28643,1.00895
218.343,27.77893,-0.04511996,0.28809,1.00863
219.043,27.8456,-0.0464772,0.28848,1.0083
219.743,27.9119,-0.04760842,0.28969,1.00798
220.443,27.97837,-0.04776041,0.29339,1.00766
221.143,28.0448,-0.04908432,0.28867,1.00733
221.843,28.1115,-0.05167721,0.28968,1.00701
222.543,28.17802,-0.05294258,0.28997,1.00668
223.243,28.24454,-0.05398256,0.29186,1.00636
223.943,28.31124,-0.05575821,0.29074,1.00603
224.643,28.37787,-0.05707313,0.2926,1.00571
225.343,28.4446,-0.0583781,0.29315,1.00538
226.043,28.51095,-0.06011353,0.2922,1.00505
226.743,28.5775,-0.06172158,0.29308,1.00472
227.443,28.644,-0.06310223,0.29194,1.00439
228.143,28.7105,-0.06466511,0.29343,1.00406
228.843,28.77712,-0.06590099,0.29236,1.00373
229.543,28.84352,-0.06877635,0.29316,1.0034
230.243,28.91013,-0.07007473,0.29178,1.00307
230.943,28.97693,-0.07257628,0.29348,1.00274
231.643,29.04345,-0.07415736,0.29422,1.00241
232.343,29.11025,-0.07577457,0.29983,1.00207
233.043,29.1767,-0.07835711,0.29806,1.00174
233.743,29.2433,-0.0797994,0.29859,1.00141
234.443,29.30997,-0.08398823,0.30107,1.00107
235.143,29.3764,-0.0852034,0.30284,1.00074
235.843,29.4431,-0.08827679,0.30818,1.0004
236.543,29.5097,-0.09050413,0.31184,1.00006
237.243,29.57635,-0.09304964,0.31361,0.99973
237.943,29.64325,-0.09546579,0.30841,0.99939
238.643,29.71002,-0.09902162,0.30754,0.99905
239.343,29.77673,-0.10244,0.31161,0.99871
240.043,29.84347,-0.10626,0.31244,0.99837
240.743,29.91,-0.10945,0.31148,0.99803
241.443,29.97673,-0.11358,0.3133,0.99769
242.143,30.04322,-0.11627,0.31257,0.99735
242.843,30.1096,-0.1175,0.31394,0.99701
243.543,30.1763,-0.12336,0.31622,0.99666
244.243,30.24288,-0.12691,0.3169,0.99632
244.943,30.30955,-0.1309,0.32245,0.99598
245.643,30.37625,-0.13616,0.32936,0.99563
246.343,30.44264,-0.13964,0.3342,0.99529
247.043,30.50937,-0.14361,0.34319,0.99494
247.743,30.576,-0.148,0.34165,0.9946
248.443,30.64302,-0.15196,0.34467,0.99425
249.143,30.70921,-0.15622,0.34887,0.9939
249.843,30.7754,-0.16159,0.349,0.99356
250.543,30.8421,-0.16735,0.35493,0.99321
251.243,30.9095,-0.17335,0.35153,0.99286
251.943,30.9767,-0.17865,0.35382,0.99251
252.643,31.0434,-0.18508,0.35729,0.99216
253.343,31.10967,-0.19075,0.35861,0.99181
254.043,31.17625,-0.19811,0.36476,0.99146
254.743,31.2428,-0.20487,0.36422,0.99111
255.443,31.3097,-0.21073,0.36854,0.99075
256.143,31.3764,-0.21809,0.36665,0.9904
256.843,31.44308,-0.2275,0.36924,0.99005
257.543,31.5099,-0.23446,0.37012,0.98969
258.243,31.57682,-0.24106,0.3706,0.98934
258.943,31.6437,-0.25058,0.3676,0.98898
259.643,31.7104,-0.25975,0.36914,0.98863
260.343,31.77699,-0.26717,0.36925,0.98827
261.043,31.8434,-0.27517,0.37071,0.98791
261.743,31.91,-0.28589,0.37472,0.98756
262.443,31.97702,-0.29446,0.37863,0.9872
263.143,32.04405,-0.30382,0.38327,0.98684
263.843,32.11103,-0.31374,0.38829,0.98648
264.543,32.17776,-0.32549,0.39184,0.98612
265.243,32.24462,-0.33722,0.39931,0.98576
265.943,32.31156,-0.34832,0.40904,0.9854
266.643,32.37831,-0.35815,0.42262,0.98504
267.343,32.4445,-0.36975,0.43055,0.98467
268.043,32.51108,-0.38098,0.4414,0.98431
268.743,32.57752,-0.3934,0.45842,0.98395
269.443,32.64467,-0.40614,0.46482,0.98358
270.143,32.71107,-0.41844,0.47524,0.98322
270.843,32.7778,-0.43193,0.48642,0.98285
271.543,32.84387,-0.44489,0.4947,0.98249
272.243,32.9105,-0.45877,0.50583,0.98212
272.943,32.97697,-0.47246,0.51399,0.98175
273.643,33.04463,-0.48649,0.52455,0.98138
274.343,33.1122,-0.50127,0.53584,0.98102
275.043,33.17993,-0.51746,0.5472,0.98065
275.743,33.247,-0.53327,0.5611,0.98028
276.443,33.31393,-0.55119,0.57173,0.97991
277.143,33.3812,-0.56793,0.58272,0.97954
277.843,33.44798,-0.58449,0.59683,0.97917
278.543,33.51505,-0.60544,0.60692,0.97879
279.243,33.58132,-0.62348,0.62363,0.97842
279.943,33.6476,-0.64444,0.64031,0.97805
280.643,33.714,-0.6649,0.65285,0.97767
281.343,33.78118,-0.68746,0.66861,0.9773
282.043,33.8491,-0.7096,0.68477,0.97693
282.743,33.91652,-0.73244,0.70467,0.97655
283.443,33.98339,-0.75643,0.72637,0.97617
284.143,34.05001,-0.78138,0.75007,0.9758
284.843,34.1171,-0.80871,0.76768,0.97542
285.543,34.18415,-0.83814,0.78378,0.97504
286.243,34.25135,-0.86707,0.79745,0.97466
286.943,34.31859,-0.89483,0.79804,0.97429
287.643,34.38583,-0.92454,0.80756,0.97391
288.343,34.45322,-0.95481,0.80637,0.97353
289.043,34.52026,-0.98359,0.80629,0.97314
289.743,34.58729,-1.01336,0.80224,0.97276
290.443,34.6543,-1.04576,0.80178,0.97238
291.143,34.7213,-1.07433,0.7989,0.972
291.843,34.78816,-1.10515,0.79505,0.97162
292.543,34.85423,-1.13605,0.78914,0.97123
293.243,34.92088,-1.16646,0.78862,0.97085
293.943,34.98785,-1.19868,0.78776,0.97046
294.643,35.0555,-1.23155,0.79144,0.97008
295.343,35.12315,-1.26167,0.8029,0.96969
296.043,35.19056,-1.29361,0.81755,0.9693
296.743,35.25829,-1.32666,0.83222,0.96892
297.443,35.32571,-1.3566,0.84736,0.96853
298.143,35.39307,-1.38523,0.8562,0.96814
298.843,35.46038,-1.41405,0.85858,0.96775
299.543,35.52789,-1.43988,0.85536,0.96736
300.243,35.59472,-1.46528,0.85075,0.96697
300.943,35.66117,-1.48984,0.83501,0.96658
301.643,35.72789,-1.51331,0.81902,0.96619
302.343,35.7947,-1.5357,0.80361,0.9658
303.043,35.86253,-1.55568,0.78056,0.9654
303.743,35.92994,-1.5755,0.75558,0.96501
304.443,35.99739,-1.5945,0.72943,0.96462
305.143,36.06365,-1.61118,0.70255,0.96422
305.843,36.13025,-1.62651,0.67581,0.96383
306.543,36.197,-1.63974,0.64663,0.96343
307.243,36.264,-1.65415,0.63547,0.96303
307.943,36.33041,-1.66763,0.60123,0.96264
308.643,36.397,-1.6789,0.56827,0.96224
309.343,36.46405,-1.68973,0.54008,0.96184
310.043,36.531,-1.7013,0.50865,0.96144
310.743,36.59774,-1.70987,0.481,0.96104
311.443,36.66424,-1.71836,0.45504,0.96064
312.143,36.73122,-1.72633,0.43137,0.96024
312.843,36.79817,-1.73382,0.40793,0.95984
313.543,36.86526,-1.74054,0.38619,0.95944
314.243,36.93233,-1.74909,0.36647,0.95904
314.943,36.99925,-1.75478,0.34979,0.95864
315.643,37.06601,-1.76076,0.33019,0.95823
316.343,37.13297,-1.76607,0.3132,0.95783
317.043,37.20009,-1.77181,0.30021,0.95742
317.743,37.26699,-1.77684,0.28527,0.95702
318.443,37.3335,-1.78075,0.27145,0.95661
319.143,37.40012,-1.78508,0.25933,0.95621
319.843,37.46703,-1.78892,0.24955,0.9558
320.543,37.53399,-1.79334,0.23711,0.95539
321.243,37.6012,-1.7955,0.22786,0.95498
321.943,37.66856,-1.79835,0.21868,0.95457
322.643,37.7357,-1.80216,0.21194,0.95416
323.343,37.8027,-1.80483,0.20277,0.95375
324.043,37.86953,-1.80736,0.19324,0.95334
324.743,37.93652,-1.81021,0.18697,0.95293
325.443,38.00388,-1.81293,0.18163,0.95252
326.143,38.07093,-1.81588,0.17259,0.95211
326.843,38.138,-1.82001,0.16911,0.95169
327.543,38.2053,-1.82257,0.16168,0.95128
328.243,38.27284,-1.82416,0.15631,0.95087
328.943,38.34044,-1.82593,0.15271,0.95045
329.643,38.40777,-1.82811,0.14762,0.95004
330.343,38.47483,-1.83098,0.14365,0.94962
331.043,38.54217,-1.83241,0.13914,0.9492
331.743,38.60933,-1.83371,0.13061,0.94879
332.443,38.67651,-1.83494,0.12754,0.94837
333.143,38.7436,-1.83713,0.12603,0.94795
333.843,38.81092,-1.83897,0.12207,0.94753
334.543,38.8783,-1.84031,0.11572,0.94711
335.243,38.9454,-1.84353,0.11358,0.94669
335.943,39.01213,-1.84476,0.10878,0.94627
336.643,39.07925,-1.84568,0.11095,0.94585
337.343,39.146,-1.84633,0.10641,0.94543
338.043,39.21265,-1.84765,0.1059,0.945
338.743,39.27908,-1.84897,0.09907424,0.94458
339.443,39.34623,-1.84931,0.09737207,0.94416
340.143,39.4144,-1.85071,0.09479659,0.94373
340.843,39.48303,-1.85135,0.09272093,0.94331
341.543,39.55076,-1.85324,0.09211731,0.94288
342.243,39.6182,-1.85556,0.08775667,0.94246
342.943,39.68475,-1.85556,0.08708518,0.94203
343.643,39.7521,-1.85688,0.08624783,0.9416
344.343,39.8198,-1.85726,0.08465673,0.94117
345.043,39.88813,-1.85819,0.08262961,0.94074
345.743,39.9559,-1.85951,0.08003021,0.94032
346.443,40.02298,-1.85947,0.08027051,0.93989
347.143,40.0899,-1.86018,0.07627804,0.93946
347.843,40.15702,-1.86149,0.07493647,0.93902
348.543,40.2242,-1.86149,0.07433725,0.93859
349.243,40.29163,-1.86146,0.071289,0.93816
349.943,40.35948,-1.8628,0.07002095,0.93773
350.643,40.42778,-1.86412,0.06758868,0.93729
351.343,40.4962,-1.86643,0.06432913,0.93686
352.043,40.56405,-1.86688,0.06531425,0.93643
352.743,40.63199,-1.86774,0.06461414,0.93599
353.443,40.7001,-1.86774,0.0613883,0.93555
354.143,40.76831,-1.86774,0.06282583,0.93512
354.843,40.8356,-1.86777,0.06227131,0.93468
355.543,40.90296,-1.86899,0.06086869,0.93424
356.243,40.96995,-1.87038,0.06014896,0.93381
356.943,41.03787,-1.87172,0.06042362,0.93337
357.643,41.10538,-1.8717,0.05726121,0.93293
358.343,41.1737,-1.87037,0.05987324,0.93249
359.043,41.24181,-1.87168,0.05887146,0.93205
359.743,41.31006,-1.87301,0.05815928,0.93161
360.443,41.37802,-1.87302,0.05756681,0.93116
361.143,41.44578,-1.87433,0.05703651,0.93072
361.843,41.51332,-1.87433,0.05866428,0.93028
362.543,41.58097,-1.87531,0.05759945,0.92983
363.243,41.64869,-1.87532,0.05671929,0.92939
363.943,41.71685,-1.87532,0.0563163,0.92895
364.643,41.78413,-1.87548,0.05290514,0.9285
365.343,41.8507,-1.87695,0.05447121,0.92805
366.043,41.91754,-1.87697,0.05444306,0.92761
366.743,41.9857,-1.87796,0.0544132,0.92716
367.443,42.05511,-1.87795,0.05444654,0.92671
368.143,42.1239,-1.87831,0.0533472,0.92626
368.843,42.19137,-1.87829,0.05190049,0.92582
369.543,42.25817,-1.8796,0.05249136,0.92537
370.243,42.3258,-1.87844,0.05111003,0.92492
370.943,42.39431,-1.87996,0.05153482,0.92447
371.643,42.46368,-1.88092,0.04935414,0.92401
372.343,42.53248,-1.88092,0.05197704,0.92356
373.043,42.60021,-1.88091,0.05332373,0.92311
373.743,42.66787,-1.8829,0.05392041,0.92266
374.443,42.73529,-1.8829,0.05141133,0.9222
375.143,42.8024,-1.8829,0.05149626,0.92175
375.843,42.86973,-1.8836,0.05150565,0.92129
376.543,42.93738,-1.88289,0.04960676,0.92084
377.243,43.006,-1.88351,0.04962157,0.92038
377.943,43.07434,-1.8842,0.04932155,0.91993
378.643,43.14298,-1.88553,0.05073563,0.91947
379.343,43.21168,-1.88545,0.04980579,0.91901
380.043,43.28018,-1.88595,0.05039123,0.91855
380.743,43.34779,-1.88783,0.05190975,0.91809
381.443,43.4154,-1.88784,0.0522649,0.91763
382.143,43.4834,-1.88911,0.05143154,0.91717
382.843,43.55209,-1.8879,0.05318851,0.91671
383.543,43.6203,-1.88718,0.04722249,0.91625
384.243,43.68864,-1.88849,0.047253,0.91579
384.943,43.75663,-1.89112,0.04586338,0.91533
385.643,43.82462,-1.8925,0.0471007,0.91486
386.343,43.8925,-1.89113,0.04667646,0.9144
387.043,43.96025,-1.89113,0.04853295,0.91393
387.743,44.0283,-1.89113,0.05010597,0.91347
388.443,44.09628,-1.89113,0.05151716,0.913
389.143,44.1646,-1.89242,0.04664661,0.91254
389.843,44.23258,-1.89504,0.04586931,0.91207
390.543,44.3008,-1.89397,0.04809899,0.9116
391.243,44.36887,-1.89472,0.04647143,0.91114
391.943,44.4367,-1.89508,0.04761731,0.91067
392.643,44.50407,-1.89514,0.04736401,0.9102
393.343,44.5721,-1.8964,0.05045961,0.90973
394.043,44.64049,-1.89777,0.04776665,0.90926
394.743,44.70916,-1.89903,0.04427297,0.90879
395.443,44.7774,-1.89903,0.04635847,0.90832
396.143,44.8454,-1.90017,0.04593364,0.90784
396.843,44.91381,-1.89917,0.04496357,0.90737
397.543,44.98188,-1.90035,0.04522729,0.9069
398.243,45.0501,-1.90033,0.04210839,0.90643
398.943,45.11809,-1.90168,0.04140405,0.90595
399.643,45.18629,-1.90298,0.04225603,0.90548
400.343,45.25459,-1.90407,0.04003825,0.905
401.043,45.32281,-1.9043,0.04058658,0.90452
401.743,45.3908,-1.90428,0.03726749,0.90405
402.443,45.459,-1.90562,0.03635757,0.90357
403.143,45.52728,-1.90694,0.03793336,0.90309
403.843,45.59565,-1.90808,0.03554441,0.90261
404.543,45.66339,-1.90825,0.03554647,0.90213
405.243,45.73168,-1.90958,0.0340235,0.90166
405.943,45.7999,-1.9096,0.03689993,0.90117
406.643,45.86878,-1.91284,0.03478411,0.90069
407.343,45.9371,-1.91221,0.03504186,0.90021
408.043,46.00537,-1.91353,0.03358779,0.89973
408.743,46.07339,-1.91494,0.03430427,0.89925
409.443,46.14158,-1.91614,0.032137,0.89877
410.143,46.20986,-1.91684,0.03235195,0.89828
410.843,46.27798,-1.91782,0.03150092,0.8978
411.543,46.34619,-1.91804,0.03075051,0.89731
412.243,46.41429,-1.92052,0.02908395,0.89683
412.943,46.48271,-1.9221,0.02879393,0.89634
413.643,46.5508,-1.92215,0.02600397,0.89585
414.343,46.61934,-1.92208,0.027545,0.89537
415.043,46.6877,-1.92367,0.02420979,0.89488
415.743,46.75631,-1.92539,0.02347426,0.89439
416.443,46.8248,-1.9267,0.02262676,0.8939
417.143,46.89328,-1.92803,0.02008378,0.89341
417.843,46.9615,-1.92989,0.02073652,0.89292
418.543,47.03,-1.9317,0.01903989,0.89243
419.243,47.09816,-1.93197,0.01706355,0.89194
419.943,47.16581,-1.93367,0.01488215,0.89145
420.643,47.23299,-1.93597,0.01631988,0.89096
421.343,47.30086,-1.93624,0.01359657,0.89046
422.043,47.36997,-1.93665,0.01338369,0.88997
422.743,47.4386,-1.93889,0.01240948,0.88948
423.443,47.50725,-1.94021,0.01181001,0.88898
424.143,47.5761,-1.94154,0.00877183,0.88849
424.843,47.6455,-1.94433,0.005053521,0.88799
425.543,47.714,-1.94557,0.004717552,0.88749
426.243,47.78157,-1.94709,0.005574346,0.887
426.943,47.8499,-1.94964,0.007311653,0.8865
427.643,47.91835,-1.95222,0.003891194,0.886
428.343,47.9877,-1.95356,0.007553014,0.8855
429.043,48.05619,-1.95621,0.001435059,0.885
429.743,48.12484,-1.95886,0.002361872,0.8845
430.443,48.19234,-1.9611,0.00606156,0.884
431.143,48.25999,-1.96309,0.005684596,0.8835
431.843,48.32805,-1.9658,0.00674492,0.883
432.543,48.39707,-1.96879,0.00670331,0.8825
433.243,48.46638,-1.97048,0.005113367,0.88199
433.943,48.5357,-1.97276,0.00671179,0.88149
434.643,48.60456,-1.97587,0.005148012,0.88099
435.343,48.67259,-1.97874,0.003206425,0.88048
436.043,48.74048,-1.98173,0.00608687,0.87998
436.743,48.8069,-1.98439,0.01071578,0.87947
437.443,48.87531,-1.98475,0.01135411,0.87897
438.143,48.9437,-1.98896,0.01199951,0.87846
438.843,49.01389,-1.99364,0.01361288,0.87795
439.543,49.0824,-1.99675,0.01130682,0.87744
440.243,49.1504,-1.99901,0.01380646,0.87694
440.943,49.2183,-2.00148,0.0146181,0.87643
441.643,49.28588,-2.00519,0.01770916,0.87592
442.343,49.3546,-2.00919,0.0175056,0.87541
443.043,49.4242,-2.01219,0.02113076,0.8749
443.743,49.49465,-2.01638,0.01664957,0.87439
444.443,49.5643,-2.0212,0.01897373,0.87387
445.143,49.63224,-2.02585,0.01997009,0.87336
445.843,49.69978,-2.02776,0.02923158,0.87285
446.543,49.76758,-2.03101,0.02790901,0.87234
447.243,49.8362,-2.03609,0.0278916,0.87182
447.943,49.90514,-2.03963,0.03096707,0.87131
448.643,49.97403,-2.04514,0.0366999,0.87079
449.343,50.04299,-2.04917,0.03911311,0.87028
450.043,50.11228,-2.05435,0.04065926,0.86976
450.743,50.18132,-2.0571,0.04186711,0.86924
451.443,50.2503,-2.06211,0.04679485,0.86873
452.143,50.31889,-2.06733,0.04941616,0.86821
452.843,50.3877,-2.07263,0.05139468,0.86769
453.543,50.45612,-2.07787,0.05566859,0.86717
454.243,50.52475,-2.08115,0.05989149,0.86665
454.943,50.59279,-2.08603,0.0605812,0.86613
455.643,50.66106,-2.09111,0.06318021,0.86561
456.343,50.72957,-2.0958,0.0651105,0.86509
457.043,50.79763,-2.09918,0.0693604,0.86457
457.743,50.8663,-2.10381,0.07093162,0.86404
458.443,50.9347,-2.10972,0.07424974,0.86352
459.143,51.00411,-2.11451,0.07580449,0.863
459.843,51.0727,-2.11979,0.07729429,0.86247
460.543,51.14145,-2.12369,0.07701146,0.86195
461.243,51.2093,-2.12893,0.08017461,0.86142
461.943,51.27792,-2.13329,0.08096537,0.8609
462.643,51.34722,-2.13755,0.0853025,0.86037
463.343,51.41679,-2.14268,0.08787743,0.85984
464.043,51.48649,-2.14729,0.0887474,0.85932
464.743,51.5557,-2.15241,0.09008527,0.85879
465.443,51.6259,-2.15586,0.0925913,0.85826
466.143,51.6952,-2.16089,0.0893172,0.85773
466.843,51.76406,-2.16563,0.09272828,0.8572
467.543,51.83222,-2.16988,0.09397863,0.85667
468.243,51.90052,-2.17404,0.09673433,0.85614
468.943,51.9687,-2.17931,0.09670922,0.85561
469.643,52.03723,-2.18263,0.09548749,0.85508
470.343,52.10614,-2.18727,0.09680106,0.85455
471.043,52.1752,-2.18974,0.09333366,0.85401
471.743,52.24496,-2.19424,0.09578905,0.85348
472.443,52.3136,-2.19886,0.09191057,0.85295
473.143,52.382,-2.20366,0.09534287,0.85241
473.843,52.44989,-2.20542,0.095714,0.85188
474.543,52.51871,-2.20859,0.09625425,0.85134
475.243,52.58785,-2.21355,0.09805551,0.8508
475.943,52.65727,-2.21722,0.095407,0.85027
476.643,52.7276,-2.22031,0.09494453,0.84973
477.343,52.79776,-2.2242,0.09146159,0.84919
478.043,52.86741,-2.22721,0.09141766,0.84866
478.743,52.93614,-2.23056,0.09067089,0.84812
479.443,53.00486,-2.2335,0.09143927,0.84758
480.143,53.07374,-2.23642,0.09186004,0.84704
480.843,53.1428,-2.23934,0.09063138,0.8465
481.543,53.2119,-2.24388,0.0901995,0.84596
482.243,53.2809,-2.24547,0.09026378,0.84541
482.943,53.34985,-2.24816,0.09050419,0.84487
483.643,53.4177,-2.25076,0.08736008,0.84433
484.343,53.4855,-2.25505,0.09132574,0.84379
485.043,53.5523,-2.25704,0.08915377,0.84324
485.743,53.62177,-2.25904,0.08907879,0.8427
486.443,53.6917,-2.2614,0.08960136,0.84215
487.143,53.7622,-2.264,0.08766969,0.84161
487.843,53.83075,-2.26539,0.08799314,0.84106
488.543,53.8994,-2.26976,0.08785779,0.84052
489.243,53.969,-2.26977,0.08562856,0.83997
489.943,54.0391,-2.27274,0.08343707,0.83942
490.643,54.1078,-2.27402,0.08182038,0.83888
491.343,54.17451,-2.27752,0.08171765,0.83833
492.043,54.2424,-2.27932,0.08234671,0.83778
492.743,54.3109,-2.27944,0.08267194,0.83723
493.443,54.38135,-2.282,0.08068169,0.83668
494.143,54.45176,-2.28459,0.08153062,0.83613
494.843,54.52244,-2.28709,0.0754952,0.83558
495.543,54.5928,-2.28739,0.07549256,0.83503
496.243,54.6621,-2.28878,0.07707001,0.83447
496.943,54.7313,-2.29051,0.07654114,0.83392
497.643,54.80014,-2.29266,0.07315545,0.83337
498.343,54.86897,-2.29523,0.07384804,0.83281
499.043,54.93781,-2.29544,0.07385305,0.83226
499.743,55.0071,-2.29641,0.07250541,0.83171
500.443,55.07629,-2.29786,0.07471964,0.83115
501.143,55.1453,-2.29886,0.07192534,0.8306
501.843,55.21415,-2.30012,0.07294873,0.83004
502.543,55.28265,-2.3005,0.07526045,0.82948
503.243,55.35145,-2.30193,0.07560893,0.82893
503.943,55.42071,-2.30446,0.07548409,0.82837
504.643,55.49032,-2.30454,0.07090127,0.82781
505.343,55.5591,-2.30578,0.06928912,0.82725
506.043,55.62687,-2.30579,0.07244677,0.82669
506.743,55.6951,-2.30606,0.07381648,0.82613
507.443,55.7637,-2.30702,0.07428481,0.82557
508.143,55.83364,-2.30841,0.07321126,0.82501
508.843,55.9031,-2.30841,0.07532283,0.82445
509.543,55.97325,-2.30974,0.07396999,0.82389
510.243,56.0429,-2.30973,0.07605159,0.82333
510.943,56.11241,-2.31105,0.07492939,0.82276
511.643,56.1806,-2.31234,0.07190688,0.8222
512.343,56.24945,-2.3137,0.07483605,0.82164
513.043,56.3182,-2.31368,0.07217012,0.82107
513.743,56.38802,-2.31368,0.0731621,0.82051
514.443,56.45755,-2.315,0.06991624,0.81994
515.143,56.5275,-2.31502,0.06768491,0.81937
515.843,56.5972,-2.31501,0.06986566,0.81881
516.543,56.6664,-2.31625,0.06927644,0.81824
517.243,56.7358,-2.31763,0.06830934,0.81767
517.943,56.8051,-2.31621,0.06879324,0.81711
518.643,56.8744,-2.31762,0.0699366,0.81654
519.343,56.94355,-2.31996,0.0684199,0.81597
520.043,57.01269,-2.32027,0.06919767,0.8154
520.743,57.08201,-2.31966,0.06945504,0.81483
521.443,57.1512,-2.32028,0.06888135,0.81426
522.143,57.2204,-2.32027,0.07367483,0.81369
522.843,57.28999,-2.32065,0.07570389,0.81312
523.543,57.35963,-2.32191,0.07923945,0.81255
524.243,57.42944,-2.32224,0.08462773,0.81197
524.943,57.49896,-2.32224,0.08585755,0.8114
525.643,57.56853,-2.32357,0.09037121,0.81083
526.343,57.63774,-2.3239,0.09552928,0.81025
527.043,57.70731,-2.32389,0.09570368,0.80968
527.743,57.77689,-2.3238,0.0960074,0.8091
528.443,57.8468,-2.32654,0.09844628,0.80853
529.143,57.91561,-2.32521,0.09784684,0.80795
529.843,57.9846,-2.32521,0.09842425,0.80738
530.543,58.0539,-2.32652,0.09972559,0.8068
531.243,58.124,-2.32683,0.09872565,0.80622
531.943,58.1938,-2.32652,0.09934557,0.80565
532.643,58.2631,-2.32671,0.09867168,0.80507
533.343,58.3326,-2.32784,0.09823692,0.80449
534.043,58.4025,-2.32779,0.0959425,0.80391
534.743,58.47244,-2.3285,0.0981253,0.80333
535.443,58.5419,-2.3285,0.09684939,0.80275
536.143,58.6113,-2.3285,0.09712099,0.80217
536.843,58.6809,-2.3285,0.09452555,0.80159
537.543,58.75043,-2.32917,0.09285247,0.80101
538.243,58.81991,-2.32982,0.09215112,0.80043
538.943,58.8893,-2.32982,0.09065737,0.79984
539.643,58.9589,-2.32917,0.09048067,0.79926
540.343,59.02879,-2.32917,0.0864535,0.79868
541.043,59.0981,-2.32947,0.08713444,0.79809
541.743,59.1669,-2.32916,0.0852861,0.79751
542.443,59.2364,-2.33039,0.08576526,0.79692
543.143,59.3064,-2.3318,0.08474998,0.79634
543.843,59.3767,-2.3318,0.08360924,0.79575
544.543,59.4463,-2.3318,0.0807284,0.79517
545.243,59.51575,-2.33142,0.07925081,0.79458
545.943,59.5855,-2.33049,0.07795614,0.79399
546.643,59.65504,-2.3318,0.07710121,0.79341
547.343,59.72469,-2.33171,0.07607258,0.79282
548.043,59.7943,-2.33312,0.07450437,0.79223
548.743,59.86419,-2.33186,0.07153641,0.79164
549.443,59.9341,-2.33312,0.06766364,0.79105
550.143,60.0038,-2.33312,0.0667312,0.79046
550.843,60.07356,-2.33362,0.06467791,0.78987
551.543,60.14317,-2.33509,0.06068366,0.78928
552.243,60.21278,-2.33509,0.06064371,0.78869
552.943,60.28233,-2.33516,0.05856771,0.7881
553.643,60.3518,-2.33465,0.05807717,0.7875
554.343,60.4215,-2.33574,0.05818789,0.78691
555.043,60.49125,-2.33509,0.05529818,0.78632
555.743,60.561,-2.33384,0.05121219,0.78572
556.443,60.6307,-2.33509,0.05102062,0.78513
557.143,60.7004,-2.33509,0.04944829,0.78454
557.843,60.77012,-2.33509,0.04822571,0.78394
558.543,60.83976,-2.33509,0.04516055,0.78335
559.243,60.90941,-2.33509,0.04485582,0.78275
559.943,60.97909,-2.33641,0.04586588,0.78215
560.643,61.049,-2.33641,0.04201539,0.78156
561.343,61.1186,-2.33641,0.03978697,0.78096
562.043,61.1884,-2.33641,0.03716865,0.78036
562.743,61.25805,-2.33641,0.0350459,0.77976
563.443,61.3278,-2.33641,0.03339783,0.77917
564.143,61.39751,-2.33641,0.03126758,0.77857
564.843,61.4674,-2.33641,0.02879493,0.77797
565.543,61.5371,-2.33641,0.02828954,0.77737
566.243,61.6069,-2.33772,0.02588954,0.77677
566.943,61.6765,-2.33772,0.0257338,0.77617
567.643,61.7462,-2.33674,0.02208373,0.77557
568.343,61.81619,-2.33674,0.02158392,0.77496
569.043,61.88615,-2.33674,0.01842779,0.77436
569.743,61.95635,-2.3374,0.01865409,0.77376
570.443,62.02616,-2.33739,0.01654579,0.77316
571.143,62.0962,-2.33704,0.009843714,0.77255
571.843,62.1662,-2.33706,0.01057428,0.77195
572.543,62.2362,-2.33706,0.008742225,0.77135
573.243,62.3062,-2.33776,0.008893094,0.77074
573.943,62.37616,-2.33838,0.003726179,0.77014
574.643,62.44615,-2.33836,0.00511673,0.76953
575.343,62.51602,-2.33773,0.001190879,0.76893
576.043,62.586,-2.33904,-0.000268887,0.76832
576.743,62.65595,-2.33837,-0.001529676,0.76771
577.443,62.72595,-2.33773,-0.00342162,0.76711
578.143,62.79606,-2.33773,-0.004354154,0.7665
578.843,62.86586,-2.33773,-0.004632003,0.76589
579.543,62.9356,-2.33773,-0.00584834,0.76528
580.243,63.0052,-2.33906,-0.00769735,0.76467
580.943,63.0755,-2.33905,-0.01097207,0.76406
581.643,63.14574,-2.33905,-0.01101294,0.76345
582.343,63.2159,-2.33905,-0.01408433,0.76284
583.043,63.2859,-2.33908,-0.01491669,0.76223
583.743,63.3559,-2.34036,-0.01518784,0.76162
584.443,63.4258,-2.34036,-0.01820135,0.76101
585.143,63.4957,-2.34036,-0.02132827,0.7604
585.843,63.56564,-2.34036,-0.02236578,0.75979
586.543,63.6357,-2.3404,-0.02208159,0.75917
587.243,63.70593,-2.34135,-0.02236698,0.75856
587.943,63.776,-2.34145,-0.02427155,0.75795
588.643,63.8459,-2.34003,-0.02623877,0.75733
589.343,63.91576,-2.34003,-0.02755729,0.75672
590.043,63.9858,-2.34003,-0.02744741,0.75611
590.743,64.05565,-2.34003,-0.02825947,0.75549
591.443,64.12554,-2.34014,-0.03030117,0.75488
592.143,64.1952,-2.34135,-0.02933475,0.75426
592.843,64.26523,-2.34135,-0.02989731,0.75364
593.543,64.33507,-2.34135,-0.03241924,0.75303
594.243,64.40513,-2.34263,-0.03246612,0.75241
594.943,64.47494,-2.34267,-0.0320969,0.75179
595.643,64.54482,-2.34203,-0.03164352,0.75118
596.343,64.61475,-2.34201,-0.03204955,0.75056
597.043,64.68456,-2.34192,-0.03176513,0.74994
597.743,64.75415,-2.34333,-0.03673499,0.74932
598.443,64.8239,-2.34266,-0.03747355,0.7487
599.143,64.8939,-2.34234,-0.03783167,0.74808
599.843,64.96423,-2.34234,-0.03609679,0.74746
600.543,65.03416,-2.34234,-0.0361665,0.74684
601.243,65.10419,-2.34234,-0.03984545,0.74622
601.943,65.1742,-2.34234,-0.03607889,0.7456
602.643,65.24426,-2.34227,-0.03788934,0.74498
603.343,65.31435,-2.34323,-0.03880796,0.74435
604.043,65.38446,-2.34233,-0.03911315,0.74373
604.743,65.45469,-2.34223,-0.04131826,0.74311
605.443,65.52459,-2.34332,-0.04214666,0.74249
606.143,65.5945,-2.34332,-0.03924322,0.74186
606.843,65.6644,-2.34332,-0.03939201,0.74124
607.543,65.73447,-2.34421,-0.03732093,0.74061
608.243,65.80452,-2.34464,-0.03555763,0.73999
608.943,65.8745,-2.34464,-0.03753199,0.73936
609.643,65.94452,-2.34465,-0.03854417,0.73874
610.343,66.0146,-2.34332,-0.03790995,0.73811
611.043,66.08461,-2.34473,-0.03840579,0.73749
611.743,66.15481,-2.34597,-0.03976448,0.73686
612.443,66.22497,-2.34596,-0.03875676,0.73623
613.143,66.29534,-2.34464,-0.04313762,0.73561
613.843,66.3654,-2.34464,-0.04204767,0.73498
614.543,66.4354,-2.34464,-0.04056656,0.73435
615.243,66.5052,-2.34464,-0.04135198,0.73372
615.943,66.57531,-2.34535,-0.04156107,0.73309
616.643,66.64545,-2.3453,-0.04263734,0.73246
617.343,66.7156,-2.34398,-0.04193234,0.73183
618.043,66.78573,-2.34399,-0.04078548,0.7312
618.743,66.85615,-2.34497,-0.04003636,0.73057
619.443,66.92658,-2.34497,-0.04234454,0.72994
620.143,66.9969,-2.34497,-0.04097256,0.72931
620.843,67.06708,-2.34428,-0.03839962,0.72868
621.543,67.13749,-2.34431,-0.04005803,0.72805
622.243,67.208,-2.34431,-0.0426274,0.72742
622.943,67.2782,-2.34425,-0.04368086,0.72679
623.643,67.34851,-2.34431,-0.0456492,0.72615
624.343,67.4189,-2.34563,-0.04473773,0.72552
625.043,67.48942,-2.34431,-0.0448006,0.72489
625.743,67.55973,-2.34497,-0.04654063,0.72425
626.443,67.63005,-2.34366,-0.04423181,0.72362
627.143,67.70065,-2.34366,-0.0453611,0.72299
627.843,67.77124,-2.34431,-0.04734092,0.72235
628.543,67.84161,-2.34431,-0.04529785,0.72172
629.243,67.91195,-2.34332,-0.04763897,0.72108
629.943,67.98215,-2.34332,-0.04787999,0.72044
630.643,68.05236,-2.34332,-0.04639754,0.71981
631.343,68.1225,-2.34332,-0.04696816,0.71917
632.043,68.1928,-2.34332,-0.04548533,0.71854
632.743,68.26314,-2.34547,-0.04721465,0.7179
633.443,68.33324,-2.34563,-0.04573349,0.71726
634.143,68.40335,-2.34565,-0.04986937,0.71662
634.843,68.47325,-2.34629,-0.04692184,0.71598
635.543,68.5434,-2.34498,-0.04793462,0.71535
636.243,68.6134,-2.3442,-0.04652404,0.71471
636.943,68.6836,-2.34365,-0.04609367,0.71407
637.643,68.75378,-2.34494,-0.0492892,0.71343
638.343,68.82385,-2.34497,-0.04960762,0.71279
639.043,68.89385,-2.34394,-0.050203,0.71215
639.743,68.9639,-2.34364,-0.05065705,0.71151
640.443,69.03404,-2.34497,-0.05237231,0.71087
641.143,69.10418,-2.34497,-0.05228499,0.71023
641.843,69.1743,-2.34488,-0.05069861,0.70959
642.543,69.2444,-2.34629,-0.05125719,0.70894
643.243,69.31455,-2.34695,-0.051675,0.7083
643.943,69.38466,-2.34695,-0.05323582,0.70766
644.643,69.45475,-2.34695,-0.05320227,0.70702
645.343,69.52476,-2.34555,-0.05291695,0.70637
646.043,69.59485,-2.34562,-0.0555827,0.70573
646.743,69.6651,-2.34694,-0.0590861,0.70509
647.443,69.7353,-2.34694,-0.06196815,0.70444
648.143,69.80542,-2.34559,-0.06390522,0.7038
648.843,69.87544,-2.3456,-0.06203936,0.70316
649.543,69.9456,-2.34694,-0.06240949,0.70251
650.243,70.01567,-2.34694,-0.0633546,0.70187
650.943,70.08585,-2.34694,-0.06200195,0.70122
651.643,70.15592,-2.34691,-0.06244665,0.70057
652.343,70.22623,-2.34692,0.01031566,0.69993
653.043,70.2963,-2.34824,0.0305379,0.69928
653.743,70.3665,-2.34826,0.03896207,0.69864
654.443,70.43678,-2.34826,0.04045945,0.69799
655.143,70.5071,-2.34826,0.03939356,0.69734
655.843,70.57762,-2.34826,0.04012031,0.69669
656.543,70.648,-2.34826,0.03924965,0.69605
657.243,70.71861,-2.34826,0.04009664,0.6954
657.943,70.789,-2.34826,0.04098734,0.69475
658.643,70.85938,-2.34925,0.040169,0.6941
659.343,70.92976,-2.34926,0.04161471,0.69345
660.043,71.00017,-2.34925,0.04060572,0.6928
660.743,71.07069,-2.34914,0.03822875,0.69215
661.443,71.14126,-2.34789,0.04050654,0.6915
662.143,71.21163,-2.34925,0.03948755,0.69085
662.843,71.2822,-2.349,0.03856031,0.6902
663.543,71.35271,-2.34793,0.03831193,0.68955
664.243,71.42348,-2.34793,0.03875845,0.6889
664.943,71.49361,-2.34793,0.03460097,0.68825
665.643,71.56425,-2.34795,0.03675269,0.6876
666.343,71.6345,-2.34891,0.03637544,0.68695
667.043,71.70515,-2.35024,0.03711834,0.6863
667.743,71.77552,-2.35024,0.03720491,0.68564
668.443,71.84613,-2.34893,0.03723985,0.68499
669.143,71.91673,-2.34893,0.03591971,0.68434
669.843,71.98692,-2.34893,0.03583358,0.68369
670.543,72.05715,-2.34893,0.03556841,0.68303
671.243,72.1275,-2.34893,0.03356557,0.68238
671.943,72.19768,-2.34893,0.03526486,0.68173
672.643,72.26791,-2.35019,0.03540729,0.68107
673.343,72.3382,-2.35024,0.03378446,0.68042
674.043,72.40867,-2.34893,0.03513392,0.67976
674.743,72.47921,-2.34794,0.03354009,0.67911
675.443,72.5496,-2.34864,0.034965,0.67845
676.143,72.62024,-2.35059,0.03347594,0.6778
676.843,72.69069,-2.34925,0.0326857,0.67714
677.543,72.76087,-2.34925,0.03506885,0.67649
678.243,72.83135,-2.35024,0.03615054,0.67583
678.943,72.90186,-2.35084,0.03666818,0.67517
679.643,72.9726,-2.35036,0.03266174,0.67452
680.343,73.04284,-2.34892,0.03534599,0.67386
681.043,73.11319,-2.35024,0.03576154,0.6732
681.743,73.18358,-2.35156,0.03553112,0.67255
682.443,73.25429,-2.35026,0.03555802,0.67189
683.143,73.32489,-2.35024,0.03275243,0.67123
683.843,73.3955,-2.35024,0.03434418,0.67057
684.543,73.46605,-2.34958,0.03191359,0.66991
685.243,73.5367,-2.35089,0.02955687,0.66926
685.943,73.60731,-2.34958,0.02858409,0.6686
686.643,73.67782,-2.34958,0.02877143,0.66794
687.343,73.74846,-2.34958,0.02750345,0.66728
688.043,73.81916,-2.34958,0.0250531,0.66662
688.743,73.88988,-2.3509,0.02929519,0.66596
689.443,73.96035,-2.3509,0.02735729,0.6653
690.143,74.03086,-2.3509,0.02624373,0.66464
690.843,74.10129,-2.34946,0.02592779,0.66398
691.543,74.17189,-2.34825,0.02667416,0.66332
692.243,74.24223,-2.35089,0.02608133,0.66266
692.943,74.31286,-2.34959,0.02595623,0.662
693.643,74.38325,-2.34958,0.02557188,0.66133
694.343,74.4537,-2.35091,0.02661482,0.66067
695.043,74.5239,-2.3509,0.02700098,0.66001
695.743,74.59433,-2.3509,0.025388,0.65935
696.443,74.6648,-2.3509,0.02322051,0.65869
697.143,74.73522,-2.34959,0.02321916,0.65802
697.843,74.80538,-2.34959,0.02412497,0.65736
698.543,74.87581,-2.35057,0.02254999,0.6567
699.243,74.94635,-2.35057,0.02542822,0.65604
699.943,75.01705,-2.35135,0.025986,0.65537
700.643,75.08747,-2.35036,0.02443905,0.65471
701.343,75.1579,-2.35035,0.02641152,0.65405
702.043,75.22844,-2.35035,0.02636186,0.65338
702.743,75.29897,-2.35035,0.02182897,0.65272
703.443,75.3693,-2.35035,0.02474416,0.65205
704.143,75.4397,-2.35035,0.02478275,0.65139
704.843,75.51018,-2.35035,0.02499768,0.65072
705.543,75.58086,-2.35068,0.02354337,0.65006
706.243,75.65137,-2.35068,0.02464235,0.64939
706.943,75.72192,-2.35202,0.02550225,0.64873
707.643,75.79231,-2.35167,0.02527703,0.64806
708.343,75.863,-2.35167,0.02649734,0.6474
709.043,75.93353,-2.35167,0.02439104,0.64673
709.743,76.0042,-2.35167,0.02494589,0.64607
710.443,76.07462,-2.35167,0.02411583,0.6454
711.143,76.14517,-2.35167,0.02439609,0.64473
711.843,76.21559,-2.35161,0.02147671,0.64407
712.543,76.28599,-2.35167,0.02288563,0.6434
713.243,76.35605,-2.35167,0.02279936,0.64273
713.943,76.42614,-2.35164,0.02177543,0.64207
714.643,76.49662,-2.35065,0.02063049,0.6414
715.343,76.56743,-2.35069,0.02180841,0.64073
716.043,76.63826,-2.352,0.02451676,0.64006
716.743,76.70862,-2.352,0.02221695,0.6394
717.443,76.7786,-2.35135,0.0219159,0.63873
718.143,76.8492,-2.352,0.02349144,0.63806
718.843,76.9198,-2.352,0.02142976,0.63739
719.543,76.99099,-2.352,0.0224129,0.63672
720.243,77.06156,-2.352,0.01957215,0.63605
720.943,77.13225,-2.352,0.02192333,0.63539
721.643,77.2028,-2.352,0.01981979,0.63472
722.343,77.27335,-2.35237,0.02158884,0.63405
723.043,77.34408,-2.35362,0.01859241,0.63338
723.743,77.41467,-2.35364,0.02006821,0.63271
724.443,77.48533,-2.35364,0.02120722,0.63204
725.143,77.5561,-2.35366,0.02043797,0.63137
725.843,77.6268,-2.35233,0.0168932,0.6307
726.543,77.6974,-2.35363,0.01852072,0.63003
727.243,77.7679,-2.35232,0.0173954,0.62936
727.943,77.83859,-2.35232,0.01875467,0.62869
728.643,77.9096,-2.35235,0.01606312,0.62802
729.343,77.98051,-2.35397,0.01734018,0.62735
730.043,78.05159,-2.35397,0.01529351,0.62668
730.743,78.12244,-2.35331,0.01138046,0.626
731.443,78.19331,-2.35331,0.01303403,0.62533
732.143,78.26428,-2.35332,0.01251417,0.62466
732.843,78.33515,-2.35318,0.01242498,0.62399
733.543,78.40605,-2.35331,0.01044788,0.62332
734.243,78.47663,-2.35331,0.007987002,0.62265
734.943,78.54735,-2.35331,0.009760907,0.62198
735.643,78.61816,-2.35331,0.00869598,0.6213
736.343,78.6891,-2.35331,0.004578312,0.62063
737.043,78.7603,-2.35233,0.006009994,0.61996
737.743,78.8311,-2.352,0.003270328,0.61929
738.443,78.902,-2.3533,0.002617393,0.61861
739.143,78.97282,-2.35331,0.001952265,0.61794
739.843,79.0436,-2.35322,0.0015513,0.61727
740.543,79.11424,-2.3538,-0.002821809,0.6166
741.243,79.18507,-2.35332,-0.0004273983,0.61592
741.943,79.2561,-2.35332,-0.002452305,0.61525
742.643,79.32696,-2.35332,-0.00386204,0.61458
743.343,79.39752,-2.35332,-0.005706583,0.6139
744.043,79.46823,-2.35332,-0.005332007,0.61323
744.743,79.539,-2.35298,-0.007118603,0.61255
745.443,79.60978,-2.35298,-0.008951204,0.61188
746.143,79.68051,-2.35301,-0.006443935,0.61121
746.843,79.75129,-2.35465,-0.01251885,0.61053
747.543,79.82181,-2.35579,-0.01073637,0.60986
748.243,79.89245,-2.3558,-0.013916,0.60918
748.943,79.96313,-2.35463,-0.01832402,0.60851
749.243,79.9934,-2.35463,-0.01897521,0.60822