File: 01_Data/Window_Screen/STA/N2/10K_min/Window_Screen_STA_N2_10KData_220811_R1.csv
##Temp./Â°C,Time/min,Mass loss(subtr.2)/mg,DSC(subtr.2)/(mW/mg),Sensit./(uV/mW)
49.807,10.00917,0.02602,-0.01506436,1.07015
50.507,10.77107,0.02857201,0.01525763,1.06996
51.207,10.97456,0.02731119,0.03999246,1.06976
51.907,11.12796,0.02777207,0.05640276,1.06957
52.607,11.25647,0.0281818,0.07037694,1.06938
53.307,11.37172,0.02849012,0.08455837,1.06918
54.007,11.4776,0.02785821,0.09358449,1.06899
54.707,11.57709,0.02810631,0.10224,1.06879
55.407,11.67201,0.02870079,0.10916,1.0686
56.107,11.76235,0.02986717,0.11755,1.0684
56.807,11.8507,0.02839749,0.12371,1.0682
57.507,11.9367,0.02962661,0.12677,1.06801
58.207,12.02097,0.02985207,0.13289,1.06781
58.907,12.1036,0.03259644,0.13504,1.06761
59.607,12.18487,0.02944095,0.13901,1.06741
60.307,12.26518,0.0311814,0.14076,1.06721
61.007,12.34432,0.02981813,0.14247,1.06701
61.707,12.42304,0.02878403,0.14467,1.06681
62.407,12.50113,0.02994751,0.14809,1.06661
63.107,12.5791,0.02985938,0.15205,1.06641
63.807,12.65635,0.02992196,0.15264,1.06621
64.507,12.73281,0.03020921,0.15285,1.066
65.207,12.80883,0.02889868,0.15233,1.0658
65.907,12.8844,0.02986495,0.15646,1.0656
66.607,12.96003,0.02985392,0.15797,1.06539
67.307,13.0358,0.02921799,0.15732,1.06519
68.007,13.1107,0.02982379,0.15836,1.06498
68.707,13.18566,0.02974613,0.15802,1.06478
69.407,13.2605,0.02986028,0.15921,1.06457
70.107,13.3353,0.02976342,0.15699,1.06436
70.807,13.40975,0.02986717,0.15962,1.06416
71.507,13.4843,0.0312274,0.15933,1.06395
72.207,13.5589,0.0297489,0.16038,1.06374
72.907,13.6329,0.03022038,0.15951,1.06353
73.607,13.70624,0.03106994,0.15998,1.06332
74.307,13.7797,0.03003124,0.1617,1.06311
75.007,13.85294,0.03103099,0.1617,1.0629
75.707,13.9268,0.03106679,0.16078,1.06269
76.407,13.99986,0.03036845,0.16145,1.06248
77.107,14.0725,0.03145106,0.15989,1.06227
77.807,14.145,0.03120124,0.16179,1.06206
78.507,14.2177,0.0310366,0.16277,1.06185
79.207,14.28994,0.03106523,0.16213,1.06163
79.907,14.36142,0.0313053,0.16415,1.06142
80.607,14.43317,0.03107305,0.16473,1.0612
81.307,14.50549,0.03089504,0.16505,1.06099
82.007,14.57751,0.03107001,0.16475,1.06077
82.707,14.64887,0.03237168,0.16511,1.06056
83.407,14.7201,0.03107038,0.1649,1.06034
84.107,14.79132,0.0297469,0.16628,1.06012
84.807,14.86232,0.03104508,0.16781,1.05991
85.507,14.9334,0.03107,0.16723,1.05969
86.207,15.00421,0.03106825,0.16826,1.05947
86.907,15.0747,0.02975162,0.16875,1.05925
87.607,15.14506,0.02973323,0.17026,1.05903
88.307,15.21546,0.03103698,0.16993,1.05881
89.007,15.2857,0.03039139,0.17032,1.05859
89.707,15.3559,0.03106968,0.16984,1.05837
90.407,15.42576,0.03204561,0.17071,1.05815
91.107,15.49586,0.03074009,0.17115,1.05793
91.807,15.56565,0.03073819,0.17023,1.0577
92.507,15.63535,0.02977862,0.17205,1.05748
93.207,15.7047,0.02974251,0.17219,1.05726
93.907,15.77396,0.03100862,0.17258,1.05703
94.607,15.84348,0.03040621,0.17383,1.05681
95.307,15.91335,0.03051301,0.17333,1.05658
96.007,15.98262,0.03268682,0.17343,1.05636
96.707,16.05207,0.0330389,0.17836,1.05613
97.407,16.12128,0.03173153,0.17713,1.0559
98.107,16.1908,0.03173987,0.17473,1.05568
98.807,16.25985,0.03173503,0.17617,1.05545
99.507,16.32914,0.03173,0.17924,1.05522
100.207,16.3983,0.03237527,0.18085,1.05499
100.907,16.46729,0.03239554,0.18107,1.05476
101.607,16.53642,0.03106795,0.18054,1.05453
102.307,16.6055,0.03173343,0.18053,1.0543
103.007,16.67475,0.03304225,0.18109,1.05407
103.707,16.74345,0.03035449,0.18107,1.05384
104.407,16.81222,0.03182742,0.18249,1.05361
105.107,16.88043,0.03129376,0.18346,1.05338
105.807,16.9494,0.03184,0.18244,1.05314
106.507,17.01795,0.03184059,0.18278,1.05291
107.207,17.08695,0.03315396,0.18356,1.05268
107.907,17.1554,0.03316,0.18364,1.05244
108.607,17.22343,0.03315956,0.18314,1.05221
109.307,17.29194,0.03448657,0.18377,1.05197
110.007,17.36048,0.03447378,0.18532,1.05173
110.707,17.42921,0.03183983,0.18701,1.0515
111.407,17.49764,0.03079777,0.18608,1.05126
112.107,17.56565,0.03184194,0.18713,1.05102
112.807,17.63372,0.03282747,0.18818,1.05078
113.507,17.7012,0.03282028,0.18685,1.05055
114.207,17.76941,0.03314931,0.18848,1.05031
114.907,17.8376,0.03176242,0.18951,1.05007
115.607,17.90639,0.03266019,0.19188,1.04983
116.307,17.9743,0.03249997,0.18983,1.04958
117.007,18.04263,0.03249965,0.18847,1.04934
117.707,18.11123,0.03382582,0.1907,1.0491
118.407,18.17991,0.03382,0.19165,1.04886
119.107,18.2484,0.03382,0.19011,1.04862
119.807,18.31681,0.03388289,0.18991,1.04837
120.507,18.38516,0.0331597,0.19129,1.04813
121.207,18.4529,0.03391826,0.19206,1.04788
121.907,18.52119,0.03362552,0.19304,1.04764
122.607,18.589,0.03282999,0.19489,1.04739
123.307,18.65737,0.03314236,0.19181,1.04715
124.007,18.72535,0.03249279,0.19236,1.0469
124.707,18.7937,0.03381056,0.19363,1.04665
125.407,18.86204,0.03381,0.19277,1.0464
126.107,18.9301,0.03381,0.19355,1.04616
126.807,18.99813,0.03380975,0.1938,1.04591
127.507,19.0659,0.03310247,0.19414,1.04566
128.207,19.13374,0.03447692,0.19484,1.04541
128.907,19.20134,0.03349678,0.19387,1.04516
129.607,19.26913,0.03315,0.19411,1.04491
130.307,19.33705,0.0341111,0.19362,1.04465
131.007,19.4052,0.03414501,0.19418,1.0444
131.707,19.47299,0.03349137,0.19589,1.04415
132.407,19.5403,0.03349,0.19599,1.0439
133.107,19.60794,0.03349297,0.19514,1.04364
133.807,19.6757,0.032831,0.19575,1.04339
134.507,19.7436,0.03319367,0.19805,1.04313
135.207,19.81135,0.03185264,0.19787,1.04288
135.907,19.8789,0.03316035,0.19527,1.04262
136.607,19.94635,0.03316,0.1958,1.04236
137.307,20.01386,0.03315998,0.19774,1.04211
138.007,20.08098,0.03323161,0.19428,1.04185
138.707,20.14854,0.03346945,0.19679,1.04159
139.407,20.2164,0.03348001,0.19654,1.04133
140.107,20.2846,0.03348,0.1976,1.04107
140.807,20.3525,0.03348,0.19633,1.04081
141.507,20.41975,0.03348,0.19583,1.04055
142.207,20.48688,0.03350999,0.19734,1.04029
142.907,20.55378,0.03447499,0.1973,1.04003
143.607,20.62143,0.0331516,0.19716,1.03977
144.307,20.689,0.03315,0.19694,1.03951
145.007,20.75669,0.03315,0.19671,1.03925
145.707,20.8237,0.03315155,0.19937,1.03898
146.407,20.8906,0.03446877,0.19674,1.03872
147.107,20.95743,0.03445103,0.19871,1.03845
147.807,21.02486,0.03316013,0.19654,1.03819
148.507,21.09221,0.03312254,0.19843,1.03792
149.207,21.1595,0.03415002,0.19815,1.03766
149.907,21.22648,0.03415,0.19763,1.03739
150.607,21.2938,0.03414999,0.20059,1.03712
151.307,21.36122,0.03362333,0.19956,1.03685
152.007,21.42906,0.03282984,0.20219,1.03659
152.707,21.49652,0.03315964,0.20151,1.03632
153.407,21.56375,0.03315977,0.20053,1.03605
154.107,21.6305,0.03450163,0.19881,1.03578
154.807,21.697,0.03350909,0.20006,1.03551
155.507,21.7641,0.03347999,0.19767,1.03524
156.207,21.83147,0.03347998,0.19967,1.03496
156.907,21.89924,0.03314841,0.19964,1.03469
157.607,21.96645,0.03185749,0.19893,1.03442
158.307,22.03358,0.03184,0.19985,1.03415
159.007,22.09999,0.03184,0.20122,1.03387
159.707,22.16676,0.03184,0.20197,1.0336
160.407,22.234,0.03182601,0.20124,1.03332
161.107,22.3016,0.03292175,0.20094,1.03305
161.807,22.36928,0.03283171,0.19983,1.03277
162.507,22.4365,0.03283001,0.20104,1.03249
163.207,22.5034,0.03283,0.20085,1.03222
163.907,22.5701,0.03282984,0.2002,1.03194
164.607,22.63684,0.03148621,0.20177,1.03166
165.307,22.7038,0.03150397,0.20306,1.03138
166.007,22.77055,0.03318298,0.20156,1.0311
166.707,22.83739,0.03315847,0.20204,1.03082
167.407,22.9045,0.0321662,0.20144,1.03054
168.107,22.97213,0.03051424,0.20126,1.03026
168.807,23.03966,0.03154991,0.2015,1.02998
169.507,23.10665,0.03184003,0.20148,1.0297
170.207,23.17322,0.0314829,0.20118,1.02941
170.907,23.23985,0.03047938,0.20111,1.02913
171.607,23.30692,0.03052021,0.20188,1.02885
172.307,23.3736,0.03052,0.20358,1.02856
173.007,23.44047,0.03052,0.20283,1.02828
173.707,23.50692,0.03052,0.20207,1.02799
174.407,23.57396,0.03052,0.20392,1.02771
175.107,23.64111,0.03052,0.20324,1.02742
175.807,23.70822,0.03052,0.20368,1.02713
176.507,23.77572,0.03051812,0.20223,1.02685
177.207,23.84305,0.02921187,0.20246,1.02656
177.907,23.90996,0.02921,0.20072,1.02627
178.607,23.97644,0.02921,0.20302,1.02598
179.307,24.04264,0.02921,0.20269,1.02569
180.007,24.10872,0.02920997,0.20477,1.0254
180.707,24.17546,0.02790924,0.20159,1.02511
181.407,24.24225,0.02789,0.20376,1.02482
182.107,24.30985,0.02789,0.20464,1.02452
182.807,24.3767,0.02789629,0.20428,1.02423
183.507,24.4432,0.02657118,0.20356,1.02394
184.207,24.5097,0.02756222,0.20383,1.02364
184.907,24.57631,0.02756,0.20375,1.02335
185.607,24.64301,0.02756,0.203,1.02305
186.307,24.7096,0.02755985,0.2042,1.02276
187.007,24.7763,0.02623592,0.20406,1.02246
187.707,24.84323,0.02589415,0.20572,1.02217
188.407,24.90996,0.02657002,0.20546,1.02187
189.107,24.97635,0.02657048,0.20482,1.02157
189.807,25.04278,0.02524299,0.20389,1.02127
190.507,25.1095,0.02457733,0.20452,1.02097
191.207,25.1762,0.02458998,0.20576,1.02067
191.907,25.24315,0.02461738,0.20375,1.02037
192.607,25.30997,0.02426001,0.20391,1.02007
193.307,25.37707,0.02376051,0.20361,1.01977
194.007,25.44354,0.02393039,0.20264,1.01947
194.707,25.5102,0.02392991,0.2027,1.01917
195.407,25.5762,0.02325704,0.20394,1.01886
196.107,25.64321,0.02296947,0.20317,1.01856
196.807,25.71011,0.02261002,0.20223,1.01826
197.507,25.77776,0.02261,0.20239,1.01795
198.207,25.84458,0.02261,0.20204,1.01765
198.907,25.9115,0.02261826,0.20249,1.01734
199.607,25.9779,0.02064418,0.20246,1.01704
200.307,26.04431,0.02067274,0.20411,1.01673
201.007,26.11039,0.02031971,0.20464,1.01642
201.707,26.1766,0.01966975,0.20306,1.01611
202.407,26.24336,0.01939575,0.2032,1.0158
203.107,26.31005,0.01867029,0.20308,1.0155
203.807,26.37687,0.01866846,0.20346,1.01519
204.507,26.4436,0.0173966,0.20386,1.01488
205.207,26.5102,0.01602986,0.20243,1.01456
205.907,26.57722,0.01603,0.20246,1.01425
206.607,26.64445,0.01603679,0.20486,1.01394
207.307,26.71142,0.01470957,0.20582,1.01363
208.007,26.7781,0.01476444,0.20478,1.01332
208.707,26.8445,0.01372039,0.2057,1.013
209.407,26.9111,0.01237009,0.20503,1.01269
210.107,26.9779,0.01109692,0.20628,1.01237
210.807,27.0442,0.01109,0.20659,1.01206
211.507,27.11022,0.01109,0.20617,1.01174
212.207,27.1768,0.0109189,0.20732,1.01143
212.907,27.24335,0.009770165,0.20586,1.01111
213.607,27.3105,0.009674768,0.20493,1.01079
214.307,27.37718,0.006822785,0.20763,1.01047
215.007,27.44391,0.006809997,0.20622,1.01015
215.707,27.5102,0.0068114,0.20687,1.00983
216.407,27.57664,0.004536902,0.2065,1.00951
217.107,27.64347,0.00308422,0.20779,1.00919
217.807,27.7106,0.00318168,0.20894,1.00887
218.507,27.77757,0.001533801,0.20925,1.00855
219.207,27.8444,0.000283469,0.21042,1.00823
219.907,27.91129,-0.001753055,0.20784,1.00791
220.607,27.97813,-0.002322969,0.20548,1.00758
221.307,28.04461,-0.00336595,0.20719,1.00726
222.007,28.11072,-0.004394,0.20602,1.00693
222.707,28.1772,-0.00570314,0.20694,1.00661
223.407,28.2439,-0.007017843,0.20458,1.00628
224.107,28.311,-0.00834228,0.20646,1.00596
224.807,28.3777,-0.01031724,0.20518,1.00563
225.507,28.44422,-0.01197178,0.20605,1.0053
226.207,28.51077,-0.01377991,0.20597,1.00497
226.907,28.5773,-0.01504157,0.2063,1.00465
227.607,28.6439,-0.01634804,0.20852,1.00432
228.307,28.71047,-0.01765063,0.20676,1.00399
229.007,28.77695,-0.01976343,0.20741,1.00366
229.707,28.84365,-0.02039502,0.20839,1.00332
230.407,28.91025,-0.02236159,0.2092,1.00299
231.107,28.97687,-0.0254052,0.208,1.00266
231.807,29.04338,-0.02688219,0.2107,1.00233
232.507,29.10993,-0.02981024,0.21044,1.002
233.207,29.17655,-0.03205452,0.21103,1.00166
233.907,29.2432,-0.03356454,0.21448,1.00133
234.607,29.3098,-0.0350707,0.21463,1.00099
235.307,29.37632,-0.03754622,0.215,1.00066
236.007,29.44228,-0.04066825,0.218,1.00032
236.707,29.5088,-0.0434575,0.22143,0.99998
237.407,29.57525,-0.04602715,0.22315,0.99965
238.107,29.64221,-0.04929895,0.22231,0.99931
238.807,29.709,-0.05226045,0.22349,0.99897
239.507,29.7757,-0.05393732,0.22437,0.99863
240.207,29.8422,-0.05996618,0.22565,0.99829
240.907,29.90874,-0.0631287,0.22637,0.99795
241.607,29.9753,-0.06475454,0.22598,0.99761
242.307,30.04209,-0.06971608,0.22779,0.99727
243.007,30.1087,-0.07301364,0.22709,0.99693
243.707,30.1752,-0.07612853,0.22816,0.99658
244.407,30.24178,-0.07922909,0.22881,0.99624
245.107,30.30847,-0.08233875,0.23041,0.9959
245.807,30.37544,-0.08635565,0.23112,0.99555
246.507,30.4422,-0.08998317,0.23231,0.99521
247.207,30.5088,-0.09613146,0.23384,0.99486
247.907,30.57511,-0.10054,0.23683,0.99452
248.607,30.6419,-0.10477,0.23877,0.99417
249.307,30.70869,-0.11028,0.23918,0.99382
250.007,30.77577,-0.11491,0.24131,0.99347
250.707,30.8424,-0.11903,0.24365,0.99313
251.407,30.90912,-0.12647,0.24528,0.99278
252.107,30.97585,-0.13103,0.24631,0.99243
252.807,31.0424,-0.13584,0.25045,0.99208
253.507,31.10926,-0.14097,0.25045,0.99173
254.207,31.176,-0.14831,0.25513,0.99138
254.907,31.24268,-0.15465,0.25592,0.99102
255.607,31.30927,-0.16205,0.25773,0.99067
256.307,31.37578,-0.16759,0.25798,0.99032
257.007,31.4425,-0.17457,0.25882,0.98996
257.707,31.5091,-0.18168,0.26084,0.98961
258.407,31.5759,-0.18861,0.26139,0.98926
259.107,31.64273,-0.19636,0.26169,0.9889
259.807,31.70948,-0.20543,0.26263,0.98854
260.507,31.77569,-0.21364,0.26423,0.98819
261.207,31.8423,-0.22293,0.2649,0.98783
261.907,31.90891,-0.23239,0.26366,0.98747
262.607,31.9759,-0.24097,0.26529,0.98711
263.307,32.0427,-0.25074,0.26668,0.98675
264.007,32.10948,-0.26002,0.26644,0.98639
264.707,32.17608,-0.26993,0.27076,0.98603
265.407,32.24268,-0.27937,0.27252,0.98567
266.107,32.30937,-0.29064,0.28065,0.98531
266.807,32.37612,-0.30182,0.28789,0.98495
267.507,32.44291,-0.31321,0.30065,0.98459
268.207,32.5096,-0.32462,0.3157,0.98422
268.907,32.57626,-0.33781,0.32753,0.98386
269.607,32.643,-0.3493,0.34218,0.9835
270.307,32.70982,-0.36002,0.35379,0.98313
271.007,32.77664,-0.37375,0.36783,0.98277
271.707,32.84353,-0.38723,0.38049,0.9824
272.407,32.9103,-0.40036,0.38916,0.98203
273.107,32.9767,-0.41425,0.40173,0.98167
273.807,33.04365,-0.42947,0.41294,0.9813
274.507,33.11045,-0.4453,0.42324,0.98093
275.207,33.17767,-0.46135,0.43826,0.98056
275.907,33.24435,-0.47783,0.45459,0.98019
276.607,33.31131,-0.49592,0.47279,0.97982
277.307,33.37813,-0.51453,0.49112,0.97945
278.007,33.445,-0.53329,0.51087,0.97908
278.707,33.51186,-0.55206,0.5356,0.97871
279.407,33.57877,-0.57217,0.55595,0.97833
280.107,33.64584,-0.59393,0.57683,0.97796
280.807,33.71288,-0.61604,0.59757,0.97759
281.507,33.78029,-0.63765,0.60547,0.97721
282.207,33.84742,-0.65963,0.61854,0.97684
282.907,33.91424,-0.68277,0.61375,0.97646
283.607,33.98134,-0.7069,0.60149,0.97609
284.307,34.04837,-0.73136,0.60402,0.97571
285.007,34.11573,-0.75641,0.61058,0.97533
285.707,34.18267,-0.78394,0.62138,0.97495
286.407,34.24961,-0.81031,0.6283,0.97458
287.107,34.3168,-0.83932,0.63501,0.9742
287.807,34.3838,-0.87062,0.63786,0.97382
288.507,34.4507,-0.89886,0.64261,0.97344
289.207,34.51745,-0.9287,0.64612,0.97306
289.907,34.58464,-0.95782,0.64833,0.97267
290.607,34.6519,-0.98807,0.65065,0.97229
291.307,34.7192,-1.01594,0.6523,0.97191
292.007,34.78626,-1.04528,0.65434,0.97153
292.707,34.8534,-1.07638,0.66651,0.97114
293.407,34.92029,-1.10872,0.68523,0.97076
294.107,34.98741,-1.14282,0.69574,0.97037
294.807,35.0544,-1.17539,0.70734,0.96999
295.507,35.1218,-1.20887,0.71728,0.9696
296.207,35.18902,-1.244,0.72025,0.96921
296.907,35.25611,-1.28016,0.72771,0.96883
297.607,35.323,-1.31449,0.73854,0.96844
298.307,35.39009,-1.34873,0.75787,0.96805
299.007,35.45725,-1.38201,0.7728,0.96766
299.707,35.52434,-1.41243,0.77769,0.96727
300.407,35.59151,-1.44317,0.77699,0.96688
301.107,35.6586,-1.47229,0.77122,0.96649
301.807,35.72587,-1.49692,0.75854,0.9661
302.507,35.79291,-1.52245,0.73952,0.9657
303.207,35.86011,-1.54571,0.71663,0.96531
303.907,35.92714,-1.56656,0.68964,0.96492
304.607,35.99409,-1.58849,0.66042,0.96452
305.307,36.061,-1.60688,0.63318,0.96413
306.007,36.1276,-1.62423,0.59809,0.96373
306.707,36.19385,-1.63892,0.56949,0.96334
307.407,36.26032,-1.65266,0.54053,0.96294
308.107,36.32682,-1.66737,0.50686,0.96254
308.807,36.39356,-1.68088,0.47553,0.96215
309.507,36.46017,-1.69249,0.4478,0.96175
310.207,36.5272,-1.70342,0.41928,0.96135
310.907,36.5944,-1.71357,0.39365,0.96095
311.607,36.66125,-1.72248,0.36917,0.96055
312.307,36.7281,-1.73282,0.3463,0.96015
313.007,36.7947,-1.74017,0.32208,0.95975
313.707,36.86145,-1.74691,0.30162,0.95935
314.407,36.92828,-1.75334,0.2827,0.95894
315.107,36.9953,-1.76074,0.26538,0.95854
315.807,37.06235,-1.76818,0.24877,0.95814
316.507,37.12941,-1.7739,0.23327,0.95773
317.207,37.19636,-1.77748,0.22023,0.95733
317.907,37.2634,-1.7845,0.20734,0.95692
318.607,37.33052,-1.78813,0.1956,0.95652
319.307,37.3977,-1.79284,0.18146,0.95611
320.007,37.4647,-1.79674,0.17069,0.9557
320.707,37.5319,-1.80051,0.16282,0.9553
321.407,37.59903,-1.80407,0.15178,0.95489
322.107,37.66619,-1.8074,0.14525,0.95448
322.807,37.7333,-1.80986,0.13435,0.95407
323.507,37.80056,-1.8132,0.12824,0.95366
324.207,37.86782,-1.81538,0.12118,0.95325
324.907,37.93499,-1.81809,0.11424,0.95284
325.607,38.00206,-1.82119,0.10717,0.95242
326.307,38.0693,-1.82374,0.10198,0.95201
327.007,38.13649,-1.82714,0.09527389,0.9516
327.707,38.20382,-1.82879,0.09241005,0.95118
328.407,38.27091,-1.83165,0.08717884,0.95077
329.107,38.33804,-1.83318,0.08171879,0.95035
329.807,38.40551,-1.83515,0.0803644,0.94994
330.507,38.47307,-1.83777,0.07442693,0.94952
331.207,38.54074,-1.83897,0.07080077,0.94911
331.907,38.60794,-1.84037,0.06601347,0.94869
332.607,38.67524,-1.84417,0.06272462,0.94827
333.307,38.7425,-1.84464,0.06029381,0.94785
334.007,38.81,-1.84579,0.05630474,0.94743
334.707,38.87738,-1.8473,0.05437774,0.94701
335.407,38.945,-1.84843,0.05118924,0.94659
336.107,39.0124,-1.85112,0.05043265,0.94617
336.807,39.07987,-1.85239,0.04834213,0.94575
337.507,39.14723,-1.85369,0.04617417,0.94533
338.207,39.2147,-1.855,0.04556588,0.94491
338.907,39.28215,-1.85515,0.04355026,0.94448
339.607,39.34968,-1.85633,0.04149838,0.94406
340.307,39.4172,-1.85898,0.03799799,0.94363
341.007,39.48491,-1.86028,0.03715602,0.94321
341.707,39.55238,-1.86048,0.03576386,0.94278
342.407,39.61998,-1.86193,0.03220025,0.94236
343.107,39.6873,-1.86317,0.03240092,0.94193
343.807,39.75481,-1.86417,0.03102492,0.9415
344.507,39.82224,-1.86456,0.02783222,0.94107
345.207,39.88964,-1.86588,0.02868049,0.94064
345.907,39.95718,-1.86588,0.02665246,0.94022
346.607,40.02451,-1.86779,0.02492956,0.93979
347.307,40.09214,-1.86919,0.02431281,0.93935
348.007,40.1597,-1.87049,0.0223347,0.93892
348.707,40.22761,-1.87049,0.02239649,0.93849
349.407,40.29535,-1.87182,0.02338636,0.93806
350.107,40.3633,-1.87313,0.02282957,0.93763
350.807,40.4309,-1.87313,0.02172942,0.93719
351.507,40.4985,-1.87444,0.02117411,0.93676
352.207,40.56608,-1.87444,0.02155789,0.93632
352.907,40.6336,-1.87586,0.01876149,0.93589
353.607,40.70128,-1.87582,0.01794605,0.93545
354.307,40.76907,-1.87708,0.0178463,0.93502
355.007,40.83683,-1.87707,0.01638579,0.93458
355.707,40.90397,-1.8784,0.01723787,0.93414
356.407,40.9715,-1.87969,0.01581477,0.9337
357.107,41.03905,-1.88037,0.01547544,0.93326
357.807,41.10711,-1.88171,0.01510595,0.93282
358.507,41.17491,-1.88169,0.01452798,0.93238
359.207,41.24273,-1.88169,0.01548004,0.93194
359.907,41.31045,-1.88178,0.01321548,0.9315
360.607,41.37807,-1.88432,0.01336107,0.93106
361.307,41.44574,-1.88433,0.01303927,0.93062
362.007,41.51351,-1.8844,0.0132056,0.93017
362.707,41.58128,-1.88531,0.01250023,0.92973
363.407,41.64902,-1.88662,0.01209093,0.92929
364.107,41.71662,-1.88531,0.01130452,0.92884
364.807,41.78463,-1.88522,0.01073721,0.9284
365.507,41.85245,-1.8876,0.009863887,0.92795
366.207,41.92042,-1.88794,0.01062738,0.9275
366.907,41.98815,-1.88926,0.01073668,0.92706
367.607,42.05603,-1.88931,0.009489075,0.92661
368.307,42.1239,-1.88991,0.01027773,0.92616
369.007,42.19169,-1.88986,0.01048201,0.92571
369.707,42.25966,-1.88926,0.00950365,0.92526
370.407,42.3277,-1.89058,0.01177266,0.92481
371.107,42.3953,-1.89059,0.01143667,0.92436
371.807,42.46294,-1.89189,0.01092304,0.92391
372.507,42.53055,-1.89288,0.01081004,0.92346
373.207,42.59898,-1.89321,0.01054898,0.923
373.907,42.66713,-1.89453,0.01081117,0.92255
374.607,42.73551,-1.89453,0.0118286,0.9221
375.307,42.80366,-1.89474,0.01087989,0.92164
376.007,42.87172,-1.89455,0.008670124,0.92119
376.707,42.93962,-1.89716,0.009726573,0.92073
377.407,43.00764,-1.89585,0.01086473,0.92028
378.107,43.07535,-1.89585,0.01076262,0.91982
378.807,43.14332,-1.89709,0.01230951,0.91936
379.507,43.21131,-1.89988,0.01158245,0.9189
380.207,43.27955,-1.8998,0.01389643,0.91844
380.907,43.34776,-1.8998,0.01222887,0.91799
381.607,43.4158,-1.90044,0.01392638,0.91753
382.307,43.48406,-1.90111,0.01473939,0.91707
383.007,43.55252,-1.90107,0.01310308,0.9166
383.707,43.62113,-1.90244,0.0161067,0.91614
384.407,43.68965,-1.90244,0.01699036,0.91568
385.107,43.75804,-1.90371,0.0198686,0.91522
385.807,43.82592,-1.90375,0.01719836,0.91475
386.507,43.8941,-1.90331,0.01835981,0.91429
387.207,43.96208,-1.9037,0.01927506,0.91383
387.907,44.03054,-1.90507,0.01965004,0.91336
388.607,44.09879,-1.90537,0.0203285,0.9129
389.307,44.1672,-1.9077,0.01969101,0.91243
390.007,44.23531,-1.90761,0.01862565,0.91196
390.707,44.3035,-1.90771,0.01787374,0.91149
391.407,44.37182,-1.90903,0.01965607,0.91103
392.107,44.44016,-1.90902,0.02128398,0.91056
392.807,44.5083,-1.91034,0.02081096,0.91009
393.507,44.57651,-1.91207,0.01938607,0.90962
394.207,44.6445,-1.91347,0.01900761,0.90915
394.907,44.71245,-1.91429,0.01932801,0.90868
395.607,44.7804,-1.91429,0.01866653,0.90821
396.307,44.84837,-1.91429,0.01942196,0.90773
397.007,44.9165,-1.91561,0.01941967,0.90726
397.707,44.98426,-1.91567,0.01714714,0.90679
398.407,45.05212,-1.91689,0.01645551,0.90631
399.107,45.12005,-1.91824,0.01560373,0.90584
399.807,45.18835,-1.91956,0.01744313,0.90536
400.507,45.25643,-1.92086,0.01656961,0.90489
401.207,45.3242,-1.92224,0.01392064,0.90441
401.907,45.3919,-1.92224,0.00914368,0.90394
402.607,45.45966,-1.9222,0.00976889,0.90346
403.307,45.52785,-1.92378,0.007707699,0.90298
404.007,45.59618,-1.92483,0.007112096,0.9025
404.707,45.66475,-1.92614,0.00583824,0.90202
405.407,45.7333,-1.92515,0.00532696,0.90154
406.107,45.80191,-1.92612,0.005201219,0.90106
406.807,45.87021,-1.92789,0.005146674,0.90058
407.507,45.9383,-1.92879,0.00607579,0.9001
408.207,46.00636,-1.93145,0.004746117,0.89962
408.907,46.07452,-1.93144,0.00420053,0.89914
409.607,46.14297,-1.93275,0.004824259,0.89865
410.307,46.2113,-1.93274,0.00432439,0.89817
411.007,46.27967,-1.93277,0.001873316,0.89768
411.707,46.34773,-1.93538,0.003174261,0.8972
412.407,46.41599,-1.9355,0.0008138881,0.89671
413.107,46.48417,-1.93775,0.00161744,0.89623
413.807,46.55245,-1.93938,-0.0002660939,0.89574
414.507,46.62072,-1.94071,-0.001463741,0.89525
415.207,46.689,-1.94064,-0.001674515,0.89477
415.907,46.7573,-1.94064,-0.00256442,0.89428
416.607,46.82565,-1.94194,-0.00344032,0.89379
417.307,46.894,-1.94543,-0.004086123,0.8933
418.007,46.96235,-1.94594,-0.00598299,0.89281
418.707,47.0306,-1.94801,-0.006223831,0.89232
419.407,47.0989,-1.94987,-0.006928116,0.89183
420.107,47.16725,-1.95119,-0.007776293,0.89133
420.807,47.23568,-1.9525,-0.009537677,0.89084
421.507,47.30425,-1.95381,-0.01036572,0.89035
422.207,47.37279,-1.9551,-0.01384739,0.88985
422.907,47.4413,-1.95796,-0.01407619,0.88936
423.607,47.50985,-1.9582,-0.01559681,0.88886
424.307,47.57824,-1.95948,-0.01564144,0.88837
425.007,47.6466,-1.96214,-0.01698664,0.88787
425.707,47.71515,-1.96339,-0.01968228,0.88738
426.407,47.78373,-1.9662,-0.01927088,0.88688
427.107,47.85246,-1.9674,-0.01751138,0.88638
427.807,47.92085,-1.96887,-0.0180528,0.88588
428.507,47.98936,-1.9727,-0.01903481,0.88539
429.207,48.05786,-1.97539,-0.01676587,0.88489
429.907,48.12656,-1.97612,-0.01700945,0.88439
430.607,48.19511,-1.97897,-0.02052172,0.88389
431.307,48.26358,-1.98196,-0.01784227,0.88338
432.007,48.33226,-1.98338,-0.01831637,0.88288
432.707,48.40084,-1.98597,-0.01719009,0.88238
433.407,48.46948,-1.98873,-0.01846276,0.88188
434.107,48.53792,-1.98967,-0.01606036,0.88137
434.807,48.6065,-1.99208,-0.01658049,0.88087
435.507,48.6749,-1.99547,-0.01665604,0.88037
436.207,48.7431,-1.99804,-0.01535633,0.87986
436.907,48.81162,-2.00084,-0.01391514,0.87935
437.607,48.8803,-2.00374,-0.0122964,0.87885
438.307,48.94908,-2.00881,-0.01323442,0.87834
439.007,49.01746,-2.00998,-0.01300306,0.87783
439.707,49.08616,-2.01351,-0.00996119,0.87733
440.407,49.15498,-2.01657,-0.008589563,0.87682
441.107,49.2239,-2.02121,-0.0076644,0.87631
441.807,49.2924,-2.02394,-0.005787744,0.8758
442.507,49.36095,-2.02687,-0.00287576,0.87529
443.207,49.4296,-2.03286,-0.00191945,0.87478
443.907,49.49824,-2.03487,6.787825e-05,0.87427
444.607,49.56694,-2.03924,0.001000578,0.87375
445.307,49.63531,-2.04105,0.005815899,0.87324
446.007,49.70397,-2.04626,0.007335476,0.87273
446.707,49.7727,-2.04915,0.0124233,0.87221
447.407,49.84154,-2.05406,0.01124233,0.8717
448.107,49.91024,-2.0584,0.01405765,0.87119
448.807,49.9788,-2.06313,0.01631998,0.87067
449.507,50.04744,-2.06645,0.02181243,0.87015
450.207,50.11611,-2.07007,0.02196416,0.86964
450.907,50.18464,-2.07416,0.02829422,0.86912
451.607,50.25312,-2.07962,0.02998482,0.8686
452.307,50.3217,-2.08545,0.03079952,0.86809
453.007,50.39017,-2.09062,0.03489504,0.86757
453.707,50.45878,-2.09442,0.03718964,0.86705
454.407,50.52735,-2.09756,0.04012994,0.86653
455.107,50.59605,-2.10301,0.04287605,0.86601
455.807,50.66471,-2.10784,0.0442727,0.86549
456.507,50.7334,-2.11211,0.04787324,0.86497
457.207,50.80226,-2.11713,0.05045363,0.86444
457.907,50.87102,-2.12127,0.05390737,0.86392
458.607,50.9399,-2.12697,0.05618731,0.8634
459.307,51.00844,-2.13148,0.05922688,0.86287
460.007,51.07705,-2.13724,0.06164858,0.86235
460.707,51.14573,-2.14178,0.06422632,0.86183
461.407,51.2147,-2.14572,0.06783917,0.8613
462.107,51.28374,-2.15011,0.0696214,0.86077
462.807,51.35266,-2.15578,0.07036948,0.86025
463.507,51.4215,-2.16174,0.07139361,0.85972
464.207,51.49029,-2.16657,0.07486585,0.85919
464.907,51.55932,-2.17066,0.07575592,0.85867
465.607,51.62828,-2.17514,0.07789847,0.85814
466.307,51.69733,-2.18031,0.08017787,0.85761
467.007,51.766,-2.18369,0.08091031,0.85708
467.707,51.83464,-2.18905,0.08035641,0.85655
468.407,51.90323,-2.19256,0.08300815,0.85602
469.107,51.97186,-2.19716,0.08456189,0.85549
469.807,52.0385,-2.20066,0.08162502,0.85495
470.507,52.10516,-2.20448,0.04420598,0.85442
471.207,52.17307,-2.20815,0.03265363,0.85389
471.907,52.24252,-2.21095,0.03079315,0.85335
472.607,52.31183,-2.21565,0.02559773,0.85282
473.307,52.38045,-2.21939,0.02414758,0.85229
474.007,52.4498,-2.22409,0.02454382,0.85175
474.707,52.5183,-2.22735,0.02540627,0.85122
475.407,52.58679,-2.23221,0.02301804,0.85068
476.107,52.65615,-2.23511,0.02139499,0.85014
476.807,52.7268,-2.23906,0.01901393,0.84961
477.507,52.7965,-2.24315,0.01979142,0.84907
478.207,52.8658,-2.24605,0.02392562,0.84853
478.907,52.9352,-2.25023,0.01810805,0.84799
479.607,53.00479,-2.25361,0.0152683,0.84745
480.307,53.0725,-2.25645,0.01902125,0.84691
481.007,53.1396,-2.25813,0.02216923,0.84637
481.707,53.2066,-2.26238,0.0183221,0.84583
482.407,53.27474,-2.26393,0.01781338,0.84529
483.107,53.3441,-2.26714,0.01850922,0.84475
483.807,53.41418,-2.27028,0.0177536,0.8442
484.507,53.48409,-2.27369,0.01779168,0.84366
485.207,53.55415,-2.27552,0.01894902,0.84312
485.907,53.6245,-2.27969,0.01172468,0.84257
486.607,53.6946,-2.28226,0.01774811,0.84203
487.307,53.763,-2.28391,0.01790779,0.84148
488.007,53.83155,-2.28658,0.01707962,0.84094
488.707,53.90053,-2.28942,0.01580231,0.84039
489.407,53.97002,-2.29087,0.01775338,0.83984
490.107,54.0386,-2.29367,0.0174655,0.8393
490.807,54.10638,-2.29497,0.01648993,0.83875
491.507,54.1737,-2.2982,0.01464298,0.8382
492.207,54.2409,-2.3003,0.01316731,0.83765
492.907,54.30924,-2.3005,0.01298342,0.8371
493.607,54.37915,-2.30314,0.01232436,0.83655
494.307,54.4483,-2.30578,0.01389093,0.836
495.007,54.5172,-2.30865,0.01033279,0.83545
495.707,54.5854,-2.30741,0.009268845,0.8349
496.407,54.656,-2.30876,0.008375845,0.83434
497.107,54.7267,-2.3113,0.009597443,0.83379
497.807,54.7966,-2.31274,0.01076933,0.83324
498.507,54.8653,-2.31555,0.01029717,0.83269
499.207,54.9341,-2.31626,0.01064726,0.83213
499.907,55.003,-2.31766,0.01059967,0.83158
500.607,55.0723,-2.31849,0.009024864,0.83102
501.307,55.14136,-2.31788,0.008054236,0.83047
502.007,55.2111,-2.31931,0.008752998,0.82991
502.707,55.28088,-2.32049,0.009628111,0.82935
503.407,55.3497,-2.32182,0.00726429,0.82879
504.107,55.4185,-2.32444,0.006791475,0.82824
504.807,55.4871,-2.32557,0.006225001,0.82768
505.507,55.55653,-2.32435,0.0046236,0.82712
506.207,55.626,-2.32576,0.004853606,0.82656
506.907,55.6954,-2.32705,0.00738483,0.826
507.607,55.7649,-2.3274,0.00580255,0.82544
508.307,55.8333,-2.3284,0.00561029,0.82488
509.007,55.90112,-2.32872,0.004872309,0.82432
509.707,55.97009,-2.32978,0.00550324,0.82376
510.407,56.03865,-2.3323,0.005452197,0.82319
511.107,56.1075,-2.33351,0.00564811,0.82263
511.807,56.1762,-2.33405,0.006044609,0.82207
512.507,56.24665,-2.33267,0.005425536,0.8215
513.207,56.31802,-2.334,0.005289081,0.82094
513.907,56.3872,-2.33597,0.004279593,0.82037
514.607,56.4555,-2.33736,0.004844016,0.81981
515.307,56.5244,-2.3373,0.002576093,0.81924
516.007,56.5941,-2.33762,0.00483885,0.81868
516.707,56.6635,-2.33762,0.00389873,0.81811
517.407,56.7316,-2.33818,0.006657982,0.81754
518.107,56.79988,-2.33893,0.004792567,0.81697
518.807,56.8688,-2.33893,0.00481714,0.8164
519.507,56.9372,-2.34025,0.005245948,0.81584
520.207,57.0056,-2.34157,0.007320549,0.81527
520.907,57.07385,-2.34157,0.003307862,0.8147
521.607,57.1433,-2.34156,0.007043214,0.81413
522.307,57.2132,-2.34253,0.00383526,0.81356
523.007,57.28442,-2.34272,0.00649648,0.81298
523.707,57.35371,-2.34388,0.01215836,0.81241
524.407,57.4214,-2.34387,0.01734219,0.81184
525.107,57.49069,-2.34472,0.01978575,0.81127
525.807,57.56269,-2.34409,0.02548121,0.81069
526.507,57.6365,-2.34518,0.03117436,0.81012
527.207,57.70737,-2.34519,0.03551049,0.80955
527.907,57.77701,-2.34585,0.03782756,0.80897
528.607,57.84554,-2.34779,0.03907602,0.80839
529.307,57.913,-2.34924,0.04049173,0.80782
530.007,57.9811,-2.34966,0.03903683,0.80724
530.707,58.0493,-2.34947,0.04043498,0.80667
531.407,58.11866,-2.34914,0.04097197,0.80609
532.107,58.18719,-2.34914,0.04292504,0.80551
532.807,58.2575,-2.35045,0.04116601,0.80493
533.507,58.3289,-2.35046,0.04407308,0.80435
534.207,58.40008,-2.35046,0.04610388,0.80377
534.907,58.4693,-2.35046,0.04480189,0.8032
535.607,58.53816,-2.35042,0.04188471,0.80261
536.307,58.60767,-2.35112,0.04171364,0.80203
537.007,58.67807,-2.35177,0.04116706,0.80145
537.707,58.7485,-2.35177,0.03927574,0.80087
538.407,58.81901,-2.35309,0.04192473,0.80029
539.107,58.8896,-2.35309,0.0383527,0.79971
539.807,58.95978,-2.3531,0.03422989,0.79912
540.507,59.0296,-2.35178,0.0309932,0.79854
541.207,59.0993,-2.35178,0.03146944,0.79796
541.907,59.16803,-2.3541,0.02840061,0.79737
542.607,59.23653,-2.35408,0.02851194,0.79679
543.307,59.30536,-2.35408,0.02619999,0.7962
544.007,59.3741,-2.35407,0.02734245,0.79562
544.707,59.4443,-2.3554,0.02605531,0.79503
545.407,59.51385,-2.3554,0.02716261,0.79444
546.107,59.58427,-2.35405,0.02466775,0.79386
546.807,59.65416,-2.35409,0.02409032,0.79327
547.507,59.7245,-2.35409,0.02308521,0.79268
548.207,59.7945,-2.35409,0.01932141,0.79209
548.907,59.8636,-2.3554,0.01995544,0.7915
549.607,59.9322,-2.35428,0.01634071,0.79091
550.307,60.00088,-2.3554,0.01313583,0.79032
551.007,60.07051,-2.3554,0.01434174,0.78973
551.707,60.1409,-2.3554,0.01374641,0.78914
552.407,60.2119,-2.3554,0.01158416,0.78855
553.107,60.28201,-2.3554,0.01120776,0.78796
553.807,60.352,-2.35544,0.009899869,0.78737
554.507,60.42179,-2.35541,0.00980976,0.78677
555.207,60.4909,-2.35672,0.00652123,0.78618
555.907,60.55961,-2.35804,0.005500761,0.78559
556.607,60.62854,-2.35672,0.002644047,0.78499
557.307,60.69854,-2.35671,0.0009833863,0.7844
558.007,60.76936,-2.35738,-0.00456083,0.7838
558.707,60.83987,-2.35738,-0.0069576,0.78321
559.407,60.9101,-2.35738,-0.00707568,0.78261
560.107,60.97973,-2.35804,-0.0121897,0.78201
560.807,61.0494,-2.35803,-0.01293163,0.78142
561.507,61.11914,-2.35804,-0.01464436,0.78082
562.207,61.18883,-2.35804,-0.0185053,0.78022
562.907,61.25869,-2.35935,-0.01920435,0.77962
563.607,61.32858,-2.35935,-0.01908639,0.77903
564.307,61.3984,-2.35935,-0.02138257,0.77843
565.007,61.4682,-2.35935,-0.02595062,0.77783
565.707,61.53771,-2.35935,-0.02355942,0.77723
566.407,61.6074,-2.35862,-0.02636727,0.77663
567.107,61.677,-2.36001,-0.02305886,0.77603
567.807,61.74711,-2.36001,-0.02392177,0.77543
568.507,61.81736,-2.35919,-0.02790574,0.77482
569.207,61.88771,-2.35869,-0.02912502,0.77422
569.907,61.958,-2.35869,-0.02879755,0.77362
570.607,62.02756,-2.36002,-0.03091949,0.77302
571.307,62.0974,-2.35838,-0.03305769,0.77241
572.007,62.16685,-2.35883,-0.03529181,0.77181
572.707,62.23689,-2.35968,-0.03955575,0.7712
573.407,62.30639,-2.35968,-0.04074085,0.7706
574.107,62.37605,-2.36097,-0.03885758,0.76999
574.807,62.44534,-2.36239,-0.03997046,0.76939
575.507,62.5149,-2.36186,-0.04173791,0.76878
576.207,62.58509,-2.36231,-0.04360332,0.76818
576.907,62.6555,-2.36131,-0.04364282,0.76757
577.607,62.7258,-2.361,-0.04519793,0.76696
578.307,62.7954,-2.361,-0.05011008,0.76636
579.007,62.86541,-2.36238,-0.04629809,0.76575
579.707,62.9359,-2.36231,-0.04874928,0.76514
580.407,63.0067,-2.36231,-0.04762018,0.76453
581.107,63.0766,-2.36247,-0.04986942,0.76392
581.807,63.1464,-2.36363,-0.05426348,0.76331
582.507,63.2156,-2.36363,-0.05872474,0.7627
583.207,63.2853,-2.36363,-0.05812802,0.76209
583.907,63.35533,-2.36363,-0.06020934,0.76148
584.607,63.4255,-2.36363,-0.06042495,0.76087
585.307,63.4958,-2.36363,-0.06145625,0.76026
586.007,63.5657,-2.36327,-0.06474037,0.75964
586.707,63.6357,-2.36234,-0.06352834,0.75903
587.407,63.7054,-2.36364,-0.06433101,0.75842
588.107,63.7754,-2.36364,-0.06507513,0.7578
588.807,63.8452,-2.36364,-0.06600294,0.75719
589.507,63.9152,-2.36364,-0.06839352,0.75658
590.207,63.98511,-2.36364,-0.06140482,0.75596
590.907,64.0557,-2.36364,-0.06202131,0.75535
591.607,64.12674,-2.36364,-0.06329357,0.75473
592.307,64.19765,-2.36361,-0.05556488,0.75412
593.007,64.268,-2.36497,-0.05583061,0.7535
593.707,64.33805,-2.36232,-0.05494167,0.75288
594.407,64.40804,-2.36363,-0.05573702,0.75227
595.107,64.47799,-2.36364,-0.05702471,0.75165
595.807,64.5479,-2.36495,-0.05528692,0.75103
596.507,64.61699,-2.36468,-0.05918881,0.75041
597.207,64.68597,-2.36462,-0.06561478,0.74979
597.907,64.755,-2.36462,-0.06664862,0.74917
598.607,64.8249,-2.36463,-0.06791646,0.74855
599.307,64.89503,-2.3633,-0.06623198,0.74794
600.007,64.96511,-2.36495,-0.07017625,0.74732
600.707,65.03531,-2.36495,-0.07130484,0.74669
601.407,65.10552,-2.36495,-0.06952623,0.74607
602.107,65.17578,-2.36495,-0.0692312,0.74545
602.807,65.24595,-2.36495,-0.06827668,0.74483
603.507,65.31621,-2.36495,-0.068005,0.74421
604.207,65.38639,-2.36627,-0.07199238,0.74359
604.907,65.4563,-2.36627,-0.07065838,0.74296
605.607,65.52643,-2.36627,-0.0720195,0.74234
606.307,65.59658,-2.36497,-0.07104669,0.74172
607.007,65.667,-2.36641,-0.06884211,0.74109
607.707,65.73702,-2.36726,-0.06864946,0.74047
608.407,65.80713,-2.36595,-0.06882165,0.73984
609.107,65.8771,-2.36594,-0.07071111,0.73922
609.807,65.94731,-2.36594,-0.07015937,0.73859
610.507,66.0171,-2.36643,-0.06980442,0.73797
611.207,66.0872,-2.36726,-0.06784301,0.73734
611.907,66.1572,-2.36726,-0.07132882,0.73671
612.607,66.22753,-2.36705,-0.06709744,0.73609
613.307,66.29757,-2.36659,-0.06693124,0.73546
614.007,66.3675,-2.3666,-0.0672466,0.73483
614.707,66.43729,-2.3666,-0.06673003,0.7342
615.407,66.50705,-2.3666,-0.06630677,0.73357
616.107,66.577,-2.3666,-0.06795406,0.73295
616.807,66.6472,-2.3666,-0.06269249,0.73232
617.507,66.7174,-2.36658,-0.06583662,0.73169
618.207,66.78744,-2.36659,-0.06519923,0.73106
618.907,66.85735,-2.36778,-0.06577333,0.73043
619.607,66.9274,-2.36791,-0.06687995,0.7298
620.307,66.99735,-2.36791,-0.06899354,0.72917
621.007,67.06745,-2.36791,-0.0645332,0.72853
621.707,67.13749,-2.36791,-0.06702099,0.7279
622.407,67.2077,-2.36793,-0.06599859,0.72727
623.107,67.27753,-2.36923,-0.06582462,0.72664
623.807,67.3476,-2.36923,-0.06577153,0.72601
624.507,67.41757,-2.3679,-0.06499406,0.72537
625.207,67.4881,-2.36923,-0.066417,0.72474
625.907,67.5584,-2.36858,-0.06426191,0.72411
626.607,67.62891,-2.36858,-0.06168178,0.72347
627.307,67.69919,-2.36858,-0.06431145,0.72284
628.007,67.76954,-2.36858,-0.06176168,0.7222
628.707,67.83976,-2.36858,-0.06209201,0.72157
629.407,67.91,-2.3699,-0.05980575,0.72093
630.107,67.9803,-2.36858,-0.06348899,0.7203
630.807,68.0505,-2.36913,-0.06089821,0.71966
631.507,68.12051,-2.36859,-0.05837912,0.71902
632.207,68.19065,-2.37055,-0.06111868,0.71839
632.907,68.26053,-2.37055,-0.06021229,0.71775
633.607,68.33065,-2.36953,-0.06102445,0.71711
634.307,68.4007,-2.36957,-0.0587671,0.71647
635.007,68.47108,-2.36957,-0.05848122,0.71584
635.707,68.54125,-2.36957,-0.05667189,0.7152
636.407,68.61152,-2.36986,-0.05767768,0.71456
637.107,68.68167,-2.36989,-0.05713149,0.71392
637.807,68.7521,-2.36989,-0.05384061,0.71328
638.507,68.82244,-2.36989,-0.05250751,0.71264
639.207,68.89283,-2.36989,-0.05270951,0.712
639.907,68.96304,-2.3699,-0.05135515,0.71136
640.607,69.03354,-2.37121,-0.05031638,0.71072
641.307,69.10395,-2.37088,-0.05067432,0.71008
642.007,69.17465,-2.37088,-0.04843393,0.70944
642.707,69.24503,-2.37088,-0.05084756,0.70879
643.407,69.31546,-2.37056,-0.04903612,0.70815
644.107,69.38545,-2.37054,-0.05060902,0.70751
644.807,69.4558,-2.37067,-0.04941267,0.70687
645.507,69.52614,-2.37187,-0.04977424,0.70622
646.207,69.5967,-2.37213,-0.04892985,0.70558
646.907,69.66705,-2.37285,-0.04642592,0.70494
647.607,69.73761,-2.37253,-0.04649653,0.70429
648.307,69.80815,-2.37226,-0.04811668,0.70365
649.007,69.8787,-2.37154,-0.04796325,0.703
649.707,69.94921,-2.37286,-0.04563245,0.70236
650.407,70.01971,-2.37221,-0.04622064,0.70171
651.107,70.09029,-2.3722,-0.04276093,0.70107
651.807,70.16076,-2.37221,-0.04746339,0.70042
652.507,70.2312,-2.37336,-0.04301933,0.69978
653.207,70.30166,-2.37219,-0.04342701,0.69913
653.907,70.37205,-2.37351,-0.0419697,0.69848
654.607,70.44239,-2.37351,-0.04221117,0.69784
655.307,70.51264,-2.37254,-0.04322557,0.69719
656.007,70.58291,-2.37153,-0.04430044,0.69654
656.707,70.6534,-2.37286,-0.04028044,0.6959
657.407,70.72373,-2.37253,-0.04090324,0.69525
658.107,70.79379,-2.37252,-0.03850478,0.6946
658.807,70.86405,-2.3725,-0.03883458,0.69395
659.507,70.9344,-2.37351,-0.04011376,0.6933
660.207,71.00511,-2.37351,-0.03825072,0.69265
660.907,71.07551,-2.37351,-0.03605335,0.692
661.607,71.14586,-2.37351,-0.03483442,0.69135
662.307,71.21631,-2.37386,-0.0362366,0.6907
663.007,71.28692,-2.37384,-0.03575171,0.69005
663.707,71.35755,-2.37515,-0.0333206,0.6894
664.407,71.42749,-2.37516,-0.03585242,0.68875
665.107,71.49723,-2.37385,-0.0350501,0.6881
665.807,71.56732,-2.37385,-0.03627771,0.68745
666.507,71.63811,-2.37384,-0.03575413,0.6868
667.207,71.7089,-2.37286,-0.03661543,0.68614
667.907,71.77936,-2.37286,-0.03445662,0.68549
668.607,71.84948,-2.37286,-0.03308293,0.68484
669.307,71.91976,-2.37286,-0.03132648,0.68419
670.007,71.99005,-2.37352,-0.03285691,0.68353
670.707,72.06065,-2.37352,-0.03029755,0.68288
671.407,72.13113,-2.37418,-0.03285291,0.68223
672.107,72.20173,-2.37331,-0.03277659,0.68157
672.807,72.2723,-2.37351,-0.02945096,0.68092
673.507,72.3425,-2.37351,-0.02919165,0.68026
674.207,72.4129,-2.37351,-0.03046136,0.67961
674.907,72.4834,-2.37351,-0.02860435,0.67895
675.607,72.55402,-2.37351,-0.02490033,0.6783
676.307,72.62442,-2.37351,-0.0265661,0.67764
677.007,72.6948,-2.3722,-0.02707301,0.67699
677.707,72.7654,-2.37352,-0.02812215,0.67633
678.407,72.8361,-2.37351,-0.02645908,0.67568
679.107,72.90677,-2.37485,-0.02752933,0.67502
679.807,72.97745,-2.37483,-0.02858664,0.67436
680.507,73.048,-2.37359,-0.02843251,0.67371
681.207,73.1185,-2.37483,-0.0261977,0.67305
681.907,73.18904,-2.37351,-0.02372364,0.67239
682.607,73.25961,-2.3745,-0.02563452,0.67173
683.307,73.33035,-2.37582,-0.02429127,0.67108
684.007,73.40106,-2.37581,-0.02725233,0.67042
684.707,73.4716,-2.37319,-0.02301221,0.66976
685.407,73.54199,-2.37516,-0.02376457,0.6691
686.107,73.61267,-2.37582,-0.02222818,0.66844
686.807,73.68355,-2.37582,-0.02186563,0.66778
687.507,73.75443,-2.37492,-0.01963396,0.66712
688.207,73.825,-2.37483,-0.02322749,0.66646
688.907,73.89541,-2.37485,-0.02094391,0.6658
689.607,73.96581,-2.37549,-0.02058574,0.66514
690.307,74.0365,-2.37571,-0.02042983,0.66448
691.007,74.10715,-2.37615,-0.02033954,0.66382
691.707,74.17769,-2.37615,-0.02085662,0.66316
692.407,74.24809,-2.37713,-0.01864887,0.6625
693.107,74.3185,-2.37713,-0.01668101,0.66184
693.807,74.38894,-2.37681,-0.01897479,0.66118
694.507,74.45931,-2.37484,-0.01760517,0.66052
695.207,74.5298,-2.37615,-0.01844137,0.65986
695.907,74.60032,-2.37582,-0.01767657,0.65919
696.607,74.6707,-2.37625,-0.01658877,0.65853
697.307,74.74121,-2.37681,-0.01456267,0.65787
698.007,74.81197,-2.37681,-0.01142277,0.65721
698.707,74.8826,-2.37812,-0.01420103,0.65654
699.407,74.95331,-2.37676,-0.009752425,0.65588
700.107,75.0238,-2.37681,-0.01167402,0.65522
700.807,75.09434,-2.37681,-0.009537164,0.65455
701.507,75.16464,-2.37681,-0.01030183,0.65389
702.207,75.23519,-2.37714,-0.00633228,0.65323
702.907,75.30596,-2.37604,-0.007395791,0.65256
703.607,75.37661,-2.37714,-0.00748138,0.6519
704.307,75.44717,-2.37714,-0.007170826,0.65123
705.007,75.51775,-2.37714,-0.006562416,0.65057
705.707,75.58846,-2.37714,-0.004681195,0.6499
706.407,75.65899,-2.37714,-0.004340941,0.64924
707.107,75.72959,-2.37714,-0.00403168,0.64857
707.807,75.80028,-2.37813,-0.00552677,0.64791
708.507,75.8711,-2.37813,-0.000161656,0.64724
709.207,75.94167,-2.37857,-0.00122598,0.64658
709.907,76.01222,-2.37982,0.001245057,0.64591
710.607,76.0828,-2.3831,0.002685332,0.64524
711.307,76.1534,-2.38566,0.00339605,0.64458
712.007,76.2241,-2.38738,0.002448274,0.64391
712.707,76.29437,-2.38737,0.11754,0.64324
713.407,76.3651,-2.38694,0.13534,0.64258
714.107,76.43573,-2.38743,0.13854,0.64191
714.807,76.5064,-2.3873,0.13931,0.64124
715.507,76.57682,-2.38669,0.14259,0.64057
716.207,76.6471,-2.38669,0.14073,0.63991
716.907,76.71752,-2.38535,0.14274,0.63924
717.607,76.78791,-2.38404,0.14289,0.63857
718.307,76.85851,-2.38405,0.14469,0.6379
719.007,76.92912,-2.38373,0.14297,0.63723
719.707,76.9996,-2.38373,0.14428,0.63657
720.407,77.06999,-2.38373,0.14248,0.6359
721.107,77.14014,-2.38373,0.14234,0.63523
721.807,77.2106,-2.38373,0.14347,0.63456
722.507,77.28134,-2.38179,0.14425,0.63389
723.207,77.35251,-2.38175,0.14408,0.63322
723.907,77.42326,-2.38175,0.14179,0.63255
724.607,77.4937,-2.38175,0.14211,0.63188
725.307,77.56403,-2.38175,0.14191,0.63121
726.007,77.6347,-2.38175,0.14206,0.63054
726.707,77.70565,-2.38175,0.14085,0.62987
727.407,77.7764,-2.38142,0.13994,0.6292
728.107,77.84701,-2.38142,0.14286,0.62853
728.807,77.9175,-2.38141,0.13989,0.62786
729.507,77.98814,-2.38076,0.14118,0.62719
730.207,78.05874,-2.3801,0.14095,0.62652
730.907,78.12958,-2.37912,0.14071,0.62585
731.607,78.20028,-2.37987,0.14099,0.62518
732.307,78.27116,-2.38043,0.13727,0.6245
733.007,78.3419,-2.38043,0.13546,0.62383
733.707,78.41248,-2.38043,0.13623,0.62316
734.407,78.4832,-2.38043,0.13373,0.62249
735.107,78.55395,-2.38139,0.13238,0.62182
735.807,78.62509,-2.38142,0.13465,0.62115
736.507,78.69598,-2.38129,0.13528,0.62047
737.207,78.76686,-2.38028,0.13339,0.6198
737.907,78.8375,-2.38142,0.1346,0.61913
738.607,78.9085,-2.38011,0.13452,0.61846
739.307,78.97919,-2.38011,0.13685,0.61778
740.007,79.05024,-2.38011,0.13373,0.61711
740.707,79.12092,-2.38046,0.13406,0.61644
741.407,79.1917,-2.38043,0.13616,0.61576
742.107,79.26233,-2.38043,0.13369,0.61509
742.807,79.3333,-2.38176,0.13652,0.61442
743.507,79.40423,-2.38069,0.13378,0.61374
744.207,79.47527,-2.38043,0.13506,0.61307
744.907,79.54629,-2.38043,0.13196,0.6124
745.607,79.61716,-2.38043,0.13233,0.61172
746.307,79.68813,-2.38043,0.13094,0.61105
747.007,79.75895,-2.38043,0.13081,0.61038
747.707,79.82983,-2.38043,0.13155,0.6097
748.407,79.90052,-2.38044,0.12886,0.60903
749.107,79.97115,-2.37912,0.12897,0.60835
749.307,79.9915,-2.38053,0.12961,0.60816