File: 01_Data/Bamboo_Rug_Fabric/STA/N2/30K_min/Bamboo_Rug_B_STA_N2_30KData_220125_R1.csv
##Temp./Â°C,Time/min,Mass loss(subtr.2)/mg,DSC(subtr.2)/(mW/mg),Sensit./(uV/mW)
48.33,10.00667,0.00296,0.01144079,1.06965
49.03,10.55621,0.002601202,0.05531054,1.06959
49.73,10.68088,0.001905073,0.09390069,1.06953
50.43,10.77068,0.002293631,0.12524,1.06946
51.13,10.84326,0.00316153,0.15621,1.0694
51.83,10.90638,0.003792844,0.18184,1.06933
52.53,10.96306,0.004323808,0.20588,1.06926
53.23,11.01481,0.004605162,0.2308,1.06919
53.93,11.06316,0.002966812,0.25231,1.06912
54.63,11.10845,0.003100828,0.2732,1.06905
55.33,11.15143,0.002697345,0.29485,1.06898
56.03,11.1919,0.00234685,0.31476,1.0689
56.73,11.23081,0.002217874,0.33283,1.06883
57.43,11.26838,0.00279356,0.3477,1.06875
58.13,11.30493,0.003669748,0.36623,1.06867
58.83,11.34039,0.004035297,0.38178,1.06859
59.53,11.37454,0.004784162,0.39616,1.06851
60.23,11.40789,0.004448056,0.41174,1.06843
60.93,11.44099,0.005103183,0.42572,1.06834
61.63,11.47293,0.005214815,0.43894,1.06826
62.33,11.50419,0.00494058,0.45215,1.06817
63.03,11.5349,0.005325693,0.46638,1.06808
63.73,11.5654,0.005169153,0.47907,1.06799
64.43,11.5953,0.005180967,0.49173,1.0679
65.13,11.6249,0.004504905,0.50326,1.06781
65.83,11.65425,0.00322617,0.51248,1.06772
66.53,11.68321,0.003708702,0.52243,1.06762
67.23,11.7118,0.004338011,0.53745,1.06753
67.93,11.74001,0.00361923,0.54744,1.06743
68.63,11.76795,0.002463742,0.55693,1.06733
69.33,11.7956,0.002254964,0.5653,1.06723
70.03,11.82307,0.001893879,0.57413,1.06713
70.73,11.8504,0.00153339,0.58223,1.06702
71.43,11.87753,0.001559193,0.58758,1.06692
72.13,11.90431,0.001410064,0.59405,1.06682
72.83,11.93099,0.00127045,0.60045,1.06671
73.53,11.95753,0.001256585,0.60772,1.0666
74.23,11.9839,0.00120177,0.6112,1.06649
74.93,12.01013,0.00226107,0.61696,1.06638
75.63,12.03618,0.00255507,0.61931,1.06627
76.33,12.06212,0.0036698,0.62339,1.06615
77.03,12.08794,0.004431867,0.62762,1.06604
77.73,12.11373,0.004299513,0.62974,1.06592
78.43,12.1394,0.003665472,0.63608,1.0658
79.13,12.16488,0.002441685,0.63962,1.06569
79.83,12.19021,0.00296797,0.64324,1.06556
80.53,12.21543,0.00398101,0.64669,1.06544
81.23,12.24061,0.002863255,0.65268,1.06532
81.93,12.2657,0.00256479,0.65791,1.0652
82.63,12.29084,0.002613616,0.66216,1.06507
83.33,12.31577,0.002816697,0.666,1.06494
84.03,12.3408,0.00313756,0.67012,1.06482
84.73,12.36557,0.002729301,0.67509,1.06469
85.43,12.3903,0.0013972,0.67887,1.06456
86.13,12.4149,0.002688481,0.6817,1.06442
86.83,12.43941,0.001422171,0.68864,1.06429
87.53,12.4639,0.001468546,0.69198,1.06415
88.23,12.48842,0.001000426,0.69581,1.06402
88.93,12.51275,0.00142441,0.70046,1.06388
89.63,12.5371,6.23899e-05,0.70515,1.06374
90.33,12.56126,0.0009334995,0.70696,1.0636
91.03,12.58548,0.0001349171,0.71258,1.06346
91.73,12.60962,0.00113812,0.71655,1.06332
92.43,12.63372,-1.23931e-05,0.72,1.06318
93.13,12.6578,0.000483302,0.72326,1.06303
93.83,12.68183,-1.039391e-06,0.72761,1.06288
94.53,12.70589,-2.88801e-05,0.73221,1.06274
95.23,12.72996,0.001306583,0.73527,1.06259
95.93,12.754,0.001314055,0.73785,1.06244
96.63,12.77789,0.00139928,0.74394,1.06228
97.33,12.8016,0.001318102,0.74564,1.06213
98.03,12.82532,-0.0001727801,0.74934,1.06198
98.73,12.84903,-0.001175034,0.75449,1.06182
99.43,12.8727,-0.0004401828,0.75823,1.06167
100.13,12.89654,-0.001635317,0.76037,1.06151
100.83,12.92025,-0.00174873,0.76388,1.06135
101.53,12.94404,-0.002994112,0.76881,1.06119
102.23,12.96763,-0.00306976,0.77187,1.06103
102.93,12.99129,-0.003069935,0.77427,1.06086
103.63,13.0148,-0.003063877,0.77782,1.0607
104.33,13.03845,-0.001852137,0.78068,1.06053
105.03,13.06215,-0.0026855,0.78381,1.06037
105.73,13.08602,-0.003080652,0.78476,1.0602
106.43,13.1097,-0.00308002,0.78802,1.06003
107.13,13.1334,-0.00308,0.79058,1.05986
107.83,13.1569,-0.00308,0.79228,1.05968
108.53,13.1805,-0.00308,0.7974,1.05951
109.23,13.20401,-0.003079928,0.79755,1.05934
109.93,13.22756,-0.00307654,0.80156,1.05916
110.63,13.25106,-0.001918625,0.80379,1.05898
111.33,13.27457,-0.001759414,0.80444,1.05881
112.03,13.2978,-0.002148134,0.80847,1.05863
112.73,13.32125,-0.00308323,0.8095,1.05844
113.43,13.34469,-0.003028903,0.81266,1.05826
114.13,13.3685,-0.004376593,0.81426,1.05808
114.83,13.39189,-0.004390115,0.81488,1.05789
115.53,13.4153,-0.004389842,0.81665,1.05771
116.23,13.4386,-0.004401551,0.81776,1.05752
116.93,13.462,-0.005760279,0.82064,1.05733
117.63,13.48543,-0.00575031,0.82311,1.05714
118.33,13.50879,-0.004550106,0.82142,1.05695
119.03,13.5321,-0.005695031,0.82426,1.05676
119.73,13.5554,-0.005699914,0.82381,1.05657
120.43,13.5787,-0.005701115,0.82632,1.05637
121.13,13.602,-0.00517963,0.82673,1.05618
121.83,13.62522,-0.004379087,0.82754,1.05598
122.53,13.64838,-0.005251967,0.82952,1.05578
123.23,13.67154,-0.005702006,0.82975,1.05558
123.93,13.6947,-0.005700017,0.82989,1.05538
124.63,13.71791,-0.005699929,0.83011,1.05518
125.33,13.7411,-0.005695614,0.83249,1.05498
126.03,13.7642,-0.004564432,0.83389,1.05477
126.73,13.78725,-0.00438747,0.83412,1.05457
127.43,13.8102,-0.005612417,0.83716,1.05436
128.13,13.8332,-0.005710046,0.83586,1.05415
128.83,13.85614,-0.00571001,0.8372,1.05394
129.53,13.8791,-0.00570996,0.84149,1.05373
130.23,13.90209,-0.00570122,0.84184,1.05352
130.93,13.92499,-0.004497379,0.84266,1.05331
131.63,13.9479,-0.004390794,0.8447,1.05309
132.33,13.9708,-0.00438632,0.84507,1.05288
133.03,13.99371,-0.005086218,0.84703,1.05266
133.73,14.0163,-0.00568108,0.84843,1.05244
134.43,14.039,-0.006367293,0.85003,1.05222
135.13,14.0617,-0.00636012,0.85124,1.052
135.83,14.0845,-0.00636,0.85364,1.05178
136.53,14.10724,-0.006359959,0.85686,1.05156
137.23,14.1299,-0.00637288,0.85719,1.05134
137.93,14.15255,-0.00763756,0.86082,1.05111
138.63,14.1752,-0.007676243,0.86168,1.05088
139.33,14.19775,-0.00690667,0.86297,1.05066
140.03,14.2203,-0.00635965,0.86466,1.05043
140.73,14.24283,-0.00636003,0.86891,1.0502
141.43,14.2653,-0.00636,0.86795,1.04997
142.13,14.28766,-0.00636,0.87169,1.04974
142.83,14.31,-0.006359993,0.87444,1.0495
143.53,14.33235,-0.00636025,0.87704,1.04927
144.23,14.35486,-0.006396316,0.87846,1.04903
144.93,14.3773,-0.007684385,0.88215,1.0488
145.63,14.3998,-0.00766998,0.88182,1.04856
146.33,14.4223,-0.007669994,0.88633,1.04832
147.03,14.44455,-0.00767036,0.88892,1.04808
147.73,14.4668,-0.00767296,0.89019,1.04784
148.43,14.4892,-0.009009336,0.89506,1.04759
149.13,14.5115,-0.00899459,0.89574,1.04735
149.83,14.53372,-0.01001171,0.89828,1.0471
150.53,14.55597,-0.01030131,0.90275,1.04686
151.23,14.5782,-0.01029998,0.90315,1.04661
151.93,14.60045,-0.01029996,0.90469,1.04636
152.63,14.6227,-0.01031433,0.90814,1.04611
153.33,14.64485,-0.00903533,0.91014,1.04586
154.03,14.667,-0.008990527,0.91238,1.04561
154.73,14.68909,-0.0095544,0.91726,1.04536
155.43,14.71125,-0.01030682,0.92066,1.0451
156.13,14.73342,-0.01031,0.92401,1.04485
156.83,14.75545,-0.01031,0.9263,1.04459
157.53,14.7773,-0.01031027,0.92696,1.04433
158.23,14.7991,-0.01030098,0.92943,1.04407
158.93,14.82112,-0.008953161,0.93171,1.04381
159.63,14.84348,-0.008990883,0.93149,1.04355
160.33,14.86597,-0.008989996,0.93645,1.04329
161.03,14.88822,-0.00899,0.94051,1.04303
161.73,14.91041,-0.00899,0.94205,1.04276
162.43,14.93247,-0.00899,0.94552,1.0425
163.13,14.95447,-0.00899,0.95012,1.04223
163.83,14.9764,-0.00899,0.95117,1.04196
164.53,14.9981,-0.00899,0.95354,1.04169
165.23,15.02,-0.00899,0.9577,1.04142
165.93,15.0418,-0.008990195,0.96331,1.04115
166.63,15.06376,-0.008971784,0.96515,1.04088
167.33,15.08554,-0.01028525,0.96695,1.0406
168.03,15.10757,-0.01030978,0.97146,1.04033
168.73,15.12972,-0.01031001,0.9751,1.04005
169.43,15.15192,-0.01031,0.97847,1.03978
170.13,15.17405,-0.01031,0.98083,1.0395
170.83,15.19597,-0.01030992,0.98492,1.03922
171.53,15.21791,-0.01031501,0.98971,1.03894
172.23,15.23984,-0.01128643,0.99026,1.03866
172.93,15.26175,-0.01162164,0.99482,1.03837
173.63,15.2836,-0.01284737,0.99796,1.03809
174.33,15.3053,-0.01294052,1.00156,1.03781
175.03,15.32705,-0.01294,1.00291,1.03752
175.73,15.3489,-0.01294,1.00927,1.03723
176.43,15.37069,-0.01293999,1.01069,1.03695
177.13,15.3925,-0.01294018,1.01264,1.03666
177.83,15.4143,-0.01295832,1.01797,1.03637
178.53,15.4361,-0.01390377,1.01923,1.03607
179.23,15.45775,-0.0139202,1.02277,1.03578
179.93,15.47945,-0.01392015,1.0277,1.03549
180.63,15.5012,-0.01394676,1.02846,1.03519
181.33,15.52294,-0.01525841,1.0323,1.0349
182.03,15.54455,-0.01523977,1.0341,1.0346
182.73,15.5663,-0.01524,1.03577,1.0343
183.43,15.58789,-0.01524,1.04104,1.03401
184.13,15.60961,-0.01524,1.04301,1.03371
184.83,15.63129,-0.01524,1.04522,1.0334
185.53,15.65285,-0.01524,1.04968,1.0331
186.23,15.67445,-0.01523999,1.05149,1.0328
186.93,15.696,-0.01524079,1.05555,1.03249
187.63,15.71754,-0.01518757,1.05844,1.03219
188.33,15.73908,-0.01657341,1.06097,1.03188
189.03,15.7607,-0.01656014,1.06611,1.03158
189.73,15.7822,-0.01655999,1.06599,1.03127
190.43,15.8038,-0.01656,1.0689,1.03096
191.13,15.82531,-0.01656,1.0725,1.03065
191.83,15.84676,-0.01656,1.07491,1.03033
192.53,15.86824,-0.01656448,1.07644,1.03002
193.23,15.8897,-0.01692454,1.07919,1.02971
193.93,15.91124,-0.0168896,1.08284,1.02939
194.63,15.9327,-0.01688909,1.08568,1.02908
195.33,15.9541,-0.01726639,1.08813,1.02876
196.03,15.97553,-0.01755207,1.09287,1.02844
196.73,15.997,-0.01753388,1.09259,1.02812
197.43,16.01834,-0.01857054,1.09507,1.0278
198.13,16.0397,-0.01853992,1.10052,1.02748
198.83,16.06118,-0.01854,1.10207,1.02716
199.53,16.08261,-0.01854,1.10157,1.02684
200.23,16.10405,-0.01854,1.10616,1.02651
200.93,16.1254,-0.01854,1.1092,1.02619
201.63,16.14677,-0.01854,1.11165,1.02586
202.33,16.16814,-0.01854,1.11357,1.02553
203.03,16.1895,-0.01854,1.11619,1.02521
203.73,16.21092,-0.01853997,1.12003,1.02488
204.43,16.2323,-0.0185409,1.12183,1.02455
205.13,16.25375,-0.01856864,1.12418,1.02421
205.83,16.27511,-0.01922784,1.12974,1.02388
206.53,16.2965,-0.02086426,1.1321,1.02355
207.23,16.3179,-0.02078906,1.13364,1.02321
207.93,16.33919,-0.02217151,1.13755,1.02288
208.63,16.36059,-0.02216012,1.1397,1.02254
209.33,16.38191,-0.02215999,1.14184,1.02221
210.03,16.4032,-0.02216,1.14308,1.02187
210.73,16.42458,-0.02216,1.14796,1.02153
211.43,16.4459,-0.02215999,1.15011,1.02119
212.13,16.46724,-0.02215976,1.15215,1.02085
212.83,16.48851,-0.02221231,1.15416,1.0205
213.53,16.50982,-0.02385302,1.16009,1.02016
214.23,16.53111,-0.0237983,1.1627,1.01982
214.93,16.55242,-0.02383277,1.16323,1.01947
215.63,16.57374,-0.02248507,1.16828,1.01912
216.33,16.59507,-0.02297393,1.17095,1.01878
217.03,16.61637,-0.02379486,1.17448,1.01843
217.73,16.6377,-0.02381387,1.17686,1.01808
218.43,16.659,-0.02506263,1.18224,1.01773
219.13,16.6802,-0.02512059,1.18223,1.01738
219.83,16.70156,-0.02599396,1.18723,1.01702
220.53,16.72287,-0.02652845,1.19245,1.01667
221.23,16.74416,-0.02778924,1.19443,1.01632
221.93,16.76543,-0.0278644,1.19747,1.01596
222.63,16.78667,-0.02885024,1.20138,1.01561
223.33,16.8079,-0.02908413,1.20428,1.01525
224.03,16.82917,-0.0295082,1.20963,1.01489
224.73,16.85042,-0.02994007,1.21511,1.01453
225.43,16.8717,-0.03040515,1.21825,1.01417
226.13,16.89293,-0.03266334,1.22263,1.01381
226.83,16.9142,-0.03268944,1.22561,1.01345
227.53,16.93545,-0.03265953,1.23184,1.01309
228.23,16.95661,-0.03470278,1.23593,1.01272
228.93,16.97774,-0.03530236,1.24249,1.01236
229.63,16.99886,-0.03582829,1.2487,1.01199
230.33,17.02,-0.03662999,1.25412,1.01163
231.03,17.04137,-0.03655385,1.25975,1.01126
231.73,17.06259,-0.03630888,1.26621,1.01089
232.43,17.08376,-0.03662608,1.27565,1.01052
233.13,17.10494,-0.03810805,1.28335,1.01015
233.83,17.12613,-0.03817605,1.28895,1.00978
234.53,17.14734,-0.03951523,1.29797,1.00941
235.23,17.16858,-0.03951918,1.30867,1.00903
235.93,17.18985,-0.03811973,1.31822,1.00866
236.63,17.21106,-0.03817167,1.32952,1.00828
237.33,17.23229,-0.03813407,1.34317,1.00791
238.03,17.25349,-0.03947803,1.35436,1.00753
238.73,17.2747,-0.03901541,1.36736,1.00715
239.43,17.29588,-0.0393463,1.38368,1.00677
240.13,17.31711,-0.03949635,1.40136,1.00639
240.83,17.33824,-0.04030367,1.41844,1.00601
241.53,17.35947,-0.04091159,1.438,1.00563
242.23,17.38063,-0.04185222,1.46191,1.00525
242.93,17.4019,-0.04095755,1.48633,1.00487
243.63,17.42312,-0.04246972,1.51256,1.00448
244.33,17.4444,-0.04320709,1.54172,1.0041
245.03,17.46536,-0.04508335,1.57441,1.00371
245.73,17.48627,-0.0460311,1.60671,1.00333
246.43,17.50722,-0.04652047,1.64385,1.00294
247.13,17.5284,-0.04806719,1.6837,1.00255
247.83,17.54985,-0.04942079,1.72266,1.00216
248.53,17.57133,-0.05045147,1.76522,1.00177
249.23,17.59279,-0.05108651,1.79905,1.00138
249.93,17.614,-0.05341738,1.82692,1.00099
250.63,17.6353,-0.05337944,1.83921,1.00059
251.33,17.6565,-0.05478057,1.84569,1.0002
252.03,17.67773,-0.05468439,1.83427,0.9998
252.73,17.69894,-0.05629058,1.8165,0.99941
253.43,17.72014,-0.05693901,1.7894,0.99901
254.13,17.7413,-0.05772802,1.75004,0.99861
254.83,17.76241,-0.05951956,1.70911,0.99822
255.53,17.78354,-0.06017911,1.66778,0.99782
256.23,17.80471,-0.06172782,1.62327,0.99742
256.93,17.82592,-0.06408281,1.58303,0.99702
257.63,17.84712,-0.06561618,1.54488,0.99661
258.33,17.86828,-0.06569162,1.50776,0.99621
259.03,17.8894,-0.066906,1.47651,0.99581
259.73,17.9104,-0.06814155,1.44921,0.9954
260.43,17.9315,-0.06948317,1.42546,0.995
261.13,17.9526,-0.07094884,1.40384,0.99459
261.83,17.97365,-0.07219859,1.38509,0.99418
262.53,17.99473,-0.07379692,1.37197,0.99378
263.23,18.01586,-0.07515431,1.35751,0.99337
263.93,18.03698,-0.07620594,1.34934,0.99296
264.63,18.058,-0.07765094,1.34084,0.99255
265.33,18.07902,-0.07941502,1.3326,0.99214
266.03,18.10008,-0.08106274,1.32612,0.99173
266.73,18.12119,-0.0825993,1.32167,0.99131
267.43,18.1424,-0.08457794,1.32114,0.9909
268.13,18.16349,-0.08522592,1.31808,0.99048
268.83,18.1846,-0.08761988,1.31681,0.99007
269.53,18.20567,-0.08903326,1.31566,0.98965
270.23,18.22666,-0.09071001,1.31652,0.98924
270.93,18.24772,-0.09238545,1.31615,0.98882
271.63,18.2688,-0.09557743,1.31757,0.9884
272.33,18.28991,-0.09836379,1.31965,0.98798
273.03,18.31104,-0.10112,1.31994,0.98756
273.73,18.3322,-0.10456,1.32226,0.98714
274.43,18.35333,-0.10727,1.32298,0.98672
275.13,18.37442,-0.10925,1.32472,0.98629
275.83,18.3955,-0.11232,1.32808,0.98587
276.53,18.41664,-0.1144,1.33067,0.98545
277.23,18.43769,-0.11743,1.33519,0.98502
277.93,18.45874,-0.12057,1.33588,0.9846
278.63,18.4798,-0.12326,1.34226,0.98417
279.33,18.50098,-0.12526,1.34253,0.98374
280.03,18.5222,-0.12853,1.34696,0.98331
280.73,18.54331,-0.13131,1.35091,0.98289
281.43,18.56436,-0.13431,1.35439,0.98246
282.13,18.58544,-0.13762,1.35957,0.98202
282.83,18.60653,-0.14047,1.36223,0.98159
283.53,18.62763,-0.14491,1.36552,0.98116
284.23,18.64878,-0.14784,1.36842,0.98073
284.93,18.6699,-0.151,1.37157,0.98029
285.63,18.6911,-0.15452,1.37486,0.97986
286.33,18.7122,-0.15771,1.37558,0.97942
287.03,18.73335,-0.16113,1.37815,0.97899
287.73,18.75454,-0.16497,1.38228,0.97855
288.43,18.77572,-0.16883,1.3853,0.97811
289.13,18.7969,-0.1735,1.38856,0.97768
289.83,18.818,-0.17704,1.38949,0.97724
290.53,18.83912,-0.18222,1.39071,0.9768
291.23,18.86025,-0.18783,1.3937,0.97636
291.93,18.88147,-0.19173,1.39497,0.97592
292.63,18.90271,-0.19647,1.39622,0.97547
293.33,18.9239,-0.20188,1.40117,0.97503
294.03,18.94517,-0.20621,1.40371,0.97459
294.73,18.96625,-0.21106,1.40105,0.97414
295.43,18.98741,-0.21669,1.40469,0.9737
296.13,19.00854,-0.22328,1.40429,0.97325
296.83,19.0297,-0.23011,1.40495,0.9728
297.53,19.0509,-0.2355,1.40677,0.97236
298.23,19.0721,-0.24019,1.4054,0.97191
298.93,19.09331,-0.24612,1.40675,0.97146
299.63,19.11446,-0.25109,1.40595,0.97101
300.33,19.13556,-0.25722,1.40648,0.97056
301.03,19.15664,-0.26334,1.40538,0.97011
301.73,19.17774,-0.27005,1.4068,0.96966
302.43,19.19894,-0.27743,1.40789,0.96921
303.13,19.2201,-0.28324,1.40632,0.96875
303.83,19.24136,-0.29011,1.40861,0.9683
304.53,19.26249,-0.29655,1.40685,0.96784
305.23,19.28363,-0.30316,1.40842,0.96739
305.93,19.3048,-0.3103,1.408,0.96693
306.63,19.32594,-0.31625,1.40631,0.96648
307.33,19.3472,-0.32361,1.40791,0.96602
308.03,19.36845,-0.3299,1.4082,0.96556
308.73,19.38972,-0.33705,1.41017,0.9651
309.43,19.41074,-0.34317,1.40962,0.96464
310.13,19.43196,-0.34722,1.41097,0.96418
310.83,19.45307,-0.35399,1.41123,0.96372
311.53,19.47435,-0.35993,1.41378,0.96326
312.23,19.49566,-0.36731,1.41287,0.9628
312.93,19.51687,-0.37396,1.41596,0.96233
313.63,19.53809,-0.38037,1.41641,0.96187
314.33,19.55927,-0.38781,1.41908,0.9614
315.03,19.58043,-0.39437,1.42181,0.96094
315.73,19.60164,-0.40253,1.42357,0.96047
316.43,19.62282,-0.41069,1.42365,0.96001
317.13,19.64408,-0.41798,1.42377,0.95954
317.83,19.66541,-0.42552,1.42824,0.95907
318.53,19.68669,-0.43174,1.4296,0.9586
319.23,19.70799,-0.43963,1.43142,0.95813
319.93,19.7292,-0.44583,1.43207,0.95766
320.63,19.75039,-0.45272,1.43727,0.95719
321.33,19.77165,-0.46098,1.4409,0.95672
322.03,19.79279,-0.46893,1.44412,0.95625
322.73,19.81408,-0.47816,1.44936,0.95578
323.43,19.83531,-0.48536,1.4497,0.95531
324.13,19.8565,-0.49305,1.45642,0.95483
324.83,19.87779,-0.5013,1.45995,0.95436
325.53,19.89905,-0.50873,1.46824,0.95388
326.23,19.92035,-0.51773,1.47155,0.95341
326.93,19.94163,-0.52492,1.47848,0.95293
327.63,19.96294,-0.5337,1.48491,0.95245
328.33,19.98424,-0.54231,1.49113,0.95197
329.03,20.0055,-0.55109,1.49814,0.9515
329.73,20.02674,-0.56261,1.50556,0.95102
330.43,20.04801,-0.57067,1.51187,0.95054
331.13,20.06934,-0.5794,1.52212,0.95006
331.83,20.09072,-0.58779,1.53082,0.94958
332.53,20.1121,-0.59477,1.53976,0.94909
333.23,20.13336,-0.60416,1.55071,0.94861
333.93,20.15466,-0.61309,1.56211,0.94813
334.63,20.17577,-0.62538,1.57383,0.94765
335.33,20.19696,-0.63613,1.58747,0.94716
336.03,20.21839,-0.64501,1.60104,0.94668
336.73,20.2398,-0.6566,1.60995,0.94619
337.43,20.26144,-0.66621,1.62668,0.94571
338.13,20.28289,-0.67742,1.64209,0.94522
338.83,20.30424,-0.68848,1.65921,0.94473
339.53,20.32564,-0.7004,1.67579,0.94424
340.23,20.34701,-0.71359,1.69285,0.94376
340.93,20.36846,-0.72476,1.71268,0.94327
341.63,20.38989,-0.73726,1.73587,0.94278
342.33,20.4113,-0.74992,1.75572,0.94229
343.03,20.43269,-0.76201,1.78245,0.9418
343.73,20.45414,-0.7769,1.8026,0.94131
344.43,20.47563,-0.78915,1.82628,0.94081
345.13,20.49703,-0.80265,1.85401,0.94032
345.83,20.51849,-0.81778,1.88114,0.93983
346.53,20.53991,-0.83147,1.91053,0.93933
347.23,20.5614,-0.8487,1.93806,0.93884
347.93,20.58297,-0.86369,1.9703,0.93834
348.63,20.60435,-0.87928,2.00045,0.93785
349.33,20.6258,-0.89744,2.03648,0.93735
350.03,20.64722,-0.91353,2.07107,0.93686
350.73,20.66874,-0.93357,2.10784,0.93636
351.43,20.69008,-0.95148,2.14439,0.93586
352.13,20.71155,-0.96993,2.18098,0.93536
352.83,20.73304,-0.99247,2.21878,0.93486
353.53,20.7546,-1.01148,2.2553,0.93436
354.23,20.7763,-1.03435,2.2961,0.93386
354.93,20.79782,-1.05833,2.33394,0.93336
355.63,20.81941,-1.08153,2.36911,0.93286
356.33,20.84093,-1.10943,2.40321,0.93236
357.03,20.8625,-1.1334,2.4328,0.93186
357.73,20.8841,-1.15959,2.45874,0.93136
358.43,20.90569,-1.18825,2.479,0.93085
359.13,20.9272,-1.21328,2.49149,0.93035
359.83,20.9487,-1.24431,2.50186,0.92984
360.53,20.97029,-1.27319,2.50324,0.92934
361.23,20.9919,-1.30205,2.49549,0.92883
361.93,21.01352,-1.33646,2.46621,0.92833
362.63,21.0351,-1.36561,2.42757,0.92782
363.33,21.05667,-1.39861,2.3692,0.92731
364.03,21.07815,-1.43142,2.2914,0.9268
364.73,21.0996,-1.46056,2.20019,0.9263
365.43,21.12105,-1.49625,2.10095,0.92579
366.13,21.1425,-1.52581,1.99741,0.92528
366.83,21.16399,-1.55573,1.89113,0.92477
367.53,21.18545,-1.58718,1.78797,0.92426
368.23,21.20695,-1.61356,1.68646,0.92375
368.93,21.22842,-1.64442,1.58509,0.92323
369.63,21.2499,-1.67064,1.48882,0.92272
370.33,21.27136,-1.69705,1.3931,0.92221
371.03,21.29283,-1.72398,1.30314,0.9217
371.73,21.31427,-1.74467,1.21797,0.92118
372.43,21.3356,-1.76927,1.14815,0.92067
373.13,21.35697,-1.78918,1.07541,0.92016
373.83,21.3783,-1.80703,1.014,0.91964
374.53,21.3997,-1.82541,0.96029,0.91912
375.23,21.42117,-1.83945,0.91063,0.91861
375.93,21.4426,-1.85474,0.86854,0.91809
376.63,21.46402,-1.86919,0.83019,0.91757
377.33,21.48546,-1.88164,0.79839,0.91706
378.03,21.5069,-1.89462,0.77141,0.91654
378.73,21.52835,-1.90466,0.74651,0.91602
379.43,21.54982,-1.91618,0.7261,0.9155
380.13,21.5713,-1.92688,0.71045,0.91498
380.83,21.59274,-1.93551,0.69364,0.91446
381.53,21.61419,-1.94525,0.67949,0.91394
382.23,21.63566,-1.95305,0.66857,0.91342
382.93,21.65714,-1.96154,0.66412,0.9129
383.63,21.67865,-1.97025,0.65338,0.91238
384.33,21.70017,-1.97737,0.65127,0.91185
385.03,21.72172,-1.98531,0.64637,0.91133
385.73,21.74318,-1.99253,0.63838,0.91081
386.43,21.76472,-1.99992,0.63776,0.91028
387.13,21.78635,-2.00856,0.63669,0.90976
387.83,21.80798,-2.01511,0.63442,0.90923
388.53,21.82968,-2.02257,0.63326,0.90871
389.23,21.85124,-2.02952,0.63364,0.90818
389.93,21.87275,-2.03604,0.63051,0.90766
390.63,21.89425,-2.04493,0.63167,0.90713
391.33,21.9158,-2.05142,0.62833,0.9066
392.03,21.93737,-2.05813,0.63045,0.90608
392.73,21.959,-2.06577,0.63083,0.90555
393.43,21.98067,-2.07232,0.6331,0.90502
394.13,22.00233,-2.07986,0.63352,0.90449
394.83,22.0239,-2.08737,0.6317,0.90396
395.53,22.0456,-2.09429,0.63473,0.90343
396.23,22.06723,-2.10117,0.63318,0.9029
396.93,22.08892,-2.10593,0.63525,0.90237
397.63,22.11064,-2.11272,0.63818,0.90184
398.33,22.13231,-2.12279,0.63956,0.90131
399.03,22.154,-2.13102,0.64021,0.90078
399.73,22.17561,-2.13883,0.63939,0.90024
400.43,22.1972,-2.14566,0.6383,0.89971
401.13,22.21882,-2.15247,0.64182,0.89918
401.83,22.24053,-2.16054,0.64257,0.89864
402.53,22.26236,-2.16732,0.64232,0.89811
403.23,22.28409,-2.17432,0.64168,0.89757
403.93,22.30582,-2.18168,0.64451,0.89704
404.63,22.32754,-2.18826,0.64594,0.8965
405.33,22.34931,-2.19641,0.64605,0.89597
406.03,22.37115,-2.20416,0.64669,0.89543
406.73,22.393,-2.21125,0.64375,0.8949
407.43,22.41476,-2.22074,0.64578,0.89436
408.13,22.43647,-2.22911,0.64459,0.89382
408.83,22.45818,-2.23683,0.64689,0.89328
409.53,22.48,-2.24615,0.64684,0.89274
410.23,22.50176,-2.25429,0.64435,0.89221
410.93,22.52352,-2.26326,0.64454,0.89167
411.63,22.54531,-2.27175,0.64623,0.89113
412.33,22.5671,-2.27925,0.64536,0.89059
413.03,22.58896,-2.28847,0.6431,0.89005
413.73,22.61083,-2.29699,0.64637,0.88951
414.43,22.63265,-2.30469,0.64408,0.88897
415.13,22.65452,-2.3147,0.64661,0.88842
415.83,22.6763,-2.32309,0.64398,0.88788
416.53,22.6982,-2.33129,0.64127,0.88734
417.23,22.71997,-2.34026,0.64384,0.8868
417.93,22.74186,-2.34807,0.639,0.88625
418.63,22.76367,-2.35672,0.64067,0.88571
419.33,22.7855,-2.36572,0.63923,0.88517
420.03,22.8074,-2.37396,0.64128,0.88462
420.73,22.82925,-2.38442,0.63756,0.88408
421.43,22.8512,-2.39442,0.63767,0.88353
422.13,22.87305,-2.40301,0.63957,0.88299
422.83,22.8949,-2.41284,0.63676,0.88244
423.53,22.91665,-2.42141,0.63648,0.8819
424.23,22.93846,-2.4306,0.63738,0.88135
424.93,22.9604,-2.44299,0.6403,0.8808
425.63,22.98241,-2.45311,0.63543,0.88026
426.33,23.00453,-2.46337,0.63845,0.87971
427.03,23.0265,-2.474,0.63856,0.87916
427.73,23.04844,-2.48306,0.63688,0.87861
428.43,23.07039,-2.49339,0.6387,0.87807
429.13,23.09231,-2.50467,0.64141,0.87752
429.83,23.11426,-2.51397,0.64393,0.87697
430.53,23.13618,-2.52538,0.64796,0.87642
431.23,23.15813,-2.53722,0.65224,0.87587
431.93,23.18013,-2.54774,0.66023,0.87532
432.63,23.20209,-2.55985,0.66881,0.87477
433.33,23.22406,-2.56998,0.68154,0.87422
434.03,23.24606,-2.57855,0.68998,0.87367
434.73,23.26802,-2.59128,0.69456,0.87311
435.43,23.29005,-2.60287,0.69646,0.87256
436.13,23.31206,-2.61544,0.69917,0.87201
436.83,23.33408,-2.62752,0.69893,0.87146
437.53,23.35608,-2.63739,0.69958,0.8709
438.23,23.37806,-2.64828,0.70046,0.87035
438.93,23.40009,-2.6607,0.69485,0.8698
439.63,23.4221,-2.67049,0.69482,0.86924
440.33,23.44405,-2.68144,0.69527,0.86869
441.03,23.46605,-2.69323,0.69237,0.86814
441.73,23.4881,-2.70231,0.68989,0.86758
442.43,23.5102,-2.71269,0.6851,0.86703
443.13,23.53226,-2.72326,0.68605,0.86647
443.83,23.55436,-2.73281,0.68274,0.86591
444.53,23.57638,-2.74337,0.68164,0.86536
445.23,23.59846,-2.75271,0.67783,0.8648
445.93,23.62041,-2.76054,0.67387,0.86425
446.63,23.64246,-2.77043,0.67496,0.86369
447.33,23.66454,-2.77983,0.67385,0.86313
448.03,23.68667,-2.78844,0.67301,0.86257
448.73,23.70876,-2.79815,0.67032,0.86202
449.43,23.7308,-2.80641,0.67203,0.86146
450.13,23.75289,-2.81394,0.66812,0.8609
450.83,23.77497,-2.82315,0.66682,0.86034
451.53,23.79705,-2.83128,0.6653,0.85978
452.23,23.81914,-2.83852,0.6609,0.85922
452.93,23.84125,-2.84692,0.65715,0.85866
453.63,23.86342,-2.85413,0.65444,0.8581
454.33,23.88555,-2.86086,0.65121,0.85754
455.03,23.90765,-2.86878,0.64995,0.85698
455.73,23.92983,-2.87522,0.64848,0.85642
456.43,23.952,-2.88176,0.64576,0.85586
457.13,23.97406,-2.88979,0.64229,0.8553
457.83,23.99614,-2.89686,0.64229,0.85474
458.53,24.0182,-2.90375,0.63442,0.85418
459.23,24.04032,-2.91083,0.62896,0.85361
459.93,24.06245,-2.91683,0.62672,0.85305
460.63,24.08466,-2.92297,0.61997,0.85249
461.33,24.1068,-2.92942,0.61426,0.85193
462.03,24.129,-2.93525,0.60619,0.85136
462.73,24.15115,-2.94126,0.60059,0.8508
463.43,24.17333,-2.94759,0.59327,0.85024
464.13,24.1955,-2.95274,0.58488,0.84967
464.83,24.21765,-2.95896,0.57542,0.84911
465.53,24.2396,-2.96601,0.56637,0.84854
466.23,24.26176,-2.97237,0.55556,0.84798
466.93,24.2839,-2.97903,0.54834,0.84741
467.63,24.30629,-2.98424,0.5385,0.84685
468.33,24.32848,-2.98859,0.52676,0.84628
469.03,24.35066,-2.99224,0.51585,0.84572
469.73,24.37283,-2.99704,0.50553,0.84515
470.43,24.39509,-3.00224,0.49492,0.84458
471.13,24.41734,-3.00618,0.48082,0.84402
471.83,24.4396,-3.01015,0.47078,0.84345
472.53,24.46171,-3.0139,0.46148,0.84289
473.23,24.48388,-3.01687,0.45085,0.84232
473.93,24.50609,-3.02106,0.43817,0.84175
474.63,24.52842,-3.0242,0.4289,0.84118
475.33,24.55075,-3.0265,0.4163,0.84062
476.03,24.57303,-3.03045,0.40568,0.84005
476.73,24.59528,-3.0343,0.39417,0.83948
477.43,24.6174,-3.03766,0.38455,0.83891
478.13,24.63963,-3.04162,0.37946,0.83834
478.83,24.66185,-3.0455,0.36593,0.83777
479.53,24.6841,-3.04818,0.35744,0.8372
480.23,24.7064,-3.05132,0.35119,0.83663
480.93,24.72874,-3.05361,0.34239,0.83606
481.63,24.75102,-3.05601,0.33504,0.8355
482.33,24.7733,-3.05859,0.33047,0.83492
483.03,24.79554,-3.06203,0.32305,0.83435
483.73,24.81785,-3.06521,0.31811,0.83378
484.43,24.84006,-3.06803,0.31209,0.83321
485.13,24.8624,-3.0702,0.30445,0.83264
485.83,24.88468,-3.07254,0.30122,0.83207
486.53,24.90703,-3.07522,0.29467,0.8315
487.23,24.92932,-3.07709,0.29152,0.83093
487.93,24.95165,-3.07858,0.28773,0.83036
488.63,24.97397,-3.0802,0.2805,0.82979
489.33,24.99636,-3.0818,0.27673,0.82921
490.03,25.01869,-3.08292,0.27769,0.82864
490.73,25.04105,-3.08464,0.27401,0.82807
491.43,25.06343,-3.0862,0.26836,0.8275
492.13,25.08576,-3.08786,0.26692,0.82692
492.83,25.10811,-3.08977,0.26384,0.82635
493.53,25.13053,-3.09247,0.2608,0.82578
494.23,25.15299,-3.094,0.25804,0.8252
494.93,25.17536,-3.09435,0.25464,0.82463
495.63,25.1977,-3.096,0.25551,0.82406
496.33,25.21999,-3.09765,0.24985,0.82348
497.03,25.2424,-3.09882,0.24663,0.82291
497.73,25.2648,-3.09957,0.24406,0.82233
498.43,25.28721,-3.10106,0.24718,0.82176
499.13,25.3096,-3.1028,0.24065,0.82119
499.83,25.33205,-3.10435,0.23907,0.82061
500.53,25.35449,-3.10588,0.2387,0.82004
501.23,25.37699,-3.10749,0.23768,0.81946
501.93,25.39945,-3.10901,0.2352,0.81889
502.63,25.42185,-3.10957,0.23358,0.81831
503.33,25.4441,-3.11071,0.2303,0.81773
504.03,25.46642,-3.11233,0.2316,0.81716
504.73,25.4889,-3.11435,0.2315,0.81658
505.43,25.5115,-3.11612,0.22975,0.81601
506.13,25.53408,-3.1176,0.22902,0.81543
506.83,25.5565,-3.11922,0.229,0.81485
507.53,25.57892,-3.11942,0.22577,0.81428
508.23,25.60136,-3.11924,0.22331,0.8137
508.93,25.62378,-3.12087,0.22455,0.81312
509.63,25.64611,-3.12249,0.22451,0.81255
510.33,25.66856,-3.12361,0.22211,0.81197
511.03,25.69105,-3.12421,0.22085,0.81139
511.73,25.71369,-3.12552,0.21625,0.81082
512.43,25.73615,-3.12551,0.21676,0.81024
513.13,25.75865,-3.12692,0.21765,0.80966
513.83,25.78117,-3.12705,0.21658,0.80908
514.53,25.80366,-3.12885,0.21513,0.8085
515.23,25.82614,-3.12932,0.21541,0.80793
515.93,25.8486,-3.13085,0.21561,0.80735
516.63,25.87111,-3.13222,0.21452,0.80677
517.33,25.8936,-3.13231,0.21176,0.80619
518.03,25.91613,-3.1333,0.20937,0.80561
518.73,25.9386,-3.13363,0.2124,0.80503
519.43,25.96107,-3.13521,0.20759,0.80445
520.13,25.9835,-3.13589,0.20998,0.80388
520.83,26.00602,-3.13668,0.20825,0.8033
521.53,26.02853,-3.13798,0.20928,0.80272
522.23,26.05104,-3.13663,0.2076,0.80214
522.93,26.07355,-3.13812,0.2051,0.80156
523.63,26.09604,-3.13918,0.20462,0.80098
524.33,26.1185,-3.13965,0.20604,0.8004
525.03,26.14098,-3.1397,0.20404,0.79982
525.73,26.1635,-3.14107,0.20307,0.79924
526.43,26.18606,-3.1421,0.1999,0.79866
527.13,26.2087,-3.14262,0.20124,0.79808
527.83,26.23123,-3.14339,0.20335,0.7975
528.53,26.25375,-3.14405,0.20023,0.79692
529.23,26.27628,-3.14549,0.1993,0.79634
529.93,26.29885,-3.1457,0.19955,0.79576
530.63,26.32143,-3.14677,0.1994,0.79518
531.33,26.3441,-3.14713,0.19829,0.7946
532.03,26.36665,-3.1481,0.1977,0.79402
532.73,26.38922,-3.14809,0.199,0.79343
533.43,26.41175,-3.14937,0.19483,0.79285
534.13,26.43426,-3.14984,0.19426,0.79227
534.83,26.45682,-3.1518,0.19454,0.79169
535.53,26.4794,-3.15347,0.19544,0.79111
536.23,26.5019,-3.15431,0.19302,0.79053
536.93,26.5246,-3.15523,0.19141,0.78995
537.63,26.5472,-3.15626,0.19169,0.78936
538.33,26.5698,-3.15656,0.19529,0.78878
539.03,26.5923,-3.1578,0.19238,0.7882
539.73,26.61487,-3.15786,0.19179,0.78762
540.43,26.63743,-3.1586,0.19179,0.78704
541.13,26.66003,-3.15918,0.19037,0.78645
541.83,26.6827,-3.15914,0.1909,0.78587
542.53,26.7053,-3.16052,0.18893,0.78529
543.23,26.72792,-3.1605,0.18928,0.78471
543.93,26.75035,-3.16117,0.18807,0.78413
544.63,26.77275,-3.16192,0.18671,0.78354
545.33,26.7954,-3.16322,0.18947,0.78296
546.03,26.8182,-3.16342,0.18826,0.78238
546.73,26.84102,-3.16491,0.18994,0.7818
547.43,26.86368,-3.16377,0.18833,0.78121
548.13,26.88632,-3.16499,0.19066,0.78063
548.83,26.90895,-3.16495,0.18622,0.78005
549.53,26.93158,-3.16634,0.18546,0.77946
550.23,26.95423,-3.16631,0.1856,0.77888
550.93,26.97687,-3.16727,0.18452,0.7783
551.63,26.9996,-3.16894,0.18411,0.77772
552.33,27.02236,-3.16894,0.18461,0.77713
553.03,27.04503,-3.16889,0.18387,0.77655
553.73,27.0676,-3.17025,0.18586,0.77597
554.43,27.0902,-3.17026,0.18672,0.77538
555.13,27.1129,-3.17026,0.18244,0.7748
555.83,27.13575,-3.17145,0.18485,0.77422
556.53,27.1586,-3.17167,0.18407,0.77363
557.23,27.1813,-3.17302,0.18468,0.77305
557.93,27.20399,-3.173,0.18486,0.77247
558.63,27.22666,-3.17333,0.18504,0.77188
559.33,27.2494,-3.17433,0.18483,0.7713
560.03,27.2721,-3.17565,0.18581,0.77071
560.73,27.2948,-3.17577,0.18351,0.77013
561.43,27.3175,-3.17707,0.1798,0.76955
562.13,27.34027,-3.17706,0.17909,0.76896
562.83,27.3631,-3.17816,0.17861,0.76838
563.53,27.38575,-3.17703,0.17962,0.7678
564.23,27.4085,-3.17839,0.17778,0.76721
564.93,27.43115,-3.17876,0.18027,0.76663
565.63,27.4539,-3.17969,0.17913,0.76604
566.33,27.4767,-3.18035,0.17873,0.76546
567.03,27.49948,-3.18101,0.17999,0.76488
567.73,27.5223,-3.18101,0.17758,0.76429
568.43,27.54506,-3.18147,0.17524,0.76371
569.13,27.5678,-3.1823,0.17796,0.76312
569.83,27.5906,-3.18415,0.17698,0.76254
570.53,27.6134,-3.18519,0.17691,0.76195
571.23,27.63618,-3.18561,0.17685,0.76137
571.93,27.659,-3.18614,0.17683,0.76079
572.63,27.6818,-3.18693,0.17422,0.7602
573.33,27.70461,-3.18688,0.17213,0.75962
574.03,27.72738,-3.18824,0.17209,0.75903
574.73,27.7502,-3.18891,0.17159,0.75845
575.43,27.7731,-3.1903,0.16628,0.75787
576.13,27.79597,-3.19261,0.16993,0.75728
576.83,27.81885,-3.19341,0.17079,0.7567
577.53,27.8418,-3.19395,0.16891,0.75611
578.23,27.86463,-3.19477,0.16933,0.75553
578.93,27.88747,-3.19394,0.16588,0.75494
579.63,27.91028,-3.19395,0.16484,0.75436
580.33,27.9331,-3.19458,0.16566,0.75377
581.03,27.95597,-3.19527,0.16618,0.75319
581.73,27.97891,-3.19578,0.16381,0.75261
582.43,28.00175,-3.19669,0.16381,0.75202
583.13,28.02463,-3.1971,0.16388,0.75144
583.83,28.04747,-3.19801,0.16243,0.75085
584.53,28.0704,-3.19942,0.16086,0.75027
585.23,28.0933,-3.19954,0.15942,0.74968
585.93,28.1162,-3.20096,0.16245,0.7491
586.63,28.1391,-3.20224,0.15686,0.74852
587.33,28.16201,-3.20229,0.15727,0.74793
588.03,28.18491,-3.20229,0.15576,0.74735
588.73,28.20785,-3.20231,0.16048,0.74676
589.43,28.2307,-3.20093,0.1586,0.74618
590.13,28.25354,-3.20097,0.15435,0.74559
590.83,28.27637,-3.20097,0.15263,0.74501
591.53,28.29934,-3.2019,0.15115,0.74443
592.23,28.3223,-3.20114,0.15294,0.74384
592.93,28.3452,-3.20181,0.15749,0.74326
593.63,28.36818,-3.20239,0.15372,0.74267
594.33,28.39113,-3.20317,0.15314,0.74209
595.03,28.41402,-3.20371,0.15663,0.7415
595.73,28.43696,-3.20369,0.15677,0.74092
596.43,28.45988,-3.20502,0.15603,0.74034
597.13,28.4828,-3.205,0.15422,0.73975
597.83,28.50575,-3.20632,0.15332,0.73917
598.53,28.52866,-3.20634,0.15381,0.73858
599.23,28.55163,-3.20634,0.15308,0.738
599.93,28.5746,-3.20633,0.1536,0.73742
600.63,28.59755,-3.20759,0.15308,0.73683
601.33,28.6205,-3.20766,0.15252,0.73625
602.03,28.6435,-3.20879,0.15315,0.73566
602.73,28.66648,-3.20909,0.15377,0.73508
603.43,28.68948,-3.21054,0.15521,0.7345
604.13,28.7125,-3.21105,0.15258,0.73391
604.83,28.7355,-3.21205,0.15169,0.73333
605.53,28.75848,-3.21226,0.15167,0.73274
606.23,28.78142,-3.21336,0.1497,0.73216
606.93,28.80442,-3.21336,0.1479,0.73158
607.63,28.82743,-3.2134,0.14702,0.73099
608.33,28.85045,-3.21467,0.14889,0.73041
609.03,28.8734,-3.21468,0.14645,0.72983
609.73,28.8964,-3.21602,0.14194,0.72924
610.43,28.9194,-3.216,0.14301,0.72866
611.13,28.9424,-3.216,0.14118,0.72808
611.83,28.9654,-3.21687,0.14075,0.72749
612.53,28.9884,-3.21731,0.13673,0.72691
613.23,29.01122,-3.21732,0.13871,0.72633
613.93,29.0342,-3.21866,0.13413,0.72574
614.63,29.0572,-3.21805,0.13489,0.72516
615.33,29.08046,-3.21863,0.13181,0.72458
616.03,29.10346,-3.21889,0.13134,0.72399
616.73,29.12647,-3.22005,0.12714,0.72341
617.43,29.1494,-3.22096,0.12583,0.72283
618.13,29.17243,-3.21995,0.12445,0.72224
618.83,29.1954,-3.22109,0.12261,0.72166
619.53,29.2184,-3.21998,0.11947,0.72108
620.23,29.24147,-3.22104,0.12206,0.7205
620.93,29.26453,-3.22127,0.12009,0.71991
621.63,29.2876,-3.22261,0.11862,0.71933
622.33,29.3107,-3.22259,0.11742,0.71875
623.03,29.3338,-3.22391,0.11682,0.71817
623.73,29.3569,-3.22384,0.11404,0.71758
624.43,29.3799,-3.22521,0.11441,0.717
625.13,29.4029,-3.22525,0.11388,0.71642
625.83,29.42592,-3.22786,0.11331,0.71584
626.53,29.44895,-3.22782,0.11417,0.71526
627.23,29.47202,-3.22929,0.11027,0.71467
627.93,29.4951,-3.22976,0.1114,0.71409
628.63,29.5182,-3.2306,0.1122,0.71351
629.33,29.5413,-3.2325,0.11131,0.71293
630.03,29.5644,-3.23342,0.11194,0.71235
630.73,29.5875,-3.23343,0.11177,0.71176
631.43,29.6106,-3.23343,0.10931,0.71118
632.13,29.63355,-3.23378,0.11329,0.7106
632.83,29.6566,-3.23485,0.11031,0.71002
633.53,29.6796,-3.23516,0.11227,0.70944
634.23,29.70275,-3.23618,0.11148,0.70886
634.93,29.7258,-3.23615,0.11106,0.70828
635.63,29.74888,-3.23754,0.1162,0.70769
636.33,29.7719,-3.23893,0.11578,0.70711
637.03,29.7949,-3.2394,0.11604,0.70653
637.73,29.818,-3.24142,0.11768,0.70595
638.43,29.84109,-3.24155,0.12066,0.70537
639.13,29.8642,-3.24155,0.12194,0.70479
639.83,29.8872,-3.24155,0.1219,0.70421
640.53,29.9104,-3.24155,0.12164,0.70363
641.23,29.9335,-3.24155,0.1229,0.70305
641.93,29.95655,-3.24155,0.12191,0.70247
642.63,29.9796,-3.24155,0.12432,0.70189
643.33,30.00259,-3.24241,0.12367,0.70131
644.03,30.0256,-3.24254,0.1251,0.70073
644.73,30.0486,-3.24251,0.13213,0.70015
645.43,30.0717,-3.24302,0.13165,0.69957
646.13,30.0947,-3.2429,0.12964,0.69899
646.83,30.1178,-3.24433,0.13604,0.69841
647.53,30.1408,-3.24547,0.13442,0.69783
648.23,30.16392,-3.24583,0.13734,0.69725
648.93,30.187,-3.24572,0.1396,0.69667
649.63,30.21,-3.24576,0.13896,0.69609
650.33,30.23307,-3.24594,0.14003,0.69551
651.03,30.2561,-3.24755,0.14555,0.69493
651.73,30.27918,-3.24803,0.14606,0.69435
652.43,30.3022,-3.24787,0.14664,0.69377
653.13,30.3254,-3.24899,0.14678,0.6932
653.83,30.3484,-3.25058,0.15007,0.69262
654.53,30.37152,-3.25055,0.14817,0.69204
655.23,30.39457,-3.25055,0.15161,0.69146
655.93,30.41763,-3.25054,0.15055,0.69088
656.63,30.4407,-3.2492,0.15169,0.6903
657.33,30.4638,-3.24925,0.15356,0.68973
658.03,30.4869,-3.24791,0.15268,0.68915
658.73,30.51,-3.24791,0.15441,0.68857
659.43,30.53305,-3.24791,0.15282,0.68799
660.13,30.55613,-3.24791,0.15561,0.68741
660.83,30.57923,-3.24845,0.15512,0.68684
661.53,30.6024,-3.25054,0.15669,0.68626
662.23,30.6255,-3.25055,0.15613,0.68568
662.93,30.64855,-3.25055,0.15844,0.6851
663.63,30.67163,-3.25075,0.15705,0.68453
664.33,30.6947,-3.25189,0.1579,0.68395
665.03,30.7177,-3.25319,0.15914,0.68337
665.73,30.74075,-3.25318,0.15664,0.6828
666.43,30.76378,-3.25354,0.16017,0.68222
667.13,30.78681,-3.25549,0.16044,0.68164
667.83,30.80994,-3.25548,0.16035,0.68107
668.53,30.833,-3.25548,0.15615,0.68049
669.23,30.85623,-3.25548,0.15899,0.67992
669.93,30.87927,-3.25547,0.16039,0.67934
670.63,30.90235,-3.25682,0.16187,0.67876
671.33,30.92541,-3.2568,0.15907,0.67819
672.03,30.94858,-3.25682,0.16004,0.67761
672.73,30.97182,-3.25559,0.15953,0.67704
673.43,30.995,-3.25548,0.15442,0.67646
674.13,31.0181,-3.25553,0.16044,0.67589
674.83,31.04125,-3.25419,0.15684,0.67531
675.53,31.0643,-3.25532,0.15471,0.67474
676.23,31.0874,-3.25592,0.15417,0.67416
676.93,31.1105,-3.25681,0.15557,0.67359
677.63,31.13359,-3.2568,0.15395,0.67301
678.33,31.15669,-3.25818,0.15108,0.67244
679.03,31.17982,-3.25896,0.15425,0.67186
679.73,31.20304,-3.25989,0.15436,0.67129
680.43,31.2262,-3.26116,0.15277,0.67072
681.13,31.24943,-3.26118,0.15628,0.67014
681.83,31.27257,-3.26118,0.15533,0.66957
682.53,31.29575,-3.26118,0.15339,0.669
683.23,31.31881,-3.26118,0.15275,0.66842
683.93,31.34187,-3.26118,0.15375,0.66785
684.63,31.365,-3.26036,0.15334,0.66728
685.33,31.38818,-3.25987,0.15124,0.6667
686.03,31.4114,-3.25986,0.15267,0.66613
686.73,31.4346,-3.25877,0.15015,0.66556
687.43,31.45775,-3.2599,0.14883,0.66498
688.13,31.4809,-3.25987,0.14567,0.66441
688.83,31.5041,-3.26037,0.1481,0.66384
689.53,31.5273,-3.26251,0.14453,0.66327
690.23,31.5505,-3.26251,0.14582,0.6627
690.93,31.5736,-3.26252,0.14469,0.66212
691.63,31.5969,-3.26381,0.14772,0.66155
692.33,31.62003,-3.26382,0.14145,0.66098
693.03,31.6433,-3.26479,0.14423,0.66041
693.73,31.66648,-3.26482,0.13819,0.65984
694.43,31.6897,-3.26382,0.14392,0.65927
695.13,31.713,-3.26382,0.14244,0.6587
695.83,31.7362,-3.26383,0.13699,0.65813
696.53,31.75945,-3.26416,0.13814,0.65756
697.23,31.7827,-3.26415,0.13594,0.65698
697.93,31.80593,-3.26415,0.14017,0.65641
698.63,31.82917,-3.26475,0.13661,0.65584
699.33,31.85247,-3.26568,0.13328,0.65527
700.03,31.8757,-3.26688,0.13017,0.6547
700.73,31.89892,-3.26513,0.12847,0.65413
701.43,31.92215,-3.26372,0.12793,0.65357
702.13,31.9454,-3.2637,0.12711,0.653
702.83,31.96868,-3.26235,0.12586,0.65243
703.53,31.99193,-3.26362,0.12521,0.65186
704.23,32.01517,-3.26368,0.1224,0.65129
704.93,32.03842,-3.26517,0.12133,0.65072
705.63,32.06167,-3.26514,0.11852,0.65015
706.33,32.0849,-3.26512,0.12151,0.64958
707.03,32.10821,-3.26647,0.11908,0.64902
707.73,32.13151,-3.26645,0.11492,0.64845
708.43,32.15487,-3.26648,0.11416,0.64788
709.13,32.17815,-3.2682,0.11341,0.64731
709.83,32.20145,-3.26921,0.11056,0.64674
710.53,32.22473,-3.26999,0.1145,0.64618
711.23,32.24798,-3.27051,0.11099,0.64561
711.93,32.27129,-3.27051,0.11109,0.64504
712.63,32.2945,-3.27051,0.10689,0.64448
713.33,32.3179,-3.27051,0.10877,0.64391
714.03,32.34118,-3.27051,0.10759,0.64334
714.73,32.36453,-3.27091,0.10731,0.64278
715.43,32.38791,-3.27189,0.10166,0.64221
716.13,32.41126,-3.27335,0.10041,0.64164
716.83,32.43461,-3.27336,0.10084,0.64108
717.53,32.45792,-3.27331,0.09952647,0.64051
718.23,32.4812,-3.27467,0.09464302,0.63995
718.93,32.50443,-3.27468,0.09583708,0.63938
719.63,32.52774,-3.27468,0.09562827,0.63882
720.33,32.55106,-3.27468,0.0972352,0.63825
721.03,32.57438,-3.2747,0.09224401,0.63769
721.73,32.59767,-3.27332,0.0939951,0.63712
722.43,32.62105,-3.27415,0.08861252,0.63656
723.13,32.6444,-3.27468,0.0897139,0.63599
723.83,32.66778,-3.27468,0.09002783,0.63543
724.53,32.6911,-3.27391,0.08554201,0.63487
725.23,32.71448,-3.27406,0.08534691,0.6343
725.93,32.7378,-3.27331,0.0847297,0.63374
726.63,32.7612,-3.27325,0.08051572,0.63318
727.33,32.78453,-3.27325,0.07787489,0.63261
728.03,32.80789,-3.27318,0.07811091,0.63205
728.73,32.83119,-3.27194,0.07618182,0.63149
729.43,32.85454,-3.27193,0.07702264,0.63093
730.13,32.87791,-3.27193,0.07697853,0.63036
730.83,32.90128,-3.27193,0.07321029,0.6298
731.53,32.9246,-3.27193,0.07132094,0.62924
732.23,32.948,-3.27193,0.0733236,0.62868
732.93,32.9711,-3.27188,0.07305409,0.62812
733.63,32.99453,-3.27324,0.07059818,0.62755
734.33,33.01793,-3.27325,0.06912996,0.62699
735.03,33.04153,-3.27335,0.06278566,0.62643
735.73,33.06499,-3.27456,0.06068811,0.62587
736.43,33.0884,-3.27457,0.06031105,0.62531
737.13,33.11176,-3.27455,0.0619795,0.62475
737.83,33.1351,-3.2759,0.05910099,0.62419
738.53,33.1584,-3.27588,0.05704157,0.62363
739.23,33.18179,-3.27585,0.05444138,0.62307
739.93,33.20517,-3.27722,0.04804833,0.62251
740.63,33.22855,-3.2772,0.04702088,0.62195
741.33,33.2519,-3.27718,0.04591468,0.62139
742.03,33.27523,-3.27853,0.04582084,0.62083
742.73,33.2986,-3.27851,0.0399187,0.62027
743.43,33.32193,-3.27851,0.03599858,0.61971
744.13,33.34538,-3.27851,0.03816016,0.61916
744.83,33.3688,-3.27905,0.03194473,0.6186
745.53,33.39227,-3.27983,0.02919324,0.61804
746.23,33.4157,-3.27983,0.02925671,0.61748
746.93,33.439,-3.27983,0.02807271,0.61692
747.63,33.4624,-3.27983,0.02835653,0.61637
748.33,33.48574,-3.27983,0.02137051,0.61581
749.03,33.50913,-3.27983,0.02564425,0.61525
749.73,33.5325,-3.28039,0.02386428,0.61469
750.43,33.55588,-3.28115,0.02060447,0.61414
751.13,33.5792,-3.28142,0.0168984,0.61358
751.83,33.60262,-3.28245,0.01796838,0.61302
752.53,33.62595,-3.28246,0.01460951,0.61247
753.23,33.6494,-3.28242,0.01390464,0.61191
753.93,33.6727,-3.28379,0.01551529,0.61136
754.63,33.6962,-3.28556,0.01186914,0.6108
755.33,33.71962,-3.28597,0.0117937,0.61025
756.03,33.7429,-3.28597,0.00410808,0.60969
756.73,33.76628,-3.28597,0.00400511,0.60914
757.43,33.78967,-3.28597,0.002301195,0.60858
758.13,33.81328,-3.28597,0.00252331,0.60803
758.83,33.8367,-3.28597,0.00414769,0.60747
759.53,33.86,-3.28597,-0.001260222,0.60692
760.23,33.88329,-3.28573,0.001073428,0.60636
760.93,33.90665,-3.28455,0.002530735,0.60581
761.63,33.93009,-3.28455,-0.004969208,0.60526
762.33,33.9535,-3.28454,-0.004096029,0.6047
763.03,33.97691,-3.28388,-0.004287319,0.60415
763.73,34.0002,-3.28356,-0.00100921,0.6036
764.43,34.02364,-3.28356,-0.007557097,0.60305
765.13,34.04696,-3.28356,-0.00525613,0.60249
765.83,34.0704,-3.28511,-0.00536807,0.60194
766.53,34.09364,-3.28664,-0.00701027,0.60139
767.23,34.11708,-3.28694,-0.0079667,0.60084
767.93,34.14045,-3.28795,-0.00976693,0.60029
768.63,34.1639,-3.28794,-0.008199541,0.59973
769.33,34.1873,-3.28659,-0.01148884,0.59918
770.03,34.2106,-3.28598,-0.01564615,0.59863
770.73,34.23401,-3.28523,-0.009121509,0.59808
771.43,34.25738,-3.28431,-0.01311508,0.59753
772.13,34.2808,-3.28334,-0.01219563,0.59698
772.83,34.30423,-3.28329,-0.01617215,0.59643
773.53,34.32763,-3.28476,-0.01670104,0.59588
774.23,34.3511,-3.28516,-0.01921062,0.59533
774.93,34.37457,-3.28609,-0.01813997,0.59478
775.63,34.39799,-3.28609,-0.01753662,0.59423
776.33,34.42136,-3.28609,-0.01503295,0.59368
777.03,34.44473,-3.28628,-0.01700861,0.59313
777.73,34.46816,-3.2874,-0.01979854,0.59259
778.43,34.49158,-3.2874,-0.01977526,0.59204
779.13,34.515,-3.28852,-0.01864903,0.59149
779.83,34.53846,-3.28872,-0.01921068,0.59094
780.53,34.56187,-3.28875,-0.02461628,0.59039
781.23,34.58531,-3.28742,-0.02576744,0.58985
781.93,34.6087,-3.28609,-0.02030839,0.5893
782.63,34.63221,-3.28608,-0.0233323,0.58875
783.33,34.65575,-3.28609,-0.02395498,0.5882
784.03,34.67922,-3.28746,-0.02191677,0.58766
784.73,34.70278,-3.28752,-0.02133219,0.58711
785.43,34.72623,-3.28881,-0.02418708,0.58657
786.13,34.74971,-3.28883,-0.02573679,0.58602
786.83,34.7731,-3.28883,-0.02653539,0.58547
787.53,34.79658,-3.28883,-0.02600502,0.58493
788.23,34.82006,-3.28883,-0.02520203,0.58438
788.93,34.84359,-3.28881,-0.02741254,0.58384
789.63,34.86701,-3.29015,-0.02986137,0.58329
790.33,34.89049,-3.29014,-0.03143242,0.58275
791.03,34.91398,-3.29018,-0.03050525,0.5822
791.73,34.9375,-3.29113,-0.03042315,0.58166
792.43,34.96105,-3.29113,-0.0301367,0.58112
793.13,34.98451,-3.29113,-0.03634794,0.58057
793.53,34.9979,-3.29113,-0.03835091,0.58026