File: 01_Data/Cotton_Rug/Cone/Cotton_Rug_Cone_HF50Scan_220321_R3.csv
Names,Time,Stack TC,Smoke TC,Exh Press,Smoke Comp,Smoke Meas,CO Meter,CO2 Meter,O2 Meter,Sample Mass,Ext Coeff,Start Test,Flame Verif
Chan Gain,,500,500,1,1,1,1,1,1,1,1,1.0,1.0
Offset,,0,0,0.134026,0,0,0,0,0,0,0,0.0,0.0
Gain,,1,1,25.011,13.1637,13.6028,1,1,1,1.00089,1.01066,1.0,1.0
Units,sec,C,C,Pa,%,%,%,%,%,g,/m,,
Baseline,,33.7875,34.7397,147.853,99.3417,95.2746,0.000265609,0.0533413,21.0035,-834.895,0.370657,,
3,0.5,32.8005,33.5786,144.154,99.2317,95.5384,0.000484421,0.0621288,20.9926,182.071,0.336263,0.0,0.0
6,1.25,31.4914,32.3131,147.153,99.2398,95.0465,0.000442752,0.0620443,20.9931,181.821,0.382747,0.0,0.0
9,2,31.2084,32.3063,145.705,99.2438,94.9846,0.000396911,0.0619112,20.9935,182.091,0.388877,0.0,0.0
12,2.75,31.1471,32.1641,147.306,99.2442,94.7875,0.000359879,0.061692,20.9938,181.961,0.407335,0.0,0.0
15,3.5,31.4012,32.0411,146.81,99.2153,94.5064,0.000331342,0.0614161,20.994,181.891,0.431076,0.0,0.0
18,4.25,31.5059,32.3379,141.511,99.2116,94.7684,0.000307103,0.0611721,20.9942,181.961,0.406215,0.0,0.0
21,5,31.3684,32.2816,144.687,99.2257,95.5384,0.000289433,0.060921,20.9943,181.831,0.335724,0.0,0.0
24,5.75,31.2689,32.469,144.604,99.2213,94.428,0.000290295,0.0607379,20.9944,181.881,0.438977,0.0,0.0
27,6.5,31.3937,32.2978,148.038,99.2092,94.0054,0.000306588,0.060713,20.9945,181.871,0.477665,0.0,0.0
30,7.25,31.6023,32.3487,142.108,99.21,94.8605,0.000333392,0.0607411,20.9945,181.811,0.397454,0.0,0.0
33,8,31.4361,32.5324,151.24,99.2108,93.5637,0.000367036,0.0610132,20.9933,181.841,0.519562,0.0,0.0
36,8.75,31.2947,32.2725,146.939,99.2193,94.1652,0.000425969,0.0613403,20.9924,181.811,0.463504,0.0,0.0
39,9.5,31.6227,32.0462,144.816,99.2044,93.4105,0.000501524,0.0617986,20.9917,181.791,0.533515,0.0,0.0
42,10.25,32.0447,32.2083,144.222,99.1875,93.0746,0.000570498,0.0624816,20.9913,181.801,0.563938,0.0,0.0
45,11,31.2432,32.0694,144.615,99.2036,92.5138,0.000682421,0.0630653,20.9913,181.741,0.618955,0.0,0.0
48,11.75,31.5947,32.7479,144.024,99.2113,91.8397,0.000790293,0.0636376,20.9919,181.721,0.684479,0.0,0.0
51,12.5,31.3062,32.4086,147.537,99.188,91.7629,0.000952497,0.0642875,20.9923,181.711,0.689813,0.0,0.0
54,13.25,31.7628,32.8543,144.251,99.1928,91.378,0.00113575,0.0647613,20.9927,181.681,0.7275,0.0,0.0
57,14,31.7717,32.7986,149.443,99.1972,91.6678,0.00131957,0.0654559,20.9925,181.661,0.699827,0.0,0.0
60,14.75,31.71,32.5133,146.744,99.1964,90.4631,0.00148638,0.0670244,20.991,181.621,0.817037,0.0,0.0
63,15.5,31.8997,33.0885,145.721,99.1779,90.7392,0.00162389,0.0699842,20.9879,181.511,0.788373,0.0,0.0
66,16.25,32.0264,32.6104,140.325,99.1807,92.7455,0.00172741,0.0807886,20.9637,181.501,0.59474,0.0,0.0
69,17,31.7101,32.8977,139.469,99.1839,94.8966,0.00178901,0.0988024,20.9324,181.341,0.391746,0.0,1.0
72,17.75,31.7126,32.7635,134.1,99.1843,94.401,0.0018242,0.122966,20.8954,181.281,0.438209,0.0,1.0
75,18.5,32.02,33.2417,134.341,99.1703,94.2511,0.00184571,0.160676,20.8542,181.181,0.451037,0.0,1.0
78,19.25,32.6327,33.5418,132.103,99.1719,94.7327,0.00188565,0.193838,20.8127,181.01,0.406,0.0,1.0
81,20,32.8595,33.5495,130.745,99.1811,94.3719,0.00195734,0.232561,20.7724,181.13,0.440651,0.0,1.0
84,20.75,33.03,34.2221,134.963,99.1755,93.2166,0.00206043,0.269081,20.7344,180.93,0.549348,0.0,1.0
87,21.5,33.8475,34.4995,129.401,99.1711,93.0116,0.00219149,0.304156,20.6941,180.84,0.568478,0.0,1.0
90,22.25,33.7685,34.5356,126.669,99.161,92.7301,0.00238713,0.33333,20.6592,180.77,0.594448,0.0,0.0
93,23,34.6579,36.0166,132.348,99.1735,91.6362,0.00264266,0.36597,20.6242,180.54,0.700761,0.0,0.0
96,23.75,35.2495,36.298,125.199,99.1783,90.696,0.00294906,0.396498,20.5855,180.49,0.792628,0.0,0.0
99,24.5,35.7615,36.6571,124.548,99.1683,89.1152,0.00337226,0.425052,20.5489,180.37,0.947614,0.0,0.0
102,25.25,36.0572,37.6622,126.239,99.1675,88.9657,0.00368078,0.451732,20.5187,180.24,0.962422,0.0,0.0
105,26,37.1256,38.3664,125.364,99.1634,88.3962,0.00411064,0.482393,20.492,180.16,1.019,0.0,0.0
108,26.75,37.852,39.2039,130.178,99.1787,88.231,0.00456292,0.511504,20.4647,180.02,1.03695,0.0,0.0
111,27.5,38.4549,38.4266,126.737,99.1703,87.458,0.00498077,0.535606,20.4334,179.839,1.11421,0.0,0.0
114,28.25,39.1813,40.5628,122.594,99.1679,86.9362,0.0054059,0.56227,20.4009,179.709,1.16705,0.0,0.0
117,29,39.7809,41.3984,121.096,99.1707,87.5751,0.00579926,0.585585,20.3655,179.529,1.10238,0.0,0.0
120,29.75,40.7566,42.3995,123.928,99.1735,85.453,0.00616954,0.618245,20.3266,179.379,1.32011,0.0,0.0
123,30.5,41.7101,42.6932,119.649,99.1659,86.1271,0.00652148,0.649607,20.2844,179.209,1.24976,0.0,0.0
126,31.25,42.258,43.6091,120.272,99.1546,85.4949,0.0069387,0.679639,20.2439,179.049,1.31407,0.0,0.0
129,32,43.5748,45.3786,123.171,99.1542,85.6277,0.00724285,0.708283,20.2103,178.848,1.30027,0.0,0.0
132,32.75,44.0639,45.6253,118.035,99.1707,84.2171,0.00772619,0.73743,20.1858,178.698,1.44901,0.0,0.0
135,33.5,45.384,46.8119,124.707,99.1646,84.6074,0.00807855,0.770067,20.1592,178.508,1.40749,0.0,0.0
138,34.25,45.9815,47.7436,116.903,99.1598,83.8091,0.00862612,0.797213,20.1324,178.358,1.4911,0.0,0.0
141,35,46.6133,48.5728,119.889,99.1542,83.0033,0.00932853,0.8292,20.1024,178.148,1.57624,0.0,0.0
144,35.75,47.0734,49.5527,117.984,99.1747,82.7106,0.00991702,0.852519,20.073,177.978,1.60939,0.0,0.0
147,36.5,48.3383,50.8129,113.91,99.1739,81.3287,0.0106285,0.876357,20.0384,177.747,1.75869,0.0,0.0
150,37.25,49.6272,52.1616,109.109,99.1574,82.8468,0.0113153,0.905428,20.0024,177.557,1.59326,0.0,0.0
153,38,50.8956,53.192,116.564,99.1626,81.5367,0.0119636,0.933931,19.9674,177.367,1.73505,0.0,0.0
156,38.75,51.7254,53.969,111.841,99.1739,79.0356,0.0125661,0.960563,19.9319,177.187,2.01226,0.0,0.0
159,39.5,52.492,55.0588,116.623,99.1626,79.1248,0.0130788,0.986428,19.906,176.977,2.00125,0.0,0.0
162,40.25,53.3704,56.5357,117.914,99.1679,79.1227,0.013429,1.01204,19.8752,176.807,2.00194,0.0,0.0
165,41,54.6816,57.7386,113.448,99.1502,78.7338,0.0139035,1.03541,19.8573,176.586,2.04405,0.0,0.0
168,41.75,55.5456,58.8617,114.03,99.1675,79.1476,0.0143012,1.05445,19.834,176.386,1.99912,0.0,0.0
171,42.5,56.5283,59.8725,114.483,99.1679,78.542,0.0146285,1.07244,19.8145,176.166,2.06726,0.0,0.0
174,43.25,57.6991,60.7784,107.36,99.165,78.1459,0.0148856,1.08772,19.7963,175.986,2.11182,0.0,0.0
177,44,58.903,62.2703,111.924,99.1582,77.6196,0.0150758,1.09618,19.7814,175.796,2.17113,0.0,0.0
180,44.75,59.5724,63.4692,111.015,99.1566,76.9844,0.0152232,1.10771,19.7705,175.596,2.24383,0.0,0.0
183,45.5,60.4376,64.4448,115.605,99.1606,78.1356,0.0153377,1.11603,19.7626,175.385,2.1126,0.0,0.0
186,46.25,61.3161,65.698,109.774,99.1582,77.5814,0.0154225,1.12207,19.7568,175.235,2.17549,0.0,0.0
189,47,62.4212,66.376,111.403,99.149,78.9168,0.0154867,1.12425,19.7551,175.015,2.02336,0.0,0.0
192,47.75,63.2909,67.685,112.031,99.157,75.5286,0.0155094,1.1244,19.7547,174.825,2.41312,0.0,0.0
195,48.5,63.7939,68.544,109.345,99.1663,77.1521,0.0155046,1.12391,19.7548,174.615,2.2254,0.0,0.0
198,49.25,64.6895,69.4533,109.723,99.1606,78.0808,0.015478,1.1216,19.7568,174.425,2.11882,0.0,0.0
201,50,65.4506,70.4557,113.723,99.1526,78.1576,0.0153901,1.11826,19.7626,174.244,2.10939,0.0,0.0
204,50.75,66.5589,71.5821,109.261,99.1626,77.928,0.0152768,1.11301,19.7718,174.094,2.13636,0.0,0.0
207,51.5,67.268,72.2159,113.395,99.1723,77.4116,0.0151528,1.10627,19.7836,173.884,2.19617,0.0,0.0
210,52.25,67.9211,73.1707,114.552,99.1602,77.7881,0.0150274,1.09341,19.8004,173.724,2.15208,0.0,0.0
213,53,68.7365,73.9123,118.379,99.1598,78.0289,0.0149135,1.08188,19.8126,173.574,2.12464,0.0,0.0
216,53.75,68.9638,74.7789,119.917,99.1538,77.9612,0.0147921,1.06497,19.8316,173.404,2.1318,0.0,0.0
219,54.5,70.0817,75.694,121.301,99.1602,77.8504,0.0146971,1.04398,19.8492,173.213,2.14499,0.0,0.0
222,55.25,70.2091,76.1571,119.085,99.157,76.2725,0.0146251,1.02868,19.8683,173.093,2.32623,0.0,0.0
225,56,70.9867,76.6369,116.26,99.1518,76.4186,0.0146002,1.00576,19.8822,172.923,2.3088,0.0,0.0
228,56.75,71.343,77.0005,118.045,99.1462,75.7698,0.0145821,0.984915,19.9027,172.773,2.38389,0.0,0.0
231,57.5,72.0702,77.7584,122.546,99.1558,74.2994,0.0146409,0.962648,19.9259,172.643,2.55848,0.0,0.0
234,58.25,72.1372,78.4194,121.599,99.1618,76.1675,0.0146928,0.93946,19.9518,172.463,2.33888,0.0,0.0
237,59,72.2113,78.404,121.987,99.155,74.6614,0.0147229,0.91959,19.9797,172.353,2.51532,0.0,0.0
240,59.75,72.9821,78.8361,124.675,99.1454,75.314,0.014725,0.892202,20.0158,172.233,2.43731,0.0,0.0
243,60.5,73.4176,79.106,122.188,99.1498,74.5892,0.0146742,0.866736,20.0421,172.042,2.52343,0.0,0.0
246,61.25,73.2652,79.5137,123.439,99.1582,76.3389,0.0145476,0.835327,20.0808,171.982,2.31862,0.0,0.0
249,62,73.3642,79.7258,127.973,99.1598,74.5946,0.0142586,0.805467,20.1136,171.812,2.52369,0.0,0.0
252,62.75,73.5143,79.7732,127.864,99.1462,76.1982,0.0138682,0.780732,20.1455,171.712,2.3339,0.0,0.0
255,63.5,73.4654,79.8681,128.634,99.155,77.6162,0.013507,0.749876,20.1819,171.612,2.17122,0.0,0.0
258,64.25,73.4396,80.0828,128.759,99.1634,79.4345,0.0129412,0.720911,20.2172,171.522,1.96669,0.0,0.0
261,65,73.5503,80.0176,129.643,99.163,80.4437,0.0122116,0.688733,20.2662,171.442,1.85473,0.0,0.0
264,65.75,73.5528,79.775,134.397,99.1454,82.0946,0.0114186,0.647602,20.3157,171.362,1.67304,0.0,0.0
267,66.5,73.7257,79.86,131.957,99.159,83.0814,0.010625,0.606356,20.3698,171.312,1.56834,0.0,0.0
270,67.25,73.1964,79.4069,137.045,99.1582,84.8037,0.00987927,0.571487,20.4093,171.282,1.38636,0.0,0.0
273,68,72.8329,79.5845,132.489,99.1546,87.8677,0.0090497,0.528382,20.4594,171.182,1.07137,0.0,0.0
276,68.75,72.3934,79.4133,139.163,99.1397,89.5444,0.0082152,0.487948,20.501,171.182,0.902464,0.0,0.0
279,69.5,72.0568,78.4827,134.898,99.1422,90.2883,0.00742566,0.450171,20.5401,171.152,0.829333,0.0,0.0
282,70.25,71.8324,78.4651,138.064,99.1498,91.5474,0.00670776,0.415007,20.5799,171.092,0.70724,0.0,0.0
285,71,71.8464,78.1388,139.656,99.1466,92.3938,0.00608836,0.385174,20.6186,171.092,0.62536,0.0,0.0
288,71.75,71.4558,77.8538,140.49,99.1442,92.4756,0.00554917,0.356248,20.6544,171.052,0.617301,0.0,0.0
291,72.5,70.9515,77.7558,143.148,99.1333,92.7434,0.00513619,0.328384,20.6865,171.022,0.5907,0.0,0.0
294,73.25,70.3315,76.8147,140.43,99.1522,93.0111,0.00481586,0.305735,20.7151,170.992,0.566829,0.0,0.0
297,74,69.2792,76.2583,137.513,99.1405,93.3021,0.00458234,0.285231,20.7383,170.971,0.538093,0.0,0.0
300,74.75,69.3126,75.8855,139.445,99.1401,93.9252,0.00444188,0.265892,20.7591,170.971,0.479048,0.0,0.0
303,75.5,69.167,75.7811,140.744,99.1277,93.3295,0.00437759,0.249025,20.7776,170.961,0.534341,0.0,0.0
306,76.25,68.565,75.0415,138.169,99.1397,93.892,0.00434696,0.235547,20.7939,170.911,0.482147,0.0,0.0
309,77,67.8189,74.3853,137.974,99.1373,93.3644,0.00438607,0.222199,20.8079,170.911,0.531892,0.0,0.0
312,77.75,67.6057,74.121,141.329,99.1317,93.7426,0.00446138,0.212467,20.8208,170.881,0.495551,0.0,0.0
315,78.5,67.5007,73.2842,144.481,99.1377,93.6284,0.00453625,0.201939,20.8329,170.851,0.506893,0.0,0.0
318,79.25,66.641,72.7348,145.247,99.1241,94.5874,0.00468057,0.193173,20.8417,170.841,0.415333,0.0,0.0
321,80,66.3234,72.5714,144.497,99.159,94.2191,0.00478578,0.185792,20.8506,170.851,0.453038,0.0,0.0
324,80.75,65.2888,72.0364,141.933,99.1422,94.5741,0.00495396,0.17951,20.8573,170.831,0.418196,0.0,0.0
327,81.5,65.2408,71.3886,142.909,99.1148,94.1423,0.00511557,0.173763,20.8623,170.811,0.456315,0.0,0.0
330,82.25,64.7278,70.9437,144.684,99.1156,94.7679,0.00535533,0.169075,20.8668,170.801,0.39767,0.0,0.0
333,83,64.2182,70.4669,143.05,99.1373,94.046,0.00558723,0.165082,20.8712,170.781,0.467402,0.0,0.0
336,83.75,63.7055,69.9447,142.891,99.1401,94.347,0.00580549,0.161187,20.8756,170.771,0.439327,0.0,0.0
339,84.5,63.6184,69.6494,144.491,99.1261,94.1876,0.00600712,0.158106,20.8787,170.751,0.453061,0.0,0.0
342,85.25,63.0441,69.3899,142.54,99.1116,94.1349,0.00613008,0.155758,20.8806,170.751,0.456732,0.0,0.0
345,86,62.4796,68.9568,139.8,99.1136,94.2897,0.00630538,0.154046,20.8837,170.731,0.442341,0.0,0.0
348,86.75,62.7765,67.8609,141.285,99.1024,94.3387,0.00638302,0.15284,20.8853,170.711,0.43673,0.0,0.0
351,87.5,62.1414,67.8313,145.54,99.1004,94.1552,0.00641092,0.151937,20.8861,170.681,0.453809,0.0,0.0
354,88.25,61.3367,66.9985,149.447,99.1032,94.3661,0.00642811,0.151463,20.8871,170.681,0.434228,0.0,0.0
357,89,61.0384,67.2613,145.726,99.1104,94.1108,0.0064149,0.150665,20.8878,170.661,0.458892,0.0,0.0
360,89.75,60.2814,66.5336,144.277,99.1108,94.4657,0.00638911,0.150232,20.8883,170.631,0.425555,0.0,0.0
363,90.5,60.5265,66.1588,146.851,99.0915,94.0822,0.00636016,0.150011,20.8887,170.621,0.459902,0.0,0.0
366,91.25,59.9176,65.9269,143.022,99.1088,93.9186,0.00633346,0.149533,20.8889,170.601,0.476873,0.0,0.0
369,92,59.5396,64.6099,144.745,99.1008,93.572,0.00631046,0.149185,20.8896,170.591,0.508935,0.0,0.0
372,92.75,58.6392,64.6202,142.846,99.102,93.9672,0.00629244,0.14877,20.8902,170.571,0.471679,0.0,0.0
375,93.5,58.3277,65.0201,144.924,99.0947,93.9904,0.00628401,0.148297,20.8907,170.551,0.468838,0.0,0.0
378,94.25,58.3543,63.8453,143.461,99.0887,94.3599,0.00628681,0.147626,20.8917,170.541,0.433519,0.0,0.0
381,95,58.166,63.3916,143.22,99.0911,94.1029,0.00630586,0.146886,20.8924,170.511,0.457909,0.0,0.0
384,95.75,57.8721,62.6266,142.373,99.0907,94.2785,0.00634883,0.146106,20.8929,170.511,0.441346,0.0,0.0
387,96.5,57.2174,62.586,143.285,99.0875,94.6957,0.00640869,0.145194,20.8933,170.481,0.401914,0.0,0.0
390,97.25,57.3361,63.0526,144.271,99.0807,94.1295,0.0064645,0.144456,20.8935,170.471,0.454473,0.0,0.0
393,98,57.0311,62.1988,146.274,99.0887,94.5965,0.00651406,0.14379,20.8946,170.461,0.411315,0.0,0.0
396,98.75,56.8349,62.0559,143.533,99.0935,93.9053,0.00654664,0.143216,20.8958,170.441,0.476761,0.0,0.0
399,99.5,56.4097,61.2995,143.049,99.0791,94.5089,0.00656581,0.142647,20.8969,170.431,0.418665,0.0,0.0
402,100.25,55.9415,61.1145,141.43,99.0646,93.7691,0.00657194,0.142133,20.8977,170.401,0.487037,0.0,0.0
405,101,55.7352,60.875,145.986,99.0714,94.1448,0.00657996,0.141709,20.8987,170.411,0.4522,0.0,0.0
408,101.75,54.9338,60.9856,141.289,99.0779,93.5275,0.0065858,0.141387,20.8996,170.391,0.511095,0.0,0.0
411,102.5,55.1633,60.7631,141.041,99.065,94.1046,0.00660072,0.141152,20.9003,170.391,0.455417,0.0,0.0
414,103.25,54.751,60.0475,146.783,99.0534,95.0378,0.00661159,0.140798,20.9008,170.381,0.366892,0.0,0.0
417,104,54.453,59.943,143.08,99.0646,93.6546,0.00659821,0.140462,20.9013,170.341,0.497877,0.0,0.0
420,104.75,54.5714,59.2816,147.114,99.061,94.4861,0.00657406,0.139915,20.902,170.331,0.41919,0.0,0.0
423,105.5,54.0736,58.7021,143.594,99.057,94.8489,0.00651066,0.139517,20.9034,170.331,0.384852,0.0,0.0
426,106.25,53.8364,59.1002,145.614,99.0465,93.8111,0.00647446,0.138959,20.9039,170.301,0.481456,0.0,0.0
429,107,53.6542,58.8108,142.4,99.0522,94.1357,0.00642021,0.138438,20.9045,170.281,0.451334,0.0,0.0
432,107.75,53.5396,58.1976,143.974,99.057,94.0431,0.00637144,0.137798,20.905,170.271,0.460487,0.0,0.0
435,108.5,53.1319,58.1208,142.957,99.0542,93.8003,0.00632918,0.137145,20.9053,170.261,0.483159,0.0,0.0
438,109.25,52.5207,57.9717,145.517,99.0445,94.6135,0.00629315,0.136899,20.9055,170.251,0.405765,0.0,0.0
441,110,52.7606,57.4603,144.957,99.0498,93.9858,0.00625794,0.136696,20.9063,170.231,0.465242,0.0,0.0
444,110.75,52.1236,57.1343,141.775,99.0481,93.7106,0.00622606,0.136562,20.9069,170.221,0.491099,0.0,0.0
447,111.5,52.0473,57.1835,144.587,99.0494,93.3158,0.00620018,0.13647,20.9073,170.211,0.528634,0.0,0.0
450,112.25,52.1944,56.545,145.272,99.0313,94.4429,0.00619194,0.136323,20.9076,170.191,0.42058,0.0,0.0
453,113,51.4645,56.4385,147.543,99.0232,93.6068,0.00619462,0.136119,20.9079,170.161,0.498693,0.0,0.0
456,113.75,51.2471,56.316,147.614,99.0341,93.6903,0.00620289,0.135806,20.908,170.171,0.491765,0.0,0.0
459,114.5,51.5614,55.9903,141.12,99.0405,94.2138,0.00621078,0.135424,20.9088,170.161,0.442943,0.0,0.0
462,115.25,50.9261,56.0228,143.249,99.0252,93.853,0.00621206,0.134961,20.9099,170.131,0.475588,0.0,0.0
465,116,51.3274,55.7511,148.322,99.0164,93.7887,0.00620189,0.134421,20.9108,170.101,0.480878,0.0,0.0
468,116.75,50.8868,55.3956,145.867,99.0244,94.4101,0.00617547,0.133887,20.9114,170.091,0.423048,0.0,0.0
471,117.5,50.4971,55.0424,143.394,99.0361,93.8119,0.00612977,0.133568,20.9119,170.081,0.480442,0.0,0.0
474,118.25,49.7047,55.1397,147.228,99.0168,94.3383,0.00608653,0.133403,20.9119,170.081,0.429111,0.0,0.0
477,119,50.3542,54.5489,142.128,99.0072,93.9697,0.00604947,0.133345,20.9114,170.081,0.462957,0.0,0.0
480,119.75,49.811,54.6265,145.006,99.008,94.0635,0.00602023,0.133288,20.911,170.061,0.454183,0.0,0.0
483,120.5,49.385,54.6471,143.107,99.0144,95.0095,0.00601129,0.13322,20.9107,170.051,0.366037,0.0,0.0
486,121.25,49.275,53.8428,143.911,99.014,94.3669,0.00601261,0.13319,20.9105,170.031,0.426169,0.0,0.0
489,122,49.5346,53.8671,147.453,99.0007,93.7227,0.00602697,0.133197,20.9103,170.031,0.485716,0.0,0.0
492,122.75,49.398,53.5716,143.123,99.0023,93.9294,0.00604463,0.133236,20.9102,170.021,0.466326,0.0,0.0
495,123.5,48.8343,53.5244,145.216,99.0108,94.4728,0.00607567,0.133302,20.9101,169.991,0.415941,0.0,0.0
498,124.25,48.9124,53.316,146.545,99.0036,93.8675,0.00610835,0.13331,20.9101,169.971,0.472274,0.0,0.0
501,125,48.5311,53.6102,144.398,98.9827,93.792,0.00614458,0.133287,20.91,169.951,0.477541,0.0,0.0
504,125.75,48.728,52.9151,143.249,98.9943,94.1208,0.00617099,0.133219,20.91,169.931,0.447563,0.0,0.0
507,126.5,48.8558,52.1553,146.805,99.0028,94.2955,0.0061741,0.133226,20.9097,169.921,0.431871,0.0,0.0
510,127.25,48.2169,52.435,143.571,98.9883,93.9751,0.00616948,0.133299,20.909,169.911,0.460758,0.0,0.0
513,128,48.3703,51.7402,144.187,98.9778,93.5093,0.00613779,0.133428,20.9085,169.911,0.503871,0.0,0.0
516,128.75,47.9702,52.2878,145.145,98.9778,93.5603,0.00609973,0.133471,20.9082,169.911,0.499032,0.0,0.0
519,129.5,47.2291,52.4304,147.772,98.9915,93.9742,0.00606561,0.133413,20.9082,169.881,0.461124,0.0,0.0
522,130.25,48.1999,51.3043,143.067,98.9835,93.5147,0.00604693,0.133151,20.9081,169.871,0.503863,0.0,0.0
525,131,47.4995,51.6544,143.503,98.9734,93.4707,0.00605033,0.132857,20.9081,169.861,0.507138,0.0,0.0
528,131.75,47.4825,51.4707,147.526,98.9666,94.298,0.00607738,0.132467,20.9081,169.84,0.428399,0.0,0.0
531,132.5,46.9985,51.2756,145.77,98.9726,93.9979,0.00613785,0.132183,20.9081,169.83,0.457201,0.0,0.0
534,133.25,46.5544,51.5306,142.311,98.971,93.7496,0.00617398,0.131975,20.9081,169.83,0.480501,0.0,0.0
537,134,47.2665,50.704,147.295,98.959,94.3881,0.00622245,0.131924,20.9087,169.81,0.41925,0.0,0.0
540,134.75,46.9305,50.9703,144.304,98.9513,94.4637,0.00626132,0.131901,20.9091,169.8,0.411473,0.0,0.0
543,135.5,46.6889,50.6895,143.64,98.9586,93.9016,0.00629588,0.131853,20.9095,169.79,0.46503,0.0,0.0
546,136.25,46.4918,50.7102,145.232,98.9562,93.865,0.00632372,0.131784,20.9097,169.78,0.468264,0.0,0.0
549,137,46.5966,50.3255,146.886,98.9497,94.5218,0.00636018,0.131593,20.9099,169.73,0.405876,0.0,0.0
552,137.75,46.4344,50.211,142.172,98.9397,93.662,0.00639696,0.131405,20.91,169.75,0.485981,0.0,0.0
555,138.5,46.3218,50.1253,140.363,98.9566,94.2424,0.00642943,0.131169,20.9101,169.72,0.43273,0.0,0.0
558,139.25,46.1709,49.7663,142.687,98.9505,94.0959,0.00645062,0.130954,20.91,169.71,0.445986,0.0,0.0
561,140,45.9491,49.9297,143.658,98.9349,93.8451,0.00645754,0.130779,20.9101,169.7,0.468238,0.0,0.0
564,140.75,45.8923,49.7888,142.333,98.9252,94.3312,0.00645875,0.130612,20.9106,169.69,0.421569,0.0,0.0
567,141.5,45.8017,49.5162,147.07,98.9357,93.9788,0.00645851,0.130446,20.9109,169.67,0.455691,0.0,0.0
570,142.25,45.4412,49.6319,146.513,98.9425,93.4989,0.00645316,0.130248,20.9111,169.66,0.501689,0.0,0.0
573,143,45.7812,49.561,144.986,98.9401,94.1797,0.00644025,0.129923,20.9113,169.66,0.437154,0.0,0.0
576,143.75,45.3645,49.4341,144.613,98.926,94.0411,0.00641841,0.129589,20.9114,169.63,0.448955,0.0,0.0
579,144.5,45.7477,49.1431,143.852,98.928,93.963,0.00638125,0.129303,20.9115,169.62,0.456495,0.0,0.0
582,145.25,45.2842,49.1292,144.959,98.9337,94.139,0.0063382,0.129003,20.9116,169.62,0.440408,0.0,0.0
585,146,44.9214,48.9004,146.501,98.9272,94.0099,0.00630434,0.128598,20.9121,169.59,0.451998,0.0,0.0
588,146.75,45.3166,48.7087,143.085,98.924,94.1203,0.00628357,0.128201,20.9126,169.57,0.441303,0.0,0.0
591,147.5,45.4577,48.8522,147.775,98.9292,94.4948,0.00627054,0.127968,20.913,169.56,0.406571,0.0,0.0
594,148.25,45.3539,48.2055,142.848,98.93,94.1208,0.00627522,0.127829,20.9133,169.54,0.441804,0.0,0.0
597,149,44.3872,48.4938,141.51,98.9144,93.7501,0.00627863,0.127741,20.9136,169.54,0.475387,0.0,0.0
600,149.75,44.769,48.1594,148.673,98.9011,93.8206,0.00629229,0.127557,20.9136,169.53,0.467527,0.0,0.0
603,150.5,44.7716,47.9266,145.831,98.9091,94.4869,0.00630703,0.12724,20.9136,169.53,0.405511,0.0,0.0
606,151.25,44.5245,48.0888,143.572,98.8971,93.5035,0.00631528,0.126932,20.9136,169.51,0.497187,0.0,0.0
609,152,44.2637,48.1752,144.316,98.9096,93.9269,0.00631501,0.126649,20.9135,169.5,0.458248,0.0,0.0
612,152.75,44.1598,47.9014,144.467,98.9063,93.7716,0.00630586,0.126342,20.9141,169.49,0.472626,0.0,0.0
615,153.5,44.4,47.6907,148.606,98.8911,93.8675,0.00629211,0.126117,20.9146,169.46,0.462196,0.0,0.0
618,154.25,44.338,47.5,139.406,98.8923,94.6916,0.00628829,0.125954,20.9149,169.46,0.384818,0.0,0.0
621,155,44.1693,47.3599,144.033,98.9027,94.2378,0.00629535,0.125596,20.9152,169.45,0.428337,0.0,0.0
624,155.75,43.8063,47.6852,143.597,98.9136,93.4736,0.0063128,0.125223,20.9153,169.43,0.501498,0.0,0.0
627,156.5,44.0299,46.9778,144.458,98.8698,93.792,0.00633793,0.124955,20.9154,169.43,0.467425,0.0,0.0
630,157.25,44.0073,46.549,143.534,98.8903,93.8381,0.00636345,0.124847,20.9155,169.41,0.464908,0.0,0.0
633,158,44.0435,46.4859,144.223,98.8903,93.7974,0.00639436,0.124888,20.9156,169.39,0.468752,0.0,0.0
636,158.75,43.2429,47.1589,145.097,98.8826,94.7542,0.00645593,0.124891,20.9157,169.36,0.378085,0.0,0.0
639,159.5,43.263,47.1746,145.974,98.865,94.1415,0.00651195,0.12488,20.9157,169.36,0.434015,0.0,0.0
642,160.25,43.6342,46.6259,146.799,98.8822,93.6475,0.00657183,0.124753,20.9157,169.36,0.482207,0.0,0.0
645,161,43.2134,46.1526,144.155,98.8826,93.9082,0.00661549,0.124616,20.9157,169.34,0.457598,0.0,0.0
648,161.75,43.2826,46.4026,146.755,98.8935,94.379,0.00662864,0.124441,20.9157,169.34,0.41424,0.0,0.0
651,162.5,43.1962,46.1369,142.021,98.8734,93.6309,0.00662978,0.124273,20.9158,169.33,0.482987,0.0,0.0
654,163.25,43.3027,46.049,143.447,98.8678,93.8733,0.0065832,0.124151,20.9158,169.31,0.459558,0.0,0.0
657,164,42.7496,46.6047,141.664,98.8754,94.3001,0.00654923,0.124011,20.9158,169.32,0.420031,0.0,0.0
660,164.75,42.9127,45.8422,145.434,98.8754,94.1664,0.00647307,0.12382,20.9162,169.3,0.432606,0.0,0.0
663,165.5,42.8225,45.8798,139.841,98.8589,94.0647,0.00640264,0.123576,20.917,169.3,0.44071,0.0,0.0
666,166.25,42.8712,45.7831,142.047,98.8617,93.7945,0.00634952,0.123105,20.9179,169.29,0.466469,0.0,0.0
669,167,42.9105,45.7228,142.885,98.8798,93.797,0.00631862,0.122463,20.9186,169.25,0.467854,0.0,0.0
672,167.75,42.5439,45.9179,145.105,98.8718,94.3491,0.00632622,0.121973,20.9191,169.24,0.415102,0.0,0.0
675,168.5,42.6629,45.207,147.178,98.865,94.1104,0.00635662,0.121578,20.9194,169.23,0.436948,0.0,0.0
678,169.25,42.5386,45.423,144.774,98.8617,93.8252,0.00638938,0.121263,20.9197,169.23,0.463566,0.0,0.0
681,170,42.1634,45.3958,143.987,98.879,94.1722,0.00641856,0.121006,20.9198,169.23,0.432384,0.0,0.0
684,170.75,42.2918,45.1205,149.794,98.8682,93.7318,0.00645228,0.120794,20.92,169.2,0.472972,0.0,0.0
687,171.5,42.1538,45.545,143.694,98.8686,94.66,0.00646976,0.120599,20.9201,169.21,0.385646,0.0,0.0
690,172.25,42.2762,44.9428,145.306,98.8549,94.5351,0.0064825,0.120318,20.9202,169.21,0.396132,0.0,0.0
693,173,42.4158,45.0662,144.306,98.8577,94.3105,0.00648557,0.120175,20.9203,169.2,0.417471,0.0,0.0
696,173.75,42.2902,44.6676,145.369,98.8734,94.2204,0.00649236,0.119814,20.9205,169.19,0.427347,0.0,0.0
699,174.5,42.028,44.5632,148.066,98.8722,94.0651,0.00650963,0.119467,20.9213,169.18,0.44186,0.0,0.0
702,175.25,42.2017,44.5794,145.283,98.8477,95.0091,0.00654351,0.119288,20.9214,169.16,0.351137,0.0,0.0
705,176,41.9277,44.5804,147.389,98.8545,93.9821,0.00657194,0.119283,20.9213,169.16,0.448103,0.0,0.0
708,176.75,41.6574,44.7944,144.339,98.8698,94.5255,0.00658836,0.119378,20.9213,169.14,0.39836,0.0,0.0
711,177.5,42.3539,44.271,141.982,98.8561,94.2989,0.00659026,0.11949,20.9218,169.12,0.418419,0.0,0.0
714,178.25,41.5273,44.6577,146.915,98.8565,93.6766,0.00657985,0.119574,20.9223,169.11,0.477151,0.0,0.0
717,179,41.8144,44.3426,142.489,98.8525,94.3495,0.00655212,0.119611,20.9226,169.1,0.413335,0.0,0.0
720,179.75,41.064,44.2294,145.511,98.8766,94.5637,0.00651239,0.119419,20.9228,169.1,0.395391,0.0,0.0
723,180.5,41.5682,44.3733,144.98,98.8678,94.5753,0.00645609,0.119154,20.923,169.08,0.393509,0.0,0.0
726,181.25,41.1885,44.4876,145.319,98.8585,94.3462,0.00641915,0.118748,20.923,169.06,0.414187,0.0,0.0
729,182,41.5997,44.0719,143.112,98.8638,93.7123,0.00634458,0.118299,20.9236,169.06,0.474422,0.0,0.0
732,182.75,41.6962,44.0169,145.275,98.883,94.3013,0.00627161,0.117855,20.9242,169.06,0.420599,0.0,0.0
735,183.5,41.4211,44.2399,147.457,98.8646,94.0531,0.00621047,0.117443,20.9246,169.05,0.44231,0.0,0.0
738,184.25,41.2354,43.6611,147.763,98.8646,94.1893,0.00615175,0.117177,20.9249,169.03,0.429485,0.0,0.0
741,185,42.6421,43.9618,143.926,98.8513,94.2196,0.00611089,0.116833,20.9251,169.02,0.425444,0.0,0.0
744,185.75,41.1694,43.5179,143.428,98.8654,94.0045,0.00608446,0.11652,20.9253,169.02,0.446962,0.0,0.0
747,186.5,41.182,43.6137,143.631,98.871,93.9609,0.0060705,0.116292,20.9254,169.02,0.451577,0.0,0.0
750,187.25,41.2917,43.7915,145.886,98.867,94.0884,0.00606098,0.116125,20.9255,169,0.439201,0.0,0.0
753,188,39.6614,43.0999,144.809,98.8734,94.5903,0.00605515,0.115865,20.9255,168.97,0.392613,0.0,0.0
756,188.75,41.7346,43.0197,149.256,98.8818,93.677,0.00604914,0.115609,20.926,168.97,0.479381,0.0,0.0
759,189.5,41.0908,43.2447,144.8,98.8846,94.6156,0.0060522,0.11531,20.9266,168.98,0.391248,0.0,0.0
762,190.25,41.1035,43.5576,145.984,98.877,94.6633,0.0060576,0.115033,20.927,168.98,0.386091,0.0,0.0
765,191,41.1091,43.3299,148.379,98.8714,94.44,0.00610227,0.114705,20.9273,168.97,0.406529,0.0,0.0
768,191.75,41.5084,43.0033,143.354,98.883,94.4259,0.00615249,0.114392,20.9275,168.96,0.408898,0.0,0.0
771,192.5,40.4604,43.3781,143.064,98.8798,93.9713,0.00621929,0.114125,20.9276,168.95,0.451391,0.0,0.0
774,193.25,40.9666,42.7313,144.344,98.8947,94.0095,0.00628217,0.113891,20.9277,168.94,0.449121,0.0,0.0
777,194,40.9193,42.8506,145.983,98.8842,94.3005,0.00633587,0.113721,20.9278,168.93,0.420785,0.0,0.0
780,194.75,40.3395,43.0047,146.901,98.9011,94.3524,0.00638844,0.113458,20.9281,168.93,0.417419,0.0,0.0
783,195.5,40.6181,43.1504,141.466,98.9091,94.2424,0.00642677,0.113237,20.9287,168.91,0.428483,0.0,0.0
786,196.25,40.1729,43.1417,145.171,98.9196,94.0975,0.00648311,0.113026,20.9292,168.9,0.443058,0.0,0.0
789,197,40.0962,43.0429,146.87,98.9112,93.7222,0.00652614,0.112595,20.9296,168.89,0.477728,0.0,0.0
792,197.75,40.6041,42.9313,147.906,98.9088,94.8746,0.00655367,0.11228,20.9299,168.87,0.369171,0.0,0.0
795,198.5,40.928,42.5128,147.926,98.9172,94.2337,0.00656141,0.111898,20.9308,168.86,0.430022,0.0,0.0
798,199.25,40.7599,42.214,144.278,98.9164,94.2968,0.00655397,0.111533,20.9314,168.88,0.424017,0.0,0.0
801,200,40.1951,42.599,144.12,98.9124,94.528,0.00652092,0.111229,20.9318,168.85,0.401943,0.0,0.0
804,200.75,41.1244,42.5884,147.925,98.9196,94.154,0.00648788,0.110909,20.9321,168.83,0.43774,0.0,0.0
807,201.5,40.1021,42.6905,144.607,98.9365,94.203,0.0064631,0.110646,20.9326,168.81,0.434641,0.0,0.0
810,202.25,39.9277,42.4392,149.032,98.9453,94.3142,0.00644189,0.110404,20.9333,168.82,0.42497,0.0,0.0
813,203,40.3028,42.177,147.756,98.9316,94.3831,0.00642307,0.11027,20.9341,168.8,0.417271,0.0,0.0
816,203.75,40.1735,42.3277,141.287,98.9272,94.2901,0.00640048,0.11019,20.9344,168.81,0.425613,0.0,0.0
819,204.5,39.7231,40.2804,146.105,98.9284,94.0257,0.00638206,0.109993,20.9343,168.8,0.450619,0.0,0.0
822,205.25,39.7269,42.0215,144.696,98.9413,94.1096,0.00636527,0.109725,20.9342,168.77,0.443868,0.0,0.0
825,206,39.9318,41.7619,146.131,98.9477,94.7928,0.00635827,0.109441,20.9343,168.76,0.380307,0.0,0.0
828,206.75,38.7487,42.743,145.842,98.9409,95.1573,0.00636211,0.109171,20.9348,168.75,0.345673,0.0,0.0
831,207.5,39.7718,41.9739,146.367,98.9473,94.181,0.00637555,0.108975,20.9352,168.76,0.437684,0.0,0.0
834,208.25,39.7926,41.565,143.958,98.9686,94.2644,0.00639156,0.10878,20.9355,168.75,0.43174,0.0,0.0
837,209,39.5797,41.888,142.217,98.9618,94.0398,0.00640981,0.108551,20.9357,168.75,0.452276,0.0,0.0
840,209.75,39.6964,41.8885,144.979,98.963,94.9651,0.00642983,0.108232,20.9358,168.76,0.365578,0.0,0.0
843,210.5,39.6757,41.6952,144.027,98.9766,94.8178,0.00646216,0.10789,20.9359,168.729,0.380569,0.0,0.0
846,211.25,39.5597,41.5346,144.202,98.9895,95.1652,0.00650191,0.107567,20.936,168.719,0.349293,0.0,0.0
849,212,39.5893,41.6061,146.938,98.979,94.4566,0.00653778,0.107311,20.936,168.719,0.414618,0.0,0.0
852,212.75,39.6921,41.2234,145.454,98.9855,94.9892,0.00658031,0.107166,20.9363,168.709,0.365345,0.0,0.0
855,213.5,39.7422,41.7721,143.604,98.9931,94.1772,0.00663933,0.107078,20.9369,168.699,0.442138,0.0,0.0
858,214.25,39.9103,41.2881,147.466,99.0112,94.7173,0.00669835,0.106895,20.9373,168.679,0.393062,0.0,0.0
861,215,39.4996,41.0475,144.805,98.9995,94.2212,0.00673023,0.106667,20.9377,168.679,0.438573,0.0,0.0
864,215.75,39.2484,41.0036,149.146,98.9867,94.7904,0.00673441,0.106339,20.9379,168.689,0.384031,0.0,0.0
867,216.5,39.1641,41.6549,146.668,99.0007,94.7887,0.00668066,0.105948,20.9381,168.679,0.385446,0.0,0.0
870,217.25,39.4053,41.3718,145.883,99.012,94.3893,0.00659174,0.105598,20.9382,168.659,0.423883,0.0,0.0
873,218,39.2235,41.3094,145.143,99.0132,94.8248,0.00650573,0.105204,20.9387,168.649,0.383183,0.0,0.0
876,218.75,38.9981,41.5444,147.188,99.0084,94.3827,0.00637972,0.104862,20.939,168.639,0.424182,0.0,0.0
879,219.5,39.5028,41.2995,143.441,99.0144,94.3076,0.00626087,0.104574,20.9388,168.619,0.431783,0.0,0.0
882,220.25,38.9541,41.2519,144.412,99.0285,94.6804,0.00616183,0.10434,20.9387,168.599,0.398067,0.0,0.0
885,221,39.2312,40.9493,145.79,99.0321,94.2403,0.0060863,0.104111,20.9386,168.609,0.43969,0.0,0.0
888,221.75,39.5445,40.4312,148.414,99.0345,94.5894,0.00603459,0.103844,20.9385,168.599,0.407123,0.0,0.0
891,222.5,39.1358,40.9003,146.998,99.0277,95.0141,0.00601177,0.103594,20.9385,168.609,0.366798,0.0,0.0
894,223.25,39.0335,40.6447,144.056,99.0373,94.7742,0.00600645,0.103389,20.9386,168.589,0.390077,0.0,0.0
897,224,39.1693,40.6895,144.39,99.0401,94.5786,0.00600468,0.103239,20.9392,168.579,0.408638,0.0,0.0
900,224.75,38.9389,41.0536,143.351,99.0457,94.5575,0.00599808,0.103157,20.9396,168.579,0.411127,0.0,0.0
903,225.5,39.0943,40.8573,146.784,99.049,94.5517,0.00599197,0.103109,20.9399,168.559,0.411959,0.0,0.0
906,226.25,39.0734,40.9095,143.636,99.0566,94.3175,0.00598527,0.103075,20.9401,168.559,0.434622,0.0,0.0
909,227,38.6506,41.0428,143.868,99.0626,94.5131,0.00598288,0.103063,20.9402,168.549,0.416801,0.0,0.0
912,227.75,39.0071,40.459,144.439,99.0626,94.2519,0.00598284,0.103061,20.9403,168.549,0.441329,0.0,0.0
915,228.5,38.8782,40.5209,146.07,99.0594,94.6189,0.00598393,0.103019,20.9404,168.539,0.40659,0.0,0.0
918,229.25,38.7296,40.7941,144.643,99.0682,94.4711,0.00599357,0.102924,20.9405,168.539,0.42124,0.0,0.0
921,230,38.6854,40.452,145.57,99.0867,94.7293,0.00600805,0.102742,20.9407,168.519,0.398695,0.0,0.0
924,230.75,38.4384,40.7997,143.077,99.0811,95.176,0.00602635,0.102333,20.9413,168.509,0.356486,0.0,0.0
927,231.5,38.5961,40.2674,143.412,99.0759,94.8854,0.0060475,0.101823,20.9418,168.509,0.383128,0.0,0.0
930,232.25,38.8043,40.5722,143.722,99.0919,95.017,0.00607178,0.101253,20.9421,168.489,0.37228,0.0,0.0
933,233,38.4553,40.7049,145.948,99.0947,94.7173,0.00608948,0.100776,20.9423,168.489,0.40054,0.0,0.0
936,233.75,38.486,40.1605,145.761,99.1108,94.4275,0.00610769,0.100428,20.9425,168.469,0.42914,0.0,0.0
939,234.5,38.6933,40.2901,142.987,99.102,94.2507,0.00613843,0.100215,20.9425,168.479,0.444969,0.0,0.0
942,235.25,38.8104,40.2997,144.738,99.1148,94.9311,0.00616828,0.100078,20.9424,168.449,0.382349,0.0,0.0
945,236,38.2759,40.359,145.938,99.1249,95.23,0.00623257,0.099978,20.9423,168.449,0.355379,0.0,0.0
948,236.75,38.4711,40.2157,143.69,99.1385,94.9311,0.00629561,0.0999051,20.9422,168.449,0.384468,0.0,0.0
951,237.5,38.7251,39.9135,146.768,99.1373,94.5612,0.00635172,0.0997522,20.9422,168.449,0.41897,0.0,0.0
954,238.25,38.4185,40.0483,145.27,99.1446,94.4956,0.00639823,0.0996821,20.9422,168.449,0.425769,0.0,0.0
957,239,38.807,39.1575,142.898,99.1514,94.853,0.00642858,0.0996415,20.9421,168.419,0.392909,0.0,0.0
960,239.75,38.3174,39.9743,149.373,99.1622,94.6833,0.00645071,0.0995994,20.9421,168.409,0.409762,0.0,0.0
963,240.5,38.2585,40.2552,145.228,99.1835,94.5072,0.00645088,0.0995273,20.9421,168.419,0.428162,0.0,0.0
966,241.25,38.3448,40.015,146.376,99.1691,94.4794,0.006451,0.0994571,20.9421,168.389,0.429479,0.0,0.0
969,242,38.2936,40.0144,146.048,99.1751,94.2092,0.00644754,0.0994059,20.9426,168.389,0.455413,0.0,0.0
972,242.75,38.5777,39.7647,149.351,99.1819,94.7796,0.00644875,0.099408,20.9431,168.379,0.402509,0.0,0.0
975,243.5,38.3347,39.7933,147.291,99.1803,95.1063,0.00645123,0.0994095,20.9435,168.389,0.371859,0.0,0.0
978,244.25,38.2379,39.9039,145.272,99.1779,94.342,0.00646544,0.0994614,20.9438,168.369,0.443172,0.0,0.0
981,245,38.2886,39.9113,142.44,99.1851,94.3653,0.00647954,0.0995863,20.944,168.359,0.441633,0.0,0.0
984,245.75,37.7985,39.9004,145.974,99.1992,93.963,0.00649141,0.099697,20.9442,168.359,0.480763,0.0,0.0
987,246.5,37.8266,39.8417,144.633,99.1976,94.9643,0.00649651,0.0997639,20.9443,168.349,0.386647,0.0,0.0
990,247.25,38.3807,40.0122,146.895,99.196,94.6542,0.00649912,0.0998285,20.9444,168.329,0.4155,0.0,0.0
993,248,38.1116,39.4388,144.076,99.2161,94.4769,0.00648794,0.099913,20.9444,168.319,0.433914,0.0,0.0
996,248.75,37.4263,38.9482,142.385,99.2189,94.7223,0.00646736,0.100057,20.9445,168.319,0.411172,0.0,0.0
999,249.5,37.6848,39.3779,144.942,99.2309,95.4305,0.00643725,0.100198,20.9445,168.309,0.346213,0.0,0.0
1002,250.25,37.2308,38.8064,147.6,99.2325,94.7231,0.00639852,0.100284,20.9445,168.319,0.412315,0.0,0.0
1005,251,37.4019,39.2027,143.893,99.2402,94.9149,0.00633486,0.100419,20.9446,168.299,0.395066,0.0,0.0
1008,251.75,37.9735,39.1549,144.79,99.255,95.4865,0.00626362,0.10058,20.9446,168.299,0.343161,0.0,0.0
1011,252.5,37.6942,38.9445,148.411,99.2659,95.066,0.00619719,0.100815,20.9446,168.289,0.383259,0.0,0.0
1014,253.25,37.7087,39.1422,141.763,99.2643,94.9369,0.00614207,0.100973,20.9446,168.269,0.395163,0.0,0.0
1017,254,37.7334,39.1562,146.122,99.2775,94.7729,0.00610188,0.101017,20.9446,168.249,0.411673,0.0,0.0
1020,254.75,37.2333,38.8759,145.548,99.2908,95.2644,0.00610798,0.100937,20.9446,168.239,0.366997,0.0,0.0
1023,255.5,37.1074,39.499,143.016,99.2856,94.8626,0.00611732,0.100524,20.9447,168.229,0.404007,0.0,0.0
1026,256.25,37.491,39.2991,144.568,99.2795,94.8124,0.00612622,0.100223,20.9449,168.229,0.408164,0.0,0.0
1029,257,37.7878,39.1259,146.885,99.2952,95.127,0.0061274,0.0996691,20.9455,168.239,0.380189,0.0,0.0
1032,257.75,37.8963,39.2552,151.971,99.3073,95.2773,0.00612117,0.0991496,20.9461,168.239,0.36727,0.0,0.0
1035,258.5,37.1497,38.845,144.828,99.3193,95.1303,0.00611206,0.0985732,20.9466,168.239,0.382031,0.0,0.0
1038,259.25,37.3028,38.8682,143.357,99.3201,94.6513,0.00609172,0.097976,20.9475,168.219,0.426859,0.0,0.0
1041,260,37.2025,39.3689,144.812,99.3157,95.3587,0.00606684,0.0974391,20.9488,168.229,0.360456,0.0,0.0
1044,260.75,37.4632,38.7406,145.212,99.3414,94.7825,0.00604022,0.0968741,20.9498,168.219,0.416482,0.0,0.0
1047,261.5,37.2577,39.005,146.166,99.341,95.352,0.0060063,0.0962265,20.9505,168.179,0.363332,0.0,0.0
1050,262.25,37.4831,38.8872,143.855,99.3326,94.4471,0.0059745,0.0956167,20.9515,168.169,0.447122,0.0,0.0
1053,263,37.4124,38.7494,145.857,99.3302,95.1212,0.00594512,0.0950265,20.9524,168.169,0.383851,0.0,0.0
1056,263.75,37.7212,38.9282,139.974,99.3446,95.2026,0.00592106,0.0944477,20.953,168.169,0.377561,0.0,0.0
1059,264.5,37.5026,38.6084,147.191,99.3394,95.2034,0.00590156,0.0938331,20.9535,168.159,0.377018,0.0,0.0
1062,265.25,37.0279,38.8054,146.407,99.343,95.21,0.00588399,0.0932378,20.9539,168.149,0.376721,0.0,0.0
1065,266,37.6764,38.7611,142.241,99.3498,95.0328,0.00588003,0.0926925,20.9547,168.129,0.393852,0.0,0.0
1068,266.75,37.3414,38.8067,148.947,99.3555,94.8863,0.00587845,0.0922949,20.9555,168.139,0.408035,0.0,0.0
1071,267.5,36.737,38.3001,146.415,99.3595,95.2462,0.00587953,0.0917502,20.956,168.119,0.374829,0.0,0.0
1074,268.25,37.4466,38.4868,145.57,99.3619,95.367,0.00587901,0.0911883,20.9564,168.119,0.363807,0.0,0.0
1077,269,37.084,38.7521,145.878,99.3635,94.4877,0.0058764,0.0907083,20.9567,168.109,0.446064,0.0,0.0
1080,269.75,37.1463,38.5996,150.159,99.3723,94.8975,0.0058745,0.0901821,20.9569,168.089,0.408493,0.0,0.0
1083,270.5,37.077,38.5546,144.515,99.3852,94.6293,0.00587311,0.0897551,20.9575,168.099,0.434728,0.0,0.0
1086,271.25,37.4618,38.6735,146.615,99.3896,94.5903,0.00587145,0.0893697,20.9588,168.079,0.438779,0.0,0.0
1089,272,36.485,38.669,145.887,99.3824,94.9963,0.00586912,0.0890063,20.9597,168.089,0.400164,0.0,0.0
1092,272.75,37.2873,38.7049,148.645,99.3876,94.472,0.00586211,0.0886413,20.9604,168.089,0.449696,0.0,0.0
1095,273.5,37.1725,38.5411,144.392,99.3977,95.2262,0.00585205,0.088264,20.9608,168.059,0.380089,0.0,0.0
1098,274.25,37.2741,38.6232,147.644,99.4009,95.4047,0.0058426,0.0878324,20.9612,168.059,0.363772,0.0,0.0
1101,275,37.0809,38.3885,143.318,99.4041,95.3524,0.00583076,0.0874455,20.9614,168.059,0.368921,0.0,0.0
1104,275.75,37.2183,38.9403,145.132,99.4069,94.6804,0.00581283,0.0870112,20.9616,168.049,0.431881,0.0,0.0
1107,276.5,37.254,38.4629,145.094,99.4226,94.8369,0.0057875,0.0866451,20.9618,168.059,0.418635,0.0,0.0
1110,277.25,37.0938,38.2446,143.81,99.4302,94.4724,0.0057443,0.086296,20.9619,168.039,0.453454,0.0,0.0
1113,278,37.1175,38.9933,147.128,99.429,94.8456,0.00569978,0.0860065,20.9619,168.029,0.418394,0.0,0.0
1116,278.75,37.0974,38.4214,146.52,99.4242,95.1154,0.00564504,0.0856194,20.962,168.009,0.392778,0.0,0.0
1119,279.5,36.4054,38.0775,145.704,99.443,94.2897,0.00557514,0.0852549,20.9625,168.019,0.471758,0.0,0.0
1122,280.25,36.9789,38.6193,146.633,99.4398,95.4168,0.00550563,0.0849542,20.963,167.999,0.366128,0.0,0.0
1125,281,37.3434,38.7313,143.095,99.4483,94.5114,0.00544706,0.0846177,20.9634,168.019,0.451404,0.0,0.0
1128,281.75,36.8938,38.6879,144.785,99.4322,95.1631,0.00538952,0.084345,20.9637,168.009,0.389045,0.0,0.0
1131,282.5,37.1214,38.8481,145.914,99.4471,95.5376,0.00534451,0.0841201,20.9639,167.999,0.355556,0.0,0.0
1134,283.25,36.6555,38.4187,144.046,99.4647,94.7609,0.00531726,0.0839315,20.964,167.989,0.4295,0.0,0.0
1137,284,36.7537,38.0273,146.359,99.4587,94.6181,0.00531855,0.0837529,20.9641,167.979,0.442333,0.0,0.0
1140,284.75,37.0421,38.3557,147.977,99.4587,95.5534,0.00533433,0.0836052,20.9645,167.969,0.355131,0.0,0.0
1143,285.5,37.2444,38.2639,141.983,99.4676,95.0245,0.00535216,0.0833412,20.9651,167.969,0.405123,0.0,0.0
1146,286.25,36.764,38.2779,145.79,99.4728,94.9689,0.00538997,0.0830392,20.9655,167.969,0.41078,0.0,0.0
1149,287,36.6937,38.5657,142.918,99.474,94.731,0.00541753,0.0827723,20.9659,167.969,0.433121,0.0,0.0
1152,287.75,37.2982,37.9342,146.914,99.472,94.5126,0.00542174,0.0824997,20.9663,167.949,0.4534,0.0,0.0
1155,288.5,36.2205,38.2918,141.414,99.4832,94.6658,0.00542481,0.0823399,20.967,167.949,0.440046,0.0,0.0
1158,289.25,36.6018,38.556,149.048,99.4856,94.8078,0.00539737,0.0822235,20.9674,167.939,0.426974,0.0,0.0
1161,290,36.8445,38.5954,144.33,99.4848,95.2574,0.00535821,0.0820734,20.9678,167.949,0.384963,0.0,0.0
1164,290.75,37.3872,38.3096,146.845,99.4909,95.0095,0.00531854,0.0818522,20.968,167.929,0.408595,0.0,0.0
1167,291.5,36.8237,38.445,146.934,99.4933,95.0971,0.0052785,0.0816226,20.9682,167.919,0.400639,0.0,0.0
1170,292.25,37.1599,38.4957,145.165,99.5081,95.0336,0.00523839,0.081426,20.9686,167.909,0.407887,0.0,0.0
1173,293,37.1337,38.0219,145.514,99.5121,95.4728,0.00520457,0.0810876,20.9693,167.909,0.367367,0.0,0.0
1176,293.75,36.9795,38.053,148.444,99.4961,95.1175,0.00517658,0.0807976,20.9697,167.909,0.398994,0.0,0.0
1179,294.5,36.4849,38.2767,145.718,99.5158,95.1088,0.00516146,0.0804476,20.9701,167.899,0.401561,0.0,0.0
1182,295.25,36.9776,38.148,145.177,99.5154,94.8256,0.00515044,0.0800817,20.9704,167.899,0.427954,0.0,0.0
1185,296,36.339,38.0505,145.31,99.521,95.1602,0.0051565,0.0796784,20.9705,167.889,0.39723,0.0,0.0
1188,296.75,36.8246,38.0505,148.103,99.5182,94.1834,0.0051583,0.0793161,20.9706,167.889,0.48845,0.0,0.0
1191,297.5,36.622,37.8556,144.392,99.5246,95.433,0.00515871,0.0790228,20.9714,167.869,0.372178,0.0,0.0
1194,298.25,36.7201,37.1742,147.746,99.5358,95.1478,0.00512554,0.0787115,20.9719,167.869,0.399713,0.0,0.0
1197,299,36.562,37.9344,146.47,99.5431,95.0095,0.00507733,0.0784846,20.9723,167.869,0.413247,0.0,0.0
1200,299.75,36.5941,37.9948,146.663,99.5262,95.7514,0.0050011,0.078232,20.9726,167.859,0.342792,0.0,0.0
1203,300.5,36.9257,37.9872,147.228,99.5459,95.198,0.00489982,0.077897,20.9728,167.859,0.395929,0.0,0.0
1206,301.25,36.5894,37.8393,149.11,99.5435,95.6102,0.00481885,0.077579,20.9729,167.839,0.357408,0.0,0.0
1209,302,36.7045,37.8484,146.517,99.5559,94.9763,0.00474764,0.0772887,20.9731,167.849,0.417491,0.0,0.0
1212,302.75,36.638,38.2952,145.71,99.5511,95.3989,0.00469449,0.0770908,20.9734,167.839,0.377703,0.0,0.0
1215,303.5,36.5267,37.5036,148.36,99.5511,95.6115,0.00464873,0.0769523,20.974,167.829,0.357973,0.0,0.0
1218,304.25,36.6528,37.6564,143.297,99.5628,94.8431,0.0046043,0.0768319,20.9745,167.819,0.430547,0.0,0.0
1221,305,36.1392,37.5177,148.395,99.5865,95.8647,0.00454606,0.0767082,20.9748,167.809,0.337671,0.0,0.0
1224,305.75,35.8557,37.6913,145.099,99.5764,95.2599,0.00447705,0.0765565,20.975,167.809,0.392889,0.0,0.0
1227,306.5,36.3022,37.9091,147.236,99.5684,95.0203,0.00436011,0.076405,20.976,167.789,0.414493,0.0,0.0
1230,307.25,36.6732,37.7485,143.313,99.568,95.7061,0.00429157,0.0762339,20.9764,167.819,0.350703,0.0,0.0
1233,308,36.7016,37.6946,146.525,99.5828,95.0349,0.00418048,0.0760355,20.9768,167.799,0.414425,0.0,0.0
1236,308.75,36.0619,37.8305,145.111,99.5909,95.1374,0.00408588,0.075774,20.9772,167.799,0.405582,0.0,0.0
1239,309.5,36.6164,37.6615,142.82,99.566,95.506,0.00398013,0.0754153,20.9774,167.789,0.369079,0.0,0.0
1242,310.25,36.5301,37.8025,144.236,99.5808,95.2441,0.00388735,0.0752679,20.9776,167.779,0.39475,0.0,0.0
1245,311,36.479,38.1366,146.854,99.5736,94.8323,0.00382952,0.0749419,20.9778,167.779,0.432521,0.0,0.0
1248,311.75,36.8187,37.4325,141.68,99.5897,95.4832,0.00380058,0.0746361,20.9781,167.789,0.373308,0.0,0.0
1251,312.5,36.3935,37.7079,147.243,99.5981,95.3275,0.00379494,0.074384,20.9783,167.779,0.388525,0.0,0.0
1254,313.25,36.1414,37.6856,149.42,99.5921,95.4168,0.00379957,0.0742003,20.9785,167.769,0.379692,0.0,0.0
1257,314,36.583,37.6016,144.143,99.6033,94.9689,0.00380102,0.0739885,20.9787,167.769,0.422409,0.0,0.0
1260,314.75,36.7661,37.3456,150.283,99.6073,95.2121,0.00379875,0.0737114,20.9788,167.769,0.400087,0.0,0.0
1263,315.5,36.4068,37.3763,148.658,99.609,95.2125,0.00379886,0.0734212,20.9788,167.769,0.400191,0.0,0.0
1266,316.25,36.094,37.9402,147.479,99.6045,95.2154,0.00379893,0.0731482,20.9789,167.749,0.399527,0.0,0.0
1269,317,35.9712,37.4187,145.096,99.6186,95.7273,0.00382699,0.0728714,20.9793,167.749,0.353248,0.0,0.0
1272,317.75,35.7322,37.8279,146.414,99.6178,94.9705,0.00384873,0.0726288,20.9799,167.739,0.423541,0.0,0.0
1275,318.5,35.7638,37.7106,147.204,99.6282,95.1328,0.00385905,0.0724345,20.9803,167.739,0.409332,0.0,0.0
1278,319.25,36.0649,37.7827,149.172,99.6146,95.4699,0.00385331,0.0723122,20.9806,167.719,0.376759,0.0,0.0
1281,320,36.2002,37.267,143.029,99.6238,94.5878,0.00381111,0.0722231,20.9808,167.709,0.459878,0.0,0.0
1284,320.75,36.0588,37.6483,146.804,99.623,94.9373,0.00376413,0.0721193,20.9809,167.709,0.427106,0.0,0.0
1287,321.5,36.1342,37.3101,144.029,99.6371,95.6131,0.0036827,0.0719618,20.981,167.699,0.365471,0.0,0.0
1290,322.25,36.7877,37.309,146.06,99.6234,95.7045,0.00361599,0.0717763,20.9809,167.699,0.355792,0.0,0.0
1293,323,36.2815,37.4646,147.308,99.6515,95.0722,0.00356423,0.0715797,20.9804,167.689,0.417054,0.0,0.0
1296,323.75,35.9876,37.6534,148.743,99.6479,95.4936,0.00354854,0.0713546,20.98,167.679,0.377529,0.0,0.0
1299,324.5,36.1855,37.6435,146.979,99.6431,95.0905,0.0035514,0.0711557,20.9797,167.669,0.414601,0.0,0.0
1302,325.25,35.9787,37.7669,139.587,99.66,95.0261,0.00355558,0.0710107,20.9795,167.649,0.422103,0.0,0.0
1305,326,36.6189,37.2717,146.486,99.6335,95.5293,0.00354814,0.070905,20.9794,167.669,0.372928,0.0,0.0
1308,326.75,35.7613,37.1183,149.017,99.6535,95.4454,0.00352311,0.0708279,20.9793,167.659,0.382501,0.0,0.0
1311,327.5,35.8486,37.1906,150.209,99.66,95.7397,0.00349652,0.0707523,20.9792,167.649,0.355777,0.0,0.0
1314,328.25,35.8279,37.876,146.012,99.6447,95.8713,0.00343337,0.0706155,20.9796,167.639,0.342241,0.0,0.0
1317,329,36.2355,37.5158,145.262,99.6535,95.2545,0.00337266,0.0704378,20.9802,167.629,0.400257,0.0,0.0
1320,329.75,36.0413,37.4502,144.276,99.6692,94.9697,0.00332214,0.0702348,20.9807,167.649,0.428194,0.0,0.0
1323,330.5,36.0964,37.3634,148.061,99.6688,95.9768,0.00328409,0.0700323,20.9813,167.639,0.334641,0.0,0.0
1326,331.25,35.7941,37.39,147.864,99.6568,94.7733,0.00325583,0.0698476,20.9822,167.629,0.445434,0.0,0.0
1329,332,35.7994,37.5042,142.643,99.6503,95.4882,0.00323174,0.0696891,20.9828,167.619,0.378244,0.0,0.0
1332,332.75,36.3908,37.429,149.943,99.672,94.9365,0.00321051,0.0695191,20.9833,167.619,0.431545,0.0,0.0
1335,333.5,36.2122,37.2207,143.114,99.668,95.5791,0.00319346,0.069372,20.9836,167.629,0.37138,0.0,0.0
1338,334.25,35.8316,37.2631,144.568,99.6588,94.8601,0.0031786,0.0691966,20.9839,167.619,0.437501,0.0,0.0
1341,335,35.3788,37.038,146.249,99.6672,95.0403,0.00316607,0.069004,20.9842,167.609,0.421429,0.0,0.0
1344,335.75,35.6513,37.3488,148.967,99.6688,94.9581,0.00315584,0.0688023,20.9844,167.588,0.429243,0.0,0.0
1347,336.5,36.3585,37.1369,146.273,99.6716,94.8929,0.00314315,0.0686552,20.9845,167.598,0.43558,0.0,0.0
1350,337.25,36.3556,37.5998,148.134,99.6724,95.4521,0.0031339,0.068451,20.9846,167.588,0.383564,0.0,0.0
1353,338,35.8668,37.3699,141.437,99.6584,95.572,0.00311321,0.0683021,20.9847,167.598,0.371177,0.0,0.0
1356,338.75,35.9849,37.5581,145.178,99.6712,95.5729,0.00309302,0.0681649,20.9848,167.598,0.372244,0.0,0.0
1359,339.5,36.0984,36.8545,147.666,99.6656,94.8535,0.00306958,0.0680159,20.9848,167.598,0.438729,0.0,0.0
1362,340.25,35.4255,37.0383,144.61,99.6777,95.0917,0.00303681,0.0678528,20.9847,167.588,0.417558,0.0,0.0
1365,341,35.5714,37.066,146.249,99.6592,95.8651,0.00300585,0.0677107,20.9845,167.568,0.344103,0.0,0.0
1368,341.75,35.7413,37.0549,143.593,99.666,95.1897,0.00297119,0.0675656,20.9844,167.558,0.407393,0.0,0.0
1371,342.5,35.8396,37.1203,153.087,99.6728,95.1196,0.00294069,0.067442,20.9843,167.578,0.414536,0.0,0.0
1374,343.25,35.5295,37.614,147.1,99.6684,95.0245,0.00292579,0.0673519,20.9843,167.558,0.423008,0.0,0.0
1377,344,35.7825,36.8523,146.038,99.6535,95.3603,0.00291805,0.0671892,20.9842,167.558,0.39041,0.0,0.0
1380,344.75,35.7798,36.6137,148.402,99.6499,95.3242,0.00292707,0.0670026,20.9846,167.518,0.393446,0.0,0.0
1383,345.5,35.6952,36.471,147.076,99.6668,94.8713,0.00294246,0.0668304,20.9851,167.528,0.437168,0.0,0.0
1386,346.25,35.828,37.2341,146.309,99.664,95.5658,0.00295808,0.0666927,20.9855,167.548,0.372255,0.0,0.0
1389,347,35.5682,36.8581,149.347,99.6636,94.8186,0.00295552,0.0665378,20.9857,167.548,0.44181,0.0,0.0
1392,347.75,35.8953,36.9862,146.018,99.6676,95.482,0.00293534,0.0664018,20.9859,167.568,0.380359,0.0,0.0
1395,348.5,35.8274,36.485,145.463,99.6688,94.9826,0.00291282,0.0662832,20.986,167.528,0.426957,0.0,0.0
1398,349.25,35.6069,36.8923,146.1,99.6748,95.7539,0.00286681,0.0662376,20.9861,167.528,0.355792,0.0,0.0
1401,350,35.4464,36.7575,143.541,99.6628,95.1922,0.00282595,0.0661859,20.9862,167.498,0.406875,0.0,0.0
1404,350.75,35.8011,36.9204,146.373,99.6572,95.6472,0.00279304,0.066087,20.9863,167.498,0.364103,0.0,0.0
1407,351.5,35.9554,36.9104,144.83,99.6564,95.3238,0.00277149,0.0659374,20.9863,167.478,0.394056,0.0,0.0
1410,352.25,35.7182,36.6374,146.37,99.6716,94.3607,0.00275682,0.0658354,20.9863,167.478,0.485441,0.0,0.0
1413,353,35.9453,36.9346,149.946,99.662,94.7061,0.00276004,0.0657734,20.9863,167.508,0.452192,0.0,0.0
1416,353.75,35.8926,36.6803,145.771,99.6451,95.2366,0.00276606,0.0657553,20.9864,167.488,0.401167,0.0,0.0
1419,354.5,35.935,37.2201,150.61,99.6588,95.0602,0.00277008,0.0657537,20.9864,167.478,0.418821,0.0,0.0
1422,355.25,35.6655,36.8732,136.747,99.6652,95.4583,0.00276971,0.0656846,20.9864,167.468,0.382342,0.0,0.0
1425,356,35.5465,36.6779,143.297,99.658,95.0627,,0.0656052,,167.468,0.418517,0.0,0.0
1428,356.75,35.561,36.7357,142.392,99.6359,94.6907,,0.0655474,,167.448,0.451307,0.0,0.0
1431,357.5,35.5247,37.0702,147.815,99.6527,95.0129,,0.065544,,167.468,0.422699,0.0,0.0
1434,358.25,35.5762,36.5943,144.959,99.6527,95.1644,,0.0655279,,167.458,0.408572,0.0,0.0
1437,359,35.3437,36.991,146.09,99.6588,94.8148,,,,167.468,0.441731,0.0,0.0
1440,359.75,35.7915,37.1544,146.949,99.6451,94.677,,,,167.438,0.453412,0.0,0.0
1443,360.5,35.7161,36.8655,144.701,99.6539,95.154,,,,167.458,0.409646,0.0,0.0
1446,361.25,36.1587,37.1031,146.144,99.6544,95.1187,,,,167.458,0.41297,0.0,0.0
1449,362,35.5004,37.0952,146.499,99.6523,94.5284,,,,167.448,0.467982,0.0,0.0
1452,362.75,35.7982,36.7429,143.575,99.6403,95.3225,,,,167.458,0.392742,0.0,0.0
1455,363.5,35.2463,37.3135,143.17,99.6379,94.956,,,,167.428,0.426684,0.0,0.0
1458,364.25,35.4387,37.1501,148.937,99.6463,95.4832,,,,167.438,0.37835,0.0,0.0
1461,365,35.4321,36.9045,148.759,99.6475,95.7032,,,,167.458,0.358051,0.0,0.0
1464,365.75,35.9241,36.9075,147.16,99.6387,95.4118,,,,167.428,0.384302,0.0,0.0
1467,366.5,35.6944,36.8722,148.398,99.6363,95.2752,,,,167.448,0.396788,0.0,0.0
1468,366.75,35.7411,36.8965,144.658,99.627,94.8427,,,,167.428,0.436307,0.0,0.0