File: 01_Data/Cotton_Rug/Cone/Cotton_Rug_Cone_HF75Scan_220321_R3.csv
Names,Time,Stack TC,Smoke TC,Exh Press,Smoke Comp,Smoke Meas,CO Meter,CO2 Meter,O2 Meter,Sample Mass,Ext Coeff,Start Test,Flame Verif
Chan Gain,,500,500,1,1,1,1,1,1,1,1,1.0,1.0
Offset,,0,0,0.129198,0,0,0,0,0,0,0,0.0,0.0
Gain,,1,1,25.011,13.1874,13.4895,1,1,1,1.00089,1.01187,1.0,1.0
Units,sec,C,C,Pa,%,%,%,%,%,g,/m,,
Baseline,,44.4862,46.0741,124.696,99.1636,94.1917,0.000536254,0.0711532,20.9907,-836.061,0.456625,,
3,0.5,43.1549,45.2637,129.128,99.2024,93.0798,0.00079265,0.0721613,20.9913,183.634,0.565452,0.0,0.0
6,1.25,42.6032,44.6695,124.249,99.1211,92.3902,0.000904607,0.0726013,20.9897,183.764,0.624174,0.0,0.0
9,2,43.0123,44.1695,123.349,99.0362,92.3005,0.00103362,0.0732383,20.9873,183.704,0.625193,0.0,0.0
12,2.75,42.6579,44.4553,129.172,98.9174,91.3767,0.00117743,0.0740494,20.9847,183.654,0.703829,0.0,0.0
15,3.5,42.676,44.359,125.443,98.8418,89.6436,0.00132826,0.0762314,20.9807,183.694,0.867005,0.0,0.0
18,4.25,42.6467,44.6399,126.464,98.7428,88.3444,0.00151686,0.0802895,20.9742,183.714,0.987693,0.0,0.0
21,5,42.5939,44.4938,120.443,98.6542,89.8379,0.00175816,0.0975472,20.9695,183.524,0.830928,0.0,0.0
24,5.75,42.9495,44.7005,115.076,98.5564,93.6775,0.00193406,0.119689,20.9464,183.494,0.45065,0.0,1.0
27,6.5,42.9387,44.7253,112.814,98.4852,93.5063,0.00218093,0.15218,20.9214,183.344,0.460475,0.0,1.0
30,7.25,42.9348,45.618,107.37,98.4148,93.5215,0.00245063,0.199948,20.8722,183.324,0.452678,0.0,1.0
33,8,43.3767,45.2843,105.469,98.3476,93.009,0.0027567,0.245037,20.8072,183.193,0.495392,0.0,1.0
36,8.75,43.7219,46.0664,108.968,98.2695,92.5388,0.00305251,0.306115,20.7331,183.013,0.533322,0.0,1.0
39,9.5,44.7758,46.7318,105.535,98.2204,90.8469,0.00338276,0.362667,20.6532,182.883,0.692675,0.0,1.0
42,10.25,45.1363,47.1095,102.97,98.1773,90.539,0.00367236,0.430459,20.5702,182.703,0.718919,0.0,1.0
45,11,46.1184,47.8544,101.891,98.1484,88.6535,0.00403349,0.493633,20.5012,182.523,0.903091,0.0,1.0
48,11.75,46.7451,48.7273,97.4553,98.1037,87.4078,0.00442276,0.553021,20.4274,182.383,1.02466,0.0,1.0
51,12.5,47.4422,49.972,100.765,98.084,88.5959,0.00481266,0.609088,20.3579,182.233,0.903038,0.0,0.0
54,13.25,49.0453,50.7452,100.023,98.0824,87.0616,0.00526919,0.66168,20.2908,182.042,1.05795,0.0,0.0
57,14,49.9976,51.9283,97.5225,98.0803,86.4417,0.00571686,0.705015,20.2312,181.912,1.1212,0.0,0.0
60,14.75,50.5807,53.2409,102.5,98.0828,85.6138,0.00620738,0.74916,20.1832,181.742,1.20684,0.0,0.0
63,15.5,51.9167,54.6102,101.644,98.09,85.0667,0.00661408,0.787099,20.1368,181.522,1.2644,0.0,0.0
66,16.25,52.9031,55.8193,92.4261,98.1222,85.0893,0.00709893,0.820363,20.0953,181.442,1.26495,0.0,0.0
69,17,54.0698,56.8486,98.6712,98.1661,86.1502,0.0074524,0.850003,20.0619,181.252,1.15894,0.0,0.0
72,17.75,55.0526,58.1127,99.52,98.2071,84.7929,0.00800669,0.88267,20.0282,181.082,1.3036,0.0,0.0
75,18.5,56.1732,59.3244,96.0975,98.2369,84.7818,0.00857992,0.915667,19.9938,180.911,1.30745,0.0,0.0
78,19.25,57.2639,60.2327,99.8528,98.2924,83.2479,0.00906993,0.943637,19.9585,180.691,1.47453,0.0,0.0
81,20,57.6821,62.2392,95.9089,98.3633,83.1603,0.00976519,0.982096,19.9225,180.451,1.49028,0.0,0.0
84,20.75,59.4434,62.8475,99.5536,98.3987,84.3792,0.0104884,1.01013,19.8807,180.301,1.36431,0.0,0.0
87,21.5,60.5138,64.2354,92.1475,98.4595,82.7449,0.0112277,1.05085,19.831,180.071,1.5434,0.0,0.0
90,22.25,61.7035,65.4983,100.611,98.5456,80.2053,0.0119719,1.09726,19.7713,179.79,1.82785,0.0,0.0
93,23,62.8938,67.0999,94.593,98.6092,77.3278,0.0128226,1.14647,19.7055,179.59,2.15787,0.0,0.0
96,23.75,63.8621,68.685,92.7345,98.6772,77.1413,0.013596,1.19648,19.648,179.37,2.18543,0.0,0.0
99,24.5,65.2669,69.8741,99.088,98.7311,75.9125,0.0141751,1.25588,19.6013,179.12,2.3328,0.0,0.0
102,25.25,66.9088,71.0178,92.3917,98.8116,75.6786,0.0150641,1.31289,19.5399,178.88,2.36742,0.0,0.0
105,26,67.9998,72.8384,89.5951,98.8897,75.2098,0.0159366,1.3603,19.4823,178.559,2.4296,0.0,0.0
108,26.75,69.7504,74.0502,90.7072,98.9553,73.9295,0.0167959,1.41492,19.4212,178.369,2.58788,0.0,0.0
111,27.5,70.9117,76.1908,90.7034,99.0092,73.2848,0.0176583,1.45029,19.3767,178.089,2.67046,0.0,0.0
114,28.25,72.5658,77.8801,87.3595,99.0853,71.5645,0.0183876,1.50072,19.3252,177.819,2.88812,0.0,0.0
117,29,73.6071,79.7357,91.1018,99.1448,74.0517,0.0190392,1.5492,19.2794,177.548,2.5902,0.0,0.0
120,29.75,75.8378,80.8421,84.1598,99.1871,71.4471,0.0197193,1.58733,19.2376,177.298,2.9118,0.0,0.0
123,30.5,76.7186,82.9268,86.2657,99.2221,73.1168,0.0204063,1.61989,19.2018,177.068,2.70989,0.0,0.0
126,31.25,78.3225,84.4781,82.776,99.2696,71.7168,0.0209071,1.64362,19.1734,176.838,2.88575,0.0,0.0
129,32,79.6748,86.061,88.0327,99.3163,73.3918,0.0214913,1.66797,19.1478,176.618,2.68499,0.0,0.0
132,32.75,80.7179,87.5601,85.4879,99.3444,72.8336,0.0219759,1.68731,19.127,176.317,2.75527,0.0,0.0
135,33.5,82.3746,89.7643,82.4127,99.3509,70.2875,0.0224298,1.70209,19.1106,176.057,3.0717,0.0,0.0
138,34.25,83.8022,91.2892,90.4263,99.373,72.2626,0.0229029,1.71365,19.0987,175.817,2.82769,0.0,0.0
141,35,84.5505,92.5486,89.5852,99.3762,71.1643,0.0233026,1.72209,19.0899,175.547,2.96392,0.0,0.0
144,35.75,85.8755,94.0921,89.0524,99.3951,70.1582,0.0236281,1.7254,19.0836,175.346,3.09199,0.0,0.0
147,36.5,87.0639,95.2023,94.7762,99.3988,71.5183,0.0238839,1.72476,19.084,175.096,2.92188,0.0,0.0
150,37.25,88.7125,97.2442,83.0386,99.3674,69.8951,0.0240372,1.72048,19.0897,174.856,3.12285,0.0,0.0
153,38,89.5831,98.6504,92.9634,99.3577,71.0548,0.0241489,1.71308,19.0961,174.636,2.97593,0.0,0.0
156,38.75,91.2402,99.966,89.9851,99.3456,70.4196,0.0240587,1.69825,19.1088,174.386,3.05456,0.0,0.0
159,39.5,92.3797,101.469,86.7382,99.3243,70.4278,0.0238552,1.6768,19.1215,174.135,3.05162,0.0,0.0
162,40.25,92.4357,102.104,86.2825,99.2929,72.3841,0.0236482,1.65663,19.1485,173.935,2.80562,0.0,0.0
165,41,94.0808,103.243,89.9103,99.2639,70.6349,0.0231873,1.61731,19.1855,173.705,3.02016,0.0,0.0
168,41.75,95.3209,104.572,93.7969,99.2342,71.5488,0.0226595,1.58864,19.2371,173.595,2.90339,0.0,0.0
171,42.5,96.323,105.361,97.8102,99.1919,73.5948,0.0220761,1.53049,19.3039,173.345,2.64935,0.0,0.0
174,43.25,96.4928,106.44,97.4546,99.1432,71.9049,0.0214511,1.46253,19.397,173.184,2.85119,0.0,0.0
177,44,97.2686,107.306,99.1567,99.1207,71.9399,0.0206254,1.38945,19.4934,173.044,2.84485,0.0,0.0
180,44.75,97.5189,107.543,105.104,99.0788,74.0785,0.0197891,1.31458,19.5759,172.924,2.58108,0.0,0.0
183,45.5,98.1735,108.197,101.13,99.0527,75.0389,0.0187784,1.22305,19.6779,172.814,2.4644,0.0,0.0
186,46.25,98.0593,108.679,106.938,99.002,77.937,0.0176348,1.13092,19.7679,172.694,2.1235,0.0,0.0
189,47,98.1353,108.437,108.941,98.9673,80.6985,0.0164333,1.05293,19.8604,172.624,1.81134,0.0,0.0
192,47.75,98.0295,108.683,107.308,98.9436,81.0159,0.0152252,0.957443,19.9647,172.544,1.77437,0.0,0.0
195,48.5,97.7852,108.652,110.55,98.9211,82.6457,0.0138648,0.876611,20.0559,172.454,1.59556,0.0,0.0
198,49.25,97.4661,108.109,112.801,98.8824,83.758,0.0126816,0.798495,20.1576,172.394,1.47343,0.0,0.0
201,50,97.3597,107.634,112.269,98.8547,85.3997,0.0114914,0.720084,20.2474,172.324,1.29864,0.0,0.0
204,50.75,96.6949,107.421,111.451,98.8361,86.128,0.010335,0.652641,20.3128,172.294,1.22161,0.0,0.0
207,51.5,96.5227,107.024,114.114,98.8667,86.7879,0.0093688,0.599093,20.3724,172.254,1.15661,0.0,0.0
210,52.25,95.834,106.868,114.767,98.9814,86.8702,0.00851888,0.547865,20.4209,172.224,1.15848,0.0,0.0
213,53,95.2098,105.762,112.687,99.1022,87.33,0.00765031,0.505031,20.4671,172.114,1.12244,0.0,0.0
216,53.75,94.6236,105.404,115.894,99.2201,87.132,0.00694452,0.471465,20.5043,172.104,1.15315,0.0,0.0
219,54.5,93.8231,104.664,118.92,99.3195,87.6767,0.00637143,0.446996,20.5375,172.043,1.10672,0.0,0.0
222,55.25,93.4518,104,112.695,99.4032,86.9143,0.00590641,0.418783,20.5711,172.033,1.19172,0.0,0.0
225,56,93.5425,103.145,116.768,99.4612,88.1023,0.005514,0.396829,20.601,171.983,1.07639,0.0,0.0
228,56.75,92.6752,102.969,115.334,99.5336,86.9455,0.00520798,0.378452,20.6265,171.923,1.20017,0.0,0.0
231,57.5,91.8569,101.924,112.974,99.6113,87.1407,0.00497506,0.362927,20.6475,171.843,1.18719,0.0,0.0
234,58.25,92.0071,101.75,115.5,99.6708,86.8821,0.00480303,0.350491,20.6647,171.833,1.21887,0.0,0.0
237,59,91.1882,100.732,117.719,99.6861,87.1118,0.00467761,0.340554,20.6772,171.793,1.19679,0.0,0.0
240,59.75,90.8657,100.138,113.875,99.7127,86.9291,0.00458085,0.332636,20.6877,171.743,1.2178,0.0,0.0
243,60.5,90.2396,99.7049,115.048,99.7453,86.8628,0.00449411,0.325958,20.6963,171.693,1.22747,0.0,0.0
246,61.25,89.5164,99.4564,121.004,99.7545,87.845,0.00442396,0.320739,20.7035,171.663,1.12849,0.0,0.0
249,62,89.3108,98.3695,118.033,99.7368,86.9731,0.00435683,0.316336,20.7091,171.603,1.21545,0.0,0.0
252,62.75,88.1829,98.4495,118.459,99.7328,87.0859,0.00431163,0.312735,20.7139,171.583,1.20359,0.0,0.0
255,63.5,88.3954,97.3596,116.175,99.7155,86.2441,0.00429149,0.30944,20.7181,171.513,1.28828,0.0,0.0
258,64.25,87.5417,96.9242,116.214,99.6845,86.1313,0.0042829,0.306251,20.7232,171.503,1.29713,0.0,0.0
261,65,87.8043,96.5489,114.618,99.6398,86.4021,0.00427888,0.303209,20.7281,171.453,1.26528,0.0,0.0
264,65.75,86.8888,96.2554,115.885,99.5923,87.048,0.00426415,0.30034,20.7317,171.433,1.19494,0.0,0.0
267,66.5,86.6038,95.4351,114.589,99.5304,86.3951,0.00423322,0.297041,20.7362,171.383,1.25625,0.0,0.0
270,67.25,85.5756,95.5054,118.711,99.4785,87.5054,0.00417871,0.293573,20.7408,171.343,1.13827,0.0,0.0
273,68,84.8626,94.6605,116.617,99.3931,86.9945,0.00412128,0.290592,20.7448,171.313,1.18263,0.0,0.0
276,68.75,84.2488,94.0685,115.507,99.3102,87.866,0.00404918,0.286819,20.7489,171.283,1.08675,0.0,0.0
279,69.5,84.4924,93.8189,116.912,99.2611,88.6618,0.00395808,0.283335,20.7533,171.233,1.00233,0.0,0.0
282,70.25,84.3221,92.7787,113.769,99.28,88.1814,0.00385909,0.279539,20.7582,171.233,1.05225,0.0,0.0
285,71,84.1402,92.4386,114.711,99.2933,88.8454,0.00380367,0.274769,20.7621,171.203,0.986851,0.0,0.0
288,71.75,83.4287,92.1802,116.559,99.3368,89.1858,0.00373218,0.269864,20.7676,171.183,0.956788,0.0,0.0
291,72.5,83.0107,92.1815,117.2,99.3714,89.8902,0.0036769,0.26568,20.7732,171.173,0.890056,0.0,0.0
294,73.25,82.6871,91.3556,118.602,99.4322,89.9186,0.00363411,0.260146,20.7782,171.153,0.892678,0.0,0.0
297,74,82.2838,90.7603,117.723,99.4595,90.4645,0.00360447,0.256654,20.7834,171.103,0.841399,0.0,0.0
300,74.75,81.4864,90.2082,119.066,99.5018,90.5295,0.00358734,0.251768,20.7882,171.073,0.838789,0.0,0.0
303,75.5,81.2348,89.828,119.372,99.5489,91.2647,0.00358195,0.246346,20.7951,171.033,0.771193,0.0,0.0
306,76.25,80.8742,89.5398,115.138,99.6169,91.301,0.00359409,0.241601,20.7983,171.023,0.773733,0.0,0.0
309,77,80.5898,88.6936,115.875,99.6491,91.4611,0.00365067,0.235977,20.8043,170.983,0.761046,0.0,0.0
312,77.75,80.3924,88.1429,120.567,99.6873,92.1124,0.00373421,0.231877,20.8102,170.973,0.701472,0.0,0.0
315,78.5,79.206,88.5357,119.557,99.7332,92.1169,0.0038361,0.225398,20.8158,170.942,0.70512,0.0,0.0
318,79.25,79.1557,87.5728,119.744,99.7811,92.3651,0.00394961,0.222024,20.823,170.902,0.685495,0.0,0.0
321,80,78.8134,87.1682,120.01,99.8225,92.4903,0.00406058,0.217322,20.8282,170.892,0.677163,0.0,0.0
324,80.75,78.8807,86.5905,119.893,99.8515,92.3985,0.00418975,0.212625,20.8327,170.892,0.688553,0.0,0.0
327,81.5,78.4006,85.7146,120.172,99.9014,92.841,0.00432476,0.208448,20.837,170.862,0.650578,0.0,0.0
330,82.25,77.5489,86.3216,120.333,99.9312,92.9633,0.00443633,0.204731,20.8406,170.842,0.641542,0.0,0.0
333,83,77.1222,85.5418,120.854,99.9646,92.8558,0.00454016,0.201425,20.8445,170.812,0.654773,0.0,0.0
336,83.75,76.4447,85.6901,126.56,99.9867,93.0077,0.00462476,0.198659,20.8482,170.772,0.64223,0.0,0.0
339,84.5,76.8115,84.1648,120.292,100.007,92.9283,0.00469144,0.196034,20.8518,170.782,0.651601,0.0,0.0
342,85.25,76.0886,84.3865,124.102,100.033,92.948,0.00475073,0.193282,20.8552,170.742,0.652071,0.0,0.0
345,86,75.4099,83.635,119.61,100.061,93.2082,0.00480859,0.190998,20.8577,170.752,0.629689,0.0,0.0
348,86.75,75.0486,83.7094,123.655,100.062,93.3087,0.00486987,0.188858,20.8595,170.702,0.620235,0.0,0.0
351,87.5,75.2648,82.8661,119.778,100.072,93.2943,0.0049472,0.186755,20.8621,170.692,0.622535,0.0,0.0
354,88.25,74.3808,82.6974,119.499,100.085,92.9023,0.00504466,0.18487,20.8639,170.682,0.661006,0.0,0.0
357,89,74.4278,81.9945,118.725,100.089,93.2547,0.00513576,0.183185,20.8656,170.682,0.627723,0.0,0.0
360,89.75,74.11,81.3465,118.757,100.088,93.0806,0.00522458,0.181681,20.8671,170.632,0.644277,0.0,0.0
363,90.5,73.7651,81.198,117.562,100.07,93.2691,0.00531303,0.180248,20.8689,170.622,0.62471,0.0,0.0
366,91.25,73.6627,80.7008,119.38,100.064,93.2737,0.00542403,0.179061,20.8704,170.642,0.623743,0.0,0.0
369,92,72.8268,80.7331,120.225,100.06,93.6499,0.00554991,0.177738,20.872,170.592,0.587617,0.0,0.0
372,92.75,72.3438,80.5197,117.029,100.039,93.2066,0.00568466,0.17644,20.8728,170.572,0.627953,0.0,0.0
375,93.5,72.4538,80.2439,120.395,100.006,93.3819,0.00581402,0.175379,20.8735,170.562,0.608304,0.0,0.0
378,94.25,71.8181,79.3603,117.45,99.9835,93.2304,0.00596155,0.174407,20.8739,170.552,0.620715,0.0,0.0
381,95,71.3013,79.1571,117.914,99.9634,93.3865,0.00609605,0.17316,20.8747,170.542,0.604087,0.0,0.0
384,95.75,71.4259,78.8036,121.134,99.9207,93.3004,0.00620545,0.171952,20.8757,170.502,0.608479,0.0,0.0
387,96.5,70.8278,78.603,120.966,99.8712,93.2663,0.00629667,0.170562,20.8768,170.492,0.607333,0.0,0.0
390,97.25,71.1712,77.8478,117.603,99.8378,93.202,0.00637451,0.169011,20.8781,170.472,0.610476,0.0,0.0
393,98,70.1312,77.3681,119.66,99.7823,93.4239,0.00643923,0.167485,20.8799,170.462,0.584432,0.0,0.0
396,98.75,69.955,77.3591,125.509,99.7477,93.0234,0.00650002,0.166085,20.8811,170.462,0.61949,0.0,0.0
399,99.5,69.5974,76.9327,122.84,99.6809,93.0736,0.0065557,0.164789,20.8822,170.442,0.608752,0.0,0.0
402,100.25,69.2501,76.9815,123.043,99.6241,93.1963,0.00660112,0.163728,20.8834,170.422,0.592006,0.0,0.0
405,101,69.1352,76.4105,118.23,99.5771,93.1391,0.00665443,0.162592,20.8842,170.422,0.593261,0.0,0.0
408,101.75,68.7467,75.7626,121.471,99.5263,92.946,0.00671515,0.161534,20.8849,170.422,0.607159,0.0,0.0
411,102.5,68.5275,75.2148,120.115,99.4511,92.8756,0.00678208,0.160633,20.8855,170.392,0.60717,0.0,0.0
414,103.25,67.9444,75.3008,120.793,99.4044,93.1135,0.00687891,0.159846,20.8863,170.402,0.580291,0.0,0.0
417,104,67.9543,75.1729,121.703,99.3344,92.9484,0.00698995,0.159217,20.8872,170.382,0.589787,0.0,0.0
420,104.75,67.5713,74.7431,123.673,99.2837,92.743,0.00710506,0.158492,20.8879,170.352,0.604892,0.0,0.0
423,105.5,66.7388,73.9828,122.122,99.212,92.9575,0.00723233,0.157881,20.8884,170.342,0.577982,0.0,0.0
426,106.25,67.3635,73.5398,120.605,99.1517,93.0423,0.00734285,0.157292,20.8888,170.312,0.564486,0.0,0.0
429,107,67.0164,73.5273,121.617,99.0853,92.9069,0.00743099,0.156636,20.8891,170.342,0.57147,0.0,0.0
432,107.75,66.4136,73.7842,119.739,99.043,92.8447,0.00751933,0.156128,20.8893,170.322,0.573625,0.0,0.0
435,108.5,66.4427,73.3178,123.132,98.9718,92.7817,0.00760335,0.155705,20.8894,170.302,0.573262,0.0,0.0
438,109.25,66.0042,72.6786,120.683,98.9142,92.4512,0.00765749,0.155254,20.8899,170.302,0.59978,0.0,0.0
441,110,65.6732,72.7071,117.46,98.8575,92.8007,0.00774671,0.154737,20.8905,170.272,0.561194,0.0,0.0
444,110.75,65.3979,72.2196,118.478,98.8116,92.4767,0.00784317,0.15428,20.891,170.242,0.588115,0.0,0.0
447,111.5,65.4134,71.8332,124.782,98.7573,92.699,0.00794779,0.153722,20.8913,170.262,0.561924,0.0,0.0
450,112.25,64.9609,71.83,122.404,98.6868,92.6352,0.00807366,0.153436,20.8915,170.252,0.561702,0.0,0.0
453,113,64.9637,71.5204,121.572,98.641,92.3676,0.00820398,0.153024,20.8917,170.252,0.583252,0.0,0.0
456,113.75,64.7309,71.084,124.664,98.5894,92.417,0.00832878,0.152744,20.8918,170.222,0.573869,0.0,0.0
459,114.5,64.6251,70.726,121.624,98.5504,92.4269,0.00842982,0.15257,20.8919,170.232,0.569404,0.0,0.0
462,115.25,63.8867,70.4959,122.616,98.4973,92.5224,0.00852067,0.152495,20.8913,170.212,0.555452,0.0,0.0
465,116,63.7617,70.4709,124.656,98.4486,92.3552,0.008596,0.152441,20.8909,170.192,0.567111,0.0,0.0
468,116.75,63.6055,70.0816,120.544,98.4301,92.1465,0.00865761,0.152401,20.8906,170.202,0.585524,0.0,0.0
471,117.5,63.1069,70.3348,119.871,98.3737,92.904,0.00871401,0.152311,20.8904,170.182,0.507776,0.0,0.0
474,118.25,63.0887,69.8048,118.9,98.3484,92.3869,0.00878968,0.152229,20.8902,170.172,0.555026,0.0,0.0
477,119,63.1044,69.6341,124.184,98.3238,92.3421,0.00888313,0.152144,20.8901,170.172,0.557121,0.0,0.0
480,119.75,62.6473,69.0985,119.156,98.2965,92.3322,0.0089817,0.151877,20.89,170.162,0.555601,0.0,0.0
483,120.5,62.689,68.848,120.829,98.2735,91.72,0.0090777,0.151524,20.8902,170.132,0.612572,0.0,0.0
486,121.25,62.2839,68.6651,122.926,98.2494,91.8707,0.00914769,0.151199,20.8907,170.142,0.595821,0.0,0.0
489,122,62.7714,68.0709,124.103,98.2252,92.263,0.00923505,0.150654,20.8911,170.122,0.555816,0.0,0.0
492,122.75,62.4112,68.4417,120.654,98.2301,92.2013,0.0093609,0.149889,20.8918,170.142,0.562196,0.0,0.0
495,123.5,62.2238,67.8393,122.907,98.2144,92.4088,0.00954766,0.14933,20.8923,170.112,0.540826,0.0,0.0
498,124.25,61.7997,67.6357,122.269,98.218,92.142,0.00976467,0.148772,20.8929,170.132,0.566814,0.0,0.0
501,125,61.8843,67.2863,120.302,98.2047,91.988,0.00998847,0.148107,20.8937,170.112,0.580457,0.0,0.0
504,125.75,61.59,67.6569,121.015,98.2128,92.0094,0.0102049,0.14755,20.895,170.092,0.579119,0.0,0.0
507,126.5,61.8718,67.2237,122.869,98.2365,92.0411,0.0103798,0.146985,20.8956,170.092,0.578208,0.0,0.0
510,127.25,61.6129,66.5235,122.684,98.2385,92.0296,0.0106085,0.146354,20.8963,170.072,0.579502,0.0,0.0
513,128,61.1884,66.6779,121.827,98.2345,91.8781,0.0108204,0.145665,20.8981,170.062,0.593761,0.0,0.0
516,128.75,60.9597,66.7049,125.033,98.2558,91.874,0.0110014,0.144996,20.8994,170.052,0.596085,0.0,0.0
519,129.5,60.246,66.6809,119.754,98.2932,92.2322,0.0111787,0.144573,20.9004,170.012,0.564932,0.0,0.0
522,130.25,60.4608,66.186,123.655,98.3097,92.1469,0.0113577,0.144044,20.9011,170.002,0.574627,0.0,0.0
525,131,60.0309,65.7554,119.722,98.3266,92.3351,0.0115086,0.143635,20.9016,170.002,0.558049,0.0,0.0
528,131.75,59.8321,65.6891,118.843,98.3576,92.1996,0.0116781,0.143299,20.902,170.002,0.573875,0.0,0.0
531,132.5,60.4814,65.4819,120.494,98.3818,92.2075,0.0118436,0.142867,20.9023,170.002,0.575301,0.0,0.0
534,133.25,59.725,65.2605,121.036,98.4035,92.3001,0.0120071,0.142353,20.9029,169.992,0.568349,0.0,0.0
537,134,59.7873,65.454,120.518,98.4252,91.9267,0.0121472,0.141772,20.9042,169.952,0.606289,0.0,0.0
540,134.75,59.0131,65.1932,121.404,98.4534,92.3474,0.0122541,0.141104,20.9051,169.922,0.568298,0.0,0.0
543,135.5,59.6142,64.3472,123.844,98.5029,92.6397,0.0123319,0.140571,20.9058,169.922,0.544712,0.0,0.0
546,136.25,59.2691,64.8619,122.939,98.523,92.4009,0.0123443,0.140106,20.9063,169.902,0.569431,0.0,0.0
549,137,58.9619,63.8879,120.644,98.548,92.6002,0.0123404,0.139609,20.9069,169.942,0.55256,0.0,0.0
552,137.75,58.8402,63.678,123.847,98.5774,92.3635,0.012332,0.139181,20.9078,169.902,0.577924,0.0,0.0
555,138.5,59.0108,63.8738,123.139,98.6281,92.736,0.0123296,0.138481,20.9084,169.902,0.546757,0.0,0.0
558,139.25,58.7389,64.0859,120.783,98.6643,92.8427,0.0123389,0.137873,20.9093,169.892,0.539817,0.0,0.0
561,140,58.5828,63.8124,119.993,98.6836,92.2,0.0123573,0.137263,20.9103,169.902,0.603204,0.0,0.0
564,140.75,57.8809,63.6053,122.932,98.7311,92.4524,0.0123758,0.136696,20.9115,169.862,0.583214,0.0,0.0
567,141.5,57.7742,63.1414,128.002,98.7685,92.5652,0.0124188,0.136245,20.9124,169.852,0.575756,0.0,0.0
570,142.25,58.7019,63.3041,120.856,98.8056,93.0575,0.0124645,0.135853,20.913,169.852,0.531997,0.0,0.0
573,143,58.002,62.8096,122.356,98.8414,92.9797,0.0125224,0.135546,20.9135,169.821,0.542638,0.0,0.0
576,143.75,57.8977,62.4454,121.545,98.8659,92.8048,0.0125633,0.135294,20.9138,169.831,0.561559,0.0,0.0
579,144.5,57.2613,62.2402,124.844,98.9034,92.8282,0.0125925,0.135098,20.914,169.821,0.562674,0.0,0.0
582,145.25,57.275,62.5497,121.951,98.9492,92.6558,0.0125954,0.134853,20.9142,169.781,0.5833,0.0,0.0
585,146,57.3729,62.3902,122.412,98.9726,92.6714,0.012566,0.1346,20.9145,169.761,0.583895,0.0,0.0
588,146.75,57.1483,62.457,122.876,99.0088,92.7731,0.0125223,0.134287,20.9147,169.761,0.577409,0.0,0.0
591,147.5,57.5535,62.1974,125.091,99.0366,93.2589,0.0124918,0.134059,20.9149,169.751,0.533543,0.0,0.0
594,148.25,57.3121,61.8948,120.323,99.0712,92.8534,0.0124701,0.133893,20.915,169.761,0.575323,0.0,0.0
597,149,57.009,61.4055,127.376,99.0981,92.8768,0.0124691,0.133809,20.9151,169.771,0.575495,0.0,0.0
600,149.75,56.9067,61.368,123.562,99.1167,92.9781,0.0124738,0.133812,20.9152,169.741,0.567481,0.0,0.0
603,150.5,56.8298,61.5088,117.549,99.1537,92.7179,0.0124866,0.133997,20.9152,169.721,0.595667,0.0,0.0
606,151.25,56.2124,61.5613,117.548,99.1992,93.1362,0.0124922,0.134204,20.9153,169.731,0.559787,0.0,0.0
609,152,56.3399,60.3976,120.758,99.2301,93.3317,0.0124911,0.134385,20.9153,169.751,0.543943,0.0,0.0
612,152.75,55.8445,60.6172,121.007,99.2559,92.9114,0.0124854,0.134435,20.9153,169.741,0.58631,0.0,0.0
615,153.5,55.7589,60.4496,122.342,99.2833,93.0983,0.0124765,0.134404,20.9153,169.711,0.570921,0.0,0.0
618,154.25,56.1372,60.2113,124.25,99.2994,93.0757,0.0124649,0.134266,20.9153,169.721,0.574518,0.0,0.0
621,155,55.6946,60.2092,121.371,99.3296,93.1609,0.0124521,0.134125,20.9153,169.711,0.569093,0.0,0.0
624,155.75,55.7932,60.1883,122.745,99.3368,93.2803,0.0124431,0.134036,20.9153,169.701,0.558373,0.0,0.0
627,156.5,55.5194,60.1491,122.05,99.3589,93.0003,0.0124328,0.134015,20.9153,169.691,0.587028,0.0,0.0
630,157.25,55.5454,59.953,120.301,99.3883,93.2613,0.0124086,0.134064,20.9153,169.691,0.564777,0.0,0.0
633,158,55.1426,59.4947,123.607,99.41,93.3305,0.0123832,0.134161,20.9153,169.661,0.560139,0.0,0.0
636,158.75,55.2676,59.9594,123.788,99.4185,93.3334,0.0123627,0.13421,20.9153,169.631,0.560618,0.0,0.0
639,159.5,55.291,59.5622,120.868,99.4273,93.0254,0.0123501,0.134206,20.9153,169.601,0.590741,0.0,0.0
642,160.25,55.1352,59.6141,120.672,99.4479,93.0349,0.0123483,0.134143,20.9153,169.601,0.59167,0.0,0.0
645,161,55.0787,59.7814,123.852,99.4764,93.2807,0.0123444,0.133995,20.9153,169.591,0.570802,0.0,0.0
648,161.75,55.027,59.1457,123.164,99.464,93.7302,0.0123398,0.133805,20.9153,169.561,0.527017,0.0,0.0
651,162.5,54.3124,58.6751,122.603,99.474,93.3247,0.0123352,0.13361,20.9153,169.551,0.566398,0.0,0.0
654,163.25,55.3667,59.285,121.028,99.4917,93.1522,0.0123345,0.133383,20.9153,169.571,0.584398,0.0,0.0
657,164,54.8709,58.7225,119.543,99.5151,93.4338,0.0123351,0.133116,20.9153,169.551,0.55969,0.0,0.0
660,164.75,54.4063,58.89,121.247,99.5151,93.1061,0.0123522,0.132859,20.9153,169.541,0.590875,0.0,0.0
663,165.5,54.6343,58.8644,120.897,99.5014,93.419,0.0123776,0.132703,20.9153,169.541,0.559878,0.0,0.0
666,166.25,54.676,59.0193,121.097,99.5135,93.5989,0.0124003,0.13264,20.9153,169.541,0.543878,0.0,0.0
669,167,53.8498,58.3946,122.901,99.5211,93.067,0.0124145,0.132608,20.9153,169.531,0.595143,0.0,0.0
672,167.75,54.4855,58.4672,121.671,99.5243,93.0534,0.0124248,0.132576,20.9153,169.491,0.596725,0.0,0.0
675,168.5,54.4378,58.2312,121.819,99.5054,93.1049,0.0123714,0.132527,20.9156,169.501,0.59013,0.0,0.0
678,169.25,53.6209,57.8693,127.399,99.501,93.3383,0.0122974,0.132512,20.9159,169.501,0.567511,0.0,0.0
681,170,54.0197,58.0436,123.99,99.5102,93.2025,0.0122286,0.1325,20.9161,169.491,0.581265,0.0,0.0
684,170.75,53.7487,58.2481,120.611,99.5002,93.193,0.0121448,0.132677,20.9162,169.471,0.58127,0.0,0.0
687,171.5,54.2194,58.1017,120.539,99.4893,93.8603,0.0120667,0.132885,20.9164,169.441,0.516969,0.0,0.0
690,172.25,53.7781,57.6873,122.152,99.4809,93.3548,0.012005,0.133037,20.9164,169.451,0.56415,0.0,0.0
693,173,53.4093,57.4219,121.088,99.4724,93.0312,0.0119601,0.133034,20.9165,169.431,0.594214,0.0,0.0
696,173.75,53.2616,57.1208,124.487,99.466,93.3712,0.0119325,0.132983,20.9165,169.431,0.561256,0.0,0.0
699,174.5,53.8747,57.7385,122.163,99.4471,92.9336,0.0119146,0.132803,20.9166,169.411,0.601265,0.0,0.0
702,175.25,53.7759,57.4677,123.236,99.4273,93.102,0.0119145,0.132686,20.9166,169.391,0.583438,0.0,0.0
705,176,53.5561,57.1832,121.524,99.4294,93.5211,0.0119234,0.132608,20.9166,169.391,0.543754,0.0,0.0
708,176.75,53.5688,57.63,123.289,99.4125,93.1349,0.0119338,0.13255,20.9166,169.391,0.578969,0.0,0.0
711,177.5,53.0312,56.3022,123.382,99.3774,93.3054,0.0119621,0.132522,20.9169,169.391,0.559615,0.0,0.0
714,178.25,53.4431,56.7674,121.925,99.377,93.2025,0.0119984,0.132501,20.9174,169.361,0.569374,0.0,0.0
717,179,53.6125,57.0702,127.522,99.3613,93.7002,0.0120365,0.132472,20.9179,169.351,0.520701,0.0,0.0
720,179.75,53.2579,56.9375,121.328,99.3505,93.0938,0.0120661,0.13238,20.9182,169.321,0.577358,0.0,0.0
723,180.5,53.4777,56.7398,121.767,99.3183,93.2391,0.0120682,0.132283,20.9184,169.351,0.560637,0.0,0.0
726,181.25,52.69,56.5256,122.143,99.2917,93.1341,0.0120615,0.132226,20.9186,169.331,0.568261,0.0,0.0
729,182,53.3222,56.5478,122.83,99.2804,92.9941,0.0120161,0.132138,20.9187,169.301,0.580604,0.0,0.0
732,182.75,52.945,56.5999,122.975,99.2595,93.2271,0.0119674,0.131984,20.919,169.301,0.556521,0.0,0.0
735,183.5,53.0949,56.6803,122.932,99.235,93.137,0.0119253,0.131669,20.9196,169.321,0.562913,0.0,0.0
738,184.25,52.8399,56.5095,121.969,99.2084,93.0543,0.0119057,0.131411,20.9201,169.281,0.568426,0.0,0.0
741,185,53.1687,55.8763,122.843,99.1871,92.8805,0.0118941,0.131233,20.9204,169.271,0.583104,0.0,0.0
744,185.75,52.9399,56.2811,122.269,99.1879,93.4091,0.0118903,0.131142,20.9207,169.271,0.532806,0.0,0.0
747,186.5,52.565,55.7787,120.686,99.1718,92.7105,0.0118746,0.131047,20.9209,169.271,0.597998,0.0,0.0
750,187.25,52.4547,55.9189,120.883,99.1545,93.1975,0.0118425,0.130965,20.921,169.241,0.549945,0.0,0.0
753,188,52.62,56.4699,121.921,99.1247,92.9324,0.0118103,0.130723,20.9211,169.221,0.572564,0.0,0.0
756,188.75,52.8098,55.8654,120.873,99.1195,92.9163,0.0117462,0.130561,20.9216,169.201,0.573629,0.0,0.0
759,189.5,52.3495,55.9244,122.903,99.1078,92.7286,0.0116789,0.130449,20.9222,169.181,0.590535,0.0,0.0
762,190.25,52.6305,56.0607,118.081,99.0993,93.0291,0.011621,0.130367,20.9226,169.201,0.561058,0.0,0.0
765,191,52.2363,56.1032,124.397,99.0828,92.7521,0.011555,0.130279,20.9229,169.171,0.586053,0.0,0.0
768,191.75,52.815,55.9618,120.586,99.0643,92.8357,0.0114663,0.130188,20.9229,169.181,0.576402,0.0,0.0
771,192.5,52.4952,55.8772,122.62,99.0539,93.1526,0.0113832,0.130096,20.9229,169.181,0.545208,0.0,0.0
774,193.25,52.086,55.4845,121.474,99.0338,92.9419,0.0113214,0.130028,20.923,169.201,0.563513,0.0,0.0
777,194,52.5208,56.1207,123.24,99.0366,92.876,0.0112784,0.129817,20.923,169.211,0.570057,0.0,0.0
780,194.75,52.4713,55.9799,121.9,99.0269,93.2012,0.0112518,0.129656,20.923,169.181,0.538164,0.0,0.0
783,195.5,52.4697,55.769,121.586,99.0128,93.2341,0.0112427,0.129525,20.923,169.181,0.533766,0.0,0.0
786,196.25,52.3394,56.1489,119.673,98.9842,92.8904,0.0112465,0.129531,20.923,169.151,0.56399,0.0,0.0
789,197,52.4833,55.6427,124.665,98.9834,92.7463,0.0112598,0.129522,20.923,169.131,0.577697,0.0,0.0
792,197.75,52.798,55.6153,122.839,98.9746,92.4787,0.0112858,0.129509,20.923,169.131,0.602547,0.0,0.0
795,198.5,52.0719,55.6621,124.323,98.9702,93.13,0.0113326,0.129499,20.923,169.111,0.539862,0.0,0.0
798,199.25,52.5181,55.6334,122.13,98.9432,93.1349,0.0114053,0.129535,20.923,169.131,0.536973,0.0,0.0
801,200,52.5643,55.6899,122.328,98.9368,93.1819,0.0114666,0.129571,20.923,169.101,0.531923,0.0,0.0
804,200.75,52.3275,55.4903,119.083,98.9299,92.8142,0.0115252,0.129585,20.923,169.071,0.566397,0.0,0.0
807,201.5,52.3558,55.165,120.067,98.9392,93.0925,0.0115642,0.129551,20.923,169.021,0.540654,0.0,0.0
810,202.25,51.9151,55.3838,121.692,98.9396,92.4409,0.0115694,0.129449,20.9235,169.031,0.603043,0.0,0.0
813,203,52.2531,55.5089,122.052,98.9919,93.0666,0.0115429,0.129192,20.9246,168.991,0.547856,0.0,0.0
816,203.75,52.2128,55.0856,122.623,99.0313,92.6533,0.0114887,0.128834,20.9255,169.001,0.590898,0.0,0.0
819,204.5,52.0376,55.367,120.199,99.0889,92.8085,0.0114153,0.12841,20.9261,169.041,0.581199,0.0,0.0
822,205.25,52.0701,54.7146,123.466,99.1328,93.151,0.0113038,0.127948,20.9265,169.001,0.552432,0.0,0.0
825,206,52.1645,54.4223,123.533,99.1714,92.8678,0.0111509,0.127429,20.9268,168.991,0.582919,0.0,0.0
828,206.75,51.5289,54.6361,122.226,99.2185,92.8484,0.0110184,0.127006,20.9271,168.991,0.588982,0.0,0.0
831,207.5,51.8503,55.0741,123.02,99.2792,92.8838,0.0108861,0.126621,20.927,168.961,0.591032,0.0,0.0
834,208.25,51.7636,55.0567,120.431,99.3098,93.0345,0.0107493,0.126297,20.9274,168.961,0.57938,0.0,0.0
837,209,52.2637,54.8401,122.897,99.3352,93.1806,0.0106408,0.126043,20.9279,168.951,0.567714,0.0,0.0
840,209.75,52.26,54.2675,120.144,99.3762,93.3037,0.0105467,0.125836,20.9282,168.941,0.559665,0.0,0.0
843,210.5,51.4975,54.5823,120.015,99.412,93.2309,0.0104725,0.125657,20.9285,168.931,0.569796,0.0,0.0
846,211.25,51.3578,54.3834,120.502,99.4495,93.4898,0.0104185,0.125515,20.9287,168.931,0.54852,0.0,0.0
849,212,51.3331,54.7464,120.494,99.4688,93.2959,0.0103718,0.125289,20.9288,168.921,0.568672,0.0,0.0
852,212.75,51.4623,54.3801,123.636,99.5082,93.1304,0.0103249,0.12511,20.9289,168.911,0.587949,0.0,0.0
855,213.5,51.8127,54.683,118.478,99.5396,93.0888,0.0102853,0.124954,20.929,168.911,0.594712,0.0,0.0
858,214.25,51.555,54.5571,121.927,99.5775,93.3198,0.0102382,0.124811,20.929,168.881,0.576091,0.0,0.0
861,215,51.4677,54.2558,121.367,99.5879,93.4593,0.0101726,0.124695,20.9295,168.861,0.563761,0.0,0.0
864,215.75,51.4395,54.1908,119.455,99.6133,93.1201,0.0100883,0.12451,20.9303,168.851,0.598295,0.0,0.0
867,216.5,50.7394,54.0809,124.352,99.6382,93.0938,0.0100133,0.124375,20.931,168.841,0.603029,0.0,0.0
870,217.25,51.4705,53.9153,119.957,99.6672,93.3091,0.00993558,0.124114,20.9316,168.831,0.585105,0.0,0.0
873,218,51.2928,54.0724,122.243,99.6724,93.8459,0.00987889,0.123954,20.9321,168.811,0.534653,0.0,0.0
876,218.75,51.3408,54.3076,118.042,99.6954,93.7002,0.00983756,0.123889,20.9326,168.811,0.550489,0.0,0.0
879,219.5,51.0518,54.2122,124.808,99.7078,93.2193,0.00983848,0.123822,20.933,168.821,0.597266,0.0,0.0
882,220.25,51.5966,54.1296,120.047,99.7356,93.5067,0.00986221,0.123688,20.9332,168.801,0.57242,0.0,0.0
885,221,50.6502,54.1503,122.711,99.7417,93.4132,0.00989205,0.123555,20.9334,168.781,0.581832,0.0,0.0
888,221.75,51.1831,54.2608,122.365,99.7477,93.5725,0.00991841,0.123356,20.9335,168.771,0.567244,0.0,0.0
891,222.5,51.1725,54.0556,121.687,99.761,93.6009,0.00991204,0.123196,20.9336,168.761,0.565732,0.0,0.0
894,223.25,51.0057,53.9007,124.555,99.7879,93.5808,0.00988385,0.123054,20.9337,168.741,0.570043,0.0,0.0
897,224,50.5582,54.1486,123.813,99.7823,94.1102,0.00981926,0.12283,20.9338,168.741,0.51947,0.0,0.0
900,224.75,51.1122,53.9837,123.285,99.7875,93.6186,0.00972292,0.122553,20.934,168.731,0.566417,0.0,0.0
903,225.5,51.0751,54.2,123.334,99.7944,93.4626,0.00965269,0.122235,20.9346,168.731,0.58183,0.0,0.0
906,226.25,51.1361,53.9131,124.036,99.835,93.5236,0.00959967,0.121992,20.9355,168.701,0.579659,0.0,0.0
909,227,50.8676,54.3265,126.76,99.8318,93.773,0.00957179,0.12163,20.9363,168.701,0.555729,0.0,0.0
912,227.75,51.3065,54.1672,122.205,99.8153,93.5758,0.00956987,0.121226,20.937,168.71,0.572946,0.0,0.0
915,228.5,50.7997,53.8913,123.033,99.8133,93.7298,0.00957396,0.120888,20.9374,168.701,0.558174,0.0,0.0
918,229.25,50.4897,53.9842,119.536,99.8318,93.5672,0.00955135,0.120624,20.9377,168.69,0.575234,0.0,0.0
921,230,51.0498,53.5733,120.602,99.8314,94.2197,0.00952397,0.120412,20.938,168.67,0.513515,0.0,0.0
924,230.75,50.9887,53.4933,120.899,99.8318,93.8327,0.009422,0.120186,20.9381,168.65,0.550081,0.0,0.0
927,231.5,50.9715,53.541,123.335,99.8262,93.8521,0.00929281,0.119917,20.9383,168.65,0.547749,0.0,0.0
930,232.25,51.0302,54.0435,120.94,99.8205,93.4157,0.00917525,0.119593,20.9383,168.65,0.588614,0.0,0.0
933,233,50.9996,52.9552,120.08,99.8294,93.6281,0.00902203,0.119236,20.9384,168.66,0.569241,0.0,0.0
936,233.75,51.1316,53.3749,118.646,99.8197,93.4383,0.00886281,0.118976,20.9385,168.64,0.586392,0.0,0.0
939,234.5,51.0116,53.4143,118.584,99.8085,93.3984,0.00871468,0.118706,20.9391,168.6,0.589184,0.0,0.0
942,235.25,51.0614,53.498,124.324,99.8097,93.3502,0.00857587,0.118438,20.9396,168.61,0.59387,0.0,0.0
945,236,51.1444,53.6533,121.128,99.8181,93.6162,0.00846732,0.118213,20.94,168.58,0.569371,0.0,0.0
948,236.75,50.7321,53.6898,121.558,99.8008,93.5104,0.00837561,0.117935,20.9402,168.58,0.577869,0.0,0.0
951,237.5,50.7928,53.4424,124.723,99.7851,93.687,0.00830875,0.117628,20.9404,168.56,0.559724,0.0,0.0
954,238.25,50.9666,53.1318,123.965,99.7843,93.3469,0.00822198,0.11738,20.9404,168.56,0.591927,0.0,0.0
957,239,50.6226,53.4977,122.477,99.7835,93.6355,0.00813587,0.117018,20.9403,168.55,0.564458,0.0,0.0
960,239.75,50.4519,53.7126,124.308,99.7646,93.7644,0.00806336,0.116754,20.9403,168.55,0.550569,0.0,0.0
963,240.5,50.6528,53.5029,123.862,99.7529,93.2856,0.00796739,0.116392,20.9404,168.53,0.594968,0.0,0.0
966,241.25,50.6659,53.3182,122.81,99.7372,93.778,0.00786371,0.11596,20.941,168.53,0.546848,0.0,0.0
969,242,50.5325,52.7998,121.349,99.7384,93.773,0.0077619,0.115479,20.9414,168.54,0.547423,0.0,0.0
972,242.75,49.9513,53.2857,123.614,99.7175,93.454,0.00766742,0.114973,20.9419,168.52,0.575811,0.0,0.0
975,243.5,51.1925,53.7101,123.82,99.7014,94.011,0.00758192,0.114539,20.9427,168.52,0.521633,0.0,0.0
978,244.25,50.6564,53.5255,124.673,99.6837,93.7545,0.00750592,0.114053,20.9432,168.5,0.544305,0.0,0.0
981,245,50.5103,53.4951,119.914,99.6761,93.3004,0.00743067,0.113529,20.9441,168.5,0.586716,0.0,0.0
984,245.75,50.288,53.1651,119.652,99.6708,94.004,0.00736316,0.112983,20.9449,168.49,0.519571,0.0,0.0
987,246.5,50.7917,52.8228,122.367,99.6551,93.4721,0.00730856,0.112464,20.9455,168.48,0.568537,0.0,0.0
990,247.25,50.5999,53.0046,120.771,99.6326,93.0732,0.00725232,0.111987,20.9459,168.46,0.604489,0.0,0.0
993,248,50.9532,52.8277,123.571,99.6149,93.2667,0.00719567,0.111538,20.9462,168.47,0.584479,0.0,0.0
996,248.75,50.2144,52.8851,122.085,99.6068,93.8887,0.00713959,0.11111,20.9465,168.47,0.524762,0.0,0.0
999,249.5,50.4297,52.8804,120.585,99.5847,93.6207,0.0070843,0.110642,20.9471,168.47,0.54816,0.0,0.0
1002,250.25,49.9777,53.3097,121.675,99.5682,93.4754,0.00704272,0.110235,20.9477,168.46,0.560477,0.0,0.0
1005,251,50.4407,52.9091,127.586,99.5461,93.8615,0.00701188,0.109798,20.9482,168.45,0.521914,0.0,0.0
1008,251.75,50.6309,52.857,122.66,99.5392,93.3091,0.00697802,0.109391,20.9485,168.48,0.5737,0.0,0.0
1011,252.5,50.4495,53.0033,122.569,99.5062,93.7969,0.00693057,0.108853,20.9488,168.45,0.524475,0.0,0.0
1014,253.25,50.5742,53.2017,129.453,99.4805,93.3165,0.0068653,0.108309,20.9496,168.45,0.567755,0.0,0.0
1017,254,50.217,52.8553,122.351,99.4716,93.0279,0.0067736,0.107729,20.9504,168.43,0.594457,0.0,0.0
1020,254.75,50.318,52.9327,122.833,99.4559,93.456,0.00667202,0.107229,20.9514,168.4,0.5523,0.0,0.0
1023,255.5,50.4026,52.6306,120.264,99.4277,93.4956,0.00657077,0.106682,20.9522,168.41,0.546033,0.0,0.0
1026,256.25,50.6637,53.0789,122.485,99.3988,93.165,0.00646927,0.106145,20.9529,168.39,0.574884,0.0,0.0
1029,257,50.7576,52.6104,118.999,99.3706,93.3552,0.00637486,0.105653,20.9539,168.4,0.554267,0.0,0.0
1032,257.75,50.2241,52.9894,122.606,99.3573,93.0695,0.00629132,0.105168,20.9546,168.38,0.580286,0.0,0.0
1035,258.5,50.3658,52.604,123.861,99.3283,92.7858,0.00620402,0.104657,20.9553,168.41,0.604789,0.0,0.0
1038,259.25,50.3238,52.7969,119.664,99.3207,92.6698,0.00611523,0.104108,20.9563,168.4,0.615217,0.0,0.0
1041,260,50.1414,52.3388,119.576,99.334,93.0472,,0.103511,,168.39,0.58032,0.0,0.0
1044,260.75,50.6394,52.6136,120.573,99.3569,93.1802,,0.102926,,168.36,0.569695,0.0,0.0
1047,261.5,50.3966,53.0363,120.771,99.3609,92.8414,,0.102385,,168.35,0.602387,0.0,0.0
1050,262.25,50.3152,52.3589,117.075,99.3589,93.0666,,0.101795,,168.34,0.580704,0.0,0.0
1053,263,50.1647,52.8417,122.948,99.3734,93.0654,,,,168.35,0.582115,0.0,0.0
1056,263.75,49.9467,52.1915,122.179,99.3803,93.517,,,,168.35,0.53976,0.0,0.0
1059,264.5,50.0592,52.7423,123.421,99.3939,93.1555,,,,168.37,0.575355,0.0,0.0
1062,265.25,50.2427,52.5817,121.422,99.3951,93.0707,,,,168.35,0.583547,0.0,0.0
1065,266,49.9237,52.8476,123.461,99.4012,93.2786,,,,168.32,0.564281,0.0,0.0
1068,266.75,49.9688,52.0881,124.937,99.4213,92.9917,,,,168.32,0.593424,0.0,0.0
1071,267.5,49.6296,51.9318,121.538,99.4326,93.3391,,,,168.3,0.561328,0.0,0.0
1074,268.25,49.9747,52.509,121.146,99.4249,93.0234,,,,168.3,0.590721,0.0,0.0
1077,269,50.3425,52.3878,120.943,99.4334,92.9007,,,,168.3,0.60319,0.0,0.0
1080,269.75,50.1296,52.0834,122.579,99.4571,93.1374,,,,168.29,0.582722,0.0,0.0
1083,270.5,49.8453,52.1532,121.235,99.4921,93.349,,,,168.3,0.565704,0.0,0.0