File: 01_Data/Cotton_Rug/Cone/Cotton_Rug_Cone_HF25Scan_220318_R3.csv
Names,Time,Stack TC,Smoke TC,Exh Press,Smoke Comp,Smoke Meas,CO Meter,CO2 Meter,O2 Meter,Sample Mass,Ext Coeff,Start Test,Flame Verif
Chan Gain,,500,500,1,1,1,1,1,1,1,1,1.0,1.0
Offset,,0,0,0.134026,0,0,0,0,0,0,0,0.0,0.0
Gain,,1,1,25.011,13.1637,13.6028,1,1,1,1.00089,1.01066,1.0,1.0
Units,sec,C,C,Pa,%,%,%,%,%,g,/m,,
Baseline,,19.923,20.4391,154.829,98.9815,97.4091,0.000573642,0.0498751,21.014,-833.906,0.142,,
3,0.5,18.5206,19.1013,154.705,99.3008,97.9918,0.000502872,0.0555602,21.0098,205.452,0.117646,0.0,0.0
6,1.25,18.3415,19.2441,158.145,99.2992,97.9457,0.000518061,0.0552224,21.0098,205.142,0.121673,0.0,0.0
9,2,18.519,18.4855,160.711,99.296,97.8307,0.000527591,0.0549012,21.0099,205.112,0.131801,0.0,0.0
12,2.75,18.0095,18.8348,153.667,99.3032,97.7581,0.000513895,0.0545181,21.0099,205.032,0.139031,0.0,0.0
15,3.5,18.067,17.9909,151.813,99.2992,97.7739,0.000483417,0.0541399,21.0099,205.032,0.137242,0.0,0.0
18,4.25,18.0569,18.8715,152.614,99.3024,97.7834,0.000452462,0.0538032,21.0099,204.992,0.136663,0.0,0.0
21,5,17.8425,18.6071,156.306,99.292,97.5733,0.000407005,0.0535192,21.0099,205.022,0.154796,0.0,0.0
24,5.75,17.9205,19.0937,152.459,99.3085,97.4509,0.000367278,0.0533122,21.0099,204.982,0.1674,0.0,0.0
27,6.5,17.6664,18.5846,155.588,99.2948,97.9852,0.000343737,0.0531612,21.0102,205.002,0.11771,0.0,0.0
30,7.25,17.5245,18.9835,154.938,99.2912,97.9001,0.000345478,0.0530783,21.0107,204.952,0.125089,0.0,0.0
33,8,18.3566,19.127,152.536,99.2896,97.8025,0.000356389,0.0530293,21.0112,204.962,0.133784,0.0,0.0
36,8.75,18.2881,18.4356,152.425,99.2932,97.636,0.000368454,0.052955,21.0115,204.952,0.14921,0.0,0.0
39,9.5,18.4118,18.8585,151.676,99.296,97.9009,0.000378968,0.0527927,21.0117,204.932,0.125445,0.0,0.0
42,10.25,18.2615,18.9119,155.118,99.2824,97.8747,0.000380607,0.0526282,21.0118,204.942,0.126594,0.0,0.0
45,11,18.4279,18.8396,153.859,99.286,97.9279,0.000379233,0.0523347,21.012,204.942,0.122104,0.0,0.0
48,11.75,18.1254,18.2105,150.296,99.2812,97.0341,0.000374615,0.0520436,21.012,204.922,0.202959,0.0,0.0
51,12.5,18.479,18.2282,154.382,99.294,97.3234,0.000369708,0.0518528,21.0121,204.912,0.17771,0.0,0.0
54,13.25,18.0135,18.9558,156.082,99.2916,97.2031,0.000371287,0.0517501,21.0121,204.902,0.188468,0.0,0.0
57,14,18.2335,19.3229,153.622,99.2747,97.9333,0.000370028,0.0518241,21.0122,204.902,0.120612,0.0,0.0
60,14.75,18.0259,19.0547,154.076,99.2984,97.7477,0.000368083,0.0519414,21.0122,204.882,0.139542,0.0,0.0
63,15.5,18.498,18.8687,153.988,99.2876,97.8378,0.000340888,0.0521619,21.0122,204.872,0.130407,0.0,0.0
66,16.25,18.2493,18.7615,151.788,99.2908,98.0989,0.00029698,0.052337,21.0122,204.861,0.107065,0.0,0.0
69,17,18.3859,19.1076,154.299,99.2795,98.0972,0.000242039,0.0524889,21.0122,204.852,0.106212,0.0,0.0
72,17.75,18.532,18.9134,154.908,99.2828,97.2043,0.000180327,0.0524779,21.0125,204.841,0.187565,0.0,0.0
75,18.5,18.436,18.866,154.87,99.2707,97.558,0.00012711,0.0523397,21.0131,204.831,0.15429,0.0,0.0
78,19.25,18.1166,19.1165,160.375,99.2852,97.4339,7.42412e-05,0.0521051,21.0135,204.811,0.166868,0.0,0.0
81,20,18.2559,18.9974,151.632,99.2759,97.5389,2.71226e-05,0.0517027,21.0138,204.811,0.156492,0.0,0.0
84,20.75,18.1428,19.1502,151.536,99.2828,97.8087,-8.42994e-06,0.0512878,21.014,204.801,0.13261,0.0,0.0
87,21.5,18.3397,19.6082,152.164,99.282,97.7763,-3.48606e-05,0.0509334,21.0142,204.791,0.135474,0.0,0.0
90,22.25,18.6477,19.07,153.108,99.2795,97.7207,-4.8431e-05,0.0506345,21.0143,204.781,0.140305,0.0,0.0
93,23,18.8949,19.7226,155.21,99.2731,97.4841,-4.8581e-05,0.0503994,21.0144,204.781,0.161223,0.0,0.0
96,23.75,18.5962,19.2661,151.489,99.2775,97.3048,-2.63874e-05,0.0502279,21.0144,204.771,0.177942,0.0,0.0
99,24.5,18.4728,18.3862,159.941,99.2956,97.3903,-1.78582e-06,0.0502186,21.0145,204.761,0.171767,0.0,0.0
102,25.25,19.1096,19.2798,156.079,99.2747,97.4613,1.97394e-05,0.0502118,21.0145,204.751,0.163443,0.0,0.0
105,26,18.689,19.3149,157.298,99.2667,97.8619,3.2898e-05,0.0504382,21.0145,204.751,0.126361,0.0,0.0
108,26.75,18.6213,19.0057,155.21,99.2619,97.2085,3.81587e-05,0.0505819,21.0145,204.731,0.185321,0.0,0.0
111,27.5,18.6887,19.3419,156.011,99.2671,96.9714,3.85621e-05,0.0506501,21.0145,204.711,0.207432,0.0,0.0
114,28.25,18.4517,19.0109,153.515,99.2695,98.0275,3.88562e-05,0.0506593,21.0146,204.711,0.111619,0.0,0.0
117,29,18.8995,19.6559,153.512,99.2619,97.6082,3.97035e-05,0.0506487,21.0146,204.701,0.148938,0.0,0.0
120,29.75,18.4771,19.1639,154.785,99.2651,97.8698,4.14036e-05,0.050587,21.0146,204.691,0.125502,0.0,0.0
123,30.5,18.7804,19.3303,155.811,99.2615,97.3745,5.63727e-05,0.050526,21.0146,204.691,0.170155,0.0,0.0
126,31.25,18.7697,18.9612,153.205,99.2635,97.7506,8.05251e-05,0.0504937,21.0146,204.681,0.136158,0.0,0.0
129,32,18.8733,19.1407,154.25,99.2611,97.345,0.000103777,0.0505088,21.0146,204.671,0.172803,0.0,0.0
132,32.75,18.6532,19.3931,157.849,99.2546,97.4966,0.000131564,0.050539,21.0146,204.671,0.15844,0.0,0.0
135,33.5,17.7425,19.2058,159.325,99.2643,97.3288,0.000156442,0.050561,21.0146,204.651,0.174565,0.0,0.0
138,34.25,18.8462,19.4705,156.536,99.2538,97.9316,0.000186601,0.0505771,21.0146,204.641,0.118896,0.0,0.0
141,35,17.9904,19.1528,155.011,99.2574,97.6983,0.000215815,0.0508051,21.0146,204.631,0.140365,0.0,0.0
144,35.75,18.6912,19.1698,154.347,99.2422,97.6792,0.000240193,0.0510635,21.0137,204.621,0.140734,0.0,0.0
147,36.5,18.7653,18.9719,154.225,99.2566,97.4077,0.000257964,0.0516185,21.0127,204.621,0.166701,0.0,0.0
150,37.25,18.5957,19.2566,158.087,99.253,97.8104,0.00026851,0.0521583,21.0119,204.611,0.129805,0.0,0.0
153,38,19.1797,18.999,154.46,99.2546,97.7925,0.000273904,0.0527833,21.011,204.601,0.131566,0.0,0.0
156,38.75,18.6763,19.1488,155.751,99.2333,97.5833,0.000275667,0.0534706,21.0101,204.601,0.148653,0.0,0.0
159,39.5,18.7677,19.3282,154.491,99.243,97.3197,0.000279488,0.0540144,21.0094,204.591,0.173494,0.0,0.0
162,40.25,18.6683,19.4643,153.878,99.245,97.5119,0.000286611,0.054484,21.0089,204.581,0.156182,0.0,0.0
165,41,18.6907,19.1631,155.71,99.2398,97.4355,0.000297828,0.0549422,21.0086,204.581,0.162663,0.0,0.0
168,41.75,19.2905,19.2905,151.379,99.2362,97.2471,0.000313394,0.0553546,21.0083,204.571,0.179504,0.0,0.0
171,42.5,18.3968,19.4329,154.538,99.2382,97.257,0.000329968,0.0557894,21.0077,204.561,0.178776,0.0,0.0
174,43.25,18.9623,19.5273,156.669,99.2438,96.915,0.000347474,0.0563639,21.0071,204.551,0.210514,0.0,0.0
177,44,18.9096,18.9628,153.623,99.2458,97.0308,0.000373991,0.0569567,21.0066,204.541,0.200105,0.0,0.0
180,44.75,18.6602,18.9215,153.789,99.2301,97.1541,0.000393322,0.0574986,21.0063,204.531,0.187447,0.0,0.0
183,45.5,18.9177,19.22,155.209,99.2354,97.6414,0.000416532,0.0578937,21.0061,204.521,0.143553,0.0,0.0
186,46.25,18.6873,19.4437,153.789,99.2434,96.7751,0.00046046,0.0581004,21.0059,204.511,0.223284,0.0,0.0
189,47,18.6613,19.2841,155.334,99.2317,97.2226,0.00050201,0.0582163,21.0057,204.501,0.181343,0.0,0.0
192,47.75,19.1351,19.5406,154.286,99.2382,96.8,0.000548591,0.0582235,21.0056,204.501,0.220537,0.0,0.0
195,48.5,18.2033,19.288,155.288,99.2313,97.3455,0.000599769,0.0582272,21.0055,204.491,0.170109,0.0,0.0
198,49.25,18.5758,19.507,156.292,99.243,96.5094,0.00065761,0.0581673,21.0055,204.471,0.247621,0.0,0.0
201,50,18.6842,19.2463,157.472,99.2309,96.8527,0.000708531,0.0580138,21.0059,204.461,0.215064,0.0,0.0
204,50.75,18.3844,19.4737,154.006,99.2229,96.8938,0.000769783,0.0576987,21.0064,204.461,0.210585,0.0,0.0
207,51.5,18.7775,19.5856,157.728,99.2253,96.5858,0.000807184,0.0573253,21.0067,204.451,0.239028,0.0,0.0
210,52.25,18.913,19.2016,151.779,99.2502,96.6613,0.000821183,0.0569555,21.007,204.441,0.234321,0.0,0.0
213,53,17.9123,19.444,154.913,99.2325,96.1237,0.000813991,0.0566667,21.0071,204.431,0.282185,0.0,0.0
216,53.75,19.0297,19.3517,149.451,99.2309,96.0723,0.000790321,0.0564703,21.0073,204.411,0.286791,0.0,0.0
219,54.5,19.0526,19.4293,154.947,99.2325,96.6157,0.000741556,0.0563516,21.0074,204.401,0.23693,0.0,0.0
222,55.25,19.0174,19.5505,156.621,99.2341,96.8178,0.000659556,0.0562844,21.0075,204.391,0.218543,0.0,0.0
225,56,19.507,19.5677,150.531,99.2265,95.7916,0.00058411,0.0562353,21.0075,204.381,0.312329,0.0,0.0
228,56.75,18.5082,19.5109,153.834,99.2253,96.0544,0.000522429,0.0561996,21.0075,204.381,0.287935,0.0,0.0
231,57.5,18.6994,19.9341,156.159,99.2241,96.103,0.000471439,0.0560577,21.0076,204.361,0.283346,0.0,0.0
234,58.25,18.9332,19.6167,154.004,99.2121,96.1495,0.000432967,0.0558972,21.008,204.361,0.277981,0.0,0.0
237,59,18.8464,19.6833,156.124,99.2193,96.2217,0.00040709,0.0556827,21.0086,204.341,0.271969,0.0,0.0
240,59.75,19.0424,19.8381,156.919,99.2157,96.218,0.000410572,0.0555128,21.0089,204.331,0.27199,0.0,0.0
243,60.5,19.2184,19.7711,153.306,99.2052,95.4517,0.000413111,0.0553546,21.0092,204.321,0.341948,0.0,0.0
246,61.25,19.1841,19.6533,154.699,99.2137,96.2304,0.000473455,0.0551906,21.0094,204.311,0.270664,0.0,0.0
249,62,18.9336,19.0308,152.814,99.2036,95.4944,0.000547629,0.0550575,21.0096,204.291,0.337834,0.0,0.0
252,62.75,18.58,19.5385,152.62,99.2056,94.9826,0.000626017,0.0549547,21.0097,204.291,0.38566,0.0,0.0
255,63.5,18.8711,19.1825,156.051,99.198,95.5762,0.000702735,0.0548412,21.0095,204.271,0.329742,0.0,0.0
258,64.25,19.091,19.9732,155.077,99.1896,95.418,0.0007897,0.054737,21.009,204.251,0.343671,0.0,0.0
261,65,18.9741,19.2248,152.708,99.1984,94.995,0.000876082,0.0546245,21.0086,204.251,0.383852,0.0,0.0
264,65.75,18.5985,19.5828,154.838,99.1992,95.4795,0.000948853,0.0546005,21.0084,204.231,0.338827,0.0,0.0
267,66.5,19.8107,19.8062,150.865,99.1936,95.5285,0.00101571,0.0547724,21.0082,204.231,0.333777,0.0,0.0
270,67.25,18.692,19.8342,154.689,99.1839,95.9104,0.00106445,0.0560714,21.0063,204.211,0.297542,0.0,0.0
273,68,19.1903,19.6049,156.312,99.1843,95.0212,0.001093,0.058887,21.0048,204.141,0.380155,0.0,0.0
276,68.75,19.1932,19.3816,148.345,99.2004,96.0644,0.00112597,0.070234,21.003,204.101,0.284789,0.0,0.0
279,69.5,18.5491,19.7263,149.12,99.1948,95.6754,0.00118635,0.0824684,20.9886,204.091,0.320257,0.0,1.0
282,70.25,19.3837,20.0047,143.373,99.1743,95.6144,0.0012618,0.114813,20.9635,203.931,0.324082,0.0,1.0
285,71,19.1476,20.0722,137.343,99.188,95.4388,0.00134408,0.131345,20.9299,203.801,0.3416,0.0,1.0
288,71.75,19.5255,20.1617,139.389,99.1747,95.3018,0.00145771,0.169237,20.8899,203.841,0.35315,0.0,1.0
291,72.5,19.8874,20.6962,140.345,99.1715,95.0793,0.00155973,0.196861,20.842,203.69,0.373585,0.0,1.0
294,73.25,20.2612,20.6708,139.23,99.1683,95.6484,0.00169057,0.232692,20.8001,203.65,0.320388,0.0,1.0
297,74,20.97,21.2703,134.817,99.1687,95.0158,0.00182645,0.263429,20.7665,203.55,0.379257,0.0,1.0
300,74.75,21.1727,21.5319,138.975,99.1687,94.5832,0.0019255,0.289827,20.7345,203.46,0.41971,0.0,0.0
303,75.5,21.5026,22.1283,135.93,99.1691,94.4545,0.00208108,0.312528,20.7091,203.37,0.431816,0.0,0.0
306,76.25,21.9072,22.3237,137.144,99.1618,94.0195,0.00222855,0.333781,20.687,203.27,0.472098,0.0,0.0
309,77,22.5043,22.5498,135.21,99.1546,93.804,0.00235058,0.350943,20.6674,203.19,0.49179,0.0,0.0
312,77.75,22.8464,22.9402,134.708,99.1526,93.5085,0.00245693,0.366307,20.6516,203.09,0.519589,0.0,0.0
315,78.5,23.6285,24.0988,140.09,99.1498,94.4944,0.00253081,0.380579,20.6346,203.02,0.426352,0.0,0.0
318,79.25,24.5208,24.2382,136.588,99.1462,92.985,0.00258246,0.392293,20.6188,202.93,0.568784,0.0,0.0
321,80,24.8454,25.2714,133.684,99.1494,93.3843,0.00261901,0.405119,20.6041,202.81,0.531077,0.0,0.0
324,80.75,25.0096,25.6545,132.667,99.1446,93.4935,0.002677,0.415602,20.5906,202.71,0.520288,0.0,0.0
327,81.5,25.4462,26.2839,130.989,99.145,92.9015,0.00271926,0.425181,20.5764,202.62,0.576635,0.0,0.0
330,82.25,26.0505,26.9285,131.57,99.1389,92.4005,0.00283547,0.435011,20.5661,202.519,0.624041,0.0,0.0
333,83,26.1856,27.9179,139.42,99.1333,91.7359,0.00298259,0.444485,20.5548,202.399,0.687535,0.0,0.0
336,83.75,27.3984,28.1563,134.295,99.1361,91.4029,0.00315065,0.452375,20.5443,202.309,0.72002,0.0,0.0
339,84.5,27.4672,28.6631,134.671,99.1309,91.9605,0.00333164,0.461043,20.5346,202.189,0.665642,0.0,0.0
342,85.25,28.0899,28.6335,136.214,99.1289,91.7861,0.0035529,0.468399,20.5244,202.069,0.682287,0.0,0.0
345,86,28.2902,29.6218,137.461,99.1193,91.0057,0.00376832,0.475534,20.515,201.989,0.757128,0.0,0.0
348,86.75,28.714,30.0905,136.854,99.1233,90.2431,0.00394843,0.483566,20.505,201.859,0.832089,0.0,0.0
351,87.5,29.3939,30.7544,139.396,99.1285,90.811,0.00416242,0.491347,20.4965,201.749,0.776941,0.0,0.0
354,88.25,30.0844,31.0566,134.534,99.1225,89.8334,0.00431841,0.498908,20.488,201.639,0.87236,0.0,0.0
357,89,30.2573,32.3955,131.402,99.112,90.4008,0.00452539,0.506247,20.481,201.539,0.815599,0.0,0.0
360,89.75,31.0093,32.5807,128.974,99.1193,89.0841,0.0046997,0.514174,20.4724,201.408,0.94633,0.0,0.0
363,90.5,31.4346,33.1793,131.992,99.1156,88.8586,0.00486679,0.52151,20.4631,201.258,0.968467,0.0,0.0
366,91.25,32.279,33.6179,129.479,99.1124,88.4614,0.00510422,0.529521,20.4529,201.178,1.0079,0.0,0.0
369,92,32.567,33.8681,133.481,99.1052,89.9031,0.00522698,0.5367,20.4445,201.068,0.863935,0.0,0.0
372,92.75,33.0774,34.7386,131.032,99.1189,88.7246,0.00536654,0.544224,20.4393,200.938,0.982143,0.0,0.0
375,93.5,33.3721,35.1765,134.992,99.1092,88.7387,0.00554606,0.551656,20.4318,200.828,0.979869,0.0,0.0
378,94.25,34.1795,36.0903,131.338,99.108,87.468,0.00572324,0.560204,20.4241,200.698,1.10763,0.0,0.0
381,95,34.9998,36.4325,136.493,99.0996,89.16,0.00587811,0.565691,20.4176,200.598,0.937012,0.0,0.0
384,95.75,35.6997,37.0568,130.086,99.0903,88.3966,0.00600344,0.570453,20.4072,200.458,1.01242,0.0,0.0
387,96.5,35.564,36.9794,129.532,99.1008,87.4871,0.00611605,0.578467,20.3983,200.358,1.10505,0.0,0.0
390,97.25,36.0719,37.7689,133.375,99.0968,87.8536,0.00620934,0.586794,20.3893,200.217,1.06762,0.0,0.0
393,98,36.8914,38.8422,129.561,99.0951,86.9794,0.0062939,0.593401,20.3815,200.127,1.15614,0.0,0.0
396,98.75,37.1492,39.0563,128.7,99.0871,86.568,0.00637569,0.599135,20.3753,199.987,1.19745,0.0,0.0
399,99.5,37.7885,39.7258,130.067,99.0883,87.2065,0.00647017,0.603816,20.3707,199.857,1.13241,0.0,0.0
402,100.25,38.0724,39.9198,127.361,99.0863,86.0346,0.00657162,0.607443,20.3669,199.747,1.25218,0.0,0.0
405,101,38.8102,40.7697,134.543,99.0859,85.8228,0.00667584,0.611107,20.3638,199.617,1.27399,0.0,0.0
408,101.75,39.0911,41.3819,125.6,99.0759,86.2405,0.00678924,0.613645,20.3611,199.497,1.23005,0.0,0.0
411,102.5,40.0103,41.6673,130.039,99.0791,84.8863,0.00688785,0.615269,20.3591,199.387,1.37065,0.0,0.0
414,103.25,40.5504,42.6942,127.112,99.0767,85.1993,0.00703453,0.615765,20.3577,199.267,1.3378,0.0,0.0
417,104,40.4623,42.5749,135.349,99.0767,86.2633,0.00715989,0.616203,20.3573,199.176,1.22778,0.0,0.0
420,104.75,40.8692,43.3319,131.393,99.0626,85.2682,0.00729725,0.616555,20.357,199.026,1.32938,0.0,0.0
423,105.5,41.1463,42.999,135.162,99.071,85.2338,0.00742216,0.61651,20.3572,198.906,1.33371,0.0,0.0
426,106.25,42.0887,44.8294,130.778,99.0723,84.7356,0.00754357,0.615949,20.3582,198.796,1.38579,0.0,0.0
429,107,41.8744,43.7739,132.454,99.067,84.7244,0.00763334,0.614639,20.3607,198.696,1.3865,0.0,0.0
432,107.75,42.7166,45.3121,128.313,99.0562,84.9312,0.00769931,0.612424,20.3635,198.556,1.36392,0.0,0.0
435,108.5,42.4834,45.2203,127.949,99.0698,84.1798,0.00773311,0.610159,20.3659,198.456,1.44392,0.0,0.0
438,109.25,43.2779,45.5099,134.5,99.0558,84.2371,0.00775776,0.607928,20.3685,198.346,1.43663,0.0,0.0
441,110,43.4908,46.2609,132.309,99.057,85.8573,0.00775965,0.605786,20.3713,198.256,1.26784,0.0,0.0
444,110.75,43.7509,46.6096,131.534,99.0598,85.6128,0.00776499,0.602702,20.3741,198.116,1.29337,0.0,0.0
447,111.5,43.9048,46.975,135.595,99.0485,84.8826,0.00777564,0.599376,20.3786,197.985,1.36831,0.0,0.0
450,112.25,44.308,47.3251,136.159,99.0518,85.1811,0.00780126,0.59511,20.3841,197.895,1.33748,0.0,0.0
453,113,44.3559,47.3282,131.173,99.0494,85.6323,0.00781993,0.591999,20.39,197.805,1.29042,0.0,0.0
456,113.75,44.7207,47.6924,133.668,99.0413,85.5526,0.0078296,0.58635,20.3959,197.695,1.29796,0.0,0.0
459,114.5,44.968,47.7454,135.456,99.0485,84.6078,0.00782988,0.580793,20.4011,197.595,1.39706,0.0,0.0
462,115.25,45.4096,48.4453,131.758,99.0397,85.6323,0.00783008,0.575365,20.4064,197.475,1.28956,0.0,0.0
465,116,45.3385,48.4715,134.94,99.0389,85.6946,0.00782666,0.570102,20.4121,197.385,1.28304,0.0,0.0
468,116.75,45.7504,49.0702,135.791,99.0317,86.1894,0.00782417,0.564305,20.417,197.305,1.23135,0.0,0.0
471,117.5,46.0856,49.5162,137.497,99.0261,85.4405,0.00782592,0.559244,20.4243,197.205,1.30821,0.0,0.0
474,118.25,46.2256,49.3128,136.869,99.0341,85.6834,0.00782094,0.552804,20.4308,197.105,1.28377,0.0,0.0
477,119,46.408,49.9413,135.333,99.0357,86.4758,0.0078074,0.546936,20.4375,197.025,1.20229,0.0,0.0
480,119.75,46.4749,50.0435,134.756,99.0333,86.4796,0.00778513,0.540116,20.4446,196.904,1.20169,0.0,0.0
483,120.5,46.9545,49.9943,133.737,99.0204,85.3708,0.00774514,0.534059,20.4524,196.834,1.31495,0.0,0.0
486,121.25,46.5729,50.6955,134.034,99.0301,87.2442,0.00770124,0.52779,20.4608,196.724,1.12336,0.0,0.0
489,122,46.8817,49.9717,140.503,99.0257,85.5717,0.00767328,0.520456,20.4706,196.624,1.29457,0.0,0.0
492,122.75,47.5883,50.3844,134.759,99.0136,85.5675,0.00764473,0.515109,20.4769,196.524,1.29393,0.0,0.0
495,123.5,47.305,50.9732,135.615,99.0132,84.5941,0.00762035,0.508288,20.4855,196.474,1.39533,0.0,0.0
498,124.25,47.1796,50.94,136.259,99.0148,86.0499,0.00761527,0.500691,20.493,196.344,1.2442,0.0,0.0
501,125,47.5512,50.9947,139.63,99.022,86.7602,0.00759314,0.494108,20.5004,196.284,1.17197,0.0,0.0
504,125.75,47.706,50.9644,137.867,99.0144,86.8519,0.00757008,0.48949,20.5096,196.214,1.16191,0.0,0.0
507,126.5,47.6654,51.3168,137.568,99.006,87.9649,0.00751406,0.478916,20.5189,196.124,1.04827,0.0,0.0
510,127.25,47.6878,51.3112,137.566,99.0172,87.0533,0.00744451,0.474518,20.5289,196.064,1.14164,0.0,0.0
513,128,47.7895,51.222,137.925,99.0518,86.2799,0.0073658,0.465155,20.5398,195.984,1.22384,0.0,0.0
516,128.75,48.1407,51.8102,137.433,99.0658,86.0578,0.00728148,0.456125,20.5508,195.894,1.24795,0.0,0.0
519,129.5,47.9118,51.9673,137.697,99.0763,86.514,0.00719258,0.44762,20.561,195.824,1.20201,0.0,0.0
522,130.25,47.7671,51.9703,134.589,99.0964,87.0865,0.00711608,0.43974,20.5701,195.753,1.14534,0.0,0.0
525,131,47.2702,51.8177,135.85,99.1201,86.069,0.00701797,0.430777,20.5785,195.703,1.25165,0.0,0.0
528,131.75,47.5523,51.2188,146.13,99.1434,86.458,0.00690809,0.422611,20.5878,195.613,1.21376,0.0,0.0
531,132.5,47.5206,51.8119,141.233,99.1683,87.1749,0.00679328,0.413866,20.599,195.553,1.14277,0.0,0.0
534,133.25,47.6606,51.442,144.189,99.1815,87.1811,0.00663336,0.404341,20.6103,195.483,1.14332,0.0,0.0
537,134,48.0076,51.1989,139.72,99.1976,88.8433,0.00645227,0.396056,20.6216,195.433,0.977326,0.0,0.0
540,134.75,47.4129,51.322,147.805,99.2149,88.8387,0.00625494,0.385667,20.633,195.373,0.979327,0.0,0.0
543,135.5,47.0747,51.6444,141.485,99.2237,88.0902,0.00604643,0.376075,20.6451,195.333,1.05512,0.0,0.0
546,136.25,47.1449,51.2645,144.314,99.2442,88.5838,0.00580274,0.368221,20.6575,195.233,1.00742,0.0,0.0
549,137,47.0997,51.0968,139.373,99.2582,87.9396,0.00558417,0.359272,20.668,195.203,1.07339,0.0,0.0
552,137.75,46.9922,50.966,143.955,99.2791,89.6731,0.00535487,0.349099,20.677,195.143,0.902189,0.0,0.0
555,138.5,47.0415,51.0906,143.368,99.2944,90.2277,0.00518771,0.339306,20.686,195.123,0.84889,0.0,0.0
558,139.25,46.6213,50.8495,142.172,99.2956,91.488,0.00493064,0.331152,20.6945,195.043,0.72602,0.0,0.0
561,140,46.6011,50.5021,142.307,99.3189,90.6644,0.00471995,0.321756,20.703,195.023,0.808272,0.0,0.0
564,140.75,46.4335,50.6585,142.553,99.3338,90.417,0.00452654,0.314907,20.7116,194.983,0.833824,0.0,0.0
567,141.5,46.2783,50.1352,146.09,99.3338,90.8052,0.00438473,0.306161,20.7178,194.953,0.795849,0.0,0.0
570,142.25,46.3969,49.9554,148.193,99.3458,91.8953,0.0042209,0.298185,20.7274,194.883,0.691128,0.0,0.0
573,143,46.2875,49.9691,145.351,99.3639,92.249,0.00404376,0.28895,20.7383,194.853,0.658686,0.0,0.0
576,143.75,45.8676,49.5871,144.933,99.3908,92.8986,0.00386686,0.280142,20.7502,194.813,0.598869,0.0,0.0
579,144.5,45.4546,49.4143,148.563,99.3772,93.1548,0.00371754,0.275019,20.7597,194.773,0.573241,0.0,0.0
582,145.25,45.4836,49.3624,147.884,99.3723,93.1988,0.00350058,0.267084,20.7689,194.743,0.568625,0.0,0.0
585,146,45.706,49.2441,143.265,99.3832,93.6969,0.00328262,0.259636,20.7775,194.703,0.522332,0.0,0.0
588,146.75,44.9912,48.62,147.289,99.388,93.4242,0.0030822,0.252834,20.7853,194.662,0.548606,0.0,0.0
591,147.5,44.8881,48.7818,147.163,99.4057,94.2241,0.00290867,0.245752,20.7935,194.652,0.474595,0.0,0.0
594,148.25,44.5326,48.1026,148.704,99.4057,95.3072,0.00277174,0.239686,20.8012,194.632,0.373272,0.0,0.0
597,149,44.4608,48.4223,152.277,99.4201,94.9975,0.00268532,0.233719,20.8076,194.592,0.403415,0.0,0.0
600,149.75,44.2609,48.1535,149.485,99.4262,95.0822,0.00262804,0.227206,20.8154,194.572,0.396053,0.0,0.0
603,150.5,44.1707,48.1154,150.128,99.4314,95.0178,0.00263844,0.220949,20.8224,194.542,0.40252,0.0,0.0
606,151.25,43.7272,47.8776,153.143,99.427,95.2553,0.00264602,0.214924,20.8281,194.502,0.379999,0.0,0.0
609,152,43.3896,47.2646,146.042,99.4322,96.2836,0.00273164,0.209128,20.834,194.482,0.285277,0.0,0.0
612,152.75,43.1445,46.9685,149.172,99.4467,96.2902,0.00283805,0.203018,20.8399,194.472,0.285954,0.0,0.0
615,153.5,43.0864,47.2403,149.907,99.4595,96.6406,0.0029492,0.197761,20.8459,194.452,0.254901,0.0,0.0
618,154.25,42.5806,46.7954,154.866,99.4406,96.1877,0.00305555,0.19177,20.8527,194.422,0.294862,0.0,0.0
621,155,43.0277,46.5535,155.405,99.4443,96.7863,0.00315927,0.186511,20.8594,194.402,0.240184,0.0,0.0
624,155.75,42.1419,45.8407,149.794,99.4607,97.4355,0.00325449,0.181154,20.8658,194.392,0.182379,0.0,0.0
627,156.5,42.2556,46.2758,147.842,99.4651,97.0528,0.00335225,0.176092,20.8716,194.372,0.217667,0.0,0.0
630,157.25,41.8425,45.9425,149.822,99.4647,97.1454,0.00345772,0.171376,20.8777,194.332,0.209179,0.0,0.0
633,158,41.854,45.2659,153.846,99.4583,96.7331,0.00359214,0.166536,20.8822,194.332,0.246305,0.0,0.0
636,158.75,41.8607,45.2577,149.675,99.4756,97.0756,0.00378852,0.162164,20.8861,194.332,0.216513,0.0,0.0
639,159.5,41.6695,45.0671,151.729,99.4816,96.9357,0.00410565,0.157972,20.8902,194.302,0.229834,0.0,0.0
642,160.25,41.2509,45.2091,152.069,99.4808,98.0732,0.00442928,0.15402,20.8938,194.292,0.126342,0.0,0.0
645,161,40.8178,44.8412,150.182,99.4768,96.6236,0.00482329,0.150339,20.8969,194.292,0.258001,0.0,0.0
648,161.75,40.4065,43.8447,148.761,99.4892,96.9262,0.00521389,0.146782,20.8999,194.272,0.231389,0.0,0.0
651,162.5,40.6996,44.1549,153.205,99.4985,97.1034,0.0056754,0.143817,20.9028,194.252,0.216012,0.0,0.0
654,163.25,40.1642,43.8408,152.202,99.5029,97.1296,0.00613666,0.140374,20.9053,194.242,0.21402,0.0,0.0
657,164,40.1271,43.6032,149.642,99.5162,97.3044,0.00652613,0.137864,20.9076,194.222,0.199263,0.0,0.0
660,164.75,39.5543,43.356,147.631,99.521,97.5053,0.00692967,0.134899,20.911,194.212,0.181405,0.0,0.0
663,165.5,39.191,43.0356,151.647,99.5362,96.9399,0.00722385,0.132255,20.9143,194.182,0.234323,0.0,0.0
666,166.25,39.1462,42.7709,149.667,99.531,96.8656,0.00759402,0.129411,20.9175,194.172,0.240656,0.0,0.0
669,167,38.907,42.2916,151.771,99.5395,97.25,0.00791485,0.12671,20.9205,194.152,0.206294,0.0,0.0
672,167.75,38.4118,42.3556,150.787,99.5571,96.9453,0.00830034,0.124473,20.923,194.162,0.235689,0.0,0.0
675,168.5,38.2783,41.9845,147.156,99.5587,96.7194,0.0086915,0.121791,20.9255,194.152,0.256508,0.0,0.0
678,169.25,38.2143,42.0144,153.219,99.5836,96.4504,0.00911743,0.119835,20.9282,194.132,0.283417,0.0,0.0
681,170,38.1683,41.4702,151.872,99.5712,96.2167,0.00951289,0.11726,20.9306,194.132,0.303816,0.0,0.0
684,170.75,38.0487,41.1264,151.378,99.5748,95.7974,0.00983741,0.114815,20.9323,194.112,0.342856,0.0,0.0
687,171.5,36.998,40.5663,156.446,99.5844,97.1416,0.0101591,0.112636,20.9339,194.092,0.220184,0.0,0.0
690,172.25,37.1955,40.6552,154.46,99.5953,96.9573,0.0104063,0.110787,20.9354,194.102,0.237986,0.0,0.0
693,173,37.2163,40.4257,152.533,99.5857,96.5991,0.0106083,0.109083,20.9373,194.062,0.269946,0.0,0.0
696,173.75,36.8876,40.439,151.929,99.5973,96.9482,0.0107644,0.10769,20.9386,194.062,0.239001,0.0,0.0
699,174.5,36.4797,39.819,150.317,99.6106,96.8967,0.0108847,0.10661,20.9396,194.052,0.244889,0.0,0.0
702,175.25,36.2197,39.6376,153.824,99.6174,97.3114,0.010977,0.105684,20.9404,194.042,0.207635,0.0,0.0
705,176,35.9859,39.5338,154.956,99.6202,97.4293,0.011043,0.105009,20.9409,194.022,0.19715,0.0,0.0
708,176.75,35.7885,39.3017,148.984,99.623,96.5355,0.0111008,0.104399,20.9413,194.022,0.279102,0.0,0.0
711,177.5,35.9623,39.1588,153.663,99.6359,96.8465,0.0111559,0.103927,20.9422,194.012,0.251738,0.0,0.0
714,178.25,35.2092,38.5248,154.685,99.6359,96.3707,0.011211,0.103527,20.9429,194.002,0.295394,0.0,0.0
717,179,35.049,38.3779,154.018,99.6415,96.8921,0.0112566,0.103161,20.9433,194.002,0.248059,0.0,0.0
720,179.75,35.2182,38.1825,152.709,99.6451,97.169,0.0113076,0.102894,20.9437,193.982,0.223082,0.0,0.0
723,180.5,34.6992,37.8755,151.994,99.656,96.7958,0.0113225,0.102727,20.944,193.982,0.258163,0.0,0.0
726,181.25,34.7797,38.0094,152.952,99.6708,97.135,0.0113344,0.102617,20.9441,193.952,0.228475,0.0,0.0
729,182,34.216,37.5192,149.282,99.6672,97.455,0.0113339,0.102557,20.9443,193.952,0.19899,0.0,0.0
732,182.75,34.3348,37.3165,156.572,99.6628,97.1682,0.0113258,0.10239,20.9446,193.942,0.224731,0.0,0.0
735,183.5,34.2242,37.2406,151.838,99.6752,97.9287,0.0113114,0.10228,20.9452,193.932,0.156721,0.0,0.0
738,184.25,33.9913,37.1128,150.11,99.6989,97.0524,0.0112917,0.101956,20.9457,193.932,0.23852,0.0,0.0
741,185,33.8961,36.6221,152.557,99.6965,97.9901,0.0112699,0.10172,20.9461,193.922,0.153054,0.0,0.0
744,185.75,33.4027,36.6168,153.173,99.6833,97.5729,0.0112415,0.101548,20.9465,193.912,0.1897,0.0,0.0
747,186.5,33.0105,36.1761,147.133,99.7022,97.3189,0.0112161,0.101423,20.9469,193.892,0.214494,0.0,0.0
750,187.25,32.8692,35.8419,157.891,99.7086,97.3052,0.0111974,0.101331,20.947,193.872,0.216313,0.0,0.0
753,188,32.5244,35.323,152.928,99.713,97.646,0.0111832,0.101085,20.9472,193.872,0.185709,0.0,0.0
756,188.75,32.2541,35.0834,150.333,99.7094,97.7083,0.011183,0.100771,20.9474,193.862,0.179736,0.0,0.0
759,189.5,32.0204,35.4753,150.51,99.7174,97.2076,0.0111879,0.100442,20.9475,193.842,0.225992,0.0,0.0
762,190.25,32.0465,34.7597,151.062,99.7279,97.6767,0.0111925,0.100325,20.9476,193.832,0.184241,0.0,0.0
765,191,32.0913,34.6532,151.274,99.7323,97.5954,0.0111869,0.100263,20.9481,193.832,0.192023,0.0,0.0
768,191.75,31.3572,34.3246,152.195,99.7327,97.3591,0.0111808,0.100229,20.9486,193.822,0.213541,0.0,0.0
771,192.5,31.7842,34.7733,152.905,99.7331,97.8502,0.0111729,0.100067,20.949,193.812,0.168969,0.0,0.0
774,193.25,31.8198,34.0739,153.815,99.7403,97.1723,0.0111672,0.0996831,20.9493,193.812,0.231246,0.0,0.0
777,194,31.6961,34.4145,152.422,99.7387,97.4546,0.0111631,0.0993148,20.9493,193.802,0.205387,0.0,0.0
780,194.75,31.1044,33.6042,154.008,99.7496,98.1259,0.0111613,0.09875,20.9493,193.772,0.145495,0.0,0.0
783,195.5,31.014,33.9574,151.995,99.7407,97.9669,0.0111632,0.0982802,20.9492,193.802,0.159086,0.0,0.0
786,196.25,30.8551,33.0588,154.743,99.7552,97.5111,0.0111692,0.0978384,20.9499,193.782,0.201715,0.0,0.0
789,197,30.4982,33.0294,154.035,99.7648,96.8585,0.0111917,0.0975237,20.9503,193.782,0.262103,0.0,0.0
792,197.75,30.5006,33.1278,152.982,99.7845,97.372,0.0112234,0.0973066,20.9506,193.762,0.216974,0.0,0.0
795,198.5,30.3934,33.1182,153.478,99.7668,97.837,0.0112598,0.0971287,20.9509,193.752,0.173173,0.0,0.0
798,199.25,30.2997,33.1072,151.445,99.7701,97.0088,0.0112977,0.0969577,20.9511,193.762,0.248823,0.0,0.0
801,200,30.3345,33.1419,152.06,99.7946,97.6464,0.0113254,0.0968226,20.951,193.742,0.192918,0.0,0.0
804,200.75,30.4897,32.6508,156.549,99.7841,97.1935,0.0113462,0.0967365,20.9505,193.722,0.233206,0.0,0.0
807,201.5,29.5765,32.359,151.281,99.7869,97.9453,0.0113625,0.0967918,20.9501,193.702,0.165145,0.0,0.0
810,202.25,29.5819,32.5457,152.538,99.7942,97.9806,0.0113783,0.0968901,20.9499,193.692,0.162594,0.0,0.0
813,203,29.709,32.1206,153.518,99.7913,97.3969,0.011392,0.097061,20.9497,193.712,0.215313,0.0,0.0
816,203.75,29.7794,31.9629,150.191,99.8026,97.2869,0.0114032,0.0972546,20.9496,193.682,0.226332,0.0,0.0
819,204.5,29.4709,31.7943,155.699,99.7913,97.5758,0.011415,0.0974251,20.9495,193.682,0.199042,0.0,0.0
822,205.25,28.985,31.8904,151.043,99.8026,97.7664,0.0114249,0.0975494,20.9494,193.662,0.182746,0.0,0.0
825,206,28.9072,31.4473,152.243,99.8078,97.4206,0.011437,0.0975435,20.9493,193.642,0.214623,0.0,0.0
828,206.75,28.2444,30.8071,149.761,99.8098,97.6933,0.0114361,0.0974705,20.9493,193.632,0.190017,0.0,0.0
831,207.5,28.924,32.0158,153.366,99.8082,97.4783,0.011428,0.0974055,20.9495,193.622,0.209409,0.0,0.0
834,208.25,28.764,31.4495,153.921,99.8086,97.1989,0.0113913,0.0972991,20.9503,193.622,0.234891,0.0,0.0
837,209,28.7362,31.4203,154.142,99.8251,98.0947,0.0113649,0.0971869,20.9506,193.622,0.155018,0.0,0.0
840,209.75,28.5834,30.9089,153.454,99.8191,96.8124,0.0113181,0.09714,20.951,193.602,0.27114,0.0,0.0
843,210.5,28.1345,30.2677,150.424,99.8223,97.2222,0.0112903,0.0970859,20.9513,193.602,0.233984,0.0,0.0
846,211.25,27.8385,30.9529,152.766,99.815,97.883,0.0112774,0.0969375,20.9515,193.592,0.173282,0.0,0.0
849,212,28.0791,30.8744,149.185,99.8195,96.9071,0.0112765,0.0968837,20.9516,193.582,0.262512,0.0,0.0
852,212.75,28.3171,30.4466,153.383,99.8203,97.8839,0.0112754,0.09684,20.9517,193.582,0.17367,0.0,0.0
855,213.5,28.2365,30.6726,153.451,99.8219,97.5439,0.0112746,0.0968279,20.9518,193.551,0.204659,0.0,0.0
858,214.25,27.6651,30.1106,150.328,99.813,97.2309,0.01126,0.0967207,20.9519,193.551,0.232368,0.0,0.0
861,215,27.7721,30.3114,150.028,99.8183,97.6784,0.0112434,0.096666,20.9519,193.541,0.192122,0.0,0.0
864,215.75,27.4142,30.1718,152.058,99.8323,97.4048,0.0111932,0.0966027,20.9519,193.521,0.218235,0.0,0.0
867,216.5,27.3272,30.0193,147.673,99.8138,97.3093,0.0111388,0.0965638,20.952,193.521,0.225288,0.0,0.0
870,217.25,27.6954,29.9252,152.152,99.807,97.9901,0.0110835,0.0965479,20.952,193.521,0.162872,0.0,0.0
873,218,27.2222,29.4408,150.805,99.8291,97.7074,0.0110295,0.0963985,20.952,193.511,0.190448,0.0,0.0
876,218.75,27.5922,29.6449,153.951,99.8299,97.4762,0.0109702,0.0962236,20.952,193.491,0.211525,0.0,0.0
879,219.5,27.234,29.7821,151.271,99.8311,96.9407,0.0109117,0.0960836,20.952,193.481,0.26047,0.0,0.0
882,220.25,26.9489,29.4495,153.521,99.8146,97.5239,0.0108626,0.0960406,20.952,193.481,0.205829,0.0,0.0
885,221,27.2276,29.0912,152.663,99.8162,97.1068,0.010823,0.0960092,20.9523,193.471,0.243978,0.0,0.0
888,221.75,27.1916,29.2736,158.54,99.8247,97.5534,0.0107951,0.0959501,20.9528,193.461,0.204041,0.0,0.0
891,222.5,26.9017,28.9993,152.341,99.8179,97.5339,0.0107794,0.095845,20.9532,193.451,0.205208,0.0,0.0
894,223.25,27.3176,28.876,153.447,99.8231,97.6464,0.010778,0.095727,20.9533,193.441,0.195451,0.0,0.0
897,224,27.2383,29.0104,151.047,99.8331,97.411,0.0107915,0.0956234,20.953,193.441,0.217739,0.0,0.0
900,224.75,26.8539,28.9321,153.107,99.8247,97.4438,0.0108057,0.0956461,20.9536,193.451,0.214006,0.0,0.0
903,225.5,26.4638,29.325,151.907,99.8255,97.5202,0.0108305,0.0957178,20.954,193.421,0.207131,0.0,0.0
906,226.25,26.5191,28.6025,154.835,99.8211,97.1939,0.0108465,0.0957936,20.9542,193.411,0.236451,0.0,0.0
909,227,27.0014,28.5857,150.181,99.8106,97.7456,0.0108693,0.0958894,20.9545,193.401,0.185343,0.0,0.0
912,227.75,26.4186,28.5082,150.362,99.8319,97.0237,0.01088,0.095973,20.9547,193.391,0.252953,0.0,0.0
915,228.5,26.236,28.4268,157.294,99.809,96.9067,0.0108774,0.0960399,20.9548,193.381,0.261622,0.0,0.0
918,229.25,26.6257,28.0254,151.333,99.8191,97.0295,0.0108628,0.0960189,20.9549,193.381,0.25128,0.0,0.0
921,230,26.0791,28.2732,151.365,99.8102,96.5766,0.010837,0.0959295,20.955,193.371,0.291973,0.0,0.0
924,230.75,26.0878,28.3903,155.154,99.8215,97.4625,0.0108117,0.0957526,20.9551,193.351,0.212022,0.0,0.0
927,231.5,25.9594,28.658,159.812,99.8175,98.003,0.0107705,0.0955549,20.9551,193.331,0.162636,0.0,0.0
930,232.25,26.082,28.2777,148.777,99.8102,97.3376,0.0107016,0.0953813,20.9547,193.321,0.222396,0.0,0.0
933,233,26.2749,27.8785,152.112,99.8271,97.3944,0.010599,0.0952744,20.9544,193.321,0.218716,0.0,0.0
936,233.75,25.7462,28.0991,157.004,99.8146,97.1512,0.0104887,0.0951965,20.9542,193.311,0.239781,0.0,0.0
939,234.5,25.6523,27.5657,151.011,99.8074,97.5223,0.0103932,0.0951201,20.9541,193.301,0.205337,0.0,0.0
942,235.25,26.0152,27.5633,153.252,99.8118,97.9241,0.0103198,0.0949955,20.9538,193.301,0.169274,0.0,0.0
945,236,25.6103,27.3656,151.398,99.8086,97.7282,0.0102647,0.0948319,20.9536,193.301,0.186746,0.0,0.0
948,236.75,26.0867,27.6047,154.405,99.8187,98.2064,0.0102824,0.0946382,20.9534,193.301,0.144362,0.0,0.0
951,237.5,25.6514,27.1278,153.352,99.8175,97.8444,0.0103383,0.0945099,20.9532,193.291,0.176992,0.0,0.0
954,238.25,25.8281,27.7562,154.096,99.8082,97.3604,0.0104062,0.0944219,20.9531,193.281,0.220138,0.0,0.0
957,239,25.5088,27.6062,155.525,99.8082,97.614,0.0104705,0.0944559,20.953,193.281,0.197072,0.0,0.0
960,239.75,25.3423,26.9864,150.025,99.8086,98.0491,0.0105102,0.0944807,20.953,193.271,0.157684,0.0,0.0
963,240.5,25.3873,26.8173,158.915,99.8026,97.5638,0.0105264,0.0944595,20.9529,193.251,0.201135,0.0,0.0
966,241.25,25.2475,26.8101,155.84,99.7994,97.8378,0.0105309,0.0943654,20.9529,193.251,0.175988,0.0,0.0
969,242,24.7313,26.8115,152.042,99.7865,97.4791,0.0105241,0.0942534,20.9529,193.251,0.207407,0.0,0.0
972,242.75,24.6782,26.6228,150.794,99.7893,97.3164,0.0104986,0.0940975,20.9529,193.231,0.222469,0.0,0.0
975,243.5,25.1113,27.4326,155.463,99.7917,98.02,0.0104565,0.094023,20.9529,193.231,0.158812,0.0,0.0
978,244.25,25.7961,26.7795,154.514,99.7901,97.3666,0.0104158,0.093985,20.9529,193.221,0.217965,0.0,0.0
981,245,24.9269,26.9833,153.466,99.7829,97.2637,0.010369,0.0939803,20.9529,193.221,0.226702,0.0,0.0
984,245.75,25.0821,26.8472,150.595,99.7817,97.5194,0.0103222,0.0940044,20.9533,193.211,0.203317,0.0,0.0
987,246.5,24.8245,26.4493,154.431,99.7725,97.7095,0.0102922,0.0940337,20.9538,193.201,0.185228,0.0,0.0
990,247.25,25.1926,26.9139,151.866,99.7825,97.8818,0.0102771,0.0939962,20.9542,193.201,0.170504,0.0,0.0
993,248,25.0063,26.2588,152.961,99.7741,97.0777,0.0102896,0.0939905,20.9544,193.181,0.242884,0.0,0.0
996,248.75,24.6061,26.4083,151.411,99.7636,97.2699,0.0102987,0.0940236,20.9546,193.181,0.224421,0.0,0.0
999,249.5,24.7746,26.3726,154.582,99.7696,97.5854,0.010356,0.0941655,20.9548,193.161,0.196248,0.0,0.0
1002,250.25,24.5224,25.6165,161.728,99.7797,97.964,0.0104218,0.0942415,20.9549,193.161,0.162812,0.0,0.0
1005,251,25.4202,26.2742,155.348,99.764,96.5094,0.0104868,0.0942851,20.9549,193.161,0.294045,0.0,0.0
1008,251.75,24.5058,26.2312,156.873,99.7612,97.9171,0.0105456,0.094248,20.9544,193.141,0.165416,0.0,0.0
1011,252.5,24.6483,26.117,150.001,99.7809,97.318,0.0105739,0.0941917,20.954,193.121,0.221568,0.0,0.0
1014,253.25,24.2655,25.5215,156.982,99.7596,97.6049,0.0105667,0.0941506,20.9537,193.111,0.193583,0.0,0.0
1017,254,24.3314,25.9619,156.814,99.7628,97.252,0.0105495,0.0940931,20.9534,193.111,0.225976,0.0,0.0
1020,254.75,24.6372,26.0411,151.233,99.7604,97.4061,0.0105017,0.0940322,20.9533,193.111,0.211733,0.0,0.0
1023,255.5,24.1496,25.7337,151.793,99.7588,97.2159,0.0104063,0.0939682,20.9536,193.091,0.228912,0.0,0.0
1026,256.25,24.7518,26.3078,154.65,99.7524,98.2446,0.0103215,0.0939092,20.9538,193.081,0.135026,0.0,0.0
1029,257,24.8476,25.7488,151.96,99.7524,97.3521,0.0102598,0.0938661,20.9539,193.071,0.215933,0.0,0.0
1032,257.75,24.5864,25.7821,153.534,99.7544,97.844,0.0101675,0.0937562,20.9545,193.051,0.171427,0.0,0.0
1035,258.5,24.4156,25.8755,155.733,99.7411,97.7191,0.0101404,0.0936181,20.9549,193.041,0.181577,0.0,0.0
1038,259.25,24.4105,25.8252,154.06,99.7407,98.0603,0.0101177,0.0934184,20.9554,193.041,0.150638,0.0,0.0
1041,260,24.0485,25.6765,153.526,99.7399,97.4725,0.010121,0.0933163,20.9553,193.041,0.203871,0.0,0.0
1044,260.75,24.2573,25.5047,149.884,99.7399,97.3982,0.0101335,0.0932663,20.9553,193.031,0.210631,0.0,0.0
1047,261.5,24.1176,25.7621,151.093,99.7411,97.4073,0.010149,0.0932481,20.9556,193.031,0.209907,0.0,0.0
1050,262.25,23.8511,25.6182,151.922,99.7431,97.2608,0.0101637,0.0932547,20.9559,193.021,0.223432,0.0,0.0
1053,263,24.0952,25.6625,153.096,99.7375,97.5962,0.0101717,0.0932712,20.9561,193.011,0.192411,0.0,0.0
1056,263.75,24.0287,25.4063,153.289,99.7351,97.3616,0.010173,0.0932832,20.9563,193.001,0.213527,0.0,0.0
1059,264.5,24.4909,25.3049,156.553,99.7367,98.1437,0.0101487,0.0932507,20.9564,193.001,0.142741,0.0,0.0
1062,265.25,23.9254,25.5039,150.497,99.7395,96.9407,0.0101209,0.093195,20.9565,192.991,0.252333,0.0,0.0
1065,266,23.8703,25.3869,159.31,99.7367,97.3504,0.0100837,0.0931295,20.9565,192.991,0.214691,0.0,0.0
1068,266.75,24.2026,25.7368,151.878,99.7423,97.773,0.0100384,0.0930681,20.9566,192.981,0.176789,0.0,0.0
1071,267.5,24.122,25.3651,152.492,99.7174,97.4696,0.0100021,0.0929957,20.9566,192.971,0.202134,0.0,0.0
1074,268.25,23.8945,25.4564,151.536,99.7307,97.2425,0.00996997,0.0929058,20.9566,192.971,0.22399,0.0,0.0
1077,269,23.6445,25.2097,151.621,99.7234,97.2886,0.00993751,0.0928474,20.9566,192.961,0.219148,0.0,0.0
1080,269.75,24.0744,25.4156,152.126,99.7234,96.5418,0.00991385,0.0928173,20.9566,192.951,0.287463,0.0,0.0
1083,270.5,23.4932,24.7748,153.403,99.7126,97.3567,0.00988037,0.092815,20.9566,192.931,0.211982,0.0,0.0
1086,271.25,23.5224,24.8236,152.793,99.7279,97.0046,0.00984875,0.0927857,20.9566,192.931,0.245454,0.0,0.0
1089,272,23.9735,24.587,150.583,99.7247,97.607,0.00982065,0.0927527,20.9566,192.921,0.190288,0.0,0.0
1092,272.75,23.8817,25.1658,153.415,99.7319,97.4447,0.00979801,0.0928071,20.9567,192.931,0.205685,0.0,0.0
1095,273.5,23.6694,24.9809,153.528,99.7202,96.9473,0.00978691,0.092854,20.9567,192.921,0.250011,0.0,0.0
1098,274.25,24.1214,24.4931,151.805,99.7271,97.6547,0.0097864,0.0929006,20.9567,192.931,0.186167,0.0,0.0
1101,275,23.853,24.9922,151.989,99.7243,97.0553,0.0097886,0.0928953,20.9567,192.911,0.240504,0.0,0.0
1104,275.75,23.6375,24.8796,148.682,99.7166,97.1267,0.00978907,0.092919,20.9567,192.901,0.233306,0.0,0.0
1107,276.5,23.7919,24.922,154.562,99.7158,97.3147,0.00977743,0.0929697,20.9567,192.881,0.216086,0.0,0.0
1110,277.25,23.3133,24.663,150.573,99.7339,97.1574,0.00974848,0.0930438,20.9567,192.871,0.232038,0.0,0.0
1113,278,23.1876,24.4302,154.52,99.7307,97.6958,0.00972738,0.0932549,20.9567,192.871,0.182757,0.0,0.0
1116,278.75,24.0399,24.7484,154.599,99.7214,96.9781,0.00970839,0.0934088,20.9567,192.851,0.24731,0.0,0.0
1119,279.5,23.3186,24.6588,153.173,99.7311,97.8855,0.00971729,0.0936977,20.9564,192.851,0.165595,0.0,0.0
1122,280.25,23.319,24.883,153.916,99.7275,97.069,0.00974279,0.0939083,20.9559,192.841,0.239539,0.0,0.0
1125,281,22.8898,24.3847,157.861,99.7303,97.4783,0.00977731,0.0938967,20.9555,192.831,0.202485,0.0,0.0
1128,281.75,23.0465,24.103,151.34,99.7391,97.2591,0.00980608,0.0938177,20.9556,192.811,0.223226,0.0,0.0
1131,282.5,23.5589,24.0124,151.106,99.7335,97.9283,0.00981314,0.0935639,20.9559,192.801,0.161937,0.0,0.0
1134,283.25,23.4372,24.5421,155.902,99.7287,97.0872,0.00981237,0.0933789,20.9561,192.801,0.237978,0.0,0.0
1137,284,23.3208,24.3971,148.764,99.7323,96.9573,0.00980169,0.0933019,20.9562,192.791,0.250172,0.0,0.0
1140,284.75,23.4334,24.3509,154.127,99.7383,97.5194,0.00978627,0.0933449,20.9564,192.801,0.199462,0.0,0.0
1143,285.5,22.4129,23.8328,150.21,99.7363,96.7817,0.00976934,0.0934155,20.9564,192.781,0.2666,0.0,0.0
1146,286.25,23.4073,24.405,153.329,99.7311,97.5186,0.00974942,0.0933844,20.9565,192.761,0.198894,0.0,0.0
1149,287,22.8287,24.5039,166.589,99.7447,98.0051,0.009733,0.0933265,20.9565,192.761,0.155987,0.0,0.0
1152,287.75,23.5578,24.3785,153.877,99.7455,96.6534,0.0097233,0.0931665,20.9559,192.751,0.279179,0.0,0.0
1155,288.5,23.2787,24.5136,153.119,99.7528,97.1483,0.00972343,0.0930637,20.9555,192.741,0.23455,0.0,0.0
1158,289.25,22.6445,23.4807,147.147,99.7383,96.8925,0.0097222,0.0929946,20.9552,192.741,0.256631,0.0,0.0
1161,290,23.1724,23.9555,153.547,99.7463,97.3807,0.00971903,0.093062,20.9556,192.721,0.212789,0.0,0.0
1164,290.75,23.2641,24.1998,152.447,99.758,97.6892,0.00970156,0.0930973,20.9559,192.721,0.185789,0.0,0.0
1167,291.5,23.0959,24.5637,155.475,99.748,97.9125,0.00968236,0.0931172,20.9561,192.711,0.164652,0.0,0.0
1170,292.25,23.1134,24.1158,150.765,99.7419,97.7593,0.00965756,0.0930729,20.9563,192.701,0.177996,0.0,0.0
1173,293,23.0852,24.1315,153.515,99.7395,97.4488,0.00963569,0.093055,20.9564,192.671,0.205987,0.0,0.0
1176,293.75,23.2899,23.999,150.029,99.7431,97.4343,0.00962146,0.0930668,20.9564,192.671,0.207629,0.0,0.0
1179,294.5,23.2499,24.0316,150.807,99.7576,97.0254,0.00961676,0.0930891,20.9565,192.661,0.246198,0.0,0.0
1182,295.25,23.2546,23.944,152.53,99.7536,97.8365,,0.0930967,,192.651,0.172033,0.0,0.0
1185,296,23.085,24.6555,154.413,99.7528,97.2101,,0.0930776,,192.661,0.228907,0.0,0.0
1188,296.75,23.1032,23.7505,152.035,99.7576,97.3006,,0.0929948,,192.631,0.221086,0.0,0.0
1191,297.5,23.1425,23.8532,153.128,99.7628,97.3392,,0.0928906,,192.621,0.218034,0.0,0.0
1194,298.25,22.3206,23.924,153.498,99.7624,97.6912,,,,192.621,0.185993,0.0,0.0
1197,299,22.9711,24.2291,149.072,99.7688,97.3255,,,,192.611,0.219817,0.0,0.0
1200,299.75,22.9112,23.4376,149.972,99.7769,97.575,,,,192.611,0.197833,0.0,0.0
1203,300.5,23.3311,24.282,149.546,99.7757,97.4198,,,,192.601,0.211844,0.0,0.0
1206,301.25,22.6245,23.4201,153.954,99.7684,97.8859,,,,192.591,0.168878,0.0,0.0
1209,302,23.0951,23.9631,156.487,99.7616,97.3803,,,,192.601,0.214184,0.0,0.0
1212,302.75,23.271,24.0195,154.662,99.7733,97.4517,,,,192.581,0.208721,0.0,0.0
1215,303.5,22.5622,23.9537,154.609,99.7781,97.6688,,,,192.581,0.18942,0.0,0.0
1218,304.25,23.0387,24.2543,152.903,99.7789,97.0831,,,,192.561,0.242819,0.0,0.0
1221,305,22.5001,23.4563,154.911,99.7656,96.3628,,,,192.561,0.307658,0.0,0.0
1223,305.5,22.6187,23.6125,154.017,99.7733,97.5817,,,,192.561,0.196908,0.0,0.0