File: 01_Data/Cotton_Rug/Cone/Cotton_Rug_Cone_HF50Scan_220321_R2.csv
Names,Time,Stack TC,Smoke TC,Exh Press,Smoke Comp,Smoke Meas,CO Meter,CO2 Meter,O2 Meter,Sample Mass,Ext Coeff,Start Test,Flame Verif
Chan Gain,,500,500,1,1,1,1,1,1,1,1,1.0,1.0
Offset,,0,0,0.134026,0,0,0,0,0,0,0,0.0,0.0
Gain,,1,1,25.011,13.1637,13.6028,1,1,1,1.00089,1.01066,1.0,1.0
Units,sec,C,C,Pa,%,%,%,%,%,g,/m,,
Baseline,,33.2106,34.4508,147.776,98.6103,94.5673,0.000511667,0.0530962,21.003,-834.873,0.371217,,
3,0.5,32.4515,33.0914,146.276,98.7513,95.1561,0.000754367,0.064627,20.9887,203.27,0.328783,0.0,0.0
6,1.25,31.2666,32.1453,143.744,98.7637,94.7758,0.000808244,0.0644466,20.9889,203.21,0.365399,0.0,0.0
9,2,30.8458,31.8825,146.106,98.7553,94.5882,0.000855983,0.0641656,20.9892,203.21,0.382211,0.0,0.0
12,2.75,30.6366,31.9574,150.991,98.777,94.6081,0.000891848,0.063897,20.9895,203.14,0.382291,0.0,0.0
15,3.5,30.7274,32.2733,146.386,98.746,94.4823,0.000913641,0.0634688,20.9897,203.15,0.391308,0.0,0.0
18,4.25,31.241,31.6136,147.837,98.7549,94.4408,0.000918735,0.0630924,20.9898,203.13,0.395999,0.0,0.0
21,5,31.153,32.251,146.851,98.7593,93.826,0.000920994,0.062708,20.9899,203.1,0.454297,0.0,0.0
24,5.75,30.6741,31.7846,148.904,98.7549,94.1104,0.000921094,0.0624664,20.9906,203.14,0.427072,0.0,0.0
27,6.5,30.6713,31.6931,148.125,98.7436,93.5201,0.000924615,0.062304,20.9911,203.1,0.481846,0.0,0.0
30,7.25,31.1684,32.3985,145.768,98.7457,92.5234,0.000945695,0.062225,20.9916,203.08,0.577019,0.0,0.0
33,8,31.4421,32.4468,148.117,98.7617,93.7496,0.000977351,0.0620563,20.9918,203.05,0.461733,0.0,0.0
36,8.75,31.3017,32.5106,145.483,98.7505,92.6284,0.00103559,0.0619047,20.992,203.03,0.567394,0.0,0.0
39,9.5,30.6473,32.3869,148.442,98.7376,91.8538,0.00111508,0.0617453,20.9921,203.02,0.640691,0.0,0.0
42,10.25,30.9241,32.0973,148.471,98.744,90.7533,0.0012043,0.0617528,20.9922,202.99,0.748126,0.0,0.0
45,11,31.0663,32.0698,144.286,98.7505,90.8056,0.0013228,0.0617785,20.9942,202.96,0.743594,0.0,0.0
48,11.75,31.1978,32.0765,150.351,98.7473,89.2036,0.00144208,0.0634755,20.9938,202.94,0.901104,0.0,0.0
51,12.5,30.7896,32.3714,144.793,98.7288,89.033,0.00153025,0.0647127,20.9865,202.83,0.916417,0.0,0.0
54,13.25,31.568,32.4794,138.505,98.7388,93.2013,0.00159376,0.0791198,20.9706,202.85,0.511687,0.0,0.0
57,14,31.524,32.2569,138.34,98.7376,94.3387,0.00163788,0.101884,20.9387,202.77,0.404039,0.0,1.0
60,14.75,31.6432,32.6506,127.95,98.7493,93.6782,0.00167004,0.130284,20.9068,202.61,0.467371,0.0,1.0
63,15.5,31.168,32.6937,134.392,98.7384,94.1079,0.00173159,0.162236,20.8708,202.539,0.425828,0.0,1.0
66,16.25,31.8361,33.3743,136.39,98.7529,93.9032,0.00182752,0.197237,20.8329,202.429,0.446426,0.0,1.0
69,17,32.6419,33.7323,135.916,98.7465,93.4773,0.00195191,0.227743,20.7945,202.369,0.486153,0.0,1.0
72,17.75,33.2684,34.2383,131.522,98.7477,93.6803,0.00209847,0.265662,20.7521,202.259,0.46703,0.0,1.0
75,18.5,34.0012,34.6275,133.895,98.7348,93.2743,0.00230623,0.297586,20.7152,202.129,0.504379,0.0,1.0
78,19.25,33.3897,34.8487,127.734,98.7392,92.7259,0.00250465,0.32818,20.678,202.049,0.557052,0.0,1.0
81,20,34.3037,35.386,134.605,98.7569,92.633,0.00272961,0.356862,20.6389,201.949,0.567534,0.0,1.0
84,20.75,34.7554,35.6668,125.823,98.7485,91.2082,0.00299496,0.383649,20.6034,201.849,0.704188,0.0,0.0
87,21.5,35.5337,35.9405,127.667,98.7477,89.3406,0.0031884,0.408577,20.5746,201.709,0.887537,0.0,0.0
90,22.25,35.9285,37.2379,128.649,98.7332,89.6395,0.0034818,0.434161,20.5443,201.599,0.856627,0.0,0.0
93,23,36.7615,38.1609,119.992,98.7408,89.8715,0.0037831,0.459081,20.5145,201.489,0.834393,0.0,0.0
96,23.75,37.5974,38.775,125.729,98.746,88.4543,0.00404002,0.482567,20.4865,201.338,0.975779,0.0,0.0
99,24.5,38.0872,39.5028,125.273,98.734,88.106,0.00435406,0.506437,20.4591,201.208,1.00967,0.0,0.0
102,25.25,38.484,39.9824,122.075,98.7207,87.4107,0.00469559,0.526715,20.4307,201.068,1.07873,0.0,0.0
105,26,39.4027,41.0653,124.24,98.7227,86.4264,0.00505725,0.551572,20.4009,200.928,1.1793,0.0,0.0
108,26.75,40.0504,41.7002,121.622,98.726,86.3642,0.0054315,0.57659,20.3709,200.788,1.18598,0.0,0.0
111,27.5,40.8357,42.651,122.404,98.7308,87.4215,0.0058351,0.601632,20.3405,200.638,1.07853,0.0,0.0
114,28.25,41.8474,43.3044,119.947,98.7119,86.1782,0.00618507,0.626494,20.3101,200.438,1.20383,0.0,0.0
117,29,42.0316,44.3025,123.515,98.7091,86.14,0.00656891,0.654631,20.2837,200.317,1.20751,0.0,0.0
120,29.75,43.3787,45.0551,119.756,98.7083,85.624,0.0069036,0.678965,20.2574,200.157,1.2607,0.0,0.0
123,30.5,44.3682,45.281,120.908,98.7091,84.582,0.00729956,0.703241,20.2294,199.987,1.36932,0.0,0.0
126,31.25,45.2995,47.1809,120.043,98.6902,85.6663,0.0075575,0.728777,20.2085,199.847,1.25469,0.0,0.0
129,32,45.5254,47.8391,112.431,98.697,83.9996,0.00798588,0.750735,20.1793,199.667,1.42949,0.0,0.0
132,32.75,46.6156,48.806,119.989,98.7015,83.4508,0.00839913,0.776771,20.1518,199.487,1.488,0.0,0.0
135,33.5,47.494,49.9241,115.862,98.6946,82.303,0.00870039,0.803537,20.1211,199.307,1.61017,0.0,0.0
138,34.25,47.9431,50.8868,119.562,98.6818,81.8908,0.00922148,0.821426,20.0923,199.126,1.65353,0.0,0.0
141,35,49.2949,51.7176,114.853,98.6745,80.464,0.00974247,0.847801,20.0651,198.916,1.80871,0.0,0.0
144,35.75,49.9389,53.0647,111.606,98.6946,79.3386,0.0101824,0.869463,20.0394,198.736,1.93538,0.0,0.0
147,36.5,50.8273,53.6165,116.18,98.681,81.6077,0.0106665,0.894143,20.0158,198.546,1.68416,0.0,0.0
150,37.25,51.7138,54.9571,115.232,98.6581,79.2938,0.0110891,0.915924,19.9902,198.316,1.93711,0.0,0.0
153,38,53.0214,55.9971,121.822,98.6613,79.4378,0.0115414,0.940208,19.9603,198.176,1.92131,0.0,0.0
156,38.75,53.8734,56.8272,114.182,98.6633,79.9106,0.0119392,0.964118,19.9328,197.965,1.86888,0.0,0.0
159,39.5,54.7607,58.0326,112.35,98.6569,76.8865,0.0123301,0.984193,19.9103,197.805,2.21032,0.0,0.0
162,40.25,55.5529,59.1501,118.478,98.6468,77.5992,0.0126458,1.0063,19.8844,197.565,2.12761,0.0,0.0
165,41,56.7513,60.1156,113.06,98.6312,77.5606,0.0129972,1.0242,19.8621,197.385,2.13061,0.0,0.0
168,41.75,57.4765,61.4969,113.788,98.6436,76.4742,0.0133127,1.04029,19.8431,197.175,2.25679,0.0,0.0
171,42.5,58.2913,62.0532,114.185,98.6312,77.3086,0.013568,1.05502,19.8273,196.995,2.15946,0.0,0.0
174,43.25,59.5852,63.4803,109.471,98.6312,76.6822,0.01382,1.06692,19.8158,196.774,2.23159,0.0,0.0
177,44,60.2591,64.1768,115.401,98.6283,76.0188,0.0140523,1.07611,19.8074,196.634,2.30837,0.0,0.0
180,44.75,60.1495,64.7884,113.885,98.6231,76.1056,0.0142565,1.08286,19.8013,196.394,2.29778,0.0,0.0
183,45.5,62.0158,66.3717,114.376,98.6267,77.0276,0.0144608,1.08732,19.7973,196.214,2.19135,0.0,0.0
186,46.25,62.7693,67.0186,117.519,98.6139,75.7,0.014637,1.09038,19.795,196.004,2.34433,0.0,0.0
189,47,63.3889,68.0513,126.509,98.593,78.3311,0.0147866,1.09108,19.7941,195.854,2.03955,0.0,0.0
192,47.75,63.8107,67.893,112.444,98.6046,79.0202,0.014912,1.09003,19.7966,195.643,1.96295,0.0,0.0
195,48.5,65.1257,69.8611,123.937,98.5962,77.845,0.0150151,1.08724,19.8033,195.493,2.09503,0.0,0.0
198,49.25,65.6639,71.031,112.886,98.5942,78.8002,0.0150952,1.08287,19.8102,195.313,1.98673,0.0,0.0
201,50,66.7828,71.4025,113.763,98.5886,76.4124,0.0151407,1.07517,19.8201,195.173,2.25901,0.0,0.0
204,50.75,67.3525,73.186,111.22,98.5966,78.4071,0.0151588,1.06517,19.8294,194.953,2.03128,0.0,0.0
207,51.5,67.977,73.4113,115.134,98.5966,76.8723,0.0151463,1.05366,19.8443,194.833,2.20653,0.0,0.0
210,52.25,68.7236,73.9419,116.999,98.5982,75.0823,0.0150984,1.0378,19.8622,194.642,2.41556,0.0,0.0
213,53,69.173,74.7284,119.433,98.5821,74.1981,0.015035,1.01927,19.888,194.502,2.51914,0.0,0.0
216,53.75,69.5292,75.2296,116.058,98.5846,76.8981,0.0149562,0.999298,19.9109,194.322,2.20248,0.0,0.0
219,54.5,70.0396,75.6694,119.066,98.589,74.6809,0.0148638,0.977007,19.9427,194.192,2.46225,0.0,0.0
222,55.25,70.3075,76.449,121.062,98.593,77.4265,0.0147153,0.953244,19.9658,194.042,2.14252,0.0,0.0
225,56,70.7952,76.8531,128.355,98.5922,77.8641,0.0146071,0.928707,19.9965,193.942,2.09249,0.0,0.0
228,56.75,71.3302,77.6564,122.542,98.5882,78.7877,0.0143311,0.898187,20.0236,193.802,1.98759,0.0,0.0
231,57.5,71.5229,77.3959,121.948,98.6054,77.3543,0.0139742,0.865975,20.0513,193.682,2.15192,0.0,0.0
234,58.25,71.7991,77.87,119.45,98.6287,78.434,0.0135916,0.838245,20.0878,193.541,2.03112,0.0,0.0
237,59,71.6045,78.4395,127.01,98.6034,78.8525,0.0131377,0.809761,20.1209,193.471,1.98167,0.0,0.0
240,59.75,72.0243,78.4003,124,98.593,79.4096,0.0126523,0.774855,20.1562,193.371,1.91832,0.0,0.0
243,60.5,72.1305,78.6341,129.197,98.6075,78.6208,0.0121622,0.737742,20.2101,193.301,2.00812,0.0,0.0
246,61.25,72.1436,77.955,131.89,98.6095,80.102,0.0115717,0.700658,20.2622,193.221,1.84283,0.0,0.0
249,62,71.5439,78.8556,133.071,98.5994,80.7737,0.0110362,0.66498,20.3056,193.101,1.7679,0.0,0.0
252,62.75,71.8992,78.5495,132.843,98.5974,81.8858,0.0104664,0.623981,20.3535,193.041,1.64649,0.0,0.0
255,63.5,71.8511,78.3473,134.386,98.6079,83.4583,0.00978509,0.585494,20.3936,192.981,1.47879,0.0,0.0
258,64.25,71.0621,78.5893,134.608,98.6123,83.071,0.00917504,0.553771,20.4315,192.921,1.52043,0.0,0.0
261,65,71.1997,77.9203,136.15,98.6091,85.7469,0.00846708,0.51679,20.4755,192.861,1.23907,0.0,0.0
264,65.75,71.2185,77.2264,139.485,98.6199,86.5887,0.00780569,0.484858,20.5163,192.801,1.15343,0.0,0.0
267,66.5,70.8884,77.5665,139.127,98.5966,88.4207,0.00720689,0.453075,20.5498,192.751,0.965724,0.0,0.0
270,67.25,71.1573,76.4819,136.495,98.6195,88.8993,0.0066768,0.421926,20.59,192.721,0.919921,0.0,0.0
273,68,70.081,76.8356,138.712,98.6131,91.3614,0.00616535,0.392719,20.6272,192.681,0.677149,0.0,0.0
276,68.75,70.0351,76.077,139.383,98.6059,91.591,0.00572229,0.366131,20.6604,192.641,0.65425,0.0,0.0
279,69.5,69.325,76.1869,144.965,98.6034,92.278,0.00536937,0.33955,20.6894,192.631,0.587781,0.0,0.0
282,70.25,69.2213,75.4233,140.861,98.6239,92.9169,0.00503217,0.315753,20.7129,192.611,0.528455,0.0,0.0
285,71,68.4607,75.3816,140.063,98.6336,93.085,0.00472968,0.294604,20.7339,192.571,0.513296,0.0,0.0
288,71.75,67.76,74.8587,143.381,98.6279,93.6865,0.0044705,0.275908,20.7543,192.551,0.455686,0.0,0.0
291,72.5,67.797,74.2594,144.089,98.6151,94.0668,0.00425949,0.260394,20.771,192.521,0.41862,0.0,0.0
294,73.25,67.2438,73.8283,139.897,98.6219,93.2859,0.00409625,0.245859,20.7863,192.521,0.493132,0.0,0.0
297,74,66.6702,73.1729,138.313,98.6243,93.7177,0.00397899,0.232563,20.8015,192.491,0.452415,0.0,0.0
300,74.75,66.4841,72.6688,146.43,98.6179,93.5184,0.00391559,0.220675,20.8149,192.501,0.470707,0.0,0.0
303,75.5,66.0409,72.273,141.558,98.6075,93.3154,0.00390527,0.210222,20.8259,192.501,0.489032,0.0,0.0
306,76.25,65.316,72.0063,143.352,98.6155,94.1233,0.00394304,0.201076,20.837,192.461,0.413336,0.0,0.0
309,77,64.8329,71.2305,146.766,98.6227,94.3669,0.00403079,0.193191,20.8458,192.4,0.391064,0.0,0.0
312,77.75,64.5214,70.5659,140.879,98.6062,93.9825,0.00419774,0.186474,20.8535,192.38,0.425771,0.0,0.0
315,78.5,64.0656,70.2968,146.847,98.5906,93.4142,0.00437435,0.180436,20.8574,192.38,0.478134,0.0,0.0
318,79.25,63.7497,69.9637,141.172,98.601,93.0829,0.0045784,0.175523,20.8637,192.36,0.510568,0.0,0.0
321,80,63.2822,69.1756,143.275,98.6014,93.3897,0.00490543,0.171068,20.8682,192.34,0.481435,0.0,0.0
324,80.75,63.1274,68.9184,140.325,98.5946,93.7949,0.00525907,0.167195,20.8712,192.35,0.442441,0.0,0.0
327,81.5,62.5411,68.5574,144.24,98.5842,93.5259,0.00558394,0.165028,20.8743,192.37,0.466965,0.0,0.0
330,82.25,62.174,68.0558,144.368,98.5978,93.7799,0.00587179,0.162054,20.8774,192.35,0.444143,0.0,0.0
333,83,61.8863,67.4956,140.811,98.6042,93.4038,0.00611781,0.15908,20.8804,192.33,0.480347,0.0,0.0
336,83.75,61.5805,67.1565,145.58,98.6006,94.4396,0.00632181,0.156162,20.8845,192.3,0.382256,0.0,0.0
339,84.5,61.1505,67.0502,142.727,98.5838,94.0132,0.00647774,0.153439,20.8875,192.28,0.420851,0.0,0.0
342,85.25,60.7895,66.4813,145.231,98.5926,93.6919,0.00660376,0.150984,20.8897,192.28,0.451996,0.0,0.0
345,86,60.4312,66.1838,143.406,98.6062,93.3515,0.00670984,0.148489,20.8921,192.26,0.485494,0.0,0.0
348,86.75,59.5905,65.6428,145.203,98.6002,93.9456,0.00680464,0.146455,20.8943,192.24,0.428715,0.0,0.0
351,87.5,59.4773,65.3302,144.984,98.5769,93.9846,0.00689564,0.144604,20.8959,192.21,0.422938,0.0,0.0
354,88.25,59.091,64.8961,143.684,98.5809,93.6944,0.00698668,0.143086,20.897,192.22,0.450713,0.0,0.0
357,89,58.5682,64.3612,143.4,98.5753,94.386,0.00710826,0.141929,20.8979,192.2,0.385009,0.0,0.0
360,89.75,58.5916,63.8587,140.394,98.5761,93.552,0.00723941,0.141124,20.8985,192.2,0.463763,0.0,0.0
363,90.5,58.3259,63.6714,144.226,98.5596,93.8181,0.00738372,0.140698,20.8991,192.18,0.4371,0.0,0.0
366,91.25,57.632,63.205,143.743,98.5584,93.7235,0.0074637,0.140359,20.8993,192.15,0.445941,0.0,0.0
369,92,57.3966,63.1203,146.251,98.5729,93.2087,0.00759162,0.140055,20.8995,192.14,0.496067,0.0,0.0
372,92.75,56.8933,63.1015,144.767,98.5637,93.051,0.00770811,0.139758,20.8997,192.12,0.510253,0.0,0.0
375,93.5,57.3837,62.214,145.179,98.558,94.0203,0.0077983,0.139441,20.8998,192.1,0.417873,0.0,0.0
378,94.25,56.9285,62.0038,144.744,98.5524,93.5786,0.00787308,0.139307,20.8999,192.08,0.459115,0.0,0.0
381,95,55.9845,61.5746,145.05,98.5492,93.8592,0.00793295,0.139349,20.9,192.07,0.432278,0.0,0.0
384,95.75,55.6698,61.7416,141.037,98.5351,93.6811,0.00797911,0.139464,20.9,192.05,0.44785,0.0,0.0
387,96.5,55.7545,60.5148,142.25,98.5452,93.6521,0.00802174,0.139669,20.9,192.05,0.451505,0.0,0.0
390,97.25,54.818,60.5379,146.288,98.5207,93.6309,0.00806637,0.139637,20.9001,192.05,0.451305,0.0,0.0
393,98,54.9724,60.1139,144.465,98.5436,94.0004,0.00813403,0.13936,20.9001,192.06,0.418451,0.0,0.0
396,98.75,55.1289,59.5479,146.019,98.5303,93.9804,0.00819833,0.138924,20.901,192.03,0.419138,0.0,0.0
399,99.5,54.5315,59.3917,140.711,98.5203,92.9061,0.00828102,0.138391,20.902,192.03,0.520164,0.0,0.0
402,100.25,54.0668,59.2547,146.132,98.4986,93.7293,0.00836141,0.137609,20.9028,192,0.440005,0.0,0.0
405,101,54.0626,58.8944,144.746,98.5171,93.6944,0.00842858,0.136871,20.9033,191.99,0.444967,0.0,0.0
408,101.75,53.5313,58.6087,145.183,98.5163,93.8418,0.00850395,0.135912,20.9037,191.97,0.430962,0.0,0.0
411,102.5,53.4581,58.1427,148.471,98.5243,93.5114,0.00857015,0.135129,20.9039,191.98,0.462957,0.0,0.0
414,103.25,53.0411,58.0006,145.277,98.5139,93.6695,0.00860226,0.134522,20.904,191.96,0.447035,0.0,0.0
417,104,53.0669,57.9424,142.741,98.5066,93.6064,0.00860716,0.134099,20.9045,191.94,0.452358,0.0,0.0
420,104.75,52.6379,57.6765,142.124,98.5102,93.3843,0.00857906,0.133791,20.905,191.95,0.473743,0.0,0.0
423,105.5,52.371,56.7624,145.245,98.5042,94.0008,0.00854206,0.133407,20.9054,191.88,0.414869,0.0,0.0
426,106.25,52.1297,56.9016,144.455,98.4805,93.5076,0.00848683,0.133126,20.9059,191.88,0.45937,0.0,0.0
429,107,51.759,56.9222,145.171,98.4833,93.2926,0.00847164,0.132742,20.9067,191.86,0.480034,0.0,0.0
432,107.75,52.5131,56.1528,147.282,98.4853,93.2598,0.00849448,0.132388,20.9072,191.85,0.483331,0.0,0.0
435,108.5,51.6571,55.536,144.525,98.4801,93.1697,0.00853882,0.132003,20.9076,191.83,0.49143,0.0,0.0
438,109.25,51.2124,56.2078,142.314,98.4681,93.4495,0.00859377,0.131625,20.9079,191.83,0.463761,0.0,0.0
441,110,50.9124,55.5697,143.743,98.4697,93.3038,0.00864819,0.131314,20.9082,191.81,0.47774,0.0,0.0
444,110.75,50.7499,55.1099,146.173,98.4721,93.5255,0.00869037,0.131101,20.9083,191.81,0.456919,0.0,0.0
447,111.5,50.3633,55.5365,142.92,98.4773,93.6865,0.00872219,0.131005,20.9084,191.79,0.442134,0.0,0.0
450,112.25,50.0672,54.9258,144.358,98.4624,93.6683,0.00874539,0.131033,20.9085,191.78,0.442524,0.0,0.0
453,113,50.1352,54.5926,142.717,98.4612,93.2714,0.0087623,0.131118,20.9086,191.76,0.480057,0.0,0.0
456,113.75,49.8257,54.6776,149.479,98.4725,93.4491,0.00876925,0.131218,20.9086,191.78,0.464198,0.0,0.0
459,114.5,49.5899,54.1328,141.443,98.4656,93.2374,0.00876571,0.131304,20.9087,191.75,0.483692,0.0,0.0
462,115.25,49.7898,53.751,143.145,98.4576,93.5346,0.00874841,0.131374,20.9087,191.73,0.45475,0.0,0.0
465,116,49.2715,53.7505,143.207,98.452,93.1859,0.00870712,0.131404,20.9087,191.72,0.487357,0.0,0.0
468,116.75,49.206,53.8725,146.434,98.4552,93.5209,0.00865818,0.131375,20.9087,191.7,0.455833,0.0,0.0
471,117.5,48.7013,53.4164,146.289,98.46,93.3864,0.00861049,0.131265,20.9094,191.68,0.469026,0.0,0.0
474,118.25,48.5629,53.1088,143.758,98.4484,93.3499,0.00856895,0.131085,20.9101,191.68,0.471445,0.0,0.0
477,119,48.474,52.6374,145.805,98.4347,93.5931,0.00854244,0.130925,20.911,191.66,0.447143,0.0,0.0
480,119.75,48.4325,52.6329,141.521,98.4436,93.2988,0.00852471,0.130731,20.9116,191.65,0.475861,0.0,0.0
483,120.5,48.402,52.3461,146.132,98.4568,93.4923,0.00851358,0.130475,20.9121,191.64,0.458693,0.0,0.0
486,121.25,48.2592,52.1653,144.591,98.4367,93.3906,0.00851049,0.130205,20.9124,191.64,0.466533,0.0,0.0
489,122,48.248,52.0167,141.889,98.4371,93.0921,0.00851567,0.129972,20.9127,191.63,0.49495,0.0,0.0
492,122.75,47.6393,52.0729,143.298,98.4223,93.3993,0.00852849,0.129663,20.9129,191.63,0.464402,0.0,0.0
495,123.5,47.4962,51.5606,144.873,98.4202,93.0178,0.00854663,0.129423,20.913,191.61,0.500508,0.0,0.0
498,124.25,47.538,51.0056,140.949,98.4303,93.4914,0.00856361,0.129242,20.9131,191.6,0.456384,0.0,0.0
501,125,47.618,51.6322,144.049,98.4307,93.2478,0.0085785,0.12931,20.9132,191.59,0.479557,0.0,0.0
504,125.75,47.1215,51.3009,143.297,98.4215,93.4047,0.00859042,0.129528,20.9132,191.58,0.463819,0.0,0.0
507,126.5,47.0368,51.2358,143.321,98.4271,93.1822,0.00860037,0.129818,20.9132,191.56,0.48547,0.0,0.0
510,127.25,46.6248,50.563,146.017,98.4219,93.1585,0.00861676,0.13013,20.9131,191.55,0.487251,0.0,0.0
513,128,47.0553,50.5952,144.595,98.4106,93.2565,0.00864342,0.130357,20.9131,191.52,0.476919,0.0,0.0
516,128.75,46.809,50.7575,144.793,98.4166,93.2266,0.00868617,0.130551,20.9131,191.5,0.480303,0.0,0.0
519,129.5,46.5602,50.03,142.531,98.4239,93.1871,0.00871482,0.130704,20.9131,191.49,0.484706,0.0,0.0
522,130.25,46.1787,50.2191,144.77,98.4174,94.0606,0.00873464,0.130696,20.913,191.44,0.40142,0.0,0.0
525,131,46.2739,49.9163,145.245,98.4026,93.3437,0.00870963,0.130564,20.913,191.44,0.467911,0.0,0.0
528,131.75,46.1015,49.8346,146.344,98.3969,93.3445,0.00865998,0.130384,20.913,191.43,0.467327,0.0,0.0
531,132.5,46.1989,49.6389,144.049,98.4038,93.2511,0.0086104,0.130203,20.9133,191.44,0.476817,0.0,0.0
534,133.25,45.7391,49.7112,142.801,98.4058,93.2702,0.00855919,0.13007,20.9138,191.43,0.475183,0.0,0.0
537,134,45.6795,49.4135,144.519,98.4086,93.6558,0.00851808,0.129908,20.9142,191.41,0.438855,0.0,0.0
540,134.75,45.6188,49.2555,144.661,98.3897,93.6126,0.00849263,0.129675,20.9145,191.37,0.441241,0.0,0.0
543,135.5,44.9957,49.7082,144.606,98.3953,92.9128,0.00848788,0.129394,20.9148,191.36,0.50828,0.0,0.0
546,136.25,45.2203,49.0327,143.914,98.3982,93.0526,0.00849032,0.129141,20.9149,191.36,0.495195,0.0,0.0
549,137,44.9688,48.8692,145.598,98.3841,93.5608,0.00850822,0.128997,20.915,191.31,0.44565,0.0,0.0
552,137.75,44.9287,49.0733,147.955,98.3765,93.1402,0.00852664,0.128962,20.9151,191.31,0.484899,0.0,0.0
555,138.5,45.4656,47.9956,141.247,98.3921,93.2739,0.00853611,0.128966,20.9152,191.31,0.473596,0.0,0.0
558,139.25,44.8193,48.3708,143.059,98.3945,93.0008,0.00853622,0.129009,20.9152,191.299,0.499815,0.0,0.0
561,140,44.7758,48.1231,148.515,98.3921,92.9779,0.00853128,0.12897,20.9153,191.269,0.501774,0.0,0.0
564,140.75,44.7556,48.5944,141.381,98.3728,93.2303,0.00853149,0.128802,20.9153,191.279,0.476004,0.0,0.0
567,141.5,44.1376,48.2743,148.63,98.3845,93.1008,0.00854181,0.12849,20.9153,191.279,0.489378,0.0,0.0
570,142.25,44.3038,47.7767,145.405,98.3921,93.0987,0.0085852,0.128066,20.9153,191.259,0.490263,0.0,0.0
573,143,44.5867,47.9078,146.157,98.3901,92.8355,0.00863671,0.127674,20.9159,191.219,0.515181,0.0,0.0
576,143.75,44.4456,47.4279,143.233,98.3736,93.3461,0.00870829,0.127308,20.9166,191.209,0.465068,0.0,0.0
579,144.5,44.2592,47.9618,146.45,98.3773,92.8833,0.00878691,0.127014,20.9172,191.199,0.509464,0.0,0.0
582,145.25,43.9335,47.4295,143.176,98.3869,92.924,0.00886212,0.126787,20.9178,191.209,0.506451,0.0,0.0
585,146,44.0263,47.1399,143.608,98.3853,92.8106,0.00892828,0.126382,20.9181,191.189,0.517125,0.0,0.0
588,146.75,43.6755,47.2182,145.128,98.3684,92.9231,0.00897453,0.125961,20.9184,191.179,0.504865,0.0,0.0
591,147.5,43.5165,46.9247,145.645,98.37,93.1332,0.00900484,0.125599,20.9186,191.149,0.484991,0.0,0.0
594,148.25,43.5561,46.6411,147.857,98.3801,93.2328,0.00902694,0.125116,20.9187,191.149,0.476418,0.0,0.0
597,149,43.2607,47.0371,142.602,98.3692,93.0543,0.00903766,0.124713,20.9188,191.129,0.492431,0.0,0.0
600,149.75,43.2312,46.8609,142.379,98.368,93.4346,0.00904799,0.124331,20.9183,191.119,0.456168,0.0,0.0
603,150.5,43.4821,46.7614,143.154,98.3761,93.4815,0.00905527,0.124066,20.9186,191.099,0.452443,0.0,0.0
606,151.25,43.4226,46.5227,146.353,98.3749,93.5579,0.00905831,0.123879,20.9188,191.089,0.445092,0.0,0.0
609,152,43.173,46.1819,143.933,98.3733,93.4437,0.00904436,0.123677,20.9189,191.059,0.455772,0.0,0.0
612,152.75,42.9831,46.2622,144.667,98.3716,93.4524,0.00901085,0.123379,20.919,191.059,0.4548,0.0,0.0
615,153.5,43.2888,45.6597,142.858,98.3652,93.662,0.00898642,0.123099,20.9191,191.049,0.434356,0.0,0.0
618,154.25,42.5076,46.1822,147.128,98.37,93.7052,0.00891824,0.122716,20.9192,191.029,0.430705,0.0,0.0
621,155,42.9348,45.8611,149.089,98.3664,93.8102,0.00882326,0.122437,20.9194,191.029,0.420448,0.0,0.0
624,155.75,42.8545,45.8269,144.342,98.3745,93.1568,0.00871331,0.122234,20.9199,190.999,0.483137,0.0,0.0
627,156.5,42.9154,45.4769,141.76,98.3608,93.6907,0.00858924,0.122127,20.9206,190.979,0.431247,0.0,0.0
630,157.25,42.4799,45.6625,148.047,98.3724,93.6251,0.0084682,0.122031,20.9211,190.959,0.438506,0.0,0.0
633,158,42.4275,45.5652,144.545,98.3797,93.3142,0.00835964,0.121899,20.9215,190.959,0.468649,0.0,0.0
636,158.75,42.0716,45.6288,145.331,98.3753,93.3461,0.008268,0.121691,20.9218,190.959,0.465214,0.0,0.0
639,159.5,42.3471,45.9736,148.184,98.368,92.9883,0.00820745,0.121492,20.922,190.919,0.498612,0.0,0.0
642,160.25,41.9598,45.4151,146.131,98.3708,93.1361,0.00817838,0.121188,20.9221,190.909,0.484788,0.0,0.0
645,161,42.1553,45.2646,144.508,98.3805,93.8094,0.00815799,0.120952,20.9222,190.909,0.421793,0.0,0.0
648,161.75,42.515,45.1501,139.931,98.3765,93.8671,0.00816569,0.12073,20.9223,190.899,0.41598,0.0,0.0
651,162.5,42.294,45.2944,144.863,98.3757,93.371,0.00819098,0.120493,20.9223,190.899,0.462884,0.0,0.0
654,163.25,42.2837,44.7885,147.248,98.3652,93.2851,0.00820566,0.120299,20.923,190.879,0.470105,0.0,0.0
657,164,42.2561,44.8488,147.121,98.3789,93.7364,0.00821475,0.11998,20.9235,190.869,0.428556,0.0,0.0
660,164.75,42.0843,44.5823,148.332,98.3757,93.5475,0.00818919,0.119566,20.9238,190.849,0.446148,0.0,0.0
663,165.5,41.4569,44.7366,148.905,98.3604,93.129,0.00815801,0.119158,20.9241,190.839,0.484518,0.0,0.0
666,166.25,41.7281,44.9216,144.165,98.3753,93.4387,0.00811386,0.118811,20.9243,190.839,0.456426,0.0,0.0
669,167,41.7908,44.6917,144.803,98.3708,93.7721,0.00804237,0.118613,20.9244,190.809,0.424457,0.0,0.0
672,167.75,42.0833,44.1686,146.464,98.3604,93.3532,0.00798169,0.118515,20.9245,190.829,0.463204,0.0,0.0
675,168.5,41.576,44.3512,142.659,98.3688,93.4038,0.00792281,0.11848,20.9246,190.809,0.459156,0.0,0.0
678,169.25,41.2662,44.6226,143.41,98.3508,93.7845,0.00788113,0.1184,20.9247,190.779,0.421468,0.0,0.0
681,170,41.6337,43.8891,144.024,98.3648,93.1996,0.00785063,0.118273,20.9247,190.779,0.478201,0.0,0.0
684,170.75,41.7737,43.9664,145.977,98.36,93.1361,0.00782726,0.118106,20.9247,190.739,0.48381,0.0,0.0
687,171.5,41.1413,44.3809,146.987,98.3536,93.349,0.00780957,0.117956,20.9248,190.739,0.462982,0.0,0.0
690,172.25,41.7075,44.1469,146.122,98.3407,93.1967,0.00779555,0.117806,20.9257,190.749,0.476304,0.0,0.0
693,173,41.1892,43.9564,148.258,98.3524,93.7397,0.00778354,0.117646,20.9269,190.719,0.425852,0.0,0.0
696,173.75,41.2451,43.5739,145.967,98.3524,93.6608,0.00777979,0.117348,20.9277,190.679,0.433315,0.0,0.0
699,174.5,41.1935,43.879,145.044,98.3419,93.54,0.00777919,0.117054,20.9283,190.689,0.443815,0.0,0.0
702,175.25,41.1725,43.4346,147.115,98.3315,93.4246,0.00778943,0.116548,20.9286,190.669,0.453818,0.0,0.0
705,176,40.7438,43.8225,144.715,98.3467,93.5574,0.00781479,0.11601,20.9296,190.659,0.442598,0.0,0.0
708,176.75,41.0346,43.5644,142.343,98.3355,93.9477,0.00785206,0.115543,20.9303,190.649,0.404684,0.0,0.0
711,177.5,40.7495,43.4791,146.502,98.3355,93.0107,0.00789582,0.115189,20.9308,190.659,0.493542,0.0,0.0
714,178.25,40.8376,43.3084,143.227,98.3186,93.7272,0.00794238,0.115003,20.9318,190.629,0.423988,0.0,0.0
717,179,40.9292,42.9926,145.122,98.3222,92.9468,0.0079942,0.114678,20.9325,190.619,0.498442,0.0,0.0
720,179.75,40.6405,43.0999,145.222,98.327,93.8937,0.00803951,0.114393,20.9331,190.619,0.409017,0.0,0.0
723,180.5,40.379,43.1852,146.783,98.3307,93.4275,0.0080764,0.114047,20.9335,190.589,0.45347,0.0,0.0
726,181.25,40.5173,43.0527,143.794,98.3295,94.0141,0.00810442,0.113736,20.9338,190.589,0.397874,0.0,0.0
729,182,40.6616,43.0643,143.002,98.3146,93.2341,0.00811693,0.113366,20.934,190.609,0.470397,0.0,0.0
732,182.75,40.0978,43.0086,141.601,98.3347,93.3453,0.00811251,0.113021,20.9341,190.589,0.461636,0.0,0.0
735,183.5,40.4301,42.8749,143.986,98.319,93.6782,0.00810392,0.11271,20.9342,190.579,0.428659,0.0,0.0
738,184.25,40.3577,42.7863,149.878,98.3017,93.5566,0.00810303,0.112454,20.9343,190.569,0.438619,0.0,0.0
741,185,40.4326,43.0738,142.765,98.2953,93.2058,0.00811164,0.112217,20.9344,190.549,0.471342,0.0,0.0
744,185.75,40.4612,42.2012,147.236,98.3146,93.5715,0.00813378,0.112045,20.935,190.519,0.438363,0.0,0.0
747,186.5,40.0806,42.7075,142.24,98.3078,93.6284,0.00817,0.111904,20.9354,190.519,0.43236,0.0,0.0
750,187.25,40.2722,42.3128,143.045,98.2961,93.3677,0.00821684,0.111777,20.9356,190.489,0.456028,0.0,0.0
753,188,40.3389,42.3854,140.527,98.3126,93.5168,0.00827133,0.111485,20.9357,190.509,0.443376,0.0,0.0
756,188.75,39.6036,42.4174,150.097,98.3009,93.765,0.00832228,0.111192,20.9358,190.479,0.418822,0.0,0.0
759,189.5,40.2511,42.2354,142.516,98.305,93.5911,0.00837864,0.11084,20.9358,190.469,0.435645,0.0,0.0
762,190.25,39.7928,42.5603,141.85,98.2953,93.4271,0.00842869,0.11046,20.9363,190.469,0.450322,0.0,0.0
765,191,39.5494,42.372,145.448,98.2857,93.0871,0.00846517,0.110129,20.9368,190.479,0.481773,0.0,0.0
768,191.75,39.756,42.2495,147.938,98.2881,93.6002,0.00849177,0.10963,20.9372,190.449,0.433259,0.0,0.0
771,192.5,39.4178,42.1667,149.615,98.2873,93.381,0.00849682,0.10915,20.938,190.429,0.45397,0.0,0.0
774,193.25,39.7188,41.9421,142.8,98.2809,93.0531,0.00849297,0.108601,20.9387,190.409,0.48458,0.0,0.0
777,194,39.2512,41.4411,146.844,98.2696,93.5221,0.00848695,0.108062,20.9396,190.419,0.438987,0.0,0.0
780,194.75,38.6191,41.6035,145.44,98.276,93.396,0.00848124,0.107545,20.9405,190.399,0.451538,0.0,0.0
783,195.5,39.5555,41.3409,145.108,98.2756,93.4628,0.00847482,0.107056,20.9412,190.389,0.445159,0.0,0.0
786,196.25,39.3285,41.3641,148.379,98.2724,93.3818,0.00848389,0.1066,20.9418,190.359,0.45255,0.0,0.0
789,197,39.1647,41.2409,145.181,98.2652,93.2527,0.00849636,0.106268,20.9424,190.349,0.464163,0.0,0.0
792,197.75,39.2596,41.4576,144.419,98.2736,93.2079,0.0085413,0.106026,20.9428,190.339,0.469188,0.0,0.0
795,198.5,38.5016,40.8404,148.532,98.278,93.1826,0.00858267,0.105806,20.9431,190.339,0.471995,0.0,0.0
798,199.25,39.0246,40.5785,146.002,98.2772,92.9866,0.00862753,0.105572,20.9434,190.339,0.490585,0.0,0.0
801,200,38.5238,40.9876,148.451,98.2644,93.1245,0.00867459,0.105442,20.9435,190.319,0.476294,0.0,0.0
804,200.75,38.7146,40.4458,142.038,98.2616,93.3013,0.0087026,0.105366,20.9437,190.299,0.459221,0.0,0.0
807,201.5,39.0806,41.0379,145.132,98.2708,93.7816,0.00871042,0.105271,20.9437,190.309,0.414535,0.0,0.0
810,202.25,38.9121,41.2343,152.242,98.2612,93.2835,0.00869914,0.105104,20.9438,190.299,0.460882,0.0,0.0
813,203,38.6739,40.5828,143.359,98.2628,93.5603,0.00867042,0.104942,20.9439,190.279,0.43475,0.0,0.0
816,203.75,39.0333,40.5813,145.066,98.2467,92.8588,0.00861443,0.104685,20.9439,190.259,0.500028,0.0,0.0
819,204.5,38.6698,40.513,141.462,98.2519,93.618,0.00853959,0.104429,20.9441,190.249,0.428307,0.0,0.0
822,205.25,38.6244,40.5437,146.004,98.2479,93.7488,0.00848503,0.104213,20.9447,190.259,0.415569,0.0,0.0
825,206,38.8697,40.6711,147.86,98.2371,93.2631,0.008422,0.103858,20.9452,190.249,0.46064,0.0,0.0
828,206.75,38.6581,40.6042,143.01,98.2371,93.5882,0.00837353,0.103541,20.9455,190.219,0.429796,0.0,0.0
831,207.5,38.6193,40.5372,147.506,98.2571,93.4615,0.00833449,0.10321,20.9457,190.209,0.44361,0.0,0.0
834,208.25,38.9113,40.8793,140.17,98.2467,93.7949,0.00830151,0.10293,20.9459,190.189,0.411103,0.0,0.0
837,209,38.2871,40.7222,142.362,98.2371,93.1776,0.0082687,0.102711,20.9462,190.168,0.468773,0.0,0.0
840,209.75,38.7718,40.2605,143.321,98.2326,93.8331,0.00824103,0.102527,20.9469,190.158,0.406226,0.0,0.0
843,210.5,38.3649,40.4589,146.85,98.2447,94.0809,0.00819761,0.102215,20.9473,190.168,0.383929,0.0,0.0
846,211.25,38.3075,40.6964,144.34,98.2503,93.1294,0.00815218,0.101922,20.9477,190.148,0.474552,0.0,0.0
849,212,38.6141,40.4426,147.984,98.2495,93.5931,0.00811318,0.101597,20.9479,190.128,0.430447,0.0,0.0
852,212.75,38.5247,40.5842,146.62,98.2294,93.8107,0.00807045,0.101123,20.9481,190.128,0.408054,0.0,0.0
855,213.5,38.3842,40.0984,145.294,98.2427,93.0116,0.00804056,0.100778,20.9482,190.138,0.485093,0.0,0.0
858,214.25,38.1168,40.1919,148.009,98.2443,93.4213,0.00802457,0.100408,20.9483,190.108,0.446269,0.0,0.0
861,215,38.3825,40.0074,144.571,98.2419,93.1859,0.00802194,0.100166,20.949,190.088,0.468417,0.0,0.0
864,215.75,38.5637,40.3267,144.804,98.229,92.9991,0.00802717,0.0999871,20.9496,190.088,0.485047,0.0,0.0
867,216.5,38.5546,39.692,151.07,98.2298,92.9406,0.00803099,0.0998317,20.9499,190.058,0.490702,0.0,0.0
870,217.25,38.1013,40.0751,145.221,98.2379,93.8098,0.0080012,0.0995609,20.9502,190.068,0.408895,0.0,0.0
873,218,38.1582,39.9785,145.267,98.2415,93.2175,0.0079656,0.0992669,20.9504,190.058,0.46538,0.0,0.0
876,218.75,38.1115,39.8484,146.167,98.2286,92.9713,0.00790085,0.0990114,20.9506,190.078,0.487664,0.0,0.0
879,219.5,37.9284,40.0901,148.612,98.2302,93.0041,0.0078371,0.0987149,20.9508,190.058,0.484681,0.0,0.0
882,220.25,37.6785,39.9629,145.22,98.2467,94.3233,0.0077728,0.0984516,20.951,190.068,0.361295,0.0,0.0
885,221,37.7933,39.7854,145.705,98.2471,93.2681,0.00771716,0.0981291,20.9511,190.028,0.461072,0.0,0.0
888,221.75,38.0049,39.435,142.23,98.2503,94.1884,0.00767156,0.0976706,20.9512,190.028,0.374311,0.0,0.0
891,222.5,38.0095,39.7555,144.781,98.2415,93.6857,0.00763607,0.0972261,20.9518,190.018,0.420959,0.0,0.0
894,223.25,38.1299,39.5837,143.514,98.2475,93.6911,0.00762089,0.0968479,20.9523,190.018,0.420991,0.0,0.0
897,224,37.7751,39.3844,144.474,98.2451,93.4819,0.00760983,0.0965597,20.9527,189.998,0.440594,0.0,0.0
900,224.75,37.7799,39.9971,144.722,98.2335,93.2295,0.00764279,0.0962945,20.953,190.008,0.463511,0.0,0.0
903,225.5,37.3636,39.4275,148.488,98.2298,93.8717,0.00767809,0.0959951,20.9534,189.998,0.402325,0.0,0.0
906,226.25,37.8376,39.4692,145.213,98.2487,93.3042,0.00770401,0.0957415,20.9541,189.968,0.457785,0.0,0.0
909,227,37.3551,39.345,145.208,98.2395,93.2328,0.00771503,0.0954978,20.9546,189.948,0.463739,0.0,0.0
912,227.75,37.813,39.6666,143.365,98.2527,93.9144,0.00770429,0.0952766,20.955,189.918,0.400355,0.0,0.0
915,228.5,37.5534,39.5623,146.999,98.2391,93.5682,0.00767464,0.095041,20.9553,189.898,0.431865,0.0,0.0
918,229.25,37.8404,39.2526,143.649,98.2555,93.3673,0.0076294,0.0947317,20.9555,189.908,0.452409,0.0,0.0
921,230,37.8352,39.6038,147.21,98.2608,93.6479,0.00756768,0.0944991,20.9556,189.908,0.426273,0.0,0.0
924,230.75,37.6849,39.0155,142.764,98.2632,93.6944,0.00751043,0.0943171,20.9557,189.888,0.42209,0.0,0.0
927,231.5,37.9185,39.4039,146.698,98.2547,93.222,0.00743486,0.0941451,20.9558,189.898,0.466142,0.0,0.0
930,232.25,37.7459,39.075,145.701,98.2664,93.3968,0.00735482,0.093998,20.9561,189.888,0.450589,0.0,0.0
933,233,37.5017,39.1572,140.364,98.264,93.3424,0.00727139,0.0938537,20.9567,189.858,0.455534,0.0,0.0
936,233.75,37.1723,39.0206,142.293,98.2576,93.6417,0.00718588,0.0937288,20.9571,189.858,0.426572,0.0,0.0
939,234.5,37.1456,39.2627,142.849,98.2499,93.4242,0.00710221,0.093587,20.9575,189.838,0.446503,0.0,0.0
942,235.25,37.1351,39.1045,147.502,98.2443,93.7359,0.00703997,0.093397,20.9579,189.828,0.416459,0.0,0.0
945,236,37.6146,39.3061,145.709,98.2616,93.3079,0.00699473,0.0931484,20.9587,189.818,0.45859,0.0,0.0
948,236.75,37.7171,39.5754,145.994,98.2676,93.4889,0.00696286,0.0928479,20.9592,189.808,0.441953,0.0,0.0
951,237.5,37.2548,38.6184,150.661,98.2483,93.7368,0.00693176,0.092505,20.9596,189.798,0.416744,0.0,0.0
954,238.25,37.3988,39.1146,144.294,98.2559,93.3295,0.00689564,0.0919805,20.9599,189.798,0.456031,0.0,0.0
957,239,37.2246,39.0792,146.769,98.2708,93.5782,0.00686183,0.0914806,20.9601,189.768,0.433784,0.0,0.0
960,239.75,37.5827,38.9911,145.878,98.2624,93.2585,0.00683073,0.0911016,20.9602,189.798,0.463358,0.0,0.0
963,240.5,37.1564,39.2839,145.705,98.2487,93.5305,0.00680245,0.0908006,20.9603,189.768,0.436314,0.0,0.0
966,241.25,37.4774,38.9261,144.943,98.2531,93.4582,0.00678183,0.0905378,20.9604,189.738,0.443563,0.0,0.0
969,242,37.4271,38.9177,145.745,98.272,94.0307,0.00673484,0.090272,20.9608,189.728,0.391128,0.0,0.0
972,242.75,37.4646,39.2503,145.507,98.276,93.9991,0.00668317,0.0900371,20.9612,189.728,0.394465,0.0,0.0
975,243.5,37.2808,38.9997,146.58,98.2632,93.5176,0.00662499,0.0898482,20.9615,189.738,0.43884,0.0,0.0
978,244.25,37.4586,38.6687,147.046,98.2688,93.2897,0.0065602,0.0895732,20.9617,189.708,0.460978,0.0,0.0
981,245,37.3407,38.5346,147.646,98.2905,93.3167,0.00648936,0.0892997,20.9621,189.698,0.460372,0.0,0.0
984,245.75,37.6651,39.1031,145.724,98.2736,93.5101,0.00642438,0.0890756,20.9628,189.698,0.44049,0.0,0.0
987,246.5,37.2124,38.8837,145.074,98.2724,93.804,0.00637142,0.0888926,20.9633,189.678,0.41256,0.0,0.0
990,247.25,37.1407,39.0088,145.207,98.264,93.3407,0.00633033,0.0887231,20.9636,189.678,0.455692,0.0,0.0
993,248,37.2722,39.1744,146.615,98.2728,94.0062,0.00629866,0.0885378,20.9639,189.678,0.39351,0.0,0.0
996,248.75,37.4161,38.4652,147.889,98.2869,93.528,0.00627446,0.0883243,20.9641,189.678,0.439994,0.0,0.0
999,249.5,37.2191,38.0386,150.32,98.2801,92.99,0.00624796,0.0881254,20.9642,189.658,0.490522,0.0,0.0
1002,250.25,36.6696,38.367,146.015,98.272,93.205,0.0062208,0.0879062,20.9643,189.638,0.469319,0.0,0.0
1005,251,36.8906,38.7979,145.702,98.2813,94.046,0.00618759,0.0875703,20.9644,189.648,0.390514,0.0,0.0
1008,251.75,37.2286,38.3853,146.594,98.2853,93.107,0.00615228,0.0872157,20.9645,189.648,0.479839,0.0,0.0
1011,252.5,36.6385,38.5567,147.338,98.2873,93.8588,0.00610756,0.0869104,20.9645,189.638,0.408723,0.0,0.0
1014,253.25,37.135,38.4708,148.828,98.2849,93.0776,0.00606788,0.08659,20.965,189.628,0.48261,0.0,0.0
1017,254,36.8525,38.6077,148.555,98.2897,93.5574,0.00604887,0.0863204,20.9655,189.608,0.437454,0.0,0.0
1020,254.75,36.6987,38.3483,144.59,98.2917,93.7459,0.00604905,0.0860621,20.9659,189.598,0.419794,0.0,0.0
1023,255.5,37.2179,37.9106,150.071,98.3046,94.2997,0.00606592,0.0857641,20.9662,189.588,0.368737,0.0,0.0
1026,256.25,36.9876,38.4175,149.049,98.2865,94.2835,0.00609062,0.0854929,20.9664,189.598,0.368629,0.0,0.0
1029,257,36.9695,38.2548,145.996,98.2877,94.1361,0.00610471,0.0852829,20.9665,189.598,0.382605,0.0,0.0
1032,257.75,36.8526,38.4229,142.565,98.309,93.9925,0.00610828,0.0849929,20.9673,189.588,0.398064,0.0,0.0
1035,258.5,36.9343,38.3449,144.697,98.3042,93.4578,0.00607737,0.0847022,20.9678,189.568,0.448204,0.0,0.0
1038,259.25,37.1157,38.1367,147.088,98.2997,93.731,0.00604057,0.0843546,20.9688,189.558,0.421932,0.0,0.0
1041,260,36.8342,38.0018,143.232,98.2997,93.953,0.00595539,0.0839253,20.9696,189.548,0.400951,0.0,0.0
1044,260.75,36.8366,38.2383,148.579,98.2977,94.1012,0.00587765,0.0835692,20.9701,189.548,0.386796,0.0,0.0
1047,261.5,36.2904,38.1898,144.717,98.307,93.9356,0.00579424,0.0832356,20.9705,189.518,0.403247,0.0,0.0
1050,262.25,36.3689,37.7724,144.371,98.3017,93.6778,0.00572106,0.0829636,20.9708,189.498,0.42714,0.0,0.0
1053,263,36.7424,38.2861,148.202,98.2969,93.7085,0.00566649,0.082716,20.971,189.488,0.423799,0.0,0.0
1056,263.75,36.4391,38.3443,144.668,98.3138,93.7297,0.00562617,0.082516,20.9712,189.508,0.423319,0.0,0.0
1059,264.5,36.3606,38.6104,144.976,98.327,93.6733,0.00560297,0.0823428,20.9713,189.528,0.429855,0.0,0.0
1062,265.25,37.039,38.1571,144.164,98.3098,93.7712,0.00558869,0.0821976,20.9716,189.508,0.41903,0.0,0.0
1065,266,36.9555,38.0467,146.581,98.3106,93.3706,0.00554488,0.0820795,20.9717,189.488,0.457057,0.0,0.0
1068,266.75,36.9665,37.8787,144.329,98.3254,93.5915,0.00547918,0.0819934,20.9719,189.468,0.437454,0.0,0.0
1071,267.5,37.1342,38.1612,145.683,98.3407,94.0427,0.00539792,0.0817744,20.972,189.438,0.396189,0.0,0.0
1074,268.25,36.3261,37.779,146.398,98.3254,93.7114,0.0052876,0.0815788,20.972,189.438,0.426096,0.0,0.0
1077,269,36.4691,38.2982,146.38,98.3158,93.8443,0.0051899,0.0813746,20.9721,189.438,0.412668,0.0,0.0
1080,269.75,36.9053,37.9669,144.875,98.3283,93.5612,0.00511131,0.0811573,20.9721,189.438,0.440578,0.0,0.0
1083,270.5,36.5556,38.0891,145.337,98.3331,93.611,0.00504874,0.0809625,20.9721,189.418,0.436294,0.0,0.0
1086,271.25,36.5698,38.385,144.018,98.3431,94.0701,0.00500442,0.0808082,20.9722,189.418,0.393823,0.0,0.0
1089,272,36.3955,38.166,147.379,98.3323,93.8742,0.00497434,0.0806372,20.9728,189.428,0.41133,0.0,0.0
1092,272.75,36.4566,37.9362,144.721,98.3383,93.4815,0.004945,0.0804549,20.9733,189.428,0.44904,0.0,0.0
1095,273.5,36.5304,38.0475,145.265,98.3487,94.1,0.00492046,0.0802235,20.9736,189.398,0.391514,0.0,0.0
1098,274.25,36.5057,38.1751,144.202,98.3532,93.7496,0.00488674,0.0799378,20.9739,189.398,0.424983,0.0,0.0
1101,275,36.6447,38.0095,144.307,98.3459,94.0282,0.00484985,0.0796504,20.974,189.398,0.398029,0.0,0.0
1104,275.75,36.7948,38.2787,143.674,98.3556,93.7413,0.00481971,0.0793055,20.9742,189.378,0.425985,0.0,0.0
1107,276.5,36.7284,37.9573,143.966,98.37,93.8626,0.0047922,0.0788901,20.9743,189.348,0.415832,0.0,0.0
1110,277.25,36.388,38.2814,146.207,98.3588,94.0726,0.00475104,0.0784598,20.9748,189.338,0.395001,0.0,0.0
1113,278,36.2487,38.3303,147.137,98.3415,93.7227,0.00470257,0.0780477,20.9756,189.348,0.426485,0.0,0.0
1116,278.75,36.4793,38.3905,141.505,98.3584,93.9169,0.00465935,0.0775915,20.9765,189.318,0.409646,0.0,0.0
1119,279.5,36.5758,38.0571,152.278,98.3664,93.4047,0.00459448,0.0772452,20.9773,189.318,0.45886,0.0,0.0
1122,280.25,36.5998,37.9885,142.957,98.3736,93.8987,0.00453679,0.076987,20.9778,189.338,0.412748,0.0,0.0
1125,281,36.4192,38.1827,145.249,98.37,93.9672,0.00447695,0.0767987,20.9782,189.308,0.405957,0.0,0.0
1128,281.75,36.5146,38.1362,145.957,98.3865,93.4532,0.00441753,0.0765795,20.9786,189.318,0.456061,0.0,0.0
1131,282.5,36.7677,38.3173,144.042,98.3849,93.4051,0.00436775,0.0763848,20.979,189.308,0.460485,0.0,0.0
1134,283.25,36.1843,37.8063,147.219,98.3889,93.293,0.00431133,0.0761845,20.9793,189.308,0.471492,0.0,0.0
1137,284,36.5322,37.6582,150.232,98.3805,93.5425,0.00425472,0.0759709,20.9795,189.288,0.447055,0.0,0.0
1140,284.75,36.4723,37.7297,147.465,98.3769,94.3636,0.00419134,0.0757865,20.9796,189.288,0.369248,0.0,0.0
1143,285.5,36.1682,37.9067,146.051,98.4066,94.3719,0.00413571,0.0755158,20.9797,189.288,0.371147,0.0,0.0
1146,286.25,36.4668,37.4228,143.5,98.413,93.8069,0.00405313,0.0752639,20.9798,189.268,0.424961,0.0,0.0
1149,287,36.2272,38.2217,145.01,98.3986,94.2644,0.00399293,0.0750641,20.9799,189.278,0.380529,0.0,0.0
1152,287.75,36.1097,37.2926,145.781,98.3953,94.4329,0.00392805,0.0749308,20.9801,189.278,0.364402,0.0,0.0
1155,288.5,36.2256,37.2161,148,98.411,93.7758,0.00387707,0.0748063,20.9804,189.248,0.427723,0.0,0.0
1158,289.25,35.9762,37.5986,145.009,98.4186,94.0489,0.00383898,0.0747039,20.9806,189.248,0.402625,0.0,0.0
1161,290,35.9681,37.9606,145.432,98.415,94.472,0.00381232,0.0745201,20.9814,189.228,0.362513,0.0,0.0
1164,290.75,36.6582,37.8245,146.108,98.411,93.4113,0.00379657,0.0743396,20.9819,189.248,0.462247,0.0,0.0
1167,291.5,36.2497,37.6713,141.62,98.4251,93.8235,0.00378992,0.0740718,20.9823,189.228,0.424477,0.0,0.0
1170,292.25,36.0416,37.5952,144.776,98.4211,94.7675,0.00379066,0.0737674,20.9825,189.218,0.335362,0.0,0.0
1173,293,36.8564,38.0001,142.404,98.4215,94.2328,0.00380348,0.0734919,20.9825,189.218,0.385559,0.0,0.0
1176,293.75,36.2573,37.6553,146.778,98.407,94.423,0.00383381,0.0732787,20.9825,189.208,0.366388,0.0,0.0
1179,294.5,36.345,37.5802,145.161,98.4202,93.7791,0.00387693,0.0730833,20.9825,189.178,0.428241,0.0,0.0
1182,295.25,35.8738,37.0331,146.528,98.4263,93.5703,0.00391082,0.0729408,20.9826,189.188,0.448545,0.0,0.0
1185,296,36.5457,37.6808,145.064,98.4307,94.0058,0.00393399,0.0727397,20.9826,189.178,0.40778,0.0,0.0
1188,296.75,36.3203,37.6272,149.598,98.413,93.8634,0.00394646,0.0725249,20.9826,189.168,0.419627,0.0,0.0
1191,297.5,36.0804,37.2039,147.175,98.4211,93.3627,0.00393979,0.0723393,20.983,189.158,0.467763,0.0,0.0
1194,298.25,36.0593,37.474,145.925,98.4319,94.0859,0.00391284,0.0721651,20.9833,189.158,0.400336,0.0,0.0
1197,299,36.3754,37.2389,148.785,98.4431,94.1681,0.00388377,0.0719291,20.9831,189.138,0.393608,0.0,0.0
1200,299.75,36.2478,37.2906,148.971,98.4283,94.0618,0.00381232,0.0716603,20.9832,189.138,0.40228,0.0,0.0
1203,300.5,36.0353,37.6289,145.201,98.454,93.3798,0.00372655,0.0713786,20.9837,189.138,0.469114,0.0,0.0
1206,301.25,36.308,37.8926,144.313,98.4516,93.88,0.00366802,0.0711926,20.9839,189.148,0.421532,0.0,0.0
1209,302,36.0263,37.6664,144.775,98.4456,93.863,,0.0710162,,189.138,0.422597,0.0,0.0
1212,302.75,35.8681,37.5235,146.287,98.4403,94.2345,,0.0708701,,189.128,0.387104,0.0,0.0
1215,303.5,35.7783,37.4458,151.787,98.4367,93.3777,,0.0706859,,189.108,0.467756,0.0,0.0
1218,304.25,36.3466,37.4879,148.96,98.4355,93.4661,,0.0705918,,189.108,0.459256,0.0,0.0
1221,305,35.8403,37.3583,147.728,98.4492,93.8028,,,,189.098,0.42861,0.0,0.0
1224,305.75,36.2092,37.4028,148.521,98.4544,94.401,,,,189.118,0.372723,0.0,0.0
1227,306.5,36.4341,37.314,148.143,98.4423,93.7467,,,,189.108,0.433293,0.0,0.0
1230,307.25,36.1164,37.7908,145.767,98.4468,94.1639,,,,189.098,0.394324,0.0,0.0
1233,308,36.35,37.0701,145.963,98.454,94.4711,,,,189.068,0.366101,0.0,0.0
1236,308.75,36.3204,37.6438,142.295,98.4548,93.4175,,,,189.068,0.4656,0.0,0.0
1239,309.5,36.052,37.3877,142.985,98.4335,93.8904,,,,189.088,0.418924,0.0,0.0
1242,310.25,36.0435,37.642,148.283,98.4532,93.7791,,,,189.108,0.431208,0.0,0.0
1245,311,36.1593,37.4994,143.306,98.4616,94.6031,,,,189.088,0.354409,0.0,0.0
1248,311.75,36.1293,37.3096,146.315,98.4524,94.4753,,,,189.088,0.365566,0.0,0.0
1251,312.5,36.038,37.5036,144.947,98.458,94.6691,,,,189.068,0.3479,0.0,0.0