File: 01_Data/Cotton_Rug/Cone/Cotton_Rug_Cone_HF75Scan_220321_R1.csv
Names,Time,Stack TC,Smoke TC,Exh Press,Smoke Comp,Smoke Meas,CO Meter,CO2 Meter,O2 Meter,Sample Mass,Ext Coeff,Start Test,Flame Verif
Chan Gain,,500,500,1,1,1,1,1,1,1,1,1.0,1.0
Offset,,0,0,0.129198,0,0,0,0,0,0,0,0.0,0.0
Gain,,1,1,25.011,13.1874,13.4895,1,1,1,1.00089,1.01187,1.0,1.0
Units,sec,C,C,Pa,%,%,%,%,%,g,/m,,
Baseline,,40.1427,42.1954,126.491,99.9138,94.3779,0.00105099,0.0697317,20.9922,-835.135,0.505995,,
3,0.5,40.3531,41.7958,130.083,99.9199,95.0265,0.000841588,0.0718673,20.9922,179.49,0.445695,0.0,0.0
6,1.25,40.0599,42.0967,123.568,99.9075,93.6182,0.000937381,0.0720711,20.9915,179.37,0.577117,0.0,0.0
9,2,39.4642,41.5366,124.711,99.8906,92.5837,0.00107431,0.0722786,20.9898,179.22,0.674245,0.0,0.0
12,2.75,39.7917,41.7181,123.681,99.9071,91.7999,0.00123165,0.0727856,20.988,179.32,0.751176,0.0,0.0
15,3.5,39.7271,41.5495,122.924,99.9232,89.9663,0.00142638,0.0745892,20.9852,179.12,0.931687,0.0,0.0
18,4.25,39.4862,41.3293,128.796,99.9018,89.2521,0.00163882,0.078356,20.9807,179.12,1.00054,0.0,0.0
21,5,39.6145,41.2847,123.868,99.9151,86.9249,0.00185587,0.0923467,20.9502,179.03,1.23622,0.0,0.0
24,5.75,39.2933,41.574,115.753,99.9171,94.2691,0.00211459,0.117002,20.9023,178.86,0.516481,0.0,0.0
27,6.5,39.8918,41.788,110.446,99.9187,95.006,0.00238247,0.1515,20.8435,178.84,0.44751,0.0,1.0
30,7.25,40.4101,41.9549,105.038,99.9063,94.2596,0.00261155,0.204596,20.7786,178.769,0.516407,0.0,1.0
33,8,40.2559,42.058,112.608,99.9038,93.6409,0.00287077,0.261879,20.7313,178.559,0.574648,0.0,1.0
36,8.75,40.3872,42.8894,109.468,99.9091,92.848,0.00321745,0.321347,20.6658,178.449,0.650587,0.0,1.0
39,9.5,41.4359,43.2703,111.656,99.9187,91.4965,0.0036945,0.381439,20.5972,178.319,0.781596,0.0,1.0
42,10.25,42.1782,43.9118,103.123,99.9107,91.4714,0.00420146,0.446027,20.5383,178.129,0.783317,0.0,1.0
45,11,43.0287,44.9051,102.662,99.9014,89.9865,0.0046389,0.501972,20.4649,177.949,0.927766,0.0,1.0
48,11.75,44.0149,45.6586,104.766,99.8966,88.6721,0.00525419,0.553935,20.3839,177.799,1.05795,0.0,1.0
51,12.5,44.4129,46.5448,104.991,99.9195,84.9741,0.00588501,0.610932,20.305,177.618,1.4381,0.0,1.0
54,13.25,45.4141,47.418,97.6332,99.9063,83.446,0.0065089,0.671382,20.2334,177.428,1.59799,0.0,0.0
57,14,46.8099,49.0313,101.197,99.9042,80.8772,0.00711133,0.727944,20.1604,177.248,1.87535,0.0,0.0
60,14.75,48.0091,50.2667,97.7278,99.9046,82.3699,0.00765942,0.780331,20.1071,177.088,1.71305,0.0,0.0
63,15.5,48.8265,51.2499,100.847,99.9151,82.362,0.00824522,0.828485,20.0499,176.888,1.71483,0.0,0.0
66,16.25,50.1417,52.9765,100.676,99.9046,81.4424,0.00887175,0.876343,19.9922,176.658,1.81357,0.0,0.0
69,17,50.8467,53.7835,95.4594,99.9006,82.9252,0.00947914,0.916669,19.9434,176.497,1.65306,0.0,0.0
72,17.75,52.0645,54.906,95.5578,99.9059,83.4558,0.00998617,0.971297,19.8904,176.247,1.5969,0.0,0.0
75,18.5,53.1985,56.2449,91.5918,99.9167,82.5259,0.0105262,1.02034,19.8352,176.057,1.69733,0.0,0.0
78,19.25,53.9423,57.1709,90.1523,99.9087,80.9196,0.0112114,1.07187,19.779,175.847,1.87109,0.0,0.0
81,20,55.7491,59.2105,93.1069,99.9063,79.6656,0.012098,1.13059,19.7202,175.617,2.00949,0.0,0.0
84,20.75,56.9603,61.1344,95.2838,99.9018,81.0394,0.0129235,1.18647,19.6698,175.356,1.85735,0.0,0.0
87,21.5,58.6992,62.6679,86.6336,99.9151,77.9136,0.0138318,1.24958,19.6014,175.096,2.20767,0.0,0.0
90,22.25,59.8169,63.9104,89.6974,99.9042,78.5698,0.0147624,1.31602,19.5514,174.856,2.13226,0.0,0.0
93,23,61.4993,65.8341,80.8922,99.9046,76.1035,0.0158998,1.37317,19.4745,174.596,2.41538,0.0,0.0
96,23.75,62.6202,67.6641,89.2829,99.8986,75.0702,0.017242,1.4377,19.4005,174.376,2.53618,0.0,0.0
99,24.5,63.9758,68.6367,84.472,99.9071,71.4813,0.0185316,1.48475,19.3316,174.075,2.97175,0.0,0.0
102,25.25,66.2847,71.3251,87.9724,99.9171,71.4759,0.0197492,1.54011,19.2685,173.835,2.97331,0.0,0.0
105,26,67.9038,73.0678,87.8686,99.8974,72.2079,0.0208845,1.58825,19.2117,173.555,2.88113,0.0,0.0
108,26.75,69.098,74.8026,88.7265,99.9042,69.8532,0.0219836,1.62801,19.1704,173.335,3.17601,0.0,0.0
111,27.5,71.0644,77.2073,94.4953,99.9115,71.3302,0.0228975,1.65931,19.1402,173.034,2.99093,0.0,0.0
114,28.25,72.8463,79.0759,88.6929,99.9095,69.2785,0.0236118,1.68194,19.1182,172.764,3.24981,0.0,0.0
117,29,73.9882,80.7186,83.3492,99.9059,70.8362,0.0241652,1.69702,19.1022,172.484,3.05211,0.0,0.0
120,29.75,75.4069,82.2028,82.2257,99.8966,69.7976,0.0246243,1.70558,19.0949,172.244,3.1824,0.0,0.0
123,30.5,77.051,84.6103,87.2236,99.8978,70.6271,0.0249709,1.70605,19.0941,172.003,3.07764,0.0,0.0
126,31.25,78.5613,86.1814,90.6927,99.9135,69.0755,0.0252014,1.70382,19.0954,171.743,3.2762,0.0,0.0
129,32,80.0621,87.5365,88.725,99.9042,69.7424,0.0253601,1.6978,19.1033,171.503,3.1901,0.0,0.0
132,32.75,81.2144,89.2638,90.6019,99.9026,71.1351,0.0254345,1.68989,19.1175,171.263,3.01446,0.0,0.0
135,33.5,82.5474,90.6501,88.4319,99.9026,70.6324,0.0254475,1.67809,19.135,170.983,3.0774,0.0,0.0
138,34.25,83.5133,92.291,90.6011,99.9107,69.8931,0.0254119,1.66213,19.1537,170.812,3.17151,0.0,0.0
141,35,84.6483,93.1759,89.4409,99.9147,71.098,0.0253389,1.64695,19.1788,170.592,3.02015,0.0,0.0
144,35.75,85.5827,94.3894,91.7315,99.899,70.2628,0.0252366,1.62981,19.1971,170.412,3.12365,0.0,0.0
147,36.5,86.6214,95.3317,96.0417,99.903,69.686,0.025078,1.60594,19.2244,170.152,3.19717,0.0,0.0
150,37.25,87.6438,96.9552,91.2117,99.9046,69.2509,0.0248062,1.5775,19.2518,169.922,3.25291,0.0,0.0
153,38,88.3861,97.6399,101.003,99.9079,70.8457,0.0245269,1.55205,19.2845,169.751,3.05111,0.0,0.0
156,38.75,89.7733,99.0117,89.7394,99.9022,71.7654,0.0241845,1.51138,19.3294,169.561,2.93612,0.0,0.0
159,39.5,90.3224,99.7899,99.2666,99.9059,69.579,0.0236247,1.46944,19.3954,169.411,3.21106,0.0,0.0
162,40.25,90.8862,100.723,94.8686,99.9079,71.1021,0.0230857,1.41787,19.4578,169.261,3.01903,0.0,0.0
165,41,91.553,101.362,102.798,99.9191,72.6986,0.022469,1.34809,19.5175,169.091,2.82294,0.0,0.0
168,41.75,92.0322,101.982,102.534,99.8962,73.5639,0.0217558,1.27514,19.5855,169.001,2.71588,0.0,0.0
171,42.5,92.1719,102.25,103.094,99.9018,76.8284,0.0207849,1.21255,19.6584,168.851,2.33098,0.0,0.0
174,43.25,92.7709,102.583,104.885,99.9034,75.12,0.0200771,1.12663,19.7216,168.751,2.53072,0.0,0.0
177,44,92.1181,102.15,110.36,99.9179,76.9861,0.0187631,1.064,19.8139,168.66,2.31421,0.0,0.0
180,44.75,92.0666,102.454,112.732,99.9099,79.6109,0.0174156,0.971163,19.8973,168.58,2.01592,0.0,0.0
183,45.5,92.7765,102.758,114.251,99.9051,79.6689,0.0159121,0.903482,19.9857,168.54,2.00902,0.0,0.0
186,46.25,92.4677,102.884,111.818,99.9006,82.3756,0.0144917,0.818216,20.0958,168.49,1.71208,0.0,0.0
189,47,92.2253,102.126,113.542,99.9216,85.2417,0.0131602,0.747132,20.2071,168.45,1.41037,0.0,0.0
192,47.75,92.009,102.325,116.284,99.9143,86.4532,0.0117697,0.680052,20.3025,168.4,1.28446,0.0,0.0
195,48.5,91.011,101.031,117.6,99.9014,88.6227,0.0105192,0.614993,20.3781,168.35,1.06332,0.0,0.0
198,49.25,91.0039,101.087,114.216,99.9026,89.0837,0.00950673,0.55803,20.4484,168.33,1.01737,0.0,0.0
201,50,90.7126,100.681,119.437,99.9244,90.9568,0.00859661,0.508468,20.4997,168.27,0.834608,0.0,0.0
204,50.75,89.9879,99.6921,115.717,99.9071,91.3858,0.007639,0.465547,20.5491,168.24,0.791309,0.0,0.0
207,51.5,89.3043,99.2758,119.345,99.8954,91.0947,0.00677339,0.425689,20.5924,168.22,0.818586,0.0,0.0
210,52.25,88.4403,98.2327,118.328,99.901,91.6904,0.0060626,0.393511,20.6301,168.17,0.761234,0.0,0.0
213,53,88.3085,98.1372,119.422,99.9127,92.0131,0.00551043,0.364717,20.6628,168.18,0.731082,0.0,0.0
216,53.75,87.5298,97.0909,121.354,99.9175,91.599,0.00502983,0.338978,20.6961,168.15,0.771551,0.0,0.0
219,54.5,87.364,96.3767,120.324,99.8994,92.7233,0.00463474,0.318191,20.7223,168.13,0.661662,0.0,0.0
222,55.25,86.2375,95.6112,123.309,99.8998,92.3005,0.00430872,0.298755,20.7446,168.1,0.702262,0.0,0.0
225,56,85.68,94.9304,121.411,99.9103,93.0999,0.00403866,0.281886,20.7653,168.07,0.626644,0.0,0.0
228,56.75,85.1281,94.4133,120.834,99.9224,93.3955,0.00382482,0.267462,20.7804,168.07,0.59958,0.0,0.0
231,57.5,84.909,94.0301,119.911,99.9002,93.5194,0.00363991,0.255281,20.7939,168.04,0.585845,0.0,0.0
234,58.25,84.3272,93.4129,122.569,99.9079,93.081,0.00349628,0.243925,20.806,168.05,0.628234,0.0,0.0
237,59,83.9009,93.0456,120.884,99.9075,93.2786,0.00339281,0.234823,20.8164,168.02,0.609375,0.0,0.0
240,59.75,83.0203,92.2893,121.618,99.9083,93.4095,0.00332117,0.226782,20.8252,167.96,0.596999,0.0,0.0
243,60.5,82.6634,91.9798,121.761,99.901,93.167,0.00327452,0.219719,20.8336,167.95,0.619425,0.0,0.0
246,61.25,82.1826,90.8165,121.177,99.9075,93.5355,0.0032468,0.214058,20.841,167.94,0.584966,0.0,0.0
249,62,81.2178,89.9512,122.782,99.9083,93.0831,0.00323122,0.208731,20.847,167.94,0.628073,0.0,0.0
252,62.75,81.3882,90.282,128.334,99.9103,93.3651,0.00322321,0.204154,20.8517,167.9,0.601404,0.0,0.0
255,63.5,80.1928,89.275,119.514,99.9014,93.6236,0.00321737,0.200127,20.8552,167.9,0.576073,0.0,0.0
258,64.25,79.9418,88.5414,120.202,99.8978,93.5655,0.00321312,0.196516,20.8582,167.85,0.581256,0.0,0.0
261,65,79.3609,88.0372,119.122,99.8978,93.3786,0.00321002,0.193108,20.8611,167.86,0.599003,0.0,0.0
264,65.75,79.3378,87.6029,123.676,99.9175,93.7973,0.00322544,0.190316,20.8632,167.81,0.561048,0.0,0.0
267,66.5,78.6325,86.9373,122.105,99.901,93.5606,0.00325614,0.187753,20.8652,167.81,0.58201,0.0,0.0
270,67.25,77.8413,86.1567,121.295,99.8958,93.4976,0.00329962,0.185885,20.8673,167.81,0.587523,0.0,0.0
273,68,77.4012,85.6778,121.576,99.8994,93.5779,0.00335403,0.183982,20.8696,167.76,0.580227,0.0,0.0
276,68.75,77.5358,85.4922,119.242,99.9079,93.4721,0.00341717,0.182256,20.8713,167.74,0.591019,0.0,0.0
279,69.5,76.7332,85.2553,122.248,99.899,93.9554,0.00348432,0.180814,20.8728,167.74,0.544457,0.0,0.0
282,70.25,75.8114,84.3178,117.416,99.8918,93.8356,0.00354227,0.179388,20.8743,167.74,0.555137,0.0,0.0
285,71,75.6357,84.0184,121.384,99.8978,93.9632,0.00360934,0.178086,20.8754,167.72,0.54361,0.0,0.0
288,71.75,74.9595,83.3123,121.522,99.9051,93.5322,0.00365955,0.176918,20.8761,167.69,0.585063,0.0,0.0
291,72.5,74.4511,82.5596,123.945,99.9075,93.7545,0.00369839,0.175883,20.8773,167.67,0.564207,0.0,0.0
294,73.25,74.5617,82.5998,123.076,99.8998,94.2588,0.00374266,0.174997,20.8782,167.66,0.515912,0.0,0.0
297,74,73.9174,81.9757,118.091,99.9026,94.1921,0.00378869,0.174295,20.8789,167.64,0.522445,0.0,0.0
300,74.75,73.776,81.3294,121.547,99.9107,93.5981,0.00384577,0.173617,20.8793,167.63,0.579315,0.0,0.0
303,75.5,73.3777,80.9204,122.417,99.899,94.09,0.00394421,0.173021,20.8806,167.6,0.531749,0.0,0.0
306,76.25,72.9457,80.5925,124.79,99.8974,94.1588,0.0040459,0.172459,20.8818,167.59,0.525123,0.0,0.0
309,77,72.334,80.1111,120.426,99.901,93.8879,0.00413278,0.171905,20.8828,167.539,0.551017,0.0,0.0
312,77.75,71.9364,79.7162,122.024,99.899,94.3864,0.00422458,0.171327,20.8834,167.559,0.503832,0.0,0.0
315,78.5,70.9864,78.7778,122.401,99.9095,93.9591,0.00430398,0.170694,20.8839,167.539,0.545037,0.0,0.0
318,79.25,70.6897,78.2712,119.657,99.8918,94.2283,0.00436719,0.169996,20.8849,167.529,0.518066,0.0,0.0
321,80,70.7642,78.7315,121.473,99.9038,94.4683,0.00443819,0.169212,20.8857,167.489,0.49656,0.0,0.0
324,80.75,70.1414,78.4122,120.521,99.903,93.7603,0.00450619,0.168523,20.8866,167.479,0.563268,0.0,0.0
327,81.5,69.7366,77.0351,121.215,99.9191,94.1872,0.00457254,0.167751,20.8875,167.469,0.524376,0.0,0.0
330,82.25,69.7706,77.512,120.77,99.8974,94.2489,0.00463779,0.166913,20.8888,167.449,0.516629,0.0,0.0
333,83,69.4806,76.3964,118.093,99.9063,94.5762,0.00469248,0.166093,20.8897,167.419,0.486646,0.0,0.0
336,83.75,68.5973,76.0618,120.289,99.8982,94.4119,0.00473235,0.165339,20.8904,167.429,0.50136,0.0,0.0
339,84.5,68.5549,76.0663,123.159,99.9075,94.0019,0.00475607,0.164707,20.8909,167.409,0.540814,0.0,0.0
342,85.25,68.9907,76.3642,120.931,99.889,94.0562,0.00477204,0.164159,20.8913,167.399,0.53404,0.0,0.0
345,86,68.1545,75.5546,121.233,99.9127,93.7915,0.00478144,0.163722,20.8916,167.379,0.561165,0.0,0.0
348,86.75,67.9149,75.629,120.055,99.9046,93.7043,0.00480433,0.163303,20.8918,167.349,0.568713,0.0,0.0
351,87.5,67.4085,74.1725,122.264,99.9127,93.6503,0.00482102,0.162953,20.8925,167.349,0.574537,0.0,0.0
354,88.25,67.4921,74.4293,121.285,99.897,94.6713,0.00487321,0.162482,20.8929,167.319,0.476904,0.0,0.0
357,89,67.4342,74.6353,120.323,99.8958,94.1719,0.00494809,0.161969,20.8928,167.289,0.523738,0.0,0.0
360,89.75,66.363,73.465,123.367,99.8918,94.1575,0.00503649,0.161466,20.8928,167.299,0.524739,0.0,0.0
363,90.5,67.0312,74.0361,122.801,99.9018,93.8311,0.00512773,0.161076,20.8927,167.279,0.55646,0.0,0.0
366,91.25,66.0554,73.1502,121.602,99.9075,94.0846,0.00519425,0.160752,20.8927,167.259,0.533004,0.0,0.0
369,92,66.1434,72.6724,121.699,99.893,93.7701,0.00525883,0.160352,20.8931,167.249,0.561439,0.0,0.0
372,92.75,65.5202,72.4632,122.946,99.8982,94.0196,0.00531462,0.160014,20.8936,167.189,0.538321,0.0,0.0
375,93.5,65.9017,72.5438,120.92,99.9042,94.4963,0.00536559,0.15969,20.894,167.229,0.493967,0.0,0.0
378,94.25,65.2618,72.1978,123.904,99.9046,94.0497,0.00541404,0.159395,20.8951,167.199,0.536056,0.0,0.0
381,95,64.768,71.4126,122.44,99.8877,93.9459,0.00547441,0.159156,20.896,167.179,0.54435,0.0,0.0
384,95.75,64.5282,71.556,120.147,99.8873,94.0945,0.00553362,0.158819,20.8966,167.169,0.530286,0.0,0.0
387,96.5,64.0908,70.9783,118.448,99.9034,94.0707,0.00560277,0.158472,20.897,167.159,0.533968,0.0,0.0
390,97.25,63.7597,70.3732,120.319,99.901,93.8344,0.0056926,0.158107,20.8978,167.149,0.556077,0.0,0.0
393,98,64.3241,70.8828,122.005,99.891,94.1287,0.00575809,0.157724,20.8985,167.129,0.527384,0.0,0.0
396,98.75,63.6833,70.1487,122.534,99.9103,93.9348,0.00584887,0.157301,20.8991,167.099,0.547403,0.0,0.0
399,99.5,63.4249,69.873,122.929,99.899,94.1242,0.00592888,0.156964,20.8995,167.069,0.528527,0.0,0.0
402,100.25,63.462,69.9323,119.97,99.9099,94.169,0.00600239,0.156706,20.8997,167.039,0.525261,0.0,0.0
405,101,63.3782,69.8896,122.72,99.8962,93.8578,0.00607183,0.156456,20.9,167.059,0.553428,0.0,0.0
408,101.75,62.8144,69.2004,121.186,99.8898,93.8578,0.00616017,0.15619,20.9006,167.029,0.552856,0.0,0.0
411,102.5,62.2693,69.1079,119.708,99.9034,93.9612,0.00624182,0.155854,20.9012,167.049,0.544306,0.0,0.0
414,103.25,62.5264,69.1945,122.699,99.9055,94.1332,0.00633083,0.155565,20.9016,167.029,0.528245,0.0,0.0
417,104,62.0229,68.4509,120.006,99.8958,93.9484,0.00643,0.155283,20.9018,166.999,0.544833,0.0,0.0
420,104.75,61.8122,68.2055,125.856,99.8954,94.134,0.00650229,0.154987,20.9019,166.989,0.527273,0.0,0.0
423,105.5,61.7797,67.7962,122.105,99.8974,93.8595,0.00656039,0.154648,20.9019,166.969,0.553381,0.0,0.0
426,106.25,61.4267,67.731,122.855,99.9099,94.1159,0.00659876,0.154327,20.9019,166.959,0.530268,0.0,0.0
429,107,61.1832,67.2958,121.957,99.9038,94.7289,0.00661992,0.154062,20.9019,166.919,0.47211,0.0,0.0
432,107.75,61.4069,67.38,121.179,99.9111,94.3461,0.00662995,0.153725,20.9024,166.929,0.508699,0.0,0.0
435,108.5,60.8818,66.7439,122.124,99.897,93.9245,0.00664104,0.15348,20.9029,166.929,0.547195,0.0,0.0
438,109.25,60.793,67.0164,122.564,99.9091,93.7343,0.00665473,0.153157,20.9033,166.909,0.56626,0.0,0.0
441,110,60.2983,66.2904,124.103,99.901,94.1929,0.00667152,0.152821,20.9036,166.909,0.522224,0.0,0.0
444,110.75,60.3083,66.2857,119.901,99.8942,94.3979,0.00668707,0.152533,20.9038,166.889,0.50232,0.0,0.0
447,111.5,60.0216,65.9776,123.391,99.899,94.5033,0.0067041,0.152179,20.9049,166.859,0.492843,0.0,0.0
450,112.25,59.595,65.8411,123.653,99.901,94.1373,0.00672447,0.151901,20.9058,166.839,0.527462,0.0,0.0
453,113,59.8096,65.873,120.515,99.9083,94.295,0.00675296,0.151698,20.9064,166.829,0.513253,0.0,0.0
456,113.75,59.8154,65.7766,119.848,99.899,93.6055,0.00679174,0.151242,20.9068,166.809,0.577577,0.0,0.0
459,114.5,59.4777,65.5348,119.847,99.8974,94.1373,0.00682931,0.150872,20.9071,166.809,0.527141,0.0,0.0
462,115.25,58.8894,65.0382,120.757,99.9071,94.5099,0.00687261,0.150537,20.9074,166.799,0.492941,0.0,0.0
465,116,59.3881,65.0139,124.03,99.9159,94.169,0.00695827,0.150279,20.9075,166.809,0.525797,0.0,0.0
468,116.75,58.9235,64.7449,120.419,99.9022,93.9875,0.00705668,0.150085,20.9077,166.759,0.541711,0.0,0.0
471,117.5,58.6969,64.2192,119.478,99.903,93.8751,0.00718993,0.149738,20.9084,166.789,0.552402,0.0,0.0
474,118.25,57.8026,63.9974,121.806,99.9038,94.3341,0.00736844,0.14941,20.9094,166.769,0.509179,0.0,0.0
477,119,58.918,64.0748,121.228,99.9111,94.1501,0.00749857,0.149041,20.9103,166.739,0.527153,0.0,0.0
480,119.75,58.471,64.3187,122.118,99.8938,94.146,0.00767674,0.148657,20.9109,166.699,0.526004,0.0,0.0
483,120.5,58.3282,63.5255,124.013,99.8966,93.906,0.00782187,0.148291,20.9114,166.689,0.54891,0.0,0.0
486,121.25,57.8712,63.607,121.627,99.9063,94.2753,0.00793885,0.147959,20.9117,166.689,0.514934,0.0,0.0
489,122,58.0642,63.6293,123.164,99.9111,94.1271,0.00803214,0.147574,20.912,166.669,0.529327,0.0,0.0
492,122.75,57.5071,63.1336,124.47,99.8966,93.7067,0.00811103,0.14724,20.9126,166.649,0.567764,0.0,0.0
495,123.5,56.8576,62.2548,122.821,99.8966,94.0208,0.00818253,0.146907,20.9133,166.669,0.538061,0.0,0.0
498,124.25,57.6257,62.6908,124.438,99.9026,93.8846,0.00824062,0.146582,20.9137,166.639,0.55147,0.0,0.0
501,125,57.509,63.0693,122.981,99.9248,95.1192,0.00831382,0.146244,20.9141,166.639,0.437477,0.0,0.0
504,125.75,57.0036,62.2209,123.265,99.9034,94.1752,0.00836718,0.145918,20.9143,166.629,0.524107,0.0,0.0
507,126.5,57.219,62.3246,122.476,99.8998,94.2374,0.00841152,0.145615,20.9145,166.599,0.517928,0.0,0.0
510,127.25,57.1524,62.4367,122.815,99.8962,94.2876,0.00843849,0.145366,20.9146,166.589,0.512877,0.0,0.0
513,128,56.644,62.2106,120.854,99.9123,94.4453,0.00844899,0.145172,20.9147,166.599,0.499477,0.0,0.0
516,128.75,56.7495,61.8926,122.915,99.9095,93.6018,0.00846209,0.144887,20.9148,166.589,0.578856,0.0,0.0
519,129.5,56.6418,61.894,122.829,99.8898,94.5539,0.00847927,0.144597,20.9149,166.569,0.487267,0.0,0.0
522,130.25,56.1107,62.1297,124.117,99.8986,94.5869,0.00849573,0.144243,20.9149,166.549,0.484962,0.0,0.0
525,131,55.6763,60.8121,121.952,99.9312,94.7911,0.00850887,0.143957,20.9156,166.529,0.468719,0.0,0.0
528,131.75,55.6058,60.6316,124.568,99.9087,93.7981,0.008513,0.143729,20.916,166.509,0.560183,0.0,0.0
531,132.5,56.044,60.8758,121.761,99.8926,94.2641,0.00850932,0.143549,20.9164,166.499,0.514764,0.0,0.0
534,133.25,56.1264,61.5252,120.802,99.893,94.0554,0.00849518,0.143336,20.9167,166.489,0.534475,0.0,0.0
537,134,56.1795,61.4239,121.713,99.9022,94.3522,0.00848487,0.143067,20.9168,166.489,0.507332,0.0,0.0
540,134.75,55.8115,60.8433,122.448,99.9159,94.8907,0.00847191,0.142822,20.917,166.479,0.458036,0.0,0.0
543,135.5,55.1149,60.451,122.509,99.903,94.1789,0.00847198,0.142479,20.917,166.469,0.523721,0.0,0.0
546,136.25,55.218,60.0707,121.115,99.9055,94.4831,0.00848067,0.14223,20.9171,166.448,0.495311,0.0,0.0
549,137,55.3406,59.4501,120.969,99.9095,94.6318,0.00850515,0.141905,20.9172,166.448,0.481719,0.0,0.0
552,137.75,55.2295,59.6817,122.102,99.9248,94.6861,0.00852501,0.141607,20.9172,166.448,0.477982,0.0,0.0
555,138.5,55.2608,60.1836,121.501,99.8942,94.3032,0.00854293,0.14134,20.9179,166.408,0.511226,0.0,0.0
558,139.25,54.9875,59.9152,125.739,99.9038,94.0826,0.00854146,0.140918,20.9184,166.388,0.532877,0.0,0.0
561,140,55.2095,59.9456,122.604,99.9022,94.0027,0.00854575,0.140516,20.9187,166.388,0.540272,0.0,0.0
564,140.75,54.7622,59.4654,118.793,99.9119,94.4696,0.00855805,0.140145,20.9196,166.358,0.49716,0.0,0.0
567,141.5,54.6934,59.282,122.372,99.9042,93.8739,0.00859121,0.139804,20.9203,166.338,0.552625,0.0,0.0
570,142.25,54.8523,59.3642,123.072,99.9067,93.8801,0.00865374,0.139525,20.9207,166.328,0.552256,0.0,0.0
573,143,54.4586,58.6727,122.857,99.9119,94.1501,0.00872671,0.139138,20.9211,166.318,0.527225,0.0,0.0
576,143.75,54.853,59.5256,121.577,99.9087,93.6981,0.00880631,0.138743,20.9213,166.308,0.569655,0.0,0.0
579,144.5,54.6018,59.1292,121.824,99.9022,94.1196,0.00890621,0.138262,20.9218,166.298,0.52924,0.0,0.0
582,145.25,54.3223,58.8563,121.731,99.8978,94.0373,0.00899248,0.137687,20.9225,166.268,0.536614,0.0,0.0
585,146,53.3119,58.1811,121.804,99.899,94.0464,0.00907836,0.137212,20.923,166.248,0.535866,0.0,0.0
588,146.75,53.3945,57.9115,119.034,99.9449,94.3918,0.00914096,0.136818,20.9234,166.258,0.507404,0.0,0.0
591,147.5,53.755,58.3883,118.799,99.9131,94.0661,0.0092103,0.136492,20.9236,166.268,0.535253,0.0,0.0
594,148.25,53.6428,58.4398,122.771,99.9006,94.1336,0.00927094,0.136155,20.9238,166.248,0.527777,0.0,0.0
597,149,53.4683,58.5304,124.262,99.8998,93.9875,0.0093324,0.135867,20.9237,166.228,0.541496,0.0,0.0
600,149.75,53.2426,57.6952,121.255,99.9292,94.1221,0.00939384,0.135595,20.9233,166.198,0.531402,0.0,0.0
603,150.5,53.4216,57.7023,119.377,99.9014,94.3267,0.00944841,0.135412,20.9229,166.218,0.509661,0.0,0.0
606,151.25,53.385,57.6749,122.23,99.9006,94.556,0.00949279,0.135305,20.9231,166.208,0.48804,0.0,0.0
609,152,53.2451,57.8283,126.63,99.899,94.0851,0.0095142,0.135269,20.9235,166.168,0.532215,0.0,0.0
612,152.75,53.4598,57.4922,125.803,99.9018,94.4836,0.00952086,0.135209,20.9237,166.158,0.49495,0.0,0.0
615,153.5,53.4961,57.8304,120.326,99.9006,94.1571,0.00952189,0.135075,20.9243,166.168,0.525565,0.0,0.0
618,154.25,53.4701,57.5746,126.391,99.903,94.8005,0.00952392,0.134754,20.925,166.148,0.465329,0.0,0.0
621,155,52.4885,57.4684,125.169,99.901,94.3403,0.00952999,0.134377,20.9254,166.128,0.508347,0.0,0.0
624,155.75,53.4553,57.071,121.005,99.9159,94.0748,0.00954132,0.134042,20.9258,166.118,0.534688,0.0,0.0
627,156.5,53.1834,57.3801,127.065,99.9067,94.6725,0.00954958,0.133492,20.9265,166.108,0.477647,0.0,0.0
630,157.25,52.342,56.5544,124.458,99.9026,94.0336,0.00961584,0.132972,20.9272,166.128,0.537392,0.0,0.0
633,158,53.2418,56.7625,119.983,99.899,94.3967,0.00970002,0.132388,20.9277,166.098,0.502864,0.0,0.0
636,158.75,53.3133,57.0871,121.225,99.9127,94.1098,0.00977668,0.13172,20.9285,166.098,0.531101,0.0,0.0
639,159.5,52.6821,56.5735,124.015,99.9147,94.4362,0.00987463,0.13113,20.9295,166.078,0.500544,0.0,0.0
642,160.25,52.9804,56.6252,126.835,99.9079,94.3378,0.00996015,0.13058,20.9306,166.068,0.509188,0.0,0.0
645,161,52.1168,56.2151,122.03,99.9002,93.8101,0.0100285,0.129974,20.9315,166.068,0.558304,0.0,0.0
648,161.75,52.5094,56.3909,122.696,99.9111,94.1723,0.0100989,0.12929,20.9321,166.038,0.525058,0.0,0.0
651,162.5,52.3109,55.9378,126.08,99.9187,94.0073,0.0101704,0.128549,20.9332,166.028,0.54131,0.0,0.0
654,163.25,52.4607,56.5337,124.291,99.9042,94.6153,0.0102422,0.127906,20.9339,166.018,0.482798,0.0,0.0
657,164,52.214,56.0591,119.377,99.8942,94.8347,0.0103074,0.127174,20.9345,166.018,0.461343,0.0,0.0
660,164.75,51.9911,56.3668,121.46,99.897,94.1867,0.0103562,0.126588,20.9349,166.008,0.522449,0.0,0.0
663,165.5,52.1677,55.8084,123.826,99.9071,94.253,0.010391,0.126072,20.9352,165.978,0.517099,0.0,0.0
666,166.25,52.156,56.1927,124.061,99.9131,94.4086,0.010414,0.125614,20.9355,165.978,0.502993,0.0,0.0
669,167,52.1199,55.7914,122.962,99.9014,94.7511,0.0104192,0.125251,20.9356,165.978,0.469813,0.0,0.0
672,167.75,52.1352,55.3369,120.629,99.9059,94.2497,0.0104181,0.124935,20.9362,165.968,0.517301,0.0,0.0
675,168.5,51.6543,55.4136,120.3,99.9115,94.1098,0.0103971,0.124583,20.9368,165.968,0.530993,0.0,0.0
678,169.25,52.0901,55.6393,122.565,99.9002,94.7116,0.0103913,0.124297,20.9372,165.948,0.473409,0.0,0.0
681,170,51.8008,55.408,120.916,99.8982,95.0397,0.0104033,0.124038,20.9375,165.928,0.442534,0.0,0.0
684,170.75,51.6383,55.153,124.068,99.9071,94.2991,0.0104651,0.123626,20.9378,165.928,0.512758,0.0,0.0
687,171.5,51.6773,55.2744,121.419,99.8986,93.5141,0.0105437,0.123236,20.9379,165.928,0.58621,0.0,0.0
690,172.25,51.1277,55.1193,123.781,99.9252,94.0241,0.0106206,0.122799,20.9385,165.898,0.540288,0.0,0.0
693,173,51.8725,55.555,123.22,99.901,94.1559,0.010686,0.122339,20.9391,165.878,0.525716,0.0,0.0
696,173.75,51.1965,54.9744,117.717,99.8978,95.0731,0.0107318,0.121974,20.9396,165.888,0.439385,0.0,0.0
699,174.5,50.9985,54.6764,126.193,99.9034,94.4062,0.0107651,0.121657,20.9399,165.878,0.502368,0.0,0.0
702,175.25,51.698,55.0728,119.937,99.9127,94.2818,0.0107877,0.121324,20.9401,165.868,0.514886,0.0,0.0
705,176,51.2018,55.0064,120.921,99.8918,94.3341,0.0107985,0.120983,20.9402,165.838,0.508106,0.0,0.0
708,176.75,50.6621,54.7284,122.818,99.8978,94.1427,0.0108031,0.120692,20.9404,165.838,0.526672,0.0,0.0
711,177.5,51.2885,54.6199,122.182,99.9107,94.6416,0.0107859,0.120359,20.9411,165.828,0.480899,0.0,0.0
714,178.25,51.2508,54.66,123.118,99.9276,94.2571,0.0107609,0.120071,20.9415,165.808,0.518534,0.0,0.0
717,179,50.6308,54.4362,123.539,99.9034,94.2571,0.0107112,0.11987,20.9419,165.828,0.516389,0.0,0.0
720,179.75,50.9224,54.3842,124.233,99.8942,93.75,0.010652,0.11952,20.9422,165.818,0.563456,0.0,0.0
723,180.5,51.0519,54.3745,119.127,99.9063,94.7804,0.0105695,0.119273,20.9427,165.788,0.467504,0.0,0.0
726,181.25,50.4402,53.9334,122.822,99.9119,94.1876,0.0104745,0.119111,20.9431,165.788,0.523695,0.0,0.0
729,182,51.1177,54.5584,127.097,99.9111,94.1184,0.0103891,0.118923,20.9434,165.748,0.530142,0.0,0.0
732,182.75,50.695,54.1701,122.695,99.8982,94.0241,0.0102991,0.118605,20.9442,165.748,0.537892,0.0,0.0
735,183.5,50.4968,54.0478,121.827,99.8994,94.4206,0.0102116,0.118303,20.9448,165.708,0.500655,0.0,0.0
738,184.25,50.558,54.212,122.497,99.9079,94.1736,0.0101363,0.118052,20.9452,165.728,0.524656,0.0,0.0
741,185,50.0626,53.4025,121.619,99.9195,94.6289,0.0100764,0.117728,20.9456,165.728,0.482882,0.0,0.0
744,185.75,50.4156,53.8469,123.576,99.8881,94.5177,0.0100237,0.117448,20.9458,165.698,0.490525,0.0,0.0
747,186.5,49.9913,53.5713,120.074,99.8962,93.7125,0.00998393,0.117167,20.946,165.678,0.567182,0.0,0.0
750,187.25,50.5665,53.5656,120.412,99.9067,94.5412,0.00995441,0.116881,20.9461,165.668,0.489966,0.0,0.0
753,188,50.6973,54.2378,124.662,99.9038,93.9488,0.0099201,0.116659,20.9462,165.678,0.545509,0.0,0.0
756,188.75,50.6329,53.6825,122.846,99.8966,93.922,0.00989508,0.116476,20.9463,165.638,0.547393,0.0,0.0
759,189.5,49.4854,53.1237,125.155,99.9095,94.181,0.00985128,0.116317,20.9463,165.628,0.5241,0.0,0.0
762,190.25,50.4696,53.5015,121.611,99.9075,93.9986,0.00980015,0.116089,20.9463,165.638,0.541125,0.0,0.0
765,191,50.2978,53.4749,125.31,99.8994,94.3189,0.00975402,0.115874,20.9464,165.638,0.510218,0.0,0.0
768,191.75,49.9253,53.4287,121.853,99.9014,94.1448,0.00971923,0.115636,20.9464,165.618,0.5268,0.0,0.0
771,192.5,50.3708,53.3397,123.486,99.8998,94.5449,0.00970411,0.115471,20.9464,165.628,0.489011,0.0,0.0
774,193.25,49.7664,52.8316,122.105,99.901,93.7146,0.00971154,0.115363,20.9464,165.608,0.567416,0.0,0.0
777,194,49.8165,52.8667,121.221,99.9055,94.2703,0.00972295,0.115214,20.9464,165.618,0.515328,0.0,0.0
780,194.75,49.5436,52.3333,122.816,99.8898,94.2888,0.00974041,0.115015,20.9464,165.608,0.512189,0.0,0.0
783,195.5,49.7106,52.1768,122.516,99.8978,94.3267,0.00974976,0.114769,20.9464,165.588,0.509339,0.0,0.0
786,196.25,49.6485,52.7168,124.158,99.8926,94.3782,0.00975082,0.114489,20.9464,165.588,0.504034,0.0,0.0
789,197,49.5829,52.7266,122.384,99.8966,94.2769,0.00973881,0.114228,20.9469,165.588,0.513921,0.0,0.0
792,197.75,49.1224,52.6462,124.04,99.8974,94.5519,0.00972197,0.114014,20.9474,165.578,0.48814,0.0,0.0
795,198.5,49.3843,52.7393,124.726,99.8998,94.2547,0.00969587,0.113858,20.9478,165.568,0.5163,0.0,0.0
798,199.25,49.1374,52.4736,121.698,99.8914,93.9764,0.00966589,0.113707,20.948,165.538,0.541794,0.0,0.0
801,200,49.0625,52.2986,126.593,99.9038,94.2419,0.00964404,0.113474,20.9485,165.518,0.51786,0.0,0.0
804,200.75,49.2499,52.068,126.753,99.9131,94.5437,0.00962811,0.113203,20.9492,165.528,0.490308,0.0,0.0
807,201.5,49.1705,52.2793,126.904,99.8841,94.5799,0.0096165,0.112892,20.9497,165.498,0.484332,0.0,0.0
810,202.25,49.4439,52.0877,124.674,99.8894,94.0958,0.00960803,0.112588,20.9501,165.478,0.530347,0.0,0.0
813,203,49.249,51.7969,123.82,99.9091,94.3946,0.00958773,0.112316,20.9504,165.498,0.503951,0.0,0.0
816,203.75,48.8669,51.7522,124.993,99.8974,93.9233,0.00954875,0.112075,20.9504,165.498,0.547348,0.0,0.0
819,204.5,48.7911,51.6896,121.389,99.8934,94.0208,0.0095094,0.111881,20.9504,165.458,0.537775,0.0,0.0
822,205.25,48.5274,51.8721,123.297,99.8942,93.885,0.00948455,0.111644,20.9504,165.458,0.55068,0.0,0.0
825,206,48.9417,51.9833,123.232,99.9059,94.1555,0.00947008,0.111305,20.9504,165.438,0.526184,0.0,0.0
828,206.75,48.9758,51.7443,122.876,99.8926,94.2596,0.00946299,0.111017,20.9504,165.438,0.515192,0.0,0.0
831,207.5,48.6031,51.7439,125.513,99.8946,94.6009,0.00943594,0.110744,20.9509,165.418,0.483291,0.0,0.0
834,208.25,48.3286,51.9412,121.849,99.891,94.0982,0.00937918,0.110469,20.9514,165.428,0.530258,0.0,0.0
837,209,48.7844,51.7556,119.532,99.8906,94.3032,0.00932201,0.110128,20.9518,165.398,0.510904,0.0,0.0
840,209.75,48.0765,51.8487,122.266,99.897,94.025,0.00923057,0.109865,20.9521,165.408,0.537708,0.0,0.0
843,210.5,48.6752,51.527,125.842,99.893,94.0826,0.00914269,0.109675,20.9523,165.388,0.531911,0.0,0.0
846,211.25,48.5322,51.3312,122.662,99.8938,94.915,0.00906045,0.109549,20.9524,165.348,0.453798,0.0,0.0
849,212,48.5308,51.5512,122.937,99.9002,94.1526,0.00900653,0.10942,20.9525,165.337,0.525956,0.0,0.0
852,212.75,49.1158,51.645,122.24,99.8942,94.1378,0.00898359,0.109263,20.9526,165.348,0.526816,0.0,0.0
855,213.5,48.383,51.4814,124.371,99.8922,93.99,0.0089772,0.10912,20.9526,165.368,0.540583,0.0,0.0
858,214.25,48.7624,51.3306,126.166,99.893,94.4136,0.008978,0.109004,20.9527,165.337,0.500741,0.0,0.0
861,215,48.0603,51.4163,120.819,99.889,93.9459,0.00897858,0.108839,20.9527,165.327,0.544457,0.0,0.0
864,215.75,48.6575,51.2594,123.928,99.9002,94.2979,0.00897888,0.108676,20.9534,165.317,0.512266,0.0,0.0
867,216.5,48.4971,51.266,125.5,99.8817,93.9097,0.00897184,0.10851,20.9538,165.317,0.547237,0.0,0.0
870,217.25,47.8709,51.365,122.827,99.8849,94.3209,0.00894066,0.108279,20.9542,165.307,0.508738,0.0,0.0
873,218,48.1823,50.9665,122.405,99.8922,94.5284,0.00889499,0.10801,20.9544,165.307,0.489878,0.0,0.0
876,218.75,48.3022,50.9032,122.388,99.8922,94.1542,0.0088133,0.107783,20.9549,165.287,0.525085,0.0,0.0
879,219.5,48.0708,51.1314,123.695,99.8881,94.2691,0.00871571,0.107407,20.9556,165.287,0.513907,0.0,0.0
882,220.25,48.2125,50.5652,125.729,99.8797,94.7281,0.00861479,0.107063,20.9561,165.287,0.470041,0.0,0.0
885,221,48.1481,50.5485,121.613,99.8817,93.5709,0.00853397,0.106745,20.9567,165.277,0.579317,0.0,0.0
888,221.75,48.8927,50.7593,125.01,99.8982,93.8051,0.00847907,0.10645,20.9575,165.257,0.558592,0.0,0.0
891,222.5,48.6197,51.6426,125.048,99.8849,93.9986,0.00844591,0.106074,20.9582,165.217,0.539122,0.0,0.0
894,223.25,48.2736,50.7478,126.014,99.8777,94.2444,0.00841103,0.105779,20.9586,165.197,0.515303,0.0,0.0
897,224,47.8226,51.1209,120.829,99.8793,95.1085,0.00836729,0.105525,20.9589,165.217,0.434435,0.0,0.0
900,224.75,48.2091,50.1453,124.503,99.8881,94.162,0.00829735,0.105382,20.9592,165.227,0.52399,0.0,0.0
903,225.5,48.0326,50.7186,126.386,99.8873,94.5659,0.00824636,0.105274,20.9593,165.197,0.485932,0.0,0.0
906,226.25,48.362,51.0653,123.171,99.8805,94.3868,0.00819776,0.105157,20.9595,165.187,0.502149,0.0,0.0
909,227,48.4644,50.9238,121.362,99.8789,93.7146,0.00816013,0.105064,20.9598,165.157,0.565449,0.0,0.0
912,227.75,48.2453,51.0593,121.982,99.8853,94.491,0.00813727,0.104984,20.96,165.177,0.492787,0.0,0.0
915,228.5,47.625,50.113,122.574,99.8853,94.8079,0.00813321,0.104904,20.9601,165.167,0.463062,0.0,0.0
918,229.25,48.3714,50.9047,123.982,99.8712,94.6964,0.00813115,0.104807,20.9602,165.167,0.472261,0.0,0.0
921,230,48.0659,50.4076,125.219,99.8741,94.2514,0.00813417,0.10475,20.9603,165.147,0.514321,0.0,0.0
924,230.75,47.8983,50.3227,124.361,99.8785,93.9579,0.00813436,0.104659,20.9604,165.147,0.5424,0.0,0.0
927,231.5,48.2531,50.5386,120.239,99.8841,94.1946,0.00813107,0.104524,20.9606,165.147,0.520567,0.0,0.0
930,232.25,47.6812,50.2858,118.808,99.889,94.2382,0.00812105,0.104402,20.9608,165.127,0.516885,0.0,0.0
933,233,48.4314,50.5969,122.314,99.8773,94.5832,0.00809653,0.104261,20.9612,165.107,0.483415,0.0,0.0
936,233.75,48.0798,50.4748,125.86,99.8741,94.0661,0.0080727,0.104099,20.9618,165.087,0.531784,0.0,0.0
939,234.5,48.0055,50.5173,126.789,99.8813,94.2942,0.00802998,0.103939,20.9623,165.077,0.510934,0.0,0.0
942,235.25,48.2657,50.5939,123.123,99.8761,94.0834,0.00798488,0.103805,20.9627,165.067,0.530332,0.0,0.0
945,236,47.9001,50.6319,126.185,99.8688,93.7232,0.00794071,0.103567,20.963,165.057,0.563736,0.0,0.0
948,236.75,48.1813,50.8418,122.651,99.8733,94.8351,0.00789937,0.103351,20.9632,165.057,0.459446,0.0,0.0
951,237.5,48.2105,50.7382,124.605,99.8825,94.7207,0.00786924,0.103146,20.9633,165.047,0.470987,0.0,0.0
954,238.25,47.6377,50.3567,121.748,99.868,94.2007,0.00784728,0.102946,20.9628,165.027,0.518555,0.0,0.0
957,239,48.0166,50.4679,125.38,99.8632,93.9924,0.00784755,0.10276,20.9624,165.007,0.537775,0.0,0.0
960,239.75,48.3228,50.6523,122.195,99.87,94.3469,0.00785646,0.102603,20.9621,165.007,0.504975,0.0,0.0
963,240.5,47.6518,50.2926,120.671,99.8861,94.2806,0.00787787,0.10245,20.9619,164.987,0.512642,0.0,0.0
966,241.25,48.0532,50.2117,123.37,99.8845,94.3481,0.00790071,0.102283,20.9615,164.987,0.506146,0.0,0.0
969,242,48.0319,50.1316,123.278,99.8612,94.4696,0.00790108,0.102137,20.9612,164.977,0.492653,0.0,0.0
972,242.75,47.8815,50.0254,124.012,99.8564,94.6272,0.00788399,0.10201,20.961,164.967,0.477422,0.0,0.0
975,243.5,48.0102,50.3357,120.916,99.868,94.3399,0.00784185,0.101889,20.9609,164.967,0.505454,0.0,0.0
978,244.25,47.4452,50.2309,123.687,99.8636,94.3666,0.00777912,0.101759,20.9608,164.967,0.502544,0.0,0.0
981,245,47.916,50.6127,120.528,99.8515,94.2263,0.00767866,0.101613,20.9607,164.947,0.514684,0.0,0.0
984,245.75,47.9609,49.9953,124.228,99.8559,94.1834,0.00754948,0.101367,20.9606,164.937,0.519111,0.0,0.0
987,246.5,47.9478,50.5011,124.139,99.8559,94.4523,0.00743735,0.101173,20.9606,164.917,0.493812,0.0,0.0
990,247.25,47.9037,50.2163,125.319,99.8564,94.0991,0.0073076,0.101007,20.9606,164.917,0.527103,0.0,0.0
993,248,48.1701,50.0892,121.991,99.8519,95.0986,0.00718346,0.100801,20.9608,164.907,0.432924,0.0,0.0
996,248.75,48.1077,50.1984,124.729,99.8471,94.414,0.00709297,0.100615,20.9613,164.917,0.496624,0.0,0.0
999,249.5,47.2383,50.1399,122.689,99.8503,94.2217,0.00694962,0.10038,20.9617,164.907,0.515003,0.0,0.0
1002,250.25,47.5073,50.3135,122.254,99.8531,94.738,0.00682495,0.10011,20.962,164.887,0.466754,0.0,0.0
1005,251,47.4639,49.8067,123.321,99.8475,94.4844,0.00672548,0.0998714,20.9622,164.877,0.490045,0.0,0.0
1008,251.75,47.6003,49.8897,120.666,99.8358,94.4984,0.00664154,0.0996416,20.9625,164.887,0.487692,0.0,0.0
1011,252.5,47.5457,50.0435,125.303,99.8407,94.1303,0.00657549,0.0994132,20.9628,164.867,0.522757,0.0,0.0
1014,253.25,47.3462,49.9403,120.613,99.8568,94.957,0.00650758,0.0991837,20.9635,164.857,0.446582,0.0,0.0
1017,254,47.8502,50.4022,124.054,99.8338,94.3391,0.00643793,0.0989333,20.9642,164.847,0.502491,0.0,0.0
1020,254.75,47.552,49.7833,121.413,99.8302,94.0809,0.00636599,0.0987153,20.9647,164.837,0.526486,0.0,0.0
1023,255.5,47.4692,50.0659,126.725,99.8278,94.0287,0.00627946,0.0984565,20.965,164.807,0.531205,0.0,0.0
1026,256.25,47.3364,49.5383,125.276,99.8362,94.279,0.00619487,0.0982604,20.9653,164.807,0.508362,0.0,0.0
1029,257,47.3855,49.8449,126.509,99.8246,94.3621,0.00610094,0.0981049,20.9655,164.787,0.499498,0.0,0.0
1032,257.75,47.6776,50.026,125.04,99.8225,93.8887,0.00603247,0.0979516,20.9656,164.787,0.543963,0.0,0.0
1035,258.5,47.1198,49.9993,124.134,99.8141,94.2287,0.00598492,0.0978398,20.9657,164.797,0.511122,0.0,0.0
1038,259.25,47.5849,50.0368,123.082,99.8274,94.0472,0.00593394,0.0977215,20.9658,164.807,0.529421,0.0,0.0
1041,260,46.3255,49.6266,123.491,99.8085,94.0023,0.00590356,0.0975723,20.9665,164.777,0.531976,0.0,0.0
1044,260.75,47.205,49.9655,125.093,99.8081,94.4243,0.00591568,0.0973655,20.967,164.767,0.492186,0.0,0.0
1047,261.5,47.5252,50.0703,122.675,99.8069,93.9661,0.00594085,0.0972305,20.9669,164.757,0.535254,0.0,0.0
1050,262.25,47.3831,49.4862,123.602,99.8121,94.2345,0.00596683,0.0970147,20.9662,164.747,0.510401,0.0,0.0
1053,263,47.1259,49.8918,121.591,99.8081,94.3275,0.00598691,0.0968293,20.9657,164.747,0.501285,0.0,0.0
1056,263.75,47.6384,50.0075,125.24,99.8024,94.0221,0.00599148,0.0966823,20.9655,164.737,0.529573,0.0,0.0
1059,264.5,47.0143,49.4649,121.701,99.7988,94.293,0.00599053,0.0965525,20.9658,164.707,0.503715,0.0,0.0
1062,265.25,47.473,50.067,123.49,99.804,94.0361,0.00596596,0.0964579,20.966,164.717,0.528395,0.0,0.0
1065,266,47.7032,49.6525,121.445,99.7992,93.936,0.00592531,0.0963669,20.9662,164.707,0.537412,0.0,0.0
1068,266.75,46.8801,49.8888,122.52,99.7863,94.4774,0.00587419,0.0962627,20.9663,164.697,0.485263,0.0,0.0
1071,267.5,47.4277,49.7055,122.006,99.7807,94.2501,0.00580113,0.0961588,20.9664,164.677,0.506136,0.0,0.0
1074,268.25,47.2879,49.6575,125.43,99.7964,94.463,0.00572278,0.0960711,20.9662,164.697,0.487511,0.0,0.0
1077,269,47.2735,49.569,122.527,99.7863,94.2497,0.00564837,0.0960471,20.9657,164.677,0.506676,0.0,0.0
1080,269.75,47.4848,49.6604,124.107,99.7779,93.9344,0.00558153,0.0960017,20.9653,164.667,0.535671,0.0,0.0
1083,270.5,46.9467,49.6566,123.675,99.7767,94.9763,0.00553054,0.0959418,20.965,164.657,0.437651,0.0,0.0
1086,271.25,47.247,49.3667,123.818,99.7722,94.09,0.00549337,0.0958731,20.9648,164.647,0.520478,0.0,0.0
1089,272,47.7093,50.1537,126.309,99.7896,93.7627,0.00546755,0.0957431,20.9645,164.647,0.552946,0.0,0.0
1092,272.75,47.0453,49.6281,126.294,99.7682,94.1448,0.00544432,0.0955644,20.9641,164.627,0.514956,0.0,0.0
1095,273.5,47.5748,49.366,122.067,99.7561,94.1493,0.00541611,0.0953984,20.9639,164.627,0.513454,0.0,0.0
1098,274.25,47.185,49.5104,122.369,99.7718,94.4309,0.00537549,0.0952259,20.9638,164.607,0.488345,0.0,0.0
1101,275,46.9918,49.4843,124.062,99.7642,94.0999,0.00533009,0.095012,20.9638,164.597,0.518829,0.0,0.0
1104,275.75,46.9978,49.1757,124.544,99.7698,94.6412,0.0052846,0.0949129,20.9638,164.607,0.468415,0.0,0.0
1107,276.5,47.2426,49.6478,123.324,99.7473,94.7359,0.00524608,0.0948649,20.9637,164.577,0.457534,0.0,0.0
1110,277.25,46.7859,48.8086,125.1,99.7525,94.2366,0.00522129,0.0948898,20.9637,164.597,0.504909,0.0,0.0
1113,278,47.004,49.3815,124.833,99.7698,94.528,0.00520885,0.0948939,20.9637,164.587,0.479039,0.0,0.0
1116,278.75,47.0549,49.3685,124.103,99.7557,94.4696,0.00521033,0.094863,20.9637,164.587,0.483276,0.0,0.0
1119,279.5,46.9562,49.5908,122.198,99.7497,93.8644,0.00523868,0.0948285,20.9637,164.567,0.539779,0.0,0.0
1122,280.25,47.2635,49.336,121.861,99.7465,93.813,0.00527513,0.0948034,20.9637,164.557,0.54436,0.0,0.0
1125,281,46.8251,49.4541,126.008,99.7545,94.4675,0.00531173,0.0947925,20.9637,164.547,0.483362,0.0,0.0
1128,281.75,46.9463,49.2422,123.69,99.7525,93.4313,0.00533609,0.0947971,20.9637,164.537,0.581079,0.0,0.0
1131,282.5,47.1074,49.3767,123.932,99.7425,93.645,0.00534257,0.0946886,20.9637,164.517,0.559908,0.0,0.0
1134,283.25,46.8834,48.9281,122.017,99.7344,94.1159,0.00528655,0.0944956,20.9637,164.527,0.514666,0.0,0.0
1137,284,46.9447,49.1492,121.237,99.7433,94.2382,0.00521675,0.0942416,20.9637,164.517,0.503929,0.0,0.0
1140,284.75,46.8802,49.2945,123.901,99.7453,93.4556,0.00511632,0.0939967,20.9637,164.507,0.578126,0.0,0.0
1143,285.5,47.0116,49.0978,122.12,99.7219,93.815,0.00500828,0.0937902,20.9637,164.507,0.541982,0.0,0.0
1146,286.25,47.1344,49.3446,124.665,99.7227,93.8755,0.00486994,0.0936204,20.9637,164.487,0.536329,0.0,0.0
1149,287,47.2558,49.3934,122.105,99.7304,93.8113,0.00472817,0.0934841,20.9637,164.477,0.543083,0.0,0.0
1152,287.75,47.0664,49.1804,124.297,99.7252,94.388,0.00461734,0.0933553,20.9639,164.457,0.488217,0.0,0.0
1155,288.5,47.2267,49.2326,117.997,99.7066,94.2053,0.00453204,0.093211,20.9645,164.457,0.503773,0.0,0.0
1158,289.25,47.0738,49.4749,125.15,99.7167,94.1793,0.00446762,0.0930919,20.9643,164.467,0.507113,0.0,0.0
1161,290,46.6642,49.0685,120.734,99.7159,94.244,0.00441941,0.0929992,20.9645,164.467,0.500952,0.0,0.0
1164,290.75,46.8637,49.5445,125.504,99.7171,94.1402,0.00438766,0.092792,20.9649,164.447,0.510835,0.0,0.0
1167,291.5,46.5309,48.707,125.148,99.7175,93.943,0.00437126,0.0925712,20.9652,164.447,0.529482,0.0,0.0
1170,292.25,47.0556,49.0354,123.091,99.7046,94.479,0.00439048,0.0923511,20.9654,164.447,0.477837,0.0,0.0
1173,293,47.0408,49.0912,125.415,99.7107,94.3345,0.00441778,0.0921403,20.9656,164.437,0.491961,0.0,0.0
1176,293.75,46.8293,48.7026,122.843,99.7123,94.3741,0.00449111,0.0919269,20.9657,164.427,0.488386,0.0,0.0
1179,294.5,46.749,49.3665,125.881,99.6986,94.6313,0.00454456,0.091764,20.9658,164.437,0.463002,0.0,0.0
1182,295.25,46.401,48.7684,122.637,99.699,94.1843,0.00461351,0.0916327,20.9659,164.417,0.505071,0.0,0.0
1185,296,47.2467,49.2839,125.326,99.6909,94.011,0.00467459,0.091537,20.966,164.397,0.520703,0.0,0.0
1188,296.75,47.0006,49.5023,122.725,99.7022,93.8521,0.00471574,0.0914672,20.9662,164.387,0.536721,0.0,0.0
1191,297.5,46.8946,49.537,125.091,99.6873,93.9447,0.00472614,0.0914236,20.9662,164.397,0.52664,0.0,0.0
1194,298.25,46.847,49.4524,123.459,99.6753,93.8858,0.00472977,0.0914045,20.9663,164.377,0.531129,0.0,0.0
1197,299,46.3757,48.8422,122.412,99.668,93.9875,0.00472567,0.0912312,20.9663,164.397,0.520875,0.0,0.0
1200,299.75,46.2029,49.0125,127.096,99.6805,94.1501,0.00471644,0.0910975,20.9664,164.367,0.506642,0.0,0.0
1203,300.5,47.371,49.2438,126.903,99.6596,94.6795,0.00470047,0.0909875,20.9664,164.357,0.45501,0.0,0.0
1206,301.25,46.1602,48.9084,126.816,99.668,94.4712,,0.0909073,,164.347,0.475311,0.0,0.0
1209,302,47.1026,49.2906,124.817,99.6515,94.6585,,0.0909003,,164.327,0.45626,0.0,0.0
1212,302.75,47.013,49.451,126.957,99.662,94.0567,,0.0909831,,164.327,0.513809,0.0,0.0
1215,303.5,46.658,48.2975,123.605,99.668,94.4761,,0.0909877,,164.317,0.474848,0.0,0.0
1218,304.25,46.7546,48.8723,122.692,99.6519,93.9109,,,,164.297,0.526676,0.0,0.0
1221,305,46.6328,49.1544,124.8,99.6596,94.4885,,,,164.317,0.472934,0.0,0.0
1224,305.75,46.4983,49.0494,122.844,99.6531,93.8467,,,,164.307,0.532855,0.0,0.0
1227,306.5,46.4983,49.1029,121.401,99.6608,94.1674,,,,164.297,0.503257,0.0,0.0
1230,307.25,46.8516,48.9262,123.691,99.6423,94.0661,,,,164.287,0.511159,0.0,0.0
1233,308,46.8212,48.9416,121.734,99.6354,94.0064,,,,164.277,0.516183,0.0,0.0
1236,308.75,46.701,49.0583,122.599,99.6471,94.209,,,,164.257,0.49812,0.0,0.0
1239,309.5,47.0011,49.4331,122.433,99.6378,94.2991,,,,164.257,0.488806,0.0,0.0
1242,310.25,47.1645,48.9179,125.343,99.6314,94.4169,,,,164.267,0.477157,0.0,0.0
1245,311,46.7153,49.0607,122.446,99.6274,93.9805,,,,164.267,0.517915,0.0,0.0
1248,311.75,46.544,48.7786,123.435,99.6217,94.309,,,,164.267,0.486442,0.0,0.0