File: 01_Data/Cotton_Rug/Cone/Cotton_Rug_Cone_HF25Scan_220318_R2.csv
Names,Time,Stack TC,Smoke TC,Exh Press,Smoke Comp,Smoke Meas,CO Meter,CO2 Meter,O2 Meter,Sample Mass,Ext Coeff,Start Test,Flame Verif
Chan Gain,,500,500,1,1,1,1,1,1,1,1,1.0,1.0
Offset,,0,0,0.134026,0,0,0,0,0,0,0,0.0,0.0
Gain,,1,1,25.011,13.1637,13.6028,1,1,1,1.00089,1.01066,1.0,1.0
Units,sec,C,C,Pa,%,%,%,%,%,g,/m,,
Baseline,,19.3881,19.8282,154.691,99.0961,97.1306,0.000445616,0.0516302,21.0111,-833.818,0.177651,,
3,0.5,18.7032,19.2548,156.605,99.7122,97.8058,0.000391012,0.0592324,21.0031,182.051,0.171138,0.0,0.0
6,1.25,18.1229,18.7095,156.26,99.7295,98.3081,0.00038992,0.0586731,21.0042,182.091,0.127261,0.0,0.0
9,2,18.0695,18.65,154.139,99.7347,97.629,0.000391179,0.0581313,21.005,181.981,0.189183,0.0,0.0
12,2.75,18.186,18.9322,155.002,99.7423,97.7452,0.000409291,0.057628,21.0056,182.021,0.179311,0.0,0.0
15,3.5,18.3424,19.2661,157.255,99.7423,97.9789,0.000434553,0.0571578,21.006,182.001,0.158139,0.0,0.0
18,4.25,18.3034,18.969,155.67,99.7556,97.6377,0.000458111,0.0567176,21.0063,181.981,0.190248,0.0,0.0
21,5,18.7067,18.7508,159.552,99.7704,97.7224,0.000480999,0.0564546,21.0059,182.001,0.183882,0.0,0.0
24,5.75,18.5219,18.8015,156.806,99.7769,98.1695,0.000507456,0.0563484,21.0057,181.981,0.143985,0.0,0.0
27,6.5,18.4881,18.9485,155.821,99.7801,97.9723,0.00051722,0.0564173,21.0057,181.971,0.162096,0.0,0.0
30,7.25,18.4457,18.8195,155.128,99.7913,98.1637,0.000508055,0.0566994,21.0056,181.981,0.145795,0.0,0.0
33,8,18.0282,18.7106,150.788,99.8006,98.2214,0.00047558,0.056905,21.0056,181.951,0.141406,0.0,0.0
36,8.75,18.3546,18.9108,153.274,99.8078,98.1329,0.00043865,0.0571406,21.0056,181.951,0.150033,0.0,0.0
39,9.5,18.4559,19.0014,157.299,99.8094,98.0997,0.000404175,0.0574586,21.0049,181.931,0.153177,0.0,0.0
42,10.25,18.1236,19.4849,153.775,99.8183,97.1786,0.000375789,0.0578839,21.0045,181.921,0.237602,0.0,0.0
45,11,18.5434,19.2103,150.924,99.8279,97.3824,0.000355097,0.0583838,21.0039,181.921,0.219884,0.0,0.0
48,11.75,18.5105,19.0179,155.63,99.8287,97.4131,0.000340011,0.0589006,21.0031,181.911,0.217158,0.0,0.0
51,12.5,18.9858,19.1559,155.929,99.8263,98.2741,0.000329014,0.0593994,21.0025,181.911,0.138932,0.0,0.0
54,13.25,18.6609,19.0499,153.957,99.8367,97.4426,0.000325816,0.0598017,21.0021,181.901,0.215189,0.0,0.0
57,14,18.3166,19.3147,150.66,99.8391,97.5949,0.000325539,0.0600001,21.0018,181.891,0.201554,0.0,0.0
60,14.75,18.6717,18.8388,156.83,99.8428,97.5829,0.000349403,0.0601042,21.0015,181.881,0.202968,0.0,0.0
63,15.5,18.7113,18.9301,150.716,99.8375,98.1379,0.000390916,0.0600059,21.0014,181.881,0.152223,0.0,0.0
66,16.25,18.4796,19.1678,154.831,99.8556,97.8536,0.000442892,0.0599343,21.0017,181.871,0.179554,0.0,0.0
69,17,18.0099,19.0781,153.661,99.8412,97.6834,0.000500329,0.0596693,21.0023,181.871,0.193704,0.0,0.0
72,17.75,18.5977,19.0625,157.749,99.8532,97.9847,0.000540994,0.0593812,21.0032,181.861,0.167464,0.0,0.0
75,18.5,18.2446,19.0316,152.974,99.8749,97.6609,0.00056047,0.0591308,21.0038,181.841,0.198734,0.0,0.0
78,19.25,18.6966,18.7725,157.143,99.842,97.7141,0.000570552,0.0586582,21.0045,181.831,0.190987,0.0,0.0
81,20,18.7693,19.2903,156.157,99.8564,97.9262,0.000580315,0.0581917,21.0054,181.821,0.173045,0.0,0.0
84,20.75,18.2698,19.0705,152.716,99.8444,97.6921,0.000586026,0.0577213,21.0059,181.811,0.193198,0.0,0.0
87,21.5,18.5747,19.4391,156.682,99.8512,97.8008,0.000613283,0.0572442,21.0064,181.811,0.18394,0.0,0.0
90,22.25,18.5871,18.8971,154.286,99.8524,97.6481,0.000640396,0.0567339,21.0068,181.791,0.197905,0.0,0.0
93,23,18.5372,19.0674,154.844,99.8608,97.5007,0.00066325,0.0562927,21.0071,181.781,0.212045,0.0,0.0
96,23.75,18.412,18.6126,158.864,99.8673,97.4891,0.000674745,0.0559183,21.0073,181.771,0.213672,0.0,0.0
99,24.5,18.6065,19.6257,154.86,99.8612,97.4779,0.00068071,0.0554928,21.0074,181.771,0.214156,0.0,0.0
102,25.25,18.2745,19.0692,154.37,99.8584,97.932,0.000686443,0.0551948,21.0075,181.751,0.172698,0.0,0.0
105,26,18.3196,18.8058,153.17,99.858,97.4115,0.000691652,0.0549583,21.0076,181.751,0.219913,0.0,0.0
108,26.75,18.6053,19.2979,152.426,99.8661,97.7469,0.000700279,0.0547587,21.0077,181.751,0.190153,0.0,0.0
111,27.5,18.7714,18.6149,159.429,99.8572,97.2857,0.000708628,0.054616,21.0077,181.731,0.231297,0.0,0.0
114,28.25,18.7525,19.2264,154.397,99.8488,97.7643,0.000688886,0.0545363,21.0078,181.741,0.187037,0.0,0.0
117,29,18.6297,19.046,152.267,99.8592,97.4243,0.000674495,0.0545053,21.0078,181.731,0.218849,0.0,0.0
120,29.75,18.9474,19.4608,153.807,99.8633,97.6663,0.000622708,0.0544942,21.008,181.721,0.197211,0.0,0.0
123,30.5,17.9707,18.8809,154.62,99.8584,97.8332,0.000576515,0.0545268,21.0083,181.721,0.181647,0.0,0.0
126,31.25,18.873,19.3591,156.22,99.8572,97.905,0.000539242,0.0545678,21.0086,181.721,0.175034,0.0,0.0
129,32,18.5608,19.0226,150.782,99.8584,97.7631,0.00051207,0.0545842,21.0087,181.711,0.188007,0.0,0.0
132,32.75,18.7675,19.0242,153.474,99.8608,97.5999,0.00050258,0.054569,21.0088,181.701,0.203027,0.0,0.0
135,33.5,18.4237,19.0315,152.595,99.8624,97.6597,0.000495662,0.0545213,21.0089,181.701,0.197742,0.0,0.0
138,34.25,18.5791,19.3872,153.447,99.8548,97.3645,0.000514703,0.054448,21.0094,181.691,0.223898,0.0,0.0
141,35,18.5812,19.5594,150.209,99.8492,97.2392,0.00052014,0.0543945,21.01,181.681,0.234822,0.0,0.0
144,35.75,18.5956,18.9754,157.777,99.8693,97.6871,0.000510984,0.0543556,21.0104,181.681,0.195861,0.0,0.0
147,36.5,18.5109,19.1338,156.169,99.86,97.8843,0.000488031,0.0543851,21.0107,181.671,0.177164,0.0,0.0
150,37.25,18.8036,18.9434,154.015,99.8576,97.4206,0.00046045,0.0544066,21.0109,181.651,0.219046,0.0,0.0
153,38,18.3336,19.4379,155.011,99.8564,97.3413,0.000431279,0.0543836,21.011,181.651,0.226158,0.0,0.0
156,38.75,18.4799,18.8993,156.268,99.8705,97.8843,0.000402422,0.0543128,21.0105,181.641,0.178091,0.0,0.0
159,39.5,18.8852,19.4669,153.048,99.8641,97.7685,0.000362484,0.0542096,21.0101,181.631,0.188016,0.0,0.0
162,40.25,18.9597,19.2347,156.859,99.8661,97.5924,0.00033337,0.0540856,21.0099,181.611,0.20417,0.0,0.0
165,41,18.7513,19.2162,156.367,99.8596,97.8556,0.000281233,0.0539817,21.0101,181.611,0.179723,0.0,0.0
168,41.75,18.964,19.4743,151.042,99.8633,97.6784,0.000233597,0.0538788,21.0105,181.601,0.196118,0.0,0.0
171,42.5,18.878,19.4005,153.362,99.8709,97.6697,0.000198567,0.0537673,21.0107,181.591,0.197586,0.0,0.0
174,43.25,18.9576,19.5605,154.281,99.8624,97.7822,0.000179528,0.0536474,21.0109,181.591,0.186632,0.0,0.0
177,44,18.82,19.2772,160.444,99.854,97.3097,0.000181102,0.0535315,21.0113,181.581,0.228818,0.0,0.0
180,44.75,18.8248,19.5599,156.247,99.8701,97.3674,0.000185417,0.0533983,21.012,181.561,0.224989,0.0,0.0
183,45.5,18.273,19.5537,155.292,99.8685,97.6319,0.000193983,0.0532606,21.0118,181.561,0.200802,0.0,0.0
186,46.25,18.9746,19.4348,154.268,99.8641,97.8299,0.000193356,0.0531216,21.0117,181.551,0.182448,0.0,0.0
189,47,18.8314,19.0456,152.025,99.8528,97.4509,0.000193534,0.0529837,21.0117,181.541,0.215862,0.0,0.0
192,47.75,19.1028,19.5645,156.032,99.8665,97.6609,0.000194384,0.0528061,21.0121,181.531,0.197986,0.0,0.0
195,48.5,18.9732,19.0097,147.866,99.8584,97.4488,0.000207409,0.0526224,21.0125,181.521,0.21655,0.0,0.0
198,49.25,18.6208,19.072,153.518,99.8568,97.5036,0.00023155,0.0524655,21.0129,181.511,0.211424,0.0,0.0
201,50,19.0778,19.4195,152.932,99.8484,97.0204,0.000265413,0.052274,21.0131,181.501,0.254718,0.0,0.0
204,50.75,18.9961,19.1647,153.121,99.8516,97.5277,0.000319327,0.0521761,21.0133,181.491,0.208771,0.0,0.0
207,51.5,18.9261,18.9717,153.965,99.842,97.4924,0.00035863,0.0520244,21.0134,181.481,0.211123,0.0,0.0
210,52.25,18.7886,19.598,153.266,99.8468,97.0565,0.000447511,0.0518868,21.0136,181.461,0.251277,0.0,0.0
213,53,18.3747,19.2847,155.169,99.8408,96.4749,0.000536456,0.0517678,21.0138,181.451,0.304026,0.0,0.0
216,53.75,18.8262,18.9902,153.27,99.8311,96.543,0.000611594,0.0516689,21.014,181.441,0.296915,0.0,0.0
219,54.5,18.918,19.4845,152.579,99.8323,97.1358,0.000691745,0.0516253,21.0141,181.431,0.242753,0.0,0.0
222,55.25,18.9445,19.634,152.368,99.8279,96.8851,0.000773087,0.0516422,21.0142,181.421,0.265274,0.0,0.0
225,56,18.4621,19.744,155.933,99.813,96.6111,0.000853063,0.0516545,21.0143,181.411,0.28906,0.0,0.0
228,56.75,18.8785,19.5179,152.668,99.8002,96.4176,0.000931934,0.0517175,21.0143,181.421,0.305688,0.0,0.0
231,57.5,18.9781,19.3654,155.866,99.805,96.3354,0.00100776,0.0517865,21.0143,181.391,0.313677,0.0,0.0
234,58.25,18.442,19.2138,150.858,99.799,96.4803,0.00107938,0.0519315,21.0131,181.381,0.299819,0.0,0.0
237,59,18.6151,19.2805,157.623,99.7905,96.5198,0.00114006,0.05222,21.0117,181.371,0.295446,0.0,0.0
240,59.75,18.7847,19.3664,157.66,99.7721,96.5658,0.00118601,0.0526738,21.0081,181.361,0.289574,0.0,0.0
243,60.5,18.9455,19.2963,151.308,99.7833,95.934,0.00121623,0.0553054,21.0023,181.291,0.348768,0.0,0.0
246,61.25,19.081,19.4607,149.862,99.7777,96.0831,0.00122721,0.0607229,20.9993,181.271,0.334507,0.0,0.0
249,62,18.6469,19.4762,145.382,99.7576,96.7311,0.00123418,0.0706558,20.9828,181.251,0.273132,0.0,1.0
252,62.75,19.2329,19.2694,147.434,99.7379,95.5612,0.00124444,0.0914597,20.9575,181.09,0.379251,0.0,1.0
255,63.5,18.8108,19.5459,147.964,99.7387,95.802,0.00126766,0.112574,20.9279,181.06,0.357014,0.0,1.0
258,64.25,18.8843,19.4279,135.612,99.7311,95.7186,0.00130789,0.130497,20.8969,181.06,0.36406,0.0,1.0
261,65,19.6348,19.902,140.444,99.7078,95.5035,0.00136557,0.156756,20.8561,180.97,0.381928,0.0,1.0
264,65.75,19.8238,20.2821,138.692,99.7034,95.7555,0.00147073,0.188684,20.8227,180.85,0.358174,0.0,1.0
267,66.5,19.9246,20.3768,137.528,99.6945,94.9676,0.00160435,0.217587,20.792,180.75,0.430639,0.0,1.0
270,67.25,20.6048,21.1463,141.199,99.6877,95.7638,0.00175319,0.243752,20.7628,180.66,0.356012,0.0,1.0
273,68,20.4567,21.051,141.705,99.6724,95.3022,0.00190916,0.267196,20.7391,180.61,0.397493,0.0,1.0
276,68.75,21.0854,21.3461,134.941,99.6527,94.6666,0.0020431,0.288046,20.7179,180.51,0.455063,0.0,1.0
279,69.5,21.9564,21.8201,138.534,99.6379,95.0892,0.00216507,0.308736,20.6977,180.41,0.414252,0.0,0.0
282,70.25,21.6708,22.2054,135.789,99.6331,94.4728,0.0022552,0.32557,20.6792,180.37,0.471485,0.0,0.0
285,71,22.7134,23.1039,137.467,99.6166,93.8526,0.00232143,0.340835,20.663,180.25,0.528411,0.0,0.0
288,71.75,22.7217,23.7761,137.735,99.6001,94.1685,0.00238014,0.355348,20.6468,180.17,0.497154,0.0,0.0
291,72.5,23.3491,23.9782,135.307,99.5768,93.4781,0.00245099,0.36737,20.6317,180.07,0.560313,0.0,0.0
294,73.25,23.8977,24.2968,140.039,99.5648,94.3848,0.00252936,0.379745,20.6183,179.989,0.473669,0.0,0.0
297,74,24.1354,24.6734,134.369,99.5555,93.5375,0.00261176,0.390711,20.607,179.899,0.552788,0.0,0.0
300,74.75,25.0366,25.6542,137.664,99.537,93.2245,0.00267182,0.40042,20.5959,179.809,0.580858,0.0,0.0
303,75.5,24.9888,25.9928,134.479,99.5162,92.9551,0.00277181,0.409014,20.5882,179.689,0.604656,0.0,0.0
306,76.25,26.0495,26.3497,140.79,99.5202,93.3084,0.00286865,0.417109,20.5829,179.629,0.571385,0.0,0.0
309,77,26.1212,26.7216,134.666,99.4912,92.9273,0.00296716,0.423011,20.5778,179.519,0.60509,0.0,0.0
312,77.75,26.6126,27.3905,135.491,99.4712,92.1801,0.00305488,0.429637,20.5726,179.429,0.674874,0.0,0.0
315,78.5,27.4179,27.8413,137.065,99.4535,92.5242,0.00314559,0.435459,20.5672,179.319,0.640264,0.0,0.0
318,79.25,27.6512,28.4615,134.849,99.4326,92.2668,0.00324588,0.441803,20.5598,179.239,0.663097,0.0,0.0
321,80,28.2993,28.9962,133.895,99.4254,92.0734,0.00337538,0.448077,20.5519,179.149,0.68106,0.0,0.0
324,80.75,28.6493,29.7521,138.844,99.4025,92.1958,0.00351709,0.45394,20.5446,179.049,0.667233,0.0,0.0
327,81.5,29.0285,30.3353,133.68,99.3695,90.4851,0.00366017,0.459741,20.5371,178.939,0.830342,0.0,0.0
330,82.25,29.3889,30.5841,134.25,99.3603,91.0302,0.00378258,0.465514,20.5307,178.848,0.776275,0.0,0.0
333,83,29.9041,31.1363,134.998,99.3422,89.7707,0.00390279,0.471249,20.5235,178.718,0.89818,0.0,0.0
336,83.75,30.3017,31.4824,130.577,99.3322,90.554,0.00400972,0.476387,20.5178,178.618,0.820259,0.0,0.0
339,84.5,30.8916,32.0114,142.362,99.2968,90.6981,0.00410243,0.480542,20.5126,178.518,0.803012,0.0,0.0
342,85.25,31.6281,32.6183,138.866,99.2683,90.0625,0.00419057,0.485069,20.5072,178.418,0.862807,0.0,0.0
345,86,31.6697,33.0946,133.342,99.2667,91.6591,0.00427919,0.4898,20.5007,178.318,0.706879,0.0,0.0
348,86.75,31.9048,33.5602,132.307,99.2727,89.9874,0.00439061,0.493859,20.4958,178.218,0.870602,0.0,0.0
351,87.5,32.2227,34.6247,135.038,99.2707,90.1991,0.00449179,0.49833,20.4918,178.098,0.849588,0.0,0.0
354,88.25,32.737,34.6919,132.648,99.2775,89.703,0.00464299,0.502292,20.4876,178.008,0.899092,0.0,0.0
357,89,32.8903,34.4243,133.878,99.2852,89.5656,0.00479223,0.505746,20.4846,177.878,0.913363,0.0,0.0
360,89.75,33.979,35.4561,132.485,99.2928,89.4278,0.00496777,0.508719,20.4818,177.798,0.927697,0.0,0.0
363,90.5,34.2293,36.1994,134.921,99.3,90.1086,0.00513905,0.511466,20.4788,177.677,0.861106,0.0,0.0
366,91.25,34.6906,36.6673,131.486,99.2964,89.5714,0.00531584,0.514039,20.4761,177.597,0.913792,0.0,0.0
369,92,34.8917,37.0333,131.426,99.3173,89.1916,0.00547334,0.51647,20.4737,177.487,0.953332,0.0,0.0
372,92.75,35.3874,37.1041,138.78,99.3201,88.5722,0.00561271,0.518587,20.4707,177.357,1.01536,0.0,0.0
375,93.5,35.9173,37.4576,134.512,99.329,88.5544,0.00574086,0.520718,20.4671,177.247,1.01794,0.0,0.0
378,94.25,36.5165,38.3692,132.164,99.3346,88.6926,0.00584917,0.52326,20.4638,177.147,1.00461,0.0,0.0
381,95,36.7501,38.8187,137.144,99.3426,88.4742,0.00593449,0.525788,20.461,177.027,1.02718,0.0,0.0
384,95.75,37.0249,38.9798,132.312,99.3539,88.3796,0.00602773,0.528092,20.4585,176.937,1.03767,0.0,0.0
387,96.5,37.5219,39.4262,131.245,99.3607,86.8756,0.00612726,0.530011,20.4564,176.827,1.19045,0.0,0.0
390,97.25,38.2644,40.2364,132.119,99.3643,87.6469,0.0062001,0.53131,20.4554,176.707,1.11241,0.0,0.0
393,98,37.863,40.1381,138.79,99.3715,88.1973,0.00628425,0.532386,20.4542,176.606,1.05755,0.0,0.0
396,98.75,38.8359,40.7414,133.138,99.3832,87.2853,0.0064567,0.533225,20.4537,176.496,1.15074,0.0,0.0
399,99.5,38.9229,41.1157,131.893,99.3868,86.8523,0.00653043,0.534332,20.4535,176.396,1.19515,0.0,0.0
402,100.25,39.0728,41.0402,139.265,99.3884,87.3214,0.0066156,0.534899,20.4533,176.286,1.14754,0.0,0.0
405,101,39.6763,41.6713,134.767,99.4061,86.223,0.00669369,0.53537,20.4532,176.186,1.26134,0.0,0.0
408,101.75,40.0737,42.6597,134.385,99.4193,86.9387,0.00676432,0.5354,20.4531,176.076,1.18924,0.0,0.0
411,102.5,40.3773,42.7887,132.24,99.4362,86.3231,0.00682166,0.535291,20.4531,175.966,1.25375,0.0,0.0
414,103.25,40.7001,42.9683,130.294,99.439,87.2579,0.00689903,0.53523,20.453,175.866,1.15851,0.0,0.0
417,104,40.4713,43.3313,131.001,99.4471,86.8802,0.00696726,0.535021,20.453,175.786,1.19769,0.0,0.0
420,104.75,40.5976,43.1007,135.677,99.4603,85.6194,0.00703721,0.534571,20.4536,175.676,1.32846,0.0,0.0
423,105.5,41.887,44.1604,135.004,99.486,85.6485,0.00712916,0.533879,20.4545,175.566,1.32774,0.0,0.0
426,106.25,41.4425,44.2586,132.702,99.49,85.7506,0.00722493,0.533218,20.4562,175.475,1.31754,0.0,0.0
429,107,42.0022,44.3897,135.357,99.4884,85.9806,0.00735284,0.531229,20.4601,175.355,1.29365,0.0,0.0
432,107.75,42.5661,45.0015,133.707,99.5101,85.9262,0.00740984,0.529125,20.4618,175.265,1.30119,0.0,0.0
435,108.5,42.2031,44.9746,132.234,99.5238,85.888,0.0075078,0.527102,20.4638,175.145,1.30635,0.0,0.0
438,109.25,42.4304,45.4757,141.902,99.5387,86.2006,0.00757922,0.525269,20.4652,175.075,1.27546,0.0,0.0
441,110,42.6501,45.8654,133.566,99.5431,84.5019,0.0076545,0.522557,20.4682,174.985,1.45231,0.0,0.0
444,110.75,43.3402,46.3153,140.835,99.5861,85.7249,0.00773442,0.521137,20.471,174.875,1.32875,0.0,0.0
447,111.5,42.7444,45.7178,137.875,99.5905,86.6257,0.00780337,0.518935,20.4742,174.745,1.23647,0.0,0.0
450,112.25,43.3741,46.3802,136.138,99.5977,86.5779,0.00790011,0.515278,20.4775,174.675,1.242,0.0,0.0
453,113,43.5402,46.6467,136.024,99.6001,87.0064,0.00798318,0.511567,20.4818,174.585,1.19845,0.0,0.0
456,113.75,43.978,46.9516,135.162,99.619,86.6203,0.0080471,0.507076,20.4878,174.525,1.23956,0.0,0.0
459,114.5,44.0566,47.1915,138.158,99.6471,84.8128,0.00809031,0.501867,20.4953,174.395,1.42901,0.0,0.0
462,115.25,44.4662,47.252,139.873,99.6708,85.323,0.00809498,0.496641,20.5014,174.304,1.37795,0.0,0.0
465,116,44.2733,47.6742,139.409,99.662,85.3508,0.00809839,0.491798,20.507,174.214,1.37427,0.0,0.0
468,116.75,44.3204,47.2724,136,99.6909,84.6783,0.00806334,0.487283,20.5121,174.124,1.44697,0.0,0.0
471,117.5,44.524,47.6368,137.731,99.6949,85.3297,0.00804108,0.483054,20.5161,174.024,1.3794,0.0,0.0
474,118.25,44.6207,47.5142,139.474,99.7114,85.5073,0.0080305,0.479089,20.5209,173.954,1.36242,0.0,0.0
477,119,45.0774,48.0367,138.932,99.7311,85.9972,0.00806032,0.47508,20.5248,173.854,1.31353,0.0,0.0
480,119.75,44.7935,48.4817,139.95,99.7423,85.6858,0.00808536,0.471682,20.5279,173.794,1.34669,0.0,0.0
483,120.5,44.6975,48.4761,138.697,99.7729,85.9196,0.00810926,0.467468,20.5319,173.674,1.32525,0.0,0.0
486,121.25,45.1647,48.3487,138.69,99.7785,85.333,0.00811019,0.462908,20.5355,173.604,1.38648,0.0,0.0
489,122,44.8263,49.035,138.171,99.7849,84.5625,0.00808266,0.45895,20.5418,173.514,1.46746,0.0,0.0
492,122.75,45.2309,48.6708,137.501,99.7946,83.934,0.00803758,0.454002,20.5471,173.434,1.53446,0.0,0.0
495,123.5,45.4182,48.7215,137.244,99.8187,84.8535,0.00800472,0.450395,20.5521,173.364,1.44001,0.0,0.0
498,124.25,45.4738,48.6127,133.013,99.8235,86.0379,0.00795218,0.445738,20.5566,173.274,1.31755,0.0,0.0
501,125,45.1594,48.9501,139.601,99.8383,85.2433,0.00789637,0.44167,20.5614,173.223,1.40112,0.0,0.0
504,125.75,45.0465,48.5771,136.852,99.8468,85.0702,0.00784821,0.437555,20.5669,173.143,1.41989,0.0,0.0
507,126.5,45.53,49.1392,143.809,99.8721,84.3081,0.00778099,0.432505,20.5736,173.033,1.50192,0.0,0.0
510,127.25,45.345,48.6657,136.243,99.8769,84.6489,0.00770345,0.427951,20.5822,172.963,1.46659,0.0,0.0
513,128,45.2013,48.7685,139.69,99.895,84.0789,0.00762819,0.421681,20.5896,172.893,1.52809,0.0,0.0
516,128.75,45.54,49.0914,146.518,99.8942,85.0935,0.00756533,0.415507,20.5975,172.803,1.42168,0.0,0.0
519,129.5,45.3419,49.1262,142.212,99.9235,85.1063,0.00747854,0.409684,20.6046,172.743,1.42294,0.0,0.0
522,130.25,45.5768,48.9714,142.552,99.9384,84.9166,0.00741528,0.403825,20.6103,172.673,1.44404,0.0,0.0
525,131,45.0375,48.8145,140.521,99.9388,85.1549,0.00731221,0.39866,20.6158,172.603,1.41923,0.0,0.0
528,131.75,44.9694,48.7541,144.468,99.95,85.9557,0.00721084,0.39333,20.621,172.523,1.33725,0.0,0.0
531,132.5,45.4307,49.0329,143.559,99.9673,84.7942,0.00709208,0.388778,20.626,172.463,1.4594,0.0,0.0
534,133.25,45.223,48.679,150.165,99.9801,85.7593,0.00692209,0.383123,20.6319,172.423,1.3602,0.0,0.0
537,134,45.2935,48.9343,143.813,99.987,86.5099,0.00674225,0.378076,20.6385,172.333,1.28355,0.0,0.0
540,134.75,45.1417,48.7032,139.664,99.9926,86.5265,0.00655988,0.372814,20.6466,172.283,1.28235,0.0,0.0
543,135.5,44.6895,48.6066,146.108,100.01,86.9316,0.00638003,0.367264,20.654,172.203,1.2425,0.0,0.0
546,136.25,44.9042,48.4101,143.563,100.014,87.9831,0.0061906,0.361895,20.6604,172.153,1.13627,0.0,0.0
549,137,44.7835,48.5938,143.901,100.028,88.1284,0.00603426,0.356966,20.6654,172.092,1.12289,0.0,0.0
552,137.75,44.7121,48.7461,145.543,100.037,87.8727,0.00588909,0.352253,20.6703,172.042,1.14943,0.0,0.0
555,138.5,44.6766,48.3664,143.164,100.036,88.1683,0.00575679,0.347619,20.676,171.992,1.11952,0.0,0.0
558,139.25,44.848,48.6648,146.179,100.04,88.2397,0.00564408,0.34373,20.6812,171.922,1.11277,0.0,0.0
561,140,44.9452,48.747,143.501,100.052,88.5153,0.00553409,0.337769,20.6881,171.882,1.08619,0.0,0.0
564,140.75,44.6541,48.6447,140.889,100.046,90.0496,0.00540106,0.332106,20.6966,171.842,0.933262,0.0,0.0
567,141.5,44.4386,48.2166,142.568,100.042,90.5266,0.00526336,0.325725,20.7043,171.782,0.886072,0.0,0.0
570,142.25,44.2929,47.9589,145.585,100.052,91.3735,0.00514562,0.317756,20.713,171.742,0.804412,0.0,0.0
573,143,44.3443,48.0368,147.295,100.06,90.1621,0.00500001,0.310643,20.7194,171.682,0.923475,0.0,0.0
576,143.75,44.4565,47.9785,145.235,100.069,91.8118,0.00489386,0.303229,20.7267,171.652,0.76344,0.0,0.0
579,144.5,43.7597,47.4597,144.123,100.049,92.1784,0.00477374,0.294715,20.7332,171.612,0.726372,0.0,0.0
582,145.25,43.8632,47.819,140.528,100.05,91.1265,0.00461307,0.287075,20.7415,171.582,0.828232,0.0,0.0
585,146,43.7879,47.3886,144.088,100.061,93.3764,0.00442411,0.279054,20.7507,171.562,0.612958,0.0,0.0
588,146.75,43.962,47.4733,148.513,100.035,94.8535,0.00426053,0.273207,20.7587,171.512,0.471508,0.0,0.0
591,147.5,43.2885,47.0299,151.483,100.026,95.2553,0.00409712,0.262514,20.7689,171.492,0.433283,0.0,0.0
594,148.25,43.1604,46.705,145.695,100.025,94.8921,0.00395178,0.253391,20.7808,171.462,0.467011,0.0,0.0
597,149,43.1907,46.8982,151.16,100.022,96.7522,0.00385807,0.244468,20.7927,171.422,0.294617,0.0,0.0
600,149.75,42.6164,46.7894,149.636,100.004,96.2051,0.00379499,0.234979,20.8037,171.412,0.343327,0.0,0.0
603,150.5,42.5866,46.0988,152.415,99.985,96.1366,0.00381898,0.225896,20.8155,171.382,0.347968,0.0,0.0
606,151.25,42.6244,46.2579,149.427,99.9846,97.2209,0.00388432,0.21748,20.8241,171.382,0.248499,0.0,0.0
609,152,42.4655,46.1513,153.248,99.985,96.8158,0.0040138,0.209852,20.8329,171.342,0.285558,0.0,0.0
612,152.75,42.0692,45.9192,149.304,99.9484,96.1644,0.00427943,0.202556,20.8402,171.332,0.34216,0.0,0.0
615,153.5,41.8675,45.5655,149.359,99.9259,96.3197,0.0044429,0.196498,20.8471,171.302,0.325863,0.0,0.0
618,154.25,41.4851,45.2376,148.32,99.9199,96.8378,0.00469017,0.189742,20.8541,171.282,0.277771,0.0,0.0
621,155,41.1384,44.8147,149.708,99.8986,96.8909,0.00494986,0.183981,20.8609,171.282,0.271019,0.0,0.0
624,155.75,41.2592,44.898,150.295,99.8761,97.0283,0.00517138,0.178351,20.8677,171.252,0.25646,0.0,0.0
627,156.5,40.6674,44.5233,151.463,99.8456,96.2039,0.00535965,0.172236,20.8747,171.242,0.329399,0.0,0.0
630,157.25,40.6122,44.1044,149.298,99.8327,96.8602,0.00551922,0.166571,20.8817,171.232,0.267982,0.0,0.0
633,158,40.601,44.1943,150.865,99.8183,96.5783,0.00568394,0.161384,20.8872,171.222,0.292533,0.0,0.0
636,158.75,40.4835,43.8114,149.175,99.7909,96.3433,0.00585802,0.156673,20.8921,171.192,0.311702,0.0,0.0
639,159.5,39.8243,43.4615,148.76,99.7721,96.9685,0.00604197,0.151911,20.8965,171.192,0.252682,0.0,0.0
642,160.25,39.5882,43.1935,151.316,99.7492,96.4197,0.00629816,0.147795,20.9007,171.172,0.300963,0.0,0.0
645,161,39.4951,42.9594,153.2,99.7315,97.1155,0.00653697,0.143694,20.905,171.152,0.23565,0.0,0.0
648,161.75,39.1285,42.7619,149.484,99.6965,97.252,0.00687684,0.139303,20.9099,171.142,0.220085,0.0,0.0
651,162.5,39.0454,42.3088,153.981,99.6648,96.5733,0.00717467,0.134969,20.9129,171.132,0.279351,0.0,0.0
654,163.25,38.5022,41.8528,148.586,99.6226,96.8398,0.00751874,0.130892,20.9177,171.132,0.251166,0.0,0.0
657,164,38.6252,42.0683,152.87,99.6098,96.7742,0.00791483,0.127028,20.922,171.122,0.256028,0.0,0.0
660,164.75,38.1666,41.6646,152.825,99.5764,96.3006,0.00832769,0.123444,20.9256,171.112,0.296558,0.0,0.0
663,165.5,38.0373,41.5059,151.556,99.5447,96.8813,0.00853992,0.121147,20.9294,171.092,0.240428,0.0,0.0
666,166.25,37.7631,41.2505,152.906,99.5294,96.8137,0.00883941,0.117898,20.9322,171.082,0.245262,0.0,0.0
669,167,37.3615,40.7869,156.728,99.4929,96.5692,0.00908088,0.115274,20.9347,171.092,0.264424,0.0,0.0
672,167.75,36.9407,40.4433,157.281,99.4579,97.0777,0.00930749,0.112887,20.9366,171.082,0.214748,0.0,0.0
675,168.5,37.1159,40.2897,153.673,99.4254,96.1972,0.00950358,0.111009,20.9379,171.062,0.292621,0.0,0.0
678,169.25,36.832,39.7471,158.042,99.3916,96.4413,0.00966247,0.109403,20.9395,171.052,0.267145,0.0,0.0
681,170,36.9158,40.3031,151.021,99.3747,96.4471,0.00978191,0.108079,20.941,171.052,0.265105,0.0,0.0
684,170.75,36.3551,39.689,150.184,99.3563,96.5878,0.00986099,0.106853,20.9424,171.042,0.25053,0.0,0.0
687,171.5,35.5535,38.9903,153.422,99.3318,96.318,0.00990497,0.105761,20.9434,171.032,0.273145,0.0,0.0
690,172.25,35.5933,38.974,155.057,99.288,97.1258,0.00992172,0.104893,20.9441,171.022,0.195191,0.0,0.0
693,173,35.7302,39.0003,156.373,99.2715,96.7078,0.00990775,0.104136,20.9446,171.012,0.231959,0.0,0.0
696,173.75,35.4491,38.7974,153.697,99.2526,96.4081,0.00987733,0.103445,20.945,171.002,0.257792,0.0,0.0
699,174.5,35.1749,38.2318,153.855,99.2157,96.3666,0.00983524,0.102906,20.9453,171.002,0.258308,0.0,0.0
702,175.25,34.6022,37.5615,153.206,99.1867,97.037,0.00978522,0.102451,20.9455,170.981,0.194259,0.0,0.0
705,176,34.798,37.9739,151.668,99.1727,96.3819,0.00972894,0.101981,20.946,170.992,0.253053,0.0,0.0
708,176.75,34.6828,37.7635,151.097,99.1438,96.9631,0.0096917,0.101579,20.9467,170.951,0.19717,0.0,0.0
711,177.5,34.3978,37.642,157.836,99.1172,97.1317,0.00968013,0.10103,20.9471,170.941,0.179401,0.0,0.0
714,178.25,34.4932,37.2026,153.244,99.0915,96.614,0.00969557,0.100492,20.9481,170.931,0.224477,0.0,0.0
717,179,33.9636,37.1867,151.13,99.053,96.7863,0.00974602,0.0999975,20.9487,170.931,0.205232,0.0,0.0
720,179.75,34.0266,37.0464,154.322,99.0502,96.3956,0.00981149,0.0995624,20.9493,170.911,0.240834,0.0,0.0
723,180.5,33.6298,36.6776,154.812,99.0244,95.7584,0.00987971,0.0990878,20.9496,170.921,0.297331,0.0,0.0
726,181.25,33.1415,36.5912,151.906,99.004,96.2786,0.00993831,0.0986983,20.9501,170.901,0.24747,0.0,0.0
729,182,32.6404,35.4372,152.498,98.9722,96.575,0.00998414,0.0983399,20.9509,170.901,0.217378,0.0,0.0
732,182.75,32.511,35.5204,152.729,98.9537,96.2483,0.0100164,0.0979269,20.9514,170.891,0.245764,0.0,0.0
735,183.5,32.783,35.6481,150.169,98.9369,96.746,0.0100381,0.0974887,20.9518,170.881,0.198523,0.0,0.0
738,184.25,32.0818,35.4542,157.779,98.9164,96.015,0.0100533,0.0970453,20.9521,170.871,0.263931,0.0,0.0
741,185,31.9881,34.6294,148.35,98.8943,95.9639,0.0100632,0.0967809,20.9523,170.871,0.266666,0.0,0.0
744,185.75,31.6047,34.642,151.99,98.8891,96.0706,0.0100711,0.0966158,20.9525,170.871,0.256348,0.0,0.0
747,186.5,31.6784,34.6436,148.569,98.8666,96.90625,0.010078,0.0965072,20.9526,170.861,0.177549,0.0,0.0
750,187.25,31.7091,34.8882,155.87,98.8356,96.5862,0.0100957,0.0962707,20.9527,170.861,0.204104,0.0,0.0
753,188,30.9987,34.1051,152.108,98.8192,96.4019,0.0101136,0.0960766,20.9528,170.851,0.219561,0.0,0.0
756,188.75,30.9928,33.8417,152.94,98.8192,96.4712,0.0101202,0.0958979,20.9528,170.841,0.213188,0.0,0.0
759,189.5,30.5062,33.8012,151.641,98.7939,96.2225,0.0101102,0.0958228,20.9528,170.831,0.233799,0.0,0.0
762,190.25,31.0279,33.3703,153.991,98.7778,95.9162,0.0101029,0.0958277,20.9529,170.811,0.260628,0.0,0.0
765,191,30.5778,33.2419,152.71,98.7573,96.1009,0.0100272,0.0958933,20.9529,170.811,0.241731,0.0,0.0
768,191.75,30.7439,33.2997,156.179,98.7485,96.6925,0.00997453,0.0958861,20.9529,170.801,0.186532,0.0,0.0
771,192.5,30.5151,32.8363,154.014,98.7372,96.0893,0.00989577,0.0958572,20.9529,170.791,0.241,0.0,0.0
774,193.25,30.1331,32.8059,151.582,98.7167,96.0677,0.00982067,0.0957123,20.9529,170.791,0.241151,0.0,0.0
777,194,30.0483,32.7529,155.54,98.6974,95.9863,0.00976038,0.0955102,20.9529,170.761,0.246932,0.0,0.0
780,194.75,30.1594,32.5877,151.802,98.6782,95.4504,0.00971984,0.0953548,20.9529,170.751,0.294837,0.0,0.0
783,195.5,30.026,32.3288,153.938,98.677,96.1208,0.00971681,0.0951318,20.9529,170.741,0.232678,0.0,0.0
786,196.25,29.3005,32.0369,155.827,98.6593,96.1183,0.0097359,0.0948949,20.9529,170.731,0.231319,0.0,0.0
789,197,29.517,32.4567,154.709,98.6472,95.8576,0.00976687,0.0947772,20.9536,170.721,0.254313,0.0,0.0
792,197.75,29.1818,32.04,154.472,98.6332,96.3832,0.00979847,0.0947222,20.954,170.711,0.204577,0.0,0.0
795,198.5,29.2722,31.5886,151.742,98.6352,96.2479,0.00981392,0.0946944,20.9543,170.711,0.217215,0.0,0.0
798,199.25,29.2535,31.1768,156.731,98.6199,96.3334,0.00982195,0.0945564,20.9546,170.711,0.207969,0.0,0.0
801,200,28.8718,31.0366,152.646,98.6054,96.3844,0.0098101,0.094442,20.9548,170.701,0.201971,0.0,0.0
804,200.75,28.3113,31.4408,150.61,98.6002,96.4035,0.00978661,0.0943744,20.9549,170.681,0.199746,0.0,0.0
807,201.5,28.7964,31.6228,153.666,98.5914,96.2794,0.00975697,0.0943624,20.955,170.671,0.210372,0.0,0.0
810,202.25,28.3272,30.7831,150.906,98.5797,96.0793,0.00972653,0.0943536,20.9551,170.691,0.227769,0.0,0.0
813,203,28.7288,31.1469,154.963,98.5576,95.8224,0.00970123,0.0943472,20.9551,170.671,0.249523,0.0,0.0
816,203.75,28.5486,30.8532,157.844,98.5452,96.7726,0.00968392,0.0943032,20.9551,170.681,0.160922,0.0,0.0
819,204.5,28.1979,30.4928,154.615,98.5532,96.1752,0.00968032,0.0942494,20.9552,170.661,0.21654,0.0,0.0
822,205.25,28.2193,30.7048,155.587,98.5468,95.7838,0.00967895,0.0941731,20.9552,170.651,0.25212,0.0,0.0
825,206,27.5689,30.2023,155.358,98.5259,95.7435,0.00967863,0.0940192,20.9552,170.641,0.253968,0.0,0.0
828,206.75,27.8435,30.0932,153.532,98.5122,96.1466,0.00967094,0.0938636,20.9552,170.631,0.215494,0.0,0.0
831,207.5,27.9354,30.6274,150.578,98.505,95.582,0.00964885,0.0936686,20.9552,170.631,0.267054,0.0,0.0
834,208.25,27.583,30.1886,154.355,98.5058,95.438,0.00962593,0.0935141,20.9552,170.631,0.280497,0.0,0.0
837,209,27.8437,29.753,151.62,98.4865,95.9867,0.00961174,0.0934351,20.9552,170.621,0.227929,0.0,0.0
840,209.75,27.3262,29.6515,153.727,98.4681,95.7821,0.0096058,0.0933831,20.9552,170.611,0.245187,0.0,0.0
843,210.5,27.5078,29.5508,149.99,98.4757,95.4861,0.00960715,0.0932902,20.9559,170.601,0.273313,0.0,0.0
846,211.25,27.6863,29.2515,149.891,98.4693,96.1179,0.00961354,0.0931989,20.9563,170.601,0.214266,0.0,0.0
849,212,27.2772,29.3289,154.831,98.458,95.9427,0.00962072,0.0931324,20.9567,170.601,0.229426,0.0,0.0
852,212.75,27.6914,29.3755,153.438,98.4492,95.4745,0.00962703,0.0931821,20.9569,170.571,0.272005,0.0,0.0
855,213.5,27.087,29.1736,151.21,98.4476,95.6941,0.00963164,0.0932045,20.9571,170.571,0.251492,0.0,0.0
858,214.25,26.7193,29.6926,148.842,98.4403,96.2528,0.00961107,0.093215,20.9572,170.561,0.199227,0.0,0.0
861,215,27.0698,29.128,152.405,98.4311,96.3458,0.00955519,0.093203,20.9573,170.551,0.189834,0.0,0.0
864,215.75,26.7584,28.6351,155.987,98.4194,96.7028,0.00948746,0.0931943,20.9574,170.541,0.155994,0.0,0.0
867,216.5,27.0042,29.0369,153.809,98.4255,96.0117,0.00943557,0.0930503,20.9574,170.531,0.220131,0.0,0.0
870,217.25,26.7763,29.0502,151.674,98.4074,95.543,0.00940396,0.0928867,20.9575,170.521,0.261884,0.0,0.0
873,218,26.71,28.7553,153.97,98.4082,96.1341,0.00939656,0.0926694,20.9575,170.521,0.207273,0.0,0.0
876,218.75,26.8473,28.9105,153.557,98.3929,96.1889,0.00941198,0.0925544,20.9575,170.511,0.200846,0.0,0.0
879,219.5,26.1976,28.6503,153.651,98.3785,95.7431,0.00944275,0.0925448,20.9575,170.511,0.240731,0.0,0.0
882,220.25,26.7598,28.6275,155.47,98.3805,96.0868,0.00948108,0.0925378,20.9575,170.501,0.209141,0.0,0.0
885,221,26.355,28.4055,151.544,98.3757,95.9473,0.00950437,0.0924981,20.9575,170.491,0.221585,0.0,0.0
888,221.75,25.9821,28.2486,151.829,98.3676,96.0254,0.0095134,0.0924057,20.9575,170.471,0.213653,0.0,0.0
891,222.5,26.4602,28.0378,156.536,98.3552,95.736,0.00950378,0.0923775,20.9575,170.471,0.239284,0.0,0.0
894,223.25,26.3314,27.7947,157.62,98.3656,95.8473,0.00949172,0.0923932,20.9575,170.471,0.229929,0.0,0.0
897,224,25.9183,27.6021,153.486,98.3487,95.9523,0.00948077,0.0924666,20.9575,170.461,0.218699,0.0,0.0
900,224.75,25.7723,27.9578,153.721,98.3487,95.6974,0.00948359,0.0925063,20.9575,170.451,0.242282,0.0,0.0
903,225.5,26.1376,27.4806,153.994,98.3359,95.7779,0.00949575,0.0925004,20.9575,170.451,0.233665,0.0,0.0
906,226.25,25.7751,27.3958,152.761,98.3395,95.7954,0.00950891,0.0924466,20.9575,170.441,0.232377,0.0,0.0
909,227,25.9525,27.7145,152.261,98.3339,96.0399,0.00951671,0.0923681,20.9575,170.441,0.20927,0.0,0.0
912,227.75,25.4188,27.1636,155.299,98.3238,95.6845,0.00952239,0.0923384,20.9575,170.431,0.241227,0.0,0.0
915,228.5,25.1054,27.4806,152.625,98.3046,96.3695,0.00949953,0.0923285,20.9575,170.411,0.176251,0.0,0.0
918,229.25,25.9217,27.366,153.086,98.3114,96.0274,0.00946899,0.0923213,20.9575,170.411,0.208391,0.0,0.0
921,230,25.4747,27.5374,153.554,98.3182,95.7505,0.00944015,0.0922292,20.958,170.401,0.234607,0.0,0.0
924,230.75,25.675,27.1438,153.547,98.2841,96.2595,0.00941799,0.0920135,20.9585,170.391,0.18453,0.0,0.0
927,231.5,24.9509,27.4756,151.807,98.2833,95.8622,0.00941083,0.091849,20.9589,170.381,0.221122,0.0,0.0
930,232.25,25.2933,26.9328,155.463,98.2853,96.1208,0.00941444,0.0917167,20.9591,170.381,0.197417,0.0,0.0
933,233,25.2464,27.6892,152.664,98.2792,95.895,0.00942349,0.0915614,20.9593,170.371,0.217727,0.0,0.0
936,233.75,25.5401,26.6352,151.333,98.2817,96.0117,0.00943463,0.0913894,20.9595,170.371,0.207167,0.0,0.0
939,234.5,25.084,27.1444,150.642,98.2539,95.9112,0.0094401,0.0912641,20.9596,170.351,0.213947,0.0,0.0
942,235.25,24.8731,26.4937,151.623,98.2451,96.2587,0.00943954,0.0911726,20.9597,170.331,0.181091,0.0,0.0
945,236,24.6532,26.2841,153.964,98.2463,95.7281,0.00943914,0.091106,20.9597,170.331,0.230196,0.0,0.0
948,236.75,24.6108,26.0036,154.171,98.2371,95.3989,0.00941905,0.0910574,20.9598,170.331,0.259902,0.0,0.0
951,237.5,24.8622,26.6608,150.613,98.233,95.6086,0.00938549,0.091022,20.9598,170.311,0.24008,0.0,0.0
954,238.25,25.2906,26.7087,151.196,98.2174,95.5525,0.00934367,0.0909962,20.9598,170.311,0.243862,0.0,0.0
957,239,24.9037,26.5198,152.115,98.2178,95.9672,0.0092973,0.0908949,20.9598,170.311,0.205506,0.0,0.0
960,239.75,24.6096,26.873,154.136,98.2118,95.6712,0.00924839,0.0907931,20.9598,170.311,0.232346,0.0,0.0
963,240.5,24.8307,26.2871,148.253,98.2065,95.8734,0.00920959,0.0907313,20.9598,170.311,0.213161,0.0,0.0
966,241.25,24.2706,26.5226,152.472,98.1869,95.863,0.00918698,0.0907137,20.9598,170.291,0.212344,0.0,0.0
969,242,24.8745,25.8496,154.673,98.2033,95.839,0.00917846,0.0907054,20.9599,170.291,0.216058,0.0,0.0
972,242.75,24.6174,26.2099,154.335,98.186,95.5592,0.00918585,0.0906869,20.9599,170.281,0.240418,0.0,0.0
975,243.5,24.4467,26.4753,156.456,98.1752,95.3881,0.00919304,0.0907323,20.9599,170.261,0.25532,0.0,0.0
978,244.25,24.2403,26.402,152.063,98.1648,96.015,0.0091882,0.0907437,20.9599,170.261,0.196308,0.0,0.0
981,245,24.3285,26.2864,150.101,98.182,95.8136,0.00916708,0.0907148,20.9599,170.261,0.216479,0.0,0.0
984,245.75,24.6473,25.9124,150.948,98.1732,95.697,0.00912895,0.0907351,20.9599,170.251,0.226479,0.0,0.0
987,246.5,24.5027,25.8253,151.444,98.1599,96.0968,0.00908102,0.0907168,20.9599,170.241,0.188326,0.0,0.0
990,247.25,24.1644,25.8555,152.58,98.1427,95,0.00903748,0.0906168,20.9602,170.231,0.288529,0.0,0.0
993,248,24.4731,26.2151,153.371,98.1531,95.5496,0.00900575,0.0904068,20.9603,170.221,0.238329,0.0,0.0
996,248.75,24.0497,25.332,151.432,98.1491,95.8041,0.0089952,0.0902107,20.9604,170.211,0.214387,0.0,0.0
999,249.5,24.2978,25.5044,152.703,98.1455,95.7659,0.00900904,0.0899944,20.9605,170.201,0.217595,0.0,0.0
1002,250.25,24.2914,25.8345,153.544,98.119,95.6434,0.0090371,0.0898171,20.9606,170.201,0.226543,0.0,0.0
1005,251,23.8061,25.5598,151.677,98.1338,95.7269,0.00906007,0.0896879,20.9606,170.191,0.220156,0.0,0.0
1008,251.75,24.4059,25.5445,153.91,98.1214,95.6048,0.00907723,0.0895936,20.9606,170.191,0.230342,0.0,0.0
1011,252.5,24.0003,25.3431,156.711,98.125,95.7215,0.00908861,0.0895799,20.9607,170.181,0.219857,0.0,0.0
1014,253.25,23.8491,25.7384,152.48,98.1101,95.2366,0.00910768,0.0895933,20.9607,170.171,0.263535,0.0,0.0
1017,254,24.0226,25.1857,151.557,98.1226,95.78,0.00913293,0.0897011,20.9607,170.161,0.21422,0.0,0.0
1020,254.75,24.018,25.4196,148.605,98.1141,95.9955,0.00915617,0.0898209,20.9607,170.161,0.193538,0.0,0.0
1023,255.5,23.9268,25.1595,153.002,98.1069,95.9573,0.00917059,0.0899402,20.9607,170.151,0.196412,0.0,0.0
1026,256.25,23.5224,25.352,154.508,98.0908,96.0943,0.00918003,0.090052,20.9607,170.141,0.182312,0.0,0.0
1029,257,24.1153,24.9854,152.1,98.0864,95.6189,0.00916004,0.0900355,20.9607,170.131,0.225874,0.0,0.0
1032,257.75,23.7239,25.0005,155.01,98.082,95.7049,0.00913619,0.0898723,20.9607,170.121,0.217511,0.0,0.0
1035,258.5,23.8959,24.9549,151.835,98.086,96.2043,0.00910293,0.0896889,20.9606,170.111,0.171733,0.0,0.0
1038,259.25,23.4611,25.3119,155.672,98.0748,96.027,0.00907074,0.0894445,20.9604,170.111,0.187066,0.0,0.0
1041,260,23.7224,25.0368,152.015,98.09,96.0386,0.00903367,0.0892118,20.9611,170.101,0.187374,0.0,0.0
1044,260.75,23.3891,24.8852,157.278,98.0704,95.7995,0.00898152,0.0890299,20.9615,170.091,0.207694,0.0,0.0
1047,261.5,23.6988,25.1265,152.947,98.0611,95.7493,0.00892463,0.0888972,20.9619,170.111,0.211508,0.0,0.0
1050,262.25,23.3291,25.0653,154.284,98.0615,95.956,0.00887512,0.088683,20.9621,170.081,0.192424,0.0,0.0
1053,263,23.4162,24.4274,155.113,98.0651,95.6098,0.0088211,0.0885196,20.9623,170.081,0.224796,0.0,0.0
1056,263.75,23.0741,25.0162,158.933,98.0551,95.4317,0.00878502,0.0883665,20.9625,170.071,0.240417,0.0,0.0
1059,264.5,22.6569,24.0809,157.265,98.0426,95.6978,0.00876438,0.0882178,20.9626,170.071,0.214606,0.0,0.0
1062,265.25,23.4248,24.6791,153.71,98.041,95.7784,0.00875291,0.0881369,20.9626,170.061,0.207003,0.0,0.0
1065,266,23.5037,24.684,151.251,98.0209,95.9199,0.00875117,0.0880896,20.9627,170.051,0.192092,0.0,0.0
1068,266.75,23.5214,24.6805,152.429,98.0338,95.7875,0.00876123,0.0881334,20.9627,170.051,0.205503,0.0,0.0
1071,267.5,23.1274,24.5151,156.376,98.0318,95.1457,0.00879727,0.0881791,20.9627,170.031,0.264921,0.0,0.0
1074,268.25,22.6377,24.1237,153.018,98.033,95.9187,0.00882363,0.0882255,20.9628,170.031,0.193298,0.0,0.0
1077,269,23.4802,24.3932,154.685,98.0133,95.9116,0.0088643,0.0882717,20.9628,170.031,0.19217,0.0,0.0
1080,269.75,23.4808,24.1549,153.328,98.0181,95.504,0.00889528,0.0882641,20.9628,170.021,0.230366,0.0,0.0
1083,270.5,23.3377,24.4593,154.907,98.0177,95.7277,0.00892012,0.0882266,20.9628,170.021,0.209584,0.0,0.0
1086,271.25,22.9514,24.3603,150.563,98.0161,95.3383,0.00893464,0.0881901,20.9628,170.011,0.245574,0.0,0.0
1089,272,22.9139,24.0491,151.242,98.0033,95.868,0.00894145,0.0881263,20.9628,170.011,0.195291,0.0,0.0
1092,272.75,22.6567,23.6682,157.183,98.0141,95.1353,0.00894481,0.0880427,20.9628,170.001,0.264289,0.0,0.0
1095,273.5,23.1805,24.3914,150.697,98.0117,95.685,0.00894007,0.0879131,20.9628,170.001,0.212999,0.0,0.0
1098,274.25,22.4555,23.9205,154.553,98.0209,95.8846,0.00892529,0.0877894,20.9628,169.991,0.195354,0.0,0.0
1101,275,22.9515,23.4702,150.88,98.0093,95.5538,0.00890969,0.0876601,20.9628,169.991,0.224944,0.0,0.0
1104,275.75,23.1858,24.0477,157.865,98.0017,95.8124,0.00889832,0.0876207,20.9628,169.971,0.200291,0.0,0.0
1107,276.5,22.728,24.1676,153.303,98.0008,96.0291,0.00889599,0.0876443,20.9628,169.961,0.18019,0.0,0.0
1110,277.25,22.938,23.8363,150.716,97.9988,95.5106,0.00890448,0.0877109,20.9628,169.951,0.228006,0.0,0.0
1113,278,23.4455,23.9943,151.54,98.0081,95.7344,0.00891571,0.0877007,20.9628,169.941,0.208097,0.0,0.0
1116,278.75,22.4396,24.0368,151.855,97.9948,95.5255,0.00891941,0.0876572,20.9628,169.941,0.226256,0.0,0.0
1119,279.5,23.1071,23.5381,149.505,98.0005,95.9058,0.00891079,0.0875637,20.9634,169.931,0.191544,0.0,0.0
1122,280.25,22.4486,24.1168,152.608,97.9872,95.4417,0.00888297,0.0874594,20.9639,169.931,0.23335,0.0,0.0
1125,281,22.6638,24.1004,158.241,97.9952,95.8826,0.00884885,0.0873216,20.9642,169.911,0.19322,0.0,0.0
1128,281.75,23.0798,24.1669,150.973,97.9812,95.7887,0.00881808,0.0872016,20.9645,169.921,0.200627,0.0,0.0
1131,282.5,22.7086,23.9805,153.193,97.9908,95.4147,0.00878057,0.0870997,20.9647,169.901,0.236184,0.0,0.0
1134,283.25,22.5967,23.7114,152.781,97.9968,95.3811,0.00874678,0.0870007,20.965,169.891,0.239854,0.0,0.0
1137,284,22.5894,23.9597,153.763,97.9836,96.0623,0.00873347,0.0869089,20.9652,169.881,0.175561,0.0,0.0
1140,284.75,22.6249,23.8802,150.926,97.9775,95.4483,0.00873389,0.0868421,20.9654,169.881,0.231861,0.0,0.0
1143,285.5,22.6906,23.7463,148.509,97.9828,95.7572,0.00874324,0.0868912,20.9655,169.871,0.203693,0.0,0.0
1146,286.25,22.6597,23.7003,157.793,97.9836,95.7153,0.00875903,0.086927,20.9656,169.861,0.207648,0.0,0.0
1149,287,22.7216,23.7531,151.381,97.9904,95.6165,0.0087765,0.086953,20.9656,169.85,0.217422,0.0,0.0
1152,287.75,22.979,23.7427,154.684,97.9691,95.7265,0.00879943,0.0869525,20.9657,169.85,0.205302,0.0,0.0
1155,288.5,22.5152,23.7964,150.979,97.9836,96.154,0.00883229,0.0868561,20.9657,169.84,0.167099,0.0,0.0
1158,289.25,22.5577,23.8282,156.918,97.9832,96.0723,,0.0867448,,169.83,0.174607,0.0,0.0
1161,290,22.6852,23.682,156.527,97.9884,95.6933,,0.0866833,,169.83,0.210123,0.0,0.0
1164,290.75,22.2263,23.5274,151.526,97.9695,95.5413,,0.0866817,,169.83,0.222501,0.0,0.0
1167,291.5,22.3687,23.5049,152.768,97.9731,95.6148,,0.0867547,,169.81,0.216014,0.0,0.0
1170,292.25,22.1824,23.5562,151.761,97.9667,95.5525,,,,169.81,0.221207,0.0,0.0
1173,293,22.8033,23.2087,157.417,97.9683,95.868,,,,169.8,0.192129,0.0,0.0
1176,293.75,22.2514,22.9899,154.18,97.9687,96.1042,,,,169.8,0.170349,0.0,0.0
1179,294.5,22.3095,22.8679,152.342,97.9695,95.7381,,,,169.79,0.204262,0.0,0.0
1182,295.25,22.197,23.421,153.209,97.9856,95.6767,,,,169.78,0.211407,0.0,0.0
1185,296,22.6119,23.3547,153.416,97.9659,95.6654,,,,169.78,0.210664,0.0,0.0
1188,296.75,22.6197,22.9087,150.443,97.9679,95.5359,,,,169.78,0.222857,0.0,0.0
1191,297.5,21.7329,23.7135,155.431,97.9575,96.1084,,,,169.76,0.168948,0.0,0.0
1194,298.25,22.2779,23.455,156.788,97.9623,95.8377,,,,169.76,0.194386,0.0,0.0
1197,299,22.4495,23.3239,153.421,97.9699,95.8435,,,,169.75,0.194539,0.0,0.0
1200,299.75,21.7524,23.0904,153.093,97.9607,95.9934,,,,169.75,0.179853,0.0,0.0
1201,300,21.9579,22.2954,155.335,97.9571,95.9701,,,,169.75,0.181672,0.0,0.0