File: 01_Data/Cotton_Rug/Cone/Cotton_Rug_Cone_HF75Scan_220321_R2.csv
Names,Time,Stack TC,Smoke TC,Exh Press,Smoke Comp,Smoke Meas,CO Meter,CO2 Meter,O2 Meter,Sample Mass,Ext Coeff,Start Test,Flame Verif
Chan Gain,,500,500,1,1,1,1,1,1,1,1,1.0,1.0
Offset,,0,0,0.129198,0,0,0,0,0,0,0,0.0,0.0
Gain,,1,1,25.011,13.1874,13.4895,1,1,1,1.00089,1.01187,1.0,1.0
Units,sec,C,C,Pa,%,%,%,%,%,g,/m,,
Baseline,,43.6046,45.3661,125.095,97.9596,92.8384,0.000736154,0.0698688,20.9921,-835.816,0.476673,,
2,0.25,42.4266,44.8013,125.009,99.1855,93.8377,0.000801866,0.077206,20.975,175.787,0.491961,0.0,0.0
4,0.75,42.6219,44.7721,123.864,99.1895,93.9175,0.000814189,0.0771522,20.9747,175.887,0.48477,0.0,0.0
6,1.25,42.2249,44.543,125.616,99.1819,94.1435,0.000824171,0.0771085,20.9744,175.757,0.462752,0.0,0.0
8,1.75,42.4424,44.389,128.262,99.1927,93.7158,0.000867796,0.0770455,20.9737,175.827,0.504142,0.0,0.0
10,2.25,42.5174,44.4696,124.165,99.1823,93.2379,0.000903133,0.0769944,20.9731,175.777,0.548589,0.0,0.0
12,2.75,41.8493,44.5331,124.955,99.1951,91.7036,0.000971014,0.0770918,20.9724,175.747,0.697018,0.0,0.0
14,3.25,42.8319,44.6025,127.015,99.1835,91.5434,0.001026,0.0771706,20.9717,175.767,0.711487,0.0,0.0
16,3.75,42.1977,44.379,125.758,99.1935,91.2199,0.00109639,0.0791636,20.9711,175.697,0.743816,0.0,0.0
18,4.25,42.9393,44.7543,119.757,99.1802,88.9335,0.00117669,0.082514,20.967,175.737,0.96794,0.0,0.0
20,4.75,42.2265,44.4509,127.529,99.1911,88.5992,0.00127798,0.0852279,20.9637,175.627,1.00234,0.0,0.0
22,5.25,42.5442,44.1534,120.673,99.1859,91.9465,0.00139267,0.100165,20.9411,175.557,0.672711,0.0,0.0
24,5.75,42.5705,43.9673,113.312,99.1959,94.2394,0.00152449,0.112264,20.9227,175.537,0.454974,0.0,0.0
26,6.25,42.0862,44.2321,115.101,99.177,93.9496,0.00166629,0.133045,20.8812,175.477,0.480619,0.0,1.0
28,6.75,42.7569,44.5068,110.173,99.2012,94.5486,0.00183187,0.159759,20.8475,175.366,0.42637,0.0,1.0
30,7.25,42.7033,44.3921,109.446,99.1903,93.9109,0.00201164,0.181398,20.7941,175.306,0.485464,0.0,1.0
32,7.75,42.6518,44.2859,110.062,99.1988,93.7969,0.00215725,0.220224,20.7508,175.226,0.497005,0.0,1.0
34,8.25,43.5778,44.6663,105.945,99.177,92.7574,0.00237245,0.260776,20.7054,175.126,0.593974,0.0,1.0
36,8.75,43.6632,45.5053,111.701,99.2016,92.0082,0.00263428,0.301816,20.6594,175.016,0.668157,0.0,1.0
38,9.25,44.6251,45.5139,107.823,99.1843,91.4549,0.00299833,0.34345,20.6128,174.956,0.720145,0.0,1.0
40,9.75,44.4289,46.0357,105.922,99.2036,91.5463,0.00329321,0.384727,20.5666,174.826,0.713008,0.0,1.0
42,10.25,44.7776,46.8849,99.5009,99.1871,90.471,0.0037185,0.418161,20.5196,174.736,0.816404,0.0,1.0
44,10.75,44.9732,47.0639,102.428,99.1996,89.7539,0.00389981,0.464076,20.495,174.596,0.888158,0.0,1.0
46,11.25,45.6276,48.0427,101.753,99.1963,90.0544,0.00430313,0.501268,20.453,174.496,0.8582,0.0,1.0
48,11.75,45.9425,47.5762,98.4445,99.2,88.9833,0.00471379,0.540497,20.4189,174.366,0.964734,0.0,1.0
50,12.25,46.8908,48.5445,100.906,99.1971,88.5399,0.00504643,0.580465,20.3664,174.275,1.00882,0.0,0.0
52,12.75,47.0475,49.3149,100.136,99.2032,86.9636,0.00531587,0.620292,20.3239,174.185,1.1688,0.0,0.0
54,13.25,48.009,50.1536,99.6917,99.1895,86.6833,0.00583002,0.659261,20.2828,174.065,1.19624,0.0,0.0
56,13.75,48.8532,50.7736,101.471,99.2024,85.5805,0.00624649,0.675873,20.2435,173.975,1.31104,0.0,0.0
58,14.25,49.6078,51.6276,100.45,99.1907,85.0029,0.00677092,0.715575,20.2117,173.825,1.3701,0.0,0.0
60,14.75,49.8983,52.0979,99.8657,99.2088,86.5927,0.00719571,0.747734,20.1732,173.735,1.20725,0.0,0.0
62,15.25,50.8513,52.7674,98.9811,99.1839,85.1128,0.00753979,0.782137,20.142,173.615,1.35802,0.0,0.0
64,15.75,51.4883,53.8166,90.7667,99.2024,84.1318,0.00795323,0.817524,20.1094,173.435,1.46258,0.0,0.0
66,16.25,52.4634,54.8866,94.4114,99.1883,82.7132,0.00840937,0.846188,20.0765,173.395,1.61226,0.0,0.0
68,16.75,52.9881,55.7362,95.4456,99.1971,82.9487,0.00888046,0.882946,20.0499,173.195,1.58782,0.0,0.0
70,17.25,53.9571,56.5433,92.6826,99.1947,81.0962,0.0093535,0.912721,20.0078,173.074,1.78808,0.0,0.0
72,17.75,54.6247,57.1011,99.0132,99.1931,83.3072,0.0098415,0.936838,19.9738,172.964,1.54917,0.0,0.0
74,18.25,55.1459,58.5591,99.8886,99.1907,80.9085,0.0103311,0.974394,19.9262,172.814,1.80829,0.0,0.0
76,18.75,56.2522,58.7604,94.8579,99.204,79.9596,0.0108558,1.00481,19.8876,172.644,1.91419,0.0,0.0
78,19.25,56.1857,59.579,91.8521,99.1927,81.5144,0.0113959,1.0391,19.8337,172.494,1.74224,0.0,0.0
80,19.75,57.2617,60.1846,91.788,99.1963,80.0892,0.0119878,1.07555,19.79,172.384,1.89912,0.0,0.0
82,20.25,58.4047,61.6749,90.9644,99.1863,78.6957,0.0126061,1.11348,19.7337,172.194,2.05402,0.0,0.0
84,20.75,59.059,62.706,90.9568,99.1931,77.7773,0.0132373,1.15177,19.6881,172.074,2.15883,0.0,0.0
86,21.25,60.1647,63.7265,87.5037,99.1895,77.6271,0.013866,1.19236,19.6402,171.883,2.17567,0.0,0.0
88,21.75,60.8373,64.7654,94.8182,99.1939,78.6184,0.0143752,1.23387,19.5915,171.773,2.06344,0.0,0.0
90,22.25,61.5503,65.6096,88.3479,99.1839,75.6659,0.0149574,1.27693,19.552,171.583,2.40229,0.0,0.0
92,22.75,62.6488,66.4986,94.3679,99.1975,74.8475,0.0155817,1.32031,19.5,171.373,2.50005,0.0,0.0
94,23.25,63.5825,68.2676,85.407,99.1895,73.5174,0.0160873,1.35544,19.4579,171.213,2.65848,0.0,0.0
96,23.75,64.8288,68.8937,93.2191,99.1947,75.6416,0.0167548,1.40207,19.4132,171.023,2.40612,0.0,0.0
98,24.25,66.2618,69.7565,88.5815,99.1819,73.9883,0.0172955,1.43984,19.3676,170.862,2.60112,0.0,0.0
100,24.75,66.7794,71.167,83.1836,99.1971,73.5038,0.0179781,1.47928,19.3306,170.672,2.6608,0.0,0.0
102,25.25,67.8402,72.456,85.3429,99.1895,71.9428,0.018531,1.51918,19.2854,170.542,2.85066,0.0,0.0
104,25.75,68.8862,73.8256,84.5399,99.1859,71.7283,0.0191169,1.55149,19.2487,170.292,2.87683,0.0,0.0
106,26.25,69.8881,75.5765,84.872,99.1871,71.5196,0.0197158,1.59132,19.2021,170.112,2.9028,0.0,0.0
108,26.75,70.9086,76.8975,85.3727,99.1859,71.6497,0.0202924,1.62359,19.1644,169.972,2.88657,0.0,0.0
110,27.25,72.3258,77.7472,82.418,99.1879,69.9079,0.0208419,1.66021,19.1227,169.771,3.10518,0.0,0.0
112,27.75,72.9468,78.9813,87.7686,99.204,69.5782,0.0213595,1.68988,19.089,169.631,3.14859,0.0,0.0
114,28.25,74.6733,80.0292,85.1467,99.2004,69.9886,0.021844,1.71684,19.0616,169.421,3.09606,0.0,0.0
116,28.75,75.8088,82.2966,79.0901,99.1879,68.2575,0.0222365,1.74132,19.0394,169.261,3.31724,0.0,0.0
118,29.25,76.2708,82.7442,83.4561,99.1911,69.6008,0.0226264,1.76062,19.0215,169.071,3.14455,0.0,0.0
120,29.75,77.8456,84.1223,84.5109,99.1963,69.798,0.023007,1.77577,19.007,168.921,3.11991,0.0,0.0
122,30.25,78.9561,85.5027,87.0557,99.1943,68.6573,0.0233486,1.78615,18.9952,168.731,3.26599,0.0,0.0
124,30.75,79.7544,86.6619,86.9984,99.1871,68.3489,0.0236551,1.79286,18.9874,168.56,3.30529,0.0,0.0
126,31.25,80.6696,87.7681,93.271,99.1943,67.8994,0.0239265,1.79829,18.9812,168.4,3.36452,0.0,0.0
128,31.75,81.5503,88.5077,87.7632,99.1895,69.8556,0.0241672,1.79673,18.9814,168.18,3.11197,0.0,0.0
130,32.25,82.4383,90.2721,91.3255,99.1911,70.3694,0.0243737,1.79546,18.9816,168.02,3.04707,0.0,0.0
132,32.75,83.1553,91.176,89.1478,99.1855,69.7539,0.0245514,1.79444,18.9924,167.86,3.12454,0.0,0.0
134,33.25,84.2586,92.6896,85.0658,99.1883,68.379,0.0246953,1.78532,19.0012,167.68,3.3015,0.0,0.0
136,33.75,84.8874,93.432,83.2691,99.1827,67.503,0.0248147,1.77793,19.0137,167.489,3.41545,0.0,0.0
138,34.25,86.2901,94.279,90.1989,99.1871,68.9969,0.0249113,1.76325,19.0287,167.389,3.22154,0.0,0.0
140,34.75,87.2301,95.3646,86.842,99.1887,67.1201,0.0249456,1.74633,19.0408,167.189,3.46647,0.0,0.0
142,35.25,87.6318,96.0165,89.2425,99.1819,67.8352,0.0249735,1.72809,19.0563,167.139,3.3718,0.0,0.0
144,35.75,88.274,97.0101,95.8189,99.1851,68.9508,0.024996,1.71332,19.0738,166.929,3.2273,0.0,0.0
146,36.25,89.0195,98.1329,89.6096,99.1899,66.2927,0.0250142,1.69005,19.0881,166.749,3.57668,0.0,0.0
148,36.75,89.8412,98.8839,89.7317,99.1983,68.1583,0.0249036,1.67121,19.1062,166.589,3.33109,0.0,0.0
150,37.25,90.5275,99.5092,98.9399,99.1963,68.5313,0.024701,1.64911,19.1268,166.438,3.28247,0.0,0.0
152,37.75,91.3855,100.081,90.295,99.1863,68.1517,0.0244602,1.62508,19.1435,166.298,3.33087,0.0,0.0
154,38.25,91.6393,100.934,92.4772,99.1827,68.6709,0.024196,1.6056,19.1718,166.208,3.26319,0.0,0.0
156,38.75,92.4809,101.188,89.9813,99.1831,70.4888,0.0239005,1.57736,19.1946,166.078,3.03131,0.0,0.0
158,39.25,92.7331,102.119,94.9709,99.1871,68.8223,0.0235878,1.54326,19.2305,165.938,3.24403,0.0,0.0
160,39.75,93.0772,102.761,92.8986,99.1754,68.2271,0.0232426,1.51563,19.2794,165.848,3.32009,0.0,0.0
162,40.25,93.7989,103.295,91.8529,99.1867,69.2385,0.0228802,1.48101,19.337,165.708,3.19048,0.0,0.0
164,40.75,94.203,103.858,96.6409,99.1682,68.9331,0.0224662,1.44194,19.3836,165.598,3.22806,0.0,0.0
166,41.25,94.3452,104.421,102.93,99.1899,69.3238,0.0220224,1.40077,19.4432,165.468,3.17985,0.0,0.0
168,41.75,94.9715,104.559,96.0936,99.1899,70.9474,0.0215142,1.35887,19.4914,165.398,2.97436,0.0,0.0
170,42.25,95.4688,105.014,102.348,99.1919,74.0011,0.0209687,1.31523,19.5519,165.317,2.60048,0.0,0.0
172,42.75,95.4139,105.462,99.9596,99.1742,74.9171,0.0205269,1.27116,19.6008,165.227,2.48971,0.0,0.0
174,43.25,95.4607,105.327,100.838,99.1835,73.8298,0.0199106,1.22494,19.6405,165.157,2.62029,0.0,0.0
176,43.75,95.7688,105.872,104.451,99.1734,75.2126,0.019179,1.17803,19.6957,165.067,2.45469,0.0,0.0
178,44.25,95.6583,106.589,102.577,99.1879,75.9927,0.0185863,1.12851,19.7405,165.037,2.36439,0.0,0.0
180,44.75,96.3588,106.294,106.437,99.1839,78.2083,0.0177034,1.07802,19.7901,164.937,2.10895,0.0,0.0
182,45.25,95.7303,106.011,109.132,99.1766,78.4315,0.0169882,1.03713,19.8422,164.897,2.08302,0.0,0.0
184,45.75,96.1496,106.37,107.36,99.1674,79.8525,0.0162248,0.990796,19.8845,164.867,1.9228,0.0,0.0
186,46.25,95.5384,106.067,107.498,99.1871,82.3369,0.0154408,0.941384,19.9432,164.797,1.65262,0.0,0.0
188,46.75,95.521,105.992,111.237,99.1694,82.1517,0.0146361,0.90136,19.9908,164.737,1.67103,0.0,0.0
190,47.25,95.5694,105.88,108.588,99.1806,83.0808,0.0138315,0.849699,20.0555,164.707,1.57221,0.0,0.0
192,47.75,95.5468,105.917,114.133,99.1702,83.441,0.0130659,0.807854,20.108,164.647,1.53288,0.0,0.0
194,48.25,95.3434,105.705,112.28,99.1835,84.3916,0.0123432,0.760818,20.166,164.587,1.43352,0.0,0.0
196,48.75,95.4183,105.338,111.07,99.1649,83.6921,0.0116626,0.72272,20.2131,164.547,1.50574,0.0,0.0
198,49.25,95.1233,105.152,114.857,99.1814,84.7707,0.0110256,0.686495,20.2623,164.527,1.39355,0.0,0.0
200,49.75,94.5493,105.057,113.033,99.1609,84.2594,0.0105096,0.652325,20.3022,164.477,1.44542,0.0,0.0
202,50.25,94.1129,104.019,114.855,99.1762,84.9037,0.0099762,0.624648,20.3344,164.457,1.37917,0.0,0.0
204,50.75,93.7156,104.066,113.246,99.1641,85.3302,0.00944024,0.594956,20.3699,164.427,1.33362,0.0,0.0
206,51.25,93.7159,104.111,111.792,99.1762,84.6534,0.00894433,0.570906,20.3987,164.397,1.40538,0.0,0.0
208,51.75,93.5891,103.219,110.429,99.1625,85.6982,0.00848703,0.547195,20.4246,164.367,1.29527,0.0,0.0
210,52.25,92.7964,103.385,113.798,99.1758,85.2602,0.00806956,0.527989,20.4478,164.317,1.34195,0.0,0.0
212,52.75,93.0379,102.706,110.974,99.1573,85.5821,0.00768907,0.509806,20.4697,164.307,1.30684,0.0,0.0
214,53.25,92.7686,102.33,113.307,99.1617,86.9451,0.00735045,0.492714,20.4902,164.257,1.16698,0.0,0.0
216,53.75,92.4906,102.259,112.657,99.1585,87.391,0.00704879,0.476634,20.5103,164.206,1.1213,0.0,0.0
218,54.25,91.5276,101.303,116.178,99.1726,87.5766,0.00680444,0.461597,20.5297,164.196,1.10372,0.0,0.0
220,54.75,91.4237,100.949,114.863,99.1593,87.9574,0.0065651,0.449418,20.5476,164.156,1.06402,0.0,0.0
222,55.25,91.3433,101.624,118.992,99.1621,87.1707,0.00637124,0.436101,20.5639,164.116,1.14402,0.0,0.0
224,55.75,91.2331,101.011,115.743,99.1545,87.8063,0.00617652,0.425315,20.5793,164.096,1.07885,0.0,0.0
226,56.25,90.6728,100.624,115.313,99.1573,88.2262,0.0060188,0.413383,20.5936,164.056,1.03676,0.0,0.0
228,56.75,90.1671,100.188,116.594,99.1581,88.2505,0.00589104,0.403717,20.6052,164.006,1.03438,0.0,0.0
230,57.25,89.7873,99.067,113.983,99.1605,88.2884,0.0057575,0.393136,20.6146,163.976,1.03079,0.0,0.0
232,57.75,89.3435,98.9772,117.663,99.1533,88.6642,0.00564932,0.384566,20.626,163.956,0.992437,0.0,0.0
234,58.25,89.4039,98.5659,115.826,99.169,88.9388,0.0055426,0.376063,20.6352,163.936,0.966397,0.0,0.0
236,58.75,89.0118,98.7375,114.918,99.148,88.852,0.00543897,0.367771,20.6426,163.896,0.973197,0.0,0.0
238,59.25,89.11,98.2459,115.605,99.1505,89.2645,0.00535502,0.359484,20.6522,163.856,0.932302,0.0,0.0
240,59.75,88.7895,97.8253,118.118,99.1505,89.1875,0.00525085,0.351358,20.6599,163.856,0.939959,0.0,0.0
242,60.25,88.5295,97.5615,117.256,99.1545,89.5765,0.0051339,0.344775,20.667,163.846,0.901688,0.0,0.0
244,60.75,87.6778,97.4014,115.033,99.1549,90.2669,0.00503918,0.33784,20.6727,163.836,0.833578,0.0,0.0
246,61.25,87.215,96.6862,115.627,99.1448,90.6147,0.00492376,0.330778,20.6797,163.796,0.798538,0.0,0.0
248,61.75,87.2475,96.1056,117.601,99.1428,90.2059,0.00483027,0.325058,20.6875,163.776,0.83849,0.0,0.0
250,62.25,86.6946,96.2613,120.883,99.142,90.4986,0.00472961,0.318944,20.6949,163.766,0.809664,0.0,0.0
252,62.75,86.401,95.6499,119.969,99.1416,90.8473,0.00464807,0.31266,20.702,163.756,0.775496,0.0,0.0
254,63.25,85.9825,95.2491,120.175,99.1388,91.0902,0.00456831,0.30757,20.7094,163.766,0.751544,0.0,0.0
256,63.75,86.0234,94.832,117.652,99.1472,90.336,0.00450371,0.301592,20.7168,163.746,0.826095,0.0,0.0
258,64.25,85.2845,94.4811,118.094,99.1372,91.8802,0.00445138,0.29675,20.7229,163.716,0.674753,0.0,0.0
260,64.75,85.4375,94.0882,119.486,99.1392,91.019,0.00436782,0.291325,20.7316,163.666,0.758523,0.0,0.0
262,65.25,84.8892,93.7798,115.373,99.134,90.828,0.00434534,0.286931,20.7343,163.646,0.776701,0.0,0.0
264,65.75,84.6761,93.0155,119.468,99.1368,90.8909,0.00431154,0.282617,20.7388,163.646,0.770801,0.0,0.0
266,66.25,84.34,93.0082,118.793,99.1263,91.6385,0.00428833,0.278444,20.7442,163.636,0.697156,0.0,0.0
268,66.75,84.0084,92.346,116.549,99.1352,91.4142,0.00428789,0.275063,20.7486,163.626,0.719707,0.0,0.0
270,67.25,83.5027,92.3247,119.535,99.1352,91.6311,0.00430407,0.271082,20.7529,163.616,0.698667,0.0,0.0
272,67.75,83.4882,92.4352,118.932,99.1283,91.5562,0.00433951,0.266482,20.7563,163.596,0.705314,0.0,0.0
274,68.25,83.1697,91.7363,120.789,99.1287,91.9559,0.00438831,0.264786,20.7605,163.576,0.666683,0.0,0.0
276,68.75,82.7324,90.9698,121.179,99.1215,91.7559,0.0044344,0.261886,20.7639,163.556,0.685366,0.0,0.0
278,69.25,82.2908,90.7419,117.522,99.1235,91.5546,0.00447766,0.259087,20.7675,163.536,0.705041,0.0,0.0
280,69.75,82.0465,90.7059,120.278,99.1295,92.2923,0.00450875,0.256414,20.7704,163.526,0.634349,0.0,0.0
282,70.25,81.8864,90.3395,119.669,99.1207,92.2844,0.00453039,0.253865,20.7732,163.516,0.634309,0.0,0.0
284,70.75,81.715,89.7942,119.935,99.1275,91.9596,0.00454791,0.251455,20.7755,163.486,0.666215,0.0,0.0
286,71.25,81.1857,89.3242,117.284,99.1259,92.7632,0.00455225,0.249502,20.7773,163.506,0.588847,0.0,0.0
288,71.75,81.0277,89.5774,119.241,99.1344,92.4129,0.0045469,0.24689,20.7802,163.466,0.623189,0.0,0.0
290,72.25,80.8825,89.0851,121.613,99.1162,92.8826,0.00454519,0.244249,20.7824,163.426,0.576566,0.0,0.0
292,72.75,80.7906,88.8356,121.392,99.1356,92.5594,0.00454617,0.241637,20.7856,163.416,0.609232,0.0,0.0
294,73.25,80.3519,88.3637,116.639,99.1134,92.65,0.00456076,0.239522,20.7882,163.396,0.598569,0.0,0.0
296,73.75,79.9076,88.1934,122.762,99.1219,93.2325,0.004585,0.237183,20.7912,163.366,0.543696,0.0,0.0
298,74.25,79.0927,88.541,120.53,99.1134,93.4536,0.00462766,0.234724,20.7936,163.356,0.521917,0.0,0.0
300,74.75,79.1484,87.6592,118.791,99.1086,93.4494,0.00468293,0.232733,20.7963,163.336,0.521875,0.0,0.0
302,75.25,78.8586,86.959,122.917,99.1062,93.0337,0.0047277,0.23028,20.7991,163.326,0.561239,0.0,0.0
304,75.75,78.7922,87.0085,119.346,99.1106,93.5791,0.00481902,0.228293,20.8015,163.316,0.509747,0.0,0.0
306,76.25,78.4811,86.4384,120.038,99.1098,93.545,0.004893,0.22601,20.8038,163.286,0.512916,0.0,0.0
308,76.75,78.0471,86.4562,121.422,99.1187,93.2263,0.00498453,0.224161,20.8058,163.296,0.543994,0.0,0.0
310,77.25,78.3137,85.9403,116.318,99.1014,93.2115,0.00508714,0.222066,20.8077,163.286,0.543856,0.0,0.0
312,77.75,77.5299,85.7399,121.157,99.1247,93.2214,0.00517025,0.220368,20.8092,163.286,0.545005,0.0,0.0
314,78.25,77.4081,85.3287,117.748,99.1106,93.54,0.00530284,0.218487,20.8104,163.256,0.513457,0.0,0.0
316,78.75,77.0792,85.0727,120.205,99.107,93.9879,0.00541025,0.216963,20.8124,163.226,0.470734,0.0,0.0
318,79.25,76.829,84.6196,120.355,99.1078,93.2119,0.00552967,0.215408,20.8141,163.206,0.544393,0.0,0.0
320,79.75,76.527,84.4288,119.857,99.1154,93.9439,0.00565559,0.21386,20.8163,163.196,0.475651,0.0,0.0
322,80.25,76.1801,84.4735,118.508,99.1062,93.5499,0.00579139,0.212606,20.8181,163.156,0.512124,0.0,0.0
324,80.75,75.6512,83.7929,120.115,99.1146,93.3222,0.00593181,0.210981,20.82,163.116,0.534507,0.0,0.0
326,81.25,74.9234,84.0625,121.012,99.1002,93.7574,0.00607277,0.209665,20.8216,163.126,0.491919,0.0,0.0
328,81.75,75.5449,83.274,121.137,99.1146,93.4445,0.00621145,0.20828,20.8228,163.136,0.522885,0.0,0.0
330,82.25,75.2783,82.664,120.67,99.0941,93.3828,0.00632377,0.206869,20.8247,163.106,0.526914,0.0,0.0
332,82.75,74.4599,82.6213,121.989,99.1231,93.9587,0.00641476,0.205727,20.8263,163.106,0.474936,0.0,0.0
334,83.25,74.5918,82.5725,120.167,99.0981,93.9031,0.00655162,0.204106,20.828,163.055,0.477953,0.0,0.0
336,83.75,74.53,82.6324,120.665,99.1042,93.6046,0.00667978,0.202793,20.8299,163.075,0.50675,0.0,0.0
338,84.25,74.0543,81.923,120.965,99.0949,93.3589,0.00679917,0.201272,20.8319,163.095,0.529256,0.0,0.0
340,84.75,74.0016,81.436,122.229,99.1058,93.7977,0.00689587,0.20004,20.8335,163.075,0.488604,0.0,0.0
342,85.25,73.8556,81.4219,120.424,99.0873,93.1637,0.00700819,0.199042,20.8348,163.055,0.547142,0.0,0.0
344,85.75,73.3563,81.6898,121.208,99.1066,93.3317,0.00712977,0.197673,20.8362,163.035,0.532885,0.0,0.0
346,86.25,72.7859,81.0238,121.616,99.0885,93.568,0.00725962,0.196565,20.8375,163.005,0.508819,0.0,0.0
348,86.75,72.5601,80.6923,118.094,99.1022,93.8204,0.00739304,0.195299,20.8387,162.995,0.486139,0.0,0.0
350,87.25,72.9489,80.0175,120.256,99.0804,93.5972,0.00750111,0.194273,20.8399,162.955,0.505326,0.0,0.0
352,87.75,72.502,79.9093,118.974,99.0969,93.5771,0.00766106,0.193237,20.8411,162.995,0.508717,0.0,0.0
354,88.25,72.0556,79.6564,122.984,99.0828,93.2766,0.00779062,0.192397,20.8422,163.025,0.536006,0.0,0.0
356,88.75,72.0895,79.3573,122.235,99.0877,93.9134,0.00795793,0.191586,20.8432,163.015,0.476042,0.0,0.0
358,89.25,71.9556,79.5373,121.136,99.082,93.8204,0.00809345,0.19081,20.844,162.965,0.484336,0.0,0.0
360,89.75,71.7761,79.3813,118.528,99.1062,94.0315,0.00823341,0.190182,20.8446,162.955,0.466541,0.0,0.0
362,90.25,70.6132,78.4162,123.645,99.074,93.568,0.00837395,0.189306,20.8455,162.975,0.507522,0.0,0.0
364,90.75,71.1173,78.2354,122.589,99.0808,93.4,0.0085248,0.188596,20.8466,162.945,0.524082,0.0,0.0
366,91.25,71.2143,78.7049,119.245,99.0728,93.5149,0.00864698,0.187918,20.8476,162.935,0.512452,0.0,0.0
368,91.75,70.6787,78.2221,120.736,99.0792,92.9534,0.00874596,0.18737,20.8484,162.885,0.566486,0.0,0.0
370,92.25,70.4736,77.338,118.746,99.0663,93.4017,0.0088785,0.186918,20.8491,162.885,0.522626,0.0,0.0
372,92.75,70.6684,78.096,120.936,99.0772,93.2844,0.00898587,0.186544,20.8496,162.895,0.534757,0.0,0.0
374,93.25,69.9358,77.1933,119.446,99.0816,93.8344,0.00910865,0.186118,20.8503,162.865,0.482976,0.0,0.0
376,93.75,69.5565,77.2246,118.309,99.068,93.4322,0.0092081,0.185662,20.8511,162.865,0.519876,0.0,0.0
378,94.25,69.9573,76.8907,120.001,99.0752,93.6314,0.00932194,0.185293,20.8519,162.855,0.501617,0.0,0.0
380,94.75,69.7148,76.7597,118.447,99.0728,94.0089,0.00941414,0.184671,20.8528,162.855,0.465687,0.0,0.0
382,95.25,69.5699,76.3773,120.872,99.0663,93.9937,0.00946762,0.184168,20.8532,162.845,0.466547,0.0,0.0
384,95.75,68.9936,76.3071,118.835,99.0647,94.0443,0.00955905,0.183409,20.8538,162.835,0.461624,0.0,0.0
386,96.25,69.0661,76.293,122.7,99.0672,94.0208,0.00964391,0.182794,20.8544,162.815,0.464054,0.0,0.0
388,96.75,68.9988,75.8151,124.442,99.0643,93.4297,0.00972236,0.18215,20.8548,162.765,0.519787,0.0,0.0
390,97.25,68.2066,75.9002,120.695,99.0623,93.2074,0.009794,0.181628,20.8551,162.775,0.540751,0.0,0.0
392,97.75,68.417,75.6764,121.289,99.0708,92.9493,0.00985932,0.181176,20.8554,162.775,0.566123,0.0,0.0
394,98.25,68.3938,75.3703,122.556,99.0611,93.2885,0.00991223,0.180983,20.8557,162.775,0.532923,0.0,0.0
396,98.75,68.1639,75.0452,118.503,99.0667,93.8813,0.00996458,0.180615,20.8558,162.755,0.477204,0.0,0.0
398,99.25,68.0837,74.918,120.012,99.0599,93.5178,0.0100155,0.180283,20.8558,162.785,0.511024,0.0,0.0
400,99.75,67.4035,74.4201,122.633,99.0651,93.957,0.0100568,0.179959,20.8558,162.745,0.469901,0.0,0.0
402,100.25,67.738,74.1488,115.915,99.0531,93.1465,0.0101171,0.179649,20.8558,162.735,0.545726,0.0,0.0
404,100.75,67.1297,74.0057,119.339,99.0543,93.0806,0.0101769,0.179397,20.8558,162.705,0.552112,0.0,0.0
406,101.25,67.0889,74.2333,122.499,99.0591,93.6261,0.010235,0.178915,20.8562,162.715,0.500683,0.0,0.0
408,101.75,66.7374,73.4143,122.167,99.0563,93.0888,0.0102915,0.178524,20.8566,162.685,0.551508,0.0,0.0
410,102.25,66.8927,73.3231,123.062,99.0567,93.3708,0.0103458,0.178208,20.8573,162.685,0.524696,0.0,0.0
412,102.75,66.7304,73.5495,118.599,99.0462,93.7677,0.0103932,0.177514,20.8579,162.685,0.486112,0.0,0.0
414,103.25,66.4464,73.5678,122.472,99.0515,93.5771,0.0104346,0.176952,20.8593,162.655,0.504643,0.0,0.0
416,103.75,66.1576,72.945,117.628,99.0482,93.5413,0.0104675,0.176263,20.8604,162.665,0.507752,0.0,0.0
418,104.25,66.4627,72.9316,124.089,99.047,93.5738,0.0104935,0.175705,20.8613,162.665,0.504558,0.0,0.0
420,104.75,65.8667,72.8097,119.707,99.0374,93.7195,0.0105146,0.175006,20.862,162.705,0.489879,0.0,0.0
422,105.25,65.7601,72.7165,118.686,99.0486,93.801,0.0105317,0.174439,20.8626,162.655,0.483173,0.0,0.0
424,105.75,65.7346,72.2261,121.067,99.0466,93.736,0.0105381,0.173704,20.8631,162.605,0.48915,0.0,0.0
426,106.25,65.9522,72.2353,125.806,99.0414,93.3334,0.0105366,0.172948,20.864,162.615,0.526888,0.0,0.0
428,106.75,65.49,71.9202,122.311,99.0333,93.3297,0.0105353,0.17219,20.8647,162.625,0.526518,0.0,0.0
430,107.25,65.5555,71.795,122.491,99.0406,93.2626,0.0105228,0.171577,20.8657,162.645,0.533551,0.0,0.0
432,107.75,65.3297,71.6163,120.63,99.0414,93.3646,0.0105126,0.17108,20.8665,162.635,0.523913,0.0,0.0
434,108.25,65.1046,71.1597,122.649,99.0607,92.89,0.0105043,0.170387,20.8672,162.615,0.570884,0.0,0.0
436,108.75,64.8572,71.3833,122.327,99.0297,93.2366,0.0104975,0.169826,20.8677,162.575,0.535047,0.0,0.0
438,109.25,64.6063,71.0623,117.559,99.0341,94.4222,0.0105002,0.169371,20.8685,162.555,0.423286,0.0,0.0
440,109.75,64.6056,70.8636,120.985,99.0341,93.5659,0.0105097,0.168814,20.8694,162.615,0.504146,0.0,0.0
442,110.25,64.4035,70.4213,117.822,99.0313,93.5791,0.0105173,0.168363,20.8701,162.565,0.502644,0.0,0.0
444,110.75,64.4379,71.1273,121.982,99.0325,93.5441,0.0105454,0.167776,20.8711,162.575,0.506071,0.0,0.0
446,111.25,64.0286,70.4076,124,99.0362,93.5363,0.0105574,0.167103,20.8716,162.525,0.507139,0.0,0.0
448,111.75,63.7177,70.4125,124.725,99.0329,93.2432,0.010592,0.166359,20.8723,162.505,0.534708,0.0,0.0
450,112.25,64.0599,70.1617,121.219,99.0386,93.3605,0.01062,0.165578,20.8734,162.485,0.524052,0.0,0.0
452,112.75,63.4799,69.5883,123.995,99.0285,93.7977,0.0106427,0.164801,20.8743,162.475,0.481682,0.0,0.0
454,113.25,63.7819,69.5994,123.559,99.0358,93.1666,0.0106843,0.164041,20.8749,162.485,0.542252,0.0,0.0
456,113.75,63.2634,69.7857,122.214,99.0197,93.589,0.0107179,0.163426,20.8755,162.455,0.500661,0.0,0.0
458,114.25,63.1236,69.7385,122.782,99.0289,93.5762,0.0107748,0.163087,20.876,162.465,0.502701,0.0,0.0
460,114.75,63.2371,69.1698,121.247,99.0177,93.7771,0.0108209,0.162508,20.8763,162.485,0.482656,0.0,0.0
462,115.25,63.0286,69.073,122.215,99.0382,93.498,0.0108891,0.16204,20.8766,162.485,0.510953,0.0,0.0
464,115.75,62.6697,69.0902,121.685,99.0213,93.5515,0.0109444,0.161616,20.8769,162.485,0.504358,0.0,0.0
466,116.25,62.6579,68.3639,123.13,99.0301,93.4988,0.0110434,0.161274,20.8771,162.465,0.510153,0.0,0.0
468,116.75,63.0032,68.5664,123.038,99.0193,93.4947,0.0111235,0.161026,20.8772,162.435,0.50957,0.0,0.0
470,117.25,62.3175,68.4481,122.03,99.0346,93.0036,0.0112272,0.160854,20.8774,162.435,0.557689,0.0,0.0
472,117.75,62.531,68.1095,119.81,99.0112,93.2551,0.0113461,0.160736,20.8775,162.435,0.531624,0.0,0.0
474,118.25,61.9855,67.5308,119.849,99.0253,93.8726,0.0114424,0.160662,20.8775,162.435,0.474306,0.0,0.0
476,118.75,61.5554,67.4122,119.26,99.0269,93.3206,0.0115903,0.160571,20.8776,162.415,0.526803,0.0,0.0
478,119.25,62.3784,67.9469,122.143,99.0181,93.2827,0.0117101,0.160471,20.8777,162.385,0.529612,0.0,0.0
480,119.75,61.6855,67.8081,122.006,99.0185,94.2802,0.0118235,0.160328,20.8777,162.375,0.435241,0.0,0.0
482,120.25,61.5922,67.5008,121.696,99.0261,93.7463,0.0119301,0.160158,20.8776,162.385,0.486336,0.0,0.0
484,120.75,61.4475,67.2841,120.8,99.0144,93.1259,0.0120165,0.159936,20.8775,162.395,0.544224,0.0,0.0
486,121.25,61.4858,66.9705,121.921,99.0193,93.8125,0.0120929,0.159681,20.8774,162.405,0.47945,0.0,0.0
488,121.75,61.4781,66.7706,124.171,99.0052,93.3947,0.0121549,0.159475,20.8773,162.375,0.517809,0.0,0.0
490,122.25,61.5915,67.0966,120.617,99.0181,93.7351,0.0122063,0.159186,20.8773,162.365,0.486666,0.0,0.0
492,122.75,61.309,66.7969,118.975,99.002,93.2708,0.012248,0.158841,20.8772,162.365,0.529305,0.0,0.0
494,123.25,60.9263,66.5689,122.646,99.0108,93.2597,0.0122845,0.158562,20.8772,162.365,0.531157,0.0,0.0
496,123.75,60.4516,66.5646,120.888,98.9947,93.0728,0.0123165,0.158105,20.8776,162.315,0.547518,0.0,0.0
498,124.25,61.002,66.3201,125.78,99.004,93.5116,0.0123515,0.157735,20.8779,162.325,0.506596,0.0,0.0
500,124.75,60.7934,66.5918,119.226,98.9943,93.5248,0.0123799,0.157262,20.8782,162.335,0.50448,0.0,0.0
502,125.25,60.7364,66.3984,121.953,99.0116,93.5585,0.0124124,0.156879,20.8784,162.295,0.502829,0.0,0.0
504,125.75,60.4991,65.846,122.759,98.9871,93.6454,0.0124473,0.156417,20.8791,162.285,0.492391,0.0,0.0
506,126.25,60.6092,65.7959,121.352,98.9983,94.0513,0.0124756,0.155906,20.8796,162.295,0.455012,0.0,0.0
508,126.75,60.7051,65.419,120.604,98.9875,93.5565,0.0125427,0.155364,20.8802,162.275,0.500859,0.0,0.0
510,127.25,60.4111,65.6683,123.483,98.9838,94.139,0.0125971,0.154808,20.8809,162.245,0.445441,0.0,0.0
512,127.75,60.2062,65.969,123.256,98.9726,93.3486,0.012684,0.154229,20.8815,162.235,0.51927,0.0,0.0
514,128.25,60.3296,65.9043,121.615,98.9879,94.1328,0.0127544,0.153645,20.882,162.255,0.446384,0.0,0.0
516,128.75,59.9532,65.5432,122.346,98.9762,93.2502,0.0128114,0.153171,20.8824,162.245,0.528954,0.0,0.0
518,129.25,59.0266,64.5914,120.286,98.9923,93.5314,0.0128815,0.152528,20.8827,162.245,0.503674,0.0,0.0
520,129.75,59.3946,64.7032,118.99,98.9698,92.9933,0.0129599,0.152008,20.883,162.245,0.552861,0.0,0.0
522,130.25,58.9993,65.3118,119.959,98.9822,93.1934,0.0130316,0.151496,20.8832,162.215,0.534905,0.0,0.0
524,130.75,59.3675,64.847,123.208,98.9714,94.0896,0.013097,0.150999,20.8834,162.215,0.44898,0.0,0.0
526,131.25,59.3944,64.9326,122.892,98.9822,93.8051,0.0131501,0.150596,20.8837,162.225,0.476832,0.0,0.0
528,131.75,58.6786,63.8841,121.507,98.9738,93.3745,0.0132243,0.150278,20.8839,162.215,0.516912,0.0,0.0
530,132.25,58.5648,64.1992,121.239,98.9838,93.435,0.0132844,0.150027,20.8841,162.195,0.512063,0.0,0.0
532,132.75,58.6982,64.1106,127.033,98.9718,93.1148,0.0133579,0.149824,20.8843,162.195,0.541459,0.0,0.0
534,133.25,58.6096,63.3129,120.721,98.9746,93.7228,0.0134174,0.149617,20.8844,162.195,0.483939,0.0,0.0
536,133.75,58.3964,63.5539,122.505,98.9702,93.2728,0.0134656,0.14945,20.8845,162.165,0.526258,0.0,0.0
538,134.25,58.4202,63.6613,122.683,98.979,93.4511,0.0135282,0.149314,20.8846,162.205,0.510105,0.0,0.0
540,134.75,58.6962,63.4831,119.507,98.9669,93.3515,0.0135788,0.149204,20.8846,162.185,0.51849,0.0,0.0
542,135.25,58.0877,63.2076,120.491,98.9786,93.284,0.0136407,0.149086,20.8847,162.165,0.525959,0.0,0.0
544,135.75,57.8765,62.6986,122.953,98.9637,93.3173,0.0136909,0.148991,20.8847,162.155,0.52145,0.0,0.0
546,136.25,57.9906,62.8845,119.261,98.9694,93.1333,0.0137472,0.148838,20.8848,162.145,0.539476,0.0,0.0
548,136.75,57.393,63.0062,120.172,98.9641,93.3893,0.0137928,0.148646,20.8848,162.125,0.514638,0.0,0.0
550,137.25,57.8328,62.7783,123.545,98.9537,93.1106,0.0138311,0.148491,20.8848,162.125,0.540226,0.0,0.0
552,137.75,57.6308,62.1874,122.775,98.95,93.3811,0.0138634,0.148135,20.8848,162.125,0.514156,0.0,0.0
554,138.25,57.4845,62.7554,120.85,98.9541,93.3424,0.0138826,0.147847,20.8849,162.115,0.518196,0.0,0.0
556,138.75,57.4093,62.855,122.085,98.9525,93.3972,0.013892,0.147546,20.8849,162.095,0.512846,0.0,0.0
558,139.25,57.8494,62.391,121.889,98.9464,93.2498,0.0138894,0.147241,20.8849,162.115,0.526322,0.0,0.0
560,139.75,57.3137,62.6627,123.344,98.9472,93.2691,0.0138779,0.146948,20.8849,162.105,0.524552,0.0,0.0
562,140.25,57.3575,62.5625,121.167,98.95,94.2452,0.0138686,0.146671,20.8849,162.095,0.4324,0.0,0.0
564,140.75,57.3391,62.4237,122.868,98.9472,93.179,0.0138577,0.14643,20.8849,162.115,0.533137,0.0,0.0
566,141.25,57.1886,61.9165,117.807,98.9476,93.5474,0.0138407,0.146222,20.8849,162.105,0.498145,0.0,0.0
568,141.75,56.7047,62.5471,118.624,98.9488,93.7253,0.0138362,0.146009,20.8849,162.095,0.481395,0.0,0.0
570,142.25,56.9928,61.5932,121.835,98.9347,93.3041,0.0138584,0.145795,20.8848,162.055,0.520105,0.0,0.0
572,142.75,56.8582,61.7763,123.473,98.9468,93.1576,0.0138764,0.145621,20.8847,162.045,0.53514,0.0,0.0
574,143.25,56.8807,61.9251,123.194,98.9323,93.2996,0.013921,0.145495,20.8843,162.035,0.520318,0.0,0.0
576,143.75,56.4847,61.8281,118.706,98.946,93.3243,0.0139571,0.145407,20.8838,162.045,0.519197,0.0,0.0
578,144.25,56.1049,61.0838,124.812,98.9343,93.7323,0.0139926,0.145364,20.8834,162.045,0.479432,0.0,0.0
580,144.75,56.0717,61.1947,124.366,98.9339,93.4795,0.0140269,0.145391,20.8831,162.025,0.503365,0.0,0.0
582,145.25,56.6632,61.2789,118.761,98.9303,93.4453,0.0140512,0.145437,20.8828,162.025,0.506284,0.0,0.0
584,145.75,56.7072,61.3302,124.172,98.9424,92.9682,0.0140679,0.145428,20.8826,162.005,0.552804,0.0,0.0
586,146.25,56.2966,61.1231,122.907,98.9315,93.5408,0.0140696,0.145381,20.8825,161.995,0.497326,0.0,0.0
588,146.75,56.6023,61.271,123.259,98.9343,93.5441,0.0140605,0.145297,20.8823,162.005,0.497266,0.0,0.0
590,147.25,56.333,60.8258,122.188,98.9368,93.298,0.0140532,0.145189,20.8822,161.995,0.520872,0.0,0.0
592,147.75,56.4098,61.0494,124.679,98.9291,93.9525,0.0140245,0.145063,20.8821,162.005,0.458132,0.0,0.0
594,148.25,55.9637,60.2537,118.993,98.9267,93.5857,0.0139809,0.144927,20.882,161.975,0.492635,0.0,0.0
596,148.75,55.4201,60.2183,123.125,98.9283,93.8167,0.013913,0.144787,20.882,161.975,0.470903,0.0,0.0
598,149.25,55.9646,60.4758,123.452,98.9203,93.181,0.013884,0.144646,20.882,161.975,0.530522,0.0,0.0
600,149.75,56.0535,60.6792,124.013,98.9259,94.1225,0.0138126,0.144532,20.8819,161.964,0.441796,0.0,0.0
602,150.25,55.9822,60.4169,122.72,98.9327,93.4445,0.0137349,0.144225,20.8821,161.954,0.506579,0.0,0.0
604,150.75,55.9396,60.62,123.89,98.9271,93.4108,0.013672,0.143976,20.8825,161.954,0.509281,0.0,0.0
606,151.25,55.8607,60.0943,119.618,98.9162,93.7549,0.0135729,0.143639,20.8828,161.944,0.475664,0.0,0.0
608,151.75,55.8334,60.1331,119.883,98.9255,93.4264,0.0134926,0.143244,20.883,161.914,0.50765,0.0,0.0
610,152.25,55.7892,59.8347,122.908,98.9174,93.2654,0.0134276,0.143075,20.8832,161.904,0.522234,0.0,0.0
612,152.75,55.186,60.062,124.081,98.9223,93.2226,0.0133516,0.14263,20.8834,161.894,0.526743,0.0,0.0
614,153.25,55.6358,59.8977,122.393,98.907,92.967,0.0132692,0.142269,20.884,161.904,0.549744,0.0,0.0
616,153.75,55.1978,59.7973,124.085,98.9154,93.4976,0.013188,0.141762,20.8844,161.904,0.499984,0.0,0.0
618,154.25,55.608,59.8156,123.555,98.9017,92.9336,0.0131093,0.141351,20.8848,161.894,0.552459,0.0,0.0
620,154.75,55.1065,59.443,121.664,98.9158,93.7936,0.0130185,0.141019,20.8851,161.864,0.471965,0.0,0.0
622,155.25,55.2267,59.3446,119.95,98.9174,93.5565,0.0129701,0.140435,20.8853,161.864,0.494578,0.0,0.0
624,155.75,54.7308,59.4717,124.059,98.9247,93.7985,0.0128874,0.139962,20.8864,161.894,0.472292,0.0,0.0
626,156.25,55.0763,59.4525,121.914,98.8949,93.2037,0.0128034,0.139466,20.8873,161.884,0.52609,0.0,0.0
628,156.75,55.292,59.0516,120.66,98.9166,93.3515,0.0127199,0.138963,20.8885,161.884,0.513977,0.0,0.0
630,157.25,54.6357,58.7855,118.374,98.8981,93.1489,0.0126367,0.138556,20.8894,161.864,0.531594,0.0,0.0
632,157.75,54.4655,59.0363,122.871,98.9058,93.4742,0.0125551,0.13804,20.8902,161.854,0.501345,0.0,0.0
634,158.25,55.3322,59.0329,122.398,98.8969,93.7611,0.0124768,0.137622,20.8908,161.854,0.473346,0.0,0.0
636,158.75,55.028,59.197,124.313,98.9054,93.3869,0.0124023,0.137231,20.8917,161.844,0.5096,0.0,0.0
638,159.25,55.2897,58.9199,122.885,98.9017,92.9093,0.0123317,0.136867,20.8927,161.804,0.55478,0.0,0.0
640,159.75,54.2454,58.9278,125.567,98.9158,93.6248,0.0122654,0.136513,20.8938,161.804,0.487952,0.0,0.0
642,160.25,54.83,58.9787,125.092,98.8877,93.3815,0.0121961,0.136171,20.8946,161.794,0.50852,0.0,0.0
644,160.75,54.3121,58.9311,120.62,98.9013,93.384,0.01214,0.135857,20.8953,161.794,0.509513,0.0,0.0
646,161.25,54.3471,59.0794,125.723,98.8881,93.4124,0.0120945,0.135569,20.8958,161.804,0.505622,0.0,0.0
648,161.75,54.4804,59.1903,119.224,98.8989,93.2613,0.0120387,0.135275,20.8962,161.814,0.520963,0.0,0.0
650,162.25,54.5782,58.5642,124.422,98.886,93.9542,0.0119763,0.134983,20.8966,161.794,0.454111,0.0,0.0
652,162.75,53.9322,58.3786,119.969,98.9034,93.6228,0.0119257,0.13471,20.8969,161.784,0.487028,0.0,0.0
654,163.25,54.5934,58.2998,119.636,98.8873,93.2885,0.0118525,0.134454,20.8971,161.804,0.517331,0.0,0.0
656,163.75,54.3502,58.4205,119.738,98.8937,94.0797,0.0117932,0.134247,20.8973,161.804,0.442945,0.0,0.0
658,164.25,54.6869,58.4697,120.482,98.8768,93.526,0.0117219,0.133937,20.8979,161.784,0.49382,0.0,0.0
660,164.75,54.4704,58.2565,125.794,98.8917,93.1584,0.0116642,0.133686,20.8984,161.764,0.530114,0.0,0.0
662,165.25,54.451,57.834,120.099,98.8812,93.5705,0.0115877,0.133422,20.899,161.764,0.489998,0.0,0.0
664,165.75,54.1451,58.0201,122.604,98.884,93.5874,0.0115258,0.133155,20.8997,161.754,0.488651,0.0,0.0
666,166.25,54.2443,58.2633,123.61,98.8784,93.787,0.0114408,0.132938,20.9003,161.744,0.469229,0.0,0.0
668,166.75,54.29,58.225,121.872,98.876,93.0917,0.011372,0.132663,20.9008,161.724,0.535062,0.0,0.0
670,167.25,54.2624,57.9047,121.095,98.8784,92.818,0.0112789,0.13244,20.9012,161.714,0.561419,0.0,0.0
672,167.75,53.9264,57.5487,121.368,98.8752,93.5791,0.0112035,0.132132,20.9015,161.704,0.488637,0.0,0.0
674,168.25,53.8329,57.6364,124.026,98.8828,93.5116,0.0111424,0.131882,20.9017,161.704,0.495729,0.0,0.0
676,168.75,54.3073,57.5992,119.632,98.8812,93.3169,0.0110647,0.131466,20.9019,161.714,0.514086,0.0,0.0
678,169.25,53.8743,57.6336,125.036,98.8691,93.5021,0.0110017,0.131129,20.9021,161.724,0.4954,0.0,0.0
680,169.75,54.0949,57.4167,121.308,98.8696,93.517,0.0109352,0.130736,20.9024,161.714,0.49403,0.0,0.0
682,170.25,53.1853,57.5199,123.726,98.8639,93.3152,0.0108814,0.13031,20.903,161.714,0.51269,0.0,0.0
684,170.75,54.1211,57.2986,123.084,98.8671,93.4754,0.0108108,0.129965,20.9034,161.694,0.49776,0.0,0.0
686,171.25,53.9756,57.5256,119.068,98.8619,93.4935,0.0107536,0.129416,20.9046,161.684,0.49557,0.0,0.0
688,171.75,53.8204,57.2795,119.947,98.8635,93.4186,0.0107072,0.128971,20.9056,161.684,0.50283,0.0,0.0
690,172.25,53.6634,57.685,119.247,98.8579,93.3922,0.0106324,0.128355,20.9064,161.664,0.504829,0.0,0.0
692,172.75,53.224,57.3305,119.662,98.8559,93.074,0.0105556,0.127856,20.907,161.654,0.534943,0.0,0.0
694,173.25,53.9281,57.3914,118.226,98.8526,93.2333,0.0104788,0.127325,20.9079,161.644,0.519474,0.0,0.0
696,173.75,53.236,57.3439,123.988,98.8526,93.3646,0.0104166,0.12678,20.9089,161.644,0.506981,0.0,0.0
698,174.25,53.3725,56.831,121.549,98.845,93.8204,0.0103456,0.126235,20.9096,161.634,0.463075,0.0,0.0
700,174.75,53.4333,57.0447,119.122,98.8458,94.0793,0.0102882,0.1257,20.9105,161.644,0.438684,0.0,0.0
702,175.25,52.8879,57.0481,121.904,98.8462,93.3749,0.0102417,0.125267,20.9114,161.624,0.505424,0.0,0.0
704,175.75,53.1831,56.7611,119.425,98.8514,93.5639,0.010204,0.124887,20.9122,161.604,0.48795,0.0,0.0
706,176.25,53.1232,57.2048,125.952,98.8386,92.9443,0.0101376,0.12458,20.9127,161.584,0.545764,0.0,0.0
708,176.75,53.1397,56.1966,123.454,98.8398,93.9212,0.0100838,0.124274,20.9129,161.574,0.453068,0.0,0.0
710,177.25,52.9757,56.7352,120.28,98.8478,93.7829,0.0100312,0.124027,20.9132,161.584,0.466873,0.0,0.0
712,177.75,53.1567,56.5243,122.408,98.8374,93.1675,0.00998868,0.123826,20.9133,161.594,0.524374,0.0,0.0
714,178.25,53.1364,57.0178,123.356,98.8333,93.675,0.0099478,0.123611,20.9135,161.604,0.475786,0.0,0.0
716,178.75,52.7826,56.3187,121.818,98.8301,92.9859,0.0099147,0.123391,20.9136,161.594,0.541036,0.0,0.0
718,179.25,52.7616,57.1355,122.037,98.8361,93.1037,0.0098802,0.123212,20.9137,161.604,0.530345,0.0,0.0
720,179.75,52.4584,56.5606,121.873,98.8317,93.8895,0.00985225,0.123074,20.9138,161.584,0.455341,0.0,0.0
722,180.25,53.1853,56.3791,121.954,98.8353,93.6705,0.00982066,0.12297,20.9138,161.584,0.476395,0.0,0.0
724,180.75,52.8688,56.1057,123.865,98.8265,93.9159,0.00979506,0.122814,20.9139,161.604,0.452381,0.0,0.0
726,181.25,52.2218,56.3894,124.783,98.8378,93.519,0.00976356,0.122688,20.9139,161.594,0.49098,0.0,0.0
728,181.75,52.8966,56.353,120.844,98.8261,93.7747,0.00972834,0.122534,20.914,161.564,0.465701,0.0,0.0
730,182.25,52.4392,56.0452,121.397,98.8446,93.1535,0.00969981,0.122362,20.914,161.544,0.526357,0.0,0.0
732,182.75,52.9796,56.1265,122.596,98.8245,92.7636,0.00965857,0.122163,20.914,161.524,0.561776,0.0,0.0
734,183.25,52.522,55.4304,121.421,98.8345,93.3012,0.00960883,0.121948,20.9145,161.534,0.511383,0.0,0.0
736,183.75,52.2412,55.5876,126.996,98.8204,93.4552,0.00956855,0.121737,20.9149,161.534,0.495483,0.0,0.0
738,184.25,52.7531,55.812,121.361,98.8309,94.0237,0.00951037,0.121532,20.915,161.534,0.442591,0.0,0.0
740,184.75,53.0439,55.6502,121.77,98.8261,93.7343,0.00946324,0.121366,20.9151,161.504,0.469521,0.0,0.0
742,185.25,52.8803,56.0098,124.181,98.8361,93.067,0.00940718,0.121149,20.9156,161.504,0.53384,0.0,0.0
744,185.75,52.4999,55.5843,122.849,98.8313,93.3231,0.00936178,0.1209,20.9161,161.504,0.509018,0.0,0.0
746,186.25,52.0247,55.7641,122.401,98.8321,93.3675,0.00931734,0.12066,20.9164,161.514,0.504863,0.0,0.0
748,186.75,52.5551,55.8162,121.65,98.8245,93.4215,0.00928135,0.120432,20.9167,161.524,0.499052,0.0,0.0
750,187.25,51.6025,54.9334,122.524,98.8293,93.5989,0.00924709,0.120248,20.9169,161.494,0.482644,0.0,0.0
752,187.75,51.9965,55.2667,123.395,98.8144,92.9534,0.00921934,0.119971,20.9171,161.494,0.542731,0.0,0.0
754,188.25,52.3097,55.5123,128.047,98.8281,93.7664,0.00918282,0.119747,20.9173,161.494,0.46666,0.0,0.0
756,188.75,52.1112,55.3701,123.126,98.8192,93.0073,0.00915324,0.119467,20.9174,161.454,0.538017,0.0,0.0
758,189.25,52.4043,55.4181,122.709,98.8213,93.6396,0.00910781,0.11924,20.9175,161.484,0.478057,0.0,0.0
760,189.75,52.0536,55.4968,121.871,98.816,93.4,0.00905167,0.118956,20.9176,161.494,0.500327,0.0,0.0
762,190.25,52.4013,55.863,121.311,98.8305,93.123,0.0089881,0.118727,20.9176,161.474,0.527996,0.0,0.0
764,190.75,52.1598,55.5218,121.001,98.8084,93.4532,0.00892032,0.118485,20.9181,161.434,0.494594,0.0,0.0
766,191.25,51.8089,55.2886,127.336,98.8229,93.7323,0.00886541,0.118289,20.9185,161.444,0.469426,0.0,0.0
768,191.75,51.5394,54.8089,124.226,98.8128,94.167,0.00879038,0.118085,20.9189,161.474,0.427451,0.0,0.0
770,192.25,51.9181,55.4191,125.137,98.8172,92.9517,0.00872961,0.11788,20.9191,161.474,0.543141,0.0,0.0
772,192.75,52.0093,55.5395,121.389,98.808,93.6578,0.00865488,0.117714,20.9194,161.444,0.475147,0.0,0.0
774,193.25,52.0179,55.0708,120.418,98.8209,93.9043,0.00859435,0.117481,20.9195,161.434,0.452965,0.0,0.0
776,193.75,51.4076,55.2573,120.735,98.8044,93.2062,0.00852878,0.117291,20.9198,161.434,0.517724,0.0,0.0
778,194.25,51.5511,54.744,121.038,98.804,93.3585,0.00847568,0.117068,20.92,161.414,0.503194,0.0,0.0
780,194.75,51.2132,54.7383,123.31,98.7995,93.2062,0.00842397,0.116886,20.9202,161.414,0.517289,0.0,0.0
782,195.25,51.5185,55.1675,122.441,98.8301,93.9665,0.00837426,0.116687,20.9204,161.384,0.447923,0.0,0.0
784,195.75,51.6456,55.0174,123.968,98.7971,93.3511,0.008334,0.116479,20.9205,161.374,0.503284,0.0,0.0
786,196.25,51.7139,54.9986,122.372,98.8044,94.1666,0.00828868,0.116289,20.9206,161.384,0.426731,0.0,0.0
788,196.75,51.6784,55.0501,122.498,98.7967,93.8492,0.00824054,0.116116,20.9207,161.354,0.456012,0.0,0.0
790,197.25,51.7805,54.8632,120.011,98.8112,94.2242,0.00819086,0.115908,20.9208,161.364,0.421914,0.0,0.0
792,197.75,51.325,55.1263,120.838,98.7927,93.3087,0.00814099,0.11568,20.9209,161.394,0.506919,0.0,0.0
794,198.25,51.4537,54.7374,121.918,98.8068,93.342,0.0081006,0.115495,20.9209,161.394,0.505013,0.0,0.0
796,198.75,51.7386,54.8891,123.71,98.7903,92.9929,0.00804586,0.115285,20.921,161.394,0.536789,0.0,0.0
798,199.25,51.9373,54.4317,119.441,98.804,93.6857,0.00798168,0.115063,20.9218,161.364,0.472133,0.0,0.0
800,199.75,51.8324,55.0314,120.141,98.7959,93.5301,0.00791436,0.114882,20.9224,161.384,0.486166,0.0,0.0
802,200.25,51.5393,54.8951,119.635,98.8007,93.067,0.00784602,0.114594,20.9238,161.374,0.530659,0.0,0.0
804,200.75,50.9694,54.8658,121.709,98.7887,93.4655,0.00777334,0.114362,20.925,161.364,0.491649,0.0,0.0
806,201.25,51.4303,54.3529,121.551,98.8023,93.7096,0.00769887,0.114173,20.9259,161.354,0.469726,0.0,0.0
808,201.75,51.4899,54.7706,120.489,98.7879,93.8866,0.00762058,0.113781,20.9266,161.354,0.451674,0.0,0.0
810,202.25,51.7459,54.6031,123.784,98.7899,93.4634,0.00754097,0.113463,20.9277,161.344,0.491954,0.0,0.0
812,202.75,51.5407,54.3172,122.479,98.7943,93.8578,0.0074765,0.113064,20.9285,161.374,0.454977,0.0,0.0
814,203.25,51.3741,54.4516,123.075,98.7923,93.3766,0.00742427,0.112741,20.9295,161.354,0.500424,0.0,0.0
816,203.75,51.5037,54.3097,122.516,98.7955,93.3803,0.00736736,0.112395,20.9304,161.314,0.500362,0.0,0.0
818,204.25,51.5689,54.223,124.755,98.787,93.5758,0.00730813,0.112115,20.9311,161.284,0.481034,0.0,0.0
820,204.75,51.4094,54.6048,121.368,98.777,93.3523,0.00726015,0.111846,20.9316,161.284,0.501359,0.0,0.0
822,205.25,51.0785,54.1551,122.153,98.7975,93.7664,0.00722129,0.111628,20.932,161.304,0.463914,0.0,0.0
824,205.75,51.7469,53.9526,124.926,98.7883,93.5791,0.00719313,0.111451,20.9323,161.314,0.48083,0.0,0.0
826,206.25,51.2348,54.3936,122.45,98.7891,93.0979,0.00717332,0.111266,20.9326,161.294,0.526667,0.0,0.0
828,206.75,51.2042,54.0417,119.255,98.7766,93.8109,0.00716193,0.111115,20.9332,161.284,0.457826,0.0,0.0
830,207.25,51.1463,54.2479,123.558,98.7875,92.869,0.0071569,0.11088,20.9337,161.254,0.548371,0.0,0.0
832,207.75,51.3388,54.0346,124.352,98.787,93.0374,0.00715216,0.11069,20.9342,161.244,0.532257,0.0,0.0
834,208.25,51.0611,53.9593,122.014,98.7875,93.5478,0.00714772,0.110461,20.9345,161.264,0.483726,0.0,0.0
836,208.75,51.3967,53.8639,122.619,98.7778,93.2202,0.00714159,0.110209,20.935,161.284,0.514005,0.0,0.0
838,209.25,50.9928,54.3157,122.485,98.7943,93.6368,0.00713663,0.109946,20.9357,161.274,0.475908,0.0,0.0
840,209.75,50.5136,53.9598,121.914,98.7923,93.6742,0.00713261,0.10968,20.9362,161.244,0.472177,0.0,0.0
842,210.25,51.1032,53.7462,124.862,98.779,93.3346,0.00711292,0.109419,20.9366,161.254,0.503222,0.0,0.0
844,210.75,50.7269,53.6803,122.728,98.779,93.7705,0.00709698,0.109168,20.9369,161.244,0.461861,0.0,0.0
846,211.25,50.8228,53.6875,120.176,98.7774,94.2057,0.00706259,0.108921,20.9372,161.214,0.420622,0.0,0.0
848,211.75,50.7752,53.7447,125.016,98.7689,94.0385,0.00703473,0.10868,20.9378,161.224,0.435625,0.0,0.0
850,212.25,51.1083,54.092,122.222,98.7802,93.764,0.00698314,0.108485,20.9384,161.234,0.462592,0.0,0.0
852,212.75,51.0614,53.9361,119.813,98.781,93.4494,0.00694134,0.108243,20.9388,161.224,0.492488,0.0,0.0
854,213.25,51.2652,53.7547,122.324,98.7782,93.1292,0.00689819,0.108047,20.9392,161.224,0.522708,0.0,0.0
856,213.75,50.8332,53.5519,122.726,98.7758,93.3931,0.00685488,0.107851,20.9395,161.214,0.497376,0.0,0.0
858,214.25,50.5509,54.0487,124.847,98.7734,93.1185,0.00681979,0.107659,20.9397,161.194,0.523293,0.0,0.0
860,214.75,51.2918,53.6102,123.585,98.7746,94.1773,0.00679137,0.107474,20.9399,161.184,0.423046,0.0,0.0
862,215.25,50.7969,53.8917,122.563,98.777,93.095,0.00676835,0.107297,20.94,161.164,0.525856,0.0,0.0
864,215.75,50.6985,53.7124,122.541,98.7758,93.5989,0.00675601,0.107139,20.9401,161.174,0.477835,0.0,0.0
866,216.25,50.8148,53.768,120.057,98.7705,93.8414,0.00674601,0.106998,20.9402,161.184,0.454401,0.0,0.0
868,216.75,50.8465,53.3676,124.265,98.7726,93.0835,0.00673791,0.106876,20.9403,161.194,0.526557,0.0,0.0
870,217.25,51.332,53.7315,119.306,98.7633,93.2951,0.00674776,0.106771,20.9404,161.184,0.505572,0.0,0.0
872,217.75,50.7892,53.8221,122.801,98.7649,93.4169,0.00675573,0.106686,20.9404,161.174,0.494131,0.0,0.0
874,218.25,50.5679,53.1956,123.73,98.7766,93.6845,0.00677734,0.106617,20.9405,161.194,0.469791,0.0,0.0
876,218.75,50.67,53.3963,120.772,98.787,93.3856,0.00679484,0.106561,20.9405,161.164,0.499092,0.0,0.0
878,219.25,50.5271,53.4255,123.729,98.7718,93.5544,0.0067964,0.106486,20.9406,161.174,0.481691,0.0,0.0
880,219.75,49.9359,52.9401,125.789,98.7629,93.2127,0.00679766,0.106398,20.9406,161.154,0.513372,0.0,0.0
882,220.25,50.6574,53.5621,123.639,98.7585,92.8896,0.00677596,0.106328,20.9406,161.154,0.5438,0.0,0.0
884,220.75,50.7814,53.3335,122.737,98.7726,93.8047,0.00675839,0.106298,20.9404,161.164,0.458048,0.0,0.0
886,221.25,50.61,53.6093,122.957,98.7609,92.9974,0.00674416,0.106275,20.94,161.164,0.533717,0.0,0.0
888,221.75,50.334,53.3633,121.35,98.775,94.0175,0.00671339,0.106226,20.9397,161.164,0.438149,0.0,0.0
890,222.25,50.7146,52.8656,120.757,98.7601,93.7446,0.00667114,0.10616,20.9396,161.124,0.462616,0.0,0.0
892,222.75,50.7452,53.6174,128.727,98.7714,93.3704,0.00662565,0.106092,20.9395,161.114,0.49913,0.0,0.0
894,223.25,50.2086,52.991,120.582,98.7625,93.2379,0.00657865,0.106023,20.9395,161.134,0.510944,0.0,0.0
896,223.75,50.2633,53.0619,122.698,98.7629,93.3531,0.00654059,0.105967,20.9394,161.134,0.500014,0.0,0.0
898,224.25,50.4894,53.4461,125.398,98.7593,93.4832,0.00648855,0.10593,20.9394,161.134,0.487328,0.0,0.0
900,224.75,50.7036,52.9402,120.831,98.771,93.3367,0.00642732,0.105906,20.9393,161.134,0.502304,0.0,0.0
902,225.25,50.6747,53.2092,123.268,98.7577,92.9834,0.00635915,0.105886,20.9393,161.124,0.534763,0.0,0.0
904,225.75,50.2495,53.2316,125.577,98.7617,93.2243,0.00628722,0.105871,20.9391,161.124,0.512166,0.0,0.0
906,226.25,50.9425,52.9338,123.492,98.7553,93.4663,0.00622896,0.105858,20.9389,161.104,0.488569,0.0,0.0
908,226.75,50.2636,53.023,122.345,98.7661,93.1712,0.00614532,0.105778,20.9387,161.094,0.517621,0.0,0.0
910,227.25,49.9999,52.3918,124.294,98.7557,93.9702,0.00607758,0.105712,20.9385,161.094,0.440884,0.0,0.0
912,227.75,49.4371,52.8464,124.027,98.7625,93.7232,0.00601015,0.105659,20.9383,161.084,0.46486,0.0,0.0
914,228.25,50.1456,52.9997,123.877,98.7581,94.0418,0.00595554,0.105505,20.9382,161.094,0.434337,0.0,0.0
916,228.75,50.5913,53.1909,126.072,98.7637,93.1839,0.00590627,0.10538,20.9381,161.104,0.516189,0.0,0.0
918,229.25,50.0564,53.1128,126.449,98.7585,93.6273,0.00586505,0.105265,20.938,161.084,0.473587,0.0,0.0
920,229.75,50.1835,52.9475,123.107,98.7633,93.1728,0.00583047,0.105172,20.938,161.084,0.517211,0.0,0.0
922,230.25,49.8157,53.086,126.097,98.7436,93.0423,0.00580246,0.105082,20.9379,161.094,0.527879,0.0,0.0
924,230.75,50.309,53.0979,124.43,98.7609,93.3445,0.00577383,0.105009,20.9379,161.084,0.500656,0.0,0.0
926,231.25,49.9049,52.6907,124.865,98.746,94.4934,0.00574529,0.104852,20.9379,161.074,0.39073,0.0,0.0
928,231.75,49.7743,52.4173,121.55,98.7557,93.3782,0.00572217,0.104725,20.9378,161.074,0.496977,0.0,0.0
930,232.25,50.2254,52.8256,124.455,98.7492,93.4248,0.00569591,0.104552,20.938,161.054,0.491977,0.0,0.0
932,232.75,49.9901,52.9861,123.442,98.7516,93.7022,0.00567464,0.104411,20.9384,161.094,0.465872,0.0,0.0
934,233.25,49.7576,52.9753,121.211,98.7432,93.3062,0.00565993,0.104275,20.9387,161.074,0.502706,0.0,0.0
936,233.75,50.2913,52.6878,128.473,98.7561,93.4165,0.00564801,0.104145,20.939,161.034,0.493373,0.0,0.0
938,234.25,50.1238,52.8289,123.111,98.7295,93.447,0.00565592,0.10404,20.9392,161.044,0.488092,0.0,0.0
940,234.75,49.9548,52.3916,120.125,98.7512,93.6347,0.00566233,0.103884,20.9394,161.024,0.472233,0.0,0.0
942,235.25,49.8553,53.2719,119.649,98.7335,93.3235,0.00567285,0.103758,20.9395,161.034,0.500193,0.0,0.0
944,235.75,50.2358,52.9939,125.481,98.752,93.7734,0.00568616,0.1036,20.9396,161.014,0.459164,0.0,0.0
946,236.25,50.3614,52.8182,122.47,98.7585,93.5692,0.00568769,0.103472,20.9397,161.014,0.479092,0.0,0.0
948,236.75,49.708,52.5333,125.15,98.7629,93.456,0.00568061,0.103298,20.9396,161.024,0.490235,0.0,0.0
950,237.25,50.2259,52.4277,120.569,98.7392,92.8949,0.00567488,0.103157,20.9395,161.024,0.541553,0.0,0.0
952,237.75,50.5638,52.7193,124.336,98.7508,93.7244,0.0056256,0.102991,20.9397,161.004,0.463694,0.0,0.0
954,238.25,49.9947,52.6691,122.017,98.7428,93.9504,0.00560564,0.102809,20.9399,161.014,0.441593,0.0,0.0
956,238.75,49.8433,52.6315,121.781,98.7544,92.9958,0.00555106,0.10261,20.9402,161.004,0.533294,0.0,0.0
958,239.25,49.9306,52.6345,121.695,98.7416,93.037,,0.102403,,161.004,0.528209,0.0,0.0
960,239.75,49.7574,52.252,122.892,98.7468,92.9213,,0.102234,,161.004,0.539723,0.0,0.0
962,240.25,49.989,52.6633,123.168,98.7355,93.1292,,0.102047,,160.964,0.518873,0.0,0.0
964,240.75,50.0057,52.562,123.291,98.74,93.7586,,0.101763,,160.944,0.459481,0.0,0.0
966,241.25,49.9332,52.5958,121.334,98.7359,93.2667,,0.101628,,160.964,0.505814,0.0,0.0
968,241.75,50.0258,52.4876,123.714,98.7432,94.1217,,0.101397,,160.964,0.425464,0.0,0.0
970,242.25,50.1684,52.4441,119.158,98.7323,94.0632,,,,160.964,0.430001,0.0,0.0
972,242.75,49.8771,52.3376,122.509,98.7452,93.8014,,,,160.934,0.4559,0.0,0.0
974,243.25,49.852,52.2034,124.71,98.7367,93.4519,,,,160.914,0.488274,0.0,0.0
976,243.75,49.699,52.2912,123.734,98.742,93.1893,,,,160.944,0.513725,0.0,0.0
978,244.25,49.8685,52.335,125.538,98.7392,94.0217,,,,160.954,0.434541,0.0,0.0
980,244.75,49.3636,52.5733,123.297,98.738,93.927,,,,160.934,0.443377,0.0,0.0
982,245.25,49.3751,52.2896,124.014,98.7335,93.3346,,,,160.924,0.499135,0.0,0.0
984,245.75,49.6136,52.5424,123.12,98.7504,93.146,,,,160.924,0.518604,0.0,0.0
986,246.25,49.8187,52.3089,121.732,98.7291,93.2271,,,,160.924,0.508961,0.0,0.0
988,246.75,49.4641,52.2722,123.281,98.744,93.8726,,,,160.934,0.449055,0.0,0.0
990,247.25,49.621,52.4229,122.95,98.7371,93.2012,,,,160.934,0.512154,0.0,0.0
992,247.75,49.9914,52.2349,122.444,98.7408,93.0098,,,,160.934,0.530729,0.0,0.0
994,248.25,50.0603,51.9465,121.886,98.7408,92.9666,,,,160.924,0.534855,0.0,0.0
996,248.75,49.8186,52.235,118.948,98.7396,93.2379,,,,160.904,0.508883,0.0,0.0
998,249.25,49.8647,52.1408,121.914,98.7412,93.1345,,,,160.924,0.51887,0.0,0.0
1000,249.75,49.4533,52.0237,121.778,98.738,93.4075,,,,160.934,0.492606,0.0,0.0
1001,250,49.4443,52.0575,123.161,98.7239,94.2147,,,,160.914,0.414957,0.0,0.0