File: 01_Data/Cotton_Rug/Cone/Cotton_Rug_Cone_HF25Scan_220318_R1.csv
Names,Time,Stack TC,Smoke TC,Exh Press,Smoke Comp,Smoke Meas,CO Meter,CO2 Meter,O2 Meter,Sample Mass,Ext Coeff,Start Test,Flame Verif
Chan Gain,,500,500,1,1,1,1,1,1,1,1,1.0,1.0
Offset,,0,0,0.134026,0,0,0,0,0,0,0,0.0,0.0
Gain,,1,1,25.011,13.1637,13.6028,1,1,1,1.00089,1.01066,1.0,1.0
Units,sec,C,C,Pa,%,%,%,%,%,g,/m,,
Baseline,,20.0366,20.7199,155.568,99.6941,97.9158,0.00060037,0.0521075,21.0078,-833.742,0.1596,,
3,0.5,19.5967,20.1685,155.926,100.013,97.6888,0.000791713,0.0689897,20.9903,184.784,0.208433,0.0,0.0
6,1.25,18.8773,19.919,154.15,100.007,97.7909,0.000788351,0.068529,20.991,184.533,0.198671,0.0,0.0
9,2,18.3783,18.4908,153.741,100.007,97.9897,0.000779721,0.0680462,20.9916,184.634,0.180627,0.0,0.0
12,2.75,17.9076,18.1859,158.074,100.008,98.2122,0.000757929,0.0673645,20.992,184.584,0.160662,0.0,0.0
15,3.5,18.0676,18.7684,155.538,100.002,98.4248,0.000736007,0.0667388,20.9927,184.564,0.140962,0.0,0.0
18,4.25,18.11,18.4126,156.436,100.002,97.8025,0.000721266,0.0660624,20.994,184.644,0.197155,0.0,0.0
21,5,17.8268,18.1036,155.913,99.993,97.837,0.000717038,0.0653249,20.995,184.594,0.193248,0.0,0.0
24,5.75,17.7818,18.7305,154.39,99.9862,97.8253,0.000724823,0.06459,20.996,184.604,0.193696,0.0,0.0
27,6.5,17.9973,18.6982,150.819,99.9898,98.0433,0.000729412,0.0638955,20.997,184.604,0.174288,0.0,0.0
30,7.25,17.8794,18.8205,151.524,99.9858,98.0445,0.000722976,0.0630987,20.9978,184.554,0.173818,0.0,0.0
33,8,18.2669,18.3004,152.616,99.9773,98.0287,0.000703041,0.0622737,20.9984,184.564,0.174498,0.0,0.0
36,8.75,18.2668,18.7624,155.892,99.9769,97.8453,0.000662441,0.0615682,20.9994,184.554,0.191071,0.0,0.0
39,9.5,18.0712,18.8723,149.766,99.9721,97.9266,0.000605321,0.0606742,21.0006,184.533,0.183274,0.0,0.0
42,10.25,17.9443,19.0829,152.914,99.9798,97.9449,0.000556448,0.0597252,21.0019,184.544,0.182299,0.0,0.0
45,11,18.0121,18.9881,155.994,99.9749,97.9901,0.000519004,0.0588017,21.0033,184.523,0.177776,0.0,0.0
48,11.75,17.8115,18.6797,155.702,99.9661,98.2762,0.000493878,0.0579524,21.0042,184.513,0.151152,0.0,0.0
51,12.5,17.8195,18.8701,152.144,99.995,97.8066,0.000497918,0.0572083,21.005,184.503,0.196173,0.0,0.0
54,13.25,18.175,18.5065,154.674,99.9785,98.5817,0.000500863,0.0565805,21.0055,184.493,0.124738,0.0,0.0
57,14,18.2866,18.8916,156.675,99.9657,98.514,0.000563253,0.0559878,21.0058,184.483,0.129686,0.0,0.0
60,14.75,18.3872,18.7323,152.409,99.9625,97.9739,0.000608736,0.0555015,21.006,184.473,0.178136,0.0,0.0
63,15.5,18.1652,18.7596,156.099,99.9617,97.9951,0.000705654,0.0551239,21.0061,184.463,0.176149,0.0,0.0
66,16.25,18.2702,18.8859,153.193,99.9693,97.849,0.000785854,0.0549028,21.0062,184.473,0.190056,0.0,0.0
69,17,18.328,18.6275,152.238,99.9597,98.2143,0.000860644,0.0547647,21.0063,184.453,0.156165,0.0,0.0
72,17.75,18.5398,18.8194,151.402,99.9548,98.3754,0.000899446,0.054722,21.0064,184.443,0.141209,0.0,0.0
75,18.5,18.058,18.847,152.51,99.952,98.1562,0.000907036,0.0546908,21.0064,184.423,0.160735,0.0,0.0
78,19.25,18.1405,18.4994,150.191,99.9669,98.0408,0.000888639,0.054726,21.0064,184.423,0.172483,0.0,0.0
81,20,18.364,18.7182,155.875,99.9617,97.976,0.000823557,0.0547516,21.0065,184.413,0.177877,0.0,0.0
84,20.75,18.4015,19.0672,154.85,99.9693,97.8507,0.000748364,0.0547704,21.0065,184.413,0.189905,0.0,0.0
87,21.5,18.3264,18.6077,158.967,99.9685,97.9333,0.000681719,0.0545909,21.0065,184.413,0.182353,0.0,0.0
90,22.25,18.1198,18.9087,151.071,99.9633,97.7402,0.000602997,0.0543925,21.0065,184.393,0.199381,0.0,0.0
93,23,18.54,18.6556,160.002,99.9633,98.3114,0.00052642,0.054162,21.0065,184.393,0.147721,0.0,0.0
96,23.75,18.3847,18.8301,151.808,99.9589,97.8544,0.000457849,0.0538965,21.0071,184.383,0.18864,0.0,0.0
99,24.5,18.4042,18.6489,154.427,99.9496,98.2853,0.000420522,0.053703,21.007,184.373,0.148867,0.0,0.0
102,25.25,18.2542,19.4169,162.846,99.9524,98.3264,0.000372581,0.0535619,21.0069,184.363,0.145411,0.0,0.0
105,26,18.5599,18.9642,156.259,99.9637,98.3297,0.000327973,0.0533626,21.0068,184.353,0.146108,0.0,0.0
108,26.75,17.9949,19.0195,155.516,99.9609,98.4999,0.00028245,0.0532038,21.0067,184.343,0.130528,0.0,0.0
111,27.5,18.6113,19.1599,154.518,99.944,97.4912,0.000238543,0.0530893,21.0067,184.333,0.220292,0.0,0.0
114,28.25,18.4638,18.6158,154.987,99.9689,98.492,0.000188203,0.0530394,21.0066,184.333,0.131951,0.0,0.0
117,29,18.2755,18.4336,159.336,99.9653,97.8565,0.000147074,0.0529681,21.0065,184.333,0.189022,0.0,0.0
120,29.75,18.2462,19.3677,154.749,99.9577,98.1774,0.000110145,0.0528891,21.0063,184.333,0.159322,0.0,0.0
123,30.5,18.4814,18.8963,155.26,99.9436,97.8461,8.43068e-05,0.0527949,21.0067,184.313,0.188039,0.0,0.0
126,31.25,18.0938,19.208,153.418,99.9544,97.6012,7.02823e-05,0.0526974,21.0071,184.303,0.21122,0.0,0.0
129,32,18.5995,18.9141,155.295,99.9641,97.7693,6.93288e-05,0.052577,21.0073,184.293,0.196817,0.0,0.0
132,32.75,18.4681,18.8193,156.859,99.9512,97.7597,7.17113e-05,0.0524757,21.0075,184.283,0.196543,0.0,0.0
135,33.5,18.5104,19.1593,156.464,99.9589,97.6452,9.23308e-05,0.0523961,21.0076,184.263,0.207615,0.0,0.0
138,34.25,18.1499,19.0604,153.038,99.9568,97.7224,0.000123014,0.052338,21.0077,184.263,0.20043,0.0,0.0
141,35,18.3044,19.4367,154.637,99.9673,97.5323,0.000152054,0.0522764,21.0078,184.263,0.218622,0.0,0.0
144,35.75,18.558,19.5336,154.115,99.9633,97.7398,0.000183531,0.0522045,21.0078,184.253,0.199419,0.0,0.0
147,36.5,18.5227,19.2582,155.558,99.9597,97.5563,0.000206478,0.0521619,21.0079,184.243,0.215757,0.0,0.0
150,37.25,18.3842,18.8843,155.075,99.9605,97.8316,0.000219594,0.0521673,21.0083,184.233,0.190852,0.0,0.0
153,38,18.3428,19.1439,158.284,99.9737,97.6302,0.000227615,0.0521848,21.0095,184.233,0.210291,0.0,0.0
156,38.75,18.6669,19.3568,154.848,99.9717,97.9818,0.00022818,0.0522033,21.0104,184.223,0.178241,0.0,0.0
159,39.5,18.8425,19.0947,156.204,99.9629,97.4613,0.000220162,0.0522025,21.0112,184.213,0.224685,0.0,0.0
162,40.25,18.2912,19.1819,157.165,99.956,97.6223,0.000208823,0.0521777,21.0118,184.203,0.20944,0.0,0.0
165,41,18.1728,19.1852,154.676,99.9769,97.5949,0.000197306,0.0521738,21.0122,184.193,0.21378,0.0,0.0
168,41.75,18.819,19.2278,153.26,99.9721,97.7427,0.000190627,0.052177,21.0125,184.183,0.199939,0.0,0.0
171,42.5,18.7549,19.3552,155.456,99.9653,97.4405,0.000190829,0.0521794,21.0127,184.183,0.226786,0.0,0.0
174,43.25,18.7592,19.0935,156.553,99.9581,97.2483,0.000199645,0.052239,21.0122,184.183,0.24365,0.0,0.0
177,44,18.6776,19.3021,157.336,99.9749,98.1715,0.000230165,0.0523095,21.0119,184.163,0.161378,0.0,0.0
180,44.75,18.8689,19.1637,150.376,99.9741,97.0922,0.000277912,0.0523724,21.0116,184.153,0.259315,0.0,0.0
183,45.5,18.9095,19.54,154.365,99.9705,97.2296,0.000349553,0.0524762,21.0115,184.153,0.246457,0.0,0.0
186,46.25,18.3068,19.363,153.167,99.9625,97.4422,0.000420235,0.052623,21.0113,184.153,0.226386,0.0,0.0
189,47,18.8576,18.6798,153.818,99.9725,97.2529,0.000494143,0.0528518,21.0108,184.143,0.244516,0.0,0.0
192,47.75,18.2793,19.5817,155.888,99.983,96.739,0.000555648,0.0532116,21.0102,184.093,0.292416,0.0,0.0
195,48.5,18.5547,19.1641,153.386,99.9886,96.9959,0.000613526,0.0535957,21.0098,184.103,0.269397,0.0,0.0
198,49.25,18.5458,19.3011,157.93,99.9822,97.162,0.000655719,0.0539918,21.0095,184.093,0.253662,0.0,0.0
201,50,18.5806,19.623,158.535,99.9822,96.69,0.000733007,0.0543902,21.0093,184.103,0.296834,0.0,0.0
204,50.75,18.8504,19.3853,156.875,99.9801,97.0312,0.000806278,0.0548739,21.0091,184.083,0.265424,0.0,0.0
207,51.5,18.9749,19.1907,157.575,99.9761,96.7738,0.000848786,0.0552264,21.0086,184.614,0.288615,0.0,0.0
210,52.25,18.716,19.0549,159.645,99.9822,96.6219,0.000904797,0.0561406,21.0073,187.136,0.303079,0.0,0.0
213,53,18.5789,19.2567,153.56,99.9773,96.8041,0.000935954,0.0570426,21.0058,188.487,0.285947,0.0,0.0
216,53.75,18.1897,19.6395,150.03,99.9914,95.9427,0.000949452,0.058103,21.0043,189.278,0.366433,0.0,0.0
219,54.5,19.0551,19.2283,157.032,100.003,96.4023,0.000950587,0.0589436,21.003,189.878,0.32514,0.0,0.0
222,55.25,18.495,19.4494,162.033,99.9777,97.2433,0.000958668,0.0599934,21.002,190.509,0.24585,0.0,0.0
225,56,18.9393,19.2204,153.74,99.9838,95.626,0.000967652,0.0608932,21.0013,190.789,0.395073,0.0,0.0
228,56.75,18.471,19.3402,155.056,99.9878,96.372,0.00101776,0.0615355,21.0008,191.31,0.326537,0.0,0.0
231,57.5,18.3086,19.2402,151.121,99.9906,96.5837,0.0010907,0.0618622,21.0004,191.41,0.307332,0.0,0.0
234,58.25,18.7604,19.5247,154.808,99.9886,96.279,0.00117439,0.0620424,21.0002,191.52,0.335167,0.0,0.0
237,59,18.6041,19.4673,153.072,99.985,96.0515,0.00123541,0.0619608,21,191.46,0.355818,0.0,0.0
240,59.75,18.5799,19.5038,153.544,99.9946,95.3711,0.00127634,0.0619013,20.9997,191.149,0.419696,0.0,0.0
243,60.5,18.6147,19.0236,155.058,99.9986,95.9955,0.00129255,0.0618192,20.9994,190.849,0.362204,0.0,0.0
246,61.25,18.6699,19.8079,155.274,99.999,95.3524,0.00128366,0.0617594,20.9989,190.899,0.421824,0.0,0.0
249,62,18.8792,19.5477,155.249,99.9962,95.9394,0.00125646,0.0617557,20.9986,190.889,0.367167,0.0,0.0
252,62.75,19.2179,19.9941,154.366,100.004,95.3051,0.00123893,0.0617701,20.9984,190.339,0.426653,0.0,0.0
255,63.5,18.8837,19.572,157.306,100.001,95.2761,0.00121867,0.0615676,20.9983,189.898,0.429107,0.0,0.0
258,64.25,18.9139,19.6066,154.571,100.009,95.032,0.00121238,0.0612572,20.9981,189.748,0.452561,0.0,0.0
261,65,19.0354,19.7569,158.109,100.001,95.1179,0.00122096,0.0608686,20.998,189.608,0.443836,0.0,0.0
264,65.75,18.8514,20.5024,154.826,100.001,94.3499,0.00124356,0.0605588,20.9979,189.378,0.515671,0.0,0.0
267,66.5,18.968,19.3296,153.934,100.01,95.2221,0.00127731,0.0600788,20.9979,189.348,0.434949,0.0,0.0
270,67.25,19.0029,19.4997,151.159,100.024,94.3611,0.0013104,0.0596769,20.996,189.478,0.516718,0.0,0.0
273,68,18.6975,19.6045,153.789,99.9962,94.9386,0.00134452,0.0609132,20.9915,189.198,0.460139,0.0,0.0
276,68.75,19.1073,19.8076,160.133,100.017,94.5222,0.00138986,0.066898,20.9719,188.727,0.500922,0.0,0.0
279,69.5,19.5693,19.8503,148.263,100.017,96.125,0.00143929,0.0787727,20.9436,188.157,0.351853,0.0,0.0
282,70.25,19.3817,19.4911,141.88,100.022,96.1561,0.00147533,0.0965687,20.917,184.764,0.349444,0.0,1.0
285,71,19.7342,19.7964,141.064,100.021,96.5995,0.00155612,0.125799,20.8841,183.453,0.308554,0.0,1.0
288,71.75,19.6223,20.0384,140.205,100.005,96.1528,0.0016645,0.158172,20.8542,183.433,0.348255,0.0,1.0
291,72.5,19.432,20.1443,133.082,100.026,95.2952,0.00178836,0.186488,20.8152,183.302,0.429502,0.0,1.0
294,73.25,20.1993,20.5408,142.638,100.032,95.3391,0.00195677,0.226061,20.7745,183.202,0.42598,0.0,1.0
297,74,20.7323,21.2648,135.001,100.02,94.9087,0.00213684,0.254909,20.7396,183.102,0.465032,0.0,1.0
300,74.75,20.8654,21.8134,138.64,100.012,94.0996,0.00234992,0.291682,20.6973,183.012,0.54022,0.0,1.0
303,75.5,21.803,21.5528,136.082,100.022,93.4391,0.00252972,0.324171,20.6603,182.922,0.603555,0.0,1.0
306,76.25,21.9063,22.2441,133.506,100.021,93.4279,0.00273928,0.352494,20.6307,182.822,0.604511,0.0,1.0
309,77,22.3324,22.8322,135.343,100.025,92.9671,0.00289204,0.378362,20.6022,182.682,0.648736,0.0,1.0
312,77.75,23.2213,23.35,136.634,100.02,92.2913,0.00313448,0.399661,20.5815,182.602,0.71292,0.0,1.0
315,78.5,23.5981,23.8659,133.946,100.026,91.9733,0.00338735,0.420071,20.5595,182.492,0.744052,0.0,1.0
318,79.25,24.2439,24.8863,135.878,100.03,90.9368,0.00365013,0.436802,20.5378,182.382,0.844963,0.0,0.0
321,80,24.4653,24.8749,134.282,100.031,89.9176,0.00392035,0.452166,20.5204,182.312,0.944951,0.0,0.0
324,80.75,25.4343,26.3811,138.428,100.022,88.9678,0.00421727,0.464891,20.505,182.161,1.03831,0.0,0.0
327,81.5,25.4132,26.4807,133.02,100.046,88.6017,0.00447632,0.476776,20.4937,182.031,1.07697,0.0,0.0
330,82.25,26.8254,27.0668,134.481,100.031,89.6499,0.00478148,0.488349,20.4818,181.931,0.971389,0.0,0.0
333,83,27.4225,28.0375,135.433,100.037,88.4381,0.0050842,0.499003,20.4738,181.781,1.09257,0.0,0.0
336,83.75,27.2978,28.2504,133.384,100.029,87.3854,0.00535735,0.507715,20.4683,181.681,1.19799,0.0,0.0
339,84.5,28.1923,29.5008,134.234,100.032,86.1213,0.00559963,0.51757,20.4599,181.591,1.32742,0.0,0.0
342,85.25,28.2996,29.3055,131.841,100.036,86.6107,0.00585005,0.524754,20.4522,181.461,1.2776,0.0,0.0
345,86,29.2543,30.0683,132.767,100.037,86.4401,0.00611783,0.534372,20.4438,181.311,1.29516,0.0,0.0
348,86.75,29.9451,30.8426,136.433,100.046,86.8553,0.00637538,0.542495,20.4333,181.211,1.25347,0.0,0.0
351,87.5,29.878,30.6282,130.081,100.029,87.116,0.00658971,0.550315,20.4239,181.1,1.2254,0.0,0.0
354,88.25,29.9625,31.4774,134.273,100.038,86.4953,0.00687246,0.557934,20.4151,180.96,1.28957,0.0,0.0
357,89,30.8751,32.3871,132.951,100.033,84.3886,0.00719507,0.565072,20.4068,180.87,1.50775,0.0,0.0
360,89.75,31.8913,33.387,133.011,100.029,85.2699,0.0075434,0.571586,20.3982,180.73,1.41529,0.0,0.0
363,90.5,32.4905,33.8146,129.591,100.032,83.5824,0.00790588,0.578313,20.391,180.6,1.59274,0.0,0.0
366,91.25,32.0646,33.6303,135.979,100.037,84.9357,0.0082604,0.584516,20.3842,180.46,1.45077,0.0,0.0
369,92,33.0943,35.0345,126.028,100.04,83.6094,0.0086732,0.590054,20.3785,180.35,1.59056,0.0,0.0
372,92.75,33.791,35.2855,134.277,100.032,82.3449,0.00908298,0.594885,20.3732,180.21,1.72502,0.0,0.0
375,93.5,34.3232,36.0608,135.43,100.029,81.3109,0.00946952,0.598589,20.3693,180.1,1.83677,0.0,0.0
378,94.25,34.9073,36.3824,133.138,100.035,81.3528,0.00982209,0.6016,20.3665,179.989,1.83273,0.0,0.0
381,95,34.9077,36.3702,131.603,100.043,81.5238,0.0101734,0.603987,20.3644,179.849,1.81479,0.0,0.0
384,95.75,35.6843,37.6807,134.701,100.032,81.8551,0.0104906,0.6059,20.3629,179.719,1.77784,0.0,0.0
387,96.5,36.285,37.9162,132.947,100.021,80.8903,0.0107848,0.60745,20.3609,179.589,1.88199,0.0,0.0
390,97.25,36.6615,38.6521,132.93,100.023,80.946,0.0110624,0.608937,20.3591,179.499,1.87611,0.0,0.0
393,98,37.0883,39.0304,129.035,100.036,81.8721,0.0113098,0.610113,20.3578,179.339,1.77635,0.0,0.0
396,98.75,37.1691,39.2913,135.378,100.041,82.2042,0.0115672,0.611126,20.3568,179.229,1.74096,0.0,0.0
399,99.5,37.9226,40.0118,133.819,100.03,80.7911,0.0118242,0.611672,20.3561,179.099,1.89369,0.0,0.0
402,100.25,37.9128,40.2539,133,100.034,80.2652,0.0120244,0.611776,20.3563,178.969,1.95191,0.0,0.0
405,101,38.804,41.395,132.642,100.036,79.7504,0.0121923,0.61135,20.3563,178.858,2.00917,0.0,0.0
408,101.75,39.0308,41.5513,132.557,100.031,80.6072,0.0122871,0.610828,20.3564,178.738,1.91396,0.0,0.0
411,102.5,39.7354,41.9348,133.546,100.032,80.684,0.0123563,0.610489,20.357,178.588,1.90566,0.0,0.0
414,103.25,39.1741,41.7938,136.011,100.029,79.8276,0.0123209,0.610467,20.3578,178.478,1.99998,0.0,0.0
417,104,40.3766,42.5733,132.573,100.035,80.5591,0.012244,0.610743,20.3583,178.378,1.91962,0.0,0.0
420,104.75,40.5868,43.1266,132.96,100.026,81.7534,0.0121661,0.611068,20.3587,178.238,1.78836,0.0,0.0
423,105.5,41.0516,43.6574,131.721,100.026,82.183,0.0121094,0.611003,20.359,178.098,1.74193,0.0,0.0
426,106.25,41.3987,44.1967,134.978,100.02,80.3436,0.0119843,0.610633,20.3595,177.998,1.942,0.0,0.0
429,107,41.3609,44.0045,128.865,100.029,81.1627,0.0118739,0.60981,20.3605,177.898,1.85294,0.0,0.0
432,107.75,41.8732,44.7057,128.674,100.026,81.6292,0.0118118,0.608417,20.3619,177.758,1.8018,0.0,0.0
435,108.5,42.3754,45.1326,129.346,100.028,81.0597,0.0117073,0.607402,20.364,177.647,1.86412,0.0,0.0
438,109.25,42.5989,45.5559,133.157,100.018,80.5973,0.0115894,0.605887,20.3663,177.547,1.91388,0.0,0.0
441,110,43.0765,45.8886,129.815,100.032,81.8704,0.011484,0.602929,20.3711,177.417,1.77618,0.0,0.0
444,110.75,43.2447,46.0224,139.805,100.032,83.3421,0.011374,0.600781,20.376,177.317,1.61827,0.0,0.0
447,111.5,43.6457,46.3882,128.257,100.021,81.936,0.0112502,0.597219,20.38,177.207,1.76812,0.0,0.0
450,112.25,43.7847,46.6366,131.307,100.024,81.4491,0.01116,0.593734,20.3835,177.107,1.82125,0.0,0.0
453,113,43.8849,46.8537,133.188,100.032,82.0552,0.0110599,0.590462,20.3861,176.997,1.75627,0.0,0.0
456,113.75,44.4741,47.3201,132.604,100.026,81.8389,0.010978,0.587136,20.3897,176.867,1.77913,0.0,0.0
459,114.5,45.0059,47.8953,131.862,100.022,81.4184,0.0109145,0.584309,20.395,176.767,1.82438,0.0,0.0
462,115.25,44.3462,47.3901,136.043,100.019,84.4471,0.0108538,0.579228,20.4016,176.667,1.50032,0.0,0.0
465,116,44.537,47.7623,130.693,100.025,82.8128,0.010793,0.573929,20.4091,176.556,1.67411,0.0,0.0
468,116.75,44.9785,47.9586,139.885,100.018,82.7742,0.0107269,0.567339,20.4196,176.456,1.67768,0.0,0.0
471,117.5,44.5878,48.3014,140.912,100.021,83.3504,0.0106537,0.559411,20.429,176.376,1.61643,0.0,0.0
474,118.25,44.8736,48.3822,131.797,100.02,82.6716,0.0105442,0.55184,20.4367,176.276,1.68881,0.0,0.0
477,119,45.0329,48.4036,136.133,100.025,82.699,0.0104418,0.545557,20.446,176.166,1.6863,0.0,0.0
480,119.75,45.2574,48.7695,134.806,100.026,84.5235,0.0103284,0.538309,20.4539,176.066,1.49294,0.0,0.0
483,120.5,45.7738,48.795,138.288,100.019,83.0888,0.0102078,0.530375,20.4617,175.986,1.64407,0.0,0.0
486,121.25,45.617,49.1549,137.195,100.034,83.7721,0.0101,0.523319,20.4711,175.896,1.57285,0.0,0.0
489,122,45.9493,49.2394,140.056,100.021,83.8116,0.00998721,0.515999,20.4789,175.806,1.56751,0.0,0.0
492,122.75,45.9656,49.4227,137.778,100.018,83.5455,0.00981508,0.50839,20.4861,175.706,1.59545,0.0,0.0
495,123.5,46.1696,49.2329,135.807,100.025,84.5808,0.00965445,0.500936,20.4943,175.626,1.48687,0.0,0.0
498,124.25,46.0013,49.5086,136.32,100.011,84.3848,0.00947724,0.4939,20.5027,175.546,1.50615,0.0,0.0
501,125,45.9629,49.5383,137.551,100.017,84.6688,0.00928524,0.486371,20.5108,175.465,1.47693,0.0,0.0
504,125.75,46.1154,49.7777,139.608,100.024,84.0909,0.0091871,0.478745,20.5165,175.375,1.53829,0.0,0.0
507,126.5,46.2145,49.643,139.177,100.022,84.4334,0.00902471,0.471279,20.5268,175.295,1.50204,0.0,0.0
510,127.25,45.4062,49.0914,140.891,100.017,84.4118,0.00885966,0.463033,20.5371,175.225,1.50385,0.0,0.0
513,128,46.2062,49.8757,140.589,100.015,84.0162,0.00869528,0.455825,20.5446,175.135,1.54532,0.0,0.0
516,128.75,46.3787,49.9192,140.518,100.021,85.1682,0.00857545,0.449569,20.5545,175.085,1.42512,0.0,0.0
519,129.5,46.2891,49.8831,137.527,100.019,85.0009,0.00834871,0.442341,20.5656,175.005,1.44241,0.0,0.0
522,130.25,46.0666,49.7376,141.493,100.013,85.2043,0.00811341,0.433567,20.5767,174.895,1.42068,0.0,0.0
525,131,45.9869,49.5981,141.042,100.005,85.7639,0.00787984,0.425676,20.5872,174.865,1.36194,0.0,0.0
528,131.75,45.9757,49.7205,145.148,100.02,85.6995,0.00765453,0.416049,20.6005,174.805,1.36994,0.0,0.0
531,132.5,46.2433,49.4025,142.17,100.014,86.3006,0.00743289,0.406263,20.6132,174.735,1.30744,0.0,0.0
534,133.25,46.1823,49.9614,144.045,100.01,86.4464,0.00724685,0.39722,20.6238,174.665,1.29213,0.0,0.0
537,134,45.6459,49.6907,141.538,100.007,87.3713,0.00699237,0.38862,20.6339,174.595,1.19753,0.0,0.0
540,134.75,45.9333,49.704,143.574,100.016,86.7224,0.0068623,0.379549,20.6398,174.555,1.2644,0.0,0.0
543,135.5,45.1245,49.1317,141.436,100.014,87.4211,0.00659519,0.372108,20.6487,174.495,1.19305,0.0,0.0
546,136.25,45.7026,49.4887,144.21,100.001,88.1131,0.00631379,0.363841,20.658,174.445,1.12197,0.0,0.0
549,137,45.3223,48.8483,144.279,100.002,87.4696,0.00603331,0.356603,20.668,174.385,1.18706,0.0,0.0
552,137.75,45.3407,49.0264,145.619,100.009,89.0513,0.00576323,0.349867,20.6803,174.324,1.02886,0.0,0.0
555,138.5,45.5114,49.4386,143.464,100.028,88.1708,0.00548013,0.341049,20.6914,174.264,1.11863,0.0,0.0
558,139.25,45.1129,48.9347,145.292,100.005,89.6225,0.00520479,0.332848,20.7014,174.224,0.971749,0.0,0.0
561,140,44.6801,49.1081,144.979,100.011,90.1231,0.00497467,0.324615,20.7102,174.194,0.922934,0.0,0.0
564,140.75,44.7492,48.7302,148.156,100.008,90.1132,0.00470984,0.317087,20.7184,174.154,0.923628,0.0,0.0
567,141.5,44.6945,48.5619,147.906,100.016,90.5768,0.00444571,0.31002,20.7251,174.124,0.878874,0.0,0.0
570,142.25,44.5422,47.9126,147.817,100.008,91.7201,0.0042024,0.303281,20.7332,174.064,0.766964,0.0,0.0
573,143,44.5362,48.4898,145.014,99.9958,91.5574,0.00404743,0.296017,20.7387,174.034,0.781603,0.0,0.0
576,143.75,44.0354,47.9549,147.894,100.001,91.9758,0.00386902,0.28972,20.7468,173.994,0.741604,0.0,0.0
579,144.5,44.0441,47.8629,149.632,100.02,92.3544,0.00374007,0.281955,20.7565,173.934,0.70686,0.0,0.0
582,145.25,44.0134,47.6147,148.485,100.003,93.5188,0.00364606,0.274404,20.7647,173.914,0.594323,0.0,0.0
585,146,43.5908,47.3399,147.416,99.9978,94.1735,0.00357302,0.269979,20.7726,173.874,0.532015,0.0,0.0
588,146.75,43.5041,47.4474,148.901,99.9878,92.9684,0.00351206,0.262336,20.7809,173.854,0.645305,0.0,0.0
591,147.5,42.9323,46.8329,145.761,100.003,94.0431,0.0034644,0.255493,20.787,173.794,0.544757,0.0,0.0
594,148.25,43.2427,47.0386,146.953,100,94.6006,0.00342415,0.249962,20.7939,173.774,0.492107,0.0,0.0
597,149,42.1433,46.276,147.023,99.9918,95.477,0.00340354,0.243215,20.8011,173.724,0.409611,0.0,0.0
600,149.75,42.8395,46.9507,149.37,99.9822,95.7252,0.00338851,0.237323,20.8083,173.714,0.385735,0.0,0.0
603,150.5,42.5265,46.5187,148.43,99.9982,94.9589,0.00337755,0.231365,20.8151,173.704,0.458418,0.0,0.0
606,151.25,42.5473,46.3913,153.455,99.9882,95.3142,0.00336957,0.225419,20.8207,173.664,0.424414,0.0,0.0
609,152,42.2624,45.8967,152.4,100.005,95.4591,0.00336374,0.220402,20.826,173.644,0.412445,0.0,0.0
612,152.75,42.1318,45.6598,150.428,99.985,95.8406,0.00336648,0.215075,20.8308,173.614,0.375304,0.0,0.0
615,153.5,41.9047,45.6394,146.234,99.9982,96.4338,0.00338807,0.210142,20.835,173.594,0.321775,0.0,0.0
618,154.25,41.7552,45.3332,150.08,99.9882,96.0602,0.00341216,0.206098,20.8392,173.554,0.355298,0.0,0.0
621,155,41.2754,45.095,148.655,99.9902,96.7755,0.00348611,0.201438,20.843,173.544,0.28971,0.0,0.0
624,155.75,41.4029,45.0724,146.502,99.9818,96.1395,0.00359248,0.196793,20.847,173.524,0.347414,0.0,0.0
627,156.5,40.9071,44.5573,151.248,99.9898,95.9934,0.00371863,0.192523,20.8517,173.504,0.361611,0.0,0.0
630,157.25,40.846,44.67,149.23,99.9898,96.3068,0.00382736,0.187999,20.8548,173.484,0.332713,0.0,0.0
633,158,40.9682,44.7933,152.425,99.9934,95.9988,0.00395298,0.184099,20.8593,173.464,0.361434,0.0,0.0
636,158.75,40.6071,44.1959,147.342,99.9958,95.9207,0.00410774,0.180181,20.8635,173.434,0.368858,0.0,0.0
639,159.5,40.2516,43.926,147.983,100.017,95.2964,0.00428465,0.176474,20.8676,173.434,0.428639,0.0,0.0
642,160.25,39.971,43.725,149.633,99.9914,95.7659,0.00448122,0.174111,20.8717,173.404,0.382789,0.0,0.0
645,161,39.7173,43.0025,146.294,99.993,95.9967,0.00469342,0.170553,20.876,173.394,0.361589,0.0,0.0
648,161.75,39.4896,43.242,151.636,99.9777,96.1134,0.00491066,0.167067,20.8796,173.374,0.349469,0.0,0.0
651,162.5,39.3721,43.2988,149.249,99.9781,97.0308,0.00521387,0.163604,20.883,173.354,0.265284,0.0,0.0
654,163.25,38.7628,42.3466,149.937,99.9958,95.8913,0.00549969,0.159885,20.8864,173.334,0.371582,0.0,0.0
657,164,38.9716,42.5697,151.113,99.9906,97.2566,0.00579013,0.156735,20.8894,173.324,0.245778,0.0,0.0
660,164.75,38.983,42.5825,153.525,99.9858,97.0308,0.00606242,0.153687,20.8921,173.304,0.265961,0.0,0.0
663,165.5,38.3139,42.0121,149.444,99.9826,96.0009,0.00630464,0.150558,20.8952,173.284,0.36028,0.0,0.0
666,166.25,37.8735,41.4873,152.309,99.993,96.6962,0.00652487,0.148018,20.898,173.284,0.297225,0.0,0.0
669,167,38.1118,41.6546,149.661,99.9926,96.6468,0.00672637,0.145722,20.9002,173.264,0.301719,0.0,0.0
672,167.75,37.709,41.0653,148.07,99.9862,96.0772,0.00691147,0.143365,20.903,173.243,0.35355,0.0,0.0
675,168.5,37.5653,41.1646,154.682,99.9902,96.2566,0.00708326,0.141183,20.9053,173.223,0.337374,0.0,0.0
678,169.25,37.3656,40.5903,151.321,100.003,96.6609,0.00729986,0.139395,20.9074,173.203,0.301316,0.0,0.0
681,170,36.5976,40.358,147.027,100.011,96.1723,0.00750623,0.13723,20.9095,173.203,0.346954,0.0,0.0
684,170.75,36.617,39.779,155.479,99.9922,96.2176,0.00766062,0.135408,20.9106,173.183,0.341147,0.0,0.0
687,171.5,36.9152,39.9863,150.914,99.997,96.494,0.00786211,0.133664,20.9119,173.173,0.316137,0.0,0.0
690,172.25,36.6384,40.3063,159.109,100.003,96.932,0.00804855,0.132014,20.9141,173.153,0.276524,0.0,0.0
693,173,36.1829,39.797,149.082,100.007,96.4417,0.00821673,0.130489,20.9161,173.133,0.321798,0.0,0.0
696,173.75,36.3,39.6574,152.295,99.997,96.1885,0.0083494,0.129515,20.9177,173.113,0.344252,0.0,0.0
699,174.5,35.7619,39.3049,152.118,99.9922,96.4421,0.00845039,0.128138,20.9192,173.103,0.320477,0.0,0.0
702,175.25,35.9048,39.0667,156.239,100.005,97.0499,0.00852402,0.126733,20.9206,173.093,0.26589,0.0,0.0
705,176,35.6566,38.9444,152.99,100.001,96.712,0.00854627,0.125584,20.9217,173.083,0.296528,0.0,0.0
708,176.75,34.9855,38.4081,151.971,100.018,96.2516,0.0085491,0.124309,20.9224,173.063,0.340255,0.0,0.0
711,177.5,35.1995,38.4187,152.532,99.995,96.6157,0.00855116,0.123379,20.923,173.063,0.304789,0.0,0.0
714,178.25,35.2048,38.1912,150.334,100.005,96.8344,0.00857277,0.122525,20.9239,173.053,0.28563,0.0,0.0
717,179,35.1391,38.0868,151.486,100.007,96.7286,0.00862727,0.121602,20.9249,173.033,0.295468,0.0,0.0
720,179.75,34.8362,37.8803,152.844,100.004,96.492,0.00869246,0.120733,20.926,173.033,0.316932,0.0,0.0
723,180.5,34.2504,37.7694,153.335,99.9954,96.7954,0.00876149,0.119914,20.9275,173.013,0.288347,0.0,0.0
726,181.25,34.0979,37.7247,150.965,100.002,96.8286,0.00882619,0.119142,20.9286,173.003,0.285876,0.0,0.0
729,182,34.167,37.5265,151.622,100.003,96.5509,0.00887335,0.118301,20.9293,172.983,0.311411,0.0,0.0
732,182.75,34.043,37.1176,151.151,100.003,97.1076,0.00890414,0.117521,20.9299,172.983,0.260442,0.0,0.0
735,183.5,34.1436,37.2091,154.311,100.001,96.8556,0.00893288,0.116808,20.9306,172.963,0.283299,0.0,0.0
738,184.25,33.8351,37.0432,151.906,99.9994,97.3973,0.00895651,0.116163,20.9314,172.963,0.233744,0.0,0.0
741,185,33.6148,36.6878,153.834,100.013,96.7763,0.0089971,0.115512,20.9321,172.953,0.291699,0.0,0.0
744,185.75,33.1192,35.999,147.032,100.005,97.3255,0.00904558,0.114894,20.9327,172.933,0.240817,0.0,0.0
747,186.5,33.6349,36.8617,158.515,99.9962,96.6024,0.00908899,0.114332,20.9336,172.923,0.306116,0.0,0.0
750,187.25,32.8705,36.2415,151.53,99.987,96.6497,0.00912962,0.113724,20.9343,172.923,0.300955,0.0,0.0
753,188,32.8487,35.885,151.656,99.9998,96.5123,0.00914663,0.113192,20.935,172.913,0.314707,0.0,0.0
756,188.75,32.5389,35.739,147.766,100.003,96.4056,0.00915367,0.112655,20.9359,172.903,0.324798,0.0,0.0
759,189.5,32.7312,35.9038,153.681,100.005,97.042,0.0091273,0.112046,20.9366,172.883,0.266647,0.0,0.0
762,190.25,32.4084,35.2904,154.037,99.991,97.5227,0.00908406,0.111602,20.9371,172.863,0.221592,0.0,0.0
765,191,32.1964,35.2375,150.368,100.002,96.7186,0.0090344,0.110942,20.9374,172.853,0.295989,0.0,0.0
768,191.75,31.9469,35.1877,151.168,100.001,97.3197,0.00896949,0.110373,20.9381,172.843,0.24092,0.0,0.0
771,192.5,32.0158,34.8883,149.816,100.006,97.2367,0.00890708,0.109808,20.9388,172.833,0.248948,0.0,0.0
774,193.25,31.9226,34.9017,152.927,99.9942,97.0113,0.0088578,0.109298,20.9393,172.823,0.268492,0.0,0.0
777,194,31.8526,34.6716,151.531,99.9986,96.6356,0.0088264,0.10886,20.9403,172.813,0.303283,0.0,0.0
780,194.75,31.7545,34.4091,149.248,100.017,96.9191,0.00882993,0.108429,20.941,172.813,0.278947,0.0,0.0
783,195.5,31.4396,34.104,151.093,99.9998,97.4144,0.00884376,0.107858,20.9416,172.783,0.23223,0.0,0.0
786,196.25,31.6264,33.9534,158.088,99.9914,97.0881,0.00891555,0.107289,20.9419,172.773,0.261226,0.0,0.0
789,197,30.7466,33.7243,156.274,99.9894,97.365,0.00900946,0.106751,20.9422,172.773,0.235801,0.0,0.0
792,197.75,30.8603,33.9337,151.352,99.9894,96.7307,0.00910401,0.10626,20.9424,172.763,0.293746,0.0,0.0
795,198.5,30.9677,33.5883,154.874,99.987,97.5235,0.00917294,0.105818,20.9432,172.763,0.22116,0.0,0.0
798,199.25,30.7387,33.5114,154.357,99.9798,96.5127,0.0092088,0.105461,20.9436,172.743,0.312888,0.0,0.0
801,200,30.2756,32.8117,150.513,99.9822,97.0441,0.00921856,0.105082,20.9439,172.733,0.264426,0.0,0.0
804,200.75,29.9226,33.0185,154.13,100.017,96.9789,0.00921205,0.104806,20.9441,172.723,0.27348,0.0,0.0
807,201.5,30.5082,32.827,151.248,99.9922,97.536,0.00919596,0.104591,20.9443,172.713,0.220491,0.0,0.0
810,202.25,30.4504,33.0555,156.323,99.9934,97.0046,0.00916986,0.10437,20.9444,172.703,0.269028,0.0,0.0
813,203,29.9248,32.3831,150.104,99.9801,97.0034,0.00915083,0.104109,20.9444,172.693,0.267966,0.0,0.0
816,203.75,30.0368,32.6311,151.174,99.9878,97.1474,0.00912618,0.103682,20.9449,172.693,0.255488,0.0,0.0
819,204.5,29.8641,32.1169,151.804,99.9866,97.504,0.00911198,0.103261,20.9455,172.683,0.222898,0.0,0.0
822,205.25,29.8971,32.3328,154.216,99.9801,97.4492,0.00910325,0.102906,20.9459,172.683,0.227312,0.0,0.0
825,206,29.4891,32.0384,153.825,99.991,96.9473,0.00911125,0.102451,20.9462,172.663,0.274051,0.0,0.0
828,206.75,29.7142,31.9268,152.344,99.9862,97.0764,0.00912717,0.102039,20.9464,172.653,0.261826,0.0,0.0
831,207.5,29.2788,31.7791,156.233,99.9882,97.1188,0.00914307,0.101602,20.9465,172.643,0.258137,0.0,0.0
834,208.25,29.5674,32.151,155.704,99.9769,97.2483,0.00917444,0.101076,20.9466,172.633,0.245325,0.0,0.0
837,209,28.9537,31.3504,151.129,99.9733,97.1578,0.00920235,0.100604,20.947,172.623,0.253258,0.0,0.0
840,209.75,28.6799,31.0773,154.75,99.9826,96.6966,0.00922485,0.0999852,20.9476,172.623,0.296261,0.0,0.0
843,210.5,28.4783,31.1531,154.35,99.9838,96.6837,0.00921856,0.0994372,20.9485,172.613,0.297548,0.0,0.0
846,211.25,28.4913,31.073,154.844,99.9798,97.4318,0.0091854,0.0989966,20.9493,172.603,0.228863,0.0,0.0
849,212,28.5571,30.6204,153.031,99.9653,96.9527,0.00915252,0.0985966,20.9499,172.583,0.271277,0.0,0.0
852,212.75,28.954,30.9925,150.487,99.9818,96.5318,0.00912741,0.0982224,20.9504,172.583,0.311313,0.0,0.0
855,213.5,28.1002,30.1563,153.271,99.9777,97.1632,0.00913066,0.0979143,20.9507,172.583,0.253157,0.0,0.0
858,214.25,28.2835,30.7846,151.893,99.9769,97.2873,0.0091463,0.0975324,20.9512,172.573,0.241767,0.0,0.0
861,215,28.4084,30.6959,154.033,99.9653,97.2985,0.00918968,0.0971713,20.9519,172.553,0.239713,0.0,0.0
864,215.75,28.2287,30.5632,155.705,99.9536,97.299,0.0092372,0.0968438,20.9524,172.553,0.238643,0.0,0.0
867,216.5,28.1811,30.3428,152.715,99.9814,96.9079,0.00927183,0.0965554,20.9528,172.543,0.276803,0.0,0.0
870,217.25,27.8294,30.4427,156.59,99.9729,97.0071,0.00930591,0.0963452,20.9531,172.543,0.266983,0.0,0.0
873,218,27.8522,30.0508,154.078,99.9645,97.3247,0.00933452,0.0961506,20.9533,172.523,0.23726,0.0,0.0
876,218.75,27.6494,30.1309,154.541,99.9597,96.7593,0.00935538,0.0959912,20.9535,172.533,0.288485,0.0,0.0
879,219.5,27.9016,29.9873,157.862,99.9693,97.1918,0.00937238,0.0957374,20.9536,172.513,0.249797,0.0,0.0
882,220.25,27.8512,29.695,154.357,99.9777,97.5314,0.00938478,0.0955741,20.9537,172.513,0.219624,0.0,0.0
885,221,27.9829,30.1225,150.674,99.9577,96.648,0.00939508,0.0954923,20.9537,172.503,0.298507,0.0,0.0
888,221.75,27.6144,29.5924,150.08,99.9504,97.2014,0.00940843,0.095474,20.9536,172.493,0.24725,0.0,0.0
891,222.5,27.0167,29.1553,154.558,99.9649,96.9918,0.00942726,0.0954855,20.9531,172.483,0.267674,0.0,0.0
894,223.25,27.4698,29.6285,156.062,99.9753,97.5451,0.00946979,0.0955063,20.9524,172.473,0.218165,0.0,0.0
897,224,27.4522,29.5749,154.129,99.9773,96.9282,0.00950079,0.0955215,20.9519,172.443,0.274586,0.0,0.0
900,224.75,27.2766,29.5184,154.576,99.9432,97.0387,0.00954861,0.0956504,20.9516,172.443,0.261463,0.0,0.0
903,225.5,27.1202,29.3052,153.562,99.9641,97.0918,0.00956579,0.0958231,20.9511,172.443,0.258463,0.0,0.0
906,226.25,26.7788,28.9676,150.535,99.9492,97.2657,0.00957078,0.0959852,20.9503,172.433,0.241277,0.0,0.0
909,227,27.0903,29.2033,153.169,99.9432,97.5688,0.00952581,0.0961654,20.9497,172.433,0.213164,0.0,0.0
912,227.75,26.8254,28.7384,153.431,99.936,96.7352,0.0094844,0.0962967,20.9493,172.423,0.28859,0.0,0.0
915,228.5,26.5392,28.4133,153.365,99.94,96.6771,0.00943945,0.0963335,20.949,172.413,0.294274,0.0,0.0
918,229.25,26.4189,28.6596,154.19,99.9332,96.8955,0.00939949,0.096319,20.9488,172.413,0.273667,0.0,0.0
921,230,26.6859,28.6897,155.953,99.9315,96.9772,0.0093691,0.0962908,20.9487,172.413,0.266045,0.0,0.0
924,230.75,26.571,28.8113,154.586,99.9243,97.2118,0.00934641,0.0960344,20.9492,172.393,0.243987,0.0,0.0
927,231.5,26.4404,28.4853,150.712,99.9263,96.5131,0.00932104,0.0956822,20.9498,172.383,0.308111,0.0,0.0
930,232.25,26.1817,27.9782,154.229,99.9327,96.844,0.00929945,0.095355,20.9506,172.393,0.278343,0.0,0.0
933,233,25.193,27.4968,150.363,99.9452,97.196,0.00928921,0.0949398,20.951,172.383,0.247279,0.0,0.0
936,233.75,26.0021,27.4161,152.645,99.9235,97.2475,0.00927485,0.0945791,20.9518,172.363,0.240661,0.0,0.0
939,234.5,26.0282,27.6139,152.667,99.9235,97.2745,0.00926398,0.0942171,20.9527,172.363,0.238202,0.0,0.0
942,235.25,25.0849,27.5067,154.675,99.9344,97.4808,0.00925719,0.0938293,20.9534,172.363,0.22038,0.0,0.0
945,236,25.4195,27.0023,152.599,99.9307,96.7082,0.00925763,0.0935652,20.9539,172.353,0.2906,0.0,0.0
948,236.75,25.2517,27.4328,153.814,99.9143,97.8033,0.009263,0.0932228,20.9542,172.343,0.189313,0.0,0.0
951,237.5,25.2115,27.2519,155.743,99.9078,97.4168,0.00926906,0.0929732,20.9545,172.333,0.223844,0.0,0.0
954,238.25,24.8259,26.9128,154.465,99.9135,96.7917,0.00925205,0.0927913,20.9547,172.333,0.281421,0.0,0.0
957,239,25.3723,26.7539,153.027,99.9034,97.0055,0.00923051,0.0926225,20.9548,172.333,0.26097,0.0,0.0
960,239.75,25.3018,27.0314,152.78,99.8966,97.2147,0.00917528,0.0924375,20.9549,172.333,0.241263,0.0,0.0
963,240.5,25.3576,26.8011,151.149,99.9014,97.7971,0.00912747,0.0922881,20.955,172.323,0.188735,0.0,0.0
966,241.25,25.0725,26.9655,153.972,99.8986,97.5028,0.00909005,0.0921545,20.955,172.313,0.215207,0.0,0.0
969,242,24.9328,26.8758,154.172,99.9002,96.9577,0.00906391,0.0920434,20.9551,172.303,0.265048,0.0,0.0
972,242.75,25.1837,26.7268,152.04,99.8906,97.1835,0.00904665,0.0919565,20.9551,172.303,0.243568,0.0,0.0
975,243.5,24.6184,26.4394,153.063,99.8938,96.9523,0.00903406,0.0918539,20.9551,172.293,0.264971,0.0,0.0
978,244.25,24.8207,26.3146,154.495,99.8797,97.5132,0.00904106,0.0916811,20.9556,172.273,0.212588,0.0,0.0
981,245,25.0222,26.1221,150.025,99.8829,96.7771,0.00904615,0.0914863,20.9561,172.263,0.280042,0.0,0.0
984,245.75,24.7695,26.2922,152.318,99.8729,97.1927,0.00909659,0.0913151,20.9565,172.263,0.241166,0.0,0.0
987,246.5,24.6133,26.498,154.026,99.8596,96.9204,0.00915732,0.0911352,20.9567,172.263,0.264863,0.0,0.0
990,247.25,24.5663,26.3939,153.455,99.8665,96.9835,0.00921181,0.0909807,20.9569,172.263,0.2597,0.0,0.0
993,248,24.5319,25.7606,151.888,99.8608,96.8643,0.00926052,0.0907896,20.9571,172.253,0.270099,0.0,0.0
996,248.75,24.5879,26.5556,155.023,99.8556,97.2006,0.00927445,0.0906431,20.9572,172.243,0.238913,0.0,0.0
999,249.5,24.518,26.2174,154.142,99.8347,97.4156,0.00926602,0.0905239,20.9573,172.233,0.217467,0.0,0.0
1002,250.25,23.8788,25.9655,153.566,99.8504,97.0349,0.00922812,0.0904762,20.9573,172.223,0.25357,0.0,0.0
1005,251,24.2407,25.7022,152.82,99.8383,96.7655,0.0091502,0.0904415,20.9574,172.203,0.277148,0.0,0.0
1008,251.75,24.361,25.8042,153.292,99.8363,97.0669,0.00909339,0.0904161,20.9574,172.203,0.249401,0.0,0.0
1011,252.5,24.469,25.9664,150.626,99.8219,97.1711,0.00903044,0.0902997,20.9579,172.203,0.238604,0.0,0.0
1014,253.25,24.1249,25.4537,154.812,99.8215,96.7443,0.00900469,0.0901642,20.9584,172.183,0.277591,0.0,0.0
1017,254,24.1712,25.5227,151.599,99.8219,97.1532,0.0090104,0.0899788,20.9588,172.183,0.240234,0.0,0.0
1020,254.75,23.8825,25.9828,150.05,99.8267,97.037,0.00904177,0.0897653,20.959,172.163,0.251275,0.0,0.0
1023,255.5,23.7021,25.7243,156.479,99.8066,96.8436,0.00909699,0.089653,20.9593,172.163,0.267182,0.0,0.0
1026,256.25,24.0185,25.6463,151.82,99.7974,97.3106,0.00915112,0.0896454,20.9594,172.153,0.223712,0.0,0.0
1029,257,23.9441,25.4589,152.139,99.8054,96.8456,0.00920114,0.0898554,20.9595,172.143,0.266885,0.0,0.0
1032,257.75,23.923,25.0076,157.433,99.7998,97.3384,0.00924555,0.0900635,20.959,172.133,0.221392,0.0,0.0
1035,258.5,23.7562,25.2953,153.738,99.7942,97.3978,0.00927792,0.0902386,20.9586,172.122,0.215489,0.0,0.0
1038,259.25,23.578,25.0948,151.555,99.7877,97.1292,0.00932802,0.090327,20.9583,172.102,0.239398,0.0,0.0
1041,260,23.9522,25.1304,157.845,99.7849,97.6053,0.00937584,0.0903523,20.9581,172.092,0.195795,0.0,0.0
1044,260.75,23.6986,25.4597,150.893,99.7865,97.0997,0.0094215,0.0903707,20.9579,172.122,0.241982,0.0,0.0
1047,261.5,23.3726,25.4317,153.032,99.7821,97.4447,0.00943333,0.0903646,20.9578,172.092,0.210148,0.0,0.0
1050,262.25,23.5722,24.9607,151.706,99.7672,97.0623,0.0094109,0.0903673,20.9577,172.102,0.24368,0.0,0.0
1053,263,23.4286,25.459,153.86,99.7709,97.9868,0.0093571,0.0903817,20.9576,172.102,0.15996,0.0,0.0
1056,263.75,23.6836,24.7306,153.499,99.7704,97.3791,0.00925141,0.0903647,20.9576,172.092,0.215082,0.0,0.0
1059,264.5,23.0883,24.4089,151.758,99.7592,97.1254,0.00914667,0.0903405,20.9582,172.092,0.237204,0.0,0.0
1062,265.25,23.1898,24.8234,153.15,99.7455,96.5621,0.00905852,0.0902838,20.9586,172.072,0.287559,0.0,0.0
1065,266,23.6371,25.2928,154.908,99.7508,96.9361,0.00899425,0.0902561,20.9589,172.062,0.253751,0.0,0.0
1068,266.75,23.2975,25.0502,155.447,99.7451,96.4239,0.00895996,0.090249,20.9592,172.062,0.300225,0.0,0.0
1071,267.5,24.1567,24.4483,153.206,99.7439,97.0868,0.00894159,0.0902562,20.9593,172.042,0.239373,0.0,0.0
1074,268.25,22.8966,24.1465,149.415,99.7319,96.895,0.00893952,0.0901928,20.9595,172.042,0.255832,0.0,0.0
1077,269,23.797,24.7383,149.321,99.7162,97.1366,0.00895683,0.0901173,20.9596,172.032,0.232361,0.0,0.0
1080,269.75,23.3809,24.2349,154.618,99.7251,96.9494,0.00898941,0.0900622,20.9596,172.022,0.250251,0.0,0.0
1083,270.5,23.6754,24.6229,155.327,99.7046,97.0329,0.00903357,0.0899241,20.9599,172.022,0.240802,0.0,0.0
1086,271.25,23.4011,24.4364,151.942,99.7114,96.7248,0.00908341,0.0898096,20.9601,172.012,0.269597,0.0,0.0
1089,272,22.7392,24.175,154.718,99.6997,96.6804,0.00912394,0.0897203,20.9603,172.002,0.272633,0.0,0.0
1092,272.75,23.29,23.9836,157.201,99.6929,97.0611,0.00914782,0.0896565,20.9604,171.992,0.237188,0.0,0.0
1095,273.5,23.267,24.5637,152.778,99.6833,97.1889,0.00915661,0.0895962,20.9604,171.972,0.224659,0.0,0.0
1098,274.25,23.4279,24.5326,153.377,99.6696,97.316,0.00914827,0.0895464,20.9605,171.972,0.211865,0.0,0.0
1101,275,23.1394,24.5677,151.585,99.6664,97.1134,0.00914039,0.0895101,20.9605,171.952,0.230053,0.0,0.0
1104,275.75,23.0622,24.1899,152.268,99.6652,97.0478,0.00913465,0.0895126,20.9606,171.952,0.235935,0.0,0.0
1107,276.5,22.6824,24.0395,153.379,99.6467,96.8074,0.00912715,0.0895639,20.9606,171.952,0.256276,0.0,0.0
1110,277.25,23.2038,24.4809,151.996,99.6411,97.0391,0.00911601,0.0896084,20.9606,171.942,0.234587,0.0,0.0
1113,278,23.0356,23.8612,150.109,99.6475,96.5102,0.00908813,0.0896533,20.9606,171.932,0.283609,0.0,0.0
1116,278.75,23.0452,24.2168,150.209,99.6435,96.2097,0.0090645,0.0896664,20.9606,171.932,0.310903,0.0,0.0
1119,279.5,22.6669,23.9537,153.768,99.6282,96.8174,0.0090416,0.0896897,20.9606,171.922,0.253719,0.0,0.0
1122,280.25,22.7064,23.8343,152.718,99.6242,97.2533,0.00902825,0.0896981,20.9606,171.912,0.213538,0.0,0.0
1125,281,22.6916,23.8032,152.993,99.6194,97.074,0.00902425,0.0896795,20.9606,171.902,0.229471,0.0,0.0
1128,281.75,23.3929,24.3013,155.972,99.6142,96.685,0.00903266,0.0897247,20.9606,171.892,0.264603,0.0,0.0
1131,282.5,22.6653,23.9598,155.51,99.6017,97.3724,0.00904362,0.0897427,20.9604,171.882,0.200682,0.0,0.0
1134,283.25,23.1701,24.3476,154.076,99.5901,96.6439,0.00905162,0.0897304,20.9602,171.882,0.266225,0.0,0.0
1137,284,22.3547,23.9684,153.302,99.5776,97.4907,0.00902512,0.0896527,20.9601,171.872,0.187771,0.0,0.0
1140,284.75,22.8578,23.7863,152.106,99.5857,97.1906,0.0089668,0.0895667,20.96,171.862,0.215822,0.0,0.0
1143,285.5,22.8812,23.3788,152.541,99.576,96.7402,0.00888913,0.0895237,20.96,171.862,0.256143,0.0,0.0
1146,286.25,22.7635,23.6498,159.031,99.5656,97.0192,0.00880083,0.0894923,20.9599,171.862,0.229686,0.0,0.0
1149,287,22.6663,23.8352,154.889,99.5483,96.2952,0.00870507,0.0894549,20.9599,171.852,0.294552,0.0,0.0
1152,287.75,22.507,23.847,158.685,99.5459,96.739,0.00862121,0.089403,20.9599,171.842,0.253575,0.0,0.0
1155,288.5,22.8974,23.915,153.364,99.5366,97.1188,0.00855895,0.0892672,20.9598,171.842,0.21801,0.0,0.0
1158,289.25,22.7062,23.792,156.848,99.5274,96.9963,0.00851356,0.089132,20.9598,171.822,0.228374,0.0,0.0
1161,290,22.659,23.9776,154.574,99.5101,96.8494,0.00852346,0.0889717,20.9602,171.822,0.240277,0.0,0.0
1164,290.75,22.5452,23.7098,152.513,99.5081,96.851,0.00854701,0.0888685,20.9606,171.812,0.239946,0.0,0.0
1167,291.5,22.4124,23.243,153.124,99.5045,96.8685,0.00857114,0.0887992,20.9609,171.802,0.238028,0.0,0.0
1170,292.25,22.5706,23.8092,153.511,99.4917,96.6078,0.00860487,0.0886937,20.9611,171.792,0.260774,0.0,0.0
1173,293,22.7142,23.4901,154.128,99.4764,96.927,0.00863701,0.0885934,20.9613,171.782,0.230167,0.0,0.0
1176,293.75,22.593,23.5127,150.191,99.4611,96.5019,0.00866365,0.0885007,20.9614,171.782,0.267772,0.0,0.0
1179,294.5,22.3977,23.3008,153.399,99.47,96.1354,0.00869062,0.0883508,20.9617,171.772,0.302298,0.0,0.0
1182,295.25,22.6579,23.4868,153.475,99.4587,96.8398,0.00871349,0.088163,20.9624,171.772,0.236568,0.0,0.0
1185,296,22.6657,23.7697,154.448,99.4382,96.8668,0.00873017,0.087952,20.9628,171.762,0.232272,0.0,0.0
1188,296.75,22.6252,23.8502,154.344,99.4402,96.4264,0.00874358,0.0877909,20.9632,171.752,0.272854,0.0,0.0
1191,297.5,21.8348,23.4766,153.901,99.4366,96.6281,0.00875257,0.0876612,20.9634,171.752,0.254001,0.0,0.0
1194,298.25,22.3659,23.2086,153.739,99.421,96.8481,0.00875686,0.0876215,20.9636,171.742,0.232442,0.0,0.0
1197,299,22.7339,23.3601,152.587,99.4222,96.2703,0.00874923,0.0876449,20.9637,171.732,0.285604,0.0,0.0
1200,299.75,22.4816,23.368,158.213,99.3993,96.4122,0.00872984,0.0877113,20.9638,171.732,0.270498,0.0,0.0
1203,300.5,22.0609,22.8339,151.99,99.4029,96.8249,0.0087098,0.0877598,20.9639,171.722,0.232958,0.0,0.0
1206,301.25,22.4719,23.2404,150.81,99.4009,96.5384,0.00868263,0.0877676,20.9639,171.712,0.259044,0.0,0.0
1209,302,22.4724,23.0095,154.174,99.3916,96.7792,0.00865746,0.0877689,20.964,171.692,0.236136,0.0,0.0
1212,302.75,22.3888,22.9168,152.806,99.3663,96.8681,0.0086445,0.0877821,20.964,171.692,0.225744,0.0,0.0
1215,303.5,22.0945,22.7814,155.511,99.3675,96.9395,0.00863438,0.0877412,20.9642,171.692,0.21932,0.0,0.0
1218,304.25,22.4279,23.2146,152.006,99.3547,96.8967,0.00862588,0.087625,20.9648,171.682,0.222083,0.0,0.0
1221,305,22.3898,23.5712,151.474,99.3506,97.1296,0.00860534,0.0874441,20.9652,171.672,0.200443,0.0,0.0
1224,305.75,22.2057,23.162,153.327,99.3342,97.0017,0.00859162,0.0872713,20.9655,171.672,0.210652,0.0,0.0
1227,306.5,22.3682,23.0475,152.352,99.3402,97.3442,0.00858348,0.0869889,20.9658,171.652,0.179944,0.0,0.0
1230,307.25,21.7758,22.6064,155.08,99.3269,96.7099,0.00857981,0.0867418,20.9659,171.652,0.236719,0.0,0.0
1233,308,22.1123,23.2681,154.046,99.3298,96.6256,0.00856834,0.0865513,20.966,171.642,0.244698,0.0,0.0
1236,308.75,22.5471,23.3912,154.705,99.3105,96.7767,0.00855623,0.0864248,20.9661,171.642,0.229123,0.0,0.0
1239,309.5,21.9306,22.6222,152.122,99.3169,96.9336,0.00850978,0.0862739,20.9662,171.632,0.215334,0.0,0.0
1242,310.25,22.1375,22.705,156.959,99.2984,96.9511,0.00845208,0.0861422,20.9662,171.622,0.21209,0.0,0.0
1245,311,21.7771,22.6154,151.501,99.2715,96.5443,0.00839986,0.0860092,20.9663,171.612,0.246966,0.0,0.0
1248,311.75,21.8322,22.2695,152.731,99.2687,96.4488,0.00836357,0.0859123,20.9663,171.602,0.255486,0.0,0.0
1251,312.5,21.9555,22.9528,152.379,99.239,97.1752,0.00833712,0.0858777,20.9663,171.592,0.186306,0.0,0.0
1254,313.25,22.3595,22.9556,152.126,99.2394,95.9971,0.00834545,0.0859142,20.9664,171.592,0.29448,0.0,0.0
1257,314,21.8236,22.6754,155.202,99.2233,96.6032,0.00836263,0.0860094,20.9666,171.582,0.237248,0.0,0.0
1260,314.75,21.4205,22.2786,152.3,99.2036,97.015,0.00837402,0.086108,20.9667,171.582,0.197777,0.0,0.0
1263,315.5,21.8219,22.7437,156.453,99.1892,96.6514,0.00835196,0.0860976,20.9668,171.562,0.229779,0.0,0.0
1266,316.25,22.244,22.7449,151.279,99.1984,96.4724,0.00828394,0.0860549,20.9668,171.562,0.247031,0.0,0.0
1269,317,22.0723,23.1224,152.988,99.1695,96.5787,0.00816824,0.0859278,20.9669,171.562,0.234685,0.0,0.0
1272,317.75,22.3588,22.8673,158.866,99.153,96.6788,0.00804635,0.0857942,20.9669,171.552,0.224034,0.0,0.0
1275,318.5,21.6025,22.8361,152.136,99.1422,96.3599,0.00792701,0.0856186,20.967,171.542,0.252348,0.0,0.0
1278,319.25,21.6013,23.0604,153.76,99.1281,96.4002,0.00781525,0.0854495,20.967,171.532,0.247386,0.0,0.0
1281,320,22.2143,22.8484,156.531,99.1205,96.8685,0.00770348,0.0853086,20.967,171.522,0.203745,0.0,0.0
1284,320.75,22.1043,22.9502,156.783,99.1008,96.3184,0.00761576,0.0851864,20.967,171.522,0.252468,0.0,0.0
1287,321.5,22.1594,22.6347,153.938,99.0891,96.2998,0.00754914,0.0850836,20.967,171.522,0.253145,0.0,0.0
1290,322.25,21.6313,22.6864,157.315,99.1008,97.0789,0.00753307,0.0849812,20.967,171.512,0.182742,0.0,0.0
1293,323,21.9677,22.5187,155.823,99.0694,96.7576,0.0075352,0.0848695,20.967,171.512,0.20933,0.0,0.0
1296,323.75,22.0347,22.8791,151.747,99.065,96.5729,0.00758849,0.0847881,20.967,171.502,0.225877,0.0,0.0
1299,324.5,21.7164,22.5218,150.381,99.0421,97.0715,0.00763787,0.0847431,20.967,171.482,0.178176,0.0,0.0
1302,325.25,21.8253,22.5958,157.027,99.0309,97.0246,0.0076919,0.0847351,20.967,171.482,0.181454,0.0,0.0
1305,326,21.7003,22.3861,152.587,99.0184,96.4554,0.00774021,0.0847292,20.9675,171.482,0.232497,0.0,0.0
1308,326.75,22.0032,22.6041,152.945,98.9955,96.4857,0.00776166,0.0847249,20.968,171.472,0.227661,0.0,0.0
1311,327.5,21.3478,22.9494,155.016,98.9742,96.2624,0.00774515,0.0847022,20.9683,171.472,0.246298,0.0,0.0
1314,328.25,21.8132,22.6896,152.671,98.9541,96.7377,0.00772191,0.0846034,20.9686,171.462,0.200832,0.0,0.0
1317,329,21.593,22.7329,154.599,98.9461,95.8684,0.00766872,0.0844531,20.9688,171.462,0.280136,0.0,0.0
1320,329.75,21.5624,22.8067,152.651,98.9316,96.0926,0.00761251,0.0842695,20.9689,171.442,0.258134,0.0,0.0
1323,330.5,21.8525,22.5579,154.499,98.9023,97.052,0.00756815,0.0841552,20.969,171.432,0.167436,0.0,0.0
1326,331.25,21.5176,23.0358,154.605,98.8871,96.3089,0.00755365,0.0840445,20.9691,171.422,0.234205,0.0,0.0
1329,332,21.9392,22.3797,156.541,98.8754,96.6659,0.00755294,0.0839521,20.9692,171.422,0.200359,0.0,0.0
1332,332.75,21.8804,22.6055,155.189,98.8497,96.4201,0.0075693,0.0838261,20.9692,171.422,0.220621,0.0,0.0
1335,333.5,21.8508,22.3821,155.501,98.8244,96.2794,0.00757945,0.0837068,20.9695,171.412,0.231299,0.0,0.0
1338,334.25,21.8531,22.4859,160.583,98.8067,96.132,0.00757566,0.0836082,20.9701,171.412,0.243293,0.0,0.0
1341,335,21.8037,22.0127,153.801,98.7894,96.2541,0.00755377,0.0834386,20.9705,171.392,0.230495,0.0,0.0
1344,335.75,21.7386,22.5834,155.023,98.7722,97.0349,0.00753781,0.0832934,20.9708,171.392,0.157315,0.0,0.0
1347,336.5,21.7984,22.2995,154.66,98.7657,96.4554,0.00747622,0.0831505,20.9713,171.392,0.209844,0.0,0.0
1350,337.25,21.8942,22.7024,152.462,98.7432,96.4575,0.00739754,0.0830073,20.9717,171.382,0.207634,0.0,0.0
1353,338,21.0709,22.2094,147.932,98.7139,96.0968,0.00731885,0.0829029,20.9721,171.382,0.238218,0.0,0.0
1356,338.75,20.8746,22.2811,153.305,98.7087,96.6954,0.00725615,0.0827172,20.9723,171.382,0.182695,0.0,0.0
1359,339.5,21.3853,22.5058,152.079,98.6986,96.2466,0.00722166,0.0825352,20.9725,171.372,0.223033,0.0,0.0
1362,340.25,21.7496,22.0736,151.487,98.6806,95.9054,0.00720131,0.0822853,20.9726,171.362,0.252896,0.0,0.0
1365,341,21.8959,22.1306,153.609,98.6617,96.5306,,0.0820895,,171.342,0.193596,0.0,0.0
1368,341.75,21.6981,22.0175,151.785,98.6472,96.4367,,0.0819409,,171.342,0.200916,0.0,0.0
1371,342.5,21.2695,22.4565,155.755,98.6227,95.9286,,0.081774,,171.342,0.245548,0.0,0.0
1374,343.25,21.6873,22.5593,150.463,98.593,95.3973,,0.0816249,,171.332,0.292119,0.0,0.0
1377,344,21.5773,22.817,150.922,98.6002,96.3508,,,,171.322,0.204596,0.0,0.0
1380,344.75,21.6027,21.8072,153.454,98.5685,96.3952,,,,171.322,0.197655,0.0,0.0
1383,345.5,21.5329,22.5366,155.253,98.5468,96.2362,,,,171.312,0.210338,0.0,0.0
1386,346.25,20.9257,21.8795,157.563,98.5243,96.0926,,,,171.302,0.221556,0.0,0.0
1389,347,21.2987,22.18,150.586,98.5279,95.8464,,,,171.302,0.244622,0.0,0.0
1392,347.75,21.5893,22.2177,153.055,98.5139,96.3795,,,,171.292,0.19419,0.0,0.0
1395,348.5,21.0677,21.9068,157.141,98.4801,95.6712,,,,171.292,0.256538,0.0,0.0
1398,349.25,21.711,22.3923,151.794,98.464,95.9888,,,,171.282,0.225712,0.0,0.0
1401,350,20.874,21.3027,154.604,98.4452,96.1059,,,,171.272,0.213206,0.0,0.0
1404,350.75,21.0438,21.8948,154.328,98.4339,95.9743,,,,171.272,0.22434,0.0,0.0
1407,351.5,21.4025,21.9129,155.053,98.3969,95.8763,,,,171.252,0.230066,0.0,0.0