File: 01_Data/Cotton_Rug/Cone/Cotton_Rug_Cone_HF50Scan_220321_R1.csv
Names,Time,Stack TC,Smoke TC,Exh Press,Smoke Comp,Smoke Meas,CO Meter,CO2 Meter,O2 Meter,Sample Mass,Ext Coeff,Start Test,Flame Verif
Chan Gain,,500,500,1,1,1,1,1,1,1,1,1.0,1.0
Offset,,0,0,0.134026,0,0,0,0,0,0,0,0.0,0.0
Gain,,1,1,25.011,13.1637,13.6028,1,1,1,1.00089,1.01066,1.0,1.0
Units,sec,C,C,Pa,%,%,%,%,%,g,/m,,
Baseline,,32.2973,33.2494,148.412,98.1453,94.5162,0.000322624,0.0525501,21.0055,-834.568,0.334087,,
3,0.5,31.0906,32.0901,150.168,98.4681,94.7779,0.000486776,0.0602079,20.9922,183.993,0.338624,0.0,0.0
6,1.25,30.6556,31.6428,148.3,98.4664,94.7206,0.000497901,0.0600235,20.992,184.073,0.343839,0.0,0.0
9,2,30.572,31.3745,145.487,98.4681,94.7829,0.000488245,0.0598077,20.9918,184.083,0.338158,0.0,0.0
12,2.75,30.529,31.7296,149.299,98.4773,94.8265,0.000450825,0.0596514,20.9929,183.953,0.334914,0.0,0.0
15,3.5,30.2666,31.6132,147.727,98.4865,94.3574,0.000411498,0.0595985,20.9936,184.003,0.379711,0.0,0.0
18,4.25,30.7188,31.4747,147.299,98.4893,93.9655,0.000385301,0.0595599,20.9941,183.943,0.41686,0.0,0.0
21,5,30.4068,31.5895,148.807,98.4773,93.677,0.000379217,0.0598413,20.9945,183.933,0.443037,0.0,0.0
24,5.75,30.7257,31.6107,146.625,98.4922,93.1016,0.000425432,0.0600751,20.9948,183.953,0.498994,0.0,0.0
27,6.5,30.8641,31.8406,150.769,98.4942,93.1348,0.000480716,0.0602943,20.995,183.913,0.496014,0.0,0.0
30,7.25,30.4598,31.8993,151.548,98.4958,92.8687,0.000620949,0.0605122,20.9952,183.913,0.521524,0.0,0.0
33,8,30.914,31.8845,149.304,98.4926,91.6678,0.000776421,0.0606853,20.9951,183.893,0.636628,0.0,0.0
36,8.75,30.5503,31.4926,147.337,98.5147,90.9791,0.000912459,0.060836,20.9946,183.833,0.705474,0.0,0.0
39,9.5,30.3602,31.8493,147.372,98.4998,90.3269,0.00101712,0.0608684,20.9943,183.823,0.767916,0.0,0.0
42,10.25,30.8745,31.3598,146.82,98.5066,89.0276,0.00115719,0.060842,20.994,183.793,0.896984,0.0,0.0
45,11,30.663,32.1216,146.141,98.4914,89.3572,0.00129204,0.0607373,20.9938,183.763,0.862848,0.0,0.0
48,11.75,31.0235,31.7235,147.048,98.503,89.6071,0.00147695,0.0607017,20.9932,183.733,0.839137,0.0,0.0
51,12.5,31.034,32.0929,152.521,98.5034,88.5157,0.00164632,0.0606956,20.9908,183.723,0.947814,0.0,0.0
54,13.25,30.9907,31.9326,147.81,98.507,88.1226,0.00182891,0.0627432,20.9858,183.673,0.9876,0.0,0.0
57,14,31.3159,32.0413,155.322,98.4946,87.5082,0.00203153,0.0675406,20.9659,183.603,1.0485,0.0,0.0
60,14.75,31.1083,32.0665,141.11,98.5078,92.968,0.00219874,0.0766889,20.9433,183.543,0.513142,0.0,1.0
63,15.5,31.24,32.0945,137.658,98.4982,93.6384,0.00232896,0.102115,20.9129,183.443,0.448572,0.0,1.0
66,16.25,30.6705,32.117,134.274,98.5042,93.3432,0.00242268,0.132785,20.8834,183.382,0.477103,0.0,1.0
69,17,31.5802,32.58,134.962,98.497,93.4786,0.00248854,0.165907,20.8492,183.322,0.463608,0.0,1.0
72,17.75,31.8196,33.1146,132.589,98.4934,93.7604,0.00253327,0.199611,20.8133,183.152,0.43659,0.0,1.0
75,18.5,32.2847,33.3424,133.981,98.4982,93.6716,0.00256762,0.233532,20.7783,183.082,0.445428,0.0,1.0
78,19.25,32.5623,33.5058,132.615,98.4978,92.7367,0.00261583,0.262247,20.7456,182.972,0.534316,0.0,1.0
81,20,32.9986,33.8559,129.093,98.495,91.8093,0.00268593,0.295002,20.7061,182.872,0.623165,0.0,1.0
84,20.75,33.4103,34.447,132.815,98.4881,92.1394,0.0027799,0.322219,20.6667,182.782,0.59074,0.0,0.0
87,21.5,33.8418,35.3136,130.569,98.4994,90.5021,0.00286849,0.347768,20.6465,182.652,0.750702,0.0,0.0
90,22.25,34.3651,35.9706,128.293,98.5054,89.9068,0.00302291,0.374079,20.6138,182.562,0.809751,0.0,0.0
93,23,35.2034,36.0321,131.336,98.4974,89.5926,0.00327534,0.398894,20.5858,182.442,0.840069,0.0,0.0
96,23.75,36.1601,36.8312,128.012,98.4902,89.1169,0.00356432,0.4228,20.5583,182.332,0.886619,0.0,0.0
99,24.5,36.181,37.9138,128.891,98.5046,89.3647,0.00385252,0.439112,20.5345,182.221,0.8633,0.0,0.0
102,25.25,36.9685,38.0182,123.823,98.501,88.4551,0.00406261,0.461976,20.5109,182.091,0.953668,0.0,0.0
105,26,37.283,38.7441,125.203,98.505,86.6527,0.00439354,0.485514,20.488,181.961,1.13655,0.0,0.0
108,26.75,38.2026,39.9696,129.692,98.4998,87.3779,0.00470648,0.508248,20.4667,181.801,1.06219,0.0,0.0
111,27.5,38.9224,40.1534,122.513,98.5054,87.0724,0.00496517,0.527198,20.4433,181.691,1.09375,0.0,0.0
114,28.25,39.7762,41.0481,126.218,98.5106,86.1122,0.00523862,0.54862,20.4197,181.531,1.19253,0.0,0.0
117,29,40.175,41.6935,124.153,98.5151,86.0283,0.00549382,0.570508,20.3954,181.391,1.20156,0.0,0.0
120,29.75,41.11,42.6288,120.982,98.4998,87.407,0.00570367,0.591641,20.3702,181.251,1.05924,0.0,0.0
123,30.5,41.7996,43.3842,119.731,98.5062,86.7336,0.00595243,0.613417,20.3452,181.12,1.12838,0.0,0.0
126,31.25,42.5999,44.0857,118.151,98.513,86.436,0.0062179,0.632316,20.3242,180.94,1.15947,0.0,0.0
129,32,42.9004,44.9216,122.185,98.5163,86.13,0.00648549,0.651265,20.3001,180.79,1.1912,0.0,0.0
132,32.75,43.9143,45.9636,126.965,98.497,86.0246,0.00682315,0.671638,20.2759,180.66,1.20032,0.0,0.0
135,33.5,44.3594,46.863,116.746,98.5002,86.1138,0.00717456,0.689286,20.2508,180.5,1.19142,0.0,0.0
138,34.25,45.1516,47.7365,121.559,98.5159,85.8096,0.00752784,0.711007,20.2246,180.36,1.22421,0.0,0.0
141,35,46.2316,48.153,118.747,98.5062,84.2146,0.00787471,0.732221,20.1961,180.19,1.38967,0.0,0.0
144,35.75,47.1852,49.3256,114.966,98.5074,84.0905,0.0082695,0.74998,20.1683,179.999,1.40285,0.0,0.0
147,36.5,48.5612,50.0153,117.787,98.4946,82.3155,0.0085573,0.771038,20.145,179.819,1.59084,0.0,0.0
150,37.25,48.76,51.3886,117.122,98.5066,83.7709,0.00899422,0.794227,20.1223,179.659,1.43655,0.0,0.0
153,38,49.4775,52.3662,116.763,98.5155,83.1229,0.00936478,0.815452,20.1033,179.479,1.50619,0.0,0.0
156,38.75,50.2324,53.0918,116.991,98.5054,81.5462,0.00972393,0.832766,20.0832,179.289,1.67505,0.0,0.0
159,39.5,51.4939,53.8187,120.53,98.5098,81.1942,0.0101144,0.853973,20.0619,179.119,1.71381,0.0,0.0
162,40.25,52.3779,54.7943,114.967,98.513,81.078,0.0104756,0.873134,20.0392,178.929,1.7268,0.0,0.0
165,41,52.7986,55.633,112.937,98.5199,81.4379,0.0107714,0.893431,20.0152,178.738,1.68814,0.0,0.0
168,41.75,53.3271,56.7734,117.851,98.5106,79.7321,0.0111053,0.911913,19.9926,178.548,1.87497,0.0,0.0
171,42.5,54.4716,57.8967,112.482,98.5018,78.571,0.0114383,0.926957,19.9754,178.378,2.00423,0.0,0.0
174,43.25,55.5738,58.7191,118.761,98.5179,79.148,0.0117193,0.940251,19.9617,178.198,1.94081,0.0,0.0
177,44,56.7059,59.9304,113.722,98.5187,79.0663,0.0120777,0.95063,19.9513,177.998,1.95005,0.0,0.0
180,44.75,57.4229,60.8257,114.718,98.5155,78.2651,0.0123762,0.959127,19.9424,177.818,2.04005,0.0,0.0
183,45.5,57.7983,61.8001,116.569,98.5147,78.806,0.012607,0.966413,19.9339,177.657,1.97892,0.0,0.0
186,46.25,58.6115,62.8677,110.116,98.5143,78.6437,0.0127706,0.97361,19.9264,177.447,1.99716,0.0,0.0
189,47,59.2023,63.5986,118.696,98.5139,77.9865,0.0128459,0.979989,19.921,177.307,2.07151,0.0,0.0
192,47.75,60.5719,64.1028,120.05,98.5215,77.3917,0.0129008,0.9852,19.917,177.087,2.14008,0.0,0.0
195,48.5,60.9779,65.3378,114.435,98.5163,77.534,0.0129132,0.988349,19.9142,176.927,2.12332,0.0,0.0
198,49.25,61.6637,66.3104,114.958,98.5207,78.9915,0.0128748,0.989855,19.912,176.737,1.95861,0.0,0.0
201,50,62.1639,66.3374,116.948,98.5392,77.7827,0.012845,0.990617,19.9109,176.616,2.09699,0.0,0.0
204,50.75,62.9958,67.8052,117.133,98.5299,79.0397,0.0128233,0.991172,19.9103,176.416,1.95404,0.0,0.0
207,51.5,63.2146,67.73,116.648,98.5311,78.5478,0.0128203,0.989095,19.9116,176.256,2.00949,0.0,0.0
210,52.25,64.0791,69.3186,116.276,98.5343,77.153,0.012813,0.986408,19.9152,176.056,2.16863,0.0,0.0
213,53,64.6598,69.7388,120.768,98.5512,80.0696,0.0128054,0.982443,19.9209,175.926,1.84118,0.0,0.0
216,53.75,65.1272,70.3479,118.501,98.5504,79.4797,0.0127725,0.975976,19.9314,175.746,1.90666,0.0,0.0
219,54.5,65.8444,70.9193,114.73,98.5363,78.5594,0.0127193,0.967897,19.9426,175.606,2.00865,0.0,0.0
222,55.25,66.2514,71.5547,118.83,98.5464,77.5374,0.0126689,0.958862,19.9538,175.425,2.12565,0.0,0.0
225,56,67.1833,72.4347,115.692,98.5492,79.0551,0.0126273,0.949733,19.9648,175.275,1.95405,0.0,0.0
228,56.75,67.5805,72.9137,118.445,98.5641,78.791,0.012597,0.940053,19.9803,175.095,1.98504,0.0,0.0
231,57.5,68.1195,73.3938,121.298,98.5625,80.5682,0.0125809,0.929676,19.9917,174.985,1.78716,0.0,0.0
234,58.25,68.6781,74.3172,121.846,98.5568,78.625,0.0125796,0.914624,20.0065,174.815,2.0031,0.0,0.0
237,59,69.1473,74.0413,120.408,98.5761,79.6458,0.0125684,0.897064,20.0202,174.665,1.89047,0.0,0.0
240,59.75,69.3513,74.7291,120.137,98.5801,80.3079,0.012541,0.881819,20.037,174.495,1.81744,0.0,0.0
243,60.5,69.7431,75.3715,120.983,98.5785,80.1253,0.0124957,0.866525,20.0533,174.385,1.83748,0.0,0.0
246,61.25,70.0934,75.6073,122.818,98.5705,79.3755,0.0124179,0.852307,20.0709,174.264,1.9201,0.0,0.0
249,62,70.0559,76.2972,117.28,98.5801,78.6715,0.0123119,0.836694,20.091,174.124,1.99995,0.0,0.0
252,62.75,70.4403,76.3119,126.463,98.595,82.5255,0.0121829,0.818613,20.1194,173.984,1.57728,0.0,0.0
255,63.5,70.6178,76.6639,124.227,98.5998,79.1136,0.0119506,0.798535,20.1485,173.874,1.95204,0.0,0.0
258,64.25,71.2384,77.4018,124.396,98.5938,79.6748,0.0117812,0.77699,20.1732,173.754,1.88883,0.0,0.0
261,65,71.242,77.2352,122.314,98.6014,82.966,0.0114095,0.749278,20.2057,173.674,1.53067,0.0,0.0
264,65.75,71.2067,77.6326,128.323,98.6155,80.9061,0.0109766,0.721213,20.2342,173.584,1.75482,0.0,0.0
267,66.5,71.6108,77.5395,127.495,98.6199,80.7828,0.0105084,0.697403,20.2634,173.484,1.76874,0.0,0.0
270,67.25,71.107,77.3393,129.274,98.6071,82.3387,0.0100242,0.666575,20.2971,173.384,1.59846,0.0,0.0
273,68,71.6332,77.7526,131.195,98.6247,84.1333,0.00945111,0.639489,20.3332,173.304,1.4089,0.0,0.0
276,68.75,71.548,77.8874,131.518,98.6324,88.0861,0.00896621,0.611856,20.3644,173.213,1.00255,0.0,0.0
279,69.5,71.26,77.8223,130.898,98.63,86.6734,0.00849801,0.582612,20.3946,173.143,1.14566,0.0,0.0
282,70.25,71.2618,77.7038,133.619,98.6324,86.7602,0.0080856,0.558056,20.4198,173.063,1.13701,0.0,0.0
285,71,71.2505,77.2115,133.041,98.6324,85.7639,0.00775465,0.534618,20.4446,173.023,1.2394,0.0,0.0
288,71.75,71.046,77.2358,132.31,98.6537,87.2986,0.00751339,0.510246,20.4654,172.923,1.08408,0.0,0.0
291,72.5,70.7909,76.8781,133.789,98.6561,86.761,0.00723454,0.489572,20.4852,172.863,1.13906,0.0,0.0
294,73.25,70.3164,76.6559,140.012,98.6537,86.825,0.00700143,0.469528,20.5051,172.813,1.13231,0.0,0.0
297,74,70.2537,76.7706,132.821,98.6633,86.2081,0.00681877,0.454916,20.5255,172.763,1.19639,0.0,0.0
300,74.75,70.0225,76.6538,134.257,98.6794,85.6659,0.00663601,0.434894,20.548,172.693,1.25376,0.0,0.0
303,75.5,69.6817,75.6987,134.612,98.6786,85.9515,0.00645676,0.420297,20.5682,172.653,1.22418,0.0,0.0
306,76.25,69.6337,75.4381,137.268,98.6886,88.1969,0.00630847,0.403339,20.5898,172.593,0.996454,0.0,0.0
309,77,68.6133,76.0957,137.424,98.6834,87.3783,0.00617023,0.387994,20.6105,172.543,1.07866,0.0,0.0
312,77.75,68.9791,75.3117,134.275,98.6926,87.9778,0.00603942,0.374032,20.6295,172.493,1.01887,0.0,0.0
315,78.5,68.4,74.6258,140.178,98.7075,89.6096,0.00594406,0.361283,20.6451,172.433,0.857275,0.0,0.0
318,79.25,68.2321,74.3847,134.007,98.7236,88.0811,0.00583039,0.348137,20.6595,172.403,1.01124,0.0,0.0
321,80,68.1052,74.2007,134.694,98.7115,88.5598,0.00573056,0.336096,20.6713,172.353,0.962116,0.0,0.0
324,80.75,67.6484,73.6385,141.76,98.7264,89.0031,0.00562877,0.32627,20.6826,172.323,0.919178,0.0,0.0
327,81.5,67.1718,73.3954,135.224,98.7368,88.9404,0.00553602,0.316163,20.6939,172.263,0.926362,0.0,0.0
330,82.25,67.0653,73.2919,135.169,98.7332,88.95,0.0054553,0.308794,20.7029,172.243,0.925085,0.0,0.0
333,83,66.3884,72.7945,140.668,98.7404,89.3414,0.00538755,0.30083,20.7132,172.203,0.886804,0.0,0.0
336,83.75,66.4527,72.1372,139.297,98.7477,89.0264,0.00532055,0.294298,20.7225,172.173,0.918775,0.0,0.0
339,84.5,66.0625,72.2606,142.513,98.7533,89.5536,0.00526676,0.288294,20.7308,172.122,0.866934,0.0,0.0
342,85.25,65.6102,71.8791,139.961,98.7778,88.6556,0.00522544,0.282481,20.7379,172.082,0.958472,0.0,0.0
345,86,65.799,71.4782,137.508,98.7573,88.189,0.00519408,0.277714,20.7439,172.052,1.00342,0.0,0.0
348,86.75,65.242,71.1094,137.199,98.7661,89.4029,0.00517135,0.273335,20.7494,172.022,0.883018,0.0,0.0
351,87.5,64.792,70.2698,144.394,98.7826,89.6897,0.00515589,0.268781,20.7547,171.982,0.856098,0.0,0.0
354,88.25,64.1112,70.288,140.269,98.7718,89.7541,0.00515695,0.264072,20.7609,171.952,0.848765,0.0,0.0
357,89,63.9382,70.2295,141.842,98.7738,90.454,0.00517502,0.260047,20.7674,171.932,0.780081,0.0,0.0
360,89.75,63.8685,69.673,136.264,98.7714,90.943,0.00519557,0.254521,20.774,171.892,0.732065,0.0,0.0
363,90.5,62.8942,68.9299,137.826,98.787,89.8379,0.00525287,0.249589,20.7801,171.842,0.841857,0.0,0.0
366,91.25,63.0975,69.2858,144.565,98.7906,91.285,0.00531614,0.244449,20.7864,171.822,0.700513,0.0,0.0
369,92,62.502,68.5577,141.734,98.7959,91.7027,0.00539902,0.238373,20.793,171.772,0.660516,0.0,0.0
372,92.75,62.5427,68.1684,141.018,98.7943,91.3922,0.00549466,0.232527,20.7977,171.762,0.690441,0.0,0.0
375,93.5,62.369,67.3246,142.082,98.8151,93.0771,0.00562461,0.22766,20.8037,171.742,0.530353,0.0,0.0
378,94.25,61.9288,67.341,140.55,98.8284,92.8999,0.00581851,0.221327,20.808,171.732,0.548442,0.0,0.0
381,95,61.5637,67.6136,145.383,98.8392,93.7862,0.00595987,0.215751,20.8137,171.712,0.465236,0.0,0.0
384,95.75,61.0832,67.1545,143.435,98.8324,93.6953,0.00620667,0.210044,20.8197,171.672,0.473222,0.0,0.0
387,96.5,61.1466,65.8719,138.315,98.8517,94.0979,0.00643272,0.2042,20.8259,171.672,0.436932,0.0,0.0
390,97.25,60.572,66.0715,142.775,98.8662,94.1519,0.00663688,0.199223,20.8324,171.622,0.433146,0.0,0.0
393,98,60.0841,65.7091,142.972,98.8601,93.9431,0.00681941,0.194736,20.8391,171.612,0.452289,0.0,0.0
396,98.75,59.863,65.4327,137.934,98.8513,93.7775,0.00698121,0.189997,20.8444,171.602,0.467142,0.0,0.0
399,99.5,59.7075,65.0355,143.752,98.8818,94.1573,0.00711141,0.185455,20.8491,171.572,0.434043,0.0,0.0
402,100.25,58.8899,64.3527,146.307,98.8939,93.5429,0.00726635,0.181585,20.8524,171.542,0.49316,0.0,0.0
405,101,59.1226,64.4561,144.544,98.9051,93.7779,0.0074049,0.178374,20.8549,171.542,0.471929,0.0,0.0
408,101.75,58.9474,64.1315,143.804,98.8995,93.9435,0.00757354,0.175775,20.8572,171.532,0.455779,0.0,0.0
411,102.5,58.0901,63.691,140.125,98.9108,93.7002,0.00777048,0.173494,20.8599,171.512,0.479775,0.0,0.0
414,103.25,57.9382,63.3196,143.077,98.9252,94.4309,0.0079333,0.171666,20.8622,171.492,0.41221,0.0,0.0
417,104,57.7086,62.7629,146.193,98.9349,93.7314,0.0080914,0.169648,20.8648,171.482,0.478989,0.0,0.0
420,104.75,57.3498,62.8852,141.51,98.9341,93.841,0.00823053,0.167884,20.8673,171.462,0.468559,0.0,0.0
423,105.5,57.5478,62.0161,144.227,98.9409,93.2025,0.00835669,0.165886,20.8695,171.452,0.529694,0.0,0.0
426,106.25,56.8879,62.0673,144.358,98.9586,93.3341,0.00847356,0.163987,20.8718,171.442,0.518769,0.0,0.0
429,107,56.6864,62.0205,142.659,98.9566,94.1544,0.00857664,0.162205,20.8739,171.412,0.441013,0.0,0.0
432,107.75,55.9505,61.5479,144.668,98.963,94.2308,0.00868236,0.160548,20.8762,171.382,0.4344,0.0,0.0
435,108.5,55.5071,61.7303,139.311,98.9702,93.4454,0.00876123,0.158914,20.8779,171.392,0.509251,0.0,0.0
438,109.25,55.7319,60.9903,147.361,98.9863,93.9888,0.00880878,0.157581,20.8791,171.362,0.459285,0.0,0.0
441,110,55.5326,60.6298,144.356,99.0088,94.144,0.00882646,0.156366,20.8806,171.352,0.446668,0.0,0.0
444,110.75,55.0286,60.0255,144.907,98.9891,93.8277,0.00881602,0.155225,20.8822,171.322,0.474743,0.0,0.0
447,111.5,55.3017,59.8876,147.614,99.0028,93.6745,0.00881238,0.154284,20.8835,171.322,0.490452,0.0,0.0
450,112.25,54.5293,59.7538,143.807,99.0265,94.134,0.00881652,0.153214,20.8845,171.302,0.449188,0.0,0.0
453,113,54.1569,59.1161,141.946,99.0417,94.55,0.00886083,0.152179,20.8852,171.272,0.411467,0.0,0.0
456,113.75,53.9476,58.9853,145.567,99.049,94.4126,0.00889312,0.151182,20.8857,171.282,0.425007,0.0,0.0
459,114.5,53.8151,58.906,144.1,99.0453,94.6127,0.00895619,0.150225,20.8865,171.252,0.405915,0.0,0.0
462,115.25,53.3033,58.3411,141.796,99.0586,93.973,0.0090135,0.149401,20.8875,171.232,0.467248,0.0,0.0
465,116,53.2776,58.1682,143.397,99.0907,93.6558,0.00906012,0.148584,20.8886,171.212,0.500094,0.0,0.0
468,116.75,52.8466,57.7399,142.823,99.0883,94.3931,0.00911388,0.147805,20.8895,171.212,0.430363,0.0,0.0
471,117.5,53.1458,57.5893,144.746,99.0755,94.5853,0.00917325,0.14701,20.8901,171.192,0.411179,0.0,0.0
474,118.25,52.4856,56.9659,145.583,99.0996,94.5658,0.00922513,0.146175,20.8909,171.152,0.415166,0.0,0.0
477,119,52.385,57.1719,146.668,99.112,94.3856,0.00930586,0.145454,20.8918,171.162,0.433185,0.0,0.0
480,119.75,52.0957,57.0144,143.436,99.1217,93.9792,0.0093943,0.144858,20.8924,171.152,0.472304,0.0,0.0
483,120.5,51.834,57.4544,144.606,99.1229,94.6887,0.00947811,0.144386,20.8928,171.122,0.405737,0.0,0.0
486,121.25,51.0938,57.0979,141.412,99.1369,94.1374,0.00956448,0.143944,20.8931,171.112,0.458761,0.0,0.0
489,122,51.4632,55.9374,144.02,99.155,94.0332,0.00963821,0.143458,20.8934,171.102,0.470195,0.0,0.0
492,122.75,51.3656,56.1434,143.826,99.1562,94.6857,0.00971361,0.142922,20.8938,171.082,0.40899,0.0,0.0
495,123.5,51.0784,55.4783,144.819,99.1594,94.2706,0.0097706,0.142472,20.8946,171.052,0.448232,0.0,0.0
498,124.25,50.6979,55.3596,148.449,99.1675,93.9294,0.00981562,0.142042,20.8955,171.062,0.481098,0.0,0.0
501,125,50.8653,55.3057,146.127,99.1835,94.3898,0.00985024,0.141461,20.8961,171.052,0.439189,0.0,0.0
504,125.75,50.1828,54.644,144.645,99.1863,93.7513,0.00987422,0.140923,20.8965,171.032,0.499612,0.0,0.0
507,126.5,50.3027,54.9774,145.079,99.1799,94.604,0.00989049,0.140389,20.8969,171.032,0.41877,0.0,0.0
510,127.25,50.0913,54.2387,145.607,99.2032,94.9888,0.00990121,0.140014,20.8971,170.981,0.384864,0.0,0.0
513,128,50.1006,54.1958,145.779,99.2133,94.8352,0.00989838,0.139754,20.8973,170.992,0.400108,0.0,0.0
516,128.75,49.5899,54.0007,141.237,99.2241,94.8759,0.00987811,0.139577,20.8974,170.961,0.397276,0.0,0.0
519,129.5,49.6674,53.9458,140.273,99.2153,94.6305,0.00982548,0.139462,20.8975,170.971,0.419441,0.0,0.0
522,130.25,49.2069,53.9232,139.976,99.2205,94.2233,0.00976691,0.139273,20.8976,170.951,0.458141,0.0,0.0
525,131,49.1718,53.5384,146.605,99.2341,95.0257,0.00971493,0.138945,20.8976,170.941,0.38418,0.0,0.0
528,131.75,49.2088,53.2052,146.413,99.2458,94.5604,0.00968454,0.138439,20.8983,170.931,0.428743,0.0,0.0
531,132.5,48.7284,53.1419,143.858,99.239,94.2341,0.00967716,0.137874,20.8988,170.911,0.458776,0.0,0.0
534,133.25,48.7973,53.0146,149.619,99.2603,94.176,0.00969237,0.137323,20.8991,170.891,0.466148,0.0,0.0
537,134,48.4356,52.6923,140.224,99.2627,94.8273,0.00973866,0.136861,20.8994,170.871,0.405261,0.0,0.0
540,134.75,48.3549,52.3652,141.159,99.2695,94.5209,0.00978572,0.136525,20.8996,170.861,0.434558,0.0,0.0
543,135.5,48.5581,52.5429,147.915,99.2767,94.6862,0.0098428,0.13628,20.8999,170.861,0.419721,0.0,0.0
546,136.25,48.1093,52.1646,146.288,99.2639,94.8294,0.00988621,0.136002,20.9002,170.841,0.405173,0.0,0.0
549,137,47.312,52.415,138.412,99.288,94.3084,0.00990773,0.1358,20.9006,170.821,0.456166,0.0,0.0
552,137.75,47.9568,51.9638,145.468,99.2864,94.9082,0.00991112,0.135552,20.9013,170.801,0.399812,0.0,0.0
555,138.5,47.1247,51.2388,144.097,99.2972,94.6492,0.00989994,0.135319,20.9025,170.781,0.42501,0.0,0.0
558,139.25,47.5237,51.5983,143.99,99.2807,94.6123,0.00988096,0.135061,20.9033,170.761,0.427,0.0,0.0
561,140,47.2874,51.1204,143.578,99.2864,94.7024,0.00987245,0.134613,20.9039,170.751,0.419066,0.0,0.0
564,140.75,46.8321,50.7904,148.488,99.2964,94.012,0.00987535,0.134033,20.9044,170.751,0.484826,0.0,0.0
567,141.5,46.809,50.7083,143.572,99.3012,95.2325,0.00987747,0.133422,20.9047,170.751,0.370904,0.0,0.0
570,142.25,46.8698,50.7867,143.073,99.2799,94.2071,0.0099195,0.132837,20.9051,170.751,0.464975,0.0,0.0
573,143,46.7044,50.5596,145.857,99.2892,94.3715,0.00996739,0.132251,20.9057,170.711,0.450344,0.0,0.0
576,143.75,46.4553,50.4147,148.888,99.3173,94.4064,0.0100204,0.131823,20.9061,170.691,0.44958,0.0,0.0
579,144.5,46.379,50.5204,147.921,99.3269,94.6916,0.0100557,0.131364,20.9064,170.681,0.423698,0.0,0.0
582,145.25,46.2073,49.885,148.005,99.2968,94.3864,0.0100757,0.130777,20.9066,170.681,0.449621,0.0,0.0
585,146,45.8763,49.9393,148.599,99.3057,94.9954,0.0100614,0.13011,20.9077,170.671,0.393394,0.0,0.0
588,146.75,46.0289,49.5562,143.601,99.3221,94.6426,0.0100257,0.129623,20.9088,170.651,0.427855,0.0,0.0
591,147.5,45.6547,49.2982,145.339,99.3153,94.4657,0.00998354,0.129088,20.9096,170.631,0.443827,0.0,0.0
594,148.25,45.4484,49.1931,145.301,99.3097,94.67,0.00994371,0.128545,20.9102,170.631,0.424178,0.0,0.0
597,149,46.0434,49.396,145.915,99.3069,95.0066,0.00992999,0.128031,20.9107,170.611,0.392455,0.0,0.0
600,149.75,45.6211,49.0443,142.759,99.3249,94.3308,0.00994616,0.127569,20.9116,170.611,0.457358,0.0,0.0
603,150.5,45.6055,48.9769,146.967,99.3201,94.2274,0.0100085,0.127092,20.9123,170.611,0.466648,0.0,0.0
606,151.25,45.1895,48.6078,145.396,99.3241,94.846,0.0100686,0.126649,20.9128,170.591,0.409002,0.0,0.0
609,152,44.9873,49.5069,143.075,99.3197,94.572,0.0101389,0.126162,20.9132,170.581,0.434254,0.0,0.0
612,152.75,44.8966,48.5008,145.834,99.3278,94.7625,0.0101923,0.125653,20.9141,170.571,0.417127,0.0,0.0
615,153.5,44.6597,48.0373,146.08,99.3354,94.7405,0.0102078,0.125143,20.915,170.551,0.419867,0.0,0.0
618,154.25,44.7292,48.2285,145.316,99.3245,95.2877,0.0102191,0.124646,20.916,170.531,0.367847,0.0,0.0
621,155,44.7518,47.8825,146.995,99.3205,95.0685,0.0101787,0.12406,20.9168,170.521,0.387905,0.0,0.0
624,155.75,44.4491,47.6974,143.394,99.3278,94.9676,0.0101492,0.123427,20.9173,170.491,0.397962,0.0,0.0
627,156.5,44.438,47.7071,144.55,99.3354,94.205,0.010088,0.122778,20.9176,170.491,0.470119,0.0,0.0
630,157.25,44.163,47.7349,144.689,99.3338,94.4495,0.0100434,0.122233,20.9177,170.481,0.446996,0.0,0.0
633,158,44.3777,47.7344,144.564,99.3169,94.7721,0.0100102,0.121806,20.9177,170.481,0.415265,0.0,0.0
636,158.75,44.2976,47.647,143.562,99.335,94.5039,0.00998489,0.121257,20.9178,170.471,0.442,0.0,0.0
639,159.5,44.1338,47.5933,145.355,99.3535,94.9174,0.0099556,0.120753,20.9183,170.451,0.404947,0.0,0.0
642,160.25,43.9174,47.3213,143.027,99.337,95.0834,0.00991529,0.12021,20.9193,170.431,0.387981,0.0,0.0
645,161,44.1305,47.3516,142.562,99.3281,94.6965,0.00986119,0.119516,20.9204,170.431,0.42334,0.0,0.0
648,161.75,43.3885,47.6868,142.849,99.3438,95.3122,0.00979333,0.118802,20.9216,170.401,0.367289,0.0,0.0
651,162.5,43.3297,46.9396,148.161,99.3583,94.3059,0.00970473,0.118133,20.9225,170.391,0.462674,0.0,0.0
654,163.25,43.6875,46.6073,146.657,99.3535,94.6401,0.00961616,0.117546,20.9231,170.391,0.430886,0.0,0.0
657,164,43.393,46.6022,144.184,99.3466,94.9257,0.0095391,0.116959,20.9238,170.391,0.403561,0.0,0.0
660,164.75,43.2973,45.5667,142.449,99.3482,94.9282,0.00948293,0.116465,20.9248,170.371,0.403473,0.0,0.0
663,165.5,43.3093,46.6733,142.852,99.3478,94.6721,0.00945832,0.115992,20.926,170.371,0.427389,0.0,0.0
666,166.25,43.2463,46.4676,143.122,99.3631,95.494,0.00945132,0.115548,20.9272,170.361,0.352114,0.0,0.0
669,167,43.1547,46.0059,144.552,99.3603,94.9884,0.00945304,0.115225,20.9283,170.341,0.398929,0.0,0.0
672,167.75,43.1828,46.258,143.509,99.3506,94.484,0.00944709,0.11487,20.9291,170.321,0.445268,0.0,0.0
675,168.5,42.7193,46.0893,142.098,99.3607,95.1764,0.00942761,0.114611,20.9299,170.331,0.38143,0.0,0.0
678,169.25,42.6366,45.9282,146.713,99.3687,95.565,0.00940696,0.114127,20.9309,170.311,0.346028,0.0,0.0
681,170,42.5208,45.8691,139.851,99.3482,94.6583,0.00936165,0.113662,20.9316,170.291,0.428708,0.0,0.0
684,170.75,43.009,45.3016,147.6,99.3482,95,0.00930047,0.113218,20.9321,170.291,0.396769,0.0,0.0
687,171.5,42.5559,46.2511,144.034,99.3547,95.1528,0.00922979,0.112794,20.9325,170.271,0.383097,0.0,0.0
690,172.25,42.4082,45.429,142.866,99.3671,95.0216,0.00914594,0.112263,20.9337,170.251,0.396439,0.0,0.0
693,173,42.6734,45.4028,148.332,99.3498,95.2113,0.00907852,0.111781,20.9349,170.241,0.377215,0.0,0.0
696,173.75,42.3597,45.5586,143.299,99.3482,94.792,0.00902669,0.111074,20.9358,170.231,0.416198,0.0,0.0
699,174.5,41.8571,45.2072,144.247,99.3514,95.5451,0.0089889,0.1105,20.9371,170.241,0.346336,0.0,0.0
702,175.25,42.0281,45.216,150.64,99.3691,95.1768,0.00897033,0.109959,20.938,170.211,0.382145,0.0,0.0
705,176,42.353,45.2508,147.663,99.3474,94.8302,0.00895679,0.109528,20.9387,170.211,0.412555,0.0,0.0
708,176.75,42.4179,44.9164,143.75,99.349,95.401,0.00895355,0.109194,20.9392,170.201,0.359496,0.0,0.0
711,177.5,41.8204,45.1675,144.756,99.3502,94.8003,0.00896252,0.108907,20.9395,170.191,0.4156,0.0,0.0
714,178.25,42.2029,44.7048,141.709,99.3551,94.7464,0.00898038,0.108622,20.9398,170.191,0.421079,0.0,0.0
717,179,42.0526,44.7048,145.581,99.3498,94.8315,0.0090058,0.108313,20.94,170.171,0.412654,0.0,0.0
720,179.75,41.9287,44.6509,147.215,99.3615,95.0868,0.00902158,0.107913,20.9405,170.161,0.389859,0.0,0.0
723,180.5,41.6468,44.126,147.32,99.3523,95.1494,0.00902289,0.107524,20.9412,170.151,0.383192,0.0,0.0
726,181.25,41.5199,44.1984,146.161,99.3506,94.633,0.00898254,0.107141,20.9416,170.161,0.431296,0.0,0.0
729,182,41.9652,44.3888,142.939,99.3482,95.2391,0.00891163,0.106762,20.9419,170.131,0.374482,0.0,0.0
732,182.75,41.7041,44.2738,145.742,99.3342,94.924,0.00884224,0.106269,20.9422,170.141,0.402606,0.0,0.0
735,183.5,41.5558,43.6193,147.36,99.3338,95.0133,0.00873513,0.105757,20.9423,170.111,0.394238,0.0,0.0
738,184.25,41.4073,43.8514,147.334,99.3583,94.8128,0.00861776,0.105239,20.9425,170.101,0.415154,0.0,0.0
741,185,41.4573,44.1388,145.224,99.3386,94.9539,0.00850623,0.104724,20.9428,170.081,0.400209,0.0,0.0
744,185.75,41.2368,43.797,144.416,99.3241,95.3649,0.00840236,0.104335,20.9434,170.091,0.36063,0.0,0.0
747,186.5,41.0033,43.1851,142.798,99.3269,95.0589,0.00831701,0.104046,20.9439,170.071,0.389368,0.0,0.0
750,187.25,40.9381,43.7351,144.723,99.3322,95.1258,0.00822582,0.103697,20.9442,170.071,0.383604,0.0,0.0
753,188,40.9127,43.4186,144.456,99.3314,94.7302,0.0081098,0.103332,20.9444,170.051,0.42048,0.0,0.0
756,188.75,40.7533,43.0694,143.863,99.3213,94.9282,0.00798417,0.103018,20.9446,170.041,0.401071,0.0,0.0
759,189.5,40.864,43.832,144.065,99.3346,94.8422,0.00788009,0.102652,20.9447,170.031,0.410283,0.0,0.0
762,190.25,41.0457,43.5632,144.101,99.3245,94.4387,0.00778283,0.102385,20.9452,170.041,0.447185,0.0,0.0
765,191,40.6802,43.0425,144.776,99.331,95.3421,0.00769818,0.101955,20.9464,170.021,0.363362,0.0,0.0
768,191.75,40.5571,43.2898,142.989,99.3249,94.2225,0.00762667,0.101446,20.9472,169.991,0.467547,0.0,0.0
771,192.5,40.5946,43.1958,145.887,99.3101,95.0523,0.00756778,0.100914,20.9479,169.981,0.388482,0.0,0.0
774,193.25,40.7243,42.8932,144.502,99.3109,95.3201,0.00751239,0.100429,20.9483,169.981,0.363616,0.0,0.0
777,194,40.4119,43.0333,146.599,99.3265,95.0726,0.00746576,0.100034,20.9486,169.961,0.388056,0.0,0.0
780,194.75,40.3984,42.8593,148.122,99.3185,95.0494,0.00742779,0.0996285,20.9489,169.971,0.389507,0.0,0.0
783,195.5,40.6591,42.6023,143.579,99.3,94.8709,0.00739787,0.0993052,20.9493,169.951,0.404522,0.0,0.0
786,196.25,40.1895,42.2164,147.46,99.3113,94.8879,0.00737249,0.0990141,20.95,169.961,0.403936,0.0,0.0
789,197,40.4263,42.4859,144.639,99.3053,94.8883,0.00735399,0.0987275,20.9505,169.951,0.403358,0.0,0.0
792,197.75,40.017,42.4965,144.329,99.3161,94.5442,0.00734168,0.0984005,20.9509,169.941,0.436539,0.0,0.0
795,198.5,40.1333,43.072,145.343,99.2924,95.3304,0.00733321,0.0980518,20.9513,169.941,0.361001,0.0,0.0
798,199.25,40.2066,42.5031,147.247,99.288,95.0963,0.00733416,0.0977506,20.9517,169.921,0.382407,0.0,0.0
801,200,39.8517,42.1053,148.038,99.2968,94.6251,0.00734339,0.0974217,20.952,169.911,0.42723,0.0,0.0
804,200.75,39.7592,42.0665,149.142,99.3016,94.5645,0.0073534,0.0971353,20.9525,169.911,0.43334,0.0,0.0
807,201.5,40.0155,42.0431,146.064,99.2896,94.868,0.00735957,0.0968085,20.9532,169.901,0.40386,0.0,0.0
810,202.25,39.8472,42.2143,142.652,99.2916,94.9863,0.00734447,0.0965565,20.9537,169.891,0.392991,0.0,0.0
813,203,39.6768,42.1198,147.286,99.2852,94.7335,0.00732361,0.0964236,20.9541,169.871,0.416044,0.0,0.0
816,203.75,39.8253,42.1269,147.624,99.292,94.9124,0.00729155,0.0962308,20.9543,169.871,0.399925,0.0,0.0
819,204.5,39.7696,41.93,142.746,99.2763,94.978,0.00722452,0.0960626,20.9546,169.871,0.392403,0.0,0.0
822,205.25,40.0182,41.7795,145.269,99.2751,95.3367,0.00719139,0.0959283,20.9547,169.861,0.35888,0.0,0.0
825,206,39.6585,41.8503,144.095,99.2723,95.4106,0.0071489,0.0958304,20.9548,169.85,0.351759,0.0,0.0
828,206.75,39.6268,41.7785,145.96,99.2812,95.3823,0.0071197,0.0956488,20.9548,169.85,0.355172,0.0,0.0
831,207.5,39.513,41.5191,144.849,99.2679,94.8755,0.00710104,0.095298,20.9549,169.82,0.401225,0.0,0.0
834,208.25,39.1758,41.7763,147.304,99.2679,94.7339,0.00709193,0.0950048,20.9549,169.82,0.414463,0.0,0.0
837,209,38.8623,40.8733,145.935,99.2727,95.396,0.0071015,0.094501,20.955,169.79,0.353146,0.0,0.0
840,209.75,38.9058,41.2604,146.944,99.2675,94.3246,0.00711539,0.0940633,20.955,169.8,0.452814,0.0,0.0
843,210.5,39.0615,40.715,143.15,99.2534,95.413,0.00714424,0.0936853,20.9556,169.8,0.349841,0.0,0.0
846,211.25,38.8049,40.6581,145.148,99.2438,94.9718,0.00717325,0.0932997,20.9558,169.79,0.390078,0.0,0.0
849,212,38.9033,41.188,144.69,99.2554,95.066,0.00717693,0.0929717,20.9553,169.79,0.382326,0.0,0.0
852,212.75,38.6402,40.6724,145.486,99.2542,95.1756,0.00717216,0.092713,20.955,169.78,0.372004,0.0,0.0
855,213.5,38.0856,40.8721,146.355,99.243,95.2221,0.00712599,0.0925243,20.9548,169.76,0.36667,0.0,0.0
858,214.25,38.7969,40.6174,146.315,99.2281,95.2038,0.00707239,0.0925244,20.9546,169.75,0.367042,0.0,0.0
861,215,38.3025,40.5542,146.094,99.2301,94.6148,0.00702087,0.0925831,20.9545,169.76,0.422245,0.0,0.0
864,215.75,38.4872,40.4095,147.175,99.243,94.8904,0.00697659,0.0926947,20.9544,169.75,0.397603,0.0,0.0
867,216.5,38.054,40.1691,144.092,99.2293,95.1133,0.00693542,0.0928054,20.9543,169.75,0.375581,0.0,0.0
870,217.25,38.1277,40.3871,143.013,99.2129,94.8779,0.00689545,0.0928664,20.9543,169.74,0.396076,0.0,0.0
873,218,38.4487,40.0956,146.69,99.2161,94.4666,0.00686206,0.092852,20.9543,169.72,0.434888,0.0,0.0
876,218.75,38.4264,40.3621,145.868,99.2253,94.8414,0.00682793,0.092704,20.9542,169.7,0.400603,0.0,0.0
879,219.5,38.1549,40.0583,146.919,99.2173,94.5002,0.0067863,0.0924867,20.9548,169.7,0.431841,0.0,0.0
882,220.25,38.3632,39.8597,148.892,99.2024,95.6268,0.00674175,0.0922417,20.9551,169.69,0.325441,0.0,0.0
885,221,38.2497,40.1425,150.627,99.204,94.653,0.0067043,0.091911,20.9553,169.7,0.416335,0.0,0.0
888,221.75,38.0702,39.8233,148.16,99.2237,95.1386,0.0066775,0.091605,20.9554,169.69,0.372718,0.0,0.0
891,222.5,38.0975,40.0666,143.923,99.2052,94.7592,0.00666243,0.0912446,20.9561,169.67,0.406494,0.0,0.0
894,223.25,38.2442,40.1088,147.229,99.1924,94.2009,0.00666877,0.0909015,20.9566,169.65,0.457738,0.0,0.0
897,224,37.9747,39.8516,145.664,99.2024,94.7165,0.00668601,0.0906143,20.9572,169.64,0.410244,0.0,0.0
900,224.75,38.0026,40.012,146.233,99.2056,94.9344,0.00670593,0.0903088,20.958,169.64,0.390157,0.0,0.0
903,225.5,37.8591,40.055,144.273,99.1932,94.7397,0.00673415,0.0899872,20.9586,169.63,0.407242,0.0,0.0
906,226.25,37.652,39.7872,145.167,99.1843,95.2088,0.00675859,0.0896539,20.9591,169.62,0.362666,0.0,0.0
909,227,37.8582,40.2268,147.995,99.1779,95.0971,0.00677305,0.0891955,20.9594,169.61,0.372494,0.0,0.0
912,227.75,38.1722,39.9356,148.439,99.1823,94.9921,0.00675695,0.0888613,20.9596,169.61,0.382687,0.0,0.0
915,228.5,37.4232,39.4196,144.869,99.1707,95.0672,0.00671652,0.0886177,20.9598,169.6,0.374635,0.0,0.0
918,229.25,37.9421,39.5882,146.775,99.1807,95.1117,0.00667481,0.0885576,20.9599,169.59,0.371392,0.0,0.0
921,230,37.8037,39.1116,143.92,99.1707,94.5459,0.00659651,0.0884588,20.9602,169.59,0.423392,0.0,0.0
924,230.75,38.1139,39.4454,143.944,99.1807,94.6243,0.00651707,0.0883634,20.9604,169.58,0.416936,0.0,0.0
927,231.5,37.104,38.4272,149.185,99.1811,95.7904,0.00644962,0.0880993,20.9606,169.56,0.308388,0.0,0.0
930,232.25,37.7622,39.5368,144.083,99.1659,95.2536,0.00636941,0.0878931,20.9607,169.57,0.356839,0.0,0.0
933,233,37.6706,39.1129,145.983,99.1514,94.9514,0.0062977,0.0877369,20.9613,169.55,0.383719,0.0,0.0
936,233.75,37.4262,39.5574,146.689,99.1454,95.1457,0.00622433,0.0875252,20.9621,169.55,0.365058,0.0,0.0
939,234.5,37.6553,39.2959,144.399,99.1506,95.504,0.00616185,0.0873708,20.9632,169.54,0.332207,0.0,0.0
942,235.25,37.1212,38.8977,149.358,99.155,94.7368,0.00610745,0.0872583,20.964,169.53,0.404104,0.0,0.0
945,236,37.236,39.0441,144.635,99.1405,94.2768,0.00605912,0.0871763,20.9645,169.52,0.445958,0.0,0.0
948,236.75,37.7516,39.1282,145.871,99.1357,94.5454,0.00601431,0.087136,20.9649,169.52,0.420306,0.0,0.0
951,237.5,37.6087,38.7857,146.139,99.1401,95.5608,0.0059716,0.0870381,20.9652,169.51,0.325996,0.0,0.0
954,238.25,37.2966,38.7303,145.858,99.1329,94.594,0.00594047,0.086923,20.9655,169.49,0.415501,0.0,0.0
957,239,37.1766,38.8875,148.175,99.1197,94.9921,0.00591777,0.0868144,20.9656,169.48,0.377083,0.0,0.0
960,239.75,36.7327,39.1046,145.004,99.1301,94.9116,0.0059037,0.0866667,20.9657,169.47,0.385536,0.0,0.0
963,240.5,37.4547,38.708,147.662,99.1337,95.2503,0.00589646,0.0864611,20.9658,169.47,0.354275,0.0,0.0
966,241.25,37.544,39.0969,145.35,99.1233,95.5592,0.00589453,0.0862821,20.9659,169.47,0.324641,0.0,0.0
969,242,37.593,39.1248,147.966,99.1092,95.4193,0.00588428,0.0861378,20.9664,169.46,0.336372,0.0,0.0
972,242.75,37.0491,38.695,148.534,99.0964,94.7596,0.00585946,0.0860268,20.9669,169.45,0.396721,0.0,0.0
975,243.5,36.9818,38.9514,145.355,99.108,95.5409,0.00582093,0.0858285,20.9673,169.44,0.32497,0.0,0.0
978,244.25,37.5589,39.213,148.415,99.0988,94.8858,0.0057856,0.0856623,20.9675,169.42,0.385138,0.0,0.0
981,245,37.3652,38.5082,146.317,99.0935,94.6862,0.00570916,0.0855041,20.9677,169.42,0.403347,0.0,0.0
984,245.75,37.4976,38.6822,147.618,99.0815,95.4168,0.00568145,0.0853888,20.9679,169.41,0.334124,0.0,0.0
987,246.5,37.2837,39.1142,149.495,99.0956,94.7003,0.00566886,0.0853185,20.968,169.4,0.402205,0.0,0.0
990,247.25,37.0081,38.6511,146.728,99.0835,94.9103,0.00568195,0.0852794,20.9681,169.4,0.381483,0.0,0.0
993,248,36.806,39.1263,143.512,99.0763,95.0938,0.00569037,0.0852103,20.9682,169.4,0.363715,0.0,0.0
996,248.75,37.4098,38.4976,140.124,99.0598,95.2179,0.00572484,0.0851853,20.9682,169.39,0.350677,0.0,0.0
999,249.5,36.8432,38.3925,143.552,99.0562,94.8663,0.0057636,0.0851275,20.9683,169.4,0.383151,0.0,0.0
1002,250.25,36.4279,37.8032,148.672,99.0779,95.4662,0.00579768,0.0850361,20.9683,169.37,0.329211,0.0,0.0
1005,251,36.767,38.8741,145.5,99.0582,94.8701,0.00582959,0.0849968,20.9683,169.38,0.382982,0.0,0.0
1008,251.75,36.7558,38.7079,144.389,99.0453,95.0502,0.00584914,0.0849799,20.9683,169.36,0.365011,0.0,0.0
1011,252.5,37.0482,38.6822,148.859,99.0514,94.3345,0.0058618,0.0849675,20.9683,169.36,0.432555,0.0,0.0
1014,253.25,36.7172,38.1682,148.434,99.0409,95.3304,0.00585158,0.0849037,20.9683,169.33,0.338518,0.0,0.0
1017,254,37.01,38.5188,140.514,99.0433,94.753,0.0058337,0.0848121,20.9683,169.33,0.392597,0.0,0.0
1020,254.75,36.8884,38.5599,145.32,99.0281,95.5214,0.00580281,0.0847084,20.9683,169.33,0.319627,0.0,0.0
1023,255.5,36.8229,38.0096,144.693,99.0305,94.9053,0.00575027,0.084619,20.9683,169.31,0.377203,0.0,0.0
1026,256.25,37.043,38.3011,146.179,99.0409,94.4441,0.00571197,0.0845481,20.9683,169.3,0.421326,0.0,0.0
1029,257,36.9708,37.9978,147.428,99.022,95.775,0.0056531,0.0844377,20.9682,169.29,0.295578,0.0,0.0
1032,257.75,36.3383,38.13,150.839,99.02,95.1017,0.00559577,0.0842339,20.9681,169.29,0.357946,0.0,0.0
1035,258.5,36.5361,38.0664,148.051,99.0168,94.7804,0.0055619,0.0840327,20.968,169.27,0.387661,0.0,0.0
1038,259.25,36.4361,37.9336,145.739,99.0128,94.9954,0.00555169,0.0838861,20.9679,169.28,0.36721,0.0,0.0
1041,260,36.4274,37.6788,148.371,99.022,94.4143,0.00554425,0.0838225,20.9679,169.28,0.422442,0.0,0.0
1044,260.75,37.1556,38.0183,146.915,98.9947,94.6044,0.00558093,0.0838501,20.9678,169.26,0.402162,0.0,0.0
1047,261.5,36.3026,38.4061,138.504,98.9991,94.3727,0.00563149,0.0838898,20.9678,169.27,0.424291,0.0,0.0
1050,262.25,36.7981,37.9402,145.277,98.9971,94.8987,0.00567838,0.0839187,20.9678,169.24,0.374839,0.0,0.0
1053,263,36.6775,37.863,146.051,98.9959,94.4749,0.00571132,0.083803,20.9677,169.24,0.414415,0.0,0.0
1056,263.75,36.7017,38.2422,144.566,98.9855,95.3225,0.00573155,0.0837186,20.9677,169.24,0.334289,0.0,0.0
1059,264.5,36.4308,37.5744,148.433,98.9774,94.8435,0.00574072,0.0836708,20.9677,169.23,0.378235,0.0,0.0
1062,265.25,36.4912,37.935,144.59,98.9867,94.5483,0.0057315,0.083649,20.9677,169.21,0.406695,0.0,0.0
1065,266,36.5743,38.3671,149.873,98.9786,94.7762,0.00571611,0.0836455,20.9679,169.21,0.384631,0.0,0.0
1068,266.75,36.9124,38.023,147.658,98.9786,94.924,0.00570119,0.0835842,20.9685,169.22,0.370818,0.0,0.0
1071,267.5,36.4152,38.0366,144.095,98.9654,95.232,0.00567918,0.0834163,20.9689,169.2,0.34091,0.0,0.0
1074,268.25,36.1966,37.6752,143.69,98.979,95.2437,0.00565056,0.0832414,20.9692,169.19,0.341051,0.0,0.0
1077,269,36.607,37.6194,144.574,98.9734,94.8028,0.00562655,0.0831138,20.9694,169.2,0.381679,0.0,0.0
1080,269.75,36.6346,37.8739,144.446,98.9706,94.7638,0.00557941,0.0830071,20.9695,169.19,0.385077,0.0,0.0
1083,270.5,36.2533,37.99,140.998,98.9622,94.0863,0.00554504,0.0829235,20.9697,169.18,0.44793,0.0,0.0
1086,271.25,36.3167,38.1652,143.772,98.9525,94.7231,0.00550411,0.082804,20.9698,169.17,0.387264,0.0,0.0
1089,272,36.746,37.5523,147.577,98.9678,94.7887,0.0054718,0.0827429,20.9698,169.14,0.382496,0.0,0.0
1092,272.75,36.8791,37.6749,149.704,98.9638,95.374,0.00544979,0.0826723,20.9699,169.14,0.327559,0.0,0.0
1095,273.5,36.0331,37.2477,145.154,98.9557,94.785,0.0054382,0.082566,20.9699,169.12,0.381765,0.0,0.0
1098,274.25,36.0925,37.9175,145.645,98.9606,94.7422,0.00542728,0.082458,20.9699,169.11,0.386197,0.0,0.0
1101,275,35.9622,38.044,144.252,98.9642,94.4396,0.0054137,0.082367,20.97,169.12,0.414884,0.0,0.0
1104,275.75,35.977,37.3095,144.252,98.9566,94.7086,0.00539602,0.0822225,20.97,169.1,0.388984,0.0,0.0
1107,276.5,36.5508,37.714,144.69,98.9505,95.0863,0.00536549,0.0820955,20.97,169.08,0.353153,0.0,0.0
1110,277.25,36.4315,37.3561,146.179,98.9409,94.9336,0.0053247,0.081966,20.97,169.08,0.366544,0.0,0.0
1113,278,36.1934,37.7392,144.274,98.9505,95.4321,0.00528706,0.0818442,20.97,169.07,0.320971,0.0,0.0
1116,278.75,36.2772,37.7274,148.746,98.9461,94.9182,0.00523122,0.0817574,20.97,169.05,0.368446,0.0,0.0
1119,279.5,35.9479,37.3358,146.048,98.9377,94.9714,0.005168,0.0817361,20.97,169.04,0.362729,0.0,0.0
1122,280.25,36.3591,37.6136,153.056,98.9276,94.9211,0.00510415,0.0817821,20.9705,169.03,0.366519,0.0,0.0
1125,281,36.4452,37.6892,147.518,98.9369,94.4205,0.00505759,0.0818156,20.971,169.02,0.41423,0.0,0.0
1128,281.75,36.4916,37.0861,146.072,98.9324,95.2329,0.00495858,0.0818401,20.9713,169.03,0.33788,0.0,0.0
1131,282.5,36.2915,37.4431,147.317,98.9312,94.7314,0.00485929,0.0817894,20.9716,169.02,0.38458,0.0,0.0
1134,283.25,36.3368,37.7645,141.736,98.9204,94.3013,0.00474177,0.0817233,20.9719,169.01,0.423947,0.0,0.0
1137,284,36.9407,37.3961,144.039,98.9256,95.0909,0.00468432,0.0815971,20.9719,169.01,0.350495,0.0,0.0
1140,284.75,35.7088,37.3418,148.55,98.9321,94.9917,0.0046118,0.081505,20.9721,169.01,0.360327,0.0,0.0
1143,285.5,35.8524,37.6329,145.321,98.9216,94.5243,0.00455825,0.0812622,20.9721,169,0.403122,0.0,0.0
1146,286.25,36.0676,37.0955,143.817,98.9128,94.4798,0.00452253,0.0810767,20.9722,168.98,0.406497,0.0,0.0
1149,287,36.2585,37.6579,150.616,98.9156,94.8572,0.00450001,0.0810224,20.9722,168.97,0.371412,0.0,0.0
1152,287.75,36.3238,37.7603,144.821,98.9208,95.0066,0.00448359,0.080969,20.9723,168.96,0.357924,0.0,0.0
1155,288.5,36.3844,37.2955,145.962,98.9188,94.7434,0.0044804,0.080891,20.9723,168.95,0.382337,0.0,0.0
1158,289.25,35.9904,37.6334,144.819,98.9015,95.3466,0.00449161,0.0808125,20.9723,168.93,0.324526,0.0,0.0
1161,290,36.3652,37.6182,146.435,98.9128,94.6779,0.00451788,0.0807184,20.9723,168.93,0.387937,0.0,0.0
1164,290.75,36.3019,36.9188,142.301,98.912,94.8842,0.0045581,0.0806497,20.9723,168.93,0.368566,0.0,0.0
1167,291.5,35.5947,37.1322,144.86,98.9128,94.3956,0.00461947,0.0805997,20.9723,168.93,0.414408,0.0,0.0
1170,292.25,36.0139,37.3165,146.818,98.9011,94.9597,0.00467787,0.0805632,20.9723,168.92,0.360538,0.0,0.0
1173,293,36.3552,36.9408,144.439,98.91,94.5027,0.00473804,0.0804586,20.9723,168.91,0.404103,0.0,0.0
1176,293.75,36.5088,37.2839,146.663,98.9252,94.2221,0.00478561,0.0803175,20.9726,168.9,0.431836,0.0,0.0
1179,294.5,35.9956,37.47,146.25,98.9047,94.7522,0.00482186,0.0801039,20.9731,168.91,0.380261,0.0,0.0
1182,295.25,35.8696,37.344,150.988,98.8955,94.4375,0.00481486,0.0799345,20.9735,168.9,0.408923,0.0,0.0
1185,296,35.979,37.3175,145.235,98.8871,95.1187,0.00478965,0.0797763,20.9738,168.89,0.344446,0.0,0.0
1188,296.75,35.9992,37.063,148.711,98.9079,94.8447,0.00473689,0.0796118,20.9741,168.88,0.371892,0.0,0.0
1191,297.5,35.9057,37.1413,147.136,98.9268,95.3176,0.00461766,0.0793552,20.9742,168.87,0.329497,0.0,0.0
1194,298.25,35.7823,37.0613,149.324,98.8879,94.5097,0.00449387,0.0791098,20.9746,168.85,0.40146,0.0,0.0
1197,299,35.5559,37.1906,144.579,98.8879,94.6878,0.00437303,0.0789309,20.9752,168.85,0.384771,0.0,0.0
1200,299.75,35.8178,37.0445,147.586,98.9051,94.6866,0.00425952,0.0788278,20.9757,168.85,0.386436,0.0,0.0
1203,300.5,35.6731,37.4375,148.582,98.9043,94.3985,0.00416101,0.0787644,20.976,168.85,0.413378,0.0,0.0
1206,301.25,35.748,37.3049,147.221,98.8947,95.1353,0.00408919,0.0787376,20.9763,168.84,0.343583,0.0,0.0
1209,302,35.6103,37.0087,147.508,98.8987,94.8564,0.00403684,0.0786497,20.9765,168.84,0.369977,0.0,0.0
1212,302.75,35.8882,36.6785,143.942,98.8899,94.7293,0.00404421,0.0785421,20.9766,168.82,0.381065,0.0,0.0
1215,303.5,35.8675,36.7013,144.403,98.9035,94.7401,0.00405023,0.0784391,20.9767,168.83,0.381279,0.0,0.0
1218,304.25,35.6923,37.0371,150.057,98.9031,95.6318,0.00405573,0.078364,20.9768,168.82,0.298192,0.0,0.0
1221,305,36.0506,37.1039,145.106,98.8891,94.4296,0.00405798,0.0782118,20.9768,168.79,0.409087,0.0,0.0
1224,305.75,35.8057,36.783,143.07,98.8955,94.7721,0.00406454,0.0781008,20.9769,168.8,0.377568,0.0,0.0
1227,306.5,35.8924,36.6008,142.634,98.8855,94.2777,0.00408112,0.0779029,20.9769,168.81,0.423039,0.0,0.0
1230,307.25,36.0637,37.111,144.943,98.8971,95.1378,0.00410979,0.0777041,20.9769,168.79,0.343567,0.0,0.0
1233,308,35.7311,36.5636,146.236,98.8818,94.4151,0.00417455,0.0775142,20.9769,168.78,0.409804,0.0,0.0
1236,308.75,35.5131,37.4003,146.209,98.8802,94.9531,0.00423989,0.0773389,20.9769,168.78,0.359285,0.0,0.0
1239,309.5,35.8492,36.592,145.427,98.8979,95.3919,0.00431855,0.0771332,20.9769,168.75,0.319995,0.0,0.0
1242,310.25,35.6712,37.1625,146.477,98.8871,94.7625,0.0043794,0.0769286,20.9774,168.76,0.377706,0.0,0.0
1245,311,35.7397,36.971,146.546,98.8782,95.6679,0.00440776,0.0767562,20.9779,168.77,0.292612,0.0,0.0
1248,311.75,35.8841,36.8375,143.055,98.8842,94.8651,0.0044093,0.0765136,20.9783,168.74,0.367866,0.0,0.0
1251,312.5,35.5017,37.0559,148.673,98.9023,94.7094,0.00438938,0.0762139,20.9785,168.74,0.384046,0.0,0.0
1254,313.25,35.8772,37.1143,145.04,98.9124,95.1972,0.00434788,0.0759214,20.9787,168.719,0.339404,0.0,0.0
1257,314,35.828,37.0115,145.001,98.9071,94.1544,0.00429837,0.0756714,20.9789,168.709,0.436585,0.0,0.0
1260,314.75,35.4904,37.2238,148.617,98.9268,94.67,0.004249,0.0754502,20.9793,168.709,0.389936,0.0,0.0
1263,315.5,35.7762,37.3628,145.586,98.9429,94.9116,0.00420525,0.0752602,20.9797,168.709,0.368779,0.0,0.0
1266,316.25,35.9092,36.7953,149.275,98.9525,95.2902,0.00416008,0.0750726,20.98,168.699,0.33435,0.0,0.0
1269,317,35.6123,36.9394,142.215,98.9686,95.3665,,0.0748667,,168.689,0.328685,0.0,0.0
1272,317.75,35.8128,36.9873,145.284,98.977,94.6322,,0.0746872,,168.689,0.397972,0.0,0.0
1275,318.5,35.7921,37.0622,146.612,99.0092,94.7596,,0.0745369,,168.689,0.388919,0.0,0.0
1278,319.25,35.7112,36.8022,141.805,99.0216,95.142,,0.0743699,,168.669,0.354337,0.0,0.0
1281,320,34.9588,37.1859,145.809,99.0301,94.9024,,,,168.659,0.377439,0.0,0.0
1284,320.75,36.1268,36.8171,146.294,99.0473,95.1835,,,,168.649,0.352771,0.0,0.0
1287,321.5,35.5387,37.0316,148.139,99.1032,94.9867,,,,168.659,0.376114,0.0,0.0
1290,322.25,35.5738,36.7798,146.142,99.0972,95.418,,,,168.649,0.33541,0.0,0.0
1293,323,35.7369,37.6295,145.589,99.11,94.8962,,,,168.639,0.385175,0.0,0.0
1296,323.75,35.4356,36.7329,144.741,99.1217,95.3404,,,,168.629,0.344817,0.0,0.0
1299,324.5,35.1289,36.8374,147.288,99.1353,94.8995,,,,168.629,0.387129,0.0,0.0
1302,325.25,35.4566,36.2893,148.476,99.1807,95.2902,,,,168.629,0.354769,0.0,0.0
1305,326,35.2973,36.8741,142.753,99.2072,95.1934,,,,168.629,0.366142,0.0,0.0
1308,326.75,35.6126,36.4093,143.607,99.2145,95.2565,,,,168.609,0.360914,0.0,0.0
1311,327.5,35.4974,36.3659,147.761,99.2333,95.061,,,,168.599,0.380817,0.0,0.0