File: 02_Data/Overstuffed_Chair/Cone/Overstuffed_Chair_Cone_HF75Scan_210325_R2.csv
Names,Time,Stack TC,Smoke TC,Exh Press,Smoke Comp,Smoke Meas,CO Meter,CO2 Meter,O2 Meter,Sample Mass,Ext Coeff,Start Test,Flame Verif
Chan Gain,,500,500,1,1,1,1,1,1,1,1,1.0,1.0
Offset,,0,0,0.138348,0,0,0,0,0,0,0,0.0,0.0
Gain,,1,1,25.011,13.5067,16.616,1,1,1,1.00091,1.04608,1.0,1.0
Units,sec,C,C,Pa,%,%,%,%,%,g,/m,,
Baseline,,35.6659,39.2533,159.016,101.194,101.25,-0.000320744,0.0822352,20.8667,-3.52595,-0.00509504,,
2,0.25,34.0728,36.8895,155.315,100.913,101.164,-0.000264714,0.0834073,20.8658,482.219,-0.0228144,0.0,0.0
4,0.75,33.5682,36.7226,155.473,100.931,100.949,-0.000269802,0.0835673,20.8653,482.169,-0.0016437,0.0,0.0
6,1.25,33.7431,37.1093,157.996,100.941,101.18,-0.000314112,0.0839358,20.8649,482.139,-0.0216921,0.0,0.0
8,1.75,33.6211,36.916,163.225,100.978,101.212,-0.000350002,0.0842344,20.8645,484.161,-0.0212551,0.0,0.0
10,2.25,33.9981,37.2769,162.321,100.978,101.116,-0.000397341,0.0845762,20.864,485.302,-0.0125159,0.0,0.0
12,2.75,33.3916,37.5927,159.033,101.005,100.983,-0.000435685,0.0849431,20.8634,483.81,0.00201142,0.0,0.0
14,3.25,33.9027,36.8201,158.818,101.014,101.058,-0.000461617,0.0852403,20.8629,482.059,-0.00398149,0.0,0.0
16,3.75,33.6554,37.3417,158.537,101.041,101.419,-0.000478006,0.0855218,20.8625,482.029,-0.0343096,0.0,0.0
18,4.25,33.7791,37.5457,156.071,101.046,101.466,-0.000480385,0.0857498,20.8622,482.009,-0.0380347,0.0,0.0
20,4.75,33.5541,37.414,156.847,101.074,101.104,-0.000472505,0.0859202,20.8619,481.999,-0.00278051,0.0,0.0
22,5.25,34.0325,37.3799,159.211,101.08,101.044,-0.000452663,0.0860454,20.8617,481.979,0.00329745,0.0,0.0
24,5.75,34.0879,37.7055,162.338,101.106,101.12,-0.000424476,0.0861825,20.8615,481.979,-0.00132588,0.0,0.0
26,6.25,33.9665,37.6756,161.599,101.111,101.219,-0.000401645,0.0863257,20.8614,481.979,-0.00984472,0.0,0.0
28,6.75,34.4376,37.1114,155.727,101.137,101.155,-0.000360718,0.0864418,20.8613,481.959,-0.00157477,0.0,0.0
30,7.25,34.2381,37.4309,161.345,101.142,101.106,-0.000307378,0.0865901,20.8607,481.969,0.00325481,0.0,0.0
32,7.75,34.4743,37.7665,163.205,101.176,101.044,-0.000238525,0.0867102,20.8603,481.929,0.0120576,0.0,0.0
34,8.25,33.4795,37.6505,160.089,101.169,100.495,-0.000159673,0.086957,20.8593,481.919,0.0613829,0.0,0.0
36,8.75,33.9962,38.0055,158.795,101.196,99.2521,-9.58029e-05,0.0871569,20.8578,481.899,0.178004,0.0,0.0
38,9.25,34.4852,37.7268,161.961,101.216,98.279,4.2582e-05,0.0888164,20.8552,481.849,0.270168,0.0,0.0
40,9.75,34.741,38.1161,158.208,101.222,95.2857,0.000154674,0.0901607,20.8519,481.809,0.554551,0.0,0.0
42,10.25,34.2917,38.1296,154.342,101.25,94.908,0.00037154,0.0947691,20.8388,481.839,0.593545,0.0,0.0
44,10.75,34.3674,38.5036,151.262,101.264,97.1797,0.000547202,0.10167,20.8189,481.528,0.3778,0.0,1.0
46,11.25,34.7115,38.7777,148.782,101.261,98.9245,0.000798777,0.107259,20.791,481.388,0.214169,0.0,1.0
48,11.75,35.1794,39.6644,155.702,101.303,98.385,0.00100255,0.122781,20.7579,481.438,0.268235,0.0,1.0
50,12.25,35.4471,40.5243,144.83,101.309,96.4601,0.00128586,0.135354,20.731,481.388,0.450065,0.0,1.0
52,12.75,35.8986,41.2046,153.788,101.33,95.6787,0.00151534,0.156055,20.6935,481.318,0.526606,0.0,1.0
54,13.25,36.2834,42.0074,144.682,101.335,91.505,0.00170122,0.172824,20.6631,481.298,0.936335,0.0,1.0
56,13.75,37.3093,43.0608,147.152,101.367,90.8336,0.00194196,0.19492,20.6385,481.128,1.00678,0.0,1.0
58,14.25,37.2762,43.343,143.633,101.366,91.9786,0.00213695,0.212817,20.6111,481.098,0.891726,0.0,1.0
60,14.75,37.9632,43.7212,149.359,101.386,93.2742,0.00233465,0.229959,20.5889,481.058,0.76524,0.0,1.0
62,15.25,37.7086,44.7678,147.153,101.391,90.1992,0.00253055,0.246224,20.5709,481.038,1.07329,0.0,0.0
64,15.75,37.832,44.889,146.844,101.418,91.7007,0.00272906,0.2594,20.5564,480.848,0.924228,0.0,0.0
66,16.25,38.3904,45.1573,151.07,101.425,92.366,0.0029257,0.273021,20.5437,480.918,0.858492,0.0,0.0
68,16.75,39.0915,46.1704,149.754,101.443,93.7204,0.00313209,0.284054,20.5335,480.858,0.726592,0.0,0.0
70,17.25,38.6035,46.6226,146.491,101.442,86.6339,0.00334167,0.29299,20.5252,480.788,1.44798,0.0,0.0
72,17.75,39.5726,47.1944,144.412,101.464,87.3499,0.00351143,0.304089,20.5152,480.708,1.37443,0.0,0.0
74,18.25,40.2936,47.3878,148.764,101.469,88.2302,0.00364894,0.314559,20.5042,480.708,1.28287,0.0,0.0
76,18.75,40.3112,48.436,144.638,101.493,88.7571,0.00392624,0.324373,20.4933,480.708,1.23036,0.0,0.0
78,19.25,41.2645,48.969,149.469,101.494,86.9179,0.00415085,0.332322,20.4825,480.648,1.42261,0.0,0.0
80,19.75,40.7923,49.7025,146.911,101.5,86.1771,0.00442417,0.341326,20.4733,480.557,1.50172,0.0,0.0
82,20.25,41.7194,50.1502,147.954,101.515,89.2307,0.00464555,0.348619,20.4655,480.497,1.18354,0.0,0.0
84,20.75,41.9058,50.6991,148.034,101.538,89.1628,0.00482488,0.354527,20.4591,480.407,1.19265,0.0,0.0
86,21.25,42.5219,50.6506,149.773,101.551,87.1344,0.00508561,0.362974,20.4519,480.337,1.40496,0.0,0.0
88,21.75,42.3197,52.0055,142.706,101.561,82.7994,0.0052968,0.369816,20.4441,480.307,1.87412,0.0,0.0
90,22.25,42.9831,51.8684,146.411,101.574,83.6001,0.00554084,0.376494,20.4367,480.177,1.78697,0.0,0.0
92,22.75,42.4409,52.3297,147.796,101.57,88.3682,0.00573852,0.382925,20.4297,480.207,1.27766,0.0,0.0
94,23.25,42.8549,53.1431,143.282,101.588,86.0888,0.00592916,0.389235,20.424,480.197,1.51905,0.0,0.0
96,23.75,43.309,53.2681,148.241,101.602,86.6152,0.00611104,0.395336,20.4181,480.107,1.46442,0.0,0.0
98,24.25,44.1346,52.9389,150.914,101.627,88.2997,0.00634423,0.400278,20.4133,480.047,1.28991,0.0,0.0
100,24.75,44.3513,53.8094,145.934,101.628,81.6413,0.00653312,0.406134,20.4087,479.997,2.00941,0.0,0.0
102,25.25,44.7866,53.8864,138.309,101.638,86.3622,0.00678416,0.410877,20.4043,479.957,1.49451,0.0,0.0
104,25.75,44.7169,54.786,145.557,101.648,89.5689,0.00707575,0.415961,20.3978,479.927,1.16089,0.0,0.0
106,26.25,44.8808,54.9606,142.575,101.662,85.7369,0.00749191,0.421197,20.3899,479.847,1.5633,0.0,0.0
108,26.75,45.4235,55.3244,142.606,101.677,82.2396,0.00799097,0.427289,20.3834,479.757,1.94683,0.0,0.0
110,27.25,45.4615,56.0813,145.044,101.678,79.905,0.00839521,0.43389,20.3707,479.637,2.21116,0.0,0.0
112,27.75,46.2935,56.8547,146.675,101.688,82.9125,0.00938164,0.444202,20.3605,479.557,1.87302,0.0,0.0
114,28.25,46.475,57.3133,148.283,101.691,79.2453,0.0101807,0.452554,20.3409,479.496,2.28843,0.0,0.0
116,28.75,47.1204,57.5569,139.852,101.695,78.1875,0.0110949,0.464363,20.3148,479.416,2.41207,0.0,0.0
118,29.25,47.5264,58.9876,131.228,101.714,74.1066,0.0120758,0.478468,20.2797,479.356,2.90572,0.0,0.0
120,29.75,47.7315,59.565,137.394,101.709,72.0514,0.0130936,0.498555,20.2385,479.246,3.16331,0.0,0.0
122,30.25,48.5004,60.5259,129.063,101.726,70.9115,0.014119,0.522623,20.1849,479.136,3.31124,0.0,0.0
124,30.75,48.7848,61.7375,136.614,101.716,72.9129,0.0152855,0.542117,20.1232,479.026,3.05491,0.0,0.0
126,31.25,49.636,63.0704,125.713,101.738,69.7908,0.0162304,0.581203,20.0459,478.866,3.45849,0.0,0.0
128,31.75,50.762,64.5462,131.025,101.737,70.4835,0.0171334,0.612862,19.9585,478.786,3.36779,0.0,0.0
130,32.25,51.737,66.214,133.3,101.755,72.8424,0.0179886,0.663147,19.8877,478.646,3.06728,0.0,0.0
132,32.75,53.1987,68.3449,123.374,101.758,71.5103,0.0186814,0.703877,19.8092,478.536,3.23697,0.0,0.0
134,33.25,54.1867,70.6417,120.464,101.777,73.7972,0.01942,0.749221,19.7265,478.375,2.94978,0.0,0.0
136,33.75,55.7052,72.8325,119.925,101.768,72.6756,0.0200183,0.797066,19.6392,478.135,3.08954,0.0,0.0
138,34.25,56.6414,74.9611,130.043,101.783,75.7956,0.0205029,0.849656,19.5503,478.095,2.70512,0.0,0.0
140,34.75,58.4452,77.4645,121.431,101.791,78.3736,0.0210668,0.904705,19.4782,477.895,2.39892,0.0,0.0
142,35.25,59.8854,80.6486,120.464,101.794,80.0658,0.0215236,0.96553,19.3959,477.745,2.20324,0.0,0.0
144,35.75,61.5791,83.5509,103.175,101.786,78.2281,0.0220001,1.02941,19.3076,477.535,2.41556,0.0,0.0
146,36.25,63.3148,86.3217,117.036,101.787,77.7971,0.0224818,1.08115,19.2062,477.395,2.4663,0.0,0.0
148,36.75,65.5106,89.7192,132.884,101.783,77.3823,0.0230471,1.16504,19.097,477.264,2.51502,0.0,0.0
150,37.25,67.2537,93.1225,106.204,101.805,79.8229,0.0236627,1.23299,19.0086,477.134,2.23209,0.0,0.0
152,37.75,69.1925,96.5447,96.0907,101.797,79.6469,0.0245049,1.28802,18.8901,476.804,2.2516,0.0,0.0
154,38.25,71.4032,99.9908,110.154,101.819,77.2788,0.0251872,1.37345,18.7942,476.624,2.53053,0.0,0.0
156,38.75,72.9693,103.126,97.2333,101.811,77.7149,0.0262971,1.44264,18.6867,476.474,2.47819,0.0,0.0
158,39.25,74.7433,106.492,99.901,101.824,76.289,0.0271962,1.51683,18.5729,476.274,2.64934,0.0,0.0
160,39.75,76.9792,111.074,96.0357,101.829,75.6968,0.0285532,1.59325,18.4576,476.053,2.72126,0.0,0.0
162,40.25,79.0071,114.58,89.3937,101.834,73.6071,0.0296523,1.68462,18.3436,475.793,2.97859,0.0,0.0
164,40.75,81.4038,118.296,96.2655,101.826,72.5128,0.0305427,1.75863,18.2511,475.593,3.11536,0.0,0.0
166,41.25,82.7099,122.725,117.278,101.848,71.6979,0.0322218,1.84554,18.1763,475.363,3.22099,0.0,0.0
168,41.75,85.6056,125.916,101.633,101.823,69.9237,0.0335819,1.91594,18.0981,475.153,3.44866,0.0,0.0
170,42.25,86.5074,128.625,102.196,101.843,70.0474,0.0346836,1.99525,18.0191,474.992,3.43429,0.0,0.0
172,42.75,88.7646,132.28,109.035,101.826,66.7402,0.0366026,2.05949,17.9452,474.732,3.87653,0.0,0.0
174,43.25,91.1344,135.794,94.6588,101.841,66.5379,0.038157,2.12362,17.8765,474.502,3.90573,0.0,0.0
176,43.75,92.745,139.149,93.1735,101.824,64.255,0.0398541,2.18646,17.8208,474.302,4.22459,0.0,0.0
178,44.25,95.1882,142.857,85.6063,101.837,66.6738,0.0416229,2.23737,17.7604,474.132,3.88667,0.0,0.0
180,44.75,97.1478,146.052,111.163,101.824,66.8224,0.0434397,2.2786,17.7115,473.861,3.86506,0.0,0.0
182,45.25,98.4804,148.706,97.289,101.835,63.6658,0.0452571,2.32435,17.6687,473.551,4.31009,0.0,0.0
184,45.75,98.9197,151.134,96.6364,101.817,63.4153,0.0471989,2.37254,17.6342,473.421,4.34463,0.0,0.0
186,46.25,101.277,153.783,104.226,101.837,61.388,0.0491946,2.4156,17.6061,473.111,4.64456,0.0,0.0
188,46.75,102.265,155.715,100.752,101.824,59.2451,0.0508111,2.4541,17.5834,472.9,4.96945,0.0,0.0
190,47.25,103.751,158.041,91.9415,101.824,59.2197,0.0527995,2.48801,17.565,472.6,4.97341,0.0,0.0
192,47.75,105.382,160.072,100.753,101.826,59.1107,0.0544102,2.51792,17.5501,472.38,4.99043,0.0,0.0
194,48.25,106.981,162.103,99.2438,101.814,57.8663,0.0561244,2.54215,17.5381,472.25,5.18463,0.0,0.0
196,48.75,107.862,163.765,107.869,101.82,56.3441,0.0578816,2.56418,17.5362,472.02,5.42977,0.0,0.0
198,49.25,109.133,164.897,96.6097,101.82,57.0581,0.0595204,2.58202,17.5347,471.719,5.31426,0.0,0.0
200,49.75,110.34,166.928,100.521,101.821,58.522,0.0610418,2.59573,17.5401,471.509,5.08184,0.0,0.0
202,50.25,110.81,167.925,110.987,101.816,55.9907,0.0622742,2.60683,17.5506,471.339,5.48717,0.0,0.0
204,50.75,111.934,169.334,103.817,101.798,55.9121,0.0634629,2.6109,17.5676,471.129,5.49847,0.0,0.0
206,51.25,112.909,171.164,107.48,101.788,52.6946,0.0644257,2.6142,17.589,470.819,6.04134,0.0,0.0
208,51.75,114.091,171.921,99.5712,101.794,55.7975,0.0651201,2.61686,17.6288,470.518,5.51685,0.0,0.0
210,52.25,115.157,172.427,101.585,101.794,53.7631,0.0656826,2.6035,17.6812,470.348,5.85767,0.0,0.0
212,52.75,114.98,173.047,122.024,101.778,54.1824,0.0658582,2.59268,17.7409,470.188,5.78496,0.0,0.0
214,53.25,115.681,172.997,118.304,101.763,53.9497,0.0660005,2.56482,17.8048,469.898,5.82309,0.0,0.0
216,53.75,115.486,172.274,103.71,101.761,53.8112,0.065827,2.54226,17.8566,469.758,5.84648,0.0,0.0
218,54.25,115.785,172.547,98.8919,101.746,54.7012,0.0654265,2.50467,17.9271,469.517,5.69466,0.0,0.0
220,54.75,115.905,172.317,121.46,101.74,53.6231,0.0651022,2.47423,17.9841,469.397,5.87672,0.0,0.0
222,55.25,116.165,172.048,120.607,101.751,55.6281,0.0643632,2.42856,18.0303,469.217,5.54092,0.0,0.0
224,55.75,116.34,172.145,103.919,101.728,57.4029,0.0633361,2.39157,18.102,468.927,5.25065,0.0,0.0
226,56.25,116.173,171.056,111.558,101.72,57.0129,0.0625042,2.33876,18.16,468.767,5.31245,0.0,0.0
228,56.75,115.601,170.19,117.509,101.721,57.4876,0.0610204,2.29598,18.2364,468.567,5.23645,0.0,0.0
230,57.25,115.785,169.698,127.673,101.694,56.9064,0.0598185,2.26133,18.2983,468.466,5.3273,0.0,0.0
232,57.75,115.174,168.331,110.704,101.687,54.7939,0.0580472,2.19588,18.3701,468.356,5.67379,0.0,0.0
234,58.25,114.689,167.788,117.992,101.684,62.4285,0.0566126,2.14287,18.4477,468.186,4.47654,0.0,0.0
236,58.75,114.388,165.874,116.07,101.669,57.4303,0.0544069,2.09993,18.5275,468.056,5.24096,0.0,0.0
238,59.25,113.823,164.833,121.314,101.644,59.5544,0.0526203,2.03377,18.6073,467.896,4.90542,0.0,0.0
240,59.75,113.436,162.952,133.964,101.642,57.6447,0.050077,1.98017,18.6973,467.816,5.20429,0.0,0.0
242,60.25,112.972,162.314,108.134,101.62,62.9077,0.0480169,1.91038,18.793,467.646,4.40064,0.0,0.0
244,60.75,112.305,160.618,125.782,101.616,68.55,0.0452881,1.85385,18.8976,467.576,3.61205,0.0,0.0
246,61.25,111.912,158.936,130.086,101.598,73.8261,0.0430777,1.77316,19.0066,467.526,2.93001,0.0,0.0
248,61.75,111.391,157.754,129.014,101.602,71.5281,0.0412873,1.7078,19.0949,467.466,3.2206,0.0,0.0
250,62.25,110.357,155.129,133.071,101.575,72.7719,0.038411,1.62283,19.1878,467.415,3.0599,0.0,0.0
252,62.75,109.586,153.522,135.306,101.568,76.7469,0.0360812,1.554,19.2824,467.385,2.57126,0.0,0.0
254,63.25,108.309,151.036,137.437,101.543,76.9523,0.0332891,1.47074,19.3741,467.385,2.5445,0.0,0.0
256,63.75,106.407,148.398,137.278,101.536,80.3198,0.0310274,1.40331,19.4618,467.365,2.15089,0.0,0.0
258,64.25,105.633,146.47,138.782,101.506,72.1969,0.0287501,1.33426,19.5329,467.325,3.12648,0.0,0.0
260,64.75,104.195,144.017,131.802,101.504,79.4192,0.0265047,1.26535,19.5904,467.295,2.25145,0.0,0.0
262,65.25,103.583,142.631,142.275,101.488,87.8018,0.0246858,1.20953,19.662,467.275,1.32921,0.0,0.0
264,65.75,103.021,140.727,144.804,101.484,88.9417,0.0232126,1.13462,19.7201,467.255,1.21048,0.0,0.0
266,66.25,101.496,138.523,149.376,101.448,93.8203,0.0211033,1.07395,19.7888,467.255,0.717227,0.0,0.0
268,66.75,100.386,136.135,143.158,101.444,96.2614,0.0193947,1.01345,19.8642,467.255,0.481195,0.0,0.0
270,67.25,98.8151,134.086,145.309,101.406,97.5782,0.0174698,0.954227,19.9397,467.375,0.353083,0.0,0.0
272,67.75,97.8881,131.484,141.329,101.396,97.6604,0.0159107,0.906257,20.014,467.365,0.344465,0.0,0.0
274,68.25,96.7464,129.578,144.401,101.374,99.7354,0.0143541,0.867401,20.0877,467.335,0.149531,0.0,0.0
276,68.75,95.5443,127.593,150.186,101.367,100.13,0.0130932,0.805092,20.1597,467.315,0.112624,0.0,0.0
278,69.25,94.1174,125.719,147.448,101.33,100.533,0.0120719,0.754621,20.218,467.315,0.07248,0.0,0.0
280,69.75,93.4002,123.601,153.736,101.333,100.64,0.0109394,0.704641,20.2761,467.325,0.0629431,0.0,0.0
282,70.25,92.2011,120.799,147.104,101.29,101.116,0.010022,0.655967,20.3329,467.305,0.0157493,0.0,0.0
284,70.75,91.339,119.809,145.063,101.283,101.534,0.00914098,0.611037,20.3844,467.285,-0.0226877,0.0,0.0
286,71.25,89.8323,117.874,151.418,101.258,101.435,0.00842734,0.569692,20.4312,467.295,-0.0160174,0.0,0.0
288,71.75,88.6792,115.428,147.663,101.271,101.778,0.00777299,0.531277,20.4725,467.275,-0.0458703,0.0,0.0
290,72.25,87.8665,113.981,146.757,101.275,102.197,0.00724297,0.495729,20.509,467.305,-0.0830992,0.0,0.0
292,72.75,86.767,112.111,153.58,101.306,102.197,0.00678868,0.466934,20.5419,467.285,-0.0803814,0.0,0.0
294,73.25,85.688,110.639,145.224,101.286,102.762,0.0064207,0.436138,20.5714,467.285,-0.132754,0.0,0.0
296,73.75,84.7198,108.91,149.595,101.31,102.251,0.00612263,0.411193,20.5988,467.325,-0.0848782,0.0,0.0
298,74.25,83.2252,106.424,147.773,101.298,102.507,0.0058812,0.386135,20.621,467.295,-0.108867,0.0,0.0
300,74.75,83.1354,105.489,149.357,101.303,102.631,0.00570813,0.365838,20.6404,467.335,-0.119496,0.0,0.0
302,75.25,82.0054,103.536,154.488,101.313,102.247,0.00556793,0.345572,20.6573,467.335,-0.0842075,0.0,0.0
304,75.75,81.4498,102.188,151.426,101.326,102.125,0.00545438,0.329157,20.6715,467.365,-0.072121,0.0,0.0
306,76.25,80.5267,100.292,149.866,101.3125,101.856,0.0053953,0.312784,20.6834,467.325,-0.0491365,0.0,0.0
308,76.75,79.6405,99.3572,152.61,101.334,102.85,0.00537707,0.299521,20.693,467.335,-0.136262,0.0,0.0
310,77.25,78.6043,98.3175,151.14,101.331,102.577,0.0053623,0.28641,20.7022,467.315,-0.112143,0.0,0.0
312,77.75,77.468,97.0818,149.957,101.368,102.501,0.00538289,0.275791,20.7095,467.335,-0.101977,0.0,0.0
314,78.25,77.8634,95.8326,148.72,101.344,102.536,0.00539956,0.267189,20.7162,467.345,-0.107273,0.0,0.0
316,78.75,76.628,94.1511,149.802,101.371,102.633,0.00542362,0.256983,20.7223,467.335,-0.113519,0.0,0.0
318,79.25,75.7875,92.9155,147.644,101.368,102.49,0.00545261,0.248715,20.7271,467.325,-0.101016,0.0,0.0
320,79.75,75.4564,91.6134,151.381,101.39,102.23,0.00548598,0.242018,20.7324,467.325,-0.0756888,0.0,0.0
322,80.25,74.2093,90.7089,147.99,101.396,102.198,0.00552192,0.234097,20.7371,467.305,-0.0723365,0.0,0.0
324,80.75,73.8827,89.7666,148.759,101.407,102.376,0.00556357,0.227681,20.7414,467.305,-0.0872141,0.0,0.0
326,81.25,73.5146,89.3849,145.649,101.411,102.462,0.0056086,0.220984,20.7448,467.305,-0.0946381,0.0,0.0
328,81.75,72.6004,87.8749,146.125,101.418,102.448,0.00566138,0.215559,20.7485,467.295,-0.0927782,0.0,0.0
330,82.25,72.675,87.3663,152.294,101.427,102.915,0.00570414,0.209988,20.7515,467.315,-0.133648,0.0,0.0
332,82.75,71.8415,86.1671,152.917,101.446,102.552,0.00574273,0.205475,20.7539,467.325,-0.0994742,0.0,0.0
334,83.25,71.4321,85.4487,151.655,101.44,102.769,0.00577756,0.200846,20.7562,467.295,-0.119387,0.0,0.0
336,83.75,71.174,84.2286,153.184,101.451,102.443,0.00580776,0.197097,20.7582,467.315,-0.0892661,0.0,0.0
338,84.25,69.9863,83.4567,151.083,101.462,102.462,0.005834,0.19309,20.7602,467.285,-0.0900609,0.0,0.0
340,84.75,69.6229,82.7188,150.198,101.475,102.377,0.00585526,0.189844,20.7623,467.305,-0.0811897,0.0,0.0
342,85.25,69.6692,81.6881,156.572,101.484,102.548,0.0058888,0.186587,20.7644,467.295,-0.0956362,0.0,0.0
344,85.75,68.5626,81.0552,154.322,101.494,102.677,0.00591597,0.183382,20.7665,467.295,-0.106387,0.0,0.0
346,86.25,68.3125,80.1888,150.185,101.493,102.475,0.00596688,0.180787,20.7685,467.315,-0.0883626,0.0,0.0
348,86.75,67.5651,79.1043,153.462,101.507,102.42,0.00600811,0.177693,20.7703,467.325,-0.0821532,0.0,0.0
350,87.25,67.555,78.9388,151.55,101.509,102.385,0.00605144,0.175186,20.7717,467.315,-0.0788692,0.0,0.0
352,87.75,66.7727,78.1187,147.832,101.527,102.673,0.00609547,0.172534,20.7729,467.315,-0.103007,0.0,0.0
354,88.25,66.4343,77.1191,147.11,101.528,103.295,0.00613113,0.170386,20.7743,467.295,-0.158243,0.0,0.0
356,88.75,66.3195,76.7565,147.097,101.547,102.631,0.00615208,0.168289,20.7754,467.315,-0.0973739,0.0,0.0
358,89.25,66.095,76.2331,153.704,101.556,102.954,0.0061619,0.166271,20.7772,467.305,-0.125509,0.0,0.0
360,89.75,65.6046,75.507,149.089,101.562,103.034,0.00616985,0.164302,20.7787,467.265,-0.132006,0.0,0.0
362,90.25,64.9185,75.1165,152.135,101.582,102.799,0.00615777,0.162407,20.7798,467.255,-0.109277,0.0,0.0
364,90.75,64.3984,74.1703,154.467,101.596,102.789,0.00613133,0.160872,20.7812,467.265,-0.107197,0.0,0.0
366,91.25,64.802,73.6466,153.025,101.602,102.44,0.00609801,0.159629,20.7824,467.235,-0.0753954,0.0,0.0
368,91.75,64.1775,73.0934,153.016,101.606,102.757,0.00606032,0.157639,20.7842,467.215,-0.103331,0.0,0.0
370,92.25,64.3928,72.8685,146.097,101.616,102.647,0.0060179,0.156027,20.7856,467.235,-0.0926445,0.0,0.0
372,92.75,63.0918,72.3715,153.197,101.632,102.57,0.00597284,0.154375,20.7872,467.255,-0.0843085,0.0,0.0
374,93.25,63.4854,71.298,153.239,101.638,102.764,0.00592974,0.152724,20.7885,467.225,-0.101054,0.0,0.0
376,93.75,62.9283,71.7624,148.444,101.656,102.869,0.00588889,0.151388,20.79,467.235,-0.10883,0.0,0.0
378,94.25,62.7868,70.6167,151.758,101.653,103.465,0.00586108,0.149787,20.7912,467.235,-0.162085,0.0,0.0
380,94.75,62.4287,70.001,150.598,101.668,102.832,0.0058433,0.148322,20.7922,467.245,-0.104485,0.0,0.0
382,95.25,62.474,69.8321,158.111,101.681,102.768,0.00582891,0.146983,20.793,467.225,-0.0976293,0.0,0.0
384,95.75,61.928,69.0875,148.115,101.697,102.919,0.0058549,0.145898,20.7936,467.225,-0.109587,0.0,0.0
386,96.25,61.3244,68.6845,150.936,101.719,102.883,0.00587595,0.144727,20.7942,467.225,-0.104434,0.0,0.0
388,96.75,60.9693,68.2875,154.682,101.715,102.713,0.005893,0.143675,20.7946,467.195,-0.0896135,0.0,0.0
390,97.25,61.1709,67.7302,152.046,101.724,102.855,0.00596336,0.14273,20.7949,467.195,-0.101509,0.0,0.0
392,97.75,60.5917,67.3648,148.258,101.751,102.57,0.00602035,0.141965,20.7952,467.195,-0.0735135,0.0,0.0
394,98.25,60.2594,67.1388,151.324,101.758,102.979,0.00610929,0.141192,20.7957,467.185,-0.109418,0.0,0.0
396,98.75,60.1482,66.3821,152.95,101.773,103.172,0.00618134,0.140566,20.7962,467.225,-0.125316,0.0,0.0
398,99.25,60.2353,66.5336,151.508,101.771,103.212,0.00624698,0.139927,20.7967,467.215,-0.128982,0.0,0.0
400,99.75,59.5055,66.068,151.397,101.792,103.028,0.00630671,0.13929,20.7971,467.225,-0.110707,0.0,0.0
402,100.25,59.708,65.84,148.284,101.801,102.905,0.0063498,0.138775,20.7974,467.215,-0.0989539,0.0,0.0
404,100.75,59.4231,65.613,150.24,101.814,102.772,0.00637992,0.138162,20.7976,467.205,-0.0859845,0.0,0.0
406,101.25,59.377,65.2044,157.069,101.839,103.047,0.00640432,0.137666,20.7978,467.185,-0.10818,0.0,0.0
408,101.75,59.0009,64.8951,150.387,101.833,103.316,0.0063964,0.137191,20.798,467.165,-0.132683,0.0,0.0
410,102.25,58.7032,64.6465,158.22,101.844,103.255,0.00638998,0.13674,20.7981,467.165,-0.126237,0.0,0.0
412,102.75,58.7929,64.1281,150.76,101.862,102.73,0.00635082,0.136339,20.7982,467.165,-0.0779181,0.0,0.0
414,103.25,58.5149,64.1884,150.009,101.878,103.163,0.00631911,0.13598,20.7983,467.135,-0.115069,0.0,0.0
416,103.75,58.1424,63.6976,153.752,101.867,102.778,0.00627623,0.135602,20.7984,467.185,-0.0816913,0.0,0.0
418,104.25,58.1891,63.3756,154.905,101.892,103.316,0.00622602,0.135217,20.7989,467.145,-0.127418,0.0,0.0
420,104.75,57.6373,63.5858,153.777,101.892,102.914,0.00618336,0.134905,20.7993,467.145,-0.0915601,0.0,0.0
422,105.25,57.1561,62.6723,154.855,101.9,102.852,0.00614703,0.134332,20.7998,467.145,-0.0853744,0.0,0.0
424,105.75,57.3835,62.8845,154.667,101.911,103.284,0.0061176,0.133869,20.8005,467.135,-0.122799,0.0,0.0
426,106.25,56.9285,62.3013,151.185,101.932,103.091,0.00610381,0.133412,20.801,467.135,-0.103763,0.0,0.0
428,106.75,56.9933,62.0412,151.226,101.933,102.949,0.00609264,0.132971,20.8015,467.135,-0.0910419,0.0,0.0
430,107.25,56.7521,61.8915,149.013,101.941,102.958,0.0060949,0.132613,20.8018,467.135,-0.0910679,0.0,0.0
432,107.75,56.9365,61.4393,149.22,101.946,103.092,0.00609673,0.132254,20.8021,467.135,-0.102547,0.0,0.0
434,108.25,56.667,61.207,154.27,101.952,102.791,0.00611012,0.131963,20.8023,467.145,-0.0751776,0.0,0.0
436,108.75,56.4061,61.1935,152.255,101.965,103.201,0.00613168,0.131658,20.8025,467.135,-0.110576,0.0,0.0
438,109.25,56.2958,60.5425,155.01,101.98,102.784,0.00614915,0.13141,20.8027,467.115,-0.07203,0.0,0.0
440,109.75,56.1875,60.5932,146.199,101.974,103.097,0.00618593,0.131181,20.8028,467.105,-0.100475,0.0,0.0
442,110.25,56.1995,60.6567,152.91,102,102.981,0.00621573,0.130969,20.8029,467.095,-0.0877607,0.0,0.0
444,110.75,56.4101,60.6228,152.227,102,103.478,0.00623986,0.130761,20.803,467.115,-0.131979,0.0,0.0
446,111.25,55.9239,59.6462,150.195,102.001,102.88,0.00626067,0.130559,20.803,467.105,-0.078691,0.0,0.0
448,111.75,55.6619,60.0452,150.601,101.991,102.953,0.00628471,0.130396,20.8031,467.115,-0.0861363,0.0,0.0
450,112.25,55.7479,60.4559,149.738,102.014,102.706,0.00629117,0.130194,20.8031,467.115,-0.061978,0.0,0.0
452,112.75,55.545,59.9387,152.684,102.018,102.973,0.00626325,0.130031,20.8035,467.095,-0.0854881,0.0,0.0
454,113.25,54.9736,59.5788,152.9,102.025,103.242,0.00624063,0.129898,20.8042,467.095,-0.108821,0.0,0.0
456,113.75,55.1392,59.3837,150.562,102.026,102.934,0.00620598,0.129708,20.8047,467.095,-0.0813409,0.0,0.0
458,114.25,54.84,58.9027,148.922,102.035,103.15,0.00617791,0.129554,20.8051,467.045,-0.0996876,0.0,0.0
460,114.75,55.0059,59.2139,152.244,102.032,103.312,0.00616648,0.129303,20.8054,467.045,-0.114401,0.0,0.0
462,115.25,55.1026,59.4501,150.073,102.056,103.603,0.00617575,0.129189,20.8057,467.095,-0.138074,0.0,0.0
464,115.75,54.8939,58.8991,149.535,102.044,103.315,0.00619993,0.128995,20.8059,467.125,-0.113603,0.0,0.0
466,116.25,54.6619,58.2806,149.29,102.05,103.073,0.00621952,0.128754,20.8061,467.115,-0.0915396,0.0,0.0
468,116.75,54.1303,58.552,152.378,102.041,103.051,0.00628321,0.128559,20.8063,467.095,-0.0903233,0.0,0.0
470,117.25,54.361,58.5756,157.605,102.061,103.214,0.0063348,0.12836,20.8064,467.085,-0.103154,0.0,0.0
472,117.75,54.2348,57.7434,150.224,102.061,103.443,0.00637659,0.128199,20.8065,467.075,-0.123382,0.0,0.0
474,118.25,54.5413,58.2971,152.77,102.073,102.989,0.00644029,0.128123,20.8066,467.085,-0.0820048,0.0,0.0
476,118.75,54.5786,58.2122,149.228,102.06,102.888,0.00651874,0.128062,20.8066,467.075,-0.0741586,0.0,0.0
478,119.25,54.5048,57.4762,154.938,102.08,102.992,0.00660421,0.12811,20.8067,467.065,-0.0816378,0.0,0.0
480,119.75,54.0636,57.9866,148.277,102.075,103.531,0.00669317,0.128148,20.8067,467.045,-0.129908,0.0,0.0
482,120.25,54.1885,57.4592,149.849,102.075,103.073,0.00677386,0.128179,20.8068,467.055,-0.0892794,0.0,0.0
484,120.75,53.6861,57.5877,152.233,102.068,103.391,0.006847,0.128094,20.8068,467.075,-0.118162,0.0,0.0
486,121.25,53.9617,57.09,151.198,102.073,103.118,0.00690292,0.128024,20.8068,467.065,-0.0934733,0.0,0.0
488,121.75,53.9367,57.6936,153.671,102.074,103.329,0.00694522,0.127968,20.8068,467.085,-0.112152,0.0,0.0
490,122.25,53.9312,57.1199,151.782,102.08,103.12,0.00696287,0.127826,20.8068,467.075,-0.0929782,0.0,0.0
492,122.75,53.8599,57.3726,150.34,102.068,103.389,0.00696222,0.127681,20.8073,467.025,-0.118064,0.0,0.0
494,123.25,53.2907,57.2138,147.187,102.073,103.412,0.00693648,0.127538,20.8077,467.025,-0.119562,0.0,0.0
496,123.75,53.3158,57.2962,153.695,102.071,103.258,0.00689292,0.127363,20.8079,467.015,-0.106141,0.0,0.0
498,124.25,53.5209,56.8914,151.526,102.075,103.006,0.00685764,0.127169,20.8082,467.005,-0.08331,0.0,0.0
500,124.75,53.304,56.9031,143.834,102.055,103.063,0.00677617,0.126961,20.8084,467.015,-0.0902294,0.0,0.0
502,125.25,53.3511,56.9074,150.748,102.075,102.78,0.00671018,0.126747,20.8085,467.015,-0.063141,0.0,0.0
504,125.75,53.7464,56.5687,155.432,102.066,102.946,0.00667476,0.126566,20.8086,467.025,-0.0787483,0.0,0.0
506,126.25,52.8267,56.6697,152.178,102.068,102.954,0.00661419,0.126413,20.8087,467.055,-0.0792945,0.0,0.0
508,126.75,52.8794,56.8769,150.734,102.058,102.93,0.00656712,0.126289,20.8088,467.025,-0.0780886,0.0,0.0
510,127.25,53.1236,56.4654,155.206,102.068,103.066,0.00653078,0.126216,20.8089,467.005,-0.0893059,0.0,0.0
512,127.75,53.221,56.5036,151.568,102.049,103.434,0.00650135,0.126157,20.809,467.025,-0.123691,0.0,0.0
514,128.25,53.6854,56.2736,152.978,102.058,102.813,0.00649135,0.126109,20.809,467.035,-0.067685,0.0,0.0
516,128.75,52.9003,55.9552,151.833,102.054,103.36,0.00648325,0.126089,20.809,467.005,-0.116758,0.0,0.0
518,129.25,52.9989,56.2216,152.416,102.047,103.246,0.00648046,0.126054,20.8091,466.975,-0.107136,0.0,0.0
520,129.75,52.3471,56.2309,151.359,102.041,103.156,0.00647821,0.125957,20.8091,466.975,-0.0997025,0.0,0.0
522,130.25,52.5006,56.0306,151.266,102.036,103.3,0.0064724,0.125878,20.8093,466.965,-0.112956,0.0,0.0
524,130.75,52.4143,56.2405,152.763,102.036,103.581,0.00646413,0.125731,20.8098,466.965,-0.137832,0.0,0.0
526,131.25,52.2788,55.9315,156.044,102.026,103.156,0.00645742,0.125612,20.8101,466.985,-0.101037,0.0,0.0
528,131.75,52.1878,55.7066,147.142,102.007,103.057,0.00643564,0.12546,20.8104,466.945,-0.0940242,0.0,0.0
530,132.25,53.1574,55.5091,151.133,102.016,103.203,0.00641799,0.125337,20.8106,466.935,-0.106203,0.0,0.0
532,132.75,52.1202,55.3503,154.829,102.003,103.061,0.0063974,0.125238,20.8108,466.925,-0.0947569,0.0,0.0
534,133.25,51.9748,55.9419,152.829,101.999,103.19,0.00638073,0.125157,20.8109,466.935,-0.106514,0.0,0.0
536,133.75,52.3192,55.0051,153.416,102,103.296,0.00635842,0.125092,20.811,466.965,-0.115777,0.0,0.0
538,134.25,51.5686,55.6014,150.24,101.982,103.358,0.00634035,0.124956,20.8113,466.955,-0.12303,0.0,0.0
540,134.75,52.1749,55.1042,149.844,101.959,102.899,0.00632571,0.124845,20.8118,466.955,-0.0841468,0.0,0.0
542,135.25,51.677,54.8224,150.39,101.958,103.048,0.006295,0.124646,20.8122,466.945,-0.0975879,0.0,0.0
544,135.75,51.7643,54.6398,148.293,101.938,103.75,0.00627012,0.124484,20.8125,466.945,-0.161651,0.0,0.0
546,136.25,51.8665,54.8406,153.747,101.96,103.068,0.00625374,0.124297,20.8128,466.955,-0.0992453,0.0,0.0
548,136.75,52.0454,54.204,153.916,101.931,102.981,0.00624047,0.124146,20.813,466.955,-0.0939921,0.0,0.0
550,137.25,51.5841,54.5292,150.766,101.925,103.296,0.00624561,0.124024,20.8131,466.945,-0.122647,0.0,0.0
552,137.75,51.1979,54.4459,154.898,101.916,103.053,0.00626406,0.123881,20.8133,466.965,-0.101817,0.0,0.0
554,138.25,51.5887,55.0512,148.329,101.906,103.175,0.00627901,0.123726,20.8134,466.925,-0.113627,0.0,0.0
556,138.75,52.0016,54.5068,154.082,101.9,102.673,0.00632094,0.123601,20.8134,466.925,-0.0693535,0.0,0.0
558,139.25,51.6416,54.3375,150.452,101.883,102.982,0.00638174,0.123499,20.8135,466.935,-0.0984624,0.0,0.0
560,139.75,51.6065,54.2729,152.552,101.875,102.988,0.00643098,0.123438,20.8136,466.935,-0.0997097,0.0,0.0
562,140.25,51.0798,54.5419,150.644,101.862,103.121,0.00650995,0.123409,20.8136,466.945,-0.112736,0.0,0.0
564,140.75,51.4328,54.2204,152.732,101.844,102.897,0.00657391,0.123385,20.8137,466.945,-0.0943668,0.0,0.0
566,141.25,51.4126,54.4642,153.164,101.829,103.118,0.00665221,0.123344,20.8137,466.955,-0.115428,0.0,0.0
568,141.75,51.6418,54.4394,152.684,101.817,102.805,0.00671563,0.123291,20.8137,466.945,-0.0885846,0.0,0.0
570,142.25,51.6586,54.5918,153.384,101.814,102.799,0.00678468,0.12327,20.8137,466.945,-0.0883472,0.0,0.0
572,142.75,51.002,54.2696,149.435,101.803,102.637,0.00684061,0.123273,20.8138,466.915,-0.0748164,0.0,0.0
574,143.25,51.3762,54.5841,151.569,101.783,102.902,0.00689222,0.123275,20.8138,466.915,-0.100273,0.0,0.0
576,143.75,51.0976,53.8238,151.778,101.773,102.858,0.00693403,0.12329,20.8138,466.905,-0.0973933,0.0,0.0
578,144.25,50.926,53.7257,150.754,101.759,102.646,0.00697926,0.123303,20.8138,466.885,-0.0796465,0.0,0.0
580,144.75,50.8756,54.5336,153.945,101.746,103.019,0.0070159,0.123286,20.8138,466.895,-0.114101,0.0,0.0
582,145.25,51.3404,53.8524,151.601,101.742,103.147,0.00704558,0.123271,20.8138,466.885,-0.12593,0.0,0.0
584,145.75,51.0936,54.1516,154.951,101.718,102.928,0.00708351,0.123219,20.8136,466.875,-0.108541,0.0,0.0
586,146.25,50.916,53.5275,154.596,101.696,102.813,0.00711424,0.123176,20.8132,466.875,-0.100199,0.0,0.0
588,146.75,50.8779,54.0277,155.169,101.697,102.402,0.00713408,0.123155,20.8129,466.885,-0.0633563,0.0,0.0
590,147.25,50.5294,54.258,147.967,101.661,102.63,0.00715014,0.123152,20.8126,466.885,-0.0870915,0.0,0.0
592,147.75,50.5212,53.3059,155.238,101.661,103.039,0.00714042,0.12315,20.8124,466.885,-0.123561,0.0,0.0
594,148.25,50.6777,53.4085,156.326,101.626,102.644,0.00713255,0.123244,20.8122,466.885,-0.0914866,0.0,0.0
596,148.75,50.4112,53.5702,148.796,101.613,102.764,0.00711354,0.123321,20.8121,466.865,-0.103324,0.0,0.0
598,149.25,50.4363,53.8185,151.45,101.595,102.758,0.00708679,0.123369,20.812,466.875,-0.104427,0.0,0.0
600,149.75,50.7046,54.2751,149.502,101.582,102.479,0.00705317,0.123394,20.8119,466.895,-0.0806352,0.0,0.0
602,150.25,50.5043,54.1136,154.428,101.556,102.478,0.00701518,0.123385,20.8123,466.865,-0.0828894,0.0,0.0
604,150.75,50.3243,53.1256,152.795,101.556,102.226,0.00697777,0.123352,20.8126,466.855,-0.060341,0.0,0.0
606,151.25,50.6997,53.3852,152.462,101.518,102.565,0.0069415,0.123311,20.8128,466.865,-0.0941684,0.0,0.0
608,151.75,50.5401,53.4192,150.053,101.512,102.28,0.00689959,0.123264,20.8131,466.855,-0.0691133,0.0,0.0
610,152.25,49.8562,53.2539,150.563,101.484,102.011,0.00689495,0.123219,20.8131,466.845,-0.0475415,0.0,0.0
612,152.75,50.1947,52.8703,150.182,101.479,102.361,0.00688702,0.123176,20.8133,466.845,-0.0793624,0.0,0.0
614,153.25,49.7272,53.0209,150.121,101.441,102.115,0.00688591,0.123141,20.8134,466.845,-0.0607193,0.0,0.0
616,153.75,50.2251,53.4352,154.983,101.444,102.385,0.00688979,0.123072,20.8135,466.845,-0.0846756,0.0,0.0
618,154.25,50.1709,53.3251,153.385,101.412,102.347,0.00689227,0.123015,20.8135,466.855,-0.0842124,0.0,0.0
620,154.75,50.2205,53.5899,154.047,101.414,102.178,0.00689368,0.122909,20.8136,466.835,-0.0689198,0.0,0.0
622,155.25,50.0373,52.2808,151.182,101.384,102.207,0.00689217,0.122873,20.8136,466.835,-0.0741553,0.0,0.0
624,155.75,50.0749,52.6946,152.913,101.374,102.587,0.00688855,0.122777,20.8137,466.825,-0.109168,0.0,0.0
626,156.25,50.118,52.6466,148.541,101.353,102.375,0.00688496,0.122666,20.8137,466.845,-0.0920108,0.0,0.0
628,156.75,50.0813,52.6026,157.866,101.339,102.165,0.00688145,0.122576,20.8137,466.855,-0.0744812,0.0,0.0
630,157.25,50.1775,52.8108,155.115,101.314,101.826,0.00687861,0.12242,20.8137,466.825,-0.0462831,0.0,0.0
632,157.75,49.8062,53.0393,154.685,101.308,102.245,0.00687432,0.122294,20.8138,466.815,-0.0845188,0.0,0.0
634,158.25,49.7621,53.2196,152.759,101.277,101.959,0.00686905,0.122095,20.8138,466.805,-0.0615711,0.0,0.0
636,158.75,50.0726,52.8831,149.69,101.267,102.02,0.00686478,0.121934,20.8138,466.765,-0.0679418,0.0,0.0
638,159.25,49.9265,52.7743,156.512,101.241,101.994,0.00686132,0.121748,20.8138,466.805,-0.0680525,0.0,0.0
640,159.75,49.8172,52.705,153.258,101.221,102.109,0.00684339,0.121598,20.8138,466.825,-0.0801954,0.0,0.0
642,160.25,49.6905,52.5815,152.328,101.197,102.161,0.00682887,0.121476,20.8138,466.805,-0.0869645,0.0,0.0
644,160.75,49.7946,52.5688,154.832,101.186,102.155,0.00680649,0.12135,20.8138,466.795,-0.0873891,0.0,0.0
646,161.25,49.2841,52.8665,154.662,101.165,102.084,0.00677881,0.121247,20.8138,466.805,-0.0829915,0.0,0.0
648,161.75,49.8161,52.4486,152.722,101.145,102.194,0.0067438,0.121193,20.8138,466.805,-0.0946801,0.0,0.0
650,162.25,49.7104,52.6087,149.769,101.117,102.301,0.0067041,0.121176,20.8138,466.795,-0.106817,0.0,0.0
652,162.75,49.6541,52.5127,155.289,101.098,101.968,0.00667194,0.121162,20.8138,466.805,-0.0786154,0.0,0.0
654,163.25,49.7319,52.7467,154.307,101.087,102.025,0.00664589,0.121192,20.8138,466.805,-0.0848174,0.0,0.0
656,163.75,49.3223,52.5298,152.259,101.074,101.799,0.00664071,0.121216,20.8138,466.785,-0.0656146,0.0,0.0
658,164.25,49.5719,52.5959,151.982,101.026,101.999,0.00665083,0.121221,20.8138,466.785,-0.0879932,0.0,0.0
660,164.75,49.5862,52.622,149.067,101.017,101.966,0.0066796,0.121212,20.8138,466.765,-0.0858056,0.0,0.0
662,165.25,49.624,52.7158,150.37,100.99,101.898,0.00672142,0.121191,20.8138,466.805,-0.0820771,0.0,0.0
664,165.75,49.0898,52.407,153.344,100.978,101.933,0.00675529,0.12116,20.8143,466.755,-0.0863593,0.0,0.0
666,166.25,49.9404,52.9489,152.948,100.961,101.737,0.00680664,0.121157,20.8146,466.765,-0.0702122,0.0,0.0
668,166.75,49.8316,52.7577,151.936,100.946,101.771,0.00686976,0.121174,20.8149,466.785,-0.0746621,0.0,0.0
670,167.25,49.3184,52.4654,152.59,100.929,101.945,0.00692887,0.121173,20.8151,466.775,-0.0919131,0.0,0.0
672,167.75,49.42,53.0552,156.495,100.91,101.797,0.00698392,0.12116,20.8153,466.755,-0.0802914,0.0,0.0
674,168.25,49.1763,52.9007,156.967,100.889,101.578,0.00702652,0.121149,20.8155,466.765,-0.0624356,0.0,0.0
676,168.75,49.4923,52.5371,151.542,100.863,101.738,0.00705924,0.121071,20.8156,466.765,-0.0793072,0.0,0.0
678,169.25,49.1237,52.7552,151.628,100.85,101.506,0.00708573,0.121008,20.8157,466.755,-0.0595367,0.0,0.0
680,169.75,49.3143,52.3447,149.99,100.839,101.807,0.00708067,0.120956,20.8158,466.755,-0.0876552,0.0,0.0
682,170.25,49.4469,52.691,154.068,100.811,102.067,0.00706528,0.120915,20.8158,466.755,-0.113669,0.0,0.0
684,170.75,49.19,52.51,149.27,100.787,101.828,0.00704265,0.120874,20.8159,466.745,-0.0943392,0.0,0.0
686,171.25,49.1752,52.2073,150.953,100.761,101.573,0.00701768,0.120835,20.8162,466.755,-0.0736525,0.0,0.0
688,171.75,49.6726,52.5252,156.215,100.748,101.459,0.00699148,0.120766,20.8166,466.745,-0.0645493,0.0,0.0
690,172.25,48.9721,52.781,152.851,100.723,102.005,0.00697025,0.120678,20.8169,466.735,-0.116046,0.0,0.0
692,172.75,49.2509,52.7965,154.881,100.697,101.832,0.00695306,0.120548,20.8172,466.745,-0.102889,0.0,0.0
694,173.25,49.2008,51.9671,152.052,100.67,101.469,0.00691392,0.120391,20.8175,466.745,-0.072519,0.0,0.0
696,173.75,48.8978,52.3984,155.538,100.666,101.632,0.00688221,0.120228,20.8176,466.725,-0.0876867,0.0,0.0
698,174.25,48.4567,51.7251,151.632,100.656,101.363,0.00684393,0.120062,20.8178,466.715,-0.0641621,0.0,0.0
700,174.75,48.7293,52.1358,151.92,100.631,101.552,0.00681292,0.119928,20.8179,466.695,-0.0836434,0.0,0.0
702,175.25,49.2991,52.5361,152.188,100.611,101.373,0.00676638,0.119711,20.818,466.685,-0.0691766,0.0,0.0
704,175.75,49.3629,52.1157,149.973,100.592,101.304,0.00672869,0.119437,20.8181,466.705,-0.0647448,0.0,0.0
706,176.25,48.6686,52.0546,156.203,100.569,101.432,0.00666291,0.119186,20.8182,466.735,-0.0783798,0.0,0.0
708,176.75,49.0073,51.7119,158.337,100.564,101.183,0.00660963,0.118957,20.8182,466.735,-0.0562723,0.0,0.0
710,177.25,48.9458,51.3419,156.286,100.539,101.313,0.00653251,0.118771,20.8183,466.745,-0.070377,0.0,0.0
712,177.75,49.0273,51.7689,155.925,100.524,101.43,0.00647005,0.118717,20.8183,466.765,-0.082289,0.0,0.0
714,178.25,48.4745,52.3452,153.442,100.509,101.696,0.00640622,0.118673,20.8183,466.745,-0.107733,0.0,0.0
716,178.75,48.7201,52.4146,155.605,100.49,101.526,0.00634262,0.118568,20.8183,466.725,-0.0941336,0.0,0.0
718,179.25,48.7099,52.0235,154.962,100.479,101.137,0.0062911,0.118484,20.8184,466.705,-0.0599672,0.0,0.0
720,179.75,48.9498,52.1168,149.68,100.463,101.086,0.00624937,0.11825,20.8186,466.655,-0.0567032,0.0,0.0
722,180.25,48.7853,52.1519,150.025,100.446,101.02,0.00622218,0.11806,20.819,466.675,-0.0522615,0.0,0.0
724,180.75,48.4146,51.8869,151.533,100.428,101.256,0.00620611,0.117879,20.8193,466.715,-0.0753199,0.0,0.0
726,181.25,47.9307,51.5039,155.923,100.423,101.482,0.00619309,0.117733,20.8197,466.735,-0.0962441,0.0,0.0
728,181.75,48.2309,51.1698,154.9,100.395,101.391,0.00620017,0.117599,20.82,466.695,-0.090595,0.0,0.0
730,182.25,48.6531,50.9832,149.291,100.387,100.926,0.0062059,0.117478,20.8204,466.695,-0.0491602,0.0,0.0
732,182.75,48.2317,51.6822,150.289,100.368,101.044,,0.11738,,466.725,-0.061592,0.0,0.0
734,183.25,47.8236,51.4014,152.343,100.358,101.304,,0.117301,,466.715,-0.0860811,0.0,0.0
736,183.75,48.1629,51.7384,150.465,100.345,100.919,,0.117237,,466.675,-0.0523671,0.0,0.0
738,184.25,48.2919,51.7807,149.886,100.338,101.511,,0.117282,,466.685,-0.106695,0.0,0.0
740,184.75,48.5273,51.6774,151.824,100.314,100.995,,0.11734,,466.675,-0.0620991,0.0,0.0
742,185.25,48.7753,51.9338,152.014,100.307,101.208,,0.117407,,466.675,-0.0820324,0.0,0.0
744,185.75,48.0521,51.8545,155.37,100.307,101.077,,,,466.695,-0.0702012,0.0,0.0
746,186.25,48.5825,51.7029,151.511,100.293,101.436,,,,466.685,-0.10398,0.0,0.0
748,186.75,47.9029,51.1842,155.323,100.267,101.182,,,,466.685,-0.0833464,0.0,0.0
750,187.25,48.0859,51.2511,157.293,100.28,101.013,,,,466.665,-0.0668503,0.0,0.0
752,187.75,48.0246,51.1441,151.609,100.267,101.346,,,,466.665,-0.0982711,0.0,0.0
754,188.25,48.0181,51.5355,146.146,100.253,101.215,,,,466.655,-0.0875713,0.0,0.0
756,188.75,48.2918,51.8825,152.426,100.238,101.122,,,,466.635,-0.0805127,0.0,0.0
758,189.25,48.2676,51.7874,153.517,100.233,100.871,,,,466.665,-0.0581606,0.0,0.0
760,189.75,48.2538,51.564,151.757,100.21,101.061,,,,466.675,-0.0775563,0.0,0.0
762,190.25,48.0783,51.0387,155.57,100.215,100.641,,,,466.665,-0.0389387,0.0,0.0
764,190.75,48.2384,51.2857,149.818,100.192,100.752,,,,466.645,-0.0510883,0.0,0.0
766,191.25,48.1097,51.4343,154.51,100.203,100.909,,,,466.645,-0.0644584,0.0,0.0
768,191.75,47.5797,50.9454,152.449,100.181,101.287,,,,466.605,-0.100664,0.0,0.0
770,192.25,47.934,51.1769,155.656,100.186,101.095,,,,466.605,-0.0829049,0.0,0.0
772,192.75,48.4524,50.5715,151.343,100.171,101.277,,,,466.595,-0.100735,0.0,0.0
774,193.25,48.1979,51.5171,154.625,100.17,100.893,,,,466.595,-0.0660024,0.0,0.0