File: 02_Data/Overstuffed_Chair/Cone/Overstuffed_Chair_Cone_HF25Scan_210325_R2.csv
Names,Time,Stack TC,Smoke TC,Exh Press,Smoke Comp,Smoke Meas,CO Meter,CO2 Meter,O2 Meter,Sample Mass,Ext Coeff,Start Test,Flame Verif
Chan Gain,,500,500,1,1,1,1,1,1,1,1,1.0,1.0
Offset,,0,0,0.138348,0,0,0,0,0,0,0,0.0,0.0
Gain,,1,1,25.011,13.5067,16.616,1,1,1,1.00091,1.04608,1.0,1.0
Units,sec,C,C,Pa,%,%,%,%,%,g,/m,,
Baseline,,19.3942,20.4808,169.476,100.746,99.8962,-0.000253511,0.0823985,20.8404,-0.259445,0.0777407,,
3,0.5,16.8662,17.6134,168.551,101.071,100.344,-0.000485632,0.0871779,20.8335,498.924,0.0662517,0.0,0.0
6,1.25,17.182,17.5457,162.553,101.065,100.29,-0.000492078,0.0879425,20.833,498.934,0.0706533,0.0,0.0
9,2,17.4806,18.0648,168.277,101.06,100.233,-0.000485817,0.0887181,20.8326,498.914,0.0753924,0.0,0.0
12,2.75,16.9632,17.5628,166.462,101.052,100.315,-0.000466837,0.0894183,20.8325,498.904,0.06709,0.0,0.0
15,3.5,17.0608,17.7882,166.775,101.061,100.238,-0.000448848,0.0899287,20.8329,498.884,0.074966,0.0,0.0
18,4.25,17.5706,18.2034,165.395,101.061,100.282,-0.000422338,0.0902864,20.8331,499.024,0.0709279,0.0,0.0
21,5,17.2925,18.4409,166.061,101.046,100.309,-0.000397301,0.0905228,20.8333,498.884,0.0671595,0.0,0.0
24,5.75,17.5739,18.7828,168.845,101.066,100.17,-0.000373838,0.0907144,20.8334,499.615,0.0816839,0.0,0.0
27,6.5,17.8668,18.7958,170.403,101.048,100.081,-0.000361605,0.0908399,20.8338,499.224,0.0882073,0.0,0.0
30,7.25,17.9204,18.3858,171.244,101.041,100.284,-0.000354764,0.0909068,20.8344,500.786,0.0690303,0.0,0.0
33,8,17.5653,18.6694,168.138,101.033,100.216,-0.000351514,0.0908603,20.8349,500.536,0.0745103,0.0,0.0
36,8.75,17.6067,19.3005,165.264,101.02,100.232,-0.000343051,0.09075,20.8351,500.185,0.0718548,0.0,0.0
39,9.5,17.2551,19.4006,171.382,101.033,100.187,-0.000331079,0.0906084,20.8352,500.225,0.0771943,0.0,0.0
42,10.25,17.8471,19.4235,167.485,101.022,100.215,-0.000316871,0.0904664,20.8352,500.195,0.0736672,0.0,0.0
45,11,17.6444,18.797,169.119,101.021,100.092,-0.000299463,0.0903624,20.8352,500.035,0.0847516,0.0,0.0
48,11.75,17.7302,18.8008,169.126,101.015,100.093,-0.000274717,0.0902859,20.8346,499.695,0.0841425,0.0,0.0
51,12.5,17.3089,19.3298,169.299,101.004,100.127,-0.000237569,0.0902029,20.8337,499.755,0.0800087,0.0,0.0
54,13.25,17.9537,18.7702,167.037,101.007,100.156,-0.000195876,0.0901523,20.8329,500.045,0.0777063,0.0,0.0
57,14,17.5945,19.5374,170.413,101.004,100.111,-0.000152201,0.0901522,20.8323,500.235,0.0815061,0.0,0.0
60,14.75,17.9856,19.1213,164.151,100.996,100.23,-0.000108306,0.0903017,20.8312,499.915,0.0697935,0.0,0.0
63,15.5,18.2986,19.5691,168.335,100.991,99.9777,-7.02163e-05,0.0905247,20.8302,499.595,0.092567,0.0,0.0
66,16.25,18.1968,19.5722,161.212,100.993,100.107,-4.04937e-05,0.0907729,20.8291,499.124,0.0808653,0.0,0.0
69,17,18.0814,19.4918,168.379,100.98,100.238,-1.99222e-05,0.0910901,20.8282,498.584,0.0676742,0.0,0.0
72,17.75,17.9437,19.181,170.521,100.959,100.037,-4.92549e-06,0.0914438,20.8276,498.254,0.0842487,0.0,0.0
75,18.5,18.3043,20.105,168.013,100.958,100.122,-2.35221e-05,0.091812,20.8272,498.063,0.0762418,0.0,0.0
78,19.25,18.3743,19.663,166.649,100.949,100.331,-6.14354e-05,0.0921387,20.8269,498.764,0.0563734,0.0,0.0
81,20,17.8374,19.1738,167.26,100.946,100.13,-0.000112277,0.0923769,20.8266,498.734,0.0744853,0.0,0.0
84,20.75,18.1874,19.5098,167.723,100.948,100.139,-0.00017126,0.0926671,20.8265,498.734,0.0737616,0.0,0.0
87,21.5,17.4841,19.6521,169.442,100.909,100.039,-0.000220668,0.0928786,20.8263,498.714,0.0794817,0.0,0.0
90,22.25,17.0643,19.4745,168.8,100.917,100.079,-0.000267647,0.0930717,20.8269,498.724,0.0765293,0.0,0.0
93,23,17.8565,19.2567,171.177,100.913,99.9813,-0.000281051,0.0931988,20.8274,498.704,0.0850854,0.0,0.0
96,23.75,18.2294,19.2767,166.005,100.907,99.993,-0.000268902,0.0932857,20.8275,498.724,0.08349,0.0,0.0
99,24.5,17.6999,19.3388,165.942,100.882,100.124,-0.000250701,0.0933899,20.8271,498.714,0.0691964,0.0,0.0
102,25.25,17.7096,20.0017,170.002,100.876,100.001,-0.000210641,0.0935479,20.8269,498.714,0.0800174,0.0,0.0
105,26,17.777,19.999,172.011,100.876,99.9103,-0.000164887,0.0937734,20.8267,498.714,0.0883037,0.0,0.0
108,26.75,17.9129,19.2463,165.74,100.858,100.057,-0.000122765,0.0941323,20.8266,498.714,0.0731583,0.0,0.0
111,27.5,18.2048,18.7978,163.899,100.837,99.9154,-8.96221e-05,0.0945712,20.8262,498.704,0.0842758,0.0,0.0
114,28.25,18.5708,19.9444,169.039,100.834,99.8804,-6.82686e-05,0.0949667,20.8256,498.704,0.0872267,0.0,0.0
117,29,17.7809,19.5854,168.945,100.831,99.9311,-5.92782e-05,0.0954691,20.8245,498.714,0.0822704,0.0,0.0
120,29.75,18.149,20.1352,170.799,100.817,99.8312,-5.46831e-05,0.0959582,20.824,498.734,0.0901713,0.0,0.0
123,30.5,18.48,19.7823,168.053,100.801,99.8261,-4.93744e-05,0.0963671,20.8233,498.694,0.0891747,0.0,0.0
126,31.25,18.7281,19.8874,172.213,100.783,99.8276,-3.50823e-05,0.0967626,20.8229,498.694,0.0873828,0.0,0.0
129,32,17.9926,19.6708,167.288,100.778,99.6882,-1.50464e-05,0.0970508,20.8225,498.684,0.09976,0.0,0.0
132,32.75,18.115,20.1682,171.719,100.758,99.6375,1.60046e-05,0.0971982,20.8229,498.694,0.102589,0.0,0.0
135,33.5,18.1289,19.9679,169.818,100.761,99.4757,5.08271e-05,0.0973001,20.8234,498.694,0.117798,0.0,0.0
138,34.25,18.123,19.9423,165.801,100.73,99.1877,8.0125e-05,0.0973095,20.8242,498.684,0.141591,0.0,0.0
141,35,18.4703,20.3012,170.761,100.726,98.9357,9.92895e-05,0.0972548,20.8253,498.604,0.164596,0.0,0.0
144,35.75,18.8787,19.9104,168.103,100.72,98.6903,0.000102831,0.097136,20.8266,498.644,0.186824,0.0,0.0
147,36.5,18.2125,20.1304,170.199,100.706,98.673,9.20119e-05,0.0969143,20.8278,498.574,0.187113,0.0,0.0
150,37.25,18.114,19.8878,165.676,100.682,98.1426,7.13609e-05,0.0965192,20.8286,498.624,0.234393,0.0,0.0
153,38,18.4148,20.1577,166.575,100.684,97.2507,4.42496e-05,0.0960949,20.8292,498.614,0.318395,0.0,0.0
156,38.75,18.6762,20.5765,166.297,100.688,97.2968,2.44854e-05,0.0956771,20.8297,498.584,0.314418,0.0,0.0
159,39.5,18.0635,20.7453,167.621,100.66,97.8003,1.00773e-05,0.0952868,20.83,498.584,0.264497,0.0,0.0
162,40.25,18.3601,19.5821,169.938,100.643,97.0889,1.78398e-05,0.0949244,20.8301,498.564,0.329913,0.0,0.0
165,41,18.2882,20.0298,165.067,100.625,97.0245,4.66802e-05,0.0946603,20.8299,498.544,0.334349,0.0,0.0
168,41.75,18.4277,20.4318,169.637,100.628,96.9733,9.40294e-05,0.0946232,20.8285,498.534,0.339494,0.0,0.0
171,42.5,19.0092,20.4615,167.958,100.601,97.0417,0.000144401,0.0947833,20.8272,498.514,0.3305,0.0,0.0
174,43.25,18.6902,20.8669,167.356,100.588,96.4231,0.000187238,0.0952198,20.8259,498.474,0.388019,0.0,0.0
177,44,19.0564,20.6132,166.536,100.584,96.7674,0.000217369,0.095729,20.825,498.494,0.354935,0.0,0.0
180,44.75,18.9372,21.0346,163.813,100.567,96.6417,0.000230349,0.0962392,20.8243,498.474,0.365326,0.0,0.0
183,45.5,19.0996,20.7383,168.326,100.558,96.237,0.000224446,0.0967094,20.8223,498.464,0.403,0.0,0.0
186,46.25,18.962,20.5659,167.262,100.533,96.594,0.000212445,0.0970659,20.8209,498.434,0.36673,0.0,0.0
189,47,18.9183,20.1368,164.324,100.527,96.1397,0.000190531,0.0973316,20.8204,498.414,0.409467,0.0,0.0
192,47.75,18.7436,20.7472,172.791,100.521,96.8237,0.000178033,0.0974706,20.8201,498.404,0.343919,0.0,0.0
195,48.5,18.9325,20.9023,169.814,100.501,96.5418,0.000168921,0.0975487,20.8199,498.374,0.368834,0.0,0.0
198,49.25,19.0584,20.9856,164.834,100.5,95.9206,0.000167494,0.0975472,20.8204,498.364,0.42799,0.0,0.0
201,50,19.2767,20.6026,169.381,100.479,96.1833,0.000172552,0.0974528,20.8209,498.374,0.400902,0.0,0.0
204,50.75,19.1724,20.7731,166.172,100.476,96.0352,0.000178839,0.0972242,20.8217,498.364,0.414775,0.0,0.0
207,51.5,19.1122,20.9907,169.874,100.474,95.2061,0.000181682,0.0968435,20.8227,498.314,0.494186,0.0,0.0
210,52.25,19.2213,20.8462,172.516,100.465,95.5961,0.00017888,0.0964723,20.8234,498.294,0.455814,0.0,0.0
213,53,18.7038,21.1217,163.696,100.437,95.7396,0.000174758,0.0960414,20.824,498.304,0.439489,0.0,0.0
216,53.75,19.3108,21.0085,169.609,100.427,94.3694,0.000163223,0.0956046,20.8243,498.304,0.570891,0.0,0.0
219,54.5,19.0774,21.3368,168.326,100.418,95.5352,0.000146687,0.0951622,20.8246,498.264,0.457402,0.0,0.0
222,55.25,18.8914,21.6957,165.068,100.402,95.3765,0.000126957,0.094717,20.8248,498.254,0.471228,0.0,0.0
225,56,19.5197,21.3931,168.257,100.385,95.1032,0.000121263,0.0943652,20.8245,498.234,0.495941,0.0,0.0
228,56.75,19.4384,20.4681,169.284,100.391,95.2852,0.000141449,0.0940971,20.8232,498.234,0.478958,0.0,0.0
231,57.5,18.8847,20.9442,165.695,100.369,95.1853,0.000168357,0.0939794,20.8219,498.204,0.486549,0.0,0.0
234,58.25,19.486,21.643,166.397,100.367,95.7735,0.000194455,0.0940027,20.821,498.163,0.429867,0.0,0.0
237,59,19.2899,20.9375,167.969,100.347,96.6432,0.000215675,0.0941378,20.8199,498.163,0.345113,0.0,0.0
240,59.75,19.6107,21.0227,164.736,100.338,95.4039,0.000231144,0.094359,20.8188,498.153,0.462753,0.0,0.0
243,60.5,19.3629,21.3367,168.206,100.336,95.5094,0.00022779,0.0945981,20.8181,498.123,0.452388,0.0,0.0
246,61.25,19.2845,21.4889,170.609,100.336,94.8796,0.000229376,0.0948678,20.8176,498.123,0.513058,0.0,0.0
249,62,19.4337,21.0083,170.824,100.313,96.2477,0.00024809,0.0951051,20.8172,498.093,0.379578,0.0,0.0
252,62.75,19.6808,21.1064,164.215,100.296,94.8167,0.000320327,0.0955116,20.8169,498.083,0.515521,0.0,0.0
255,63.5,19.2768,21.3963,169.828,100.302,95.3932,0.000468895,0.095808,20.8134,498.083,0.460422,0.0,0.0
258,64.25,19.6467,21.2741,170.611,100.294,94.6478,0.000643551,0.0970174,20.8054,497.523,0.531689,0.0,0.0
261,65,19.2014,21.6487,163.352,100.262,98.4484,0.000832626,0.0986992,20.7876,498.053,0.167526,0.0,0.0
264,65.75,19.7517,22.207,157.855,100.263,98.561,0.00106325,0.101293,20.7668,497.853,0.157152,0.0,0.0
267,66.5,19.2495,22.7545,166.37,100.263,98.4666,0.00123138,0.106306,20.7482,497.443,0.165862,0.0,0.0
270,67.25,20.4863,23.0475,163.474,100.249,98.3531,0.00147149,0.112731,20.7347,497.633,0.175208,0.0,0.0
273,68,20.7141,23.6639,155.911,100.24,98.8008,0.00164652,0.120244,20.7148,497.633,0.132661,0.0,1.0
276,68.75,20.796,25.198,157.406,100.22,97.9225,0.00190073,0.128537,20.6966,497.613,0.212821,0.0,1.0
279,69.5,21.654,25.2168,160.681,100.232,97.8865,0.00210489,0.139393,20.6819,497.473,0.21729,0.0,1.0
282,70.25,21.7636,26.0408,160.651,100.224,97.6883,0.00228596,0.147307,20.6661,497.513,0.235177,0.0,1.0
285,71,22.6803,26.4134,159.959,100.199,96.9591,0.00241548,0.155679,20.6521,497.443,0.301625,0.0,0.0
288,71.75,22.9243,27.1456,159.428,100.181,98.1761,0.00250041,0.166233,20.6375,497.403,0.185544,0.0,0.0
291,72.5,23.5077,27.7449,162.786,100.194,96.9581,0.00254786,0.177538,20.6206,497.443,0.301268,0.0,0.0
294,73.25,23.6791,28.0891,160.703,100.207,96.8404,0.00257365,0.187254,20.6065,497.293,0.313541,0.0,0.0
297,74,23.867,28.5789,165.476,100.171,97.5088,0.00259245,0.196859,20.5955,497.233,0.247147,0.0,0.0
300,74.75,24.2409,29.2901,161.706,100.168,98.1837,0.00261496,0.206453,20.5862,497.203,0.183625,0.0,0.0
303,75.5,24.5458,29.5938,164.966,100.162,98.1482,0.00264249,0.215498,20.5788,497.203,0.186377,0.0,0.0
306,76.25,24.6642,30.0396,163.888,100.158,97.0068,0.00267835,0.223707,20.5734,497.072,0.293378,0.0,1.0
309,77,24.8751,30.4588,159.028,100.142,97.3866,0.0027234,0.232525,20.567,497.012,0.256011,0.0,1.0
312,77.75,25.5994,31.1746,157.877,100.13,98.0732,0.00278097,0.239689,20.5623,496.982,0.190449,0.0,1.0
315,78.5,26.2228,31.8054,164.651,100.132,98.4671,0.00283738,0.246169,20.5589,496.932,0.153885,0.0,1.0
318,79.25,25.8796,31.6007,160.376,100.125,97.6649,0.00288518,0.252249,20.5558,496.992,0.228308,0.0,1.0
321,80,26.3578,32.2794,160.419,100.128,98.0787,0.00290945,0.257487,20.5509,496.862,0.189739,0.0,1.0
324,80.75,25.9626,32.2116,158.458,100.106,97.8429,0.00292714,0.262683,20.5462,496.772,0.209824,0.0,1.0
327,81.5,26.1082,32.3983,153.268,100.111,97.7882,0.00289419,0.268644,20.541,496.732,0.215415,0.0,1.0
330,82.25,26.1147,33.0314,159.565,100.104,98.3313,0.00286106,0.274383,20.5365,496.632,0.163914,0.0,1.0
333,83,26.9371,33.6193,158.151,100.107,98.3901,0.00282135,0.279161,20.5326,496.632,0.158767,0.0,1.0
336,83.75,26.9748,33.4906,158.751,100.085,98.0032,0.0027924,0.284045,20.5293,496.582,0.192919,0.0,1.0
339,84.5,26.7257,34.2218,157.47,100.085,97.2872,0.00277747,0.288203,20.5267,496.472,0.260129,0.0,1.0
342,85.25,27.2769,34.2569,157.853,100.073,97.1868,0.00277507,0.29302,20.5248,496.492,0.268583,0.0,0.0
345,86,27.7163,34.528,158.77,100.083,97.3729,0.00278333,0.297558,20.5209,496.402,0.251898,0.0,0.0
348,86.75,28.1514,34.9409,155.746,100.068,97.4008,0.00281051,0.301302,20.5181,496.322,0.247871,0.0,0.0
351,87.5,27.9385,34.8634,161.301,100.053,96.8835,0.00283032,0.30521,20.516,496.342,0.295368,0.0,0.0
354,88.25,28.7777,35.5744,158.788,100.043,97.0154,0.00286945,0.30884,20.514,496.292,0.28202,0.0,0.0
357,89,29.0351,35.7523,159.384,100.046,94.8623,0.00290664,0.312182,20.5124,496.242,0.488187,0.0,0.0
360,89.75,28.893,36.1346,163.897,100.042,95.9931,0.00294851,0.315239,20.5113,496.112,0.37911,0.0,0.0
363,90.5,28.9463,36.5732,156.581,100.032,95.9997,0.00299797,0.318112,20.5104,496.092,0.377535,0.0,0.0
366,91.25,29.0219,36.5005,158.394,100.032,96.4956,0.00303402,0.32048,20.5098,495.992,0.330292,0.0,0.0
369,92,29.4541,36.5127,159.759,100.033,95.1077,0.00318056,0.323263,20.5085,496.012,0.463305,0.0,0.0
372,92.75,29.7838,37.4976,150.897,100.029,93.371,0.00338905,0.326081,20.5061,496.012,0.632077,0.0,0.0
375,93.5,29.9121,37.1948,151.297,100.018,94.408,0.0036272,0.328471,20.5019,495.881,0.529708,0.0,0.0
378,94.25,29.7314,37.4471,157.509,100.018,94.6164,0.00390746,0.332182,20.494,495.811,0.509435,0.0,0.0
381,95,30.1497,38.1385,151.013,100.015,92.5171,0.00411177,0.335726,20.4862,495.801,0.715022,0.0,0.0
384,95.75,30.4181,38.7583,149.7,100.017,91.1561,0.00434619,0.341251,20.471,495.711,0.851276,0.0,0.0
387,96.5,31.2209,39.4256,157.234,100.005,94.769,0.00455583,0.346889,20.4583,495.621,0.49351,0.0,0.0
390,97.25,31.2749,39.74,150.179,99.9972,92.6439,0.00474362,0.351684,20.4461,495.561,0.700868,0.0,0.0
393,98,31.1073,40.5111,162.494,99.9972,94.6189,0.00492193,0.358022,20.4337,495.471,0.507298,0.0,0.0
396,98.75,32.3933,40.3985,147.867,99.9885,91.4882,0.00506883,0.364131,20.4146,495.431,0.815255,0.0,0.0
399,99.5,32.6411,41.4487,156.641,99.9807,92.8675,0.00516965,0.371129,20.3954,495.251,0.677231,0.0,0.0
402,100.25,32.8024,42.403,147.573,99.9778,93.9308,0.00522731,0.379548,20.3811,495.211,0.572496,0.0,0.0
405,101,33.4403,42.443,147.313,99.9807,92.5911,0.0052468,0.387615,20.3698,495.081,0.704579,0.0,0.0
408,101.75,33.5802,43.2478,151.612,99.9683,93.6149,0.00526102,0.394951,20.3611,495.041,0.602541,0.0,0.0
411,102.5,34.344,43.8797,153.489,99.9655,94.7061,0.00525531,0.401383,20.3535,494.971,0.495931,0.0,0.0
414,103.25,34.5555,44.2543,146.355,99.9597,93.3563,0.00528495,0.407749,20.3474,494.921,0.627129,0.0,0.0
417,104,34.5927,44.7215,158.063,99.9642,93.8421,0.00532097,0.412389,20.3429,494.83,0.579921,0.0,0.0
420,104.75,34.9969,45.5126,144.175,99.9663,90.8356,0.00541156,0.419099,20.3278,494.75,0.878902,0.0,0.0
423,105.5,35.8815,46.4561,149.776,99.9741,91.5993,0.00551271,0.423991,20.3114,494.69,0.802801,0.0,0.0
426,106.25,36.0376,46.876,147.764,99.9477,87.3525,0.00560936,0.432919,20.2904,494.5,1.23599,0.0,0.0
429,107,36.8764,48.3618,149.688,99.9535,91.8787,0.00569336,0.441969,20.2751,494.49,0.772962,0.0,0.0
432,107.75,37.3351,48.6697,144.507,99.9477,92.0465,0.00575102,0.450594,20.263,494.42,0.755684,0.0,0.0
435,108.5,38.1667,49.1431,153.687,99.9481,91.8437,0.00579306,0.458496,20.2526,494.35,0.775965,0.0,0.0
438,109.25,38.2245,50.1738,150.797,99.9354,93.01,0.00580864,0.46558,20.245,494.26,0.659001,0.0,0.0
441,110,37.9531,49.3679,147.745,99.9424,94.1113,0.00580698,0.471299,20.2395,494.14,0.551624,0.0,0.0
444,110.75,38.8599,51.1269,146.585,99.937,93.2387,0.00579448,0.476417,20.2354,494.1,0.636619,0.0,0.0
447,111.5,38.4502,51.2456,143.895,99.9444,91.3609,0.00579289,0.482375,20.2293,493.98,0.823982,0.0,0.0
450,112.25,40.1207,52.1988,141.178,99.9205,94.7077,0.00581344,0.487667,20.2192,493.88,0.491658,0.0,0.0
453,113,39.87,53.0606,143.396,99.935,92.257,0.00586005,0.49585,20.2014,493.759,0.733556,0.0,0.0
456,113.75,40.4344,53.5191,160.987,99.9271,90.9233,0.00596945,0.504754,20.1839,493.729,0.866451,0.0,0.0
459,114.5,41.5549,55.2003,140.104,99.9284,91.4831,0.00608135,0.512497,20.1683,493.529,0.810239,0.0,0.0
462,115.25,42.3321,56.0771,151.359,99.9214,91.4005,0.00623059,0.521422,20.1522,493.449,0.81789,0.0,0.0
465,116,42.2595,55.8415,149.409,99.9193,92.3797,0.00645508,0.530576,20.1392,493.339,0.719921,0.0,0.0
468,116.75,42.7119,56.7362,145.48,99.9131,91.1206,0.00666464,0.539387,20.1297,493.329,0.845278,0.0,0.0
471,117.5,42.7417,57.7628,136.955,99.9044,90.2063,0.00689589,0.545809,20.1228,493.169,0.937017,0.0,0.0
474,118.25,43.8048,58.5919,144.281,99.9065,95.0591,0.00711503,0.553932,20.1177,493.119,0.456387,0.0,0.0
477,119,43.6941,57.7287,141.583,99.9094,90.9822,0.00729379,0.560374,20.114,492.979,0.858888,0.0,0.0
480,119.75,43.4967,58.3971,147.858,99.8999,89.0963,0.0074322,0.565961,20.1114,492.949,1.05021,0.0,0.0
483,120.5,44.5923,59.5384,145.05,99.8987,90.5846,0.00757831,0.57082,20.1094,492.749,0.898087,0.0,0.0
486,121.25,45.053,59.6081,139.531,99.8933,91.2215,0.00773177,0.574697,20.1077,492.769,0.833304,0.0,0.0
489,122,45.3175,59.6099,138.952,99.8983,89.3676,0.00786365,0.578541,20.1061,492.638,1.02216,0.0,0.0
492,122.75,45.6207,60.9679,152.356,99.8929,88.751,0.00807764,0.582738,20.1006,492.518,1.0852,0.0,0.0
495,123.5,46.1544,61.1087,148.701,99.8876,88.3053,0.00823363,0.587098,20.0947,492.428,1.13091,0.0,0.0
498,124.25,46.4313,61.8023,143.921,99.89,88.0609,0.00854192,0.591487,20.0895,492.278,1.15657,0.0,0.0
501,125,47.0955,62.3432,145.63,99.8764,87.3875,0.00882387,0.596112,20.0853,492.238,1.22576,0.0,0.0
504,125.75,46.6506,62.2519,139.282,99.8781,88.9092,0.00912722,0.600091,20.0818,492.118,1.0675,0.0,0.0
507,126.5,47.4154,63.2538,145.926,99.8921,87.57,0.00950382,0.604791,20.0768,491.988,1.20805,0.0,0.0
510,127.25,47.6554,63.2644,138.7,99.8797,85.7263,0.00985546,0.608217,20.0723,491.928,1.40218,0.0,0.0
513,128,48.1567,64.1846,143.709,99.8739,86.6958,0.0101664,0.612881,20.0686,491.828,1.29845,0.0,0.0
516,128.75,48.1608,63.873,143.803,99.8731,87.3205,0.0103513,0.617284,20.0667,491.688,1.23249,0.0,0.0
519,129.5,48.7247,64.2811,147.538,99.8801,86.3961,0.0105961,0.621348,20.0646,491.628,1.33079,0.0,0.0
522,130.25,48.6122,64.5968,141.396,99.8838,86.2045,0.0107746,0.625041,20.063,491.457,1.35151,0.0,0.0
525,131,49.243,65.0435,144.736,99.8723,85.4144,0.0109563,0.628563,20.0618,491.357,1.43494,0.0,0.0
528,131.75,49.2502,64.9024,146.073,99.8805,86.0604,0.0111701,0.630536,20.061,491.257,1.36655,0.0,0.0
531,132.5,49.6749,65.368,140.995,99.8752,86.2734,0.0113513,0.633039,20.0604,491.117,1.34338,0.0,0.0
534,133.25,49.762,65.5939,149.383,99.8674,84.4768,0.0116034,0.635602,20.0599,491.057,1.53577,0.0,0.0
537,134,49.4437,65.3425,140.454,99.8645,83.3126,0.011828,0.637786,20.0596,490.927,1.66285,0.0,0.0
540,134.75,49.6443,65.4505,141.68,99.8801,85.3485,0.0120618,0.640796,20.0562,490.827,1.44274,0.0,0.0
543,135.5,50.2129,66.291,145.213,99.8674,84.9712,0.0123173,0.643567,20.0536,490.727,1.48222,0.0,0.0
546,136.25,50.4511,66.3513,145.256,99.8591,84.2061,0.0125426,0.646573,20.0516,490.567,1.56447,0.0,0.0
549,137,50.493,66.8509,147.295,99.8616,83.7542,0.0127735,0.649743,20.0502,490.456,1.61406,0.0,0.0
552,137.75,50.7504,66.8789,141.626,99.8661,85.2897,0.0130762,0.652523,20.0491,490.376,1.44778,0.0,0.0
555,138.5,50.8869,66.9177,144.917,99.8591,79.0785,0.0133541,0.654749,20.0493,490.276,2.14097,0.0,0.0
558,139.25,51.3804,67.4032,146.393,99.8628,84.7081,0.0137412,0.656736,20.0497,490.156,1.51027,0.0,0.0
561,140,51.0289,67.2311,146.587,99.8542,83.6995,0.0141021,0.65832,20.0514,490.046,1.61938,0.0,0.0
564,140.75,51.5241,66.9965,139.603,99.8509,84.13,0.014487,0.659705,20.0538,489.956,1.572,0.0,0.0
567,141.5,51.4081,67.7052,146.198,99.857,82.7898,0.0147926,0.660714,20.0558,489.816,1.71992,0.0,0.0
570,142.25,51.8809,67.7551,147.825,99.8566,81.837,0.0150246,0.66221,20.0577,489.706,1.8261,0.0,0.0
573,143,52.0212,67.6686,140.693,99.862,82.484,0.0151913,0.663557,20.059,489.596,1.75433,0.0,0.0
576,143.75,52.1886,67.7292,144.763,99.834,82.5058,0.0152892,0.66469,20.0603,489.526,1.74933,0.0,0.0
579,144.5,51.8562,67.4864,155.789,99.8463,82.5925,0.0153505,0.665587,20.0616,489.396,1.74083,0.0,0.0
582,145.25,51.933,67.807,139.765,99.8484,82.3973,0.0153138,0.66641,20.0627,489.255,1.76273,0.0,0.0
585,146,52.5754,67.8642,141.957,99.8393,81.5155,0.0152041,0.667031,20.064,489.125,1.86063,0.0,0.0
588,146.75,52.0694,67.903,156.07,99.8352,82.4156,0.0150415,0.667519,20.0682,489.075,1.75949,0.0,0.0
591,147.5,52.4276,67.9814,143.357,99.8377,84.3054,0.0148037,0.667164,20.0758,488.955,1.55167,0.0,0.0
594,148.25,52.4601,67.6124,143.944,99.8439,85.422,0.0145989,0.666602,20.0838,488.865,1.43151,0.0,0.0
597,149,52.0433,67.8858,147.661,99.8542,84.3237,0.0144363,0.664976,20.0908,488.725,1.5512,0.0,0.0
600,149.75,52.2158,67.5669,145.661,99.8356,81.2087,0.0143624,0.663013,20.0964,488.645,1.89489,0.0,0.0
603,150.5,52.3183,67.8993,145.537,99.8422,80.6778,0.0143713,0.66114,20.1009,488.465,1.95568,0.0,0.0
606,151.25,52.3181,67.646,141.926,99.8323,81.7477,0.0144046,0.659412,20.1046,488.435,1.83388,0.0,0.0
609,152,52.5717,67.5804,145.003,99.8315,78.2763,0.014539,0.657858,20.1077,488.304,2.23199,0.0,0.0
612,152.75,52.5604,67.3534,145.81,99.7948,81.2934,0.0146426,0.656445,20.1101,488.234,1.88158,0.0,0.0
615,153.5,52.3998,67.6956,149.433,99.8043,79.9998,0.0147275,0.655151,20.1119,488.114,2.02963,0.0,0.0
618,154.25,52.5974,67.1509,144.175,99.8381,80.5262,0.0147121,0.653797,20.1144,487.994,1.97257,0.0,0.0
621,155,52.1396,67.0408,146.267,99.8307,84.2578,0.0145923,0.652635,20.1182,487.894,1.55622,0.0,0.0
624,155.75,52.4845,66.8655,149.345,99.8356,83.4079,0.0143756,0.650397,20.1278,487.794,1.6497,0.0,0.0
627,156.5,52.0391,66.9498,142.165,99.8336,83.2142,0.0140744,0.647765,20.1387,487.674,1.67084,0.0,0.0
630,157.25,52.124,66.35,147.787,99.834,87.9757,0.0137105,0.644133,20.1532,487.584,1.1603,0.0,0.0
633,158,51.8345,65.7526,155.262,99.8294,86.3561,0.0134247,0.638653,20.1641,487.504,1.33039,0.0,0.0
636,158.75,51.7217,65.645,151.899,99.8356,81.4273,0.0130196,0.633547,20.1768,487.454,1.87023,0.0,0.0
639,159.5,51.8303,65.2785,148.702,99.8385,83.0266,0.0125965,0.627926,20.1897,487.334,1.69201,0.0,0.0
642,160.25,51.8991,65.0315,154.291,99.8356,86.1892,0.0122218,0.621385,20.2014,487.244,1.3487,0.0,0.0
645,161,51.543,64.6951,149.054,99.8426,84.1564,0.0119422,0.618042,20.2108,487.163,1.56837,0.0,0.0
648,161.75,51.2339,64.4246,148.29,99.8286,82.9881,0.0117356,0.611563,20.2179,487.063,1.69536,0.0,0.0
651,162.5,51.0213,63.9004,152.627,99.8265,81.3309,0.011619,0.605541,20.2235,486.963,1.88026,0.0,0.0
654,163.25,50.987,63.4859,143.708,99.8265,81.2189,0.0115919,0.600598,20.2279,486.893,1.89291,0.0,0.0
657,164,50.5252,63.2913,157.364,99.8294,82.5494,0.0116277,0.596005,20.2311,486.763,1.74407,0.0,0.0
660,164.75,50.8595,63.343,149.855,99.8232,80.7432,0.0116857,0.592656,20.2335,486.693,1.9465,0.0,0.0
663,165.5,50.6366,63.0171,146.952,99.8187,80.5647,0.0117251,0.589521,20.2347,486.523,1.96639,0.0,0.0
666,166.25,50.4548,62.8835,152.488,99.8224,82.1524,0.0117706,0.587161,20.236,486.463,1.78766,0.0,0.0
669,167,50.2036,62.7439,150.914,99.8311,82.7279,0.0116731,0.585408,20.237,486.363,1.7244,0.0,0.0
672,167.75,50.608,62.7962,150.826,99.8336,86.2881,0.0115028,0.583545,20.2388,486.283,1.33799,0.0,0.0
675,168.5,50.4527,62.7021,149.228,99.8294,83.2857,0.011283,0.582592,20.2418,486.223,1.66259,0.0,0.0
678,169.25,50.4666,62.5234,149.986,99.8253,87.4047,0.0110315,0.57942,20.2515,486.193,1.21925,0.0,0.0
681,170,50.1132,61.862,148.161,99.8224,87.8803,0.0107566,0.575902,20.263,486.062,1.16919,0.0,0.0
684,170.75,49.9367,62.0747,148.296,99.82,85.8941,0.0105205,0.571275,20.2732,485.972,1.37874,0.0,0.0
687,171.5,50.072,61.4816,154.855,99.8059,85.6893,0.0103236,0.566145,20.2807,485.892,1.39936,0.0,0.0
690,172.25,49.5379,61.28,147.702,99.8216,84.1888,0.0101639,0.561952,20.2861,485.832,1.5629,0.0,0.0
693,173,49.8616,61.3033,149.315,99.8117,81.9916,0.0100448,0.557898,20.2901,485.732,1.80465,0.0,0.0
696,173.75,49.3313,60.9366,155.269,99.8216,85.0448,0.00995343,0.554565,20.2923,485.652,1.47008,0.0,0.0
699,174.5,49.5372,60.7383,148.804,99.8278,83.273,0.00994054,0.551953,20.2935,485.542,1.66383,0.0,0.0
702,175.25,49.5856,60.6261,147.781,99.8076,81.8811,0.0100243,0.550049,20.2936,485.522,1.81665,0.0,0.0
705,176,49.542,60.7636,148.815,99.8072,82.6716,0.0102054,0.548452,20.2924,485.382,1.72845,0.0,0.0
708,176.75,49.5243,60.0681,145.599,99.8265,84.8688,0.0105617,0.547384,20.2904,485.302,1.48954,0.0,0.0
711,177.5,49.0095,59.8543,153.642,99.8175,82.5641,0.0110199,0.54677,20.2869,485.272,1.74133,0.0,0.0
714,178.25,49.2667,60.187,152.265,99.82,81.768,0.01153,0.547967,20.2729,485.212,1.83047,0.0,0.0
717,179,49.4031,60.2359,144.234,99.8171,80.7082,0.012106,0.550642,20.2583,485.012,1.94991,0.0,0.0
720,179.75,49.3476,60.3116,142.737,99.8167,79.7453,0.0125258,0.55336,20.2457,484.931,2.06001,0.0,0.0
723,180.5,49.614,60.4994,144.988,99.8138,83.1021,0.0130218,0.55864,20.2339,484.791,1.68139,0.0,0.0
726,181.25,49.9911,61.0822,140.687,99.8059,82.0986,0.0134384,0.563461,20.2228,484.741,1.79215,0.0,0.0
729,182,49.8575,61.3846,139.103,99.8245,80.6109,0.0137641,0.568638,20.2124,484.561,1.96167,0.0,0.0
732,182.75,50.1854,61.2753,146.978,99.8183,85.0945,0.0139992,0.57512,20.2041,484.571,1.46441,0.0,0.0
735,183.5,50.3584,61.534,144.853,99.8237,81.6747,0.014053,0.582418,20.1981,484.431,1.84129,0.0,0.0
738,184.25,50.6501,62.2409,142.879,99.8134,82.7208,0.0139928,0.590163,20.1937,484.351,1.72356,0.0,0.0
741,185,51.0775,62.5473,150.215,99.8307,87.9432,0.0137788,0.596611,20.1905,484.281,1.16338,0.0,0.0
744,185.75,51.1642,62.4617,157.192,99.8216,87.2267,0.0136228,0.601151,20.1882,484.151,1.23762,0.0,0.0
747,186.5,51.0432,62.4133,147.631,99.8331,86.5807,0.0129038,0.603602,20.1958,484.111,1.30689,0.0,0.0
750,187.25,51.2069,61.9574,153.815,99.8191,91.7722,0.0123797,0.601924,20.2054,484.101,0.771258,0.0,0.0
753,188,50.4705,61.4113,145.188,99.8414,91.2565,0.0115444,0.600701,20.2229,484.031,0.825013,0.0,0.0
756,188.75,50.2662,60.7127,154.088,99.8344,93.7113,0.0107571,0.592826,20.2476,484.041,0.580797,0.0,0.0
759,189.5,50.2227,60.0274,155.117,99.8385,92.0196,0.0100251,0.584108,20.2782,484.011,0.74833,0.0,0.0
762,190.25,49.8355,59.9055,158.41,99.8381,93.0221,0.00935106,0.570967,20.3138,483.921,0.648865,0.0,0.0
765,191,48.9557,58.6819,153.704,99.843,94.6499,0.00869031,0.561387,20.344,483.891,0.490142,0.0,0.0
768,191.75,48.7623,58.2687,157.489,99.8529,91.9786,0.0081463,0.546484,20.3736,483.87,0.753752,0.0,0.0
771,192.5,48.6653,57.7161,153.698,99.8406,95.2462,0.00764316,0.531293,20.4027,483.84,0.432283,0.0,0.0
774,193.25,47.9169,57.0217,153.079,99.8439,94.2214,0.00713484,0.516095,20.4292,483.85,0.531852,0.0,0.0
777,194,47.5381,56.1898,154.086,99.8397,95.7112,0.00676428,0.50112,20.4507,483.83,0.387519,0.0,0.0
780,194.75,47.3999,55.9888,163.589,99.8439,97.3784,0.00628877,0.48376,20.4748,483.78,0.229427,0.0,0.0
783,195.5,46.8105,54.8072,156.063,99.8472,98.0884,0.00581364,0.466342,20.4994,483.79,0.163077,0.0,0.0
786,196.25,46.3592,53.7636,161.148,99.8463,98.1766,0.00536666,0.451614,20.5232,483.78,0.154751,0.0,0.0
789,197,45.5424,53.1591,160.525,99.8455,98.3333,0.00496244,0.433384,20.5475,483.79,0.140042,0.0,0.0
792,197.75,45.4812,52.2862,158.853,99.8554,98.8662,0.004581,0.41717,20.5684,483.82,0.091353,0.0,0.0
795,198.5,44.9182,51.5457,160.674,99.8554,99.8723,0.00427945,0.400349,20.5892,483.84,-0.00154906,0.0,0.0
798,199.25,44.4488,50.8642,160.015,99.8698,99.5102,0.00401944,0.38305,20.6119,483.85,0.0331022,0.0,0.0
801,200,44.3475,49.6544,160.087,99.8554,99.5427,0.00381577,0.366357,20.6324,483.81,0.028784,0.0,0.0
804,200.75,43.429,49.0504,165.714,99.8587,99.4671,0.00366728,0.350881,20.6491,483.79,0.0360544,0.0,0.0
807,201.5,43.096,48.476,164.283,99.8632,99.3758,0.00358908,0.335634,20.6629,483.83,0.0448954,0.0,0.0
810,202.25,42.6736,47.8392,165.869,99.8558,99.4813,0.00355067,0.320954,20.6752,483.83,0.0344787,0.0,0.0
813,203,42.2566,47.4328,161.014,99.8591,99.5873,0.00352733,0.307048,20.6865,483.9,0.0250113,0.0,0.0
816,203.75,41.569,46.315,165.169,99.8756,99.4123,0.00350474,0.293572,20.6973,483.931,0.0426615,0.0,0.0
819,204.5,41.1825,45.6734,161.745,99.8698,99.3784,0.00347091,0.282325,20.7082,483.87,0.0452666,0.0,0.0
822,205.25,40.9642,45.1666,165.096,99.8773,99.5158,0.00343234,0.269463,20.7174,483.84,0.033269,0.0,0.0
825,206,39.9076,44.9941,164.327,99.8628,99.4585,0.00339307,0.256664,20.7267,483.87,0.0372289,0.0,0.0
828,206.75,39.9172,43.575,165.579,99.8764,99.4534,0.00335948,0.24628,20.7343,483.9,0.0389468,0.0,0.0
831,207.5,39.7361,43.2831,162.089,99.8859,99.494,0.00333289,0.236908,20.7403,483.86,0.0360751,0.0,0.0
834,208.25,39.3364,42.6184,165.585,99.8884,99.4793,0.00328171,0.227364,20.7446,483.86,0.0376581,0.0,0.0
837,209,39.2787,42.134,161.74,99.8781,99.5457,0.0032444,0.219352,20.749,483.891,0.0305863,0.0,0.0
840,209.75,38.5887,41.0959,160.911,99.8884,99.6233,0.00316525,0.211706,20.753,483.88,0.024384,0.0,0.0
843,210.5,38.1388,40.9418,160.708,99.8958,99.4595,0.00306199,0.204241,20.7571,483.87,0.0401645,0.0,0.0
846,211.25,37.8645,40.415,157.905,99.8962,99.5498,0.00294669,0.197992,20.762,483.86,0.0318792,0.0,0.0
849,212,37.8585,40.1526,168.902,99.8888,99.4823,0.00278697,0.192074,20.7665,483.85,0.0374152,0.0,0.0
852,212.75,37.3338,39.6454,158.706,99.9057,99.5675,0.00263552,0.185428,20.7713,483.85,0.0311129,0.0,0.0
855,213.5,37.0642,38.9096,160.888,99.9086,99.5021,0.00246526,0.179353,20.7774,483.88,0.0374098,0.0,0.0
858,214.25,36.6838,38.5417,168.715,99.916,99.4423,0.00227973,0.173761,20.7822,483.88,0.0436098,0.0,0.0
861,215,36.4303,38.2691,162.176,99.9131,99.6917,0.00214449,0.168594,20.7859,483.84,0.0203531,0.0,0.0
864,215.75,36.0869,37.6232,162.567,99.9317,99.457,0.00202486,0.163264,20.7895,483.87,0.0436914,0.0,0.0
867,216.5,35.5265,37.1444,162.903,99.9288,99.4321,0.00193118,0.158385,20.7925,483.891,0.0457194,0.0,0.0
870,217.25,35.7678,37.0461,166.823,99.93,99.4463,0.00185184,0.154404,20.7953,483.88,0.0445231,0.0,0.0
873,218,35.4545,36.7153,164.295,99.935,99.4063,0.00175722,0.15033,20.7978,483.86,0.0486741,0.0,0.0
876,218.75,35.504,36.3865,163.069,99.9222,99.4615,0.00165266,0.14686,20.8003,483.88,0.0424002,0.0,0.0
879,219.5,34.347,35.9769,159.23,99.9366,99.9133,0.00156127,0.14304,20.8029,483.87,0.0021361,0.0,0.0
882,220.25,34.4289,35.5756,163.021,99.9407,99.7404,0.0014422,0.139547,20.8052,483.891,0.018409,0.0,0.0
885,221,34.4868,35.2489,161.602,99.9416,99.6654,0.00135051,0.136699,20.8073,483.88,0.025392,0.0,0.0
888,221.75,34.332,34.6541,163.773,99.9436,99.6628,0.00128157,0.133773,20.8092,483.88,0.0258142,0.0,0.0
891,222.5,33.8555,34.66,165.364,99.9622,99.6142,0.00123131,0.131072,20.8106,483.891,0.0320002,0.0,0.0
894,223.25,33.2863,34.4237,164.276,99.9597,99.567,0.00119017,0.128862,20.8117,483.891,0.0361187,0.0,0.0
897,224,33.6979,34.158,160.902,99.9568,99.7364,0.00115245,0.126305,20.8137,483.88,0.0202581,0.0,0.0
900,224.75,33.2436,34.2972,164.365,99.9609,99.5868,0.00110575,0.123944,20.8151,483.88,0.0344101,0.0,0.0
903,225.5,33.4019,33.4394,162.931,99.9721,99.5127,0.00106069,0.122011,20.8167,483.891,0.0422553,0.0,0.0
906,226.25,32.6256,33.8822,165.218,99.9857,99.46,0.00101735,0.119836,20.8186,483.9,0.0483683,0.0,0.0
909,227,32.957,33.4488,164.028,99.9844,99.4975,0.000975847,0.117838,20.82,483.87,0.0447931,0.0,0.0
912,227.75,32.7942,33.1046,164.854,99.9741,99.6426,0.000933358,0.116018,20.821,483.91,0.0304827,0.0,0.0
915,228.5,32.4089,32.8906,164.813,99.9968,99.498,0.000897168,0.114369,20.8217,483.941,0.0458816,0.0,0.0
918,229.25,32.5609,32.8204,163.351,100.003,99.6142,0.000857336,0.112851,20.8225,483.921,0.0357842,0.0,0.0
921,230,32.4261,32.4456,163.592,99.9993,99.5072,0.000822565,0.111422,20.8234,483.88,0.0452666,0.0,0.0
924,230.75,32.2007,31.9335,164.671,100.001,99.4245,0.000784017,0.11006,20.8239,483.891,0.0530428,0.0,0.0
927,231.5,31.8836,31.9601,165.229,100.016,99.5234,0.000727911,0.108697,20.8245,483.88,0.045284,0.0,0.0
930,232.25,31.9469,32.0249,162.873,100.022,99.6568,0.000667223,0.107545,20.8251,483.91,0.0335622,0.0,0.0
933,233,31.727,32.2525,159.465,100.022,99.5295,0.000621054,0.106218,20.826,483.891,0.0453265,0.0,0.0
936,233.75,31.6522,31.8429,162.621,100.009,99.7095,0.0005841,0.105539,20.8262,483.891,0.0275353,0.0,0.0
939,234.5,31.9843,32.0459,165.451,100.023,99.5102,0.00056761,0.104365,20.8272,483.91,0.0471419,0.0,0.0
942,235.25,31.2646,31.4374,166.174,100.035,99.5635,0.000562916,0.103509,20.8283,483.88,0.04333,0.0,0.0
945,236,31.0953,31.4544,166.036,100.035,99.5995,0.000562618,0.102456,20.8291,483.9,0.0400502,0.0,0.0
948,236.75,31.2004,31.2425,166.737,100.032,99.6415,0.000572855,0.101497,20.8297,483.91,0.0359095,0.0,0.0
951,237.5,30.969,30.969,163.505,100.039,99.495,0.000580318,0.100616,20.8301,483.921,0.0500569,0.0,0.0
954,238.25,30.818,31.09,168.648,100.043,99.5868,0.000603186,0.0998016,20.8304,483.91,0.0418982,0.0,0.0
957,239,31.043,30.9393,166.234,100.062,99.7678,0.000625967,0.0990032,20.8307,483.91,0.0270107,0.0,0.0
960,239.75,30.7716,30.8497,163.807,100.052,99.5954,0.00064711,0.0983338,20.8308,483.91,0.0419363,0.0,0.0
963,240.5,31.0541,30.9865,162.873,100.05,99.5736,0.000665824,0.0976124,20.831,483.891,0.0437567,0.0,0.0
966,241.25,30.15,30.2553,166.573,100.073,99.7039,0.000675799,0.0970147,20.831,483.91,0.0338717,0.0,0.0
969,242,30.3262,29.9277,163.367,100.082,99.8058,0.000677648,0.0964563,20.8311,483.88,0.0253266,0.0,0.0
972,242.75,30.0077,30.6798,165.425,100.078,99.5011,0.000672396,0.0958936,20.8312,483.9,0.0530113,0.0,0.0
975,243.5,30.2322,30.2307,166.078,100.078,99.4651,0.000655709,0.0953472,20.8312,483.9,0.0563321,0.0,0.0
978,244.25,29.6069,29.9017,164.589,100.092,99.5467,0.000621555,0.0948907,20.8318,483.9,0.0501635,0.0,0.0
981,245,29.9332,29.7227,166.066,100.091,99.5138,0.000574018,0.0943442,20.8323,483.891,0.0530515,0.0,0.0
984,245.75,29.1018,29.3741,163.882,100.092,99.5624,0.000522278,0.0938957,20.8327,483.87,0.0486403,0.0,0.0
987,246.5,29.1946,29.4173,167.419,100.09,99.6715,0.000469571,0.0934828,20.8329,483.86,0.0384457,0.0,0.0
990,247.25,29.4876,29.4229,163.935,100.099,99.604,0.000417974,0.0930594,20.8331,483.88,0.0454887,0.0,0.0
993,248,28.9832,28.6776,162.897,100.114,100.027,0.000376701,0.0926984,20.8332,483.891,0.00797091,0.0,0.0
996,248.75,29.067,29.6102,165.973,100.124,99.6933,0.000349547,0.092377,20.8333,483.88,0.0395372,0.0,0.0
999,249.5,29.006,28.6839,162.533,100.113,99.5411,0.000337436,0.0920747,20.8334,483.891,0.0525295,0.0,0.0
1002,250.25,29.1177,28.5487,168.266,100.128,99.5036,0.000331175,0.0917844,20.8335,483.9,0.0573877,0.0,0.0
1005,251,29.134,28.9759,166.697,100.137,99.7612,0.000331001,0.0915626,20.8335,483.891,0.0344929,0.0,0.0
1008,251.75,28.3301,28.6975,165.285,100.141,99.5695,0.000328435,0.0914131,20.8335,483.9,0.0525566,0.0,0.0
1011,252.5,28.5163,28.2062,168.75,100.15,99.7186,0.000325524,0.0913314,20.8335,483.891,0.0395829,0.0,0.0
1014,253.25,28.9396,28.3676,169.911,100.145,99.5771,0.000325142,0.0912834,20.8329,483.891,0.0521955,0.0,0.0
1017,254,28.5779,28.2768,164.45,100.16,99.6091,0.000328343,0.0912269,20.8325,483.9,0.0505737,0.0,0.0
1020,254.75,29.0088,28.378,165.453,100.178,99.6644,0.000333117,0.091149,20.8322,483.9,0.0471833,0.0,0.0
1023,255.5,28.9634,28.2935,161.793,100.185,99.5214,0.000337637,0.0911058,20.8319,483.88,0.0609624,0.0,0.0
1026,256.25,29.029,29.0456,162.767,100.184,99.6243,0.000327514,0.0910587,20.832,483.87,0.0514385,0.0,0.0
1029,257,28.3671,28.3716,166.518,100.2,99.5903,0.000314415,0.090966,20.8324,483.88,0.0560397,0.0,0.0
1032,257.75,28.2995,27.5177,165.998,100.207,99.5067,0.000250969,0.0908618,20.8327,483.88,0.0643944,0.0,0.0
1035,258.5,28.1846,28.144,166.392,100.198,99.5878,0.000218541,0.0907214,20.8329,483.88,0.0560853,0.0,0.0
1038,259.25,28.4489,27.6747,166.082,100.21,99.7617,0.000128963,0.0905088,20.8331,483.9,0.0411675,0.0,0.0
1041,260,28.452,27.842,166.03,100.221,99.5777,4.17402e-05,0.090313,20.8332,483.891,0.0591334,0.0,0.0
1044,260.75,28.2169,28.1717,171.231,100.233,99.636,-3.82404e-05,0.0901529,20.8333,483.9,0.0548556,0.0,0.0
1047,261.5,28.4623,27.0128,165.24,100.234,99.5731,-0.000108602,0.0900167,20.8334,483.9,0.0606863,0.0,0.0
1050,262.25,27.916,27.6132,158.614,100.229,99.7414,-0.000175529,0.0898378,20.8339,483.9,0.0447311,0.0,0.0
1053,263,27.8309,27.2809,169.528,100.249,99.5721,-0.0002256,0.0896707,20.8344,483.891,0.062138,0.0,0.0
1056,263.75,27.8785,27.2229,165.23,100.254,99.5482,-0.000264295,0.0894325,20.8348,483.87,0.0648245,0.0,0.0
1059,264.5,28.0445,27.5669,170.069,100.263,99.7937,-0.000280966,0.0891909,20.8351,483.86,0.043097,0.0,0.0
1062,265.25,27.6902,27.3737,163.528,100.271,99.7643,-0.00027339,0.0889858,20.8353,483.88,0.0464813,0.0,0.0
1065,266,27.433,27.2069,163.385,100.272,99.7151,-0.000227918,0.0887006,20.8355,483.88,0.0511187,0.0,0.0
1068,266.75,27.6167,27.3274,163.583,100.279,99.7465,-0.000170413,0.0884426,20.8356,483.88,0.0488688,0.0,0.0
1071,267.5,27.8385,27.1046,166.738,100.287,99.6917,-0.000118109,0.088169,20.8357,483.91,0.054587,0.0,0.0
1074,268.25,27.4366,26.7325,167.82,100.293,99.7232,-7.99786e-05,0.0879423,20.8357,483.91,0.0522967,0.0,0.0
1077,269,27.6902,26.9124,163.414,100.301,99.8971,-7.82358e-05,0.0877369,20.8358,483.88,0.0370611,0.0,0.0
1080,269.75,27.3263,27.2449,165.232,100.315,99.6821,-8.91432e-05,0.0875382,20.8358,483.88,0.0580378,0.0,0.0
1083,270.5,27.0383,26.6643,164.715,100.324,99.7359,-0.000117919,0.0873159,20.8358,483.891,0.0539585,0.0,0.0
1086,271.25,27.1787,27.2209,164.104,100.336,99.7835,-0.000145947,0.0871467,20.8359,483.891,0.0506292,0.0,0.0
1089,272,27.154,27.0681,164.422,100.327,99.7567,-0.000178436,0.0870111,20.8365,483.891,0.0523467,0.0,0.0
1092,272.75,27.137,26.665,169.003,100.344,99.6821,-0.000206992,0.0868154,20.837,483.891,0.0607526,0.0,0.0
1095,273.5,27.4929,26.5204,167.474,100.343,99.7612,-0.000229885,0.0866013,20.8373,483.891,0.0533604,0.0,0.0
1098,274.25,26.6198,26.3045,169.381,100.351,99.8251,-0.000246574,0.086323,20.8376,483.87,0.0482388,0.0,0.0
1101,275,27.2267,26.8075,162.628,100.347,99.8241,-0.000255267,0.086093,20.8377,483.87,0.0479548,0.0,0.0
1104,275.75,26.777,26.9866,172.406,100.385,99.7024,-0.000250644,0.0859137,20.8379,483.891,0.0626161,0.0,0.0
1107,276.5,27.0561,26.6233,168.708,100.377,99.8297,-0.000232346,0.0857637,20.838,483.9,0.050194,0.0,0.0
1110,277.25,27.075,26.2138,165.208,100.381,99.82,-0.000201471,0.0856136,20.838,483.891,0.0513798,0.0,0.0
1113,278,26.9346,26.1277,167.793,100.381,99.8657,-0.000159478,0.0854368,20.8381,483.891,0.0472235,0.0,0.0
1116,278.75,26.4523,25.9318,164.385,100.387,99.6862,-0.000120558,0.0852224,20.8381,483.88,0.0642977,0.0,0.0
1119,279.5,26.5728,26.333,164.833,100.4,99.7759,-8.83402e-05,0.0850662,20.8381,483.88,0.0572464,0.0,0.0
1122,280.25,26.6936,26.9575,165.969,100.398,99.7531,-6.7263e-05,0.0849594,20.8386,483.891,0.0591562,0.0,0.0
1125,281,26.376,26.3262,165.566,100.393,99.8058,-5.02187e-05,0.0848938,20.8391,483.88,0.0538541,0.0,0.0
1128,281.75,26.0764,26.0689,167.868,100.409,99.7845,-4.53949e-05,0.0848459,20.8395,483.88,0.0572062,0.0,0.0
1131,282.5,26.0631,26.0057,167.15,100.413,99.817,-4.95507e-05,0.084811,20.8398,483.891,0.054599,0.0,0.0
1134,283.25,26.7818,25.7814,168.297,100.423,99.9488,-5.13625e-05,0.0847575,20.84,483.891,0.043391,0.0,0.0
1137,284,26.4419,26.1326,166.793,100.419,99.8236,-4.57548e-05,0.0846498,20.8401,483.891,0.0545957,0.0,0.0
1140,284.75,26.5592,25.9677,166.58,100.442,99.8794,-3.07066e-05,0.0845326,20.8402,483.9,0.0515407,0.0,0.0
1143,285.5,26.0161,25.6856,167.982,100.435,100.003,-2.42229e-06,0.0844879,20.8403,483.891,0.0396243,0.0,0.0
1146,286.25,26.7917,25.7355,170.784,100.444,99.6902,5.87142e-05,0.0844726,20.8404,483.9,0.0691215,0.0,0.0
1149,287,26.1852,25.9559,165.412,100.445,99.8347,0.000121938,0.0844421,20.8404,483.921,0.0559429,0.0,0.0
1152,287.75,26.3713,25.9911,165.53,100.439,99.713,0.000174988,0.0844128,20.8405,483.9,0.0666079,0.0,0.0
1155,288.5,26.2852,26.3139,166.079,100.454,99.8099,0.000210002,0.0843792,20.8405,483.9,0.0590551,0.0,0.0
1158,289.25,26.4013,25.8762,160.103,100.453,99.9985,0.000233967,0.0843547,20.8405,483.921,0.0416543,0.0,0.0
1161,290,26.209,25.6112,164.057,100.463,99.9346,0.000232304,0.0843439,20.8405,483.91,0.0483476,0.0,0.0
1164,290.75,26.2569,26.0199,165.876,100.464,99.713,0.000201211,0.0843483,20.8405,483.921,0.0688675,0.0,0.0
1167,291.5,25.9007,25.4327,165.958,100.47,99.9635,0.000185547,0.0843128,20.8405,483.921,0.0463333,0.0,0.0
1170,292.25,25.8844,26.0972,165.349,100.482,99.743,0.000138216,0.0842463,20.8405,483.9,0.0676959,0.0,0.0
1173,293,25.621,25.8686,166.166,100.498,99.8915,9.12494e-05,0.0841804,20.8405,483.91,0.0555809,0.0,0.0
1176,293.75,25.7547,25.4709,163.321,100.485,99.9595,1.87979e-05,0.0841904,20.8401,483.91,0.0481365,0.0,0.0
1179,294.5,25.7083,26.0464,166.829,100.516,99.8545,-5.95934e-05,0.0841841,20.8396,483.91,0.0605625,0.0,0.0
1182,295.25,25.3924,25.5147,163.776,100.504,99.7998,-0.000133412,0.0841738,20.8392,483.921,0.0645421,0.0,0.0
1185,296,25.8756,26.0839,162.656,100.512,99.9118,-0.000197089,0.0841276,20.8389,483.9,0.054997,0.0,0.0
1188,296.75,25.4075,25.5298,168.932,100.512,99.8667,-0.000231352,0.0840938,20.8392,483.891,0.0591051,0.0,0.0
1191,297.5,25.2442,25.5085,163.344,100.52,99.8844,-0.000240497,0.0840693,20.8396,483.88,0.0582269,0.0,0.0
1194,298.25,25.3384,25.7823,167.822,100.528,99.9519,-0.000240415,0.0839353,20.8398,483.87,0.0527111,0.0,0.0
1197,299,25.241,25.4101,168.139,100.537,99.9174,-0.000217217,0.0838647,20.84,483.891,0.0567039,0.0,0.0
1200,299.75,25.8394,25.5087,161.122,100.533,99.8647,-0.000181468,0.083832,20.8402,483.9,0.0612481,0.0,0.0
1203,300.5,25.4336,25.5966,166.967,100.548,99.8139,-0.000140063,0.0838203,20.8403,483.91,0.0672627,0.0,0.0
1206,301.25,25.493,25.4598,162.07,100.558,100.023,-0.000106225,0.0838118,20.8403,483.9,0.048933,0.0,0.0
1209,302,25.2008,25.8531,169.323,100.555,99.8631,-8.00001e-05,0.0838056,20.8404,483.9,0.063344,0.0,0.0
1212,302.75,25.765,25.5551,170.406,100.548,99.9828,-8.28023e-05,0.0837818,20.8403,483.9,0.0517148,0.0,0.0
1215,303.5,25.6281,25.3533,164.914,100.565,99.9793,-0.000102523,0.0837572,20.8401,483.891,0.0535833,0.0,0.0
1218,304.25,25.7299,25.7571,167.372,100.58,99.9265,-0.000131147,0.0837272,20.8399,483.9,0.0597779,0.0,0.0
1221,305,25.1815,25.775,165.883,100.582,100.067,-0.000167647,0.0836838,20.8398,483.9,0.0470679,0.0,0.0
1224,305.75,25.8844,25.0509,164.291,100.58,100.141,-0.000194255,0.0836156,20.8397,483.9,0.0401776,0.0,0.0
1227,306.5,25.6435,25.0409,164.012,100.586,99.9919,-0.000250129,0.0835852,20.8397,483.9,0.054375,0.0,0.0
1230,307.25,24.5627,25.6941,161.06,100.591,100.144,-0.000301756,0.0835844,20.8396,483.921,0.0409225,0.0,0.0
1233,308,24.9787,24.8941,165.163,100.61,99.999,-0.000358025,0.0836205,20.8396,483.9,0.0558668,0.0,0.0
1236,308.75,24.8974,25.1949,163.677,100.601,99.9417,-0.000418152,0.0836604,20.8396,483.9,0.0603745,0.0,0.0
1239,309.5,25.0783,25.4921,168.428,100.614,100.137,-0.000455895,0.0836952,20.8396,483.88,0.0435945,0.0,0.0
1242,310.25,25.1971,25.1095,165.818,100.615,100.021,-0.000468637,0.083798,20.8396,483.891,0.0542706,0.0,0.0
1245,311,24.6633,25.3386,164.776,100.621,99.8388,-0.000457101,0.0838458,20.8395,483.891,0.0716345,0.0,0.0
1248,311.75,25.0931,25.0493,166.547,100.624,99.9341,-0.000405267,0.0838691,20.84,483.91,0.0631028,0.0,0.0
1251,312.5,24.9675,25.1216,164.131,100.621,100.045,-0.000367481,0.0838861,20.8405,483.91,0.0526948,0.0,0.0
1254,313.25,24.7696,24.9615,164.821,100.634,100.083,-0.000320827,0.0838598,20.8408,483.9,0.0503637,0.0,0.0
1257,314,25.1011,25.1056,165.225,100.644,99.8682,-0.00029579,0.0838335,20.8411,483.9,0.0709616,0.0,0.0
1260,314.75,25.0302,24.6751,163.686,100.641,100.028,-0.000292882,0.0838021,20.8407,483.91,0.0560255,0.0,0.0
1263,315.5,25.1749,24.7957,167.795,100.648,100.059,-0.000319989,0.083752,20.8404,483.891,0.0538639,0.0,0.0
1266,316.25,24.5124,24.9355,162.072,100.656,99.993,-0.000365671,0.083704,20.8401,483.91,0.0606722,0.0,0.0
1269,317,24.8812,24.6924,166.598,100.662,100.032,-0.000421988,0.0836303,20.84,483.9,0.057616,0.0,0.0
1272,317.75,24.7053,24.6887,162.264,100.655,100.043,-0.000483888,0.083598,20.8398,483.91,0.0559538,0.0,0.0
1275,318.5,24.3246,24.1463,169.81,100.657,100.028,-0.000527795,0.0836111,20.8398,483.91,0.0574529,0.0,0.0
1278,319.25,24.7986,24.9089,161.542,100.69,100.037,-0.000559284,0.0836593,20.8397,483.91,0.0597518,0.0,0.0
1281,320,24.5147,24.495,161.142,100.675,100.136,-0.00056519,0.0836673,20.8396,483.9,0.0492029,0.0,0.0
1284,320.75,24.7787,24.3192,162.377,100.681,99.9534,-0.000553254,0.0836473,20.8396,483.9,0.0665188,0.0,0.0
1287,321.5,24.3818,24.8034,164.95,100.679,99.9103,-0.000529208,0.0836083,20.8396,483.891,0.0702896,0.0,0.0
1290,322.25,24.8408,24.6777,162.896,100.692,99.9762,-0.000498283,0.0835663,20.8396,483.9,0.0654382,0.0,0.0
1293,323,24.4124,24.8944,165.661,100.697,100.187,-0.000468105,0.0835299,20.8396,483.88,0.0465956,0.0,0.0
1296,323.75,24.127,24.6092,170.763,100.692,100.228,-0.000434092,0.0835034,20.8395,483.891,0.0423827,0.0,0.0
1299,324.5,24.1941,25.2261,168.516,100.689,100.085,-0.000419172,0.0834769,20.8395,483.891,0.055259,0.0,0.0
1302,325.25,24.5908,25.0153,165.433,100.694,99.9519,-0.000401934,0.0834454,20.8395,483.9,0.067899,0.0,0.0
1305,326,24.5065,24.712,162.48,100.703,99.9529,-0.000375472,0.0834418,20.8398,483.91,0.0685939,0.0,0.0
1308,326.75,24.5788,24.745,165.617,100.709,99.9924,-0.000356181,0.0834385,20.8402,483.951,0.0655273,0.0,0.0
1311,327.5,24.4412,24.7495,167.571,100.713,99.9788,-0.000328222,0.0834372,20.8405,483.981,0.0671595,0.0,0.0
1314,328.25,23.8858,23.9735,165.727,100.724,100.077,-0.000290791,0.0834216,20.8404,483.941,0.0591964,0.0,0.0
1317,329,24.3111,24.7041,164.789,100.71,100.043,-0.000246622,0.0833857,20.84,483.961,0.0609971,0.0,0.0
1320,329.75,24.4731,24.5456,167.287,100.714,100.059,-0.000197982,0.0833983,20.8397,483.961,0.0599213,0.0,0.0
1323,330.5,24.3985,24.7279,167.781,100.723,100.064,-0.00016426,0.0834074,20.8395,483.971,0.0602365,0.0,0.0
1326,331.25,24.0427,24.2906,167.581,100.725,100.097,-0.00014865,0.0834141,20.8393,483.951,0.0574116,0.0,0.0
1329,332,24.26,24.6273,166.161,100.734,100.102,-0.000152615,0.083419,20.8398,483.931,0.0577258,0.0,0.0
1332,332.75,24.7869,24.137,167.645,100.733,99.9742,-0.000183297,0.0834225,20.8402,483.941,0.0694179,0.0,0.0
1335,333.5,23.8361,24.3124,168.56,100.733,100.069,-0.000205665,0.0834251,20.8405,483.921,0.0607657,0.0,0.0
1338,334.25,24.4083,24.5187,162.921,100.73,100.121,-0.000234129,0.0834463,20.8407,483.921,0.0557146,0.0,0.0
1341,335,24.2955,24.5705,167.855,100.74,100.125,-0.000252316,0.083394,20.8408,483.931,0.0561973,0.0,0.0
1344,335.75,24.2075,24.3133,165.138,100.748,100.093,-0.00026119,0.0833269,20.8409,483.951,0.0598474,0.0,0.0
1347,336.5,23.7941,25.2057,167.673,100.755,100.077,-0.000272869,0.0832781,20.841,483.941,0.0619272,0.0,0.0
1350,337.25,24.3624,24.7674,166.755,100.754,100.135,-0.000286255,0.0832424,20.841,483.941,0.0565452,0.0,0.0
1353,338,24.4658,24.428,168.373,100.763,100.122,-0.000302577,0.0832938,20.8411,483.951,0.0585497,0.0,0.0
1356,338.75,24.306,24.3816,164.783,100.773,100.182,-0.000322148,0.0833241,20.8411,483.941,0.0540444,0.0,0.0
1359,339.5,24.5631,24.2926,167.926,100.772,100.025,-0.000357258,0.0833341,20.8411,483.941,0.0682942,0.0,0.0
1362,340.25,24.0314,24.0813,164.514,100.752,100.176,-0.000382853,0.0832639,20.8411,483.941,0.0525653,0.0,0.0
1365,341,24.0432,24.5798,165.185,100.777,100.136,-0.000434514,0.0832263,20.8411,483.941,0.0585617,0.0,0.0
1368,341.75,24.0272,24.2479,165.769,100.773,100.123,-0.000485571,0.0832047,20.8412,483.921,0.0593866,0.0,0.0
1371,342.5,23.7349,24.6193,164.038,100.787,100.189,-0.000528503,0.083189,20.8412,483.921,0.0546229,0.0,0.0
1374,343.25,24.1432,24.5332,162.633,100.781,100.029,-0.000558063,0.0832453,20.8412,483.91,0.0687101,0.0,0.0
1377,344,23.8402,24.4556,171.462,100.775,100.191,-0.000556473,0.0833152,20.8412,483.9,0.0533952,0.0,0.0
1380,344.75,23.5151,24.1941,168.266,100.799,100.097,-0.000526223,0.0834243,20.8412,483.91,0.0641294,0.0,0.0
1383,345.5,23.8082,24.3857,166.631,100.795,100.107,-0.00047129,0.0834966,20.8412,483.921,0.0628714,0.0,0.0
1386,346.25,24.0215,24.1772,168.573,100.796,100.234,-0.000402016,0.0835372,20.8412,483.931,0.0513254,0.0,0.0
1389,347,24.0721,24.181,166.555,100.799,100.162,-0.000339056,0.0835667,20.8412,483.941,0.0581725,0.0,0.0
1392,347.75,23.6689,24.7438,161.393,100.8,100.288,-0.000295593,0.0836154,20.8412,483.931,0.0467436,0.0,0.0
1395,348.5,24.2694,24.2951,166.276,100.826,100.177,-0.000264947,0.0836624,20.8412,483.931,0.0593105,0.0,0.0
1398,349.25,24.1428,24.0052,170.153,100.813,100.227,-0.000256002,0.0836967,20.8409,483.921,0.0534289,0.0,0.0
1401,350,23.6039,24.0848,171.053,100.815,100.287,-0.000252628,0.0837353,20.8402,483.931,0.0481779,0.0,0.0
1404,350.75,24.0153,24.5459,171.593,100.825,100.121,-0.000245784,0.0837692,20.8396,483.931,0.0643086,0.0,0.0
1407,351.5,23.8289,24.3354,162.884,100.833,100.189,-0.000223426,0.0837939,20.8392,483.941,0.0587964,0.0,0.0
1410,352.25,23.3229,24.4085,165.411,100.832,100.13,-0.000199435,0.0838506,20.839,483.941,0.0641011,0.0,0.0
1413,353,24.2749,24.2991,167.246,100.837,100.15,-0.000168794,0.0838241,20.8388,483.921,0.0627019,0.0,0.0
1416,353.75,23.8458,24.8873,165.947,100.836,100.213,,0.0837759,,483.91,0.0569051,0.0,0.0
1419,354.5,23.6122,24.0084,166.512,100.85,100.309,,0.0837408,,483.931,0.0492877,0.0,0.0
1422,355.25,23.7881,23.841,162.89,100.84,100.29,,0.0838312,,483.941,0.0501973,0.0,0.0
1425,356,23.7157,24.1722,168.667,100.84,100.016,,0.0839043,,483.951,0.0752383,0.0,0.0
1428,356.75,23.6431,23.7883,163.353,100.848,100.292,,,,483.941,0.050677,0.0,0.0
1431,357.5,24.2604,23.8461,163.867,100.849,100.138,,,,483.951,0.0648582,0.0,0.0
1434,358.25,23.1156,24.5175,165.249,100.859,100.222,,,,483.951,0.0580943,0.0,0.0
1437,359,23.428,24.1222,166.253,100.85,100.038,,,,483.931,0.0741381,0.0,0.0
1440,359.75,23.3316,24.1634,163.039,100.864,100.226,,,,483.941,0.0582943,0.0,0.0
1443,360.5,23.2335,23.3984,170.546,100.876,100.247,,,,483.961,0.0574323,0.0,0.0
1446,361.25,23.6592,23.8316,164.666,100.888,100.129,,,,483.931,0.0692942,0.0,0.0
1449,362,23.7428,23.7216,165.619,100.862,100.104,,,,483.921,0.0692562,0.0,0.0
1452,362.75,23.2474,23.9372,169.15,100.857,100.323,,,,483.891,0.0487481,0.0,0.0
1455,363.5,23.6643,24.4778,162.701,100.878,100.195,,,,483.891,0.0623651,0.0,0.0
1457,364,23.2393,23.6765,163.583,100.863,100.308,,,,483.88,0.0506183,0.0,0.0