File: 02_Data/Overstuffed_Chair/Cone/Overstuffed_Chair_Cone_HF50Scan_210326_R1.csv
Names,Time,Stack TC,Smoke TC,Exh Press,Smoke Comp,Smoke Meas,CO Meter,CO2 Meter,O2 Meter,Sample Mass,Ext Coeff,Start Test,Flame Verif
Chan Gain,,500,500,1,1,1,1,1,1,1,1,1.0,1.0
Offset,,0,0,0.138348,0,0,0,0,0,0,0,0.0,0.0
Gain,,1,1,25.011,13.5067,16.616,1,1,1,1.00091,1.04608,1.0,1.0
Units,sec,C,C,Pa,%,%,%,%,%,g,/m,,
Baseline,,32.0121,34.1829,158.822,101.094,97.8943,-0.000461659,0.0750301,20.979,0.000959206,0.295163,,
2,0.25,28.2751,29.522,159.47,101.288,98.0062,-0.000720503,0.0764069,20.9068,487.023,0.302214,0.0,0.0
4,0.75,27.9428,29.3737,161.334,101.283,97.9545,-0.00072668,0.0778677,20.9046,487.043,0.306646,0.0,0.0
6,1.25,27.9697,29.8224,156.102,101.293,98.17,-0.000736811,0.0794557,20.9029,487.884,0.287376,0.0,0.0
8,1.75,28.2114,29.6193,158.117,101.273,98.4337,-0.000749632,0.0809207,20.9013,487.764,0.26097,0.0,0.0
10,2.25,27.3372,29.4034,158.74,101.307,98.5711,-0.000760018,0.0822683,20.8997,487.404,0.251231,0.0,0.0
12,2.75,27.9899,29.6829,157.551,101.302,98.0387,-0.000764776,0.0834099,20.8985,487.754,0.300445,0.0,0.0
14,3.25,28.5165,30.0851,158.257,101.314,98.0189,-0.00076863,0.0843796,20.8975,488.425,0.303379,0.0,0.0
16,3.75,28.4017,29.8531,156.248,101.303,98.1943,-0.000771752,0.0851079,20.8966,488.014,0.285961,0.0,0.0
18,4.25,27.5956,30.035,158.033,101.311,98.24,-0.000760885,0.0856463,20.896,487.734,0.282481,0.0,0.0
20,4.75,28.7688,30.1956,156.41,101.309,97.9662,-0.000752082,0.0860824,20.8954,487.013,0.307868,0.0,0.0
22,5.25,28.6664,30.155,162.204,101.317,98.0047,-0.00073521,0.0861368,20.8955,486.483,0.304969,0.0,0.0
24,5.75,28.8538,30.1433,160.777,101.304,98.025,-0.000721543,0.0861808,20.8959,486.413,0.301913,0.0,0.0
26,6.25,28.8291,30.6125,159.898,101.33,97.9535,-0.00070073,0.0860128,20.8963,486.223,0.310961,0.0,0.0
28,6.75,29.2817,30.6852,155.748,101.33,97.8597,-0.000683871,0.0858768,20.8966,485.722,0.319753,0.0,0.0
30,7.25,29.0458,30.0476,156.557,101.334,97.9053,-0.000670216,0.0857665,20.8968,485.602,0.31581,0.0,0.0
32,7.75,28.8873,29.8847,153.399,101.321,97.7811,-0.000652104,0.085718,20.897,485.572,0.326304,0.0,0.0
34,8.25,29.0019,30.9205,160.292,101.349,97.6518,-0.000631088,0.0856787,20.8975,485.542,0.340985,0.0,0.0
36,8.75,28.9355,30.8151,160.538,101.337,97.6634,-0.000611501,0.0858641,20.898,485.632,0.338806,0.0,0.0
38,9.25,29.4401,31.1384,157.696,101.347,97.5732,-0.000593329,0.0860142,20.8983,485.642,0.348187,0.0,0.0
40,9.75,29.4658,31.4016,161.837,101.335,97.5022,-0.000578609,0.0861359,20.8986,485.662,0.353821,0.0,0.0
42,10.25,28.8455,31.0366,159.67,101.354,97.5544,-0.000561815,0.0865492,20.8986,485.652,0.350586,0.0,0.0
44,10.75,29.8962,30.983,156.68,101.352,97.8394,-0.000548211,0.0871672,20.8984,485.772,0.323706,0.0,0.0
46,11.25,29.37,31.727,156.078,101.362,97.8485,-0.000525655,0.0879902,20.8982,485.962,0.323747,0.0,0.0
48,11.75,29.3104,31.4857,154.701,101.366,97.6325,-0.000497001,0.088947,20.8972,486.062,0.3444,0.0,0.0
50,12.25,29.6324,31.8836,158.346,101.372,97.4844,-0.000473791,0.089722,20.8964,486.103,0.358812,0.0,0.0
52,12.75,29.7609,32.2688,157.801,101.368,96.9185,-0.000434288,0.091086,20.895,486.133,0.411862,0.0,1.0
54,13.25,29.9516,32.6905,152.875,101.38,96.3298,-0.000402289,0.0921908,20.8932,486.103,0.468853,0.0,1.0
56,13.75,30.1941,31.9076,156.842,101.385,95.6985,-0.000352015,0.0935892,20.8918,486.113,0.529711,0.0,1.0
58,14.25,30.1845,32.6555,157.171,101.385,94.6225,-0.000311292,0.0951748,20.8898,486.113,0.633469,0.0,1.0
60,14.75,29.8361,32.3919,154.177,101.388,94.0997,-0.000254588,0.0964593,20.8881,486.092,0.68457,0.0,1.0
62,15.25,30.4453,32.1945,157.465,101.406,93.5257,-0.000187311,0.0990623,20.8841,486.193,0.742321,0.0,1.0
64,15.75,30.2534,32.5678,158.073,101.407,92.2204,-9.49421e-05,0.101171,20.8809,486.213,0.871357,0.0,1.0
66,16.25,29.7402,32.9168,153.968,101.407,90.7114,1.39643e-05,0.105455,20.8676,486.273,1.02279,0.0,1.0
68,16.75,29.0983,32.1944,156.403,101.408,90.5364,0.000151722,0.111244,20.8569,486.012,1.04058,0.0,1.0
70,17.25,29.7653,32.1641,150.389,101.414,93.5429,0.000307895,0.120565,20.8331,486.113,0.741338,0.0,1.0
72,17.75,30.0705,32.5286,149.488,101.426,95.1443,0.000434395,0.132285,20.8138,486.042,0.586664,0.0,0.0
74,18.25,29.6295,33.1572,151.259,101.436,95.3709,0.000607213,0.146482,20.7921,485.872,0.565724,0.0,0.0
76,18.75,30.1069,33.558,151.24,101.433,94.5936,0.000810513,0.162214,20.7691,485.922,0.6406,0.0,0.0
78,19.25,30.4751,34.0194,145.828,101.433,93.802,0.00103217,0.178804,20.7504,485.902,0.717671,0.0,0.0
80,19.75,31.5137,34.2876,136.48,101.438,94.2341,0.00126301,0.195703,20.7269,485.822,0.675989,0.0,0.0
82,20.25,31.3094,35.7341,145.207,101.439,95.5758,0.00150844,0.209391,20.7078,485.892,0.546295,0.0,0.0
84,20.75,31.7535,35.8099,153.551,101.461,93.8943,0.00175984,0.226694,20.687,485.702,0.711219,0.0,0.0
86,21.25,32.0803,37.0983,144.469,101.442,92.7762,0.00200581,0.24071,20.6702,485.802,0.819356,0.0,0.0
88,21.75,31.9055,37.5847,152.973,101.452,93.7549,0.00224314,0.254919,20.649,485.712,0.724001,0.0,0.0
90,22.25,32.9453,37.7412,144.26,101.451,91.2261,0.00243538,0.268999,20.6319,485.672,0.974791,0.0,0.0
92,22.75,33.9971,37.0651,143.152,101.483,90.3326,0.00265804,0.282139,20.6159,485.622,1.06805,0.0,0.0
94,23.25,33.6515,38.7593,148.049,101.46,91.5572,0.00283839,0.294343,20.601,485.552,0.942364,0.0,0.0
96,23.75,34.0165,38.7913,151.721,101.467,92.0759,0.00304035,0.304228,20.5878,485.502,0.891193,0.0,0.0
98,24.25,34.4412,39.5274,143.666,101.47,92.0455,0.00320394,0.314749,20.5761,485.542,0.894486,0.0,0.0
100,24.75,34.3972,40.0679,148.475,101.472,91.7129,0.00333645,0.323271,20.5666,485.402,0.927857,0.0,0.0
102,25.25,35.096,40.4548,142.596,101.479,88.5923,0.00345229,0.33169,20.5589,485.402,1.24618,0.0,0.0
104,25.75,35.0974,40.7093,149.266,101.491,93.0896,0.00355377,0.33851,20.5526,485.362,0.792849,0.0,0.0
106,26.25,35.5104,41.9466,151.279,101.496,93.2179,0.00362616,0.344511,20.5476,485.312,0.780735,0.0,0.0
108,26.75,35.5851,42.1338,144.568,101.496,89.4706,0.00367596,0.349802,20.5435,485.292,1.15723,0.0,0.0
110,27.25,36.154,42.5152,136.953,101.49,89.5426,0.00370453,0.353704,20.5402,485.252,1.14929,0.0,0.0
112,27.75,36.3114,43.1073,149.488,101.507,95.4515,0.00371708,0.356519,20.5384,485.232,0.564456,0.0,0.0
114,28.25,36.7199,43.5297,153.526,101.498,92.4152,0.00372725,0.358799,20.5369,485.132,0.860242,0.0,0.0
116,28.75,36.6287,43.616,145.899,101.519,91.3513,0.00372804,0.360042,20.5367,485.122,0.968349,0.0,0.0
118,29.25,37.4109,44.0637,144,101.504,91.0085,0.00372867,0.360506,20.5373,485.112,1.00151,0.0,0.0
120,29.75,37.3552,44.393,150.313,101.519,92.5774,0.00372298,0.360517,20.5378,485.072,0.846045,0.0,0.0
122,30.25,37.5715,44.709,144.458,101.526,91.9902,0.00371837,0.360199,20.5387,484.991,0.905028,0.0,0.0
124,30.75,38.0074,45.1703,148.792,101.532,92.0567,0.00371463,0.359941,20.5399,484.971,0.899,0.0,0.0
126,31.25,38.4464,45.6706,146.865,101.519,92.3457,0.00370416,0.358913,20.5416,484.951,0.869043,0.0,0.0
128,31.75,38.1576,45.7262,151.397,101.543,91.8401,0.00369568,0.35808,20.5437,484.831,0.92154,0.0,0.0
130,32.25,38.7343,46.4847,153.964,101.551,90.0512,0.0036888,0.356605,20.5454,484.761,1.10279,0.0,0.0
132,32.75,38.7143,46.2661,151.665,101.548,91.367,0.00367952,0.355411,20.5468,484.721,0.969453,0.0,0.0
134,33.25,38.8851,46.492,142.33,101.553,92.1565,0.00367199,0.354443,20.5479,484.711,0.890911,0.0,0.0
136,33.75,38.7822,46.5692,150.202,101.553,91.9699,0.00366916,0.354013,20.5488,484.701,0.909547,0.0,0.0
138,34.25,39.1604,46.7421,146.964,101.541,90.8559,0.00366981,0.353984,20.5495,484.711,1.0203,0.0,0.0
140,34.75,39.1008,46.8105,149.038,101.567,89.786,0.00368341,0.355519,20.5501,484.641,1.13131,0.0,0.0
142,35.25,39.369,47.4576,147.726,101.552,89.466,0.00370618,0.358168,20.5453,484.601,1.16269,0.0,0.0
144,35.75,39.6205,47.9147,145.449,101.565,90.3493,0.0037508,0.360312,20.5413,484.601,1.07376,0.0,0.0
146,36.25,39.8103,48.065,143.884,101.563,88.7693,0.00381048,0.363756,20.5382,484.531,1.23547,0.0,0.0
148,36.75,40.0731,48.1544,145.54,101.57,87.9549,0.00385883,0.366545,20.5356,484.421,1.32068,0.0,0.0
150,37.25,40.1984,48.8015,145.859,101.577,88.6988,0.00396895,0.368693,20.5335,484.341,1.24399,0.0,0.0
152,37.75,40.7915,48.92,151.362,101.587,90.3093,0.00405815,0.370332,20.5318,484.311,1.07977,0.0,0.0
154,38.25,40.7244,49.2766,146.375,101.572,90.328,0.00424021,0.371549,20.5297,484.261,1.07652,0.0,0.0
156,38.75,40.9911,49.2234,151.227,101.593,89.9807,0.00438769,0.372434,20.5274,484.301,1.11378,0.0,0.0
158,39.25,40.8461,49.4463,148.536,101.582,89.4046,0.00450714,0.373151,20.5256,484.241,1.1717,0.0,0.0
160,39.75,40.972,49.4826,146.304,101.603,88.7906,0.0047981,0.374269,20.5241,484.131,1.23688,0.0,0.0
162,40.25,41.5135,49.8623,147.43,101.591,89.6384,0.00503378,0.375175,20.5228,484.051,1.1486,0.0,0.0
164,40.75,41.2733,50.3778,143.321,101.602,87.2293,0.00539463,0.377577,20.5197,484.051,1.3996,0.0,0.0
166,41.25,41.2681,50.7334,143.65,101.592,89.8321,0.00568692,0.379522,20.5153,484.091,1.1289,0.0,0.0
168,41.75,41.5222,50.5822,142.921,101.609,88.4371,0.00612228,0.384205,20.502,484.031,1.27404,0.0,0.0
170,42.25,42.1059,50.4347,147.646,101.606,87.3363,0.00647492,0.390794,20.4912,483.981,1.38872,0.0,0.0
172,42.75,42.3324,51.0248,140.163,101.62,82.2817,0.00694744,0.396132,20.4769,483.84,1.937,0.0,0.0
174,43.25,42.1824,51.6161,141.98,101.617,83.3897,0.00733018,0.406779,20.4602,483.72,1.81401,0.0,0.0
176,43.75,42.8857,52.192,139.89,101.632,83.0677,0.00786128,0.415404,20.4418,483.68,1.85081,0.0,0.0
178,44.25,43.1385,52.9407,137.978,101.617,83.7771,0.00829148,0.427618,20.4224,483.75,1.77147,0.0,0.0
180,44.75,42.9639,53.1688,146.035,101.626,84.4571,0.00889583,0.437511,20.4,483.6,1.69811,0.0,0.0
182,45.25,43.7299,53.1324,149.107,101.626,82.9708,0.00938536,0.452658,20.3757,483.37,1.86099,0.0,0.0
184,45.75,44.479,54.0374,142.654,101.641,80.086,0.00978187,0.464927,20.3561,483.37,2.18705,0.0,0.0
186,46.25,44.6151,55.1104,139.158,101.646,79.5059,0.0101031,0.483898,20.3252,483.3,2.25428,0.0,0.0
188,46.75,45.3892,54.9491,140.274,101.657,79.7154,0.0104501,0.499264,20.3121,483.24,2.23107,0.0,0.0
190,47.25,45.0443,56.3473,140.12,101.657,78.2677,0.0110436,0.523531,20.2788,483.12,2.39925,0.0,0.0
192,47.75,45.6023,57.0383,130.434,101.654,81.2827,0.0116054,0.543187,20.2422,483.03,2.05218,0.0,0.0
194,48.25,46.9391,57.8856,138.015,101.645,84.1239,0.0121334,0.559109,20.2009,482.96,1.73609,0.0,0.0
196,48.75,46.824,58.9195,130.311,101.652,79.1348,0.0126169,0.589362,20.1569,482.779,2.2977,0.0,0.0
198,49.25,47.7327,60.366,129.216,101.662,80.6428,0.0130588,0.613867,20.1101,482.779,2.12537,0.0,0.0
200,49.75,48.715,61.4354,123.056,101.658,80.3472,0.0134554,0.624314,20.062,482.639,2.1587,0.0,0.0
202,50.25,49.0483,62.3396,129.98,101.662,81.2757,0.0138115,0.662488,20.01,482.559,2.05365,0.0,0.0
204,50.75,49.8047,63.7769,129.921,101.671,81.6793,0.0141297,0.693409,19.9562,482.379,2.00904,0.0,0.0
206,51.25,50.6464,65.2985,123.112,101.668,84.5737,0.0144142,0.731629,19.9125,482.299,1.68921,0.0,0.0
208,51.75,52.229,66.9179,134.026,101.667,83.1275,0.0146675,0.762586,19.8536,482.219,1.8474,0.0,0.0
210,52.25,52.9156,68.1169,126.019,101.689,83.0722,0.0148932,0.802562,19.8059,482.009,1.85548,0.0,0.0
212,52.75,53.7098,69.7895,113.78,101.678,80.8421,0.0150761,0.834942,19.7673,481.989,2.10421,0.0,0.0
214,53.25,54.9123,71.5046,115.435,101.681,81.5393,0.0152242,0.874547,19.7191,481.819,2.02567,0.0,0.0
216,53.75,55.338,73.6628,123.749,101.677,81.983,0.0153809,0.906626,19.6801,481.729,1.97551,0.0,0.0
218,54.25,57.0962,74.5548,115.258,101.683,83.6665,0.0155409,0.938896,19.6485,481.588,1.78951,0.0,0.0
220,54.75,58.0408,77.0205,124.263,101.682,84.7365,0.0156706,0.970692,19.6081,481.468,1.67287,0.0,0.0
222,55.25,59.2083,78.2556,115.64,101.694,83.5068,0.015856,0.996448,19.5754,481.338,1.80808,0.0,0.0
224,55.75,60.6185,80.2336,115.006,101.695,83.7218,0.0160063,1.03358,19.5287,481.188,1.78456,0.0,0.0
226,56.25,60.9138,81.7781,124.291,101.697,80.2148,0.0162325,1.06366,19.4909,481.108,2.17736,0.0,0.0
228,56.75,61.8446,83.6155,118.685,101.694,82.4627,0.0164158,1.08802,19.4465,480.958,1.9235,0.0,0.0
230,57.25,63.3664,85.9769,117.451,101.702,81.8492,0.0167209,1.12014,19.3981,480.768,1.99273,0.0,0.0
232,57.75,65.0385,88.0045,115.364,101.695,82.7092,0.016968,1.15728,19.3489,480.668,1.89619,0.0,0.0
234,58.25,65.5449,90.5161,121.355,101.697,81.4207,0.0172636,1.19195,19.3,480.587,2.04049,0.0,0.0
236,58.75,67.1059,91.5564,116.173,101.708,80.6732,0.0175888,1.22416,19.2603,480.417,2.12608,0.0,0.0
238,59.25,67.9815,94.2166,110.948,101.704,82.2457,0.0179178,1.25024,19.2202,480.277,1.94865,0.0,0.0
240,59.75,69.4763,95.7936,128.365,101.686,80.4871,0.0182432,1.27901,19.1877,480.127,2.1453,0.0,0.0
242,60.25,70.6896,97.188,113.496,101.705,78.6743,0.0185068,1.30232,19.157,479.947,2.35605,0.0,0.0
244,60.75,71.2823,98.7646,113.081,101.702,77.1546,0.0187987,1.32784,19.1281,479.867,2.53473,0.0,0.0
246,61.25,72.0067,99.9552,117.259,101.712,77.6521,0.0191057,1.34851,19.1,479.697,2.47669,0.0,0.0
248,61.75,73.3195,101.633,110.757,101.701,78.6895,0.0194288,1.36909,19.073,479.587,2.3539,0.0,0.0
250,62.25,73.4239,103.549,114.568,101.706,75.8753,0.0197575,1.38922,19.0484,479.436,2.68858,0.0,0.0
252,62.75,75.7057,104.378,108.083,101.699,79.6352,0.0201148,1.40552,19.0259,479.206,2.24413,0.0,0.0
254,63.25,76.2059,105.867,114.043,101.711,78.3422,0.0204863,1.42422,19.0075,479.116,2.39539,0.0,0.0
256,63.75,77.1469,107.972,115.421,101.697,78.1982,0.0208886,1.43937,18.9923,478.926,2.41104,0.0,0.0
258,64.25,77.7012,109.334,108.252,101.708,76.3844,0.0213058,1.4536,18.98,478.796,2.6274,0.0,0.0
260,64.75,79.1856,110.222,118.222,101.7,76.4244,0.0216437,1.46513,18.9692,478.636,2.62184,0.0,0.0
262,65.25,79.9514,111.237,114.102,101.711,75.2531,0.0221385,1.47529,18.9604,478.546,2.76458,0.0,0.0
264,65.75,80.8524,112.904,118.503,101.702,75.2754,0.0225392,1.48353,18.9529,478.385,2.76104,0.0,0.0
266,66.25,81.8856,113.45,117.123,101.718,77,0.0230586,1.49226,18.9468,478.285,2.5546,0.0,0.0
268,66.75,82.1468,115.201,105.49,101.694,76.7936,0.0234792,1.49932,18.9418,478.065,2.57711,0.0,0.0
270,67.25,83.0545,115.315,111.458,101.704,75.0883,0.0238199,1.50702,18.9334,477.905,2.78406,0.0,0.0
272,67.75,83.6993,117.252,108.389,101.704,76.6019,0.0243716,1.51503,18.9265,477.805,2.60093,0.0,0.0
274,68.25,84.5966,117.81,117.481,101.71,72.8333,0.0248185,1.52373,18.9179,477.595,3.06437,0.0,0.0
276,68.75,85.0825,118.933,118.317,101.7,72.027,0.0253162,1.53276,18.9108,477.465,3.16559,0.0,0.0
278,69.25,85.1876,119.434,121.833,101.701,75.9199,0.0257194,1.54008,18.9052,477.314,2.6827,0.0,0.0
280,69.75,86.2368,120.057,121.429,101.686,73.1117,0.0260993,1.54929,18.9006,477.144,3.02725,0.0,0.0
282,70.25,87.2661,121.301,112.44,101.712,72.5833,0.0264551,1.55675,18.8968,476.954,3.09611,0.0,0.0
284,70.75,87.578,122.739,116.226,101.696,69.7949,0.0267857,1.56279,18.8938,476.844,3.45417,0.0,0.0
286,71.25,88.0343,122.908,118.981,101.707,72.6497,0.0270918,1.56888,18.8918,476.654,3.08723,0.0,0.0
288,71.75,88.4142,124.078,112.419,101.693,70.6153,0.0273698,1.57488,18.8902,476.524,3.34667,0.0,0.0
290,72.25,88.3307,125.29,117.781,101.704,70.0575,0.0276221,1.5786,18.8947,476.414,3.42037,0.0,0.0
292,72.75,89.7947,125.931,119.822,101.701,72.5306,0.0278521,1.58058,18.8983,476.233,3.10181,0.0,0.0
294,73.25,89.9762,126.195,117.842,101.703,68.8613,0.0280616,1.58068,18.907,476.003,3.57832,0.0,0.0
296,73.75,90.9735,126.762,114.568,101.674,69.4506,0.0282313,1.57941,18.914,475.973,3.49757,0.0,0.0
298,74.25,90.886,127.896,110.109,101.686,71.4799,0.0283959,1.57838,18.9265,475.823,3.23433,0.0,0.0
300,74.75,91.6849,127.4,112.192,101.693,69.7254,0.0285538,1.57166,18.9427,475.653,3.46301,0.0,0.0
302,75.25,91.6943,128.153,113.481,101.688,66.5085,0.0286957,1.56253,18.9559,475.523,3.89603,0.0,0.0
304,75.75,91.99,128.621,125.124,101.687,68.7488,0.0288231,1.55181,18.9665,475.373,3.59192,0.0,0.0
306,76.25,92.4618,128.509,117.033,101.699,68.4805,0.0289264,1.54314,18.9858,475.203,3.62887,0.0,0.0
308,76.75,92.0895,128.556,119.371,101.684,68.0906,0.0290322,1.52929,19.0014,475.082,3.6799,0.0,0.0
310,77.25,92.6901,128.74,111.007,101.683,70.2092,0.0291377,1.51807,19.0179,474.902,3.39871,0.0,0.0
312,77.75,92.533,128.723,115.85,101.687,70.7933,0.0292232,1.50387,19.0346,474.772,3.32297,0.0,0.0
314,78.25,93.039,128.607,121.74,101.686,69.5849,0.0293261,1.48776,19.0578,474.642,3.48091,0.0,0.0
316,78.75,92.6314,128.471,119.226,101.681,67.2524,0.0294094,1.47472,19.0852,474.512,3.7933,0.0,0.0
318,79.25,92.9635,128.491,121.83,101.687,68.8867,0.0294951,1.46415,19.116,474.382,3.57349,0.0,0.0
320,79.75,93.1397,128.014,113.995,101.675,69.085,0.0295646,1.4409,19.1488,474.292,3.54604,0.0,0.0
322,80.25,92.9604,127.639,122.552,101.678,68.1479,0.0296186,1.42207,19.1847,474.102,3.67162,0.0,0.0
324,80.75,93.203,127.651,116.148,101.672,68.7797,0.0296604,1.39771,19.2222,473.971,3.58646,0.0,0.0
326,81.25,93.1019,127.21,122.268,101.672,66.9578,0.0296942,1.37799,19.2525,473.841,3.8328,0.0,0.0
328,81.75,92.7227,126.967,119.292,101.67,66.8214,0.029667,1.35775,19.2825,473.761,3.85129,0.0,0.0
330,82.25,92.8717,126.078,119.413,101.674,66.5409,0.0296449,1.33752,19.3116,473.641,3.89021,0.0,0.0
332,82.75,92.3109,125.7,125.25,101.655,64.8833,0.0295954,1.31676,19.3352,473.511,4.12003,0.0,0.0
334,83.25,92.2513,125.319,120.768,101.667,63.6496,0.0294975,1.29601,19.3833,473.381,4.29723,0.0,0.0
336,83.75,92.1868,124.875,122.549,101.659,66.6997,0.0294711,1.2792,19.3963,473.251,3.86701,0.0,0.0
338,84.25,91.6306,124.856,136.662,101.665,70.0205,0.0293688,1.25476,19.43,473.171,3.42176,0.0,0.0
340,84.75,91.5728,123.585,130.651,101.658,68.3608,0.0292514,1.23496,19.4573,473.011,3.64124,0.0,0.0
342,85.25,91.0407,123.481,129.586,101.647,69.8877,0.0291253,1.21203,19.4989,472.941,3.43751,0.0,0.0
344,85.75,90.6491,122.568,125.434,101.645,69.1473,0.0290231,1.18724,19.5327,472.84,3.53505,0.0,0.0
346,86.25,90.7688,122.091,132.419,101.65,69.2619,0.0287941,1.15367,19.5672,472.75,3.52037,0.0,0.0
348,86.75,90.2169,121.058,131.772,101.644,70.1554,0.0286087,1.14153,19.6018,472.58,3.4022,0.0,0.0
350,87.25,89.868,119.956,136.864,101.634,67.6555,0.0283086,1.11634,19.6349,472.51,3.73422,0.0,0.0
352,87.75,89.4194,119.287,131.238,101.64,66.9197,0.0280656,1.09195,19.6663,472.43,3.83508,0.0,0.0
354,88.25,89.2276,118.679,133.096,101.634,67.905,0.0278688,1.07219,19.6918,472.31,3.70044,0.0,0.0
356,88.75,88.7952,118.034,132.518,101.632,67.3061,0.0275836,1.0477,19.7185,472.27,3.78154,0.0,0.0
358,89.25,88.6421,117.537,136.769,101.632,67.9065,0.0272394,1.02786,19.7456,472.13,3.70005,0.0,0.0
360,89.75,87.7057,116.358,134.771,101.625,71.5595,0.0268471,1.00513,19.7675,472.04,3.21861,0.0,0.0
362,90.25,87.337,114.98,134.667,101.618,70.1245,0.0264271,0.986716,19.7915,471.96,3.4039,0.0,0.0
364,90.75,86.8994,114.519,133.728,101.621,69.837,0.0259453,0.970303,19.811,471.96,3.44183,0.0,0.0
366,91.25,86.1927,112.965,136.772,101.62,68.5302,0.0254276,0.95566,19.8285,471.86,3.61504,0.0,0.0
368,91.75,86.4133,113.235,124.836,101.606,66.2884,0.0250083,0.943799,19.8427,471.739,3.91904,0.0,0.0
370,92.25,85.6085,112.531,127.941,101.602,71.3506,0.0242998,0.92994,19.8614,471.649,3.24339,0.0,0.0
372,92.75,85.7519,111.844,130.581,101.598,73.6532,0.023726,0.914889,19.8832,471.649,2.95153,0.0,0.0
374,93.25,85.2087,110.913,136.303,101.596,78.4974,0.0227807,0.898273,19.9068,471.609,2.36693,0.0,0.0
376,93.75,84.6403,110.439,142.582,101.599,73.4844,0.022015,0.880831,19.9314,471.499,2.97266,0.0,0.0
378,94.25,84.5843,109.816,136.357,101.587,75.4873,0.0208789,0.866704,19.9514,471.479,2.72486,0.0,0.0
380,94.75,83.935,108.856,138.988,101.583,77.7271,0.0199587,0.843376,19.9835,471.439,2.45622,0.0,0.0
382,95.25,83.9099,108.62,146.787,101.575,77.8032,0.0192133,0.824481,20.0096,471.429,2.44646,0.0,0.0
384,95.75,83.3966,107.306,136.683,101.59,81.6326,0.0179144,0.794994,20.0405,471.409,2.00696,0.0,0.0
386,96.25,82.6302,106.704,144.953,101.587,83.8638,0.0168623,0.77111,20.0744,471.379,1.75923,0.0,0.0
388,96.75,82.0945,105.269,144.871,101.571,85.5163,0.015733,0.742967,20.1018,471.309,1.57871,0.0,0.0
390,97.25,81.6811,104.553,136.283,101.556,88.7814,0.0151204,0.712254,20.125,471.369,1.23358,0.0,0.0
392,97.75,81.1705,103.215,143.688,101.56,92.5074,0.0134333,0.687376,20.1645,471.319,0.856671,0.0,0.0
394,98.25,80.5101,102.264,150.973,101.544,92.5724,0.0128578,0.648038,20.2088,471.269,0.848819,0.0,0.0
396,98.75,79.8207,101.04,147.249,101.554,92.7301,0.0118737,0.616174,20.2555,471.299,0.834058,0.0,0.0
398,99.25,79.2876,100.265,152.237,101.54,95.1042,0.0107663,0.582126,20.2934,471.299,0.600889,0.0,0.0
400,99.75,78.5266,98.5728,148.389,101.544,95.9358,0.00986924,0.547133,20.3241,471.269,0.521336,0.0,0.0
402,100.25,77.701,97.6528,149.409,101.536,95.4029,0.00914265,0.532215,20.3694,471.259,0.571744,0.0,0.0
404,100.75,76.9998,95.9413,145.017,101.544,96.0215,0.00840592,0.479833,20.406,471.279,0.513105,0.0,0.0
406,101.25,76.2396,94.8298,152.386,101.524,96.3937,0.00767577,0.465742,20.4483,471.269,0.475855,0.0,0.0
408,101.75,75.4311,93.9297,152.617,101.531,95.8805,0.00702015,0.433614,20.4826,471.279,0.525432,0.0,0.0
410,102.25,75.1026,92.9097,145.12,101.517,95.8339,0.00643131,0.40759,20.5192,471.299,0.528668,0.0,0.0
412,102.75,74.267,91.5681,149.399,101.526,96.7806,0.00595435,0.386511,20.5489,471.269,0.439284,0.0,0.0
414,103.25,73.3954,90.9734,153.849,101.504,97.6117,0.00544889,0.363493,20.5778,471.259,0.358808,0.0,0.0
416,103.75,73.0324,89.1689,147.967,101.514,97.7293,0.00503946,0.339499,20.6057,471.289,0.34865,0.0,0.0
418,104.25,72.2384,88.0809,147.382,101.5,97.7679,0.00466326,0.317492,20.6329,471.279,0.343766,0.0,0.0
420,104.75,71.6548,87.0585,148.793,101.512,99.0467,0.00435854,0.29735,20.6592,471.289,0.22556,0.0,0.0
422,105.25,70.9023,86.1478,155.472,101.494,98.5894,0.00410064,0.281035,20.6825,471.289,0.266429,0.0,0.0
424,105.75,70.2821,85.1629,153.189,101.5,98.7536,0.00388178,0.26281,20.7034,471.279,0.251746,0.0,0.0
426,106.25,69.8073,84.0565,150.774,101.49,98.8906,0.0037008,0.248047,20.7228,471.289,0.238064,0.0,0.0
428,106.75,69.0972,82.941,147.597,101.496,99.3084,0.0035542,0.23414,20.7409,471.309,0.199898,0.0,0.0
430,107.25,69.0949,82.6864,151.638,101.486,99.064,0.00343806,0.221122,20.7555,471.319,0.221651,0.0,0.0
432,107.75,67.9957,81.2747,149.393,101.49,99.209,0.00334633,0.209168,20.7696,471.309,0.2086,0.0,0.0
434,108.25,67.8534,80.1437,153.376,101.478,99.3348,0.0032831,0.198215,20.781,471.299,0.195858,0.0,0.0
436,108.75,66.7041,79.4967,151.285,101.491,99.7526,0.00324184,0.18818,20.7924,471.289,0.158497,0.0,0.0
438,109.25,66.4891,78.5852,150.35,101.452,99.1573,0.00320842,0.179004,20.8017,471.289,0.20992,0.0,0.0
440,109.75,65.8105,77.7328,155.576,101.472,98.8672,0.00318135,0.17067,20.8092,471.289,0.238626,0.0,0.0
442,110.25,65.7545,76.967,147.187,101.459,99.3961,0.00323127,0.163108,20.8175,471.299,0.188514,0.0,0.0
444,110.75,64.897,76.1855,154.59,101.463,99.998,0.0032717,0.156007,20.8243,471.309,0.133451,0.0,0.0
446,111.25,64.229,75.4232,151.021,101.451,98.9621,0.00337891,0.149376,20.8304,471.319,0.227966,0.0,0.0
448,111.75,64.1344,74.5413,159.742,101.465,99.3059,0.00346575,0.144005,20.836,471.269,0.197336,0.0,0.0
450,112.25,63.3521,73.5624,152.268,101.452,99.5482,0.0035806,0.138827,20.8415,471.269,0.173811,0.0,0.0
452,112.75,63.0814,72.9828,152.064,101.449,99.1573,0.00371369,0.133889,20.8468,471.309,0.209659,0.0,0.0
454,113.25,62.8588,71.8367,155.695,101.436,99.1542,0.00391749,0.129889,20.8515,471.299,0.208747,0.0,0.0
456,113.75,62.2136,71.5462,150.961,101.458,99.4189,0.00408256,0.125276,20.8558,471.309,0.186297,0.0,0.0
458,114.25,62.0235,71.3067,149.486,101.444,99.5787,0.00426298,0.121539,20.86,471.309,0.170298,0.0,0.0
460,114.75,61.1887,70.4297,149.899,101.459,99.4194,0.00445114,0.117637,20.864,471.289,0.186362,0.0,0.0
462,115.25,61.181,70.0964,152.449,101.435,99.1461,0.00465238,0.114476,20.8672,471.309,0.209386,0.0,0.0
464,115.75,60.5334,68.9251,151.369,101.451,99.3956,0.00481539,0.111136,20.8698,471.319,0.187854,0.0,0.0
466,116.25,60.6145,67.9408,152.23,101.427,98.9159,0.00494742,0.108432,20.8719,471.309,0.230083,0.0,0.0
468,116.75,59.8844,67.7231,155.658,101.438,98.9849,0.0050832,0.105896,20.8737,471.319,0.224658,0.0,0.0
470,117.25,58.6934,66.9773,153.384,101.425,99.1071,0.00519317,0.103533,20.8751,471.329,0.21218,0.0,0.0
472,117.75,58.7485,66.4511,150.695,101.43,99.385,0.00529354,0.101317,20.8631,471.319,0.186897,0.0,0.0
474,118.25,57.7819,66.2533,153.675,101.411,99.5254,0.00537484,0.0992518,20.8416,471.329,0.17226,0.0,0.0
476,118.75,57.7672,64.8161,152.63,101.435,99.1973,0.00544729,0.0972353,20.8242,471.309,0.204721,0.0,0.0
478,119.25,57.4645,64.5641,155.178,101.415,99.2278,0.00551192,0.0952929,20.74,471.339,0.20008,0.0,0.0
480,119.75,57.2141,64.0515,155.428,101.438,98.8099,0.00557616,0.0937195,20.6718,471.339,0.24089,0.0,0.0
482,120.25,57.0961,63.0363,155.228,101.423,99.1319,0.00563889,0.0919292,20.5894,471.319,0.209656,0.0,0.0
484,120.75,56.7206,63.4417,153.63,101.434,99.1771,0.00570623,0.090479,20.5227,471.309,0.20645,0.0,0.0
486,121.25,56.2438,62.2904,152.853,101.423,99.1933,0.00577564,0.0892401,20.4687,471.339,0.204015,0.0,0.0
488,121.75,55.9598,62.4583,154.796,101.429,99.2435,0.0058451,0.0881788,20.4249,471.299,0.199894,0.0,0.0
490,122.25,55.8906,61.409,150.502,101.413,99.7262,0.00591326,0.0873334,20.3895,471.309,0.153951,0.0,0.0
492,122.75,55.5079,61.1478,152.359,101.424,99.461,0.00596847,0.0866615,20.3607,471.309,0.179318,0.0,0.0
494,123.25,54.9939,60.7307,147.584,101.413,99.2237,0.0060132,0.0861315,20.3375,471.299,0.200231,0.0,0.0
496,123.75,55.0121,59.7887,146.362,101.421,99.284,0.00605471,0.0857151,20.3186,471.319,0.195399,0.0,0.0
498,124.25,54.5252,60.1118,149.498,101.304,99.708,0.00609311,0.0853778,20.4232,471.309,0.145704,0.0,0.0
500,124.75,54.0389,59.9959,157.443,101.417,98.9651,0.00611892,0.0851045,20.5079,471.289,0.224589,0.0,0.0
502,125.25,54.2153,59.0024,151.35,101.417,99.6836,0.00613505,0.0848832,20.5765,471.279,0.15817,0.0,0.0
504,125.75,54.4095,58.8725,151.066,101.425,98.9859,0.00614085,0.084704,20.6321,471.279,0.223407,0.0,0.0
506,126.25,53.4469,58.6552,154.84,101.436,99.1821,0.00613899,0.0846088,20.6771,471.309,0.206166,0.0,0.0
508,126.75,53.7546,58.0042,155.135,101.417,98.5711,0.0061322,0.0845766,20.7136,471.309,0.261194,0.0,0.0
510,127.25,53.5146,57.8059,152.424,101.421,99.0148,0.00612194,0.0845506,20.7431,471.309,0.220356,0.0,0.0
512,127.75,53.7031,57.4582,153.26,101.421,99.5726,0.00611362,0.0845566,20.767,471.299,0.168808,0.0,0.0
514,128.25,53.2588,56.7747,154.343,101.425,99.1613,0.00610226,0.0845615,20.7864,471.289,0.20712,0.0,0.0
516,128.75,52.4451,56.428,152.454,101.429,98.5326,0.00608889,0.0846605,20.8021,471.299,0.265864,0.0,0.0
518,129.25,52.0817,56.4618,151.988,101.424,99.1304,0.00607476,0.0847407,20.8148,471.299,0.209871,0.0,0.0
520,129.75,52.2565,56.2856,152.661,101.414,99.1466,0.00606033,0.0848327,20.8251,471.309,0.207511,0.0,0.0
522,130.25,51.7988,55.3632,154.942,101.425,98.956,0.00604865,0.0849073,20.8335,471.299,0.226107,0.0,0.0
524,130.75,51.7238,55.4388,146.12,101.424,99.0909,0.00604249,0.0850084,20.8402,471.289,0.213533,0.0,0.0
526,131.25,51.4839,55.4985,154.409,101.426,99.0858,0.00604048,0.0850904,20.8457,471.289,0.214189,0.0,0.0
528,131.75,50.935,54.9037,160.927,101.421,99.14,0.0060448,0.0851496,20.8501,471.289,0.208755,0.0,0.0
530,132.25,51.5518,54.6022,153.893,101.425,98.7197,0.00605365,0.0851911,20.8537,471.309,0.24812,0.0,0.0
532,132.75,50.7874,54.1902,155.021,101.412,98.814,0.00606612,0.0852247,20.8566,471.299,0.238126,0.0,0.0
534,133.25,50.7874,54.4012,153.229,101.42,99.3479,0.00608098,0.085252,20.859,471.319,0.189383,0.0,0.0
536,133.75,50.8446,53.4611,152.865,101.426,98.8186,0.00609433,0.085274,20.8609,471.329,0.239007,0.0,0.0
538,134.25,50.0461,53.7146,150.044,101.437,99.1324,0.00610634,0.0853134,20.8624,471.319,0.210914,0.0,0.0
540,134.75,50.1267,53.2993,154.027,101.42,98.8682,0.00611607,0.0853645,20.8637,471.319,0.233798,0.0,0.0
542,135.25,50.0709,53.1606,151.43,101.432,98.8388,0.00611892,0.0854059,20.8645,471.299,0.237646,0.0,0.0
544,135.75,49.89,52.4458,154.92,101.416,99.2166,0.00612123,0.0854802,20.8649,471.309,0.201186,0.0,0.0
546,136.25,49.5918,52.3994,156.36,101.438,98.9545,0.00612059,0.0855403,20.8652,471.309,0.227479,0.0,0.0
548,136.75,50.0355,52.6401,150.146,101.435,98.813,0.00612007,0.0855891,20.8655,471.319,0.240272,0.0,0.0
550,137.25,49.5021,52.0116,152.689,101.434,98.848,0.00611767,0.0856285,20.8657,471.309,0.236948,0.0,0.0
552,137.75,49.2678,52.0597,155.294,101.422,99.0594,0.00611393,0.0857012,20.8659,471.289,0.216296,0.0,0.0
554,138.25,48.837,51.6784,162.813,101.431,98.8546,0.00611091,0.0857601,20.866,471.279,0.236075,0.0,0.0
556,138.75,48.8285,51.6212,150.877,101.437,99.2501,0.00608836,0.0858486,20.8661,471.279,0.200031,0.0,0.0
558,139.25,48.7589,51.5795,154.389,101.433,99.0549,0.0060701,0.0859202,20.8662,471.269,0.217688,0.0,0.0
560,139.75,48.6475,50.9424,157.921,101.423,98.8733,0.00604402,0.0859925,20.8664,471.289,0.233588,0.0,0.0
562,140.25,48.3547,50.6739,156.654,101.435,98.8956,0.0060229,0.086064,20.8666,471.279,0.232674,0.0,0.0
564,140.75,48.4109,50.5838,153.551,101.427,98.7379,0.00601108,0.0861218,20.8668,471.279,0.246534,0.0,0.0
566,141.25,48.9743,51.1198,152.504,101.438,98.6903,0.00600626,0.0862095,20.8669,471.289,0.252009,0.0,0.0
568,141.75,48.2705,50.6061,154.835,101.429,98.9793,0.00601294,0.0862804,20.867,471.319,0.224316,0.0,0.0
570,142.25,48.0659,50.26,155.246,101.436,98.5483,0.00602786,0.0863741,20.8671,471.319,0.265034,0.0,0.0
572,142.75,47.6952,50.19,150.077,101.428,98.9048,0.00604392,0.0864824,20.8672,471.279,0.231155,0.0,0.0
574,143.25,47.7122,49.6966,149.377,101.442,98.8997,0.00605265,0.0865774,20.8672,471.249,0.232856,0.0,0.0
576,143.75,47.5605,49.341,161.185,101.423,98.9362,0.00606757,0.0866607,20.8673,471.259,0.227829,0.0,0.0
578,144.25,47.7636,49.8043,152.981,101.446,98.5934,0.00607503,0.0867497,20.8673,471.269,0.261764,0.0,0.0
580,144.75,47.2873,49.0402,159.076,101.431,98.6314,0.0060769,0.086841,20.8673,471.269,0.256846,0.0,0.0
582,145.25,47.109,49.337,157.321,101.427,98.598,0.00607511,0.086915,20.8674,471.279,0.259549,0.0,0.0
584,145.75,46.7948,49.1077,160.259,101.425,98.6573,0.00607069,0.0869206,20.8674,471.279,0.253881,0.0,0.0
586,146.25,47.1211,49.3047,157.07,101.436,99.0133,0.00606711,0.086923,20.8674,471.269,0.221839,0.0,0.0
588,146.75,47.0903,49.2236,155.142,101.416,98.7714,0.00606883,0.0869342,20.8674,471.279,0.242492,0.0,0.0
590,147.25,46.7288,48.5724,157.27,101.443,98.7536,0.0060744,0.0869497,20.867,471.249,0.246565,0.0,0.0
592,147.75,47.1529,48.1821,152.53,101.422,98.7526,0.00608089,0.0869909,20.8667,471.259,0.24472,0.0,0.0
594,148.25,46.5772,48.2777,154.51,101.444,98.9752,0.00608793,0.08705,20.8664,471.249,0.226035,0.0,0.0
596,148.75,47.3911,48.5386,155.789,101.429,98.599,0.00609364,0.0870979,20.8662,471.249,0.259679,0.0,0.0
598,149.25,46.7422,48.2501,152.483,101.447,98.8556,0.00609951,0.0871367,20.866,471.259,0.237473,0.0,0.0
600,149.75,46.5781,48.138,155.584,101.446,98.7557,0.00610428,0.0871817,20.8659,471.269,0.246675,0.0,0.0
602,150.25,46.4345,47.768,151.848,101.449,98.9083,0.00610562,0.0872181,20.8658,471.279,0.232764,0.0,0.0
604,150.75,46.0716,47.6735,158.68,101.434,98.7831,0.00610671,0.087302,20.8661,471.279,0.243013,0.0,0.0
606,151.25,45.4909,47.8385,150.444,101.449,98.6786,0.00610759,0.0873699,20.8664,471.269,0.254064,0.0,0.0
608,151.75,46.1621,47.4899,153.423,101.449,99.4179,0.00610698,0.0874521,20.8666,471.259,0.185607,0.0,0.0
610,152.25,46.2322,47.3955,151.448,101.456,98.7268,0.00610529,0.0875187,20.8668,471.279,0.250255,0.0,0.0
612,152.75,45.3727,47.245,151.643,101.446,98.705,0.00610724,0.087587,20.867,471.249,0.251313,0.0,0.0
614,153.25,45.8503,47.4672,154.996,101.463,98.8835,0.00611179,0.0876551,20.8671,471.249,0.236263,0.0,0.0
616,153.75,46.1184,47.4611,156.453,101.439,98.6193,0.00611547,0.0877103,20.8672,471.239,0.258687,0.0,0.0
618,154.25,45.3613,47.1641,156.081,101.458,98.7765,0.00611343,0.0878774,20.8673,471.229,0.24575,0.0,0.0
620,154.75,45.4208,47.339,157.921,101.456,98.8627,0.00611178,0.0880127,20.8674,471.219,0.237596,0.0,0.0
622,155.25,45.5019,47.0764,154.464,101.471,98.993,0.00609411,0.0881079,20.8672,471.219,0.226887,0.0,0.0
624,155.75,45.5174,47.2044,152.77,101.463,99.1274,0.00607979,0.0881722,20.8668,471.259,0.213657,0.0,0.0
626,156.25,45.2641,46.7187,157.12,101.481,99.0665,0.00606291,0.0882243,20.8665,471.239,0.221008,0.0,0.0
628,156.75,45.5473,46.7231,155.99,101.461,99.2643,0.00604448,0.0882393,20.8663,471.239,0.200844,0.0,0.0
630,157.25,45.1729,46.3579,155.399,101.474,98.7389,0.00603332,0.0882515,20.8661,471.199,0.250765,0.0,0.0
632,157.75,45.1612,46.4886,157.934,101.465,98.637,0.00602427,0.0882613,20.8659,471.219,0.259423,0.0,0.0
634,158.25,45.2511,46.4716,158.911,101.479,99.1203,0.00601695,0.0882693,20.8658,471.229,0.215768,0.0,0.0
636,158.75,44.9479,46.1672,156.812,101.476,99.0199,0.0060286,0.0883187,20.8657,471.229,0.224843,0.0,0.0
638,159.25,45.1575,46.424,152.771,101.493,99.4859,0.00603804,0.0883973,20.8656,471.209,0.183288,0.0,0.0
640,159.75,44.8399,46.341,154.774,101.476,98.8434,0.00606089,0.0884753,20.8655,471.189,0.241211,0.0,0.0
642,160.25,44.9478,46.176,153.448,101.471,99.0919,0.00609308,0.0885514,20.8655,471.179,0.217689,0.0,0.0
644,160.75,44.6121,46.029,152.416,101.481,99.1745,0.00611916,0.088613,20.8654,471.189,0.211008,0.0,0.0
646,161.25,44.4306,46.208,153.613,101.484,98.9494,0.00615034,0.0886629,20.8653,471.219,0.232123,0.0,0.0
648,161.75,45.0621,46.2175,153.74,101.487,98.8054,0.0061756,0.0887033,20.8651,471.219,0.245749,0.0,0.0
650,162.25,44.8345,46.2675,152.482,101.483,98.9362,0.00619222,0.0887361,20.865,471.239,0.233197,0.0,0.0
652,162.75,44.7289,46.1026,154.75,101.494,98.8966,0.00619669,0.0887626,20.8649,471.219,0.237873,0.0,0.0
654,163.25,45.0099,46.0512,153.278,101.495,99.0107,0.00618967,0.0887841,20.8648,471.219,0.227405,0.0,0.0
656,163.75,44.5715,45.9602,155.262,101.497,99.0701,0.00618778,0.0888687,20.8647,471.209,0.222057,0.0,0.0
658,164.25,44.5685,45.8801,152.255,101.49,99.2531,0.00617198,0.0889372,20.8646,471.219,0.204484,0.0,0.0
660,164.75,44.2682,46.2074,158.742,101.488,98.7597,0.00615919,0.0889791,20.8646,471.199,0.250062,0.0,0.0
662,165.25,44.3068,45.8129,154.351,101.491,98.8145,0.00614816,0.0890131,20.8646,471.199,0.2452,0.0,0.0
664,165.75,44.2239,45.6679,154.21,101.487,98.746,0.00613457,0.0890814,20.8645,471.209,0.251261,0.0,0.0
666,166.25,44.2795,45.1834,156.386,101.497,98.8444,0.00613819,0.0891889,20.8645,471.219,0.242981,0.0,0.0
668,166.75,44.1068,45.6265,151.456,101.507,99.0026,0.00614438,0.0892359,20.8645,471.199,0.229274,0.0,0.0
670,167.25,44.1538,45.1543,154.926,101.497,99.2663,0.0061494,0.0893163,20.8645,471.199,0.203899,0.0,0.0
672,167.75,44.5103,45.417,152.288,101.508,98.7161,0.00617609,0.0893885,20.8644,471.189,0.255942,0.0,0.0
674,168.25,44.1323,45.1565,150.034,101.498,98.92,0.00619771,0.0894535,20.8644,471.209,0.236044,0.0,0.0
676,168.75,43.9915,45.7027,157.863,101.498,98.9894,0.00622781,0.0895429,20.8644,471.189,0.229602,0.0,0.0
678,169.25,44.2274,45.4073,154.195,101.505,98.7547,0.00625218,0.0895759,20.8644,471.179,0.252062,0.0,0.0
680,169.75,43.3963,44.9095,157.965,101.507,98.6152,0.00627193,0.0896325,20.8644,471.169,0.265214,0.0,0.0
682,170.25,43.9756,45.0474,152.435,101.504,98.8419,0.00629123,0.0896647,20.8644,471.179,0.243886,0.0,0.0
684,170.75,43.5404,44.9272,156.934,101.524,98.8054,0.00630985,0.0896908,20.8642,471.169,0.249029,0.0,0.0
686,171.25,43.4019,45.0131,156.659,101.517,98.746,0.0063289,0.0897255,20.8641,471.169,0.253981,0.0,0.0
688,171.75,43.8298,44.5471,156.66,101.526,98.8642,0.00634791,0.0897537,20.864,471.189,0.243828,0.0,0.0
690,172.25,43.6846,44.9332,152.369,101.514,99.3703,0.00636331,0.0897765,20.8639,471.179,0.195859,0.0,0.0
692,172.75,43.5384,44.7411,154.104,101.519,98.9534,0.00637578,0.0898307,20.8638,471.169,0.234914,0.0,0.0
694,173.25,43.6092,44.5344,151.965,101.516,98.8074,0.00638714,0.0899069,20.8638,471.169,0.248132,0.0,0.0
696,173.75,43.5236,45.2191,155.12,101.521,98.9423,0.00639634,0.0899829,20.8637,471.169,0.236135,0.0,0.0
698,174.25,43.2271,44.5445,152.997,101.514,99.0016,0.00639247,0.0900574,20.8637,471.159,0.230002,0.0,0.0
700,174.75,43.4901,44.6084,154.201,101.528,98.8977,0.00638933,0.0901177,20.8637,471.179,0.240909,0.0,0.0
702,175.25,43.6443,44.9138,159.559,101.528,99.1563,0.00636792,0.0901665,20.8636,471.159,0.216871,0.0,0.0
704,175.75,42.9339,44.5768,154.287,101.524,98.6421,0.00635058,0.0902061,20.8636,471.159,0.264205,0.0,0.0
706,176.25,43.3113,44.795,153.777,101.526,99.0305,0.00632648,0.0902381,20.8636,471.189,0.22833,0.0,0.0
708,176.75,43.1684,44.229,156.922,101.529,98.9179,0.00630695,0.0902641,20.8636,471.169,0.239101,0.0,0.0
710,177.25,43.3602,44.391,156.995,101.519,98.7288,0.0062918,0.0902851,20.8636,471.169,0.255732,0.0,0.0
712,177.75,43.0101,44.2699,159.278,101.539,98.8363,0.00628012,0.090343,20.8636,471.169,0.247534,0.0,0.0
714,178.25,43.3886,44.0898,151.533,101.522,98.9149,0.00627198,0.0903899,20.8636,471.189,0.238712,0.0,0.0
716,178.75,43.3593,44.6217,156.945,101.543,99.1213,0.00626658,0.090455,20.8636,471.169,0.221525,0.0,0.0
718,179.25,42.7809,44.568,154.048,101.54,99.1547,0.00626221,0.0905078,20.8635,471.169,0.218167,0.0,0.0
720,179.75,43.0951,44.4112,155.925,101.546,98.8246,0.00626859,0.0905291,20.8635,471.159,0.24925,0.0,0.0
722,180.25,43.0034,43.9944,154.941,101.528,98.5478,0.0062827,0.090527,20.8635,471.169,0.273355,0.0,0.0
724,180.75,42.7186,44.0441,159.495,101.559,98.7303,0.00629413,0.0905468,20.8635,471.149,0.259167,0.0,0.0
726,181.25,42.7835,44.3613,154.167,101.555,98.8617,0.0063273,0.0905821,20.8635,471.129,0.246633,0.0,0.0
728,181.75,42.8702,44.0499,157.14,101.551,98.9316,0.00635416,0.0906108,20.8635,471.119,0.239769,0.0,0.0
730,182.25,42.9771,44.1404,155.538,101.537,98.7623,0.00639103,0.090702,20.8635,471.119,0.254261,0.0,0.0
732,182.75,42.8104,44.3154,155.138,101.547,98.6497,0.0064209,0.0907759,20.8635,471.119,0.26562,0.0,0.0
734,183.25,42.8823,43.8897,150.465,101.546,98.8738,0.0064431,0.0908429,20.8635,471.109,0.244684,0.0,0.0
736,183.75,42.8769,44.2006,155.461,101.548,99.1689,0.0064593,0.0909037,20.8635,471.119,0.217522,0.0,0.0
738,184.25,42.996,44.2811,155.576,101.545,99.0117,0.00644346,0.0909529,20.8635,471.129,0.231782,0.0,0.0
740,184.75,42.8516,44.6876,155.284,101.558,99.2536,0.00643064,0.0909791,20.8635,471.129,0.210621,0.0,0.0
742,185.25,42.9119,43.7559,154.416,101.545,98.8921,0.00639444,0.0910004,20.8635,471.119,0.242879,0.0,0.0
744,185.75,43.0805,44.1294,155.446,101.56,98.5985,0.00634189,0.0910448,20.8635,471.129,0.271578,0.0,0.0
746,186.25,42.0995,43.9692,151.119,101.557,98.7405,0.00629932,0.0910808,20.8635,471.109,0.258113,0.0,0.0
748,186.75,42.5319,43.8516,165.353,101.564,98.7998,0.00623907,0.0911243,20.8635,471.099,0.253197,0.0,0.0
750,187.25,42.2869,44.2484,153.161,101.555,99.0721,0.00616706,0.0911724,20.8635,471.099,0.227159,0.0,0.0
752,187.75,42.4565,44.106,155.822,101.564,98.8038,0.00610147,0.09124,20.8635,471.109,0.252857,0.0,0.0
754,188.25,42.5178,43.686,154.98,101.579,99.0102,0.0060418,0.0913206,20.8635,471.109,0.235051,0.0,0.0
756,188.75,42.3399,44.046,156.22,101.568,98.8611,0.00600074,0.0913859,20.8635,471.109,0.24791,0.0,0.0
758,189.25,42.8244,43.8646,160.07,101.563,98.9002,0.00597401,0.0914251,20.8635,471.119,0.243765,0.0,0.0
760,189.75,42.2422,43.9112,150.156,101.579,99.2268,0.00596757,0.0914569,20.8635,471.119,0.214968,0.0,0.0
762,190.25,41.9763,43.8151,156.618,101.573,99.4595,0.00597602,0.091497,20.8631,471.089,0.192986,0.0,0.0
764,190.75,42.15,43.7554,158.106,101.594,98.9534,0.00599609,0.0915424,20.8627,471.089,0.241693,0.0,0.0
766,191.25,42.2464,43.3807,159.447,101.574,99.2557,0.00602426,0.0915934,20.8624,471.079,0.211849,0.0,0.0
768,191.75,42.3565,44.0165,156.745,101.597,99.0341,0.00604707,0.0916477,20.8622,471.119,0.23448,0.0,0.0
770,192.25,42.3748,43.5654,153.894,101.58,98.7085,0.00606931,0.0916917,20.862,471.089,0.263093,0.0,0.0
772,192.75,42.2655,43.266,151.037,101.597,98.9479,0.00608734,0.0917137,20.8618,471.089,0.242471,0.0,0.0
774,193.25,42.1618,43.938,153.998,101.582,98.8444,0.00610193,0.0917315,20.8617,471.089,0.250692,0.0,0.0
776,193.75,41.766,43.4328,157.634,101.599,99.5361,0.00611376,0.0917459,20.8616,471.089,0.18827,0.0,0.0
778,194.25,41.9575,43.8097,154.322,101.592,99.0224,0.00610416,0.0917576,20.8615,471.079,0.23504,0.0,0.0
780,194.75,42.1134,43.3726,154.989,101.607,98.6761,0.00607912,0.0918351,20.8619,471.059,0.268568,0.0,0.0
782,195.25,42.1013,43.5061,154.35,101.595,98.8698,0.0060562,0.0918979,20.8622,471.059,0.249493,0.0,0.0
784,195.75,42.079,43.4883,158.296,101.606,98.6106,0.00603526,0.0919488,20.8624,471.079,0.274616,0.0,0.0
786,196.25,42.0207,43.0066,152.752,101.605,98.7146,0.00602491,0.09199,20.8626,471.089,0.264799,0.0,0.0
788,196.75,41.7909,43.8231,154.918,101.612,99.1319,0.00602247,0.0920506,20.8628,471.099,0.22672,0.0,0.0
790,197.25,42.1191,43.4809,154.918,101.604,98.8895,0.00602975,0.0920997,20.863,471.079,0.248514,0.0,0.0
792,197.75,41.7792,43.6525,156.736,101.625,98.6715,0.00604397,0.0921395,20.8626,471.089,0.270629,0.0,0.0
794,198.25,41.3884,43.0408,154.731,101.603,99.3054,0.00606277,0.0921717,20.8623,471.049,0.209862,0.0,0.0
796,198.75,42.018,42.8062,155.459,101.618,99.0011,0.00608455,0.0922121,20.8621,471.069,0.239433,0.0,0.0
798,199.25,41.5491,43.0214,149.129,101.615,99.2846,0.00610484,0.0922578,20.8619,471.079,0.212937,0.0,0.0
800,199.75,41.9262,43.2911,154.502,101.622,99.1598,0.00612365,0.0922948,20.8618,471.069,0.225031,0.0,0.0
802,200.25,41.5233,43.1042,149.282,101.622,99.0736,0.00613889,0.0923247,20.8616,471.099,0.233087,0.0,0.0
804,200.75,41.8897,43.3914,157.229,101.619,98.994,0.0061552,0.092349,20.8615,471.069,0.240166,0.0,0.0
806,201.25,41.5227,43.0575,156.402,101.626,98.6822,0.00617199,0.0923959,20.8615,471.059,0.269714,0.0,0.0
808,201.75,41.7006,42.9587,155.47,101.623,99.0772,0.00618559,0.0924338,20.8614,471.059,0.232833,0.0,0.0
810,202.25,41.8109,43.2339,157.901,101.632,99.2197,0.0062243,0.0924374,20.8613,471.079,0.220464,0.0,0.0
812,202.75,41.9084,43.0772,155.267,101.638,98.9316,0.00625565,0.0924402,20.8613,471.079,0.247661,0.0,0.0
814,203.25,41.1978,43.1314,153.125,101.645,98.8302,0.00630244,0.092464,20.8614,471.079,0.257667,0.0,0.0
816,203.75,41.7906,43.2315,159.302,101.63,98.8809,0.00634499,0.0925027,20.8615,471.049,0.251621,0.0,0.0
818,204.25,41.0923,43.0425,155.738,101.641,98.9387,0.00638362,0.0925627,20.8616,471.029,0.247264,0.0,0.0
820,204.75,41.5771,43.5666,157.26,101.638,98.9058,0.00641491,0.092637,20.8617,471.029,0.250023,0.0,0.0
822,205.25,41.5254,42.6261,158.94,101.648,98.8282,0.00642893,0.0926973,20.8617,471.019,0.258116,0.0,0.0
824,205.75,40.991,42.4492,162.922,101.653,98.6806,0.00644028,0.0927333,20.8618,471.019,0.272274,0.0,0.0
826,206.25,41.3579,43.4576,155.109,101.663,98.8551,0.00643312,0.0927624,20.8618,471.029,0.256998,0.0,0.0
828,206.75,41.78,43.1035,157.443,101.653,99.0736,0.00642731,0.0928269,20.8618,471.049,0.235841,0.0,0.0
830,207.25,41.2176,43.279,152.495,101.664,99.0685,0.00642261,0.0928791,20.8619,471.019,0.237278,0.0,0.0
832,207.75,41.3029,43.0803,155.08,101.655,98.9651,0.00641376,0.0929501,20.8619,471.019,0.246083,0.0,0.0
834,208.25,41.3638,42.6535,156.747,101.676,98.9996,0.0064066,0.0930334,20.8619,471.029,0.244783,0.0,0.0
836,208.75,41.5325,42.6481,157.274,101.654,98.8535,0.00640583,0.0931081,20.8619,471.029,0.256358,0.0,0.0
838,209.25,41.0556,42.3693,154.257,101.66,98.6416,0.00640521,0.093175,20.8619,470.999,0.276537,0.0,0.0
840,209.75,41.2022,42.9112,155.342,101.653,98.635,0.00640345,0.0932292,20.862,471.019,0.276556,0.0,0.0
842,210.25,41.2192,42.7499,154.657,101.658,98.9296,0.00640202,0.0932459,20.862,471.009,0.249598,0.0,0.0
844,210.75,41.2931,43.0691,152.805,101.667,99.2171,0.0064059,0.0932593,20.862,470.999,0.223861,0.0,0.0
846,211.25,41.4851,43.0334,152.707,101.677,99.0041,0.00640904,0.0932703,20.862,471.019,0.244435,0.0,0.0
848,211.75,40.6042,43.0903,154.741,101.666,98.7881,0.00641788,0.0932791,20.862,471.019,0.263511,0.0,0.0
850,212.25,41.0276,42.6568,155.074,101.686,99.2024,0.00642504,0.0933272,20.862,471.019,0.226932,0.0,0.0
852,212.75,41.2315,42.3935,151.92,101.667,98.8287,0.00642685,0.0933661,20.862,471.029,0.259781,0.0,0.0
854,213.25,41.1275,42.4368,158.221,101.683,98.8662,0.00642473,0.093412,20.862,471.019,0.257822,0.0,0.0
856,213.75,41.3129,42.9654,154.904,101.688,99.0964,0.00642302,0.093462,20.862,470.989,0.236927,0.0,0.0
858,214.25,40.9455,42.7011,159.201,101.686,99.1913,0.00641434,0.0935026,20.862,470.999,0.227965,0.0,0.0
860,214.75,41.3757,42.3056,155.19,101.67,99.028,0.00640076,0.0935354,20.8614,470.999,0.241631,0.0,0.0
862,215.25,41.0068,42.0813,155.899,101.682,98.9752,0.00638976,0.0935401,20.8609,470.969,0.247561,0.0,0.0
864,215.75,41.2096,42.6764,156.041,101.684,98.9509,0.00635695,0.0935241,20.8605,470.989,0.25004,0.0,0.0
866,216.25,41.1939,42.5388,157.743,101.692,98.9494,0.00633038,0.0935112,20.8604,470.999,0.250851,0.0,0.0
868,216.75,41.3647,43.1866,154.733,101.691,98.8099,0.00630885,0.0935007,20.8605,470.979,0.263717,0.0,0.0
870,217.25,41.1621,42.4833,153.039,101.697,98.852,0.00627131,0.0934922,20.8606,470.989,0.260331,0.0,0.0
872,217.75,40.6978,42.4657,153.039,101.681,99.0386,0.0062409,0.0934854,20.8605,470.959,0.241612,0.0,0.0
874,218.25,40.5178,42.6741,155.567,101.695,99.0153,0.00622089,0.0935207,20.8605,470.969,0.245075,0.0,0.0
876,218.75,41.1144,42.1813,155.888,101.695,98.957,0.00620886,0.0935493,20.8605,470.999,0.250407,0.0,0.0
878,219.25,41.1828,42.2794,157.061,101.703,98.8383,0.00620705,0.0935725,20.8605,470.949,0.262197,0.0,0.0
880,219.75,41.2469,42.6513,157.757,101.688,98.5812,0.00621273,0.0936185,20.86,470.979,0.284757,0.0,0.0
882,220.25,40.8035,42.5697,153.394,101.7,98.6989,0.00622262,0.0936558,20.8596,470.969,0.274817,0.0,0.0
884,220.75,40.6813,42.5191,154.977,101.694,99.1005,0.0062354,0.0936931,20.8593,470.949,0.237072,0.0,0.0
886,221.25,40.9767,42.6208,155.837,101.701,98.959,0.00624576,0.0937299,20.8591,470.959,0.250777,0.0,0.0
888,221.75,40.661,42.6059,151.714,101.697,99.3566,0.00626275,0.0937524,20.8589,470.949,0.213689,0.0,0.0
890,222.25,40.4211,42.2772,158.069,101.705,98.9357,0.00628426,0.0937643,20.8587,470.969,0.253311,0.0,0.0
892,222.75,40.8457,42.9672,158.726,101.697,98.6629,0.00630168,0.0937738,20.8586,470.959,0.277979,0.0,0.0
894,223.25,41.018,41.6089,152.225,101.708,98.9539,0.00632838,0.0938089,20.8585,470.939,0.251915,0.0,0.0
896,223.75,40.6075,42.5138,151.421,101.696,98.778,0.00635001,0.0938372,20.8584,470.929,0.267168,0.0,0.0
898,224.25,40.4508,42.6622,159.381,101.712,99.176,0.00637006,0.0938889,20.8584,470.919,0.231715,0.0,0.0
900,224.75,40.7247,42.5506,156.737,101.695,98.8429,0.0063863,0.0939566,20.8585,470.929,0.261067,0.0,0.0
902,225.25,40.5129,42.1606,154.311,101.706,98.7886,0.00640701,0.0940114,20.8586,470.939,0.267035,0.0,0.0
904,225.75,40.6715,42.1226,151.982,101.707,98.9002,0.00642379,0.0940285,20.8587,470.939,0.256752,0.0,0.0
906,226.25,40.6622,42.1267,157.979,101.714,98.8069,,0.0940424,,470.929,0.26612,0.0,0.0
908,226.75,40.0217,41.6715,153.757,101.704,99.1111,,0.0940612,,470.939,0.237016,0.0,0.0
910,227.25,39.7194,41.895,158.414,101.714,99.1816,,0.0940833,,470.919,0.231384,0.0,0.0
912,227.75,40.143,42.291,153.886,101.707,99.3779,,0.0941299,,470.929,0.212541,0.0,0.0
914,228.25,40.5062,41.9903,155.98,101.713,98.7613,,0.0941935,,470.919,0.270248,0.0,0.0
916,228.75,40.3375,41.9423,156.633,101.692,98.7861,,0.0942737,,470.929,0.266042,0.0,0.0
918,229.25,40.3577,41.4923,154.623,101.722,98.7557,,,,470.909,0.271584,0.0,0.0
920,229.75,40.3215,41.9129,159.159,101.709,98.8104,,,,470.919,0.26527,0.0,0.0
922,230.25,40.7081,42.0283,157.075,101.725,98.8317,,,,470.919,0.26478,0.0,0.0
924,230.75,40.0435,41.6918,155.398,101.699,98.7303,,,,470.919,0.271821,0.0,0.0
926,231.25,40.1063,41.7307,161.37,101.707,98.8353,,,,470.899,0.262851,0.0,0.0
928,231.75,40.1332,41.6728,155.749,101.711,98.7831,,,,470.899,0.268037,0.0,0.0
930,232.25,40.2411,41.9918,157.998,101.709,98.7684,,,,470.899,0.269253,0.0,0.0
932,232.75,40.4224,41.7756,156.697,101.711,98.9839,,,,470.909,0.249365,0.0,0.0
934,233.25,40.2511,41.3084,155.179,101.715,99.1512,,,,470.909,0.234274,0.0,0.0
936,233.75,40.301,41.7243,158.283,101.711,99.1304,,,,470.889,0.23579,0.0,0.0
938,234.25,40.4203,42.2064,154.531,101.711,98.9813,,,,470.919,0.2496,0.0,0.0
940,234.75,40.1693,42.5121,158.449,101.714,98.8251,,,,470.899,0.26435,0.0,0.0
942,235.25,39.5516,42.0072,152.159,101.707,99.0462,,,,470.899,0.243249,0.0,0.0
944,235.75,40.1058,41.4549,154.3,101.721,98.6157,,,,470.899,0.284523,0.0,0.0
946,236.25,40.5971,42.2179,157.222,101.727,98.7415,,,,470.909,0.273313,0.0,0.0
948,236.75,40.0368,42.0006,157.501,101.707,99.0538,,,,470.899,0.242545,0.0,0.0