File: 02_Data/Overstuffed_Chair/Cone/Overstuffed_Chair_Cone_HF75Scan_210325_R1.csv
Names,Time,Stack TC,Smoke TC,Exh Press,Smoke Comp,Smoke Meas,CO Meter,CO2 Meter,O2 Meter,Sample Mass,Ext Coeff,Start Test,Flame Verif
Chan Gain,,500,500,1,1,1,1,1,1,1,1,1.0,1.0
Offset,,0,0,0.138348,0,0,0,0,0,0,0,0.0,0.0
Gain,,1,1,25.011,13.5067,16.616,1,1,1,1.00091,1.04608,1.0,1.0
Units,sec,C,C,Pa,%,%,%,%,%,g,/m,,
Baseline,,28.4388,32.225,161.867,101.684,101.375,-0.000507024,0.0881341,20.8504,-3.3558,0.0279208,,
2,0.25,27.4227,30.263,159.268,101.573,101.392,-0.000271095,0.098095,20.8391,491.648,0.0163597,0.0,0.0
4,0.75,27.1093,30.3701,158.765,101.583,101.383,-0.00024696,0.0982086,20.8393,492.849,0.0180422,0.0,0.0
6,1.25,27.1051,30.411,164.551,101.579,101.347,-0.000224848,0.0983007,20.8395,491.848,0.0209665,0.0,0.0
8,1.75,26.8122,30.2619,157.308,101.596,101.318,-0.00020463,0.0982674,20.8399,494.2,0.0251477,0.0,0.0
10,2.25,27.436,30.4673,154.29,101.596,101.287,-0.000188253,0.0981435,20.8404,494.41,0.0279945,0.0,0.0
12,2.75,27.1227,30.7023,164.177,101.612,101.194,-0.000146977,0.0980431,20.8408,492.849,0.0377823,0.0,0.0
14,3.25,27.2945,30.5862,160.309,101.609,101.265,-0.000113544,0.0978116,20.8411,491.537,0.0311336,0.0,0.0
16,3.75,27.8538,30.899,161.692,101.633,101.536,-6.65799e-05,0.0976241,20.8414,490.767,0.00877964,0.0,0.0
18,4.25,27.5852,30.8746,159.388,101.618,101.381,-1.06445e-05,0.0975132,20.8416,490.366,0.0213997,0.0,0.0
20,4.75,27.0984,30.8418,158.839,101.652,101.215,3.46632e-05,0.0974234,20.8418,490.206,0.0395546,0.0,0.0
22,5.25,27.9919,31.271,161.209,101.643,100.763,0.000106739,0.0974727,20.8412,490.246,0.0798254,0.0,0.0
24,5.75,27.3778,30.9145,164.498,101.652,101.058,0.000165121,0.0976227,20.8402,490.316,0.0537247,0.0,0.0
26,6.25,28.0026,30.9331,160.213,101.645,100.961,0.000244555,0.098111,20.8393,490.456,0.0618892,0.0,0.0
28,6.75,27.4758,31.1774,161.887,101.674,100.923,0.000337827,0.0988367,20.8369,490.747,0.0680716,0.0,0.0
30,7.25,27.5334,31.3881,164.347,101.661,100.577,0.000442354,0.0994245,20.8349,490.997,0.0984247,0.0,0.0
32,7.75,28.2249,31.3937,158.581,101.691,100.034,0.000553101,0.102522,20.8276,491.057,0.150823,0.0,1.0
34,8.25,27.4907,31.3171,164.135,101.674,99.4326,0.000642805,0.105032,20.8217,491.137,0.204509,0.0,1.0
36,8.75,28.3394,32.0906,159.622,101.699,97.8754,0.000806184,0.110577,20.8016,490.947,0.351663,0.0,1.0
38,9.25,28.7624,32.1414,149.398,101.681,96.2928,0.000938521,0.118229,20.7853,490.807,0.499612,0.0,1.0
40,9.75,28.3499,32.6654,152.489,101.713,94.7031,0.00116743,0.129566,20.7606,490.276,0.655265,0.0,1.0
42,10.25,28.7863,33.8842,153.561,101.704,93.7072,0.00142949,0.143372,20.7302,490.306,0.751491,0.0,1.0
44,10.75,29.3023,33.8613,149.995,101.721,95.5241,0.00171072,0.154555,20.7056,490.296,0.576769,0.0,1.0
46,11.25,30.3768,34.9012,145.657,101.724,94.3654,0.00193852,0.172756,20.6704,490.216,0.68905,0.0,1.0
48,11.75,30.7853,36.3254,147.751,101.731,92.0186,0.00212304,0.187499,20.6418,490.436,0.920767,0.0,1.0
50,12.25,30.7018,36.5093,154.687,101.735,92.0607,0.00250443,0.208173,20.6137,490.436,0.916943,0.0,1.0
52,12.75,31.1228,36.5977,144.235,101.747,85.207,0.00281336,0.22492,20.5865,490.617,1.62793,0.0,1.0
54,13.25,31.2445,38.142,146.913,101.754,86.601,0.00327333,0.245597,20.5551,490.587,1.47958,0.0,1.0
56,13.75,31.6304,38.6032,151.446,101.768,86.3784,0.00346211,0.262346,20.5425,490.446,1.5045,0.0,1.0
58,14.25,32.007,38.7879,151.539,101.775,83.9693,0.00378491,0.275912,20.521,490.406,1.76466,0.0,1.0
60,14.75,32.5856,39.9487,149.586,101.785,84.2522,0.00407074,0.294056,20.5035,490.286,1.73475,0.0,0.0
62,15.25,33.0734,40.3975,152.101,101.778,84.2745,0.00432421,0.308753,20.4881,490.296,1.73169,0.0,0.0
64,15.75,32.978,41.2229,147.867,101.788,86.7967,0.00452424,0.320658,20.4755,490.286,1.46195,0.0,0.0
66,16.25,34.0787,41.59,148.068,101.804,86.7886,0.00468152,0.339463,20.4654,490.266,1.46429,0.0,0.0
68,16.75,34.5451,42.3045,147.876,101.817,85.6842,0.00479179,0.344522,20.4572,490.456,1.58296,0.0,0.0
70,17.25,34.7465,42.5935,148.709,101.81,86.5366,0.00486571,0.353562,20.4506,490.436,1.49153,0.0,0.0
72,17.75,35.0608,43.5102,152.294,101.839,87.4088,0.00490189,0.361236,20.4452,490.336,1.40208,0.0,0.0
74,18.25,35.6429,44.4552,147.56,101.842,90.4974,0.00490989,0.367191,20.4425,490.146,1.08373,0.0,0.0
76,18.75,35.7244,44.5761,148.704,101.84,90.5238,0.00491636,0.371781,20.4404,490.086,1.08087,0.0,0.0
78,19.25,36.3308,44.9198,146.837,101.843,91.3254,0.00491411,0.375464,20.4387,490.316,1.00026,0.0,0.0
80,19.75,36.3267,44.5698,151.466,101.847,90.183,0.00491229,0.378417,20.4373,491.537,1.11607,0.0,0.0
82,20.25,36.2295,45.4718,144.79,101.862,89.2413,0.00493779,0.381059,20.4362,490.376,1.21372,0.0,0.0
84,20.75,36.1621,45.632,146.537,101.863,88.0776,0.00498271,0.383426,20.4353,490.176,1.33432,0.0,0.0
86,21.25,36.4904,46.1653,150.49,101.883,89.1993,0.00505599,0.385343,20.4346,489.606,1.22002,0.0,0.0
88,21.75,37.3272,46.3316,149.425,101.881,90.4553,0.00514856,0.387687,20.4326,489.546,1.09153,0.0,0.0
90,22.25,37.4944,47.2103,144.896,101.883,90.1272,0.00527306,0.389586,20.4311,489.546,1.12505,0.0,0.0
92,22.75,37.9869,47.2324,150.105,101.892,89.8727,0.00541848,0.391856,20.4287,489.496,1.15179,0.0,0.0
94,23.25,38.277,47.5883,149.489,101.898,85.7045,0.00553627,0.394354,20.4257,489.405,1.58807,0.0,0.0
96,23.75,38.3677,48.6035,149.585,101.909,87.9686,0.00577262,0.396377,20.4205,489.375,1.34984,0.0,0.0
98,24.25,38.6379,48.6318,146.626,101.917,86.7521,0.00596406,0.400283,20.4138,489.305,1.47833,0.0,0.0
100,24.75,38.7091,48.9362,145.515,101.921,84.557,0.00622024,0.403447,20.4084,489.255,1.71388,0.0,0.0
102,25.25,39.1124,49.5491,150.149,101.936,85.7293,0.00651875,0.407991,20.4014,489.215,1.58886,0.0,0.0
104,25.75,39.7974,49.7601,146.355,101.935,87.7769,0.00688026,0.411673,20.3957,489.095,1.37216,0.0,0.0
106,26.25,39.3052,49.7436,145.661,101.941,85.0701,0.00728083,0.417298,20.3872,489.105,1.6601,0.0,0.0
108,26.75,40.2834,51.0465,148.231,101.938,84.5037,0.0076053,0.421854,20.3803,488.985,1.72118,0.0,0.0
110,27.25,40.2807,51.0156,144.733,101.954,84.6721,0.00811169,0.427193,20.3747,488.935,1.70432,0.0,0.0
112,27.75,40.4942,51.381,147.245,101.97,85.4301,0.0087411,0.433002,20.3636,488.865,1.62394,0.0,0.0
114,28.25,40.9353,52.0932,147.9,101.969,81.2564,0.00948776,0.441117,20.3546,488.805,2.0835,0.0,0.0
116,28.75,41.0725,51.9355,141.069,101.966,78.4319,0.0103057,0.450759,20.3337,489.596,2.40787,0.0,0.0
118,29.25,41.7281,52.9948,142.299,101.989,78.8396,0.0112279,0.45857,20.3168,489.696,2.36241,0.0,0.0
120,29.75,42.0291,53.5899,146.069,101.978,76.3722,0.0122086,0.470173,20.2834,489.005,2.65319,0.0,0.0
122,30.25,42.1159,54.341,140.224,101.998,73.8713,0.0132348,0.484322,20.2564,488.585,2.96052,0.0,0.0
124,30.75,42.7867,55.2981,144.988,101.989,72.6421,0.0142747,0.502992,20.2039,488.385,3.11363,0.0,0.0
126,31.25,43.5155,56.6779,139.568,102.002,73.4174,0.0153387,0.524605,20.1613,488.274,3.0174,0.0,0.0
128,31.75,44.597,57.8474,134.278,101.997,74.9524,0.0164,0.542112,20.0944,488.154,2.82709,0.0,0.0
130,32.25,45.197,58.8853,130.7,102.014,73.1695,0.0174233,0.571839,20.0403,488.355,3.04948,0.0,0.0
132,32.75,45.6307,60.1464,128.812,102.012,73.2253,0.0183996,0.595918,19.9649,487.884,3.04234,0.0,0.0
134,33.25,46.8046,62.2717,139.229,102.02,73.4681,0.0191904,0.631254,19.9038,487.744,3.01266,0.0,0.0
136,33.75,47.9997,63.8478,130.288,102.014,72.3272,0.019831,0.659876,19.8544,487.674,3.15576,0.0,0.0
138,34.25,48.8913,65.7116,125.533,102.03,73.0463,0.0206018,0.70248,19.8143,487.524,3.06643,0.0,0.0
140,34.75,50.1578,67.7741,114.412,102.025,73.9179,0.0212262,0.736989,19.7641,487.354,2.95713,0.0,0.0
142,35.25,51.4494,70.268,132.649,102.035,75.537,0.0217319,0.787134,19.7075,487.224,2.7592,0.0,0.0
144,35.75,52.7025,72.1065,125.474,102.044,78.4756,0.0222374,0.827753,19.6617,487.073,2.40978,0.0,0.0
146,36.25,53.7247,74.9701,118.649,102.056,76.3119,0.0227331,0.886531,19.5928,486.953,2.66745,0.0,0.0
148,36.75,55.9244,77.6036,110.16,102.046,76.6283,0.0232416,0.934142,19.5371,486.713,2.62859,0.0,0.0
150,37.25,56.9754,80.4822,107.766,102.07,78.2098,0.02375,0.972706,19.4551,486.593,2.44327,0.0,0.0
152,37.75,58.984,83.7933,109.524,102.053,75.7312,0.0243255,1.00394,19.3887,486.423,2.73723,0.0,0.0
154,38.25,60.7173,86.4266,123.83,102.07,78.4183,0.0249391,1.05406,19.2762,486.253,2.41882,0.0,0.0
156,38.75,62.5685,89.6527,118.745,102.057,79.0658,0.0256888,1.11699,19.1851,486.103,2.34221,0.0,0.0
158,39.25,64.3208,92.1221,106.809,102.075,78.0785,0.0265235,1.18415,19.0482,485.982,2.45914,0.0,0.0
160,39.75,65.6959,95.3133,101.525,102.063,73.4514,0.027527,1.25311,18.9373,485.802,3.01864,0.0,0.0
162,40.25,67.0748,98.4216,99.0499,102.08,75.1268,0.0286344,1.32315,18.8133,485.612,2.81325,0.0,0.0
164,40.75,69.1979,101.63,119.126,102.082,74.0655,0.0295314,1.39264,18.7129,485.352,2.94395,0.0,0.0
166,41.25,71.1909,105.05,113.773,102.087,72.9667,0.0307953,1.44893,18.6315,485.132,3.08151,0.0,0.0
168,41.75,73.3607,109.501,96.9242,102.074,73.0468,0.0323026,1.5221,18.5341,484.971,3.07033,0.0,0.0
170,42.25,75.5661,112.462,104.971,102.096,73.2313,0.0339271,1.59378,18.4551,484.771,3.04918,0.0,0.0
172,42.75,77.0521,115.776,94.9992,102.078,72.0914,0.0356062,1.66302,18.364,484.541,3.19143,0.0,0.0
174,43.25,78.9484,119.361,99.6407,102.106,70.0332,0.0372976,1.7191,18.2902,484.271,3.45974,0.0,0.0
176,43.75,81.3874,123.485,98.866,102.1,70.8151,0.0389658,1.7893,18.216,484.081,3.35734,0.0,0.0
178,44.25,83.1544,126.043,113.506,102.113,69.5079,0.040317,1.84615,18.1559,483.86,3.52946,0.0,0.0
180,44.75,84.7292,129.402,88.5747,102.089,67.727,0.0420801,1.90234,18.1028,483.62,3.76548,0.0,0.0
182,45.25,86.9,131.937,105.71,102.099,65.5298,0.0435081,1.95696,18.0558,483.45,4.06903,0.0,0.0
184,45.75,87.8385,133.692,86.8856,102.097,63.9645,0.0450536,2.00121,18.0178,483.21,4.2907,0.0,0.0
186,46.25,89.6656,136.229,98.2157,102.098,64.217,0.0463055,2.05022,17.9869,482.96,4.25466,0.0,0.0
188,46.75,90.3387,138.334,91.1561,102.098,60.456,0.0474728,2.08992,17.9618,482.769,4.80842,0.0,0.0
190,47.25,92.4224,141.279,102.466,102.108,60.5706,0.0485564,2.12717,17.9415,482.589,4.79197,0.0,0.0
192,47.75,93.5016,143.337,88.9556,102.094,60.0316,0.0494341,2.16193,17.925,482.339,4.87277,0.0,0.0
194,48.25,95.5191,145.538,112.521,102.101,60.6994,0.0501841,2.19156,17.9117,482.089,4.77181,0.0,0.0
196,48.75,95.6984,146.506,99.6201,102.094,61.5493,0.0508268,2.21555,17.911,481.899,4.64363,0.0,0.0
198,49.25,97.362,147.921,113.117,102.096,63.2059,0.0513092,2.23431,17.9104,481.719,4.40007,0.0,0.0
200,49.75,98.2406,148.941,109.025,102.098,61.0701,0.0516654,2.24888,17.92,481.528,4.71569,0.0,0.0
202,50.25,98.7206,150.403,107.502,102.099,61.4712,0.051897,2.26069,17.9278,481.228,4.65569,0.0,0.0
204,50.75,99.4219,151.83,92.6819,102.1,59.486,0.0520334,2.26665,17.9468,481.058,4.95707,0.0,0.0
206,51.25,100.619,153.051,102.958,102.092,61.4833,0.0520936,2.27147,17.9622,480.948,4.65328,0.0,0.0
208,51.75,101.504,153.634,112.097,102.096,60.1274,0.052097,2.2727,17.9812,480.768,4.85832,0.0,0.0
210,52.25,102.428,154.071,111.168,102.086,61.6821,0.0520999,2.27128,18.0023,480.507,4.62311,0.0,0.0
212,52.75,102.677,155.102,105.571,102.084,61.1958,0.0519438,2.26715,18.0268,480.317,4.69555,0.0,0.0
214,53.25,103.376,156.387,108.693,102.083,62.6851,0.0518174,2.26112,18.0533,480.117,4.47484,0.0,0.0
216,53.75,104.143,157.087,107.545,102.079,63.4985,0.0515007,2.25624,18.0835,479.837,4.35617,0.0,0.0
218,54.25,104.584,157.225,101.558,102.08,60.3003,0.0512441,2.24376,18.1159,479.707,4.83045,0.0,0.0
220,54.75,104.472,157.256,112.31,102.083,61.6613,0.0510363,2.23365,18.1421,479.537,4.62594,0.0,0.0
222,55.25,105.446,157.727,99.7101,102.08,64.5268,0.0504453,2.21435,18.1749,479.356,4.20883,0.0,0.0
224,55.75,105.872,157.74,110.28,102.089,66.0237,0.0499665,2.19872,18.2118,479.136,3.99924,0.0,0.0
226,56.25,106.129,158,110.024,102.068,59.5478,0.049256,2.17884,18.2546,479.026,4.94461,0.0,0.0
228,56.75,106.366,158.271,104.42,102.07,58.4677,0.0486804,2.15625,18.3009,478.806,5.11279,0.0,0.0
230,57.25,106.467,157.918,111.215,102.054,60.9712,0.0480032,2.12855,18.3384,478.636,4.72663,0.0,0.0
232,57.75,106.435,157.359,115.881,102.068,62.4579,0.0472646,2.09765,18.3688,478.446,4.50682,0.0,0.0
234,58.25,106.807,157.277,132.499,102.052,64.5659,0.0466664,2.07263,18.4201,478.345,4.20079,0.0,0.0
236,58.75,106.386,156.394,115.492,102.043,63.6009,0.0458811,2.04126,18.4617,478.145,4.33819,0.0,0.0
238,59.25,106.715,155.926,128.135,102.053,61.5756,0.0449743,2.00587,18.525,478.005,4.636,0.0,0.0
240,59.75,106.292,155.333,116.984,102.035,65.0233,0.0440025,1.96736,18.5763,477.895,4.13454,0.0,0.0
242,60.25,106.31,154.997,124.132,102.033,64.9315,0.0430018,1.92732,18.6471,477.725,4.14727,0.0,0.0
244,60.75,105.69,154.23,107.87,102.028,68.586,0.0418949,1.89489,18.7045,477.645,3.64442,0.0,0.0
246,61.25,106.2,153.69,130.323,102.006,69.6762,0.0407316,1.85296,18.7838,477.565,3.4977,0.0,0.0
248,61.75,105.161,152.146,123.146,102.01,69.3709,0.0397893,1.80492,18.8481,477.425,3.53829,0.0,0.0
250,62.25,105.02,151.215,125.98,101.996,68.4668,0.0385844,1.75522,18.9002,477.254,3.65749,0.0,0.0
252,62.75,104.63,150.096,122.753,101.986,67.4364,0.0372109,1.70526,18.9769,477.224,3.7957,0.0,0.0
254,63.25,104.279,148.88,126.174,101.974,71.7481,0.0357314,1.65377,19.0391,477.124,3.22589,0.0,0.0
256,63.75,103.581,147.46,125.156,101.984,70.8227,0.0342028,1.60215,19.1201,477.034,3.34594,0.0,0.0
258,64.25,103.066,146.622,131.484,101.961,74.6841,0.0329646,1.56034,19.1857,476.964,2.85672,0.0,0.0
260,64.75,102.225,144.433,139.951,101.958,72.6244,0.031169,1.49954,19.2656,476.914,3.11313,0.0,0.0
262,65.25,101.436,143.483,131.599,101.95,74.1745,0.0297146,1.45028,19.3303,476.844,2.91859,0.0,0.0
264,65.75,100.809,141.218,132.438,101.948,73.243,0.0276821,1.39617,19.4074,476.874,3.03437,0.0,0.0
266,66.25,100.199,139.722,133.564,101.925,75.066,0.0260358,1.33955,19.492,476.904,2.80666,0.0,0.0
268,66.75,99.2973,138.451,139.103,101.927,82.6473,0.0239805,1.29368,19.5606,476.914,1.92401,0.0,0.0
270,67.25,97.6399,135.227,143.493,101.905,83.2284,0.0223157,1.22998,19.6542,476.914,1.85771,0.0,0.0
272,67.75,97.0259,133.807,142.888,101.903,89.392,0.0206122,1.17838,19.73,476.884,1.20196,0.0,0.0
274,68.25,95.4899,131.251,144.787,101.882,94.6564,0.018913,1.10795,19.8212,476.894,0.67502,0.0,0.0
276,68.75,94.599,129.333,147.255,101.891,95.6995,0.0175366,1.0509,19.8951,476.894,0.575274,0.0,0.0
278,69.25,93.9111,126.777,144.905,101.862,94.8826,0.0160787,0.993791,19.9549,476.864,0.65134,0.0,0.0
280,69.75,92.3852,124.861,149.58,101.872,96.1179,0.0145891,0.937719,20.0292,476.864,0.533504,0.0,0.0
282,70.25,91.094,122.709,145.14,101.841,96.9662,0.0132081,0.883044,20.0894,476.894,0.450085,0.0,0.0
284,70.75,89.8607,120.45,147.518,101.846,98.5676,0.0119327,0.830426,20.1562,476.844,0.300266,0.0,0.0
286,71.25,88.6552,118.731,152.168,101.825,99.2557,0.0108995,0.787805,20.2102,476.814,0.234498,0.0,0.0
288,71.75,87.5136,116.477,156.945,101.828,102.095,0.00984175,0.744233,20.2602,476.794,-0.0240794,0.0,0.0
290,72.25,86.5019,114.529,150.474,101.803,101.227,0.00898495,0.700796,20.3063,476.814,0.0520596,0.0,0.0
292,72.75,85.545,112.656,154.427,101.808,101.188,0.00814353,0.665611,20.351,476.824,0.0560821,0.0,0.0
294,73.25,84.3819,110.993,153.026,101.776,101.868,0.00746198,0.624319,20.3939,476.834,-0.00831998,0.0,0.0
296,73.75,83.5803,109.129,152.526,101.769,101.848,0.00680285,0.590872,20.432,476.844,-0.00717099,0.0,0.0
298,74.25,82.6549,107.424,150.385,101.742,102.329,0.00626896,0.555606,20.4661,476.814,-0.0527945,0.0,0.0
300,74.75,81.5507,105.68,149.66,101.742,102.162,0.00576074,0.527041,20.4962,476.824,-0.0378595,0.0,0.0
302,75.25,80.6797,104.535,149.203,101.706,102.644,0.00534909,0.497195,20.5228,476.794,-0.0843063,0.0,0.0
304,75.75,79.6798,102.541,144.748,101.708,102.289,0.00501565,0.47302,20.5444,476.804,-0.0522884,0.0,0.0
306,76.25,79.1897,100.828,148.41,101.684,102.314,0.00467367,0.448397,20.564,476.794,-0.0566366,0.0,0.0
308,76.75,77.7829,99.4707,144.62,101.672,102.287,0.00439667,0.428453,20.5817,476.784,-0.0553418,0.0,0.0
310,77.25,77.1828,98.0378,153.132,101.644,102.396,0.00413764,0.407692,20.596,476.834,-0.06761,0.0,0.0
312,77.75,76.3554,96.224,151.575,101.632,102.359,0.00392783,0.390876,20.6103,476.834,-0.0654086,0.0,0.0
314,78.25,75.5171,94.8763,153.315,101.612,102.194,0.00373705,0.374797,20.6218,476.794,-0.0524463,0.0,0.0
316,78.75,74.6093,93.4552,156.347,101.606,102.417,0.00356378,0.359562,20.6347,476.794,-0.0730168,0.0,0.0
318,79.25,74.0807,92.5684,155.852,101.582,101.968,0.00342343,0.347221,20.6451,476.774,-0.0347894,0.0,0.0
320,79.75,73.6026,91.1472,149.447,101.57,102.317,0.00328751,0.332588,20.6554,476.794,-0.0672563,0.0,0.0
322,80.25,72.1555,89.6976,149.126,101.554,102.468,0.00317741,0.320735,20.6654,476.804,-0.0822509,0.0,0.0
324,80.75,71.6116,88.0384,155.862,101.527,102.298,0.00310429,0.309282,20.6735,476.774,-0.0694097,0.0,0.0
326,81.25,71.1689,87.5111,152.826,101.494,102.046,0.00304507,0.298339,20.6816,476.774,-0.049748,0.0,0.0
328,81.75,70.5223,86.3392,157.038,101.491,102.693,0.00299709,0.289475,20.6897,476.764,-0.108045,0.0,0.0
330,82.25,70.0879,85.0643,152.778,101.467,102.583,0.00300381,0.279366,20.6968,476.764,-0.10034,0.0,0.0
332,82.75,69.6116,83.9989,150.334,101.462,102.13,0.00305028,0.271178,20.703,476.754,-0.0602304,0.0,0.0
334,83.25,68.7587,82.7522,156.58,101.437,102.277,0.00308791,0.262393,20.7081,476.754,-0.0757445,0.0,0.0
336,83.75,67.7004,81.7687,151.377,101.427,103.263,0.00322506,0.255278,20.7134,476.774,-0.164619,0.0,0.0
338,84.25,67.3076,80.5675,152.791,101.39,102.327,0.00333615,0.249514,20.7187,476.784,-0.0843333,0.0,0.0
340,84.75,65.9836,79.445,153.462,101.382,102.066,0.00341819,0.243254,20.7209,476.754,-0.061723,0.0,0.0
342,85.25,65.1871,78.9879,151.209,101.346,102.728,0.00355848,0.236751,20.7265,476.764,-0.124261,0.0,0.0
344,85.75,65.4874,77.9504,151.655,101.336,102.52,0.00367211,0.231483,20.7311,476.744,-0.10653,0.0,0.0
346,86.25,65.0705,76.9707,156.804,101.313,102.236,0.00380648,0.225217,20.7359,476.724,-0.083214,0.0,0.0
348,86.75,63.9583,76.6841,151.943,101.294,102.619,0.00391532,0.220141,20.7409,476.734,-0.119229,0.0,0.0
350,87.25,63.8694,76.3489,152.346,101.27,102.509,0.00402842,0.215022,20.7456,476.754,-0.111588,0.0,0.0
352,87.75,62.7337,74.5068,152.695,101.252,102.115,0.00412003,0.212362,20.75,476.734,-0.0778569,0.0,0.0
354,88.25,62.8024,73.6516,152.855,101.226,102.248,0.00418636,0.207814,20.7541,476.764,-0.0922616,0.0,0.0
356,88.75,62.3218,73.0779,151.795,101.216,102.458,0.004233,0.202755,20.758,476.774,-0.111859,0.0,0.0
358,89.25,61.7707,72.105,150.937,101.184,102.466,0.00425085,0.198658,20.7618,476.734,-0.115501,0.0,0.0
360,89.75,61.1264,70.94,153.08,101.169,102.37,0.00426531,0.193843,20.7655,476.734,-0.108289,0.0,0.0
362,90.25,60.5715,71.3256,152.231,101.153,102.473,0.00427702,0.189943,20.7685,476.734,-0.118933,0.0,0.0
364,90.75,60.3154,70.1815,149.841,101.117,102.136,0.00427406,0.185747,20.7714,476.714,-0.0920694,0.0,0.0
366,91.25,60.4267,69.8714,149.697,101.105,101.858,0.00427166,0.182349,20.7741,476.704,-0.0681093,0.0,0.0
368,91.75,60.0055,69.2914,152.435,101.079,101.91,0.00426774,0.179023,20.7764,476.704,-0.0750866,0.0,0.0
370,92.25,59.3715,67.9959,150.101,101.063,101.893,0.00426281,0.175812,20.779,476.694,-0.0750767,0.0,0.0
372,92.75,59.4927,68.4132,155.303,101.047,101.979,0.00425488,0.173212,20.7812,476.714,-0.0842588,0.0,0.0
374,93.25,58.4469,67.2542,155.565,101.007,102.346,0.00424492,0.170273,20.7834,476.704,-0.12082,0.0,0.0
376,93.75,58.6015,66.475,162.561,100.993,102.137,0.00424078,0.167892,20.7852,476.704,-0.103351,0.0,0.0
378,94.25,57.775,65.9692,150.244,100.969,101.972,0.00424097,0.165505,20.7871,476.704,-0.0906978,0.0,0.0
380,94.75,58.0932,65.5204,156.153,100.96,101.871,0.0042634,0.163157,20.7886,476.714,-0.0824744,0.0,0.0
382,95.25,57.3251,64.7235,159.225,100.939,101.807,0.00430164,0.160916,20.7903,476.694,-0.0785448,0.0,0.0
384,95.75,57.2441,64.1054,154.768,100.913,101.794,0.00436543,0.158795,20.7916,476.704,-0.0797176,0.0,0.0
386,96.25,56.8572,64.1599,158.253,100.884,102.084,0.00444665,0.156803,20.7927,476.684,-0.10845,0.0,0.0
388,96.75,56.3434,63.3024,154.894,100.864,101.828,0.00451243,0.154945,20.7936,476.694,-0.0872781,0.0,0.0
390,97.25,56.0496,62.5577,152.807,100.833,102.136,0.00460781,0.15324,20.7943,476.694,-0.117832,0.0,0.0
392,97.75,56.0555,62.2331,150.429,100.813,101.635,0.00472295,0.151681,20.7949,476.694,-0.0745121,0.0,0.0
394,98.25,55.9724,62.173,153.906,100.789,101.759,0.00481621,0.150241,20.7954,476.694,-0.0878596,0.0,0.0
396,98.75,55.2375,61.8925,159.069,100.76,101.423,0.00492929,0.148915,20.7959,476.674,-0.060204,0.0,0.0
398,99.25,55.0119,61.4869,151.896,100.742,101.536,0.00502088,0.147842,20.7965,476.674,-0.0721182,0.0,0.0
400,99.75,54.719,61.0332,153.517,100.732,101.838,0.00512012,0.146651,20.7969,476.664,-0.1002,0.0,0.0
402,100.25,54.3016,60.4465,153.829,100.708,101.527,0.0052005,0.145686,20.7973,476.684,-0.0743268,0.0,0.0
404,100.75,54.3798,60.4025,151.965,100.681,102.129,0.00528065,0.144905,20.7976,476.674,-0.131009,0.0,0.0
406,101.25,54.1157,59.7426,153.108,100.67,101.364,0.00534557,0.143894,20.7978,476.674,-0.0630595,0.0,0.0
408,101.75,53.9416,59.3602,151.879,100.639,101.642,0.00540568,0.143075,20.7983,476.654,-0.0910822,0.0,0.0
410,102.25,53.6493,59.1857,157.74,100.606,101.519,0.00545437,0.142063,20.7988,476.674,-0.0829126,0.0,0.0
412,102.75,53.5215,59.0671,153.694,100.596,101.636,0.00550258,0.141244,20.7995,476.674,-0.0943591,0.0,0.0
414,103.25,53.4765,58.5426,147.981,100.578,101.42,0.00554164,0.140288,20.8002,476.654,-0.0765359,0.0,0.0
416,103.75,53.7668,59.0352,152.903,100.554,101.318,0.00557327,0.139513,20.8008,476.634,-0.0694527,0.0,0.0
418,104.25,53.2049,58.1745,155.358,100.53,101.45,0.00559638,0.138579,20.8013,476.654,-0.0836053,0.0,0.0
420,104.75,53.1555,58.2194,153.303,100.511,101.492,0.00561511,0.137823,20.8017,476.674,-0.0891419,0.0,0.0
422,105.25,52.7952,57.7085,160.138,100.49,101.002,0.00563027,0.136974,20.8021,476.674,-0.0466591,0.0,0.0
424,105.75,52.0836,57.2034,155.015,100.469,101.459,0.00560872,0.136286,20.8022,476.654,-0.089993,0.0,0.0
426,106.25,52.4966,57.0912,155.408,100.458,101.521,0.00559125,0.135583,20.8022,476.654,-0.0965647,0.0,0.0
428,106.75,52.2028,56.7378,151.22,100.438,101.896,0.00556458,0.134882,20.8024,476.634,-0.132227,0.0,0.0
430,107.25,52.1212,56.6535,154.778,100.42,101.278,0.00554298,0.134314,20.8028,476.624,-0.0780489,0.0,0.0
432,107.75,51.0792,56.4198,155.342,100.402,101.057,0.00553669,0.133853,20.8031,476.634,-0.0596909,0.0,0.0
434,108.25,51.3099,56.0416,154.763,100.375,101.278,0.00554169,0.133189,20.8034,476.624,-0.082193,0.0,0.0
436,108.75,51.1863,55.1432,153.7,100.362,101.16,0.00554573,0.132651,20.8036,476.634,-0.0726502,0.0,0.0
438,109.25,51.3937,54.9905,153.824,100.339,101.114,0.00560293,0.132127,20.8037,476.654,-0.0705743,0.0,0.0
440,109.75,51.2043,55.4648,154.045,100.316,101.152,0.00564926,0.131625,20.8039,476.644,-0.0761824,0.0,0.0
442,110.25,51.3716,55.4121,156.676,100.309,100.837,0.00573953,0.131151,20.804,476.644,-0.0482122,0.0,0.0
444,110.75,51.0714,54.7942,157.585,100.282,101.114,0.00581265,0.130709,20.8041,476.634,-0.0758234,0.0,0.0
446,111.25,51.0788,54.6129,154.562,100.279,101.084,0.00587188,0.130351,20.8042,476.624,-0.0734099,0.0,0.0
448,111.75,50.6784,54.29,154.297,100.246,101.145,0.00596512,0.129991,20.8042,476.604,-0.0819038,0.0,0.0
450,112.25,50.703,54.4562,154.984,100.246,101.239,0.00604064,0.1297,20.8043,476.614,-0.0904647,0.0,0.0
452,112.75,50.2575,53.4452,157.656,100.223,101.093,0.00610811,0.129423,20.8043,476.604,-0.079332,0.0,0.0
454,113.25,50.293,53.9305,155.199,100.216,100.949,0.00616276,0.129198,20.8043,476.624,-0.0668547,0.0,0.0
456,113.75,50.4415,53.7278,155.244,100.209,101.558,0.00619947,0.128965,20.8046,476.604,-0.122642,0.0,0.0
458,114.25,49.5664,53.8427,153.165,100.197,101.396,0.00622921,0.12873,20.805,476.634,-0.109185,0.0,0.0
460,114.75,49.5486,53.5596,158.542,100.169,101.062,0.00624449,0.12854,20.8053,476.624,-0.0814607,0.0,0.0
462,115.25,49.8385,53.1997,153.013,100.168,101.082,0.00625687,0.128233,20.8056,476.644,-0.0833398,0.0,0.0
464,115.75,50.0027,53.3665,156.628,100.146,101.303,0.00624678,0.127985,20.8058,476.624,-0.105382,0.0,0.0
466,116.25,49.3729,52.3847,152.172,100.15,101.036,0.0062386,0.127747,20.806,476.604,-0.080804,0.0,0.0
468,116.75,48.9946,52.838,154.732,100.129,100.833,0.00620884,0.127522,20.8062,476.634,-0.0642981,0.0,0.0
470,117.25,49.2789,52.8745,150.593,100.134,100.789,0.0061639,0.12731,20.8063,476.624,-0.0598676,0.0,0.0
472,117.75,49.2124,52.5469,153.436,100.113,100.815,0.0061275,0.127113,20.8064,476.624,-0.0641103,0.0,0.0
474,118.25,49.3638,52.4648,150.556,100.111,100.74,0.00601147,0.126909,20.8064,476.614,-0.057428,0.0,0.0
476,118.75,48.6476,52.2874,152.847,100.104,101.044,0.00591748,0.126705,20.8065,476.574,-0.0857714,0.0,0.0
478,119.25,49.2497,51.7515,153.918,100.099,100.761,0.00581829,0.126466,20.8066,476.564,-0.060493,0.0,0.0
480,119.75,48.296,51.7771,152.957,100.088,100.927,0.00571719,0.126207,20.8066,476.564,-0.0765718,0.0,0.0
482,120.25,48.6529,51.7769,152.786,100.085,100.726,0.00563529,0.125998,20.8066,476.544,-0.058553,0.0,0.0
484,120.75,48.0468,51.5574,149.267,100.069,100.886,0.00555144,0.125759,20.8067,476.584,-0.0745755,0.0,0.0
486,121.25,48.4489,51.8189,159.506,100.077,101.022,0.00548352,0.125565,20.8067,476.594,-0.0862092,0.0,0.0
488,121.75,48.2029,51.4893,154.417,100.064,101.104,0.0054185,0.125365,20.8069,476.584,-0.0949614,0.0,0.0
490,122.25,48.4973,51.6562,152.809,100.067,101.1,0.00536584,0.125163,20.8073,476.594,-0.094253,0.0,0.0
492,122.75,48.5599,51.4912,148.52,100.058,101.257,0.00533068,0.125,20.8079,476.584,-0.109333,0.0,0.0
494,123.25,47.8184,50.8087,150.635,100.062,100.859,0.00530221,0.124784,20.8086,476.584,-0.0727726,0.0,0.0
496,123.75,48.0269,51.488,155.791,100.062,100.844,0.00530291,0.12461,20.8091,476.584,-0.0714727,0.0,0.0
498,124.25,47.4593,50.4513,154.288,100.058,100.884,0.00530348,0.12433,20.8095,476.544,-0.0754572,0.0,0.0
500,124.75,47.7246,50.4471,155.931,100.052,100.518,0.00530395,0.124104,20.8099,476.564,-0.0427008,0.0,0.0
502,125.25,47.8239,51.0137,155.673,100.063,100.9,0.00533061,0.123893,20.8102,476.574,-0.0764714,0.0,0.0
504,125.75,47.2604,50.7854,153.129,100.074,100.888,0.00535221,0.123722,20.8104,476.564,-0.0743902,0.0,0.0
506,126.25,47.0267,50.3527,157.639,100.063,100.885,0.00538724,0.123561,20.8106,476.554,-0.0750877,0.0,0.0
508,126.75,47.5508,50.5476,151.734,100.071,100.811,0.00541562,0.123412,20.8107,476.554,-0.067642,0.0,0.0
510,127.25,47.1064,50.5445,151.732,100.079,101.011,0.00545365,0.123211,20.8109,476.534,-0.0850068,0.0,0.0
512,127.75,47.253,50.0538,154.035,100.092,100.778,0.00548444,0.122976,20.8107,476.514,-0.0626294,0.0,0.0
514,128.25,47.067,49.7287,151.25,100.077,101.05,0.00550939,0.122786,20.8104,476.524,-0.0887878,0.0,0.0
516,128.75,46.9927,49.6885,157.681,100.085,100.812,0.00552498,0.122604,20.8102,476.534,-0.0663649,0.0,0.0
518,129.25,47.4713,50.0338,154.29,100.088,101.038,0.00553345,0.122457,20.8099,476.534,-0.0866542,0.0,0.0
520,129.75,47.1281,49.5773,152.052,100.102,101.023,0.00554032,0.122374,20.8097,476.514,-0.08408,0.0,0.0
522,130.25,47.2194,50.2834,156.064,100.108,100.753,0.00551205,0.122339,20.8095,476.504,-0.0589307,0.0,0.0
524,130.75,47.1104,49.8258,152.86,100.118,100.791,0.00548916,0.122311,20.8093,476.534,-0.0614791,0.0,0.0
526,131.25,46.8219,49.7743,149.52,100.12,101.115,0.00544559,0.122267,20.8092,476.524,-0.0907127,0.0,0.0
528,131.75,47.0783,49.671,153.235,100.134,100.674,0.00541029,0.122211,20.8091,476.514,-0.0493818,0.0,0.0
530,132.25,46.7492,49.6176,152.146,100.148,100.825,0.0053817,0.122152,20.809,476.544,-0.0618144,0.0,0.0
532,132.75,46.9957,49.7364,152.083,100.16,100.96,0.00533728,0.12209,20.8092,476.514,-0.0729947,0.0,0.0
534,133.25,46.1615,49.213,155.911,100.175,100.986,0.0053013,0.122041,20.8096,476.504,-0.0739855,0.0,0.0
536,133.75,46.4806,49.5373,156.119,100.185,100.984,0.0052684,0.121973,20.8098,476.494,-0.0728569,0.0,0.0
538,134.25,46.1441,49.3066,155.964,100.195,101.145,0.00524175,0.121918,20.8101,476.504,-0.0865923,0.0,0.0
540,134.75,46.5568,49.1431,153.413,100.224,100.901,0.00522149,0.121866,20.8102,476.514,-0.061712,0.0,0.0
542,135.25,46.7188,49.5384,151.375,100.223,100.99,0.00520625,0.121818,20.8104,476.504,-0.0700215,0.0,0.0
544,135.75,45.9944,48.6868,154.168,100.234,100.915,0.00519523,0.121778,20.8105,476.494,-0.0621812,0.0,0.0
546,136.25,46.376,49.3442,156.158,100.25,100.954,0.00518749,0.121677,20.8106,476.484,-0.064259,0.0,0.0
548,136.75,45.8355,49.0785,153.961,100.271,101.097,0.00518122,0.121596,20.8107,476.474,-0.0752857,0.0,0.0
550,137.25,46.0875,49.151,156.916,100.279,101.399,0.00517614,0.121515,20.8107,476.454,-0.101905,0.0,0.0
552,137.75,46.125,49.0301,155.175,100.302,100.976,0.00517531,0.121436,20.8106,476.474,-0.0614885,0.0,0.0
554,138.25,46.2268,48.503,157.08,100.313,100.996,0.00517761,0.121373,20.8102,476.524,-0.0622671,0.0,0.0
556,138.75,45.7224,48.5869,154.84,100.336,100.981,0.00517947,0.121321,20.8099,476.474,-0.0588112,0.0,0.0
558,139.25,46.2679,48.9789,155.032,100.381,101.051,0.005211,0.12128,20.8097,476.474,-0.0610309,0.0,0.0
560,139.75,45.4473,49.2785,158.138,100.374,100.845,0.00523655,0.121246,20.8095,476.494,-0.0429866,0.0,0.0
562,140.25,46.0269,48.5017,156.606,100.389,100.78,0.00527372,0.121255,20.8094,476.504,-0.0357305,0.0,0.0
564,140.75,45.5064,48.4084,154.555,100.409,101.314,0.00531865,0.121295,20.8092,476.474,-0.082374,0.0,0.0
566,141.25,46.0892,48.3168,156.994,100.432,101.099,0.00536032,0.121327,20.8091,476.464,-0.0606868,0.0,0.0
568,141.75,45.5644,48.8214,153.5,100.456,101.466,0.00539883,0.121436,20.8091,476.474,-0.091802,0.0,0.0
570,142.25,45.5327,48.8104,152.416,100.466,101.099,0.00543266,0.121525,20.809,476.454,-0.0576372,0.0,0.0
572,142.75,45.4994,48.576,157.5,100.495,101.416,0.00546243,0.121625,20.8089,476.464,-0.0837217,0.0,0.0
574,143.25,45.4826,48.1227,151.957,100.502,101.099,0.00548984,0.121733,20.8089,476.474,-0.054325,0.0,0.0
576,143.75,45.4106,48.3439,156.112,100.536,100.911,0.00551502,0.12182,20.8089,476.454,-0.0342322,0.0,0.0
578,144.25,46.0117,48.7115,156.056,100.543,101.727,0.00554003,0.121877,20.8088,476.434,-0.107364,0.0,0.0
580,144.75,45.3449,48.5506,156.021,100.567,100.942,0.00556444,0.121931,20.8088,476.444,-0.0341476,0.0,0.0
582,145.25,45.712,47.9979,152.687,100.585,101.345,0.00558422,0.12198,20.8088,476.454,-0.0690571,0.0,0.0
584,145.75,44.9,48.4841,151.765,100.623,101.446,0.00561014,0.122028,20.8088,476.434,-0.0747393,0.0,0.0
586,146.25,45.0228,48.2411,158.621,100.634,101.32,0.00564005,0.122073,20.8088,476.434,-0.0623799,0.0,0.0
588,146.75,44.8959,47.8406,152.7,100.659,101.582,0.00567153,0.122139,20.8088,476.444,-0.0837543,0.0,0.0
590,147.25,45.7225,48.596,155.567,100.682,101.139,0.00570357,0.122218,20.8087,476.434,-0.0416118,0.0,0.0
592,147.75,45.4042,48.2843,152.81,100.704,101.567,0.00573415,0.122282,20.8087,476.394,-0.0783308,0.0,0.0
594,148.25,45.569,48.0416,152.853,100.716,101.426,0.00576308,0.122348,20.8087,476.414,-0.0645344,0.0,0.0
596,148.75,45.6578,48.083,159.617,100.74,100.964,0.00578651,0.122402,20.8087,476.424,-0.0204219,0.0,0.0
598,149.25,45.1912,47.7504,153.939,100.759,101.409,0.00580549,0.122459,20.8087,476.424,-0.0589862,0.0,0.0
600,149.75,44.7188,48.0326,156.248,100.796,101.658,0.00581889,0.122519,20.8087,476.454,-0.0781934,0.0,0.0
602,150.25,45.2865,48.2319,153.087,100.797,101.657,0.00582795,0.122582,20.8087,476.444,-0.0779435,0.0,0.0
604,150.75,45.2459,48.1366,152.598,100.84,101.574,0.00583529,0.122646,20.8087,476.444,-0.0665401,0.0,0.0
606,151.25,44.7522,47.892,159.809,100.854,101.46,0.00584124,0.12272,20.8087,476.424,-0.0549522,0.0,0.0
608,151.75,44.7501,47.7048,153.256,100.886,101.615,0.00583483,0.1228,20.8087,476.444,-0.0660504,0.0,0.0
610,152.25,44.9329,47.3757,159.381,100.885,101.403,0.00581954,0.12285,20.8089,476.444,-0.0470022,0.0,0.0
612,152.75,44.8665,47.7432,153.473,100.928,101.535,0.00580715,0.122877,20.8091,476.414,-0.0550259,0.0,0.0
614,153.25,44.4928,47.9255,156.821,100.94,101.703,0.00578523,0.122899,20.8092,476.404,-0.0690582,0.0,0.0
616,153.75,44.6337,47.964,152.443,100.967,101.41,0.00575679,0.122917,20.8093,476.374,-0.0401038,0.0,0.0
618,154.25,45.0035,47.7319,156.756,100.977,101.63,0.00573903,0.122851,20.8094,476.404,-0.0591332,0.0,0.0
620,154.75,44.3423,47.8909,156.132,101.004,101.495,0.0057294,0.122726,20.8094,476.384,-0.0445127,0.0,0.0
622,155.25,44.4958,47.3845,161.655,101.017,101.846,0.00573744,0.122625,20.8095,476.364,-0.0749918,0.0,0.0
624,155.75,44.1679,47.1595,152.439,101.048,101.894,0.00575821,0.122506,20.8095,476.374,-0.0765608,0.0,0.0
626,156.25,44.7456,47.4908,159.737,101.056,102.09,0.00579288,0.122377,20.8096,476.384,-0.0933772,0.0,0.0
628,156.75,44.6967,47.5293,155.046,101.085,101.697,0.00583702,0.122273,20.8096,476.364,-0.0553286,0.0,0.0
630,157.25,44.5074,47.4826,158.153,101.085,101.665,0.00588269,0.122258,20.8096,476.384,-0.0525293,0.0,0.0
632,157.75,44.6016,47.3737,155.991,101.118,101.717,0.00592861,0.122245,20.8101,476.374,-0.0541665,0.0,0.0
634,158.25,44.9808,46.8487,155.642,101.125,101.812,0.00596184,0.12218,20.8104,476.364,-0.0620804,0.0,0.0
636,158.75,44.452,47.3281,152.768,101.15,102.3,0.00598518,0.122127,20.8107,476.374,-0.103698,0.0,0.0
638,159.25,44.1174,46.5818,152.791,101.171,101.844,0.00600409,0.121988,20.811,476.344,-0.0608459,0.0,0.0
640,159.75,44.2514,46.7674,152.844,101.19,101.518,0.00600023,0.121875,20.8112,476.334,-0.029702,0.0,0.0
642,160.25,44.5265,47.2114,155.57,101.199,101.635,0.00597986,0.121728,20.8113,476.334,-0.0395072,0.0,0.0
644,160.75,44.3208,47.3956,155.66,101.219,101.839,0.00594025,0.121609,20.8115,476.344,-0.0560159,0.0,0.0
646,161.25,44.3797,47.2485,156.876,101.226,101.903,0.00588737,0.121554,20.8116,476.344,-0.0610992,0.0,0.0
648,161.75,43.854,46.8232,153.847,101.244,101.957,0.00584454,0.121509,20.8117,476.344,-0.0644601,0.0,0.0
650,162.25,44.825,47.5626,158.127,101.257,102.073,0.00575096,0.121488,20.812,476.354,-0.0737093,0.0,0.0
652,162.75,44.3113,46.6159,152.79,101.273,101.785,0.00567517,0.121484,20.8124,476.334,-0.0462776,0.0,0.0
654,163.25,44.2451,46.8544,154.514,101.284,102.119,0.00555748,0.121437,20.8128,476.314,-0.0753083,0.0,0.0
656,163.75,43.7609,47.0112,153.044,101.301,101.806,0.00546216,0.121359,20.8131,476.314,-0.0456499,0.0,0.0
658,164.25,44.2658,47.1083,159.353,101.308,102.108,0.00534372,0.121296,20.8133,476.314,-0.0722235,0.0,0.0
660,164.75,44.3278,47.4589,160.887,101.328,102.078,0.00524778,0.121232,20.8135,476.304,-0.0676139,0.0,0.0
662,165.25,44.0157,47.1608,153.448,101.339,102.133,0.00515884,0.121179,20.8137,476.284,-0.0716568,0.0,0.0
664,165.75,43.9062,46.8027,156.98,101.354,102.159,0.0050868,0.121137,20.8138,476.274,-0.0726359,0.0,0.0
666,166.25,44.1582,46.9475,154.725,101.358,101.869,0.00505608,0.121103,20.8138,476.284,-0.0460896,0.0,0.0
668,166.75,44.1486,46.852,157.992,101.369,101.852,0.00501868,0.121024,20.8139,476.294,-0.0436493,0.0,0.0
670,167.25,44.1695,46.6684,154.564,101.376,101.835,0.00500199,0.120915,20.814,476.304,-0.0414327,0.0,0.0
672,167.75,44.091,46.4301,153.936,101.386,101.96,0.00501846,0.120826,20.8141,476.324,-0.0517703,0.0,0.0
674,168.25,44.1503,47.0834,155.438,101.404,102.475,0.0050318,0.120754,20.8141,476.324,-0.0963702,0.0,0.0
676,168.75,44.2143,46.7354,153.519,101.399,101.992,0.00506887,0.120718,20.8142,476.304,-0.0535724,0.0,0.0
678,169.25,43.8911,47.198,154.04,101.406,101.964,0.00509889,0.120712,20.8142,476.304,-0.0503078,0.0,0.0
680,169.75,43.8134,46.602,158.131,101.422,101.978,0.00513697,0.120703,20.8142,476.284,-0.0501687,0.0,0.0
682,170.25,43.6633,46.5841,155.036,101.422,102.436,0.00516782,0.120689,20.8142,476.284,-0.0912695,0.0,0.0
684,170.75,43.3328,46.7774,151.979,101.426,101.994,0.0051828,0.120671,20.8143,476.284,-0.051256,0.0,0.0
686,171.25,43.8331,46.346,154.478,101.426,102.229,0.00519493,0.120605,20.8145,476.284,-0.0723905,0.0,0.0
688,171.75,43.9445,46.6188,157.8,101.466,102.105,0.00518501,0.120506,20.8149,476.274,-0.0576239,0.0,0.0
690,172.25,44.1254,46.5799,150.474,101.437,102.007,0.00515921,0.120382,20.8152,476.284,-0.0514634,0.0,0.0
692,172.75,43.4882,46.3782,153.525,101.45,102.176,0.0051383,0.120243,20.8155,476.274,-0.0654477,0.0,0.0
694,173.25,43.5174,46.0946,160.326,101.446,102.292,0.00510822,0.120047,20.8157,476.254,-0.0762061,0.0,0.0
696,173.75,43.913,47.057,158.209,101.451,101.962,0.00507202,0.119889,20.8159,476.274,-0.0461061,0.0,0.0
698,174.25,44.226,46.4833,162.032,101.459,102.143,0.00504269,0.119705,20.816,476.264,-0.06163,0.0,0.0
700,174.75,43.7275,46.6037,152.456,101.45,102.108,0.00501894,0.119556,20.8161,476.264,-0.0593061,0.0,0.0
702,175.25,43.768,46.933,156.296,101.441,101.961,0.00501719,0.119436,20.8162,476.254,-0.0469851,0.0,0.0
704,175.75,43.1749,46.2421,155.158,101.448,101.936,0.00501577,0.11931,20.8166,476.264,-0.0439856,0.0,0.0
706,176.25,43.5321,46.7673,155.452,101.444,101.907,0.00502462,0.119209,20.8168,476.254,-0.0418398,0.0,0.0
708,176.75,43.5219,46.4326,155.073,101.447,102.204,0.00502719,0.119134,20.817,476.274,-0.0682134,0.0,0.0
710,177.25,43.0793,46.1008,157.373,101.446,101.963,0.00502512,0.11908,20.8172,476.254,-0.0466371,0.0,0.0
712,177.75,43.2125,46.5107,156.431,101.432,101.989,0.00502345,0.119036,20.8173,476.264,-0.0501946,0.0,0.0
714,178.25,43.41,46.2692,156.176,101.429,102.091,0.00500085,0.118928,20.8175,476.254,-0.0597041,0.0,0.0
716,178.75,43.7149,46.314,156.984,101.43,101.947,0.00498255,0.118775,20.818,476.254,-0.0466305,0.0,0.0
718,179.25,43.2118,46.4656,152.515,101.43,102.016,0.00495399,0.118586,20.8184,476.264,-0.0528732,0.0,0.0
720,179.75,43.2997,46.2199,154.9,101.406,102.441,0.00493085,0.118374,20.8188,476.264,-0.0932235,0.0,0.0
722,180.25,43.3536,45.7251,154.402,101.407,102.024,0.00491211,0.118188,20.819,476.254,-0.0556169,0.0,0.0
724,180.75,42.5356,46.009,155.561,101.398,101.977,0.0048882,0.118024,20.8193,476.264,-0.052278,0.0,0.0
726,181.25,42.9994,46.2107,160.182,101.398,101.714,0.00486882,0.117891,20.8194,476.254,-0.0285662,0.0,0.0
728,181.75,43.0385,46.5165,154.14,101.378,102.89,0.00485839,0.117742,20.8196,476.264,-0.135916,0.0,0.0
730,182.25,43.2194,45.7321,156.023,101.388,101.987,0.00485467,0.117622,20.8199,476.274,-0.0540851,0.0,0.0
732,182.75,43.2343,46.3279,156.226,101.363,101.868,0.00485165,0.117386,20.8204,476.294,-0.045596,0.0,0.0
734,183.25,42.9782,46.2029,155.999,101.363,101.876,0.00488918,0.117195,20.8208,476.264,-0.0462815,0.0,0.0
736,183.75,43.2304,45.9935,158.027,101.348,101.709,0.00491959,0.116976,20.8212,476.244,-0.0326611,0.0,0.0
738,184.25,43.3734,46.4386,154.568,101.346,101.957,0.00498548,0.116739,20.8214,476.264,-0.0551536,0.0,0.0
740,184.75,43.2542,45.9432,156.679,101.317,102.136,0.00503886,0.116547,20.8216,476.254,-0.073825,0.0,0.0
742,185.25,43.0934,46.0185,157.095,101.324,101.671,0.00511213,0.11637,20.8218,476.274,-0.0313192,0.0,0.0
744,185.75,43.0947,46.2243,159.298,101.289,101.722,0.00517149,0.116207,20.8219,476.264,-0.0391513,0.0,0.0
746,186.25,42.6293,45.9053,155.575,101.288,101.58,0.00523473,0.116075,20.8221,476.274,-0.0264004,0.0,0.0
748,186.75,42.689,45.8834,156.609,101.276,101.765,0.0052996,0.115968,20.8222,476.254,-0.0441511,0.0,0.0
750,187.25,42.4597,45.7732,158.546,101.257,101.891,0.00535215,0.115881,20.8222,476.254,-0.0572838,0.0,0.0
752,187.75,43.1241,45.8223,154.876,101.242,101.491,0.00540791,0.115729,20.8223,476.254,-0.0225644,0.0,0.0
754,188.25,42.6976,45.9215,160.088,101.238,101.977,0.00546495,0.115605,20.8223,476.254,-0.0667164,0.0,0.0
756,188.75,42.6751,45.7227,154.619,101.211,101.899,0.00551709,0.115463,20.8224,476.274,-0.0621536,0.0,0.0
758,189.25,42.6094,45.7121,158.445,101.207,101.998,0.00556468,0.115349,20.8224,476.274,-0.0714727,0.0,0.0
760,189.75,42.6007,45.7715,152.133,101.184,101.815,0.00560652,0.115256,20.8224,476.233,-0.0570461,0.0,0.0
762,190.25,43.6985,44.8074,160.165,101.185,101.563,0.00564339,0.115194,20.8225,476.244,-0.0342294,0.0,0.0
764,190.75,42.5985,46.1207,151.688,101.165,101.717,0.0056745,0.115144,20.8225,476.254,-0.049858,0.0,0.0
766,191.25,42.7095,45.5279,151.318,101.163,101.745,0.00569971,0.11509,20.8225,476.244,-0.0526053,0.0,0.0
768,191.75,42.4064,45.5013,162.202,101.151,101.508,0.00571385,0.115032,20.8225,476.233,-0.0322621,0.0,0.0
770,192.25,42.8997,45.6457,158.807,101.162,101.415,0.0057253,0.114957,20.8225,476.224,-0.0229811,0.0,0.0
772,192.75,42.1338,45.3266,159.006,101.136,101.661,,0.114869,,476.244,-0.0474414,0.0,0.0
774,193.25,42.7535,45.7727,158.965,101.141,101.838,,0.114744,,476.224,-0.0629521,0.0,0.0
776,193.75,42.9128,45.7701,154.214,101.114,101.955,,0.114642,,476.203,-0.0760153,0.0,0.0
778,194.25,42.273,45.3867,162.449,101.124,101.478,,0.114477,,476.214,-0.032025,0.0,0.0
780,194.75,42.6282,45.6536,154.883,101.092,102.152,,0.114343,,476.203,-0.0956887,0.0,0.0
782,195.25,42.0674,45.1469,157.657,101.09,102.043,,0.114191,,476.153,-0.0860314,0.0,0.0
784,195.75,42.2877,45.0641,157.537,101.085,101.698,,,,476.153,-0.0554667,0.0,0.0
786,196.25,42.7882,45.3655,160.175,101.085,101.515,,,,476.153,-0.0389261,0.0,0.0
788,196.75,42.1664,45.2063,154.935,101.064,101.333,,,,476.153,-0.0244106,0.0,0.0
790,197.25,42.4468,44.995,152.877,101.06,101.376,,,,476.163,-0.0286496,0.0,0.0
792,197.75,42.3855,45.8519,154.073,101.051,101.343,,,,476.163,-0.0264893,0.0,0.0
794,198.25,42.7316,45.3757,155.957,101.049,101.372,,,,476.173,-0.0293305,0.0,0.0
796,198.75,42.4167,45.2647,157.934,101.032,101.46,,,,476.183,-0.0387651,0.0,0.0
798,199.25,42.2889,45.6124,158.649,101.031,101.531,,,,476.183,-0.0453415,0.0,0.0
800,199.75,42.4705,44.9544,158.411,101.019,101.687,,,,476.173,-0.060477,0.0,0.0
802,200.25,42.1723,44.773,155.035,101.019,102.514,,,,476.163,-0.13477,0.0,0.0
804,200.75,42.0913,45.3509,151.901,101.007,101.58,,,,476.173,-0.0518654,0.0,0.0
806,201.25,42.66,45.3117,158.462,101.007,101.368,,,,476.173,-0.0327072,0.0,0.0
808,201.75,42.5822,45.7769,161.854,100.995,101.441,,,,476.163,-0.0404383,0.0,0.0
810,202.25,42.1215,44.8553,159.673,100.989,101.628,,,,476.153,-0.0579476,0.0,0.0
812,202.75,42.0481,44.9156,154.956,100.986,101.44,,,,476.173,-0.0411239,0.0,0.0
814,203.25,42.4423,45.4119,158.737,100.997,101.488,,,,476.173,-0.0444698,0.0,0.0
815,203.5,42.5041,45.4246,153.582,100.991,101.394,,,,476.143,-0.0365453,0.0,0.0