File: 02_Data/Overstuffed_Chair/Cone/Overstuffed_Chair_Cone_HF25Scan_210325_R3.csv
Names,Time,Stack TC,Smoke TC,Exh Press,Smoke Comp,Smoke Meas,CO Meter,CO2 Meter,O2 Meter,Sample Mass,Ext Coeff,Start Test,Flame Verif
Chan Gain,,500,500,1,1,1,1,1,1,1,1,1.0,1.0
Offset,,0,0,0.138348,0,0,0,0,0,0,0,0.0,0.0
Gain,,1,1,25.011,13.5067,16.616,1,1,1,1.00091,1.04608,1.0,1.0
Units,sec,C,C,Pa,%,%,%,%,%,g,/m,,
Baseline,,20.0618,21.172,169.226,99.9473,99.0958,-0.000163427,0.082978,20.8406,-0.340018,0.0785151,,
3,0.5,17.1021,17.895,163.45,99.7169,98.8992,-6.73454e-05,0.0858429,20.8393,494.971,0.0755584,0.0,0.0
6,1.25,17.5962,18.5621,172.273,99.7198,98.9266,-8.46588e-05,0.0861248,20.8386,494.941,0.0732841,0.0,0.0
9,2,17.7526,18.0143,172.154,99.7227,98.9773,-9.72803e-05,0.0864396,20.8381,494.951,0.0688469,0.0,0.0
12,2.75,17.2998,18.0621,169.76,99.719,98.9737,-0.000106481,0.0867669,20.8373,494.901,0.0688349,0.0,0.0
15,3.5,17.6845,18.261,170.547,99.7334,99.0057,-0.000130238,0.0871799,20.8367,494.901,0.0672008,0.0,0.0
18,4.25,17.161,18.5454,171.231,99.7169,98.9073,-0.000147477,0.0875168,20.8366,494.891,0.0748054,0.0,0.0
21,5,17.8977,18.6551,166.207,99.726,98.92,-0.000197105,0.0878236,20.8366,495.121,0.0744647,0.0,0.0
24,5.75,17.4302,18.9907,166.325,99.7338,98.9965,-0.000225995,0.0880543,20.8369,495.511,0.0680847,0.0,0.0
27,6.5,17.9953,19.2376,167.429,99.7334,98.9905,-0.000261108,0.0882348,20.8373,495.381,0.0686113,0.0,0.0
30,7.25,18.1814,18.4643,166.624,99.7429,98.8992,-0.000280296,0.088327,20.8376,495.491,0.0779481,0.0,0.0
33,8,17.6471,18.8988,166.663,99.733,98.8084,-0.000283324,0.0884623,20.8378,495.251,0.0854637,0.0,0.0
36,8.75,17.6982,19.3313,167.237,99.7532,98.8191,-0.000266425,0.088389,20.8381,495.141,0.0863328,0.0,0.0
39,9.5,18.3125,19.3858,166.256,99.7445,98.8611,-0.000249234,0.0883043,20.8388,495.451,0.0816297,0.0,0.0
42,10.25,18.1657,19.2147,169.058,99.7412,98.8835,-0.000234625,0.0882038,20.8393,495.901,0.079255,0.0,0.0
45,11,18.2809,19.0381,167.11,99.7433,98.8662,-0.000231282,0.0881305,20.8396,495.811,0.0810442,0.0,0.0
48,11.75,17.8427,19.7142,169.48,99.7482,98.8186,-0.00023196,0.0880771,20.8399,495.441,0.0859242,0.0,0.0
51,12.5,18.0783,19.7732,170.163,99.7573,98.9413,-0.000220296,0.0880381,20.8401,495.391,0.0753707,0.0,0.0
54,13.25,18.3686,19.6333,168.051,99.7647,98.958,-0.000200832,0.0879962,20.8402,495.101,0.0745016,0.0,0.0
57,14,18.4544,19.8998,163.953,99.7544,98.9996,-0.000181971,0.0879598,20.8403,495.351,0.0696991,0.0,0.0
60,14.75,18.1725,19.2413,162.519,99.7606,98.9534,-0.000154325,0.0879197,20.8404,494.87,0.0745461,0.0,0.0
63,15.5,17.9224,19.5021,165.549,99.7717,98.9134,-0.000116802,0.0878989,20.8405,494.8,0.0792854,0.0,0.0
66,16.25,18.1928,20.1049,167.177,99.7589,98.9585,-8.43194e-05,0.0879083,20.8405,494.71,0.0739233,0.0,0.0
69,17,18.0772,19.9348,167.988,99.7763,98.9261,-5.18711e-05,0.0879287,20.8405,494.73,0.0785262,0.0,0.0
72,17.75,18.7351,20.1833,170.851,99.7742,98.925,-1.60536e-05,0.0879422,20.8405,494.78,0.0784308,0.0,0.0
75,18.5,17.9696,19.885,172.034,99.7903,98.8971,1.00573e-05,0.0879398,20.8406,494.77,0.0824959,0.0,0.0
78,19.25,19.2173,19.6474,172.141,99.7993,98.9103,6.21189e-05,0.0879187,20.8401,494.76,0.0821078,0.0,0.0
81,20,18.3683,19.8638,163.619,99.7886,98.8723,0.000108607,0.0879441,20.8396,494.77,0.0846497,0.0,0.0
84,20.75,18.7473,20.0557,162.896,99.7948,99.0011,0.000146135,0.0879799,20.8393,494.78,0.0732722,0.0,0.0
87,21.5,18.3612,19.9632,171.163,99.8002,98.884,0.000152625,0.0880876,20.8386,494.81,0.0846292,0.0,0.0
90,22.25,18.8208,20.5269,168.824,99.8043,98.9803,0.000125677,0.0882009,20.8379,494.75,0.0760726,0.0,0.0
93,23,18.8282,20.1411,172.91,99.8022,98.924,9.25251e-05,0.0883029,20.8376,494.75,0.0811017,0.0,0.0
96,23.75,18.8901,19.6029,168.812,99.7874,98.9539,4.08938e-06,0.088418,20.8374,494.76,0.0769632,0.0,0.0
99,24.5,18.7064,20.0635,167.559,99.8142,98.9169,-8.96082e-05,0.0885193,20.8372,494.77,0.0828591,0.0,0.0
102,25.25,18.1564,20.2324,175.316,99.8068,98.9869,-0.000170374,0.0887106,20.8371,494.75,0.0756875,0.0,0.0
105,26,18.7909,19.4642,167.979,99.8216,98.9423,-0.000237777,0.0888773,20.837,494.75,0.0811895,0.0,0.0
108,26.75,18.7823,20.2957,167.639,99.8018,98.9615,-0.000290548,0.0890247,20.8365,494.75,0.0775848,0.0,0.0
111,27.5,18.9722,20.1239,172.526,99.8224,98.9996,-0.000311969,0.0891567,20.8354,494.76,0.0759533,0.0,0.0
114,28.25,18.2029,20.0405,165.317,99.8154,98.9965,-0.000305574,0.0893753,20.8337,494.76,0.0755909,0.0,0.0
117,29,18.7013,19.7075,173.827,99.8294,98.9124,-0.000275703,0.0895868,20.8324,494.76,0.0846855,0.0,0.0
120,29.75,18.0232,20.2849,165.439,99.8241,98.8581,-0.000215713,0.089741,20.8315,494.75,0.0892267,0.0,0.0
123,30.5,18.5445,20.0065,168.056,99.8389,98.7937,-0.000147621,0.0901057,20.8308,494.74,0.0965707,0.0,0.0
126,31.25,18.6217,20.2795,165.034,99.8496,98.8064,-8.75981e-05,0.0904298,20.8304,494.72,0.096378,0.0,0.0
129,32,18.7971,19.9049,166.998,99.8447,98.8049,-3.85945e-06,0.0906589,20.8304,494.74,0.0960652,0.0,0.0
132,32.75,18.6221,19.6101,167.455,99.8323,98.4722,5.7186e-05,0.0908137,20.8307,494.72,0.125874,0.0,0.0
135,33.5,18.6055,20.236,169.853,99.8447,98.5275,0.000152147,0.0908489,20.8311,494.69,0.121861,0.0,0.0
138,34.25,18.3488,19.8536,171.26,99.8546,98.0924,0.000237243,0.0908473,20.8316,494.7,0.163379,0.0,0.0
141,35,18.5352,19.4609,165.678,99.8542,98.0164,0.000303473,0.0908346,20.8319,494.67,0.170459,0.0,0.0
144,35.75,18.8155,19.8519,170.36,99.8517,97.3987,0.000347359,0.0906495,20.8328,494.66,0.228236,0.0,0.0
147,36.5,18.4942,19.8804,167.872,99.8488,97.597,0.000348019,0.0904431,20.8334,494.64,0.20931,0.0,0.0
150,37.25,18.3277,20.156,167.906,99.8711,97.2821,0.000318013,0.0901701,20.8339,494.63,0.24101,0.0,0.0
153,38,19.3019,20.5429,169.588,99.8698,97.164,0.00027416,0.0898354,20.8342,494.61,0.252047,0.0,0.0
156,38.75,19.0958,20.375,168.709,99.8645,96.8688,0.000226836,0.0894826,20.8345,494.63,0.279469,0.0,0.0
159,39.5,18.9395,20.6288,163.815,99.8698,97.1036,0.000195543,0.0891433,20.8346,494.6,0.257748,0.0,0.0
162,40.25,18.5879,20.2078,173.007,99.8851,97.0225,0.000178214,0.0888348,20.8354,494.59,0.26682,0.0,0.0
165,41,18.6792,21.1445,171.639,99.8768,96.9271,0.000184705,0.0885905,20.8359,494.56,0.275084,0.0,0.0
168,41.75,19.1731,20.352,169.72,99.8826,97.2598,0.000191362,0.0883481,20.8363,494.54,0.244175,0.0,0.0
171,42.5,18.8724,20.3188,167.614,99.8781,96.453,0.000199506,0.0880613,20.8366,494.54,0.320192,0.0,0.0
174,43.25,18.4355,20.4535,167.768,99.8838,96.3907,0.000198489,0.0877979,20.8369,494.54,0.326657,0.0,0.0
177,44,19.21,20.2629,167.26,99.8979,96.8658,0.000186777,0.0875827,20.8368,494.51,0.282825,0.0,0.0
180,44.75,19.0064,20.6167,169.329,99.9007,95.8476,0.000170997,0.0873096,20.8363,494.51,0.380056,0.0,0.0
183,45.5,19.1388,21.0085,168.269,99.9007,96.7983,0.000155106,0.0870561,20.836,494.49,0.28948,0.0,0.0
186,46.25,19.1565,21.2294,170.041,99.9115,95.3045,0.000144804,0.0868268,20.8358,494.46,0.43318,0.0,0.0
189,47,18.9812,20.6204,173.355,99.9069,95.8481,0.000139487,0.0866229,20.8356,494.44,0.380575,0.0,0.0
192,47.75,19.6242,20.5947,171.776,99.9168,96.3699,0.000135611,0.0864336,20.8355,494.45,0.331666,0.0,0.0
195,48.5,19.4608,20.7791,166.835,99.9131,96.0803,0.000127911,0.0862782,20.8354,494.43,0.358935,0.0,0.0
198,49.25,19.5537,21.3499,162.148,99.9238,96.2933,0.000120221,0.0860875,20.8353,494.42,0.339603,0.0,0.0
201,50,19.2763,20.5994,167.973,99.9267,95.0459,0.000111408,0.0859349,20.8353,494.4,0.459515,0.0,0.0
204,50.75,19.0506,20.9416,170.682,99.9432,95.982,9.95009e-05,0.0858178,20.8367,494.38,0.371099,0.0,0.0
207,51.5,19.0705,20.8978,170.409,99.935,95.7629,8.47303e-05,0.0856357,20.8378,494.37,0.391309,0.0,0.0
210,52.25,19.1645,20.8991,167.169,99.9341,95.484,7.26483e-05,0.0855029,20.8385,494.36,0.417995,0.0,0.0
213,53,19.5003,20.9825,163.306,99.9345,95.875,6.60328e-05,0.0853481,20.8385,494.35,0.380538,0.0,0.0
216,53.75,19.265,21.2118,174.606,99.9572,96.5899,7.27536e-05,0.0852138,20.8384,494.34,0.314444,0.0,0.0
219,54.5,19.2074,20.7552,168.002,99.9523,94.7295,9.73923e-05,0.0850792,20.8384,494.33,0.49246,0.0,0.0
222,55.25,19.2582,20.85,162.084,99.9543,95.2847,0.000190162,0.084923,20.8384,494.3,0.439022,0.0,0.0
225,56,18.7326,20.9686,166.823,99.9617,95.195,0.000305391,0.0848092,20.8383,494.29,0.44835,0.0,0.0
228,56.75,19.2441,21.76,166.275,99.9659,95.5651,0.000470788,0.0849004,20.8377,494.27,0.413116,0.0,0.0
231,57.5,19.1988,21.5721,173.326,99.9564,94.9734,0.000717179,0.0855176,20.8272,494.07,0.469243,0.0,0.0
234,58.25,19.824,21.8261,164.672,99.9605,97.7811,0.000970471,0.0869093,20.8108,494.01,0.202281,0.0,0.0
237,59,20.1341,22.1342,161.697,99.9708,98.5321,0.0012345,0.0905693,20.7913,493.92,0.133021,0.0,0.0
240,59.75,20.3159,22.8189,160.607,99.9725,98.1289,0.00144742,0.0958021,20.7708,493.799,0.170792,0.0,0.0
243,60.5,20.5874,23.3079,161.408,99.9737,97.8485,0.00163588,0.102215,20.7559,493.779,0.197165,0.0,0.0
246,61.25,20.7019,24.1382,160.591,99.9791,98.0833,0.00178745,0.109464,20.7356,493.739,0.175665,0.0,0.0
249,62,21.2072,24.6784,158.87,99.9885,97.5209,0.00190848,0.11898,20.7164,493.729,0.229298,0.0,1.0
252,62.75,22.0883,25.5054,163.739,100.003,97.3997,0.00199542,0.129405,20.7006,493.649,0.242032,0.0,1.0
255,63.5,22.0116,26.1269,163.494,99.991,97.8242,0.00205658,0.138491,20.6834,493.609,0.201036,0.0,1.0
258,64.25,22.8022,26.2199,157.367,99.9865,98.6583,0.00209414,0.149025,20.6666,493.569,0.122708,0.0,1.0
261,65,22.8712,27.1056,157.044,99.9972,97.5924,0.00211906,0.159635,20.6516,493.429,0.223366,0.0,1.0
264,65.75,23.3957,27.9011,153.616,100.006,97.6518,0.00213812,0.169528,20.6392,493.479,0.218584,0.0,1.0
267,66.5,23.3671,26.6752,161.489,99.998,97.2081,0.00215534,0.179275,20.6282,493.399,0.259654,0.0,1.0
270,67.25,22.969,28.0173,155.747,100.007,97.6158,0.00217373,0.188445,20.6202,493.399,0.222119,0.0,1.0
273,68,23.1815,28.7662,160.971,100.012,98.132,0.00219712,0.19681,20.6131,493.399,0.1741,0.0,1.0
276,68.75,23.34,28.9945,154.896,100.029,97.8607,0.0022335,0.205273,20.6062,493.329,0.201129,0.0,1.0
279,69.5,23.9777,29.1492,162.408,100.021,96.8805,0.00227482,0.212608,20.5985,493.299,0.292707,0.0,0.0
282,70.25,24.1027,29.8199,156.467,100.017,96.7198,0.00232229,0.21995,20.5898,493.199,0.307567,0.0,0.0
285,71,24.7608,30.2926,159.717,100.016,97.6279,0.00237577,0.226713,20.574,493.149,0.22177,0.0,0.0
288,71.75,25.3628,31.21,158.297,100.018,97.3815,0.00244315,0.234057,20.5625,493.129,0.245151,0.0,0.0
291,72.5,25.5179,31.0739,153.938,100.041,96.8303,0.00250437,0.243184,20.5497,493.099,0.299316,0.0,0.0
294,73.25,26.4498,32.7533,157.527,100.009,97.4413,0.002562,0.2533,20.5385,492.919,0.238682,0.0,0.0
297,74,26.3168,33.4204,156.936,100.014,96.9348,0.00262625,0.262616,20.5308,492.899,0.286966,0.0,0.0
300,74.75,26.4949,33.1071,159.607,100.023,97.0417,0.00267829,0.270235,20.5252,492.839,0.277637,0.0,0.0
303,75.5,26.758,33.5319,155.98,100.02,97.6842,0.00272513,0.275789,20.5211,492.829,0.216821,0.0,0.0
306,76.25,26.9077,33.73,154.319,100.036,97.5985,0.00274341,0.282693,20.5182,492.809,0.226312,0.0,0.0
309,77,27.2807,33.9734,162.158,100.017,96.7192,0.0027345,0.288411,20.5169,492.688,0.307653,0.0,0.0
312,77.75,27.4451,34.7314,156.792,100.02,97.2233,0.00271138,0.29375,20.5176,492.658,0.26026,0.0,0.0
315,78.5,27.9387,34.744,156.621,100.024,97.3009,0.0026823,0.298497,20.5185,492.588,0.253281,0.0,0.0
318,79.25,28.0635,35.6838,159.738,100.028,98.0235,0.00267518,0.302323,20.5194,492.578,0.185728,0.0,0.0
321,80,28.0231,35.1528,154.638,100.021,97.6563,0.00269965,0.305578,20.52,492.508,0.219517,0.0,0.0
324,80.75,28.6583,35.7583,158.772,100.026,97.0098,0.00273012,0.30817,20.5205,492.508,0.280997,0.0,0.0
327,81.5,27.9258,35.7191,161.456,100.022,97.0412,0.00278819,0.31039,20.5208,492.418,0.277608,0.0,0.0
330,82.25,28.5163,35.6083,157.042,100.015,95.7381,0.00284581,0.312417,20.5211,492.308,0.400991,0.0,0.0
333,83,29.2003,36.7752,160.31,100.02,95.3111,0.00288781,0.31548,20.5125,492.368,0.442535,0.0,0.0
336,83.75,29.276,37.2105,149.242,100.029,93.3923,0.00291472,0.319697,20.5057,492.198,0.629908,0.0,0.0
339,84.5,29.8081,37.3473,155.661,100.022,96.7644,0.00293666,0.323618,20.5,492.168,0.303788,0.0,0.0
342,85.25,29.7953,37.6797,152.436,100.022,95.1123,0.00295934,0.328029,20.4959,492.118,0.461805,0.0,0.0
345,86,30.2862,38.2028,151.279,100.017,96.8759,0.00300804,0.33215,20.4915,492.088,0.292762,0.0,0.0
348,86.75,30.0734,38.7482,153.695,100.021,95.7918,0.00308466,0.335569,20.4878,491.998,0.396446,0.0,0.0
351,87.5,30.3255,38.5315,151.257,100.02,95.6767,0.00318735,0.338269,20.4851,491.928,0.407403,0.0,0.0
354,88.25,30.6226,38.6888,162.199,100.031,96.1584,0.00333544,0.340569,20.4829,491.908,0.36234,0.0,0.0
357,89,30.7025,39.1471,153.516,100.029,94.232,0.00349947,0.342661,20.4809,491.878,0.547846,0.0,0.0
360,89.75,30.8841,39.4422,153.203,100.033,92.3132,0.00366157,0.345669,20.4706,491.758,0.737001,0.0,0.0
363,90.5,31.236,39.9404,150.313,100.041,93.5272,0.00383299,0.348844,20.4588,491.708,0.617837,0.0,0.0
366,91.25,31.197,40.0329,152.977,100.037,93.4577,0.00397664,0.352836,20.4457,491.668,0.624277,0.0,0.0
369,92,31.7829,40.6945,152.853,100.036,91.9573,0.00408735,0.357787,20.4318,491.557,0.772642,0.0,0.0
372,92.75,31.9934,41.3187,150.139,100.031,94.1413,0.0041647,0.363227,20.4186,491.537,0.556803,0.0,0.0
375,93.5,33.3632,42.4987,152.327,100.042,90.7616,0.00419494,0.369596,20.4072,491.397,0.893344,0.0,0.0
378,94.25,33.0591,42.4543,150.668,100.032,93.907,0.00420583,0.375538,20.3982,491.367,0.57978,0.0,0.0
381,95,33.3707,42.8228,154.174,100.037,93.334,0.00416899,0.381751,20.3915,491.267,0.636396,0.0,0.0
384,95.75,33.6154,43.0863,147.169,100.023,93.2229,0.00412304,0.386811,20.3865,491.217,0.646072,0.0,0.0
387,96.5,34.1528,43.2996,147.972,100.029,92.4588,0.00408758,0.39141,20.3824,491.107,0.722092,0.0,0.0
390,97.25,34.6038,44.3338,160.136,100.03,95.0332,0.00405837,0.395488,20.3808,491.067,0.470197,0.0,0.0
393,98,34.8303,45.2598,150.639,100.029,91.7311,0.00406723,0.399704,20.3765,490.977,0.794671,0.0,0.0
396,98.75,35.3267,45.6463,148.693,100.031,93.4907,0.00409733,0.402777,20.3714,490.907,0.620474,0.0,0.0
399,99.5,35.0673,45.4581,154.847,100.03,92.7133,0.00414049,0.407354,20.3665,490.837,0.696977,0.0,0.0
402,100.25,35.8216,46.3022,154.609,100.043,93.3446,0.00419101,0.411018,20.3629,490.787,0.635877,0.0,0.0
405,101,35.1915,45.6095,146.437,100.041,92.5637,0.00425773,0.414514,20.3599,490.687,0.712815,0.0,0.0
408,101.75,35.9126,46.6712,150.289,100.028,92.7093,0.00431912,0.417516,20.3575,490.597,0.697189,0.0,0.0
411,102.5,35.8496,46.1551,152.912,100.044,92.8396,0.00445639,0.420451,20.3549,490.537,0.685774,0.0,0.0
414,103.25,36.0412,46.6221,150.878,100.058,91.1987,0.00459395,0.423132,20.3526,490.476,0.850695,0.0,0.0
417,104,36.2289,46.5267,153.607,100.046,90.4117,0.00475834,0.426015,20.3427,490.336,0.929165,0.0,0.0
420,104.75,36.9761,47.5087,146.719,100.028,89.8696,0.00493326,0.431045,20.3305,490.266,0.982644,0.0,0.0
423,105.5,37.4046,48.4846,150.02,100.047,90.1145,0.00509018,0.43596,20.3129,490.196,0.959448,0.0,0.0
426,106.25,38.5489,49.8169,150.431,100.038,92.079,0.00521471,0.443001,20.2998,490.156,0.760734,0.0,0.0
429,107,38.3056,49.7207,148.619,100.043,91.7996,0.00528941,0.449535,20.2898,490.056,0.78911,0.0,0.0
432,107.75,38.3639,49.7548,144.65,100.043,91.1617,0.00533635,0.454896,20.2823,489.986,0.853022,0.0,0.0
435,108.5,39.0227,50.8543,145.881,100.04,90.9573,0.00536736,0.460612,20.2756,489.916,0.873387,0.0,0.0
438,109.25,39.1053,50.8177,142.637,100.047,91.0826,0.00540125,0.465792,20.2705,489.856,0.861441,0.0,0.0
441,110,39.3467,50.8619,150.388,100.038,90.1982,0.00543999,0.469999,20.2664,489.736,0.950062,0.0,0.0
444,110.75,40.0123,51.6856,150.447,100.045,90.6394,0.00548402,0.474542,20.2622,489.676,0.905973,0.0,0.0
447,111.5,40.1448,52.0547,138.195,100.037,90.8752,0.00555188,0.478492,20.2573,489.556,0.881376,0.0,0.0
450,112.25,40.0927,52.2129,144.797,100.048,91.4147,0.005639,0.482465,20.253,489.476,0.828079,0.0,0.0
453,113,40.4186,52.5845,145.833,100.037,92.0597,0.00574368,0.485909,20.2499,489.426,0.76254,0.0,0.0
456,113.75,40.853,52.7434,145.162,100.033,90.4457,0.00586295,0.489218,20.2476,489.305,0.924545,0.0,0.0
459,114.5,41.2505,53.5092,146.529,100.034,88.4179,0.00601532,0.492339,20.2445,489.235,1.13265,0.0,0.0
462,115.25,40.4741,52.4284,152.389,100.042,88.3119,0.00615429,0.495412,20.2399,489.125,1.14438,0.0,0.0
465,116,41.7004,53.8697,144.159,100.043,87.963,0.0062556,0.499252,20.2316,489.015,1.18081,0.0,0.0
468,116.75,41.5394,54.1424,146.248,100.036,88.5456,0.00641935,0.502907,20.2256,488.925,1.11959,0.0,0.0
471,117.5,42.0318,54.4637,150.654,100.057,87.57,0.00657027,0.507037,20.2213,488.875,1.22318,0.0,0.0
474,118.25,42.3035,55.0265,149.486,100.041,87.9042,0.00669374,0.510681,20.2182,488.755,1.1868,0.0,0.0
477,119,42.5843,55.6438,153.875,100.052,89.398,0.00681406,0.514422,20.216,488.735,1.03319,0.0,0.0
480,119.75,42.7019,55.0972,145.932,100.038,89.6668,0.00693238,0.517314,20.2183,488.635,1.00436,0.0,0.0
483,120.5,42.9735,55.241,145.487,100.034,88.3281,0.00704015,0.519492,20.2213,488.535,1.14197,0.0,0.0
486,121.25,42.8914,55.6357,146.604,100.031,88.9802,0.00714261,0.52108,20.2241,488.475,1.07425,0.0,0.0
489,122,43.0098,55.2917,146.157,100.033,89.5958,0.00724617,0.522238,20.2261,488.375,1.01114,0.0,0.0
492,122.75,43.3981,55.7387,149.143,100.03,89.4837,0.00733233,0.523082,20.2276,488.315,1.02232,0.0,0.0
495,123.5,43.4066,56.2298,144.956,100.042,87.7516,0.00741336,0.52398,20.2287,488.214,1.20278,0.0,0.0
498,124.25,43.7938,56.4936,149.17,100.038,88.0553,0.0074851,0.524816,20.2295,488.114,1.17074,0.0,0.0
501,125,43.8518,56.6411,147.626,100.027,88.3585,0.0075428,0.525501,20.23,488.044,1.13817,0.0,0.0
504,125.75,43.2322,55.9291,143.511,100.023,88.5654,0.0076228,0.526182,20.2304,487.954,1.11633,0.0,0.0
507,126.5,43.823,56.5705,153.126,100.034,87.0224,0.00772805,0.526839,20.2308,487.884,1.27867,0.0,0.0
510,127.25,44.3361,56.7148,144.93,100.033,88.4559,0.00782477,0.527595,20.2303,487.774,1.12867,0.0,0.0
513,128,44.3992,57.0292,145.378,100.028,86.9823,0.00800761,0.528634,20.2279,487.714,1.28233,0.0,0.0
516,128.75,44.4652,56.9061,155.89,100.03,87.3332,0.00821216,0.530115,20.2232,487.594,1.24554,0.0,0.0
519,129.5,45.0529,57.7895,142.582,100.025,84.9038,0.00839166,0.532077,20.2167,487.464,1.504,0.0,0.0
522,130.25,45.0476,57.8013,148.17,100.019,85.9352,0.00859647,0.534799,20.2106,487.354,1.39263,0.0,0.0
525,131,44.9871,58.067,147.823,100.024,85.5949,0.00878872,0.537913,20.2037,487.294,1.42953,0.0,0.0
528,131.75,45.1643,58.4843,141.556,100.013,85.6923,0.0089484,0.54117,20.1987,487.214,1.41804,0.0,0.0
531,132.5,45.2399,58.9242,147.419,100.015,86.6162,0.00906845,0.544444,20.1951,487.123,1.31979,0.0,0.0
534,133.25,45.98,59.1419,150.227,100.017,85.8576,0.00916108,0.547213,20.1934,487.063,1.40069,0.0,0.0
537,134,46.001,59.1002,142.48,100.015,85.4981,0.00924625,0.549993,20.1937,486.923,1.43909,0.0,0.0
540,134.75,45.7972,59.0187,148.631,100.021,83.736,0.00933478,0.552093,20.1948,486.843,1.63067,0.0,0.0
543,135.5,46.3324,59.484,147.144,100.022,85.7156,0.00945688,0.553646,20.196,486.763,1.41641,0.0,0.0
546,136.25,45.9048,58.965,149.653,100.018,85.6933,0.00957043,0.554762,20.1975,486.653,1.41842,0.0,0.0
549,137,46.172,59.8885,141.177,100.013,83.2918,0.00969159,0.555969,20.199,486.603,1.67876,0.0,0.0
552,137.75,46.8313,59.8335,142.158,100.006,83.4429,0.00979156,0.557131,20.2009,486.473,1.66152,0.0,0.0
555,138.5,46.4946,59.7539,143.682,100.007,81.1433,0.00985637,0.558459,20.2026,486.373,1.91807,0.0,0.0
558,139.25,47.0953,60.0293,153.448,100.007,87.1907,0.00986009,0.559455,20.2047,486.253,1.25848,0.0,0.0
561,140,47.1509,59.917,146.963,100.013,84.343,0.00984424,0.560228,20.2073,486.193,1.56372,0.0,0.0
564,140.75,46.462,59.3038,153.064,100.007,86.5914,0.00978344,0.560294,20.2132,486.122,1.3217,0.0,0.0
567,141.5,46.7924,59.7788,154.129,100.007,84.8683,0.00974422,0.559799,20.2192,486.012,1.50617,0.0,0.0
570,142.25,46.8208,59.8627,150.452,99.9939,83.8278,0.00971782,0.558875,20.2249,485.922,1.61816,0.0,0.0
573,143,47.2911,59.9752,147.842,99.9947,84.2289,0.00976057,0.557705,20.2296,485.842,1.57443,0.0,0.0
576,143.75,46.7744,59.5608,149.839,99.9902,84.2669,0.00989776,0.556544,20.2334,485.782,1.56988,0.0,0.0
579,144.5,46.7865,59.3992,149.408,99.9807,83.1427,0.0100525,0.555533,20.2361,485.652,1.69225,0.0,0.0
582,145.25,46.6639,59.2496,152.05,99.9976,83.3364,0.0102589,0.554795,20.2387,485.502,1.67244,0.0,0.0
585,146,46.9905,60.0269,144.011,99.9708,81.5469,0.0104519,0.554677,20.241,485.482,1.86917,0.0,0.0
588,146.75,47.2303,59.4411,153.872,99.9609,82.9774,0.0106052,0.554561,20.2435,485.362,1.70869,0.0,0.0
591,147.5,47.2882,59.4325,150.896,99.9547,83.7101,0.0107078,0.554427,20.2466,485.252,1.62745,0.0,0.0
594,148.25,47.3033,59.106,144.863,99.9457,80.9425,0.010722,0.554031,20.2512,485.182,1.93513,0.0,0.0
597,149,46.6643,59.3193,144.812,99.9312,82.2072,0.0106928,0.553229,20.2543,485.092,1.79155,0.0,0.0
600,149.75,46.9671,58.6486,150.857,99.9378,85.8515,0.0106121,0.551897,20.2603,485.012,1.39412,0.0,0.0
603,150.5,46.8592,58.6549,150.808,99.9292,83.5322,0.0104528,0.550348,20.2647,484.911,1.64464,0.0,0.0
606,151.25,46.7665,58.3214,146.745,99.9255,81.3111,0.0103366,0.548774,20.268,484.841,1.89158,0.0,0.0
609,152,46.8489,58.7447,154.613,99.9131,85.8647,0.0101278,0.547569,20.2707,484.801,1.39044,0.0,0.0
612,152.75,46.8232,58.7618,152.975,99.9053,81.8862,0.00992583,0.545721,20.2734,484.621,1.82506,0.0,0.0
615,153.5,47.0366,58.7749,151.991,99.897,85.2527,0.00973383,0.544179,20.2762,484.561,1.4546,0.0,0.0
618,154.25,46.664,58.2696,151.687,99.8917,84.1092,0.00955367,0.542485,20.2782,484.501,1.57802,0.0,0.0
621,155,47.0088,58.3324,148.311,99.8797,83.093,0.00937507,0.540982,20.2809,484.381,1.68846,0.0,0.0
624,155.75,47.0741,58.3752,147.043,99.8764,85.9083,0.00923884,0.539429,20.2835,484.311,1.38241,0.0,0.0
627,156.5,46.5087,58.0021,153.436,99.8636,86.6649,0.00912922,0.537288,20.2854,484.261,1.30078,0.0,0.0
630,157.25,46.827,57.7986,148.077,99.8587,85.6583,0.00905838,0.535312,20.2868,484.171,1.40752,0.0,0.0
633,158,46.7177,58.3156,150.859,99.8558,84.3592,0.00900674,0.53379,20.2878,484.081,1.54749,0.0,0.0
636,158.75,46.7323,57.974,146.946,99.8488,82.8466,0.00896183,0.532842,20.2885,483.961,1.71288,0.0,0.0
639,159.5,47.1976,58.1343,147.236,99.8439,84.7841,0.00894692,0.532369,20.2881,483.87,1.50029,0.0,0.0
642,160.25,47.0128,58.2716,144.387,99.8265,86.2724,0.00897184,0.532116,20.2863,483.84,1.33902,0.0,0.0
645,161,47.0561,58.0188,155.401,99.829,85.8064,0.00903821,0.53157,20.2836,483.7,1.38895,0.0,0.0
648,161.75,46.8699,58.3799,148.758,99.8245,85.0453,0.00920135,0.531018,20.2804,483.64,1.47029,0.0,0.0
651,162.5,47.1931,57.9497,151.946,99.8257,83.9611,0.00939579,0.530796,20.2759,483.5,1.58813,0.0,0.0
654,163.25,47.4214,57.9488,138.965,99.8101,78.2991,0.00956973,0.531822,20.2698,483.42,2.22735,0.0,0.0
657,164,47.0605,58.2321,150.525,99.8014,83.2619,0.00971115,0.533369,20.2654,483.28,1.66263,0.0,0.0
660,164.75,47.344,58.2194,149.365,99.7952,83.7999,0.00974624,0.534838,20.2621,483.21,1.60296,0.0,0.0
663,165.5,47.5219,58.5625,156.597,99.8002,85.1644,0.00965554,0.536557,20.2598,483.14,1.4552,0.0,0.0
666,166.25,47.2226,58.2909,151.751,99.7998,86.5518,0.00958942,0.537136,20.2581,483.07,1.30689,0.0,0.0
669,167,47.3321,58.1795,156.903,99.782,88.1035,0.00932598,0.537557,20.2605,483.03,1.14221,0.0,0.0
672,167.75,47.517,58.2603,153.572,99.7804,88.9467,0.00904218,0.535151,20.2686,482.91,1.05465,0.0,0.0
675,168.5,47.193,57.9029,154.006,99.7688,88.0046,0.00865262,0.533396,20.2833,482.85,1.1513,0.0,0.0
678,169.25,47.2772,57.6083,152.35,99.7693,88.9893,0.0082568,0.528956,20.2989,482.789,1.04923,0.0,0.0
681,170,46.9955,57.3719,149.712,99.7643,86.3201,0.00792911,0.524371,20.3137,482.719,1.32823,0.0,0.0
684,170.75,46.9479,56.9036,150.795,99.7499,87.0695,0.00767353,0.517805,20.3268,482.639,1.24757,0.0,0.0
687,171.5,46.632,56.8699,151.876,99.7664,87.7008,0.00750522,0.512229,20.3364,482.589,1.1828,0.0,0.0
690,172.25,46.403,56.4127,154.095,99.7425,88.8129,0.00738252,0.506811,20.3434,482.559,1.06498,0.0,0.0
693,173,46.5437,56.7203,152.393,99.7437,85.3049,0.00739942,0.501582,20.3485,482.439,1.43489,0.0,0.0
696,173.75,46.5487,56.6252,151.496,99.7437,88.3306,0.00746109,0.497313,20.352,482.349,1.11505,0.0,0.0
699,174.5,46.2833,56.3816,152.535,99.7313,88.822,0.00753577,0.494007,20.3542,482.319,1.06301,0.0,0.0
702,175.25,46.3814,56.5032,150.77,99.7322,85.8383,0.00760503,0.491396,20.3532,482.209,1.37662,0.0,0.0
705,176,46.6382,56.5064,150.233,99.7206,85.6482,0.00764106,0.489475,20.3525,482.129,1.39591,0.0,0.0
708,176.75,46.5859,56.6209,154.552,99.7037,87.9214,0.00764707,0.488043,20.352,482.069,1.15398,0.0,0.0
711,177.5,46.1062,56.2591,155.277,99.7033,88.0102,0.00764281,0.486973,20.3517,481.959,1.14469,0.0,0.0
714,178.25,46.8122,56.2698,143.292,99.7173,85.9545,0.00754768,0.486001,20.3523,482.009,1.36285,0.0,0.0
717,179,46.5928,55.975,158.44,99.7045,89.9918,0.00747834,0.485017,20.3531,481.919,0.940481,0.0,0.0
720,179.75,46.0918,56.1977,148.328,99.7054,89.1475,0.00725856,0.483968,20.3544,481.789,1.02705,0.0,0.0
723,180.5,46.6305,56.0214,148.18,99.7045,89.3828,0.00701275,0.482523,20.3564,481.658,1.00279,0.0,0.0
726,181.25,46.4321,55.8433,154.75,99.7033,90.9872,0.00676864,0.481178,20.359,481.608,0.839428,0.0,0.0
729,182,46.3351,55.9975,149.112,99.6988,91.1581,0.00654206,0.478679,20.3647,481.588,0.821794,0.0,0.0
732,182.75,46.2901,55.5562,150.307,99.7041,90.795,0.00635806,0.476145,20.3688,481.538,0.858906,0.0,0.0
735,183.5,46.1377,55.8971,160.39,99.6959,92.7524,0.00621458,0.473081,20.3718,481.498,0.662435,0.0,0.0
738,184.25,45.8052,55.4281,153.126,99.7103,91.6444,0.00610772,0.470104,20.374,481.418,0.774035,0.0,0.0
741,185,46.0543,54.8751,150.353,99.6967,88.8681,0.00601908,0.46758,20.3765,481.358,1.05506,0.0,0.0
744,185.75,46.1301,55.3117,153.803,99.6872,91.6033,0.00592742,0.465679,20.3787,481.298,0.776024,0.0,0.0
747,186.5,46.3197,55.4663,149.676,99.681,92.3913,0.00581433,0.464145,20.3803,481.228,0.696857,0.0,0.0
750,187.25,45.9423,55.1855,146.953,99.6951,92.6114,0.00562301,0.462252,20.3833,481.218,0.676316,0.0,0.0
753,188,46.1356,55.3423,152.568,99.6975,94.7827,0.00548353,0.460542,20.3886,481.128,0.463888,0.0,0.0
756,188.75,45.4004,54.7457,155.764,99.6901,93.8674,0.00523762,0.456972,20.3925,481.078,0.552247,0.0,0.0
759,189.5,45.795,54.9109,156.167,99.6761,93.2564,0.00505835,0.453419,20.3998,481.098,0.610883,0.0,0.0
762,190.25,45.2721,54.5622,160.069,99.6897,94.0236,0.00483171,0.449204,20.4083,480.988,0.536953,0.0,0.0
765,191,45.7874,53.862,153.528,99.6798,94.6874,0.00465902,0.444556,20.4166,480.878,0.471491,0.0,0.0
768,191.75,45.3325,53.3742,152.331,99.6918,93.9765,0.00452995,0.440496,20.4238,480.828,0.541747,0.0,0.0
771,192.5,44.8096,53.4387,153.956,99.6806,93.8466,0.00444651,0.436484,20.4303,480.838,0.553406,0.0,0.0
774,193.25,44.8995,53.0336,156.895,99.6926,95.9525,0.00439485,0.431759,20.4351,480.828,0.350873,0.0,0.0
777,194,44.6714,52.9868,151.83,99.6864,95.5596,0.00437288,0.426431,20.4436,480.728,0.387962,0.0,0.0
780,194.75,44.9813,52.6618,157.543,99.6918,95.9541,0.00436752,0.421016,20.452,480.678,0.350652,0.0,0.0
783,195.5,44.5036,52.7152,153.499,99.6889,95.3841,0.00435863,0.416416,20.4597,480.698,0.405053,0.0,0.0
786,196.25,44.3616,52.2139,153.579,99.6951,96.0281,0.00434282,0.410679,20.4665,480.668,0.343877,0.0,0.0
789,197,44.5542,51.6801,152.336,99.6864,96.7568,0.00431897,0.404608,20.4753,480.638,0.273714,0.0,0.0
792,197.75,44.2759,52.1892,156.14,99.6914,95.8242,0.00426785,0.398449,20.4852,480.527,0.363036,0.0,0.0
795,198.5,44.0248,51.3987,154.006,99.6905,97.0717,0.00420965,0.392372,20.4939,480.567,0.244279,0.0,0.0
798,199.25,43.6638,51.2077,158.453,99.7083,97.2446,0.0041314,0.385052,20.5059,480.527,0.229578,0.0,0.0
801,200,43.6143,50.3947,155.456,99.7091,97.6345,0.0040443,0.377704,20.5146,480.487,0.192934,0.0,0.0
804,200.75,43.7978,50.3969,155.578,99.6992,97.5311,0.00392938,0.37149,20.5241,480.517,0.201749,0.0,0.0
807,201.5,42.9643,49.6485,156.853,99.7128,97.6918,0.0037731,0.363975,20.5311,480.417,0.18789,0.0,0.0
810,202.25,42.7505,49.4139,152.564,99.7206,96.2928,0.00361087,0.358498,20.5375,480.387,0.320971,0.0,0.0
813,203,42.8145,49.272,157.036,99.7247,98.7095,0.00345183,0.351272,20.5446,480.367,0.0938924,0.0,0.0
816,203.75,42.4155,49.1902,157.034,99.7317,97.524,0.00330138,0.344855,20.556,480.397,0.205414,0.0,0.0
819,204.5,42.8195,48.7057,152.404,99.726,98.3414,0.00316822,0.338211,20.567,480.337,0.128293,0.0,0.0
822,205.25,41.8405,48.4193,159.943,99.7264,96.9348,0.00305983,0.330741,20.5761,480.377,0.26053,0.0,0.0
825,206,42.0958,47.9157,156.041,99.7355,97.4844,0.00297859,0.323652,20.5846,480.257,0.209477,0.0,0.0
828,206.75,41.5024,47.7338,155.005,99.7429,97.5088,0.00291937,0.316972,20.5913,480.277,0.20787,0.0,0.0
831,207.5,41.9163,47.2763,157.236,99.7462,97.1883,0.0028762,0.310715,20.597,480.317,0.238381,0.0,0.0
834,208.25,42.2524,47.8273,160.152,99.7392,97.5143,0.00282535,0.304185,20.6037,480.257,0.207004,0.0,0.0
837,209,41.3285,46.7157,158.595,99.7647,98.1218,0.00276944,0.29843,20.6098,480.257,0.152368,0.0,0.0
840,209.75,40.9567,46.1218,154.876,99.7693,97.4302,0.00269646,0.292532,20.6173,480.247,0.217696,0.0,0.0
843,210.5,40.6763,46.267,156.602,99.775,97.9824,0.00260104,0.28631,20.6255,480.237,0.166365,0.0,0.0
846,211.25,41.0783,45.7345,164.476,99.7676,97.7288,0.00249574,0.280954,20.6326,480.227,0.189457,0.0,0.0
849,212,40.617,45.0775,163.328,99.7796,98.1102,0.00240375,0.274453,20.6391,480.167,0.154823,0.0,0.0
852,212.75,40.4068,44.6841,158.213,99.7882,98.065,0.00231725,0.268746,20.6462,480.187,0.159841,0.0,0.0
855,213.5,39.8598,44.476,159.323,99.7977,97.5625,0.00222096,0.26293,20.6539,480.217,0.207854,0.0,0.0
858,214.25,39.2091,43.3881,161.32,99.8006,97.0727,0.00214214,0.256571,20.6607,480.197,0.254308,0.0,0.0
861,215,38.9946,43.5057,161.248,99.8257,98.5163,0.00208102,0.251936,20.6676,480.197,0.121158,0.0,0.0
864,215.75,39.0866,43.0342,159.617,99.8356,98.065,0.00204699,0.245355,20.6749,480.167,0.164199,0.0,0.0
867,216.5,38.851,42.2371,161.003,99.8443,98.3987,0.0020271,0.239708,20.6823,480.197,0.133827,0.0,0.0
870,217.25,38.8138,42.1793,159.5,99.836,98.85,0.00201535,0.234139,20.6896,480.167,0.091079,0.0,0.0
873,218,38.7082,42.4116,159.492,99.8678,98.8728,0.00200789,0.22843,20.6987,480.177,0.0918782,0.0,0.0
876,218.75,38.5684,41.6474,160.913,99.8702,98.8495,0.00200737,0.222855,20.7068,480.157,0.0942692,0.0,0.0
879,219.5,38.4029,41.8201,161.634,99.8719,99.1071,0.0020091,0.217576,20.715,480.147,0.0705404,0.0,0.0
882,220.25,37.4466,40.6403,160.903,99.8859,99.2435,0.00201386,0.211419,20.7232,480.137,0.0592073,0.0,0.0
885,221,37.3009,40.1076,164.028,99.8933,99.1588,0.00201734,0.206039,20.7301,480.187,0.067722,0.0,0.0
888,221.75,36.7296,40.4096,163.328,99.8979,99.3515,0.00201812,0.20059,20.7377,480.187,0.0503235,0.0,0.0
891,222.5,36.8433,39.6705,164.823,99.911,99.3272,0.00201745,0.194875,20.7444,480.207,0.0537834,0.0,0.0
894,223.25,36.5568,39.2997,160.017,99.9189,99.6451,0.00200932,0.189965,20.7512,480.197,0.0251771,0.0,0.0
897,224,36.0945,38.5833,161.071,99.9197,99.6988,0.00199121,0.183751,20.7593,480.187,0.0203051,0.0,0.0
900,224.75,35.538,38.2847,162.199,99.9407,99.5766,0.00194818,0.17841,20.767,480.197,0.0334903,0.0,0.0
903,225.5,35.8129,38.2367,155.72,99.9506,99.351,0.00189592,0.17313,20.774,480.197,0.0552155,0.0,0.0
906,226.25,35.5821,37.6989,162.042,99.9679,99.6208,0.00183663,0.168027,20.7804,480.227,0.0319239,0.0,0.0
909,227,35.7441,38.004,162.222,99.9585,99.6928,0.0017724,0.162708,20.7862,480.207,0.0244233,0.0,0.0
912,227.75,34.9342,37.496,168.18,99.9725,99.672,0.00170749,0.157809,20.7905,480.237,0.0276237,0.0,0.0
915,228.5,34.977,36.4044,166.845,99.9807,99.5351,0.00162923,0.153268,20.7942,480.167,0.0409922,0.0,0.0
918,229.25,34.4187,36.3598,164.46,99.9939,99.4681,0.00153908,0.149024,20.7974,480.227,0.0483759,0.0,0.0
921,230,33.646,35.9955,161.181,99.9935,99.5325,0.00145923,0.144975,20.8005,480.237,0.0423991,0.0,0.0
924,230.75,33.6665,35.3464,165.24,100.007,99.4047,0.00136782,0.141073,20.8033,480.257,0.0554732,0.0,0.0
927,231.5,33.5034,34.9517,166.852,100.015,99.6988,0.00128893,0.137272,20.8059,480.247,0.0290075,0.0,0.0
930,232.25,33.2042,34.4642,163.278,100.015,99.5396,0.00122491,0.134093,20.8086,480.267,0.0437491,0.0,0.0
933,233,33.0127,34.0033,160.734,100.01,99.3809,0.00117604,0.13071,20.8112,480.277,0.0579378,0.0,0.0
936,233.75,32.8586,33.6905,160.488,100.029,99.4428,0.00113866,0.127903,20.8135,480.277,0.0538911,0.0,0.0
939,234.5,32.5328,33.3994,161.609,100.035,99.5178,0.00111141,0.125272,20.8154,480.287,0.0475369,0.0,0.0
942,235.25,32.0295,33.1649,164.637,100.064,99.5183,0.00107234,0.122529,20.8168,480.277,0.0501744,0.0,0.0
945,236,31.9201,32.8653,163.115,100.051,99.5036,0.00104386,0.120116,20.8184,480.267,0.0503583,0.0,0.0
948,236.75,32.2803,32.9522,164.313,100.073,99.5001,0.000969004,0.118181,20.8195,480.277,0.0526513,0.0,0.0
951,237.5,31.762,32.9668,167.065,100.079,99.6208,0.000887543,0.116202,20.8202,480.277,0.0421334,0.0,0.0
954,238.25,31.0561,32.3078,159.739,100.08,99.8434,0.000801909,0.114759,20.8207,480.267,0.0217271,0.0,0.0
957,239,31.3404,32.142,163.999,100.084,99.5254,0.000714199,0.113241,20.8218,480.277,0.0513341,0.0,0.0
960,239.75,31.3726,31.9311,164.575,100.095,99.6481,0.000612431,0.11179,20.8225,480.297,0.0410477,0.0,0.0
963,240.5,30.6255,31.5328,166.121,100.108,99.6187,0.000522116,0.110486,20.823,480.287,0.0449651,0.0,0.0
966,241.25,30.3197,31.7888,163.971,100.108,99.5584,0.000400641,0.109124,20.8239,480.297,0.0505628,0.0,0.0
969,242,30.4484,31.0389,167.415,100.123,99.5771,0.000312085,0.107973,20.8247,480.267,0.0501189,0.0,0.0
972,242.75,31.0076,31.5243,165.718,100.137,99.456,0.00018673,0.106863,20.8252,480.277,0.0626139,0.0,0.0
975,243.5,30.4751,31.5582,160.113,100.139,99.6329,8.56023e-05,0.105684,20.8257,480.287,0.0464911,0.0,0.0
978,244.25,30.9473,30.5702,166.936,100.158,99.6532,1.41367e-05,0.104666,20.826,480.287,0.0463224,0.0,0.0
981,245,30.055,30.7164,164.75,100.154,99.7719,-2.70011e-05,0.103515,20.8268,480.277,0.035101,0.0,0.0
984,245.75,30.4935,30.5641,163.828,100.162,99.6466,-3.09359e-05,0.102676,20.8279,480.287,0.0473443,0.0,0.0
987,246.5,30.0159,29.9814,166.73,100.169,99.5315,-1.79718e-05,0.101655,20.8288,480.287,0.0585551,0.0,0.0
990,247.25,29.8411,30.3117,162.801,100.172,99.6238,1.52208e-07,0.100658,20.8295,480.307,0.0503528,0.0,0.0
993,248,29.457,30.1277,163.209,100.188,99.6973,1.6654e-05,0.0996849,20.8305,480.297,0.0450554,0.0,0.0
996,248.75,29.8048,29.7371,162.646,100.202,99.6137,1.71455e-05,0.0987417,20.8314,480.287,0.0540042,0.0,0.0
999,249.5,29.3407,29.5273,162.645,100.216,99.7678,-2.22674e-06,0.0978331,20.832,480.297,0.0410989,0.0,0.0
1002,250.25,30.1537,29.9988,167.823,100.214,99.7181,-5.04479e-05,0.0969934,20.8327,480.307,0.0455583,0.0,0.0
1005,251,29.3595,29.2813,164.521,100.228,99.6725,-0.000100138,0.0963058,20.8336,480.307,0.0510023,0.0,0.0
1008,251.75,29.4599,29.7909,170.869,100.238,99.5919,-0.000169365,0.0955713,20.8343,480.297,0.0593725,0.0,0.0
1011,252.5,29.1884,29.3674,160.475,100.254,99.672,-0.000223485,0.0949354,20.8348,480.307,0.0533897,0.0,0.0
1014,253.25,29.5636,28.9135,170.991,100.275,99.7506,-0.000263215,0.0943002,20.8351,480.317,0.048118,0.0,0.0
1017,254,29.2324,28.4136,165.624,100.278,99.5569,-0.000289985,0.0936874,20.8354,480.317,0.066218,0.0,0.0
1020,254.75,28.8582,29.1487,170.368,100.284,99.8043,-0.000290394,0.0930837,20.8356,480.317,0.0439669,0.0,0.0
1023,255.5,28.9932,28.8864,165.341,100.311,99.7399,-0.000290692,0.0924843,20.8357,480.307,0.0524163,0.0,0.0
1026,256.25,28.8423,28.9417,162.722,100.324,99.7947,-0.000240536,0.0919385,20.8358,480.297,0.0485859,0.0,0.0
1029,257,28.9016,28.3927,159.001,100.331,99.8743,-0.000179616,0.0914513,20.8359,480.307,0.0418721,0.0,0.0
1032,257.75,28.6715,28.667,159.327,100.343,99.7921,-0.000124821,0.0910226,20.8359,480.297,0.050553,0.0,0.0
1035,258.5,28.4034,28.31,164.193,100.352,99.8028,-5.35975e-05,0.0906013,20.8359,480.307,0.0503648,0.0,0.0
1038,259.25,28.7536,28.5503,165.6,100.38,99.9716,-1.67546e-06,0.0902478,20.8366,480.337,0.0373782,0.0,0.0
1041,260,27.9772,28.7001,166.917,100.395,99.9392,3.37386e-05,0.0898931,20.8371,480.317,0.0417893,0.0,0.0
1044,260.75,28.1506,28.0105,164.967,100.397,99.852,4.76163e-05,0.0895122,20.8374,480.317,0.0499884,0.0,0.0
1047,261.5,28.1104,27.8904,165.238,100.41,99.7648,3.90939e-05,0.0891824,20.8377,480.327,0.0591758,0.0,0.0
1050,262.25,28.4823,27.8632,162.692,100.451,99.9422,8.52395e-06,0.0888489,20.8379,480.327,0.0466326,0.0,0.0
1053,263,27.6462,28.0273,162.277,100.456,99.7333,-2.41454e-05,0.0884469,20.838,480.307,0.0662853,0.0,0.0
1056,263.75,27.7026,27.8999,165.901,100.451,99.7932,-5.49088e-05,0.0880569,20.8385,480.297,0.0602549,0.0,0.0
1059,264.5,27.6299,27.9689,172.844,100.47,99.7288,-5.90681e-05,0.0876911,20.8391,480.317,0.0679478,0.0,0.0
1062,265.25,27.9849,27.7649,165.49,100.483,100.26,-4.85439e-05,0.0873897,20.8395,480.337,0.0203858,0.0,0.0
1065,266,27.5431,27.3231,164.205,100.504,99.9149,-3.10068e-05,0.0871157,20.8399,480.317,0.053965,0.0,0.0
1068,266.75,26.7606,27.3065,163.045,100.512,99.7506,-1.82224e-05,0.0868927,20.8401,480.317,0.0697816,0.0,0.0
1071,267.5,27.6126,27.1846,164.247,100.515,99.9742,-1.0121e-05,0.086614,20.8402,480.307,0.0495336,0.0,0.0
1074,268.25,27.4847,27.4455,164.857,100.542,100.01,-4.73448e-06,0.0863837,20.8404,480.317,0.0487219,0.0,0.0
1077,269,27.4958,27.0601,160.768,100.547,99.9544,1.13532e-05,0.0861542,20.8405,480.327,0.0542456,0.0,0.0
1080,269.75,27.3066,27.3684,163.583,100.559,99.924,3.2701e-05,0.0859013,20.8405,480.317,0.0581682,0.0,0.0
1083,270.5,27.6193,27.666,165.683,100.564,100.066,6.47135e-05,0.0856977,20.8406,480.317,0.0454691,0.0,0.0
1086,271.25,27.7206,26.9263,166.174,100.591,100.028,9.04881e-05,0.085522,20.8406,480.317,0.0514853,0.0,0.0
1089,272,26.7701,27.236,170.654,100.6,99.9062,0.000110317,0.0853824,20.8406,480.307,0.063483,0.0,0.0
1092,272.75,27.3953,26.3758,163.083,100.607,99.9716,0.000114342,0.0852807,20.8406,480.317,0.0581541,0.0,0.0
1095,273.5,26.946,27.3576,161.87,100.622,100.033,0.000112787,0.0851993,20.8406,480.337,0.053915,0.0,0.0
1098,274.25,27.7265,27.1358,164.436,100.625,99.9742,0.000103977,0.0851278,20.8407,480.317,0.0595746,0.0,0.0
1101,275,26.9996,26.802,164.579,100.637,100.156,8.36553e-05,0.0850621,20.8407,480.307,0.0438972,0.0,0.0
1104,275.75,27.154,26.498,166.216,100.642,99.9889,6.27508e-05,0.0850085,20.8407,480.327,0.0597289,0.0,0.0
1107,276.5,26.9562,26.5641,166.778,100.661,99.9656,4.49153e-05,0.0849113,20.8407,480.327,0.0635982,0.0,0.0
1110,277.25,26.5681,26.3629,165.493,100.665,99.9955,3.31309e-05,0.0847861,20.8407,480.357,0.0611916,0.0,0.0
1113,278,26.6197,26.7675,171.295,100.678,100.233,2.18543e-05,0.0846504,20.8407,480.337,0.0405958,0.0,0.0
1116,278.75,26.7374,26.2622,167.335,100.688,100.023,8.15341e-06,0.0845148,20.8407,480.327,0.06082,0.0,0.0
1119,279.5,26.6909,26.5959,164.747,100.693,100.134,-2.44155e-05,0.0844159,20.8407,480.337,0.0511263,0.0,0.0
1122,280.25,26.5365,26.2483,163.431,100.717,100.226,-5.79007e-05,0.0843438,20.8407,480.327,0.0448519,0.0,0.0
1125,281,26.5938,26.2378,165.84,100.723,100.193,-8.64647e-05,0.0842332,20.8407,480.327,0.0484793,0.0,0.0
1128,281.75,26.1633,26.4712,166.064,100.736,100.318,-0.000103813,0.0841383,20.8407,480.327,0.038095,0.0,0.0
1131,282.5,26.2326,26.4046,168.014,100.757,100.117,-0.00011646,0.0840447,20.8407,480.337,0.0585269,0.0,0.0
1134,283.25,26.6623,26.0074,159.649,100.754,100.242,-0.000101324,0.0839572,20.8407,480.327,0.0467545,0.0,0.0
1137,284,26.6272,26.5382,165.182,100.77,100.105,-7.99055e-05,0.0838933,20.8409,480.337,0.0608059,0.0,0.0
1140,284.75,26.3952,26.0451,164.279,100.769,100.051,-6.3074e-05,0.0838468,20.841,480.327,0.065612,0.0,0.0
1143,285.5,26.5751,26.2598,165.016,100.782,100.13,-5.98993e-05,0.0838057,20.8411,480.327,0.0595703,0.0,0.0
1146,286.25,25.8971,26.3484,165.132,100.791,100.117,-7.4026e-05,0.0837636,20.8412,480.327,0.0615578,0.0,0.0
1149,287,26.5027,27.0547,168.742,100.811,100.093,-0.000122538,0.0837328,20.8412,480.327,0.0655903,0.0,0.0
1152,287.75,26.412,26.0589,163.113,100.815,100.167,-0.000171299,0.0837104,20.8412,480.327,0.0591801,0.0,0.0
1155,288.5,26.2574,25.9812,164.316,100.827,100.274,-0.000218325,0.0836361,20.8413,480.337,0.0504725,0.0,0.0
1158,289.25,25.926,25.5621,168.785,100.83,100.235,-0.000262471,0.0835819,20.8413,480.327,0.0543086,0.0,0.0
1161,290,25.7878,25.8391,166.535,100.847,100.358,-0.000315499,0.0835352,20.8413,480.317,0.044657,0.0,0.0
1164,290.75,25.8975,25.7133,165.087,100.85,100.17,-0.000354155,0.083489,20.8413,480.347,0.0620902,0.0,0.0
1167,291.5,25.9095,25.8174,165.213,100.85,100.322,-0.000406654,0.0834746,20.8409,480.337,0.0481659,0.0,0.0
1170,292.25,25.7778,26.4811,169.006,100.865,100.338,-0.000437875,0.0834642,20.8404,480.327,0.0481159,0.0,0.0
1173,293,25.5623,25.8492,163.318,100.869,100.45,-0.000448578,0.0834566,20.84,480.327,0.0381723,0.0,0.0
1176,293.75,25.9089,25.5315,164.415,100.883,100.218,-0.000425416,0.0833736,20.8397,480.347,0.0607624,0.0,0.0
1179,294.5,25.5102,25.9797,165.811,100.883,100.244,-0.00040362,0.0833132,20.8395,480.337,0.0582269,0.0,0.0
1182,295.25,25.5151,25.9,164.215,100.892,100.361,-0.000375875,0.0833078,20.8391,480.307,0.0483814,0.0,0.0
1185,296,25.8722,25.5854,162.044,100.894,100.301,-0.000351264,0.0833174,20.8389,480.307,0.0540792,0.0,0.0
1188,296.75,25.3138,25.2805,166.8,100.907,100.233,-0.000322901,0.083319,20.8389,480.317,0.0615437,0.0,0.0
1191,297.5,25.7673,25.6495,161.363,100.91,100.265,-0.000302224,0.0832998,20.8393,480.317,0.0588453,0.0,0.0
1194,298.25,25.3877,25.1898,168.425,100.918,100.332,-0.000273255,0.0832505,20.8396,480.327,0.0534702,0.0,0.0
1197,299,24.9714,25.4714,166.128,100.914,100.423,-0.000256623,0.0832301,20.8399,480.327,0.0447049,0.0,0.0
1200,299.75,24.9336,26.0193,166.933,100.936,100.206,-0.00025217,0.0832268,20.84,480.337,0.0665438,0.0,0.0
1203,300.5,25.1619,25.7733,171.218,100.927,100.297,-0.000266294,0.0832244,20.8395,480.337,0.0574116,0.0,0.0
1206,301.25,25.7527,25.7482,160.975,100.942,100.313,-0.000288749,0.0832227,20.8396,480.347,0.0573595,0.0,0.0
1209,302,25.846,25.4867,170.608,100.931,100.425,-0.000305119,0.0831634,20.8398,480.357,0.0460568,0.0,0.0
1212,302.75,25.6639,25.2245,167.013,100.956,100.161,-0.000325738,0.083093,20.84,480.357,0.0725234,0.0,0.0
1215,303.5,24.9945,25.2573,164.554,100.951,100.255,-0.000351729,0.0830445,20.8401,480.347,0.0635199,0.0,0.0
1218,304.25,25.2028,25.7359,170.592,100.953,100.428,-0.000375349,0.0830334,20.8402,480.347,0.047932,0.0,0.0
1221,305,25.1739,25.1694,166.146,100.945,100.426,-0.000392568,0.0830835,20.8403,480.347,0.0472758,0.0,0.0
1224,305.75,26.0455,25.7255,165.521,100.97,100.208,-0.000425634,0.0831199,20.8403,480.327,0.0695515,0.0,0.0
1227,306.5,25.3449,25.2966,167.328,100.975,100.306,-0.000484816,0.0831271,20.8408,480.327,0.0610439,0.0,0.0
1230,307.25,24.981,25.1034,168.215,100.98,100.352,-0.000538383,0.0831395,20.8413,480.337,0.0572355,0.0,0.0
1233,308,25.2598,25.2266,167.785,100.964,100.222,-0.000574996,0.0831608,20.8417,480.347,0.0676905,0.0,0.0
1236,308.75,25.1426,25.271,164.44,100.986,100.301,-0.000592982,0.0831763,20.8418,480.327,0.0624824,0.0,0.0
1239,309.5,25.0077,25.1769,166.552,100.988,100.336,-0.000594654,0.0831883,20.8418,480.347,0.0593855,0.0,0.0
1242,310.25,24.6778,25.1975,168.327,100.989,100.523,-0.00057517,0.0831839,20.8414,480.347,0.0423642,0.0,0.0
1245,311,24.8364,24.4708,164.991,100.971,100.25,-0.000536116,0.0831748,20.8411,480.357,0.0657825,0.0,0.0
1248,311.75,25.4185,25.4503,164.178,100.984,100.512,-0.000480246,0.0831974,20.8409,480.347,0.0429696,0.0,0.0
1251,312.5,25.2419,24.8053,164.511,100.998,100.432,-0.000405417,0.0832234,20.8407,480.347,0.0516441,0.0,0.0
1254,313.25,24.9542,24.5417,165.095,100.993,100.398,-0.000336329,0.083228,20.8406,480.357,0.0542249,0.0,0.0
1257,314,24.6431,24.7866,163.098,100.989,100.488,-0.000256436,0.083207,20.8403,480.347,0.0456421,0.0,0.0
1260,314.75,25.1532,25.3481,166.831,100.996,100.393,-0.000179925,0.0831917,20.8397,480.367,0.0549785,0.0,0.0
1263,315.5,24.8754,24.5837,171.828,101.006,100.357,-0.000109307,0.0831806,20.8397,480.347,0.0591692,0.0,0.0
1266,316.25,25.0446,25.1488,166.319,101.011,100.253,-4.57638e-05,0.0831918,20.8399,480.337,0.0690901,0.0,0.0
1269,317,24.5726,25.0033,162.453,101.005,100.285,7.51267e-06,0.0832271,20.84,480.327,0.0656891,0.0,0.0
1272,317.75,25.0546,25.0893,163.689,101.013,100.295,3.78207e-05,0.0832644,20.8401,480.337,0.0654719,0.0,0.0
1275,318.5,24.6773,25.191,166.189,101.004,100.227,5.62786e-05,0.0832142,20.8401,480.327,0.0708595,0.0,0.0
1278,319.25,25.1557,24.8339,162.057,101.017,100.399,3.68477e-05,0.083164,20.8402,480.347,0.0563332,0.0,0.0
1281,320,24.4771,24.9425,163.357,101.019,100.257,-2.87483e-06,0.0831288,20.8402,480.337,0.0695145,0.0,0.0
1284,320.75,24.4576,24.6375,160.901,101.007,100.5,-5.15614e-05,0.0831154,20.8403,480.327,0.0462157,0.0,0.0
1287,321.5,25.071,24.6888,165.778,101.026,100.249,-9.92128e-05,0.083092,20.8403,480.317,0.0709312,0.0,0.0
1290,322.25,24.2436,24.7923,164.363,101.019,100.337,-0.000139162,0.0830692,20.8403,480.317,0.062138,0.0,0.0
1293,323,24.2167,24.9815,166.525,101.019,100.213,-0.000172772,0.0830332,20.8403,480.347,0.0735446,0.0,0.0
1296,323.75,24.9541,24.8317,167.442,101.024,100.402,-0.000204946,0.0829799,20.8409,480.357,0.0567366,0.0,0.0
1299,324.5,24.6087,25.0544,165.173,101.025,100.399,-0.000237085,0.0829437,20.8414,480.347,0.0570062,0.0,0.0
1302,325.25,24.4831,24.7673,166.717,101.026,100.308,-0.000260514,0.0829417,20.8417,480.337,0.0655023,0.0,0.0
1305,326,24.4269,25.0192,166.472,101.046,100.442,-0.000277594,0.082921,20.842,480.317,0.0550144,0.0,0.0
1308,326.75,24.2442,24.9682,166.776,101.014,100.218,-0.000282354,0.082913,20.8422,480.327,0.0726297,0.0,0.0
1311,327.5,24.2923,24.5855,170.482,101.027,100.422,-0.000272672,0.0829193,20.8423,480.327,0.0550622,0.0,0.0
1314,328.25,24.8401,24.7403,163.683,101.036,100.307,-0.000237822,0.0829647,20.8424,480.337,0.0663722,0.0,0.0
1317,329,24.6234,24.7156,169.801,101.023,100.292,-0.000212416,0.083015,20.8425,480.347,0.0666404,0.0,0.0
1320,329.75,24.4022,24.9734,167.617,101.033,100.314,-0.000164366,0.0830382,20.8425,480.337,0.0655077,0.0,0.0
1323,330.5,24.5365,24.8403,166.147,101.036,100.455,-0.000133184,0.0830636,20.8425,480.337,0.052921,0.0,0.0
1326,331.25,24.3523,24.5624,162.053,101.04,100.456,-0.000117028,0.0831065,20.8426,480.337,0.0531657,0.0,0.0
1329,332,24.4841,24.404,168.746,101.042,100.345,-0.000119147,0.0830878,20.8421,480.337,0.0634548,0.0,0.0
1332,332.75,24.4012,24.4722,163.92,101.021,100.256,-0.000120691,0.0829888,20.8417,480.327,0.0697479,0.0,0.0
1335,333.5,24.4253,25.0056,165.975,101.033,100.312,-0.000135713,0.0829359,20.8417,480.317,0.0657304,0.0,0.0
1338,334.25,24.1989,24.3576,168.286,101.034,100.302,-0.00015397,0.0829117,20.842,480.337,0.0667327,0.0,0.0
1341,335,24.3221,24.2661,168.2,101.04,100.409,-0.000170395,0.0829184,20.8422,480.347,0.0574649,0.0,0.0
1344,335.75,23.8912,24.4476,163.738,101.03,100.284,-0.000211897,0.0829426,20.8423,480.337,0.0680651,0.0,0.0
1347,336.5,23.7428,24.6409,164.115,101.036,100.32,-0.000251767,0.0829603,20.8424,480.337,0.0652123,0.0,0.0
1350,337.25,24.601,24.4589,161.436,101.03,100.394,-0.000299196,0.0829732,20.8425,480.327,0.0579182,0.0,0.0
1353,338,23.9394,24.0225,164.841,101.033,100.369,-0.000337059,0.0830097,20.8425,480.337,0.0605364,0.0,0.0
1356,338.75,23.7103,24.371,167.517,101.04,100.3,-0.000357714,0.0830479,20.8425,480.337,0.0674429,0.0,0.0
1359,339.5,24.5257,24.7811,167.897,101.031,100.41,,0.0830757,,480.347,0.0565474,0.0,0.0
1362,340.25,23.7787,24.1492,168.1,101.05,100.298,,0.0830824,,480.337,0.0685635,0.0,0.0
1365,341,23.9198,24.2918,165.868,101.04,100.236,,0.0830744,,480.357,0.0733265,0.0,0.0
1368,341.75,24.1688,24.0841,164.202,101.036,100.549,,0.0830564,,480.367,0.0443098,0.0,0.0
1371,342.5,23.9245,24.7799,160.065,101.042,100.437,,,,480.357,0.0551035,0.0,0.0
1374,343.25,24.089,24.4957,166.258,101.035,100.399,,,,480.357,0.0579432,0.0,0.0
1377,344,23.9213,24.1753,168.507,101.026,100.24,,,,480.357,0.0716454,0.0,0.0
1380,344.75,23.7494,24.0851,164.135,101.051,100.344,,,,480.357,0.0643716,0.0,0.0
1383,345.5,24.0577,24.6639,165.114,101.026,100.331,,,,480.367,0.0633309,0.0,0.0
1386,346.25,23.4997,25.0475,169.509,101.024,100.405,,,,480.357,0.0564593,0.0,0.0
1389,347,24.1454,24.5642,164.151,101.033,100.282,,,,480.347,0.0684582,0.0,0.0
1392,347.75,24.1935,23.9727,167.997,101.026,100.292,,,,480.337,0.0669119,0.0,0.0
1395,348.5,23.4977,24.4534,160.743,101.019,100.425,,,,480.337,0.0541564,0.0,0.0
1398,349.25,24.0538,24.5965,167.728,101.019,100.378,,,,480.327,0.0584204,0.0,0.0
1401,350,23.8161,24.1881,165.579,101.033,100.557,,,,480.367,0.0433071,0.0,0.0