File: 02_Data/Overstuffed_Chair/Cone/Overstuffed_Chair_Cone_HF25Scan_210325_R1.csv
Names,Time,Stack TC,Smoke TC,Exh Press,Smoke Comp,Smoke Meas,CO Meter,CO2 Meter,O2 Meter,Sample Mass,Ext Coeff,Start Test,Flame Verif
Chan Gain,,500,500,1,1,1,1,1,1,1,1,1.0,1.0
Offset,,0,0,0.138348,0,0,0,0,0,0,0,0.0,0.0
Gain,,1,1,25.011,13.5067,16.616,1,1,1,1.00091,1.04608,1.0,1.0
Units,sec,C,C,Pa,%,%,%,%,%,g,/m,,
Baseline,,18.5109,19.7983,169.447,101.462,100.659,-0.000357397,0.0824602,20.8437,-0.192884,0.0729391,,
4,0.75,16.3923,18.0708,174.989,101.149,100.314,-0.000389564,0.0954109,20.8241,495.671,0.0760488,0.0,0.0
8,1.75,16.633,18.004,169.828,101.123,100.458,-0.000348295,0.095805,20.824,495.671,0.0605288,0.0,0.0
12,2.75,16.5566,18.0904,164.963,101.122,100.3,-0.000318255,0.0962396,20.8239,495.661,0.0749172,0.0,0.0
16,3.75,17.3252,18.177,172.166,101.107,100.291,-0.000274507,0.0966123,20.8234,495.651,0.0743768,0.0,0.0
20,4.75,17.5437,18.0988,165.812,101.087,100.233,-0.000224641,0.0970545,20.8227,495.581,0.0778342,0.0,0.0
24,5.75,16.9498,18.1912,166.594,101.079,100.2,-0.000145791,0.0975671,20.8215,495.911,0.0801421,0.0,0.0
28,6.75,17.1925,18.6374,169.991,101.054,100.123,-6.7556e-05,0.0980517,20.8197,497.012,0.0849944,0.0,0.0
32,7.75,17.2336,18.1478,170.709,101.05,100.27,-4.48628e-05,0.0984671,20.819,497.103,0.071069,0.0,0.0
36,8.75,17.0088,18.2136,175.045,101.024,100.098,-6.3545e-05,0.0989998,20.8182,496.472,0.0845023,0.0,0.0
40,9.75,16.7922,18.4168,171.598,101.017,100.17,-0.000135316,0.0995689,20.819,496.142,0.077267,0.0,0.0
44,10.75,17.3744,18.4345,162.39,101.007,100.175,-0.00023751,0.0998449,20.8198,495.671,0.0759045,0.0,0.0
48,11.75,17.3115,18.7091,165.063,100.996,100.181,-0.000313533,0.10006,20.8204,495.691,0.0743356,0.0,0.0
52,12.75,17.2162,18.62,173.439,100.981,100.114,-0.000370084,0.100078,20.8207,495.251,0.0791195,0.0,0.0
56,13.75,17.0446,18.7708,168.532,100.972,100.062,-0.000409175,0.0998973,20.8233,494.951,0.0830466,0.0,0.0
60,14.75,17.1984,18.9228,169.137,100.97,100.137,-0.000408372,0.0994569,20.8251,494.57,0.0759327,0.0,0.0
64,15.75,17.3501,18.8191,170.301,100.947,100.061,-0.000356351,0.0991337,20.8262,495.231,0.0808458,0.0,0.0
68,16.75,17.2649,18.6063,168.894,100.927,100.099,-0.00029877,0.0986737,20.827,495.511,0.0755605,0.0,0.0
72,17.75,17.6554,19.1848,167.644,100.905,100.051,-0.00025971,0.0981743,20.8277,495.821,0.0780371,0.0,0.0
76,18.75,17.4068,19.4166,168.896,100.895,100.004,-0.000230956,0.0976217,20.8287,495.431,0.0813424,0.0,0.0
80,19.75,17.549,19.1621,174.251,100.875,100.049,-0.000227521,0.0971486,20.8294,495.461,0.0754857,0.0,0.0
84,20.75,17.3573,19.5404,173.04,100.866,100.136,-0.000227471,0.0965173,20.8298,495.531,0.0665818,0.0,0.0
88,21.75,17.2329,19.0136,167.184,100.858,100.153,-0.000230912,0.0960486,20.8301,495.501,0.0643824,0.0,0.0
92,22.75,17.7011,18.6059,172.525,100.85,100.022,-0.000242789,0.0956897,20.8299,495.481,0.0755801,0.0,0.0
96,23.75,17.2997,19.9339,165.548,100.844,99.9909,-0.000282446,0.0954582,20.8294,495.471,0.0779774,0.0,0.0
100,24.75,17.5799,19.4709,169.593,100.824,100.073,-0.000337252,0.0953589,20.829,495.471,0.0686417,0.0,0.0
104,25.75,17.4611,19.0804,168.767,100.819,99.997,-0.000373689,0.0953574,20.8288,495.521,0.0751309,0.0,0.0
108,26.75,17.8343,18.8924,166.364,100.817,99.9017,-0.000375475,0.0953915,20.8287,495.511,0.0837328,0.0,0.0
112,27.75,18.0254,18.9649,163.268,100.799,100.129,-0.000353199,0.0953151,20.8286,495.501,0.0611547,0.0,0.0
116,28.75,17.7824,18.8406,170.806,100.791,100.116,-0.000309928,0.0952844,20.8285,495.511,0.0616132,0.0,0.0
120,29.75,18.0946,18.7741,167.239,100.774,99.9149,-0.000270517,0.095289,20.8277,495.501,0.0785446,0.0,0.0
124,30.75,17.9501,19.3211,171.237,100.776,99.9544,-0.000242455,0.0954334,20.8265,495.481,0.0751374,0.0,0.0
128,31.75,17.5279,19.214,166.188,100.761,99.9559,-0.000228453,0.0956875,20.8249,495.481,0.0736097,0.0,0.0
132,32.75,18.0592,19.1262,170.343,100.754,99.7181,-0.000231439,0.0960765,20.8235,495.481,0.0948679,0.0,0.0
136,33.75,17.9769,19.2659,169.577,100.749,99.6446,-0.000246912,0.096595,20.8217,495.471,0.101147,0.0,0.0
140,34.75,17.6893,19.8505,174.771,100.743,99.4904,-0.000262588,0.0970679,20.8197,495.441,0.114828,0.0,0.0
144,35.75,17.8369,19.404,172.395,100.729,99.211,-0.000280342,0.0977227,20.8184,495.441,0.13932,0.0,0.0
148,36.75,17.8403,19.4666,170.588,100.719,98.6193,-0.000292337,0.0983862,20.8176,495.411,0.193277,0.0,0.0
152,37.75,17.9607,19.3013,167.606,100.721,98.1411,-0.000293516,0.0990404,20.817,495.401,0.238065,0.0,0.0
156,38.75,17.7099,19.5734,165.481,100.716,98.1573,-0.000281783,0.09957,20.8167,495.371,0.236098,0.0,0.0
160,39.75,17.7671,19.2219,172.733,100.702,97.5225,-0.00023761,0.100011,20.8164,495.351,0.294438,0.0,0.0
164,40.75,17.9272,19.5657,166.866,100.701,97.6731,-0.000198817,0.100244,20.8169,495.311,0.280128,0.0,0.0
168,41.75,18.3121,19.6418,171.424,100.688,97.5929,-0.000129281,0.100375,20.8178,495.291,0.286532,0.0,0.0
172,42.75,17.8591,19.7573,165.269,100.696,97.2365,-8.19258e-05,0.100462,20.8189,495.291,0.320787,0.0,0.0
176,43.75,18.0721,19.8014,168.249,100.684,96.7705,-6.08116e-05,0.100477,20.8202,495.271,0.363817,0.0,0.0
180,44.75,17.9157,19.4874,164.738,100.683,97.0722,-7.0606e-05,0.100427,20.8211,495.271,0.33514,0.0,0.0
184,45.75,18.1717,20.0118,168.661,100.682,97.349,-9.47981e-05,0.100329,20.8218,495.221,0.30893,0.0,0.0
188,46.75,18.1632,20.2341,169.251,100.676,97.1127,-0.000115159,0.100153,20.8222,495.231,0.330667,0.0,0.0
192,47.75,17.7988,19.8065,167.513,100.673,96.4556,-0.000116108,0.100021,20.8224,495.221,0.392711,0.0,0.0
196,48.75,18.0536,20.2961,170.264,100.665,96.8932,-0.00010588,0.0999335,20.8226,495.171,0.35046,0.0,0.0
200,49.75,18.6859,20.1533,168.112,100.668,96.7522,-5.06743e-05,0.0999506,20.8221,495.161,0.364083,0.0,0.0
204,50.75,17.46,20.4232,166.501,100.661,96.2583,2.30392e-05,0.10004,20.8216,495.151,0.410368,0.0,0.0
208,51.75,17.8285,19.4427,169.102,100.668,96.3374,9.56741e-05,0.100119,20.8213,495.111,0.403469,0.0,0.0
212,52.75,18.37,20.5209,165.498,100.662,96.4956,0.000167612,0.100226,20.8211,495.071,0.387849,0.0,0.0
216,53.75,17.6136,20.2001,172.042,100.664,96.3734,0.000229449,0.100327,20.8209,495.051,0.399703,0.0,0.0
220,54.75,18.1204,20.4342,166.728,100.65,96.7776,0.000291643,0.100368,20.8208,495.051,0.359988,0.0,0.0
224,55.75,18.2062,20.2496,168.244,100.641,95.4404,0.000372105,0.100384,20.8208,495.051,0.486869,0.0,0.0
228,56.75,18.4978,20.6166,166.26,100.645,96.5925,0.000505629,0.10032,20.8198,494.971,0.377103,0.0,0.0
232,57.75,18.248,20.6783,167.261,100.643,95.0809,0.000707604,0.100551,20.8132,495.021,0.521688,0.0,0.0
236,58.75,18.6876,20.4085,162.772,100.652,96.5585,0.000899217,0.101678,20.8027,494.83,0.38097,0.0,0.0
240,59.75,18.9311,21.6058,167.14,100.671,99.3677,0.00116898,0.104971,20.7798,494.66,0.119543,0.0,1.0
244,60.75,19.4833,22.2234,164.263,100.646,98.5681,0.0014442,0.110758,20.7552,494.62,0.191394,0.0,1.0
248,61.75,19.9553,23.0653,162.87,100.638,98.5797,0.00167402,0.118131,20.7283,494.55,0.189595,0.0,1.0
252,62.75,20.3631,23.2934,161.728,100.637,98.2217,0.00184326,0.127211,20.706,494.44,0.222941,0.0,1.0
256,63.75,20.1735,23.9808,157.282,100.641,98.6507,0.00196428,0.14062,20.6801,494.44,0.183252,0.0,1.0
260,64.75,20.9637,24.5986,158.306,100.635,98.0711,0.00211283,0.154156,20.6534,494.44,0.236797,0.0,1.0
264,65.75,21.1151,25.3423,161,100.629,98.8049,0.00227952,0.168751,20.6291,494.25,0.167835,0.0,1.0
268,66.75,22.018,26.3382,160.477,100.635,97.1944,0.00244701,0.182949,20.6036,494.23,0.319237,0.0,0.0
272,67.75,22.4014,27.147,155.717,100.63,97.1594,0.00258161,0.198612,20.5838,494.1,0.322051,0.0,0.0
276,68.75,22.9986,27.9324,160.195,100.634,97.814,0.00270726,0.212357,20.5681,494.09,0.260807,0.0,0.0
280,69.75,23.4355,28.8572,159.76,100.628,97.8759,0.00282912,0.224691,20.5567,493.95,0.254442,0.0,0.0
284,70.75,23.8176,28.6963,162.017,100.639,96.7015,0.00300039,0.237963,20.5404,493.86,0.366263,0.0,0.0
288,71.75,24.171,29.7951,159.612,100.657,96.3268,0.00320983,0.250925,20.5194,493.83,0.403469,0.0,0.0
292,72.75,24.771,31.2786,160.21,100.621,95.484,0.00343489,0.264566,20.4961,493.749,0.480873,0.0,0.0
296,73.75,25.6632,32.1425,158.281,100.625,94.9916,0.00364477,0.278038,20.4752,493.609,0.528688,0.0,0.0
300,74.75,26.468,33.7713,162.079,100.599,95.9657,0.00392454,0.293464,20.4569,493.569,0.432664,0.0,0.0
304,75.75,26.9738,32.0532,154.309,100.609,94.3811,0.00424119,0.308638,20.4397,493.469,0.586389,0.0,0.0
308,76.75,27.1763,34.4915,155.806,100.609,93.3401,0.00462091,0.321518,20.4219,493.359,0.688127,0.0,0.0
312,77.75,28.0341,35.2311,158.33,100.609,95.2964,0.00506507,0.334459,20.4093,493.229,0.497831,0.0,0.0
316,78.75,28.1956,35.7536,152.607,100.614,93.2995,0.00553093,0.347658,20.4006,493.129,0.692604,0.0,0.0
320,79.75,28.5378,36.4567,154.769,100.607,92.1332,0.00610349,0.359689,20.3821,493.009,0.807394,0.0,0.0
324,80.75,28.8373,37.4741,149.383,100.603,91.8614,0.00666092,0.372977,20.358,492.869,0.834091,0.0,0.0
328,81.75,29.7741,38.1303,148.68,100.605,91.1495,0.0071768,0.386987,20.3388,492.668,0.905672,0.0,0.0
332,82.75,30.2915,39.4907,152.326,100.618,91.6079,0.00751582,0.401478,20.3233,492.668,0.860842,0.0,0.0
336,83.75,31.3105,39.7995,145.897,100.612,93.2037,0.00760638,0.413511,20.3131,492.488,0.701848,0.0,0.0
340,84.75,31.7256,41.0319,155.592,100.615,93.5257,0.00753962,0.42481,20.3064,492.418,0.670464,0.0,0.0
344,85.75,31.6552,41.8745,154.477,100.616,94.731,0.00740358,0.434113,20.302,492.368,0.553037,0.0,0.0
348,86.75,32.2195,42.0083,150.972,100.614,95.3446,0.00730103,0.441242,20.2992,492.258,0.493643,0.0,0.0
352,87.75,32.6546,42.9406,148.582,100.608,92.045,0.00732929,0.448069,20.2934,492.028,0.816298,0.0,0.0
356,88.75,33.6442,43.6985,143.227,100.618,90.0192,0.00738218,0.455166,20.2865,491.958,1.02134,0.0,0.0
360,89.75,34.4827,45.2835,147.235,100.624,93.3761,0.00741071,0.462098,20.282,491.808,0.685979,0.0,0.0
364,90.75,35.1515,46.1404,156.962,100.619,96.7923,0.00736287,0.47048,20.279,491.788,0.355775,0.0,0.0
368,91.75,35.7417,45.6323,148.577,100.619,95.2888,0.00714873,0.476838,20.2771,491.708,0.499465,0.0,0.0
372,92.75,35.7155,46.3596,153.34,100.617,92.8031,0.00685099,0.480407,20.2845,491.547,0.741785,0.0,0.0
376,93.75,35.7108,46.4973,153.665,100.617,95.2147,0.00655102,0.481487,20.2918,491.417,0.506409,0.0,0.0
380,94.75,36.3414,46.6021,148.215,100.622,92.4243,0.0063184,0.481357,20.2966,491.377,0.779805,0.0,0.0
384,95.75,36.5143,46.735,160.303,100.623,92.2417,0.00614888,0.480903,20.2997,491.197,0.798021,0.0,0.0
388,96.75,36.3631,47.5556,154.704,100.62,93.0546,0.00601202,0.480799,20.301,491.137,0.717288,0.0,0.0
392,97.75,36.7007,48.0129,146.699,100.615,93.3264,0.00588642,0.481068,20.3018,491.077,0.690038,0.0,0.0
396,98.75,36.8851,48.32,155.567,100.615,94.4237,0.0057539,0.481181,20.3023,490.977,0.582813,0.0,0.0
400,99.75,37.5014,48.9188,149.824,100.617,93.2574,0.00564613,0.480532,20.3059,490.877,0.696971,0.0,0.0
404,100.75,37.3131,48.1564,151.486,100.603,94.3532,0.00558346,0.47914,20.3082,490.817,0.588536,0.0,0.0
408,101.75,37.4895,49.0342,155.848,100.62,92.6494,0.00560584,0.477697,20.3097,490.707,0.757328,0.0,0.0
412,102.75,37.8562,48.9729,157.672,100.624,91.1657,0.00567573,0.477029,20.3084,490.597,0.905767,0.0,0.0
416,103.75,38.0979,49.3886,151.475,100.622,90.828,0.005809,0.477638,20.3019,490.446,0.939634,0.0,0.0
420,104.75,38.5957,49.8835,151.374,100.623,90.6328,0.00593104,0.478646,20.2937,490.416,0.959491,0.0,0.0
424,105.75,38.6281,50.2895,149.247,100.627,88.7936,0.00610083,0.481241,20.2875,490.186,1.14799,0.0,0.0
428,106.75,38.9191,50.5335,157.315,100.639,92.4192,0.00624777,0.484474,20.2829,490.156,0.781885,0.0,0.0
432,107.75,39.5094,51.2028,142.151,100.64,93.3685,0.0063989,0.487711,20.2767,490.096,0.688192,0.0,0.0
436,108.75,39.2838,51.2052,150.184,100.651,90.0187,0.00657337,0.490328,20.2714,489.916,1.02439,0.0,0.0
440,109.75,39.648,51.6961,148.454,100.632,89.2647,0.00674338,0.492767,20.2676,489.836,1.09989,0.0,0.0
444,110.75,40.0089,51.7304,146.953,100.658,88.9356,0.00689992,0.495623,20.2651,489.696,1.13611,0.0,0.0
448,111.75,40.2072,52.3492,144.278,100.653,88.6131,0.00701635,0.498584,20.2641,489.586,1.16899,0.0,0.0
452,112.75,40.7867,52.5737,153.434,100.66,90.7915,0.00711076,0.501463,20.2636,489.516,0.946856,0.0,0.0
456,113.75,40.8059,52.4555,162.641,100.657,91.9284,0.00721542,0.50344,20.2615,489.396,0.832367,0.0,0.0
460,114.75,40.807,52.5879,156.428,100.67,88.7414,0.00732845,0.50481,20.2568,489.245,1.15734,0.0,0.0
464,115.75,41.1115,53.0684,152.239,100.667,89.2774,0.00744493,0.507149,20.2537,489.125,1.10182,0.0,0.0
468,116.75,41.4541,53.5688,145.932,100.676,88.288,0.00755709,0.509602,20.2484,489.005,1.20482,0.0,0.0
472,117.75,41.9571,53.7681,148.497,100.676,90.5613,0.00766864,0.51306,20.2423,488.925,0.971543,0.0,0.0
476,118.75,42.2504,54.2802,147.629,100.674,89.1977,0.00778821,0.516915,20.2357,488.835,1.11064,0.0,0.0
480,119.75,42.5361,54.7052,146.097,100.687,87.999,0.00792345,0.521046,20.23,488.695,1.23596,0.0,0.0
484,120.75,42.6969,55.0002,153.865,100.685,88.3458,0.00807739,0.525174,20.2263,488.565,1.19968,0.0,0.0
488,121.75,43.0179,55.5515,150.67,100.681,89.823,0.00825237,0.529023,20.2243,488.405,1.04718,0.0,0.0
492,122.75,43.1062,55.6036,155.312,100.69,88.8468,0.00845714,0.532627,20.2233,488.294,1.14828,0.0,0.0
496,123.75,43.3883,55.7699,156.571,100.688,89.6886,0.00865131,0.535391,20.2227,488.174,1.06149,0.0,0.0
500,124.75,43.4842,55.7706,142.362,100.688,87.4676,0.00905611,0.537658,20.2222,488.044,1.29162,0.0,0.0
504,125.75,43.6278,56.1253,148.628,100.687,86.1568,0.00953045,0.539684,20.2195,487.984,1.43006,0.0,0.0
508,126.75,43.68,56.7428,152.288,100.688,85.5508,0.0099645,0.543572,20.2099,487.794,1.49494,0.0,0.0
512,127.75,44.4106,57.2685,148.029,100.698,82.5773,0.0103319,0.54904,20.1982,487.624,1.82045,0.0,0.0
516,128.75,44.8662,58.1664,147.622,100.701,85.1244,0.010522,0.555303,20.1922,487.474,1.54196,0.0,0.0
520,129.75,45.4481,58.2636,142.494,100.697,83.6995,0.0106435,0.561531,20.1871,487.354,1.69648,0.0,0.0
524,130.75,45.2875,58.2117,149.241,100.698,86.6684,0.0106322,0.566703,20.1841,487.264,1.37678,0.0,0.0
528,131.75,45.679,58.3601,142.842,100.709,87.1826,0.01048,0.56951,20.1869,487.133,1.32352,0.0,0.0
532,132.75,45.0884,58.3249,152.021,100.7,87.0285,0.0103325,0.571835,20.1887,487.013,1.33889,0.0,0.0
536,133.75,45.5139,58.3847,147.945,100.709,85.811,0.0102171,0.573175,20.1899,486.903,1.469,0.0,0.0
540,134.75,45.6545,58.4229,148.109,100.708,84.4251,0.0101508,0.574377,20.1907,486.753,1.61832,0.0,0.0
544,135.75,45.8992,59.0662,143.374,100.72,83.5469,0.0101297,0.576159,20.1871,486.613,1.71533,0.0,0.0
548,136.75,46.4666,59.3581,144.017,100.697,82.8948,0.0101142,0.577888,20.1848,486.463,1.78513,0.0,0.0
552,137.75,46.6656,59.8335,139.788,100.717,85.3323,0.0100298,0.580974,20.1832,486.323,1.52108,0.0,0.0
556,138.75,46.4513,60.0358,146.122,100.717,84.3648,0.00986708,0.583577,20.183,486.183,1.62571,0.0,0.0
560,139.75,46.8397,59.8169,148.994,100.715,88.0979,0.00960193,0.584433,20.1877,486.082,1.22817,0.0,0.0
564,140.75,46.9309,59.7761,148.777,100.723,88.0771,0.00937394,0.583555,20.1976,485.992,1.23109,0.0,0.0
568,141.75,46.5858,59.5822,148.423,100.74,87.9209,0.00931036,0.58118,20.2041,485.912,1.24895,0.0,0.0
572,142.75,46.3812,59.4749,147.522,100.714,86.3135,0.00947139,0.577769,20.2046,485.722,1.4159,0.0,0.0
576,143.75,46.1753,59.5194,149.512,100.743,85.992,0.0097754,0.575955,20.1959,485.642,1.45277,0.0,0.0
580,144.75,46.9654,59.8516,137.789,100.729,78.7489,0.0101908,0.57714,20.1728,485.412,2.25891,0.0,0.0
584,145.75,47.8436,61.1763,150.992,100.727,85.7963,0.0106269,0.581631,20.1576,485.302,1.47222,0.0,0.0
588,146.75,48.2705,61.0475,145.988,100.723,82.7492,0.0109626,0.588325,20.1476,485.202,1.8037,0.0,0.0
592,147.75,48.3408,61.7713,143.238,100.718,83.1468,0.011063,0.595003,20.1415,485.032,1.75919,0.0,0.0
596,148.75,48.726,62.3478,140.605,100.732,84.8942,0.0109293,0.60041,20.1481,484.911,1.56962,0.0,0.0
600,149.75,48.4662,61.6988,147.989,100.72,84.2268,0.0106403,0.603493,20.1654,484.781,1.64095,0.0,0.0
604,150.75,48.3616,61.2613,151.354,100.735,89.1136,0.0102181,0.602395,20.1912,484.731,1.12479,0.0,0.0
608,151.75,48.246,60.7879,149.208,100.712,88.033,0.0098552,0.598054,20.2161,484.611,1.23463,0.0,0.0
612,152.75,47.8061,60.4539,150.241,100.716,90.5729,0.00950868,0.59107,20.2324,484.491,0.974079,0.0,0.0
616,153.75,47.8422,60.206,148.493,100.721,86.0985,0.00927671,0.583188,20.2431,484.431,1.43943,0.0,0.0
620,154.75,47.7863,60.3461,150.659,100.709,87.034,0.00911725,0.576796,20.2496,484.311,1.33917,0.0,0.0
624,155.75,48.1813,59.7648,156.602,100.711,86.5929,0.00897799,0.571206,20.2536,484.151,1.38595,0.0,0.0
628,156.75,47.9035,59.6772,153.726,100.713,87.7054,0.00881978,0.566282,20.2562,484.091,1.26899,0.0,0.0
632,157.75,47.3723,59.9586,154.1,100.71,88.318,0.00870036,0.562095,20.2579,483.86,1.20483,0.0,0.0
636,158.75,47.6697,59.486,150.454,100.705,88.5259,0.00846342,0.55857,20.2621,483.77,1.18276,0.0,0.0
640,159.75,47.3306,59.2479,152.566,100.709,88.1045,0.0082484,0.554501,20.2672,483.68,1.227,0.0,0.0
644,160.75,47.0344,58.7713,149.888,100.686,90.6977,0.00802489,0.549991,20.2764,483.62,0.958634,0.0,0.0
648,161.75,47.3514,58.7153,151.005,100.684,88.1456,0.00783032,0.544645,20.2888,483.56,1.22043,0.0,0.0
652,162.75,47.0014,57.7789,153.823,100.678,88.6237,0.00766478,0.538952,20.3016,483.36,1.17018,0.0,0.0
656,163.75,47.0127,57.3838,155.088,100.674,90.3062,0.00751947,0.532576,20.3109,483.31,0.997272,0.0,0.0
660,164.75,46.6487,57.8172,150.358,100.685,88.8271,0.00735121,0.52677,20.3175,483.2,1.14979,0.0,0.0
664,165.75,46.5414,57.079,151.31,100.672,88.6962,0.00717763,0.521635,20.325,483.08,1.16211,0.0,0.0
668,166.75,46.4463,56.9417,152.826,100.664,89.9721,0.00698645,0.515975,20.3317,483.04,1.03039,0.0,0.0
672,167.75,46.3683,56.6625,155.023,100.665,87.7384,0.00681688,0.510641,20.3379,482.97,1.26115,0.0,0.0
676,168.75,46.2546,56.3991,150.612,100.66,90.5592,0.00671445,0.505539,20.3424,482.83,0.970321,0.0,0.0
680,169.75,45.6648,56.4914,146.558,100.652,89.3286,0.00669601,0.500812,20.345,482.759,1.09516,0.0,0.0
684,170.75,45.7809,56.3028,153.923,100.653,90.2018,0.00675636,0.496481,20.3453,482.609,1.00601,0.0,0.0
688,171.75,46.3978,55.6074,144.064,100.652,85.1092,0.0068572,0.493234,20.3437,482.579,1.53917,0.0,0.0
692,172.75,46.051,55.6385,150.631,100.642,87.4154,0.00694484,0.490812,20.3427,482.449,1.29289,0.0,0.0
696,173.75,46.5259,55.1807,154.774,100.641,90.3661,0.00693944,0.488843,20.3421,482.319,0.98819,0.0,0.0
700,174.75,46.3991,55.199,147.081,100.634,88.0117,0.00685495,0.487169,20.3416,482.219,1.22975,0.0,0.0
704,175.75,46.296,55.5917,154.274,100.646,88.0796,0.00658999,0.485772,20.3426,482.119,1.22376,0.0,0.0
708,176.75,46.1617,55.221,151.868,100.634,93.726,0.00627077,0.483725,20.3549,482.069,0.652525,0.0,0.0
712,177.75,45.7317,54.9011,154.052,100.655,93.4319,0.00595771,0.47995,20.3686,482.039,0.683281,0.0,0.0
716,178.75,45.7003,54.2358,150.945,100.646,93.0171,0.00566558,0.475443,20.3815,481.929,0.723282,0.0,0.0
720,179.75,45.4111,54.3892,149.616,100.645,87.9184,0.00543573,0.470094,20.3913,481.839,1.24054,0.0,0.0
724,180.75,44.9555,54.2255,154.501,100.638,94.7482,0.00523042,0.464478,20.3983,481.829,0.553358,0.0,0.0
728,181.75,44.6969,53.7975,151.555,100.637,95.1219,0.0050352,0.459054,20.4077,481.698,0.517198,0.0,0.0
732,182.75,44.9258,53.3802,155.109,100.641,94.2133,0.00484639,0.452554,20.4202,481.698,0.605579,0.0,0.0
736,183.75,44.4246,52.2871,154.046,100.639,93.4471,0.00467146,0.446315,20.4328,481.568,0.680396,0.0,0.0
740,184.75,43.9157,52.7481,156.433,100.628,92.9674,0.00449647,0.438559,20.4459,481.518,0.726606,0.0,0.0
744,185.75,44.2141,52.593,158.778,100.637,96.1635,0.00430738,0.430764,20.4588,481.518,0.417232,0.0,0.0
748,186.75,44.5797,51.4946,155.014,100.634,95.9252,0.00413398,0.422758,20.4718,481.438,0.439777,0.0,0.0
752,187.75,43.7058,51.7554,159.996,100.63,96.3227,0.00387425,0.415268,20.4841,481.388,0.401413,0.0,0.0
756,188.75,43.6153,51.1276,160.368,100.62,97.5458,0.00365899,0.406979,20.4975,481.378,0.284691,0.0,0.0
760,189.75,42.8902,50.51,156.567,100.615,97.4139,0.00350362,0.397969,20.5088,481.298,0.29665,0.0,0.0
764,190.75,42.8247,49.9437,154.061,100.622,96.1975,0.00338553,0.38931,20.5182,481.308,0.4126,0.0,0.0
768,191.75,42.6171,49.8407,154.746,100.612,95.5844,0.00329853,0.381019,20.5251,481.178,0.470401,0.0,0.0
772,192.75,42.7122,49.1869,155.126,100.623,98.849,0.00323644,0.374637,20.531,481.178,0.163212,0.0,0.0
776,193.75,42.0701,48.619,159.066,100.609,98.8469,0.00320091,0.3676,20.5382,481.138,0.162123,0.0,0.0
780,194.75,41.9335,48.07,152.937,100.614,97.0265,0.00319032,0.360869,20.543,481.048,0.333141,0.0,0.0
784,195.75,41.6429,48.0029,157.029,100.624,98.7334,0.00318561,0.354695,20.5461,481.048,0.174026,0.0,0.0
788,196.75,41.0966,48.0295,158.626,100.613,97.5732,0.00316459,0.349353,20.5481,480.948,0.281515,0.0,0.0
792,197.75,41.3553,47.2554,153.153,100.621,98.6015,0.00314727,0.344899,20.5482,480.948,0.186062,0.0,0.0
796,198.75,40.6953,47.2541,155.805,100.617,98.1127,0.00313496,0.341142,20.5471,480.908,0.23129,0.0,0.0
800,199.75,40.8836,47.1215,151.168,100.624,97.3014,0.00314032,0.338205,20.5464,480.888,0.308088,0.0,0.0
804,200.75,41.1317,46.8587,156.432,100.618,96.4089,0.00315622,0.335612,20.546,480.848,0.392115,0.0,0.0
808,201.75,40.1365,46.57,157.584,100.603,97.0656,0.00320338,0.333161,20.5457,480.798,0.328472,0.0,0.0
812,202.75,40.9016,46.6771,156.708,100.602,97.5772,0.00325022,0.330906,20.5503,480.748,0.280119,0.0,0.0
816,203.75,40.8978,45.9173,161.687,100.607,98.312,0.00328544,0.327098,20.5551,480.738,0.211769,0.0,0.0
820,204.75,39.9494,45.578,157.193,100.602,98.1959,0.00329492,0.322175,20.5652,480.708,0.222126,0.0,0.0
824,205.75,39.6474,45.6059,154.029,100.604,98.0473,0.00326905,0.316617,20.5788,480.658,0.236245,0.0,0.0
828,206.75,39.4839,44.2657,160.244,100.62,99.5006,0.00319419,0.311614,20.5906,480.648,0.102624,0.0,0.0
832,207.75,39.4262,44.0181,162.023,100.612,99.6137,0.003112,0.305013,20.6,480.597,0.091523,0.0,0.0
836,208.75,39.5967,43.4581,157.937,100.603,98.9626,0.00296413,0.298629,20.6094,480.597,0.150871,0.0,0.0
840,209.75,39.2295,43.5904,159.958,100.605,99.8677,0.00282912,0.292202,20.6188,480.617,0.0674755,0.0,0.0
844,210.75,39.1768,42.6773,159.396,100.603,99.6284,0.00275111,0.286013,20.6288,480.617,0.0893047,0.0,0.0
848,211.75,38.6266,42.5288,161.565,100.604,99.4331,0.00272742,0.279355,20.6399,480.658,0.107416,0.0,0.0
852,212.75,38.6046,41.8629,162.223,100.594,99.5797,0.00271728,0.271697,20.6534,480.658,0.0929622,0.0,0.0
856,213.75,38.1431,41.4161,161.799,100.606,99.9676,0.0026874,0.264596,20.666,480.617,0.0583758,0.0,0.0
860,214.75,37.7343,41.751,160.871,100.6,100.133,0.00262902,0.256246,20.6766,480.608,0.0427268,0.0,0.0
864,215.75,36.681,41.0559,156.902,100.607,99.6598,0.00254004,0.247983,20.6867,480.638,0.0867857,0.0,0.0
868,216.75,37.1621,39.9209,160.285,100.596,99.7201,0.00245266,0.240111,20.6958,480.608,0.0802158,0.0,0.0
872,217.75,36.5312,39.7433,163.286,100.593,100.133,0.0023931,0.232668,20.7043,480.587,0.0420866,0.0,0.0
876,218.75,36.5868,39.3261,157.447,100.596,100.114,0.00235848,0.225556,20.7123,480.668,0.0440692,0.0,0.0
880,219.75,35.6837,38.9311,162.615,100.608,100.164,0.00232907,0.218362,20.7194,480.617,0.0406067,0.0,0.0
884,220.75,35.6473,38.5442,163.723,100.614,100.449,0.00229572,0.211326,20.726,480.628,0.0150995,0.0,0.0
888,221.75,35.6466,37.8808,156.159,100.601,100.438,0.00227006,0.205029,20.731,480.628,0.0148702,0.0,0.0
892,222.75,35.0515,38.0902,162.42,100.594,100.131,0.00215953,0.198855,20.7362,480.648,0.0422641,0.0,0.0
896,223.75,35.1036,37.3463,160.183,100.6,100.242,0.00202701,0.193424,20.7409,480.648,0.0326946,0.0,0.0
900,224.75,34.6295,36.936,160.071,100.601,100.111,0.00185114,0.187968,20.7456,480.628,0.0448094,0.0,0.0
904,225.75,34.2704,36.5567,166.746,100.595,100.295,0.00166691,0.182798,20.7511,480.628,0.0273794,0.0,0.0
908,226.75,34.1934,36.4828,164.244,100.592,100.3,0.00151053,0.177665,20.7559,480.658,0.0266901,0.0,0.0
912,227.75,33.9386,35.9131,165.503,100.597,99.9798,0.00140794,0.172777,20.7602,480.638,0.0564691,0.0,0.0
916,228.75,33.2788,35.6988,160.143,100.588,100.181,0.00130957,0.168073,20.7636,480.638,0.0371842,0.0,0.0
920,229.75,33.9811,34.7494,163.582,100.589,99.9813,0.00124014,0.164313,20.7665,480.597,0.0555776,0.0,0.0
924,230.75,33.2669,34.2634,166.03,100.583,100.309,0.00119061,0.160021,20.7698,480.597,0.0250735,0.0,0.0
928,231.75,33.2812,34.2627,163.258,100.585,100.039,0.00116199,0.156168,20.7725,480.567,0.0499819,0.0,0.0
932,232.75,32.6413,33.7554,163.729,100.585,100.118,0.00115715,0.152309,20.7774,480.597,0.0426833,0.0,0.0
936,233.75,32.6932,33.287,158.647,100.594,100.243,0.00116628,0.148336,20.7822,480.608,0.0320002,0.0,0.0
940,234.75,31.9064,33.9535,167.957,100.593,100.025,0.00117155,0.144542,20.7878,480.597,0.0519432,0.0,0.0
944,235.75,31.8542,33.0726,162.683,100.605,100.001,0.00116557,0.140962,20.7922,480.597,0.0552764,0.0,0.0
948,236.75,31.798,32.4959,162.459,100.59,100.233,0.00113718,0.137735,20.7956,480.608,0.032627,0.0,0.0
952,237.75,30.84,31.9317,166.282,100.588,100.072,0.00109451,0.134315,20.799,480.608,0.0472224,0.0,0.0
956,238.75,30.8318,32.1264,164.066,100.588,99.8895,0.0010557,0.131183,20.802,480.617,0.0639306,0.0,0.0
960,239.75,30.5729,31.8873,163.929,100.581,100.151,0.00102528,0.128277,20.8039,480.608,0.0392856,0.0,0.0
964,240.75,30.3659,31.8937,169.228,100.583,100.128,0.0009992,0.125608,20.8052,480.617,0.0415269,0.0,0.0
968,241.75,30.4424,30.8872,163.945,100.587,100.347,0.000958781,0.123182,20.8061,480.608,0.0218875,0.0,0.0
972,242.75,30.3817,31.0701,166.23,100.584,100.172,0.000917396,0.120942,20.8066,480.608,0.0376821,0.0,0.0
976,243.75,30.3122,30.8443,164.025,100.581,99.8667,0.00082607,0.119023,20.807,480.608,0.0654252,0.0,0.0
980,244.75,30.437,30.1423,163.267,100.598,100.208,0.000732983,0.117465,20.8072,480.628,0.0356251,0.0,0.0
984,245.75,29.9362,30.3662,160.026,100.58,99.9757,0.000643177,0.115992,20.8074,480.638,0.0553003,0.0,0.0
988,246.75,30.2159,30.231,169.41,100.582,100.223,0.000577625,0.114615,20.8083,480.617,0.0328505,0.0,0.0
992,247.75,29.5058,29.8036,161.276,100.581,100.202,0.000543456,0.113312,20.8101,480.628,0.0345953,0.0,0.0
996,248.75,29.9118,29.5749,162.18,100.583,100.078,0.000527667,0.112105,20.8117,480.608,0.0462506,0.0,0.0
1000,249.75,29.4247,29.6955,167.988,100.581,100.432,0.000509598,0.110841,20.8135,480.617,0.0135825,0.0,0.0
1004,250.75,29.3499,29.1512,161.318,100.587,99.8195,0.000478939,0.109619,20.8146,480.608,0.0702484,0.0,0.0
1008,251.75,28.7141,29.164,164.431,100.592,100.16,0.000384022,0.108432,20.8162,480.597,0.0395491,0.0,0.0
1012,252.75,28.4089,28.5263,165.146,100.578,100.232,0.000272392,0.107409,20.8175,480.608,0.0316765,0.0,0.0
1016,253.75,28.042,28.7331,161.936,100.595,100.057,0.000162076,0.106292,20.8183,480.617,0.0492105,0.0,0.0
1020,254.75,28.2728,28.5032,163.99,100.58,100.124,8.49355e-05,0.105522,20.8186,480.628,0.0417196,0.0,0.0
1024,255.75,27.9293,28.1115,168.586,100.597,100.177,4.8998e-05,0.10493,20.8187,480.638,0.0384675,0.0,0.0
1028,256.75,28.0616,28.1008,167.436,100.591,100.031,3.33107e-05,0.10444,20.8188,480.628,0.051197,0.0,0.0
1032,257.75,27.271,28.0619,164.958,100.597,100.142,1.4202e-05,0.103797,20.8189,480.608,0.041626,0.0,0.0
1036,258.75,27.5232,27.939,166.661,100.594,100.061,-2.78635e-05,0.103177,20.8189,480.597,0.0487546,0.0,0.0
1040,259.75,28.095,27.5963,166.665,100.598,100.155,-6.78141e-05,0.102594,20.8194,480.608,0.0405402,0.0,0.0
1044,260.75,27.7062,27.6459,162.894,100.583,99.9914,-7.94124e-05,0.102057,20.8201,480.617,0.0541586,0.0,0.0
1048,261.75,27.6714,27.465,169.012,100.597,100.141,-6.47632e-05,0.101341,20.8209,480.617,0.0416902,0.0,0.0
1052,262.75,27.2509,26.9524,167.345,100.583,100.095,-4.36641e-05,0.100625,20.8219,480.617,0.0445482,0.0,0.0
1056,263.75,27.5358,27.0671,165.466,100.594,100.028,-2.74849e-05,0.0997352,20.8225,480.628,0.0517017,0.0,0.0
1060,264.75,27.45,27.3054,167.768,100.588,100.066,-8.0577e-06,0.0988549,20.8241,480.628,0.047772,0.0,0.0
1064,265.75,27.3768,27.3331,163.565,100.594,100.137,-8.53785e-06,0.0979563,20.8264,480.608,0.0417436,0.0,0.0
1068,266.75,27.1234,27.259,161.335,100.59,100.011,-4.63245e-05,0.0969983,20.8281,480.608,0.0530298,0.0,0.0
1072,267.75,27.1385,27.0556,169.665,100.596,100.155,-0.0001152,0.0960798,20.8293,480.597,0.0403061,0.0,0.0
1076,268.75,27.1351,27.0808,167.399,100.597,100.084,-0.000193453,0.0952,20.8306,480.608,0.0468502,0.0,0.0
1080,269.75,26.2127,26.8205,166.223,100.59,100.116,-0.000260224,0.0943736,20.8317,480.628,0.0433191,0.0,0.0
1084,270.75,26.3656,26.726,165.333,100.594,100.248,-0.000302751,0.0935602,20.8324,480.638,0.0316198,0.0,0.0
1088,271.75,26.684,26.1048,165.962,100.611,100.338,-0.000321117,0.0928265,20.8329,480.608,0.0249121,0.0,0.0
1092,272.75,25.9678,25.9618,164.64,100.601,100.167,-0.000315098,0.0920884,20.8332,480.608,0.0396515,0.0,0.0
1096,273.75,26.4741,26.4922,164.532,100.604,100.162,-0.000309176,0.091447,20.8334,480.617,0.0404074,0.0,0.0
1100,274.75,26.4317,26.578,164.699,100.604,100.099,-0.000343498,0.090774,20.8338,480.617,0.0461319,0.0,0.0
1104,275.75,26.108,26.2876,162.946,100.611,100.191,-0.000396995,0.0900513,20.8342,480.608,0.0383608,0.0,0.0
1108,276.75,25.7765,25.9409,166.846,100.598,100.012,-0.00046713,0.0895198,20.8343,480.608,0.0536507,0.0,0.0
1112,277.75,26.6871,26.1697,164.896,100.614,100.029,-0.000515051,0.088899,20.8344,480.628,0.0535344,0.0,0.0
1116,278.75,25.8945,25.7934,167.287,100.615,100.228,-0.000592444,0.0883688,20.8344,480.628,0.035356,0.0,0.0
1120,279.75,25.7997,25.5748,164.992,100.614,100.103,-0.00062559,0.0879226,20.8345,480.628,0.046662,0.0,0.0
1124,280.75,25.5666,25.4776,166.042,100.611,100.084,-0.000598845,0.0875968,20.8345,480.628,0.0482497,0.0,0.0
1128,281.75,25.4001,26.0084,169.212,100.613,100.276,-0.000523978,0.0872032,20.8345,480.628,0.030788,0.0,0.0
1132,282.75,25.8053,26.3485,169.451,100.628,99.9052,-0.000417753,0.0868848,20.8345,480.617,0.0661322,0.0,0.0
1136,283.75,25.5141,25.5956,168.505,100.62,100.274,-0.000319476,0.0866397,20.8345,480.648,0.0315751,0.0,0.0
1140,284.75,25.7165,25.9308,164.958,100.64,100.24,-0.000247121,0.0864439,20.8345,480.628,0.0365349,0.0,0.0
1144,285.75,25.9877,25.7568,164.715,100.628,100.104,-0.000190555,0.0861681,20.8345,480.638,0.0478939,0.0,0.0
1148,286.75,25.4716,24.8706,163.689,100.626,100.024,-0.000154162,0.0859134,20.8348,480.628,0.0550437,0.0,0.0
1152,287.75,25.9572,25.5889,162.535,100.636,100.145,-0.000147997,0.0856893,20.835,480.628,0.0448443,0.0,0.0
1156,288.75,25.4583,25.425,164.605,100.639,100.129,-0.000173247,0.0855134,20.8352,480.638,0.0466685,0.0,0.0
1160,289.75,25.1785,25.5137,166.362,100.641,99.9716,-0.000211699,0.0852708,20.8352,480.638,0.0612362,0.0,0.0
1164,290.75,25.1735,24.8624,168.433,100.65,100.17,-0.000254562,0.0850804,20.8353,480.608,0.043883,0.0,0.0
1168,291.75,24.8993,25.0942,162.4,100.633,100.027,-0.000287555,0.0849555,20.8353,480.617,0.0554134,0.0,0.0
1172,292.75,25.3491,25.1709,165.85,100.635,100.253,-0.000307058,0.0849007,20.8351,480.648,0.0349615,0.0,0.0
1176,293.75,25.4379,25.2522,164.098,100.639,100.233,-0.000303963,0.0848296,20.8344,480.628,0.0371004,0.0,0.0
1180,294.75,24.9684,25.509,164.867,100.66,100.257,-0.000291521,0.0846436,20.8341,480.617,0.0367604,0.0,0.0
1184,295.75,25.0899,24.892,166.952,100.642,100.039,-0.000276152,0.0845461,20.8337,480.628,0.0552068,0.0,0.0
1188,296.75,25.0952,24.917,164.658,100.652,99.9919,-0.000277011,0.0844241,20.8335,480.628,0.0603517,0.0,0.0
1192,297.75,25.0986,24.5759,168.899,100.638,99.9509,-0.000293208,0.0843759,20.8337,480.638,0.0628822,0.0,0.0
1196,298.75,24.9488,25.3988,165.704,100.644,100.135,-0.000293939,0.0843459,20.8342,480.628,0.0465161,0.0,0.0
1200,299.75,24.8802,24.8047,167.225,100.629,100.069,-0.000243361,0.0843405,20.8345,480.638,0.0512601,0.0,0.0
1204,300.75,25.5578,25.2376,164.912,100.627,100.234,-0.000169533,0.0843718,20.8347,480.638,0.0359269,0.0,0.0
1208,301.75,25.0058,25.261,165.782,100.625,100.145,-7.92063e-05,0.0843537,20.8348,480.638,0.0439124,0.0,0.0
1212,302.75,24.9204,25.3176,166.172,100.621,100.166,-1.82053e-05,0.0843449,20.8349,480.638,0.0416238,0.0,0.0
1216,303.75,24.9471,24.8852,166.712,100.632,100.117,3.17207e-06,0.0843637,20.8349,480.638,0.0470995,0.0,0.0
1220,304.75,24.6949,24.9895,165.182,100.636,100.064,-8.78833e-06,0.0843585,20.835,480.638,0.0523185,0.0,0.0
1224,305.75,25.1966,24.8402,169.096,100.621,100.161,-2.41656e-05,0.0842711,20.835,480.628,0.0420888,0.0,0.0
1228,306.75,24.6135,24.5984,168.019,100.629,100.11,-3.70213e-05,0.084179,20.835,480.617,0.0474575,0.0,0.0
1232,307.75,24.8069,24.9761,169.128,100.617,100.017,-4.14074e-05,0.0841185,20.8358,480.638,0.0548306,0.0,0.0
1236,308.75,24.2571,24.3341,168.987,100.618,100.148,-4.96941e-05,0.0841771,20.8363,480.638,0.0429859,0.0,0.0
1240,309.75,24.4535,24.9384,167.683,100.616,100.047,-7.34838e-05,0.0841768,20.8367,480.658,0.0520117,0.0,0.0
1244,310.75,24.0651,24.1573,168.316,100.615,100.022,-0.000110977,0.0841855,20.8369,480.658,0.0543,0.0,0.0
1248,311.75,24.2843,25.0791,166.755,100.618,100.085,-0.00018407,0.0842236,20.8371,480.638,0.0486741,0.0,0.0
1252,312.75,24.7369,25.1055,166.32,100.625,100.034,-0.000262471,0.0842977,20.8372,480.628,0.0540933,0.0,0.0
1256,313.75,24.1225,24.2449,170.641,100.622,99.8155,-0.000343441,0.0843683,20.837,480.617,0.0738538,0.0,0.0
1260,314.75,24.8439,24.244,165.552,100.623,100.252,-0.000396858,0.0843932,20.8363,480.638,0.0339175,0.0,0.0
1264,315.75,24.3636,24.6432,169.257,100.641,100.289,-0.000413114,0.0843573,20.8359,480.638,0.0321834,0.0,0.0
1268,316.75,24.2967,24.5552,167.467,100.629,100.006,-0.000395125,0.0843724,20.8356,480.648,0.0569442,0.0,0.0
1272,317.75,24.4518,24.4669,169.741,100.632,100.266,-0.000365628,0.0843927,20.8354,480.638,0.0334456,0.0,0.0
1276,318.75,24.0618,24.6467,163.719,100.638,99.9995,-0.000342329,0.0844642,20.8353,480.617,0.0583758,0.0,0.0
1280,319.75,24.4233,24.5699,164.571,100.635,100.026,-0.000329246,0.0845266,20.8352,480.617,0.055732,0.0,0.0
1284,320.75,24.5819,24.6619,166.685,100.632,100.173,-0.000303614,0.0845676,20.8351,480.658,0.0419134,0.0,0.0
1288,321.75,24.3176,23.7189,161.362,100.65,100.094,-0.000262027,0.0846139,20.8348,480.658,0.0508152,0.0,0.0
1292,322.75,24.3161,25.1002,164.824,100.656,100.029,-0.000227787,0.0846494,20.8347,480.648,0.0573225,0.0,0.0
1296,323.75,24.3763,24.6558,164.875,100.66,99.9554,-0.000220267,0.0845566,20.8346,480.638,0.0644541,0.0,0.0
1300,324.75,24.4682,24.2717,163.309,100.649,100.363,-0.000240345,0.0844645,20.8345,480.638,0.026136,0.0,0.0
1304,325.75,24.0862,24.3885,165.65,100.666,100.258,-0.000302012,0.0844234,20.8345,480.638,0.0372692,0.0,0.0
1308,326.75,24.1121,24.0743,166.274,100.662,100.12,-0.000344394,0.0844017,20.8344,480.648,0.049526,0.0,0.0
1312,327.75,24.1361,24.3311,165.089,100.66,99.9955,-0.00036343,0.0843874,20.8344,480.648,0.0608146,0.0,0.0
1316,328.75,24.2502,23.907,169.8,100.678,100.089,-0.000328349,0.084378,20.8344,480.638,0.0538356,0.0,0.0
1320,329.75,24.0578,23.9384,165.976,100.683,100.171,-0.000259764,0.0843964,20.8344,480.638,0.0468328,0.0,0.0
1324,330.75,23.5929,24.0118,165.066,100.692,100.305,-0.000190034,0.0843505,20.8344,480.638,0.0353298,0.0,0.0
1328,331.75,23.6954,24.1596,166.5,100.679,100.149,-0.000143722,0.084266,20.8344,480.638,0.0484271,0.0,0.0
1332,332.75,23.6802,23.8722,168.82,100.687,100.087,-0.000119589,0.0842002,20.8346,480.628,0.0548012,0.0,0.0
1336,333.75,23.5568,23.9107,166.143,100.684,100.082,-0.000119587,0.0841376,20.8353,480.638,0.0550502,0.0,0.0
1340,334.75,23.3886,22.9379,163.586,100.691,100.08,-0.000149458,0.0840914,20.8358,480.648,0.0558744,0.0,0.0
1344,335.75,23.5719,23.6702,167.877,100.695,100.002,-0.000202351,0.0840339,20.8361,480.648,0.0633755,0.0,0.0
1348,336.75,23.2905,23.6777,169.184,100.702,100.31,-0.000258605,0.0839742,20.8355,480.648,0.0357962,0.0,0.0
1352,337.75,23.7237,24.3753,164.681,100.709,99.959,-0.000307019,0.0839544,20.8351,480.638,0.0685613,0.0,0.0
1356,338.75,23.3137,23.9336,164.058,100.712,100.13,-0.000325481,0.0839466,20.8349,480.628,0.0531505,0.0,0.0
1360,339.75,23.4459,23.6833,168.062,100.724,100.389,-0.000320397,0.0839222,20.8347,480.628,0.0305525,0.0,0.0
1364,340.75,23.7546,24.5195,166.237,100.725,100.038,-0.000283999,0.0839203,20.8346,480.628,0.0628051,0.0,0.0
1368,341.75,23.3951,24.1406,164.857,100.722,100.197,-0.000229259,0.0839242,20.8345,480.638,0.0479951,0.0,0.0
1372,342.75,22.7202,23.6808,167.526,100.73,100.044,-0.000185652,0.0839268,20.8345,480.628,0.0627345,0.0,0.0
1376,343.75,22.9062,24.3611,168.118,100.732,100.094,-0.000138283,0.0839285,20.8344,480.628,0.0582443,0.0,0.0
1380,344.75,23.556,24.0701,165.3,100.752,100.188,-0.000111613,0.0839296,20.8344,480.638,0.0514961,0.0,0.0
1384,345.75,23.137,22.9751,167.952,100.748,100.242,-9.85221e-05,0.0838723,20.835,480.638,0.0461907,0.0,0.0
1388,346.75,23.7995,23.9159,162.504,100.761,100.128,-9.87509e-05,0.0838191,20.8356,480.648,0.0577954,0.0,0.0
1392,347.75,23.2163,24.2189,164.359,100.76,100.201,-0.000120821,0.0838249,20.836,480.648,0.0510404,0.0,0.0
1396,348.75,23.6313,23.2078,167.631,100.77,100.061,-0.000155493,0.0838481,20.8362,480.638,0.0648419,0.0,0.0
1400,349.75,22.6762,23.8532,170.321,100.789,100.001,-0.000166817,0.0838523,20.8364,480.628,0.0721034,0.0,0.0
1404,350.75,22.6082,23.1878,166.791,100.777,100.181,-0.000152437,0.0838796,20.8365,480.638,0.0543902,0.0,0.0
1408,351.75,23.1168,23.5253,165.455,100.782,100.194,-0.000136688,0.0838782,20.8366,480.638,0.0536333,0.0,0.0
1412,352.75,23.0951,23.378,166.939,100.802,100.055,-0.000141581,0.0838721,20.8366,480.617,0.0682899,0.0,0.0
1416,353.75,23.3597,23.6713,168.011,100.795,100.217,-0.000166678,0.0838487,20.8358,480.617,0.0528285,0.0,0.0
1420,354.75,22.9306,23.4949,166.659,100.812,100.201,-0.000240453,0.0838088,20.8353,480.648,0.0557222,0.0,0.0
1424,355.75,23.3907,24.1029,169.564,100.814,100.192,-0.000321859,0.0837774,20.8355,480.628,0.056792,0.0,0.0
1428,356.75,22.854,23.3397,161.59,100.817,100.382,-0.000392832,0.0837433,20.8359,480.648,0.0396559,0.0,0.0
1432,357.75,22.3835,23.9419,165.148,100.817,100.244,-0.000433204,0.0837099,20.8362,480.628,0.0522728,0.0,0.0
1436,358.75,23.3635,22.8536,163.434,100.829,100.348,-0.000430863,0.0836389,20.8363,480.638,0.0438787,0.0,0.0
1440,359.75,23.0879,23.7126,163.447,100.83,100.219,-0.000386435,0.0835432,20.8361,480.617,0.055832,0.0,0.0
1444,360.75,23.2941,23.893,163.966,100.824,100.18,,0.0834791,,480.628,0.0588443,0.0,0.0
1448,361.75,23.5257,23.7934,167.179,100.833,100.076,,0.083437,,480.638,0.0691498,0.0,0.0
1452,362.75,22.9929,23.5224,166.744,100.831,100.127,,0.0834539,,480.638,0.0642684,0.0,0.0
1456,363.75,22.8413,23.2877,163.603,100.85,100.287,,,,480.658,0.0514135,0.0,0.0
1460,364.75,22.7152,23.4506,169.291,100.831,100.233,,,,480.638,0.0545609,0.0,0.0
1464,365.75,23.0662,23.3915,164.209,100.843,100.022,,,,480.628,0.075017,0.0,0.0
1468,366.75,22.6784,23.3487,171.553,100.838,100.348,,,,480.628,0.0446287,0.0,0.0
1472,367.75,23.0975,23.0264,164.581,100.84,100.283,,,,480.638,0.0508,0.0,0.0
1476,368.75,22.6677,23.4092,171.006,100.851,100.24,,,,480.648,0.055757,0.0,0.0
1480,369.75,22.2392,23.9732,166.737,100.857,100.354,,,,480.638,0.0458718,0.0,0.0
1484,370.75,22.9002,22.7973,164.34,100.865,100.288,,,,480.628,0.0526611,0.0,0.0
1486,371.25,22.9469,23.4643,168.01,100.861,100.153,,,,480.628,0.0645986,0.0,0.0