File: 01_Data/High_Temperature_SCBA_Facepiece/MCC/High_Temperature_SCBA_Facepiece_MCC_30K_min_220204_R1.txt
Sample ID:	C:\MCC\MCC Cal\Test\Scott_HT_SCBA_MCC_30K_min_220204_R1.txt
Sample Weight (mg):	4.7
Heating Rate (C/s):	0.5
Combustor Temp (C):	900
N2 Flow Rate (cc/min):	80
O2 Flow Rate (cc/min):	20
Calibration File:	C:\MCC\MCC Cal\Coeff1 JN10440_30_210304.txt.txt
T Correction Coefficients:	0	1.024463	0
Time Shift (s):	14
*
Time (s)	Temperature (C)	N2 flow rate (cc/min)	O2 flow rate (cc/min)	Flow Rate (cc/min)	Oxygen (%)	HRR (W/g)	Heating rate (C/s)
0.000	113.326	80.003	19.995	103.765	20.092	0.142	-0.014
2.000	113.329	80.004	19.995	103.765	20.093	0.038	-0.022
4.000	113.307	80.005	19.995	103.770	20.094	0.013	-0.032
6.000	113.346	80.003	19.995	103.769	20.091	0.207	0.018
8.000	113.314	80.004	19.995	103.784	20.095	-0.055	-0.033
10.000	113.310	80.006	19.994	103.767	20.094	0.021	0.001
12.000	113.333	80.006	19.995	103.766	20.091	0.193	0.024
14.001	113.275	80.006	19.994	103.799	20.090	0.258	0.004
16.000	113.301	80.006	19.996	103.806	20.093	0.046	-0.012
18.000	113.326	80.005	19.994	103.805	20.091	0.182	0.006
20.000	113.331	80.007	19.996	103.802	20.088	0.431	-0.001
22.000	113.376	80.005	19.995	103.808	20.087	0.450	0.005
24.000	113.423	80.006	19.996	103.822	20.087	0.497	0.046
26.000	113.453	80.005	19.994	103.842	20.082	0.792	0.015
28.000	113.529	80.005	19.996	103.881	20.077	1.198	0.035
30.000	113.620	80.005	19.995	103.922	20.073	1.443	0.066
32.000	113.735	80.006	19.995	103.940	20.069	1.727	0.050
34.000	113.880	80.006	19.996	103.946	20.062	2.188	0.056
36.000	114.070	80.005	19.995	103.933	20.067	1.860	0.135
38.000	114.321	80.004	19.996	103.949	20.062	2.180	0.128
40.000	114.562	80.006	19.995	103.956	20.057	2.521	0.140
42.000	114.833	80.006	19.994	103.970	20.055	2.685	0.130
44.000	115.079	80.005	19.995	103.981	20.053	2.795	0.142
46.000	115.419	80.006	19.994	103.993	20.052	2.916	0.168
48.000	115.782	80.007	19.996	104.009	20.053	2.802	0.186
50.000	116.201	80.007	19.995	104.015	20.052	2.893	0.208
52.000	116.588	80.006	19.995	104.006	20.050	3.049	0.220
54.000	117.049	80.003	19.996	104.011	20.053	2.795	0.212
56.000	117.550	80.003	19.995	103.998	20.053	2.823	0.268
58.000	118.012	80.002	19.996	103.993	20.048	3.200	0.237
60.000	118.533	80.003	19.995	103.993	20.050	3.020	0.246
62.001	119.037	80.003	19.996	103.998	20.050	3.046	0.286
64.000	119.575	80.002	19.996	103.998	20.048	3.183	0.265
66.000	120.089	80.004	19.996	104.000	20.051	2.946	0.295
68.001	120.690	80.005	19.995	103.998	20.051	2.938	0.320
70.000	121.279	80.006	19.995	104.014	20.057	2.573	0.254
72.000	121.870	80.004	19.995	104.028	20.049	3.140	0.256
74.000	122.540	80.006	19.996	104.016	20.051	2.974	0.338
76.001	123.164	80.004	19.995	104.036	20.048	3.151	0.350
78.001	123.802	80.006	19.995	104.016	20.048	3.164	0.324
80.000	124.514	80.006	19.996	104.021	20.045	3.356	0.349
82.000	125.221	80.004	19.995	104.036	20.047	3.275	0.354
84.000	125.907	80.004	19.994	104.019	20.045	3.372	0.329
86.000	126.617	80.004	19.994	103.977	20.045	3.389	0.353
88.000	127.296	80.004	19.995	104.001	20.044	3.459	0.358
90.000	128.059	80.003	19.996	104.094	20.045	3.385	0.361
92.000	128.765	80.003	19.996	104.043	20.042	3.623	0.363
94.000	129.494	80.004	19.996	104.040	20.042	3.583	0.354
96.000	130.288	80.004	19.995	104.042	20.045	3.357	0.399
98.000	131.140	80.005	19.995	104.041	20.045	3.387	0.445
100.001	131.871	80.006	19.995	104.040	20.044	3.460	0.362
102.000	132.719	80.006	19.994	104.040	20.045	3.412	0.420
104.001	133.497	80.006	19.994	104.040	20.050	3.020	0.396
106.000	134.356	80.005	19.994	104.041	20.046	3.296	0.425
108.000	135.152	80.006	19.995	104.043	20.043	3.504	0.392
110.000	136.038	80.005	19.995	104.058	20.040	3.720	0.437
112.001	136.879	80.006	19.995	104.068	20.038	3.900	0.433
114.001	137.781	80.006	19.995	104.051	20.040	3.718	0.442
116.001	138.644	80.005	19.994	104.041	20.043	3.510	0.451
118.000	139.583	80.004	19.995	104.060	20.046	3.345	0.485
120.000	140.485	80.006	19.995	104.052	20.043	3.514	0.417
122.001	141.370	80.005	19.996	104.047	20.044	3.425	0.452
124.000	142.226	80.007	19.995	104.042	20.041	3.661	0.428
126.000	143.147	80.007	19.995	104.037	20.042	3.603	0.458
128.000	144.128	80.006	19.996	104.035	20.038	3.845	0.461
130.000	145.061	80.007	19.994	104.035	20.042	3.590	0.495
132.000	146.006	80.006	19.995	104.035	20.037	3.938	0.449
134.000	146.973	80.005	19.996	104.035	20.039	3.824	0.467
136.000	147.904	80.003	19.996	104.031	20.036	4.031	0.479
138.000	148.836	80.004	19.995	104.031	20.036	4.003	0.449
140.000	149.824	80.003	19.997	104.039	20.037	3.913	0.475
142.000	150.786	80.005	19.997	104.037	20.037	3.915	0.482
144.000	151.682	80.004	19.996	104.037	20.036	4.012	0.475
146.000	152.672	80.003	19.995	104.033	20.033	4.183	0.481
148.000	153.603	80.004	19.995	104.037	20.034	4.115	0.467
150.000	154.546	80.003	19.996	104.033	20.037	3.917	0.483
152.000	155.514	80.002	19.996	104.034	20.035	4.056	0.490
154.000	156.492	80.005	19.996	104.037	20.039	3.775	0.464
156.000	157.431	80.004	19.997	104.039	20.037	3.957	0.456
158.000	158.409	80.003	19.996	104.041	20.037	3.937	0.477
160.000	159.402	80.004	19.996	104.037	20.036	4.031	0.472
162.000	160.390	80.002	19.995	104.028	20.038	3.894	0.508
164.000	161.371	80.003	19.996	104.030	20.034	4.131	0.487
166.000	162.317	80.003	19.995	104.033	20.036	4.008	0.455
168.000	163.336	80.003	19.995	104.023	20.035	4.107	0.507
170.000	164.354	80.004	19.995	104.029	20.029	4.456	0.532
172.000	165.332	80.003	19.995	104.036	20.035	4.088	0.525
174.000	166.344	80.003	19.994	104.027	20.038	3.900	0.494
176.000	167.357	80.005	19.995	104.023	20.036	4.023	0.496
178.000	168.324	80.006	19.995	104.034	20.037	3.914	0.452
180.000	169.327	80.006	19.995	104.011	20.040	3.701	0.495
182.000	170.357	80.005	19.996	104.024	20.034	4.154	0.539
184.000	171.339	80.006	19.995	104.027	20.037	3.949	0.508
186.000	172.330	80.007	19.994	104.027	20.033	4.242	0.507
188.000	173.379	80.005	19.995	104.022	20.038	3.838	0.531
190.000	174.399	80.005	19.995	104.009	20.037	3.924	0.488
192.000	175.390	80.006	19.995	104.011	20.035	4.068	0.510
194.000	176.350	80.006	19.995	104.015	20.036	3.992	0.496
196.000	177.370	80.006	19.995	104.028	20.037	3.925	0.468
198.000	178.323	80.007	19.994	104.019	20.038	3.870	0.487
200.000	179.389	80.006	19.996	104.008	20.037	3.924	0.479
202.000	180.405	80.007	19.995	104.007	20.039	3.819	0.498
204.000	181.451	80.006	19.995	104.004	20.038	3.864	0.510
206.000	182.443	80.009	19.995	104.001	20.036	3.996	0.508
208.000	183.484	80.008	19.994	103.998	20.035	4.041	0.503
210.000	184.437	80.007	19.995	104.001	20.042	3.568	0.515
212.000	185.465	80.007	19.995	104.015	20.036	3.974	0.536
214.000	186.504	80.005	19.995	104.005	20.036	4.018	0.543
216.000	187.551	80.007	19.995	104.000	20.038	3.891	0.518
218.000	188.533	80.004	19.995	104.001	20.037	3.954	0.491
220.001	189.549	80.004	19.995	104.002	20.036	3.973	0.492
222.000	190.564	80.005	19.995	103.997	20.039	3.773	0.512
224.000	191.536	80.005	19.996	103.994	20.043	3.553	0.463
226.000	192.543	80.004	19.997	103.995	20.039	3.826	0.485
228.000	193.548	80.004	19.995	103.998	20.039	3.769	0.515
230.000	194.578	80.004	19.995	103.999	20.037	3.908	0.524
232.000	195.500	80.003	19.995	103.996	20.040	3.747	0.458
234.000	196.499	80.003	19.995	104.002	20.040	3.707	0.523
236.000	197.515	80.005	19.995	103.993	20.038	3.879	0.502
238.000	198.501	80.003	19.995	103.987	20.039	3.807	0.478
240.000	199.493	80.004	19.995	103.983	20.043	3.522	0.485
242.000	200.513	80.004	19.995	104.000	20.042	3.608	0.455
244.000	201.443	80.005	19.996	103.991	20.039	3.799	0.457
246.000	202.470	80.003	19.997	103.987	20.045	3.380	0.532
248.000	203.440	80.003	19.996	103.994	20.041	3.636	0.476
250.000	204.449	80.003	19.997	103.993	20.042	3.610	0.477
252.000	205.415	80.003	19.997	103.995	20.043	3.545	0.507
254.000	206.431	80.003	19.996	103.991	20.042	3.611	0.511
256.000	207.406	80.004	19.995	103.995	20.043	3.514	0.495
258.000	208.398	80.005	19.995	103.996	20.041	3.679	0.504
260.000	209.361	80.004	19.995	103.990	20.037	3.914	0.495
262.000	210.326	80.006	19.995	103.999	20.042	3.576	0.467
264.000	211.346	80.006	19.995	103.987	20.040	3.706	0.490
266.000	212.260	80.006	19.995	103.965	20.040	3.700	0.464
268.000	213.251	80.006	19.995	103.965	20.038	3.835	0.492
270.000	214.244	80.006	19.995	103.960	20.038	3.862	0.504
272.000	215.197	80.006	19.995	103.960	20.043	3.540	0.463
274.000	216.140	80.006	19.994	103.972	20.037	3.951	0.443
276.001	217.141	80.005	19.994	103.966	20.038	3.894	0.479
278.000	218.137	80.006	19.995	103.963	20.037	3.922	0.514
280.000	219.115	80.006	19.994	103.973	20.040	3.759	0.488
282.000	220.051	80.006	19.995	103.968	20.039	3.791	0.487
284.000	221.046	80.006	19.995	103.969	20.041	3.641	0.496
286.000	222.039	80.007	19.995	103.971	20.043	3.529	0.496
288.000	222.976	80.007	19.996	103.973	20.042	3.599	0.483
290.000	223.987	80.007	19.995	103.970	20.044	3.415	0.502
292.000	224.899	80.007	19.995	103.967	20.043	3.516	0.459
294.000	225.918	80.009	19.995	103.959	20.041	3.646	0.515
296.000	226.920	80.007	19.994	103.960	20.041	3.662	0.497
298.000	227.848	80.006	19.994	103.959	20.042	3.606	0.506
300.000	228.879	80.005	19.994	103.966	20.043	3.542	0.452
302.000	229.896	80.006	19.994	103.967	20.038	3.863	0.498
304.000	230.849	80.006	19.994	103.960	20.039	3.785	0.498
306.000	231.787	80.005	19.995	103.954	20.040	3.713	0.469
308.000	232.805	80.006	19.995	103.963	20.039	3.766	0.496
310.000	233.784	80.005	19.996	103.947	20.041	3.684	0.488
312.000	234.729	80.005	19.996	103.959	20.040	3.705	0.520
314.001	235.683	80.006	19.996	103.958	20.040	3.737	0.508
316.000	236.631	80.006	19.995	103.955	20.042	3.614	0.453
318.000	237.614	80.007	19.994	103.951	20.041	3.679	0.485
320.000	238.565	80.006	19.997	103.948	20.036	4.003	0.494
322.000	239.534	80.006	19.996	103.952	20.039	3.792	0.477
324.000	240.453	80.004	19.996	103.944	20.036	3.980	0.469
326.000	241.430	80.004	19.995	103.952	20.034	4.159	0.479
328.000	242.410	80.005	19.996	103.956	20.038	3.868	0.470
330.000	243.405	80.003	19.995	103.954	20.035	4.083	0.509
332.000	244.339	80.003	19.995	103.948	20.038	3.891	0.444
334.000	245.352	80.003	19.995	103.948	20.037	3.919	0.492
336.000	246.333	80.004	19.995	103.954	20.036	4.033	0.492
338.000	247.287	80.005	19.996	103.952	20.040	3.722	0.487
340.000	248.242	80.004	19.996	103.956	20.039	3.794	0.448
342.000	249.223	80.004	19.996	103.959	20.042	3.563	0.479
344.000	250.225	80.004	19.996	103.955	20.044	3.464	0.503
346.000	251.244	80.005	19.996	103.941	20.039	3.780	0.490
348.000	252.222	80.006	19.996	103.947	20.039	3.796	0.496
350.000	253.221	80.007	19.995	103.951	20.043	3.515	0.488
352.000	254.186	80.006	19.995	103.950	20.039	3.785	0.502
354.000	255.206	80.007	19.996	103.956	20.036	4.011	0.476
356.000	256.216	80.006	19.995	103.933	20.039	3.791	0.498
358.000	257.165	80.006	19.996	103.944	20.031	4.324	0.476
360.000	258.200	80.005	19.995	103.947	20.036	3.982	0.538
362.000	259.166	80.005	19.995	103.951	20.038	3.855	0.502
364.000	260.151	80.005	19.994	103.961	20.036	4.000	0.526
366.000	261.083	80.006	19.995	103.954	20.036	4.011	0.488
368.000	262.068	80.006	19.995	103.959	20.037	3.935	0.489
370.000	263.088	80.007	19.995	103.959	20.032	4.259	0.505
372.000	264.043	80.007	19.995	103.955	20.037	3.899	0.498
374.000	265.054	80.007	19.994	103.953	20.037	3.908	0.491
376.000	266.051	80.008	19.996	103.951	20.040	3.741	0.460
378.000	267.071	80.007	19.994	103.946	20.040	3.716	0.487
380.000	268.096	80.006	19.997	103.948	20.041	3.653	0.489
382.000	269.050	80.005	19.996	103.955	20.041	3.629	0.484
384.000	270.054	80.005	19.995	103.943	20.042	3.600	0.536
386.000	271.061	80.004	19.995	103.943	20.043	3.493	0.514
388.000	272.150	80.004	19.995	103.944	20.044	3.413	0.524
390.000	273.147	80.006	19.995	103.934	20.043	3.548	0.528
392.000	274.152	80.004	19.994	103.945	20.046	3.298	0.513
394.000	275.153	80.006	19.996	103.926	20.044	3.463	0.486
396.000	276.168	80.005	19.996	103.923	20.045	3.408	0.499
398.000	277.182	80.005	19.995	103.920	20.043	3.548	0.488
400.000	278.170	80.004	19.994	103.920	20.042	3.554	0.510
402.000	279.179	80.005	19.994	103.931	20.042	3.588	0.484
404.000	280.175	80.006	19.995	103.927	20.044	3.461	0.515
406.001	281.118	80.004	19.996	103.921	20.044	3.438	0.484
408.000	282.129	80.005	19.996	103.922	20.042	3.601	0.508
410.000	283.190	80.003	19.996	103.927	20.043	3.498	0.495
412.000	284.133	80.004	19.995	103.922	20.047	3.211	0.460
414.000	285.127	80.003	19.996	103.932	20.049	3.137	0.490
416.000	286.086	80.003	19.995	103.926	20.046	3.330	0.491
418.000	287.099	80.023	20.001	103.935	20.043	3.530	0.508
420.000	288.113	80.004	19.997	103.948	20.043	3.494	0.505
422.000	289.087	80.004	19.996	103.929	20.045	3.405	0.479
424.000	290.088	80.005	19.995	103.939	20.043	3.539	0.503
426.000	291.119	80.006	19.996	103.929	20.046	3.283	0.518
428.000	292.110	80.005	19.997	103.944	20.046	3.298	0.468
430.000	293.120	80.006	19.996	103.937	20.046	3.292	0.520
432.000	294.104	80.005	19.995	103.936	20.045	3.412	0.494
434.000	295.084	80.006	19.994	103.944	20.048	3.144	0.520
436.000	296.021	80.006	19.995	103.927	20.047	3.256	0.522
438.000	297.065	80.005	19.996	103.919	20.049	3.127	0.512
440.000	298.069	80.005	19.998	103.925	20.047	3.220	0.519
442.000	299.101	80.006	19.996	103.928	20.044	3.467	0.534
444.000	300.039	80.006	19.996	103.919	20.046	3.307	0.481
446.000	301.018	80.004	19.996	103.924	20.049	3.081	0.491
448.000	302.071	80.006	19.996	103.918	20.049	3.091	0.513
450.000	303.040	80.006	19.995	103.921	20.050	3.017	0.533
452.000	304.025	80.006	19.995	103.925	20.051	2.973	0.489
454.000	305.017	80.007	19.995	103.920	20.053	2.806	0.506
456.000	305.976	80.008	19.996	103.925	20.051	2.937	0.510
458.001	306.972	80.008	19.995	103.921	20.050	3.013	0.484
460.000	308.001	80.007	19.995	103.919	20.051	2.941	0.518
462.001	309.007	80.006	19.996	103.918	20.049	3.074	0.525
464.000	309.998	80.005	19.996	103.918	20.050	3.062	0.502
466.000	311.019	80.004	19.996	103.922	20.052	2.873	0.504
468.000	312.027	80.005	19.995	103.922	20.051	2.964	0.512
470.000	313.035	80.004	19.996	103.920	20.052	2.907	0.515
472.000	314.033	80.004	19.996	103.921	20.049	3.137	0.493
474.000	315.064	80.003	19.994	103.922	20.049	3.102	0.508
476.000	316.050	80.004	19.995	103.926	20.050	3.017	0.516
478.000	317.034	80.004	19.996	103.922	20.052	2.880	0.498
480.000	318.054	80.005	19.996	103.923	20.052	2.907	0.528
482.000	319.022	80.004	19.996	103.926	20.051	2.971	0.472
484.000	320.058	80.005	19.995	103.926	20.050	3.011	0.502
486.000	321.033	80.005	19.995	103.922	20.054	2.730	0.489
488.000	322.047	80.005	19.995	103.923	20.050	3.000	0.491
490.000	323.048	80.004	19.994	103.922	20.052	2.867	0.473
492.000	324.048	80.003	19.996	103.922	20.051	2.941	0.487
494.000	325.068	80.004	19.996	103.923	20.053	2.808	0.494
496.000	326.067	80.003	19.994	103.922	20.052	2.910	0.486
498.000	327.050	80.003	19.995	103.921	20.048	3.157	0.488
500.000	328.037	80.004	19.997	103.921	20.049	3.085	0.497
502.000	329.055	80.004	19.996	103.922	20.052	2.904	0.487
504.000	330.074	80.005	19.997	103.919	20.052	2.925	0.511
506.000	331.084	80.005	19.997	103.921	20.055	2.709	0.466
508.000	332.149	80.004	19.996	103.921	20.055	2.715	0.526
510.000	333.124	80.005	19.996	103.918	20.056	2.599	0.511
512.000	334.103	80.005	19.996	103.915	20.050	3.051	0.483
514.000	335.119	80.005	19.995	103.914	20.052	2.906	0.498
516.000	336.136	80.008	19.995	103.917	20.051	2.973	0.504
518.000	337.164	80.005	19.995	103.918	20.052	2.876	0.508
520.000	338.154	80.006	19.995	103.919	20.048	3.144	0.502
522.000	339.192	80.005	19.996	103.919	20.049	3.117	0.499
524.000	340.183	80.005	19.996	103.915	20.048	3.187	0.538
526.000	341.151	80.005	19.995	103.916	20.049	3.098	0.496
528.000	342.185	80.006	19.996	103.924	20.048	3.189	0.533
530.000	343.187	80.006	19.996	103.919	20.051	2.960	0.521
532.000	344.214	80.005	19.995	103.919	20.049	3.131	0.496
534.000	345.192	80.006	19.995	103.918	20.051	2.956	0.500
536.001	346.210	80.006	19.996	103.914	20.050	3.039	0.513
538.000	347.204	80.006	19.995	103.918	20.049	3.133	0.500
540.000	348.214	80.007	19.995	103.920	20.049	3.127	0.500
542.000	349.232	80.006	19.997	103.920	20.047	3.224	0.487
544.000	350.278	80.006	19.995	103.920	20.047	3.214	0.538
546.001	351.288	80.005	19.996	103.921	20.044	3.471	0.518
548.000	352.350	80.005	19.996	103.921	20.045	3.402	0.540
550.000	353.383	80.002	19.995	103.922	20.049	3.133	0.534
552.001	354.449	80.005	19.996	103.924	20.046	3.338	0.513
554.000	355.452	80.005	19.996	103.928	20.044	3.474	0.516
556.000	356.463	80.004	19.995	103.924	20.047	3.241	0.528
558.000	357.523	80.003	19.996	103.926	20.046	3.336	0.532
560.000	358.541	80.004	19.995	103.926	20.044	3.455	0.489
562.000	359.568	80.004	19.997	103.924	20.046	3.322	0.520
564.000	360.676	80.004	19.995	103.921	20.046	3.318	0.545
566.000	361.712	80.007	19.996	103.924	20.047	3.235	0.534
568.000	362.714	80.004	19.996	103.924	20.047	3.239	0.516
570.000	363.789	80.005	19.996	103.920	20.050	3.020	0.505
572.000	364.848	80.006	19.996	103.918	20.048	3.140	0.530
574.000	365.883	80.004	19.995	103.915	20.047	3.248	0.527
576.000	366.980	80.005	19.995	103.913	20.048	3.161	0.537
578.000	367.981	80.004	19.995	103.917	20.049	3.077	0.535
580.000	369.060	80.005	19.995	103.909	20.050	3.050	0.549
582.000	370.091	80.004	19.994	103.908	20.046	3.286	0.510
584.000	371.191	80.003	19.995	103.903	20.047	3.214	0.536
586.000	372.177	80.004	19.995	103.908	20.045	3.405	0.510
588.000	373.233	80.004	19.995	103.913	20.047	3.265	0.523
590.000	374.266	80.006	19.995	103.907	20.044	3.413	0.523
592.000	375.329	80.006	19.996	103.912	20.042	3.580	0.517
594.000	376.397	80.005	19.996	103.907	20.044	3.417	0.529
596.000	377.459	80.005	19.995	103.899	20.044	3.472	0.547
598.000	378.451	80.006	19.996	103.909	20.043	3.519	0.510
600.000	379.505	80.004	19.995	103.899	20.046	3.284	0.521
602.000	380.454	80.004	19.995	103.901	20.044	3.416	0.498
604.000	381.529	80.004	19.996	103.910	20.039	3.796	0.501
606.000	382.509	80.005	19.994	103.892	20.043	3.498	0.500
608.000	383.544	80.004	19.994	103.907	20.046	3.343	0.517
610.000	384.568	80.005	19.995	103.897	20.045	3.349	0.504
612.000	385.547	80.005	19.995	103.896	20.044	3.434	0.516
614.000	386.559	80.006	19.995	103.889	20.044	3.457	0.505
616.000	387.581	80.005	19.996	103.901	20.046	3.307	0.495
618.000	388.547	80.005	19.995	103.908	20.046	3.335	0.476
620.000	389.535	80.005	19.996	103.918	20.041	3.635	0.484
622.000	390.577	80.006	19.996	103.910	20.044	3.438	0.514
624.000	391.619	80.007	19.996	103.900	20.045	3.350	0.506
626.000	392.600	80.004	19.995	103.907	20.045	3.411	0.480
628.000	393.630	80.003	19.995	103.895	20.045	3.352	0.506
630.000	394.658	80.004	19.996	103.909	20.045	3.396	0.525
632.000	395.644	80.004	19.995	103.902	20.044	3.438	0.514
634.000	396.633	80.003	19.995	103.906	20.044	3.449	0.490
636.000	397.665	80.003	19.996	103.900	20.044	3.468	0.509
638.000	398.707	80.003	19.995	103.888	20.043	3.521	0.505
640.000	399.713	80.004	19.996	103.903	20.041	3.676	0.522
642.000	400.766	80.006	19.995	103.904	20.044	3.415	0.524
644.000	401.770	80.004	19.995	103.904	20.042	3.616	0.501
646.000	402.745	80.005	19.995	103.910	20.041	3.627	0.484
648.000	403.777	80.005	19.995	103.910	20.041	3.620	0.490
650.000	404.755	80.005	19.995	103.890	20.043	3.498	0.494
652.000	405.791	80.004	19.995	103.897	20.040	3.732	0.541
654.000	406.773	80.004	19.995	103.917	20.037	3.900	0.529
656.000	407.790	80.004	19.994	103.903	20.035	4.088	0.496
658.000	408.816	80.004	19.996	103.902	20.034	4.138	0.526
660.000	409.819	80.004	19.995	103.900	20.032	4.265	0.483
662.000	410.900	80.003	19.996	103.900	20.033	4.238	0.530
664.000	411.933	80.003	19.995	103.894	20.033	4.210	0.505
666.000	412.919	80.004	19.996	103.891	20.039	3.825	0.497
668.000	413.901	80.004	19.994	103.898	20.030	4.392	0.514
670.000	414.848	80.005	19.995	103.901	20.032	4.286	0.506
672.000	415.903	80.004	19.995	103.895	20.031	4.339	0.495
674.000	416.951	80.006	19.995	103.898	20.024	4.843	0.554
676.000	417.945	80.005	19.994	103.898	20.026	4.720	0.521
678.000	418.941	80.005	19.994	103.906	20.023	4.915	0.483
680.000	420.158	80.004	19.995	103.914	20.020	5.101	0.525
682.000	420.964	80.005	19.996	103.905	20.023	4.926	0.558
684.000	422.061	80.004	19.994	103.909	20.016	5.382	0.300
686.000	422.958	80.004	19.996	103.898	20.017	5.325	0.344
688.000	423.690	80.004	19.994	103.904	20.013	5.554	0.266
690.000	425.177	80.005	19.995	103.911	20.010	5.817	0.505
692.000	426.131	80.006	19.996	103.912	20.005	6.168	0.516
694.000	427.159	80.005	19.996	103.911	20.002	6.365	0.523
696.000	428.234	80.006	19.995	103.916	19.993	6.979	0.543
698.000	429.285	80.006	19.996	103.905	19.995	6.816	0.527
700.000	430.293	80.007	19.996	103.909	19.985	7.508	0.509
702.000	431.334	80.006	19.995	103.913	19.982	7.738	0.519
704.000	432.352	80.007	19.995	103.911	19.971	8.465	0.508
706.000	433.361	80.006	19.995	103.909	19.966	8.839	0.520
708.000	434.407	80.005	19.995	103.889	19.959	9.311	0.480
710.000	435.398	80.004	19.995	103.905	19.959	9.330	0.466
712.000	436.503	80.004	19.995	103.916	19.948	10.065	0.512
714.000	437.487	80.004	19.996	103.914	19.938	10.732	0.511
716.000	438.505	80.004	19.995	103.916	19.928	11.448	0.525
718.000	439.552	80.004	19.995	103.911	19.916	12.281	0.544
720.000	440.597	80.004	19.996	103.917	19.898	13.508	0.551
722.000	441.629	80.002	19.996	103.913	19.882	14.597	0.500
724.000	442.668	80.003	19.996	103.914	19.867	15.645	0.552
726.000	443.695	80.004	19.996	103.918	19.849	16.925	0.531
728.000	444.741	80.004	19.996	103.918	19.829	18.292	0.529
730.000	445.763	80.004	19.996	103.913	19.813	19.353	0.492
732.000	446.806	80.004	19.995	103.912	19.796	20.525	0.540
734.000	447.789	80.005	19.996	103.920	19.777	21.850	0.532
736.000	448.828	80.004	19.995	103.917	19.765	22.691	0.535
738.000	449.887	80.003	19.995	103.921	19.742	24.250	0.543
740.000	450.935	80.003	19.997	103.922	19.731	25.036	0.531
742.000	451.953	80.003	19.995	103.922	19.716	26.101	0.522
744.000	452.984	80.002	19.995	103.921	19.707	26.726	0.475
746.000	454.022	80.002	19.995	103.922	19.702	27.051	0.530
748.000	455.033	80.003	19.995	103.923	19.698	27.352	0.537
750.000	456.066	80.003	19.995	103.922	19.694	27.623	0.512
752.000	457.070	80.004	19.995	103.923	19.684	28.274	0.481
754.000	458.126	80.005	19.996	103.929	19.670	29.228	0.490
756.000	459.140	80.005	19.994	103.948	19.651	30.571	0.505
758.000	460.156	80.004	19.994	103.942	19.636	31.584	0.522
760.000	461.183	80.006	19.995	103.924	19.631	31.931	0.510
762.000	462.245	80.006	19.995	103.904	19.650	30.662	0.522
764.000	463.277	80.005	19.995	103.878	19.664	29.663	0.504
766.000	464.294	80.003	19.995	103.901	19.657	30.138	0.493
768.000	465.279	80.005	19.996	103.968	19.632	31.845	0.483
770.000	466.311	80.005	19.995	104.008	19.585	35.114	0.504
772.000	467.354	80.005	19.995	103.987	19.552	37.423	0.511
774.000	468.403	80.005	19.996	103.927	19.542	38.088	0.557
776.000	469.458	80.005	19.995	103.851	19.516	39.904	0.529
778.000	470.470	80.006	19.995	103.878	19.469	43.143	0.520
780.000	471.500	80.007	19.995	103.970	19.439	45.234	0.522
782.000	472.517	80.007	19.995	103.989	19.437	45.339	0.490
784.000	473.613	80.006	19.995	103.889	19.420	46.549	0.525
786.000	474.603	80.007	19.995	103.890	19.382	49.149	0.497
788.000	475.651	80.008	19.995	103.977	19.346	51.547	0.500
790.000	476.608	80.005	19.995	104.009	19.306	54.402	0.482
792.000	477.630	80.005	19.995	103.974	19.244	58.725	0.495
794.000	478.619	80.004	19.995	103.965	19.179	63.241	0.488
796.000	479.685	80.004	19.996	103.993	19.155	64.866	0.491
798.000	480.736	80.005	19.996	103.922	19.141	65.732	0.539
800.000	481.773	80.004	19.997	103.897	19.085	69.519	0.513
802.000	482.760	80.004	19.996	104.011	19.003	75.342	0.497
804.000	483.825	80.004	19.995	104.093	18.882	83.871	0.526
806.000	484.801	80.004	19.995	104.142	18.818	88.361	0.508
808.000	485.866	80.005	19.997	103.990	18.825	87.697	0.524
810.000	486.869	80.003	19.996	103.814	18.819	87.817	0.518
812.000	487.882	80.003	19.995	103.879	18.725	94.305	0.524
814.000	488.884	80.004	19.995	104.130	18.555	106.285	0.508
816.000	489.957	80.003	19.995	104.322	18.374	119.085	0.530
818.000	491.085	80.004	19.996	104.225	18.290	125.036	0.532
820.000	492.100	80.003	19.996	103.883	18.279	125.564	0.536
822.001	493.050	80.002	19.995	103.719	18.264	126.349	0.495
824.000	494.143	80.003	19.996	103.884	18.200	130.608	0.574
826.000	495.155	80.004	19.995	104.179	18.056	140.580	0.514
828.000	496.154	80.004	19.995	104.352	17.848	155.340	0.481
830.000	497.231	80.004	19.996	104.345	17.684	166.842	0.510
832.000	498.311	80.004	19.993	104.100	17.589	173.349	0.509
834.000	499.304	80.006	19.995	103.912	17.532	177.111	0.504
836.000	500.309	80.004	19.995	103.865	17.471	181.342	0.480
838.000	501.352	80.006	19.996	104.044	17.380	187.717	0.527
840.000	502.391	80.005	19.995	104.247	17.291	193.868	0.512
842.000	503.403	80.005	19.994	104.257	17.195	200.533	0.515
844.000	504.455	80.006	19.995	104.191	17.108	206.586	0.521
846.000	505.439	80.006	19.995	104.150	17.002	214.052	0.513
848.000	506.527	80.006	19.995	104.181	16.900	221.132	0.554
850.000	507.555	80.005	19.995	104.209	16.810	227.334	0.493
852.000	508.622	80.006	19.995	104.203	16.729	232.984	0.531
854.000	509.642	80.005	19.996	104.207	16.631	239.782	0.499
856.000	510.602	80.006	19.994	104.255	16.533	246.565	0.474
858.000	511.665	80.005	19.996	104.287	16.429	253.777	0.537
860.000	512.731	80.007	19.995	104.295	16.320	261.365	0.541
862.000	513.744	80.007	19.995	104.297	16.212	268.926	0.542
864.000	514.785	80.007	19.992	104.302	16.103	276.413	0.514
866.000	515.852	80.008	19.995	104.313	15.995	283.868	0.509
868.000	516.855	80.008	19.995	104.325	15.893	290.834	0.514
870.000	517.899	80.006	19.995	104.312	15.791	297.993	0.515
872.000	518.923	80.006	19.995	104.343	15.705	304.014	0.495
874.000	519.953	80.003	19.995	104.342	15.643	308.267	0.492
876.000	520.938	80.004	19.994	104.330	15.611	310.488	0.532
878.000	521.988	80.004	19.995	104.315	15.611	310.364	0.530
880.000	522.985	80.003	19.995	104.307	15.639	308.407	0.495
882.000	524.026	80.005	19.995	104.327	15.701	304.066	0.497
884.000	525.013	80.003	19.995	104.344	15.803	296.889	0.478
886.000	526.073	80.003	19.994	104.325	15.949	286.785	0.538
888.000	527.098	80.003	19.996	104.312	16.134	273.921	0.553
890.000	528.085	80.004	19.994	104.288	16.348	259.089	0.512
892.000	529.099	80.005	19.995	104.278	16.601	241.592	0.543
894.000	530.085	80.005	19.995	104.247	16.876	222.542	0.513
896.000	531.116	80.005	19.996	104.233	17.176	201.718	0.525
898.000	532.113	80.006	19.995	104.207	17.475	180.999	0.526
900.000	533.117	80.004	19.995	104.210	17.769	160.635	0.513
902.000	534.147	80.004	19.996	104.190	18.042	141.753	0.494
904.000	535.154	80.005	19.996	104.180	18.303	123.661	0.493
906.000	536.166	80.004	19.997	104.157	18.536	107.547	0.489
908.000	537.168	80.004	19.998	104.142	18.743	93.255	0.499
910.000	538.166	80.004	19.996	104.112	18.926	80.632	0.500
912.000	539.191	80.003	19.996	104.071	19.083	69.783	0.506
914.000	540.182	80.004	19.997	104.042	19.213	60.754	0.488
916.000	541.174	80.005	19.997	104.010	19.326	52.988	0.463
918.000	542.152	80.004	19.996	103.979	19.422	46.347	0.479
920.000	543.136	80.004	19.997	103.956	19.504	40.666	0.477
922.000	544.111	80.006	19.995	103.948	19.569	36.221	0.492
924.000	545.122	80.006	19.996	103.927	19.626	32.243	0.516
926.000	546.110	80.005	19.996	103.922	19.673	29.064	0.543
928.000	547.094	80.005	19.995	103.900	19.714	26.233	0.519
930.000	548.109	80.005	19.994	103.900	19.746	24.026	0.490
932.000	549.094	80.005	19.994	103.889	19.775	22.026	0.515
934.000	550.109	80.003	19.994	103.886	19.798	20.408	0.514
936.000	551.116	80.005	19.994	103.886	19.820	18.914	0.514
938.000	552.128	80.006	19.995	103.884	19.834	17.906	0.516
940.000	553.149	80.006	19.994	103.878	19.848	16.951	0.539
942.000	554.173	80.004	19.995	103.877	19.865	15.790	0.513
944.000	555.183	80.006	19.995	103.885	19.875	15.083	0.489
946.000	556.221	80.007	19.995	103.886	19.885	14.437	0.503
948.000	557.200	80.006	19.994	103.883	19.896	13.678	0.483
950.000	558.269	80.006	19.994	103.882	19.898	13.520	0.511
952.000	559.254	80.007	19.995	103.878	19.905	13.030	0.485
954.000	560.280	80.006	19.996	103.868	19.910	12.662	0.515
956.000	561.322	80.005	19.996	103.863	19.916	12.303	0.514
958.000	562.384	80.006	19.996	103.860	19.918	12.121	0.523
960.000	563.398	80.005	19.994	103.858	19.926	11.597	0.497
962.000	564.405	80.005	19.996	103.872	19.926	11.578	0.512
964.000	565.455	80.005	19.995	103.862	19.932	11.199	0.521
966.000	566.426	80.005	19.996	103.877	19.931	11.235	0.486
968.000	567.516	80.004	19.995	103.882	19.936	10.904	0.533
970.000	568.530	80.005	19.994	103.881	19.941	10.582	0.483
972.000	569.562	80.004	19.993	103.881	19.941	10.580	0.523
974.000	570.653	80.005	19.995	103.881	19.948	10.035	0.559
976.000	571.694	80.006	19.996	103.878	19.949	9.997	0.527
978.000	572.717	80.004	19.995	103.874	19.950	9.904	0.512
980.000	573.785	80.005	19.996	103.872	19.948	10.035	0.541
982.000	574.888	80.005	19.996	103.880	19.953	9.730	0.568
984.000	575.958	80.004	19.997	103.873	19.950	9.894	0.554
986.000	577.015	80.005	19.995	103.877	19.957	9.442	0.521
988.000	578.033	80.005	19.997	103.879	19.956	9.525	0.503
990.000	579.051	80.002	19.997	103.879	19.959	9.310	0.518
992.000	580.099	80.004	19.997	103.879	19.962	9.075	0.486
994.000	581.076	80.004	19.996	103.878	19.962	9.114	0.510
996.000	582.167	80.004	19.996	103.872	19.965	8.890	0.557
998.000	583.162	80.003	19.996	103.874	19.966	8.800	0.507
1000.001	584.171	80.005	19.995	103.880	19.965	8.879	0.487
1002.000	585.187	80.006	19.994	103.874	19.972	8.428	0.514
1004.000	586.189	80.004	19.995	103.875	19.970	8.532	0.500
1006.000	587.190	80.004	19.997	103.873	19.972	8.405	0.503
1008.000	588.238	80.005	19.998	103.879	19.973	8.369	0.478
1010.000	589.197	80.005	19.998	103.877	19.971	8.467	0.497
1012.000	590.234	80.004	19.996	103.874	19.974	8.276	0.517
1014.000	591.203	80.004	19.995	103.881	19.973	8.333	0.478
1016.000	592.241	80.004	19.996	103.874	19.979	7.955	0.505
1018.000	593.214	80.007	19.998	103.880	19.980	7.888	0.504
1020.000	594.284	80.004	19.996	103.876	19.979	7.956	0.533
1022.001	595.222	80.006	19.995	103.868	19.980	7.834	0.484
1024.000	596.236	80.007	19.995	103.865	19.977	8.060	0.490
1026.001	597.291	80.006	19.996	103.867	19.980	7.832	0.516
1028.000	598.263	80.007	19.994	103.875	19.982	7.737	0.509
1030.000	599.313	80.008	19.994	103.867	19.984	7.587	0.519
1032.001	600.373	80.008	19.994	103.875	19.990	7.187	0.539
1034.001	601.369	80.005	19.995	103.878	19.984	7.608	0.513
1036.000	602.426	80.007	19.996	103.878	19.984	7.591	0.502
1038.000	603.494	80.004	19.993	103.880	19.985	7.492	0.533
1040.001	604.515	80.004	19.995	103.881	19.988	7.287	0.514
1042.000	605.617	80.005	19.997	103.881	19.988	7.293	0.547
1044.000	606.673	80.003	19.996	103.879	19.990	7.185	0.519
1046.001	607.780	80.004	19.996	103.877	19.993	6.959	0.523
1048.000	608.809	80.005	19.995	103.876	19.994	6.860	0.491
1050.000	609.909	80.005	19.996	103.873	19.992	7.015	0.524
1052.000	610.965	80.005	19.993	103.875	19.993	6.974	0.530
1054.000	612.014	80.006	19.996	103.876	19.991	7.098	0.526
1056.000	613.054	80.004	19.995	103.866	19.995	6.828	0.521
1058.000	614.154	80.006	19.995	103.848	19.995	6.857	0.518
1060.000	615.288	80.004	19.995	103.858	19.997	6.701	0.548
1062.001	616.382	80.006	19.992	103.873	20.001	6.418	0.544
1064.000	617.449	80.003	19.996	103.871	20.000	6.494	0.529
1066.000	618.481	80.006	19.996	103.876	19.997	6.656	0.519
1068.000	619.541	80.005	19.996	103.876	19.995	6.797	0.539
1070.000	620.606	80.005	19.995	103.883	20.004	6.228	0.549
1072.000	621.648	80.004	19.996	103.881	19.999	6.516	0.534
1074.001	622.756	80.003	19.995	103.877	20.003	6.286	0.547
1076.000	623.804	80.004	19.995	103.881	20.003	6.239	0.553
1078.000	624.860	80.003	19.995	103.872	20.001	6.393	0.528
1080.000	625.894	80.003	19.997	103.868	20.007	6.025	0.520
1082.001	626.915	80.005	19.994	103.875	20.007	6.009	0.544
1084.000	628.016	80.009	19.993	103.865	20.006	6.084	0.548
1086.000	629.012	80.004	19.995	103.868	20.008	5.932	0.505
1088.000	630.032	80.005	19.995	103.874	20.008	5.907	0.484
1090.001	631.097	80.004	19.997	103.866	20.009	5.877	0.540
1092.000	632.143	80.005	19.995	103.874	20.005	6.122	0.498
1094.000	633.151	80.003	19.994	103.861	20.008	5.946	0.519
1096.000	634.192	80.005	19.995	103.872	20.009	5.842	0.508
1098.000	635.249	80.006	19.995	103.866	20.008	5.903	0.521
1100.000	636.279	80.004	19.996	103.873	20.010	5.764	0.499
1102.001	637.294	80.005	19.997	103.865	20.011	5.753	0.500
1104.000	638.319	80.005	19.997	103.853	20.008	5.932	0.504
1106.000	639.322	80.006	19.994	103.861	20.010	5.767	0.503
1108.000	640.394	80.008	19.995	103.868	20.011	5.695	0.506
1110.000	641.362	80.003	19.994	103.867	20.014	5.526	0.519
1112.000	642.374	80.006	19.995	103.861	20.012	5.649	0.491
1114.000	643.399	80.005	19.995	103.872	20.014	5.543	0.500
1116.000	644.436	80.006	19.993	103.868	20.013	5.590	0.516
1118.001	645.420	80.005	19.994	103.868	20.014	5.520	0.507
1120.000	646.465	80.003	19.993	103.877	20.020	5.133	0.504
1122.000	647.416	80.004	19.995	103.864	20.018	5.247	0.478
1124.000	648.497	80.005	19.996	103.878	20.016	5.362	0.515
1126.001	649.535	80.005	19.994	103.873	20.018	5.264	0.538
1128.000	650.591	80.005	19.995	103.877	20.018	5.251	0.554
1130.000	651.616	80.003	19.996	103.865	20.015	5.447	0.521
1132.001	652.628	80.002	19.995	103.874	20.015	5.464	0.514
1134.001	653.633	80.005	19.995	103.859	20.011	5.695	0.528
1136.000	654.676	80.006	19.994	103.861	20.016	5.386	0.480
1138.000	655.697	80.004	19.996	103.875	20.021	5.031	0.530
1140.000	656.786	80.004	19.992	103.881	20.018	5.246	0.538
1142.000	657.701	80.005	19.996	103.884	20.020	5.084	0.450
1144.000	658.762	80.006	19.997	103.863	20.018	5.215	0.533
1146.000	659.767	80.003	19.996	103.861	20.019	5.183	0.515
1148.000	660.753	80.004	19.994	103.883	20.021	5.011	0.507
1150.000	661.828	80.003	19.995	103.884	20.021	5.038	0.543
1152.000	662.847	80.005	19.994	103.872	20.027	4.592	0.480
1154.000	663.859	80.005	19.996	103.873	20.023	4.870	0.503
1156.000	664.916	80.003	19.997	103.876	20.021	5.020	0.510
1158.000	665.934	80.002	19.996	103.872	20.017	5.274	0.554
1160.000	666.949	80.004	19.997	103.853	20.023	4.922	0.510
1162.000	668.018	80.005	19.993	103.872	20.024	4.835	0.566
1164.000	669.042	80.006	19.995	103.869	20.023	4.880	0.533
1166.000	670.031	80.007	19.995	103.850	20.022	4.973	0.516
1168.001	671.059	80.006	19.995	103.851	20.022	4.941	0.484
1170.001	672.075	80.006	19.997	103.853	20.022	4.930	0.498
1172.000	673.113	80.004	19.995	103.870	20.022	4.939	0.544
1174.000	674.207	80.006	19.996	103.868	20.022	4.954	0.545
1176.001	675.218	80.005	19.998	103.861	20.024	4.818	0.579
1178.000	676.226	80.005	19.995	103.866	20.020	5.085	0.518
1180.000	677.309	80.006	19.994	103.869	20.022	4.979	0.525
1182.000	678.268	80.005	19.995	103.871	20.025	4.758	0.469
1184.001	679.324	80.005	19.994	103.864	20.025	4.774	0.554
1186.001	680.295	80.006	19.996	103.864	20.024	4.819	0.475
1188.000	681.295	80.006	19.995	103.863	20.026	4.697	0.495
1190.001	682.298	80.007	19.995	103.864	20.028	4.523	0.491
1192.001	683.313	80.005	19.995	103.863	20.025	4.741	0.498
1194.000	684.352	80.007	19.995	103.860	20.027	4.605	0.550
1196.000	685.321	80.005	19.995	103.864	20.023	4.865	0.515
1198.000	686.331	80.007	19.996	103.844	20.020	5.111	0.501
1200.000	687.373	80.005	19.995	103.851	20.021	5.013	0.507
1202.001	688.344	80.001	19.996	103.851	20.022	4.977	0.538
1204.000	689.386	80.003	19.996	103.849	20.022	4.944	0.515
1206.000	690.385	80.004	19.995	103.856	20.020	5.085	0.521
1208.001	691.342	80.003	19.996	103.859	20.022	4.958	0.483
1210.000	692.342	80.005	19.994	103.866	20.020	5.102	0.512
1212.000	693.349	80.004	19.995	103.861	20.019	5.180	0.486
1214.000	694.335	80.004	19.995	103.848	20.019	5.151	0.511
1216.000	695.324	80.003	19.995	103.852	20.019	5.191	0.502
1218.000	696.346	80.005	19.994	103.853	20.023	4.921	0.480
1220.000	697.301	80.005	19.995	103.869	20.022	4.982	0.480
1222.000	698.365	80.006	19.996	103.861	20.024	4.823	0.497
1224.000	699.334	80.005	19.994	103.863	20.021	5.003	0.502
1226.001	700.358	80.003	19.992	103.862	20.024	4.844	0.526
1228.000	701.373	80.005	19.995	103.851	20.020	5.067	0.503
1230.000	702.323	80.005	19.994	103.844	20.021	5.035	0.501
1232.000	703.351	80.004	19.997	103.853	20.018	5.258	0.521
1234.000	704.371	80.002	19.995	103.855	20.019	5.179	0.493
1236.001	705.392	80.003	19.997	103.859	20.021	5.025	0.506
1238.001	706.416	80.002	19.995	103.855	20.024	4.855	0.523
1240.000	707.399	80.005	19.996	103.846	20.022	4.931	0.526
1242.000	708.404	80.005	19.993	103.857	20.016	5.384	0.493
1244.000	709.414	80.006	19.994	103.848	20.017	5.293	0.502
1246.000	710.410	80.007	19.994	103.842	20.019	5.168	0.499
1248.000	711.437	80.005	19.995	103.844	20.024	4.845	0.517
1250.000	712.432	80.005	19.995	103.853	20.020	5.109	0.500
1252.001	713.486	80.005	19.993	103.851	20.020	5.126	0.509
1254.001	714.452	80.004	19.993	103.853	20.025	4.766	0.487
1256.001	715.459	80.003	19.997	103.847	20.023	4.925	0.517
1258.001	716.492	80.005	19.995	103.852	20.022	4.970	0.524
1260.000	717.518	80.005	19.997	103.854	20.021	5.030	0.520
1262.000	718.529	80.002	19.995	103.849	20.018	5.249	0.497
1264.000	719.561	80.004	19.996	103.848	20.022	4.991	0.518
1266.000	720.526	80.005	19.996	103.850	20.022	4.978	0.474
1268.000	721.519	80.005	19.994	103.844	20.023	4.924	0.500
1270.001	722.505	80.007	19.995	103.848	20.022	4.934	0.483
1272.000	723.487	80.006	19.996	103.852	20.023	4.866	0.508
1274.000	724.472	80.006	19.993	103.845	20.021	5.003	0.487
1276.000	725.462	80.004	19.994	103.846	20.017	5.329	0.480
1278.001	726.461	80.005	19.995	103.862	20.023	4.893	0.516
1280.000	727.456	80.007	19.997	103.869	20.019	5.185	0.492
1282.000	728.501	80.004	19.994	103.865	20.020	5.103	0.494
1284.000	729.472	80.004	19.995	103.847	20.019	5.183	0.515
1286.000	730.467	80.003	19.996	103.848	20.018	5.238	0.514
1288.000	731.486	80.002	19.997	103.843	20.018	5.221	0.506
1290.000	732.466	80.002	19.997	103.850	20.021	5.059	0.468
1292.001	733.498	80.003	19.997	103.845	20.017	5.287	0.542
1294.001	734.526	80.005	19.997	103.848	20.020	5.132	0.520
1296.000	735.501	80.003	19.996	103.844	20.019	5.196	0.504
1298.000	736.567	80.003	19.996	103.842	20.022	4.956	0.520
1300.001	737.533	80.004	19.994	103.842	20.018	5.234	0.499
1302.000	738.611	80.006	19.994	103.839	20.018	5.246	0.530
1304.001	739.657	80.004	19.994	103.848	20.019	5.163	0.552
1306.001	740.694	80.005	19.997	103.848	20.020	5.125	0.495
1308.001	741.740	80.006	19.995	103.854	20.021	5.026	0.525
1310.000	742.784	80.007	19.995	103.859	20.017	5.278	0.522
1311.000	743.306	80.004	19.995	103.851	20.017	5.288	0.525