File: 01_Data/High_Temperature_SCBA_Facepiece/MCC/High_Temperature_SCBA_Facepiece_MCC_30K_min_220204_R3.txt
Sample ID:	C:\MCC\MCC Cal\Test\Scott_HT_SCBA_MCC_30K_min_220204_R3.txt
Sample Weight (mg):	4.38
Heating Rate (C/s):	0.5
Combustor Temp (C):	900
N2 Flow Rate (cc/min):	80
O2 Flow Rate (cc/min):	20
Calibration File:	C:\MCC\MCC Cal\Coeff1 JN10440_30_210304.txt.txt
T Correction Coefficients:	0	1.024463	0
Time Shift (s):	14
*
Time (s)	Temperature (C)	N2 flow rate (cc/min)	O2 flow rate (cc/min)	Flow Rate (cc/min)	Oxygen (%)	HRR (W/g)	Heating rate (C/s)
0.000	112.764	80.004	19.995	103.780	20.052	-0.242	-0.007
2.000	112.790	80.002	19.994	103.785	20.052	-0.193	-0.002
4.000	112.808	80.002	19.995	103.791	20.053	-0.287	-0.007
6.000	112.778	80.003	19.994	103.785	20.053	-0.279	-0.013
8.000	112.760	79.990	19.995	103.772	20.053	-0.305	0.013
10.000	112.750	80.008	19.996	103.766	20.049	-0.026	-0.004
12.000	112.738	80.002	19.996	103.798	20.050	-0.086	-0.002
14.000	112.790	80.002	19.993	103.797	20.044	0.354	0.069
16.001	112.729	79.994	19.995	103.808	20.046	0.257	-0.017
18.000	112.774	80.000	19.996	103.821	20.043	0.473	-0.022
20.000	112.800	79.997	19.995	103.829	20.039	0.723	0.001
22.000	112.853	80.017	19.993	103.839	20.036	0.948	0.038
24.000	112.861	80.007	19.993	103.862	20.033	1.202	0.006
26.001	112.951	79.994	19.996	103.884	20.028	1.598	0.022
28.000	112.994	79.992	19.995	103.897	20.029	1.490	0.012
30.000	113.088	79.992	19.996	103.943	20.018	2.305	0.046
32.000	113.233	80.009	19.995	103.958	20.020	2.142	0.061
34.000	113.387	80.002	19.995	103.950	20.014	2.578	0.086
36.001	113.557	80.001	19.995	103.970	20.013	2.674	0.096
38.000	113.834	80.012	19.993	103.969	20.013	2.708	0.155
40.000	114.042	79.998	19.996	103.965	20.016	2.474	0.120
42.000	114.395	80.012	19.994	103.960	20.013	2.705	0.168
44.000	114.633	79.988	19.995	103.965	20.018	2.299	0.147
46.000	115.066	80.019	19.991	103.962	20.017	2.340	0.200
48.000	115.336	80.002	19.995	103.963	20.008	3.046	0.185
50.000	115.750	80.002	19.994	103.949	20.012	2.730	0.215
52.000	116.141	80.004	19.994	103.960	20.013	2.662	0.202
54.001	116.583	80.005	19.994	103.974	20.009	2.990	0.213
56.000	116.961	80.010	19.993	103.985	20.009	2.946	0.183
58.001	117.483	80.013	19.993	103.987	20.010	2.919	0.294
60.000	117.964	80.011	19.992	103.994	20.010	2.905	0.270
62.000	118.410	79.999	19.995	103.994	20.010	2.872	0.259
64.001	118.866	79.995	19.997	103.986	20.010	2.879	0.239
66.000	119.418	80.014	19.993	103.980	20.006	3.175	0.276
68.001	119.932	80.014	19.993	103.996	20.005	3.240	0.232
70.000	120.488	80.013	19.993	103.991	20.008	3.053	0.281
72.000	121.065	80.006	19.994	103.997	20.005	3.233	0.275
74.000	121.600	80.005	19.994	103.992	20.007	3.090	0.267
76.000	122.212	80.015	19.992	104.012	20.003	3.415	0.296
78.000	122.834	80.008	19.996	104.011	20.005	3.238	0.306
80.000	123.423	80.013	19.994	104.020	20.003	3.387	0.291
82.000	124.062	79.998	19.993	104.037	20.000	3.608	0.302
84.000	124.726	80.001	19.994	104.030	20.000	3.632	0.347
86.000	125.417	79.998	19.994	104.018	19.999	3.685	0.354
88.000	126.029	80.004	19.996	104.008	20.002	3.526	0.317
90.001	126.739	80.008	19.994	104.019	19.999	3.713	0.336
92.001	127.460	80.003	19.995	104.030	20.004	3.328	0.362
94.000	128.205	80.005	19.995	104.028	20.001	3.577	0.375
96.001	128.916	80.005	19.994	104.010	20.000	3.654	0.383
98.001	129.660	79.998	19.996	104.029	19.999	3.703	0.381
100.000	130.439	80.004	19.988	104.020	19.998	3.781	0.390
102.000	131.202	80.003	19.996	104.032	19.998	3.796	0.408
104.000	131.974	80.001	19.997	104.027	19.997	3.873	0.390
106.000	132.789	80.002	19.995	104.027	20.000	3.602	0.411
108.000	133.590	80.003	19.994	104.028	19.999	3.713	0.398
110.000	134.415	80.000	19.992	104.034	20.000	3.650	0.429
112.001	135.190	80.008	19.995	104.051	19.999	3.711	0.387
114.001	136.028	80.004	19.993	104.046	19.997	3.866	0.401
116.000	136.903	79.999	19.993	104.035	19.996	3.917	0.440
118.000	137.707	80.001	19.995	104.034	20.000	3.617	0.404
120.001	138.607	80.011	19.994	104.012	19.999	3.688	0.467
122.000	139.443	80.001	19.999	104.013	19.999	3.707	0.413
124.000	140.288	80.008	19.998	104.019	19.999	3.725	0.447
126.000	141.176	80.007	19.995	104.025	19.999	3.680	0.451
128.000	142.007	80.006	19.994	104.016	20.001	3.585	0.418
130.000	142.943	80.001	19.994	104.003	19.999	3.726	0.469
132.000	143.834	80.005	19.993	104.012	19.998	3.795	0.478
134.000	144.729	80.007	19.996	104.007	19.998	3.766	0.450
136.000	145.636	80.002	19.993	104.002	19.998	3.789	0.429
138.000	146.544	80.002	19.993	104.013	20.000	3.614	0.472
140.000	147.424	80.006	19.995	104.019	19.999	3.720	0.443
142.000	148.349	80.004	19.990	104.031	20.001	3.599	0.459
144.000	149.246	80.007	19.994	104.010	19.999	3.685	0.469
146.000	150.173	80.004	19.994	104.031	19.999	3.701	0.460
148.000	151.035	80.001	19.995	104.025	19.996	3.897	0.447
150.000	152.004	80.001	19.993	104.025	20.000	3.664	0.469
152.000	152.924	80.008	19.991	104.028	20.002	3.475	0.482
154.000	153.830	80.003	19.997	104.026	19.998	3.750	0.478
156.000	154.722	80.011	19.995	104.021	20.000	3.613	0.429
158.000	155.664	80.003	19.994	104.014	20.002	3.509	0.457
160.000	156.567	79.999	19.993	104.018	20.002	3.456	0.428
162.000	157.518	79.999	19.993	104.020	20.000	3.668	0.457
164.000	158.513	80.003	19.994	104.020	20.002	3.471	0.497
166.001	159.400	80.003	19.994	104.017	20.002	3.524	0.450
168.000	160.306	80.004	19.993	104.017	20.001	3.552	0.431
170.000	161.284	80.005	19.995	104.009	20.000	3.658	0.475
172.000	162.238	80.002	19.995	104.000	20.001	3.563	0.492
174.000	163.195	80.003	19.996	104.013	20.004	3.369	0.469
176.000	164.150	80.006	19.995	104.032	20.002	3.484	0.469
178.000	165.118	80.000	19.999	104.012	20.004	3.370	0.507
180.000	166.102	80.001	19.997	104.003	20.002	3.496	0.482
182.000	167.098	80.002	19.993	104.014	20.000	3.606	0.507
184.000	167.996	80.002	19.998	104.028	20.001	3.531	0.487
186.000	168.981	80.007	19.995	104.014	20.002	3.490	0.475
188.000	169.965	80.000	19.998	103.994	19.998	3.792	0.521
190.000	170.906	80.003	19.994	103.997	19.998	3.810	0.448
192.000	171.895	80.006	19.996	104.000	20.001	3.556	0.491
194.000	172.863	80.003	19.995	103.997	19.998	3.785	0.499
196.000	173.827	80.006	19.995	104.006	20.000	3.616	0.469
198.000	174.857	80.010	19.991	104.001	20.003	3.449	0.507
200.000	175.823	80.005	19.994	103.997	19.999	3.733	0.500
202.000	176.792	80.000	19.996	103.997	20.001	3.553	0.475
204.000	177.722	80.005	19.998	104.009	20.003	3.388	0.486
206.001	178.764	80.005	19.996	104.030	20.006	3.207	0.545
208.000	179.737	80.004	19.991	104.012	20.004	3.366	0.470
210.001	180.714	80.004	19.995	103.991	20.005	3.244	0.480
212.000	181.701	80.003	19.996	103.993	20.006	3.183	0.533
214.000	182.698	80.002	19.998	103.992	20.002	3.456	0.498
216.000	183.678	80.003	19.998	104.007	20.004	3.317	0.480
218.000	184.688	80.001	19.998	103.997	20.005	3.262	0.499
220.000	185.695	80.007	19.991	103.997	20.001	3.543	0.500
222.000	186.697	80.005	19.991	104.003	20.004	3.323	0.485
224.000	187.666	80.003	19.989	104.001	20.005	3.239	0.502
226.000	188.642	80.005	19.997	104.003	20.006	3.227	0.483
228.000	189.625	80.007	19.995	103.993	20.004	3.313	0.497
230.000	190.617	80.006	19.995	103.990	20.004	3.315	0.503
232.000	191.581	80.006	19.996	103.988	20.004	3.362	0.460
234.000	192.560	80.004	19.994	103.996	20.006	3.202	0.489
236.000	193.597	80.003	19.995	103.995	20.009	2.999	0.526
238.000	194.537	80.004	19.995	103.993	20.008	3.068	0.484
240.000	195.519	80.004	19.995	103.991	20.003	3.447	0.479
242.000	196.443	80.004	19.996	103.990	20.005	3.243	0.464
244.000	197.444	80.003	19.997	103.991	20.004	3.307	0.481
246.000	198.457	80.003	19.995	103.983	20.004	3.376	0.483
248.000	199.450	80.003	19.994	103.986	20.004	3.323	0.490
250.000	200.417	80.004	19.994	103.975	20.008	3.044	0.477
252.000	201.416	80.003	19.995	103.989	20.011	2.854	0.497
254.000	202.349	80.004	19.997	103.990	20.007	3.096	0.488
256.000	203.325	80.005	19.996	103.991	20.010	2.931	0.487
258.000	204.293	80.005	19.994	103.996	20.011	2.831	0.499
260.000	205.269	80.006	19.994	103.989	20.010	2.921	0.452
262.000	206.269	80.002	20.000	103.993	20.009	2.955	0.485
264.000	207.292	80.002	19.994	103.985	20.009	2.994	0.524
266.000	208.305	80.005	19.996	103.987	20.009	2.992	0.504
268.000	209.269	80.000	19.993	103.980	20.008	3.061	0.479
270.000	210.287	80.005	19.994	103.961	20.010	2.902	0.545
272.000	211.288	80.004	19.994	103.964	20.010	2.874	0.503
274.000	212.260	80.003	19.995	103.962	20.007	3.100	0.500
276.000	213.239	80.003	19.996	103.967	20.007	3.114	0.482
278.000	214.257	80.002	19.994	103.966	20.013	2.637	0.497
280.000	215.254	80.001	19.997	103.966	20.010	2.918	0.489
282.000	216.258	80.003	19.997	103.971	20.005	3.283	0.485
284.000	217.252	80.003	19.989	103.964	20.008	3.006	0.513
286.000	218.214	80.003	19.997	103.972	20.010	2.896	0.465
288.000	219.211	80.003	19.994	103.958	20.009	2.965	0.465
290.000	220.225	80.004	19.995	103.959	20.008	3.010	0.502
292.000	221.179	80.004	19.992	103.959	20.006	3.226	0.481
294.000	222.201	80.006	19.995	103.966	20.006	3.224	0.500
296.000	223.176	80.003	19.994	103.976	20.010	2.877	0.487
298.000	224.161	80.003	19.995	103.964	20.009	2.938	0.489
300.000	225.126	80.003	19.995	103.956	20.007	3.085	0.483
302.000	226.144	80.001	19.999	103.952	20.006	3.173	0.522
304.000	227.138	80.004	19.996	103.948	20.005	3.248	0.512
306.000	228.101	80.005	19.991	103.952	20.005	3.283	0.492
308.000	229.119	80.002	20.000	103.953	20.006	3.218	0.517
310.001	230.169	80.004	19.995	103.947	20.005	3.293	0.504
312.000	231.160	80.005	19.995	103.949	20.007	3.130	0.510
314.000	232.125	80.005	19.996	103.951	20.008	3.022	0.519
316.000	233.076	80.004	19.997	103.951	20.010	2.886	0.500
318.000	234.076	80.001	19.996	103.950	20.006	3.163	0.513
320.000	235.044	80.005	19.992	103.949	20.007	3.083	0.485
322.000	236.038	80.004	19.994	103.954	20.010	2.902	0.484
324.000	237.040	80.004	19.994	103.955	20.011	2.804	0.494
326.000	238.012	80.002	19.995	103.955	20.013	2.696	0.465
328.000	238.984	80.004	19.994	103.956	20.011	2.857	0.499
330.000	239.990	80.001	19.995	103.957	20.011	2.802	0.496
332.000	240.983	80.002	19.994	103.959	20.013	2.661	0.500
334.000	241.942	80.003	19.995	103.958	20.010	2.926	0.494
336.000	242.915	80.002	19.995	103.957	20.009	2.973	0.502
338.000	243.953	80.002	19.995	103.958	20.007	3.150	0.510
340.000	244.929	80.004	19.995	103.957	20.011	2.846	0.488
342.000	245.928	80.003	19.994	103.955	20.008	3.056	0.496
344.000	246.914	80.001	19.995	103.949	20.009	2.963	0.472
346.000	247.881	80.005	19.995	103.947	20.010	2.901	0.492
348.000	248.838	80.004	19.993	103.937	20.010	2.867	0.471
350.000	249.845	80.004	19.994	103.941	20.012	2.730	0.495
352.000	250.791	80.003	19.993	103.942	20.012	2.744	0.468
354.000	251.821	80.003	19.995	103.946	20.008	3.018	0.499
356.000	252.772	80.003	19.993	103.944	20.012	2.741	0.496
358.000	253.758	80.004	19.994	103.935	20.014	2.604	0.496
360.000	254.686	80.003	19.994	103.943	20.012	2.747	0.474
362.000	255.699	80.003	19.995	103.923	20.010	2.922	0.514
364.000	256.621	80.003	19.996	103.948	20.013	2.670	0.463
366.000	257.609	80.001	19.995	103.951	20.013	2.670	0.485
368.000	258.556	80.003	19.994	103.943	20.015	2.502	0.479
370.001	259.532	80.002	19.997	103.951	20.010	2.883	0.463
372.000	260.528	80.005	19.996	103.953	20.014	2.635	0.497
374.000	261.504	80.003	19.995	103.953	20.014	2.584	0.498
376.000	262.413	80.004	19.996	103.954	20.010	2.920	0.485
378.000	263.432	80.003	19.996	103.954	20.011	2.841	0.503
380.000	264.450	80.003	19.994	103.951	20.012	2.759	0.485
382.001	265.465	80.003	19.994	103.953	20.013	2.708	0.493
384.000	266.432	80.004	19.994	103.956	20.013	2.698	0.481
386.000	267.458	80.003	19.995	103.954	20.014	2.627	0.552
388.000	268.434	80.003	19.994	103.955	20.010	2.904	0.482
390.000	269.466	80.004	19.994	103.954	20.009	2.943	0.492
392.001	270.504	80.004	19.995	103.954	20.009	2.939	0.533
394.000	271.537	80.003	19.994	103.954	20.010	2.890	0.501
396.000	272.569	80.004	19.995	103.950	20.012	2.731	0.520
398.000	273.586	80.006	19.994	103.953	20.009	2.957	0.499
400.000	274.631	80.006	19.994	103.953	20.009	2.937	0.514
402.000	275.654	80.004	19.995	103.949	20.013	2.704	0.502
404.000	276.725	80.004	19.994	103.952	20.014	2.582	0.524
406.000	277.744	80.003	19.995	103.952	20.014	2.584	0.539
408.000	278.753	80.003	19.995	103.945	20.014	2.572	0.514
410.000	279.809	80.004	19.995	103.955	20.015	2.537	0.523
412.000	280.802	80.004	19.994	103.955	20.013	2.643	0.491
414.000	281.855	80.001	19.995	103.949	20.014	2.608	0.526
416.000	282.905	80.004	19.994	103.937	20.013	2.688	0.529
418.000	283.994	80.004	19.993	103.938	20.015	2.551	0.540
420.000	284.999	80.002	19.994	103.953	20.013	2.663	0.516
422.000	286.043	80.003	19.994	103.955	20.015	2.555	0.530
424.000	287.075	80.004	19.995	103.951	20.015	2.547	0.520
426.000	288.149	80.005	19.994	103.938	20.015	2.527	0.542
428.000	289.142	80.004	19.995	103.933	20.014	2.567	0.505
430.001	290.164	80.003	19.994	103.917	20.015	2.510	0.523
432.000	291.251	80.003	19.994	103.943	20.016	2.436	0.527
434.000	292.247	80.003	19.995	103.945	20.014	2.599	0.494
436.000	293.269	80.003	19.995	103.948	20.015	2.514	0.492
438.000	294.305	80.003	19.996	103.944	20.015	2.512	0.504
440.000	295.297	80.003	19.995	103.928	20.014	2.575	0.513
442.000	296.334	80.003	19.994	103.921	20.018	2.272	0.492
444.000	297.344	80.003	19.994	103.917	20.016	2.447	0.518
446.000	298.379	80.003	19.993	103.921	20.014	2.569	0.502
448.000	299.358	80.004	19.994	103.930	20.015	2.539	0.494
450.000	300.342	80.004	19.994	103.915	20.016	2.416	0.472
452.000	301.352	80.005	19.994	103.917	20.015	2.492	0.500
454.000	302.350	80.005	19.996	103.934	20.019	2.245	0.525
456.000	303.361	80.006	19.994	103.922	20.019	2.257	0.507
458.000	304.301	80.004	19.994	103.929	20.019	2.251	0.487
460.000	305.296	80.004	19.994	103.925	20.015	2.498	0.490
462.000	306.246	80.004	19.993	103.921	20.015	2.528	0.461
464.000	307.265	80.004	19.994	103.922	20.015	2.536	0.519
466.000	308.255	80.005	19.994	103.917	20.017	2.379	0.490
468.000	309.276	80.005	19.994	103.918	20.014	2.634	0.515
470.000	310.275	80.004	19.994	103.922	20.012	2.730	0.509
472.000	311.247	80.005	19.995	103.917	20.016	2.426	0.482
474.000	312.279	80.005	19.993	103.919	20.015	2.532	0.518
476.000	313.241	80.005	19.994	103.918	20.016	2.434	0.499
478.000	314.254	80.005	19.994	103.918	20.016	2.465	0.518
480.000	315.168	80.007	19.994	103.922	20.014	2.614	0.494
482.000	316.136	80.005	19.994	103.916	20.015	2.506	0.450
484.000	317.109	80.003	19.996	103.922	20.014	2.579	0.483
486.000	318.088	80.003	19.994	103.916	20.014	2.561	0.474
488.000	319.045	80.004	19.995	103.918	20.016	2.461	0.495
490.000	320.035	80.004	19.995	103.914	20.013	2.665	0.490
492.000	321.010	80.004	19.995	103.914	20.017	2.343	0.484
494.000	321.962	80.003	19.995	103.913	20.016	2.414	0.452
496.000	322.887	80.004	19.994	103.914	20.014	2.593	0.450
498.000	323.899	80.003	19.995	103.917	20.015	2.532	0.481
500.000	324.845	80.003	19.995	103.920	20.012	2.752	0.482
502.000	325.844	80.003	19.995	103.918	20.013	2.666	0.538
504.000	326.809	80.003	19.995	103.917	20.011	2.787	0.458
506.000	327.819	80.003	19.995	103.916	20.012	2.713	0.503
508.000	328.774	80.004	19.994	103.916	20.009	2.940	0.465
510.000	329.753	80.004	19.994	103.918	20.010	2.909	0.472
512.000	330.762	80.005	19.994	103.915	20.012	2.730	0.514
514.000	331.722	80.002	19.995	103.914	20.010	2.909	0.480
516.000	332.722	80.003	19.995	103.918	20.007	3.131	0.497
518.000	333.742	80.003	19.994	103.917	20.011	2.783	0.531
520.000	334.760	80.002	19.994	103.926	20.007	3.134	0.512
522.000	335.755	80.002	19.995	103.925	20.012	2.773	0.517
524.001	336.713	80.004	19.993	103.919	20.010	2.885	0.488
526.000	337.783	80.004	19.994	103.915	20.010	2.909	0.499
528.000	338.741	80.003	19.995	103.916	20.014	2.626	0.498
530.000	339.792	80.003	19.994	103.928	20.010	2.889	0.505
532.000	340.826	80.004	19.994	103.941	20.009	2.946	0.536
534.000	341.848	80.004	19.995	103.927	20.009	2.960	0.493
536.000	342.870	80.006	19.994	103.922	20.014	2.565	0.553
538.000	343.853	80.005	19.994	103.917	20.010	2.873	0.462
540.000	344.884	80.004	19.994	103.911	20.011	2.811	0.498
542.000	345.931	80.004	19.993	103.922	20.012	2.777	0.523
544.000	346.973	80.004	19.993	103.925	20.011	2.845	0.531
546.000	347.993	80.005	19.994	103.924	20.012	2.716	0.511
548.000	349.007	80.004	19.994	103.923	20.011	2.801	0.509
550.000	350.101	80.004	19.994	103.922	20.010	2.891	0.548
552.001	351.134	80.004	19.995	103.876	20.011	2.803	0.501
554.000	352.163	80.005	19.995	103.879	20.010	2.917	0.522
556.000	353.224	80.005	19.994	103.977	20.010	2.860	0.529
558.000	354.336	80.006	19.994	103.908	20.013	2.664	0.546
560.000	355.404	80.006	19.994	103.911	20.017	2.349	0.536
562.000	356.387	80.005	19.995	103.914	20.012	2.752	0.514
564.000	357.492	80.004	19.995	103.917	20.012	2.720	0.524
566.000	358.484	80.005	19.994	103.917	20.011	2.819	0.490
568.001	359.555	80.006	19.994	103.913	20.010	2.889	0.528
570.000	360.575	80.004	19.994	103.914	20.011	2.805	0.531
572.000	361.649	80.004	19.996	103.915	20.012	2.748	0.553
574.000	362.699	80.003	19.995	103.915	20.011	2.838	0.514
576.000	363.710	80.004	19.995	103.916	20.010	2.907	0.510
578.000	364.760	80.001	19.995	103.914	20.011	2.795	0.538
580.000	365.784	80.002	19.996	103.915	20.010	2.887	0.493
582.000	366.847	80.003	19.995	103.914	20.007	3.098	0.497
584.000	367.881	80.001	19.996	103.915	20.010	2.899	0.518
586.000	368.966	80.003	19.995	103.916	20.010	2.905	0.543
588.001	370.003	80.004	19.996	103.916	20.010	2.899	0.539
590.000	371.016	80.004	19.996	103.918	20.010	2.878	0.538
592.000	372.065	80.003	19.995	103.920	20.010	2.925	0.532
594.000	373.135	80.002	19.995	103.915	20.009	3.002	0.548
596.000	374.206	80.002	19.995	103.913	20.010	2.903	0.514
598.000	375.217	80.003	19.994	103.915	20.012	2.766	0.540
600.001	376.277	80.002	19.994	103.909	20.014	2.615	0.536
602.000	377.271	80.003	19.994	103.902	20.009	2.933	0.496
604.000	378.325	80.002	19.995	103.908	20.009	2.975	0.517
606.000	379.365	80.003	19.994	103.901	20.007	3.105	0.522
608.000	380.407	80.001	19.994	103.912	20.007	3.136	0.489
610.000	381.421	80.002	19.995	103.911	20.007	3.133	0.512
612.000	382.445	80.003	19.994	103.907	20.012	2.756	0.525
614.000	383.504	80.003	19.993	103.895	20.010	2.911	0.499
616.000	384.474	80.004	19.995	103.851	20.010	2.907	0.488
618.000	385.508	80.004	19.995	103.955	20.012	2.764	0.513
620.000	386.511	80.005	19.995	103.902	20.009	2.978	0.485
622.000	387.522	80.004	19.994	103.905	20.008	3.029	0.485
624.000	388.510	80.004	19.994	103.900	20.006	3.208	0.490
626.001	389.547	80.003	19.994	103.906	20.006	3.190	0.516
628.000	390.572	80.004	19.994	103.907	20.006	3.212	0.490
630.001	391.579	80.004	19.995	103.911	20.008	3.066	0.502
632.000	392.599	80.005	19.994	103.911	20.007	3.084	0.503
634.000	393.607	80.004	19.994	103.906	20.007	3.115	0.517
636.000	394.591	80.005	19.996	103.913	20.005	3.265	0.471
638.000	395.614	80.005	19.994	103.913	20.002	3.459	0.489
640.000	396.659	80.006	19.994	103.915	20.003	3.378	0.528
642.000	397.672	80.007	19.994	103.905	20.003	3.426	0.508
644.000	398.685	80.005	19.993	103.910	20.003	3.396	0.493
646.000	399.765	80.006	19.994	103.912	20.002	3.461	0.517
648.000	400.758	80.005	19.994	103.912	20.003	3.439	0.493
650.000	401.767	80.003	19.994	103.916	20.002	3.469	0.517
652.000	402.904	80.003	19.994	103.924	19.998	3.775	0.553
654.000	403.911	80.003	19.994	103.906	19.999	3.734	0.508
656.000	404.943	80.003	19.994	103.912	20.001	3.553	0.526
658.000	405.953	80.002	19.994	103.919	20.002	3.493	0.498
660.000	407.060	80.003	19.994	103.920	19.997	3.832	0.553
662.000	408.063	80.003	19.995	103.923	20.000	3.618	0.508
664.000	409.112	80.004	19.995	103.931	20.001	3.577	0.531
666.000	410.169	80.003	19.995	103.918	20.002	3.485	0.538
668.000	411.227	80.004	19.994	103.913	19.998	3.817	0.508
670.000	412.287	80.003	19.993	103.903	19.998	3.807	0.566
672.000	413.323	80.003	19.994	103.910	20.001	3.571	0.549
674.000	414.305	80.002	19.994	103.912	19.996	3.911	0.482
676.000	415.339	80.001	19.996	103.905	19.997	3.825	0.535
678.000	416.372	80.002	19.995	103.904	19.995	4.006	0.516
680.000	417.406	80.004	19.996	103.892	19.995	4.004	0.519
682.000	418.430	80.002	19.995	103.911	19.996	3.945	0.512
684.000	419.483	80.002	19.995	103.903	19.992	4.243	0.519
686.000	420.543	80.002	19.995	103.905	19.988	4.512	0.528
688.000	421.519	80.001	19.995	103.901	19.988	4.504	0.477
690.000	422.543	80.002	19.994	103.905	19.988	4.494	0.516
692.000	423.559	80.002	19.994	103.898	19.988	4.500	0.475
694.000	424.525	80.003	19.995	103.904	19.983	4.903	0.485
696.000	425.562	80.004	19.994	103.906	19.984	4.844	0.469
698.000	426.559	80.005	19.995	103.916	19.980	5.086	0.469
700.000	427.534	80.006	19.994	103.916	19.974	5.536	0.482
702.000	428.558	80.006	19.994	103.916	19.973	5.620	0.485
704.000	429.564	80.005	19.994	103.912	19.965	6.200	0.505
706.000	430.540	80.006	19.995	103.906	19.964	6.333	0.505
708.000	431.556	80.004	19.995	103.904	19.960	6.574	0.511
710.000	432.537	80.005	19.993	103.910	19.955	6.950	0.472
712.000	433.558	80.004	19.994	103.899	19.950	7.326	0.534
714.000	434.575	80.005	19.994	103.903	19.945	7.692	0.502
716.000	435.596	80.004	19.994	103.909	19.937	8.317	0.503
718.000	436.568	80.005	19.994	103.913	19.932	8.702	0.497
720.000	437.540	80.006	19.994	103.914	19.924	9.232	0.518
722.000	438.572	80.005	19.994	103.889	19.915	9.949	0.481
724.000	439.560	80.006	19.994	103.905	19.904	10.737	0.489
726.000	440.558	80.006	19.995	103.907	19.894	11.483	0.523
728.000	441.593	80.008	19.995	103.906	19.882	12.391	0.509
730.000	442.547	80.006	19.995	103.912	19.873	13.043	0.494
732.000	443.596	80.005	19.994	103.916	19.860	14.031	0.519
734.000	444.599	80.003	19.994	103.917	19.846	15.005	0.487
736.000	445.592	80.004	19.995	103.915	19.830	16.250	0.494
738.000	446.618	80.003	19.994	103.911	19.812	17.547	0.505
740.000	447.624	80.003	19.994	103.911	19.799	18.513	0.479
742.000	448.615	80.003	19.995	103.913	19.787	19.433	0.509
744.000	449.642	80.004	19.994	103.915	19.777	20.111	0.517
746.000	450.658	80.004	19.995	103.912	19.762	21.275	0.503
748.000	451.699	80.004	19.995	103.912	19.748	22.267	0.501
750.000	452.670	80.003	19.995	103.915	19.737	23.118	0.492
752.000	453.700	80.004	19.995	103.916	19.731	23.542	0.497
754.000	454.732	80.004	19.996	103.909	19.734	23.355	0.519
756.000	455.780	80.004	19.995	103.910	19.727	23.809	0.532
758.000	456.788	80.003	19.995	103.912	19.719	24.445	0.482
760.000	457.836	80.005	19.996	103.919	19.712	24.929	0.498
762.000	458.860	80.005	19.995	103.940	19.707	25.354	0.539
764.000	459.904	80.004	19.996	103.942	19.716	24.649	0.523
766.000	460.928	80.004	19.996	103.895	19.728	23.753	0.524
768.000	462.016	80.004	19.995	103.887	19.730	23.608	0.537
770.000	463.007	80.003	19.995	103.930	19.721	24.280	0.510
772.000	463.982	80.003	19.995	103.973	19.705	25.475	0.485
774.000	465.031	80.004	19.994	103.964	19.683	27.096	0.534
776.000	466.044	80.004	19.996	103.925	19.656	29.069	0.548
778.001	467.096	80.005	19.996	103.904	19.622	31.594	0.531
780.000	468.068	80.005	19.996	103.915	19.592	33.843	0.471
782.000	469.084	80.005	19.997	103.936	19.552	36.801	0.512
784.000	470.120	80.005	19.995	103.958	19.502	40.463	0.503
786.000	471.155	80.005	19.994	103.943	19.462	43.438	0.482
788.000	472.252	80.006	19.994	103.924	19.442	44.958	0.544
790.000	473.246	80.006	19.994	103.916	19.427	46.107	0.547
792.000	474.275	80.006	19.994	103.926	19.461	43.589	0.422
794.000	475.393	80.006	19.996	103.885	19.507	40.146	0.545
796.000	476.192	80.004	19.993	103.899	19.535	38.056	0.371
798.000	476.964	80.005	19.993	103.990	19.522	38.995	-0.183
800.000	478.356	80.005	19.993	104.084	19.467	43.076	0.724
802.000	479.480	80.004	19.995	104.115	19.371	50.234	0.771
804.000	480.465	80.006	19.993	104.059	19.264	58.109	0.475
806.000	481.539	80.007	19.995	103.991	19.161	65.712	0.607
808.000	482.646	80.006	19.996	103.910	19.073	72.218	0.456
810.000	483.607	80.007	19.994	103.886	18.995	78.057	0.570
812.001	484.597	80.006	19.994	103.904	18.924	83.357	0.460
814.000	485.599	80.005	19.994	103.955	18.883	86.422	0.444
816.000	486.608	80.004	19.994	103.947	18.878	86.858	0.500
818.000	487.703	80.005	19.995	103.920	18.887	86.123	0.563
820.000	488.664	80.005	19.994	103.919	18.894	85.524	0.562
822.000	489.618	80.005	19.993	103.987	18.881	86.511	0.538
824.000	490.672	80.005	19.994	104.052	18.821	90.968	0.477
826.000	491.682	80.005	19.995	104.104	18.768	95.054	0.496
828.000	492.686	80.005	19.994	104.064	18.723	98.393	0.493
830.000	493.720	80.006	19.993	103.983	18.689	100.810	0.489
832.000	494.732	80.005	19.993	103.967	18.655	103.302	0.525
834.000	495.702	80.005	19.994	103.985	18.567	109.865	0.508
836.000	496.712	80.004	19.994	104.100	18.446	118.818	0.497
838.000	497.710	80.005	19.994	104.179	18.342	126.522	0.496
840.000	498.767	80.006	19.995	104.086	18.243	133.934	0.544
842.000	499.720	80.003	19.996	103.995	18.141	141.580	0.484
844.000	500.732	80.003	19.994	104.030	18.062	147.338	0.512
846.000	501.739	80.003	19.994	104.039	17.996	152.282	0.510
848.000	502.752	80.003	19.994	104.055	17.920	157.989	0.518
850.000	503.803	80.004	19.995	104.080	17.845	163.507	0.508
852.000	504.769	80.003	19.995	104.116	17.774	168.816	0.499
854.000	505.835	80.005	19.995	104.137	17.707	173.725	0.541
856.000	506.843	80.005	19.994	104.099	17.623	180.009	0.502
858.001	507.853	80.004	19.994	104.138	17.540	186.288	0.519
860.000	508.910	80.005	19.994	104.171	17.461	192.186	0.521
862.000	509.922	80.006	19.995	104.152	17.377	198.398	0.509
864.000	510.938	80.006	19.994	104.146	17.301	204.095	0.497
866.000	511.945	80.005	19.994	104.150	17.223	209.853	0.481
868.000	512.940	80.004	19.995	104.192	17.135	216.425	0.515
870.000	513.987	80.005	19.995	104.228	17.035	223.862	0.519
872.000	515.071	80.004	19.995	104.247	16.934	231.383	0.534
874.000	516.039	80.005	19.995	104.247	16.828	239.269	0.470
876.000	517.152	80.005	19.996	104.242	16.718	247.451	0.540
878.000	518.138	80.004	19.995	104.242	16.602	256.087	0.533
880.000	519.188	80.005	19.995	104.260	16.494	264.174	0.505
882.000	520.153	80.007	19.995	104.262	16.390	271.860	0.481
884.000	521.221	80.007	19.993	104.275	16.299	278.663	0.508
886.000	522.213	80.006	19.994	104.282	16.220	284.437	0.485
888.000	523.248	80.008	19.993	104.289	16.155	289.223	0.507
890.000	524.283	80.008	19.994	104.305	16.102	293.140	0.528
892.000	525.259	80.008	19.994	104.307	16.060	296.359	0.502
894.000	526.323	80.005	19.994	104.330	16.050	297.095	0.484
896.000	527.292	80.007	19.993	104.312	16.059	296.339	0.467
898.000	528.349	80.003	19.994	104.287	16.096	293.571	0.523
900.000	529.341	80.005	19.995	104.272	16.164	288.498	0.485
902.000	530.421	80.005	19.995	104.277	16.263	281.080	0.564
904.000	531.437	80.004	19.994	104.288	16.390	271.557	0.533
906.000	532.435	80.005	19.994	104.274	16.545	260.082	0.539
908.001	533.474	80.003	19.996	104.266	16.733	246.066	0.541
910.000	534.510	80.006	19.994	104.253	16.951	229.868	0.536
912.000	535.530	80.006	19.994	104.224	17.187	212.294	0.508
914.000	536.480	80.006	19.995	104.201	17.432	194.085	0.490
916.000	537.531	80.005	19.993	104.194	17.690	174.955	0.508
918.000	538.556	80.004	19.994	104.190	17.945	156.004	0.518
920.001	539.535	80.005	19.993	104.184	18.190	137.798	0.508
922.000	540.565	80.004	19.995	104.162	18.418	120.843	0.519
924.000	541.561	80.006	19.994	104.127	18.628	105.262	0.495
926.000	542.585	80.004	19.994	104.119	18.831	90.246	0.505
928.000	543.580	80.004	19.994	104.106	18.991	78.368	0.497
930.000	544.574	80.003	19.995	104.079	19.133	67.836	0.491
932.000	545.545	80.004	19.994	104.040	19.257	58.652	0.479
934.000	546.601	80.002	19.996	104.019	19.356	51.330	0.512
936.000	547.622	80.004	19.996	103.994	19.442	44.958	0.518
938.000	548.592	80.004	19.995	103.982	19.512	39.757	0.481
940.000	549.643	80.005	19.995	103.960	19.575	35.122	0.515
942.000	550.677	80.004	19.995	103.939	19.620	31.731	0.510
944.000	551.660	80.006	19.994	103.929	19.662	28.659	0.491
946.000	552.698	80.005	19.995	103.924	19.697	26.036	0.521
948.000	553.728	80.007	19.993	103.913	19.721	24.296	0.516
950.000	554.737	80.006	19.995	103.910	19.745	22.508	0.530
952.000	555.749	80.005	19.994	103.901	19.766	20.936	0.484
954.000	556.776	80.006	19.994	103.901	19.782	19.731	0.533
956.000	557.774	80.006	19.994	103.905	19.793	18.968	0.470
958.000	558.830	80.005	19.995	103.896	19.812	17.512	0.547
960.000	559.839	80.006	19.995	103.890	19.821	16.880	0.511
962.000	560.850	80.005	19.996	103.907	19.833	15.966	0.478
964.000	561.866	80.006	19.996	103.902	19.840	15.453	0.525
966.000	562.917	80.005	19.996	103.899	19.850	14.699	0.517
968.000	563.931	80.006	19.995	103.891	19.855	14.328	0.531
970.000	564.921	80.007	19.997	103.879	19.863	13.751	0.485
972.000	565.953	80.007	19.994	103.887	19.868	13.424	0.510
974.000	566.997	80.007	19.995	103.895	19.871	13.200	0.511
976.000	567.980	80.005	19.995	103.878	19.876	12.816	0.496
978.000	569.055	80.006	19.993	103.893	19.876	12.787	0.542
980.000	570.110	80.005	19.993	103.894	19.876	12.800	0.498
982.000	571.116	80.003	19.994	103.885	19.883	12.313	0.516
984.000	572.190	80.003	19.994	103.890	19.886	12.101	0.547
986.000	573.227	80.002	19.995	103.899	19.888	11.925	0.550
988.000	574.258	80.004	19.993	103.880	19.892	11.652	0.533
990.000	575.304	80.004	19.994	103.885	19.893	11.560	0.534
992.000	576.290	80.003	19.994	103.885	19.895	11.412	0.507
994.000	577.334	80.005	19.993	103.884	19.897	11.255	0.508
996.000	578.374	80.003	19.994	103.898	19.896	11.345	0.551
998.000	579.430	80.004	19.994	103.882	19.898	11.184	0.518
1000.000	580.485	80.005	19.995	103.886	19.899	11.072	0.522
1002.000	581.510	80.004	19.994	103.892	19.904	10.711	0.515
1004.000	582.523	80.004	19.994	103.899	19.906	10.606	0.509
1006.000	583.560	80.005	19.994	103.889	19.902	10.857	0.516
1008.000	584.526	80.004	19.993	103.876	19.905	10.634	0.476
1010.000	585.552	80.004	19.993	103.877	19.906	10.560	0.494
1012.000	586.597	80.003	19.994	103.879	19.905	10.664	0.542
1014.000	587.623	80.004	19.994	103.881	19.908	10.470	0.522
1016.000	588.672	80.004	19.994	103.887	19.907	10.515	0.531
1018.000	589.685	80.004	19.994	103.887	19.909	10.395	0.509
1020.000	590.691	80.004	19.994	103.891	19.907	10.492	0.513
1022.000	591.673	80.004	19.994	103.884	19.911	10.182	0.494
1024.001	592.750	80.006	19.995	103.895	19.913	10.106	0.538
1026.000	593.741	80.006	19.995	103.889	19.911	10.210	0.521
1028.001	594.732	80.006	19.994	103.882	19.911	10.192	0.481
1030.000	595.779	80.005	19.995	103.877	19.914	10.028	0.480
1032.000	596.773	80.006	19.995	103.886	19.911	10.186	0.515
1034.000	597.820	80.005	19.996	103.875	19.912	10.143	0.512
1036.000	598.800	80.006	19.995	103.874	19.912	10.119	0.487
1038.001	599.841	80.004	19.995	103.879	19.916	9.873	0.519
1040.000	600.857	80.005	19.993	103.878	19.916	9.827	0.528
1042.000	601.823	80.005	19.994	103.885	19.917	9.738	0.496
1044.000	602.828	80.005	19.994	103.882	19.918	9.695	0.508
1046.001	603.866	80.006	19.994	103.879	19.921	9.453	0.505
1048.000	604.903	80.006	19.994	103.891	19.924	9.257	0.520
1050.001	605.882	80.005	19.995	103.882	19.925	9.184	0.473
1052.000	606.890	80.006	19.994	103.879	19.924	9.268	0.498
1054.000	607.932	80.006	19.995	103.881	19.924	9.245	0.510
1056.000	608.920	80.007	19.995	103.876	19.930	8.801	0.501
1058.000	609.948	80.004	19.995	103.877	19.936	8.390	0.479
1060.000	610.980	80.004	19.996	103.878	19.929	8.882	0.499
1062.001	612.028	80.004	19.994	103.879	19.933	8.606	0.552
1064.001	613.016	80.004	19.995	103.878	19.933	8.564	0.476
1066.000	614.050	80.003	19.994	103.878	19.934	8.532	0.519
1068.000	615.084	80.005	19.994	103.879	19.939	8.148	0.515
1070.000	616.118	80.005	19.994	103.876	19.938	8.207	0.520
1072.000	617.155	80.006	19.995	103.831	19.938	8.208	0.543
1074.000	618.170	80.005	19.994	103.922	19.941	7.982	0.522
1076.000	619.139	80.005	19.994	103.928	19.939	8.161	0.515
1078.001	620.183	80.006	19.993	103.871	19.940	8.034	0.529
1080.001	621.165	80.004	19.995	103.858	19.944	7.776	0.506
1082.000	622.193	80.004	19.995	103.869	19.945	7.726	0.511
1084.001	623.196	80.005	19.995	103.872	19.947	7.570	0.479
1086.000	624.201	80.005	19.995	103.868	19.945	7.734	0.506
1088.000	625.197	80.004	19.995	103.871	19.949	7.410	0.492
1090.000	626.210	80.005	19.994	103.857	19.951	7.282	0.521
1092.001	627.223	80.004	19.994	103.863	19.949	7.408	0.507
1094.000	628.273	80.003	19.994	103.863	19.948	7.475	0.526
1096.000	629.328	80.004	19.996	103.874	19.952	7.199	0.558
1098.000	630.273	80.003	19.996	103.873	19.952	7.160	0.515
1100.000	631.344	80.004	19.994	103.875	19.952	7.182	0.509
1102.001	632.347	80.004	19.994	103.875	19.955	6.938	0.513
1104.001	633.383	80.006	19.994	103.879	19.957	6.810	0.497
1106.000	634.411	80.005	19.994	103.877	19.961	6.508	0.498
1108.001	635.422	80.005	19.995	103.880	19.959	6.653	0.495
1110.000	636.510	80.005	19.994	103.874	19.958	6.703	0.531
1112.000	637.513	80.007	19.993	103.878	19.959	6.630	0.512
1114.001	638.535	80.006	19.995	103.877	19.962	6.476	0.518
1116.000	639.540	80.006	19.994	103.880	19.963	6.394	0.487
1118.000	640.591	80.006	19.995	103.877	19.962	6.447	0.531
1120.000	641.610	80.004	19.994	103.876	19.959	6.673	0.516
1122.000	642.639	80.004	19.994	103.873	19.962	6.463	0.514
1124.001	643.664	80.005	19.995	103.878	19.963	6.374	0.519
1126.000	644.648	80.005	19.994	103.879	19.963	6.334	0.469
1128.000	645.713	80.005	19.995	103.872	19.963	6.379	0.506
1130.001	646.689	80.006	19.994	103.873	19.963	6.362	0.494
1132.000	647.714	80.006	19.995	103.864	19.965	6.210	0.527
1134.000	648.725	80.007	19.995	103.869	19.969	5.953	0.548
1136.000	649.742	80.007	19.994	103.869	19.967	6.051	0.535
1138.000	650.742	80.007	19.994	103.865	19.970	5.828	0.522
1140.000	651.771	80.004	19.994	103.861	19.967	6.046	0.501
1142.000	652.787	80.003	19.994	103.856	19.968	5.974	0.504
1144.000	653.762	80.003	19.995	103.866	19.967	6.066	0.482
1146.000	654.797	80.003	19.995	103.863	19.968	6.036	0.522
1148.000	655.860	80.003	19.996	103.870	19.970	5.816	0.520
1150.000	656.848	80.002	19.996	103.872	19.971	5.744	0.514
1152.000	657.847	80.002	19.995	103.879	19.971	5.783	0.503
1154.000	658.834	80.001	19.995	103.874	19.969	5.893	0.520
1156.000	659.884	80.003	19.995	103.874	19.969	5.910	0.517
1158.000	660.868	80.004	19.996	103.873	19.971	5.796	0.510
1160.000	661.834	80.004	19.995	103.869	19.972	5.704	0.522
1162.000	662.948	80.004	19.995	103.872	19.970	5.864	0.527
1164.000	663.915	80.005	19.995	103.870	19.971	5.793	0.521
1166.000	664.909	80.004	19.994	103.864	19.967	6.063	0.542
1168.000	665.924	80.002	19.995	103.848	19.967	6.071	0.508
1170.001	666.942	80.005	19.994	103.860	19.968	5.983	0.504
1172.000	667.924	80.004	19.994	103.878	19.972	5.725	0.518
1174.000	668.961	80.004	19.994	103.868	19.973	5.630	0.509
1176.000	670.001	80.003	19.994	103.880	19.971	5.793	0.508
1178.000	671.010	80.004	19.994	103.890	19.972	5.710	0.524
1180.000	672.018	80.003	19.993	103.891	19.972	5.722	0.490
1182.001	672.983	80.004	19.994	103.876	19.972	5.727	0.499
1184.000	674.028	80.004	19.994	103.854	19.968	5.970	0.504
1186.000	675.110	80.004	19.994	103.867	19.968	6.003	0.542
1188.001	676.140	80.005	19.994	103.880	19.967	6.099	0.551
1190.000	677.109	80.006	19.994	103.872	19.970	5.885	0.468
1192.000	677.969	80.006	19.995	103.870	19.971	5.798	0.401
1194.000	679.111	80.005	19.994	103.855	19.970	5.848	0.498
1196.000	680.115	80.005	19.993	103.875	19.970	5.818	0.500
1198.000	681.104	80.005	19.994	103.879	19.969	5.891	0.503
1200.000	682.102	80.004	19.995	103.876	19.971	5.810	0.495
1202.000	683.103	80.006	19.994	103.877	19.971	5.743	0.494
1204.001	684.121	80.004	19.994	103.880	19.971	5.791	0.526
1206.000	685.195	80.005	19.994	103.873	19.971	5.781	0.541
1208.001	686.163	80.004	19.994	103.874	19.973	5.653	0.481
1210.000	687.161	80.004	19.992	103.875	19.974	5.544	0.490
1212.000	688.164	80.025	20.001	103.890	19.970	5.815	0.514
1214.000	689.176	80.006	19.996	103.886	19.970	5.829	0.511
1216.000	690.190	80.007	19.995	103.872	19.970	5.835	0.516
1218.001	691.134	80.007	19.994	103.873	19.965	6.207	0.494
1220.000	692.127	80.006	19.994	103.872	19.971	5.789	0.507
1222.000	693.133	80.004	19.994	103.866	19.969	5.936	0.508
1224.000	694.089	80.005	19.994	103.867	19.968	5.999	0.464
1226.000	695.040	80.004	19.995	103.859	19.968	5.973	0.481
1228.000	695.969	80.004	19.995	103.875	19.966	6.164	0.441
1230.000	696.903	80.004	19.995	103.874	19.969	5.912	0.461
1232.000	697.872	80.005	19.995	103.874	19.967	6.085	0.473
1234.000	698.830	80.004	19.995	103.874	19.969	5.938	0.469
1236.001	699.776	80.004	19.994	103.876	19.967	6.103	0.464
1238.000	700.720	80.004	19.995	103.878	19.966	6.135	0.464
1240.000	701.666	80.002	19.995	103.878	19.965	6.193	0.469
1242.001	702.676	80.004	19.995	103.879	19.967	6.056	0.476
1244.000	703.633	80.004	19.995	103.875	19.964	6.290	0.519
1246.000	704.574	80.004	19.995	103.877	19.966	6.164	0.452
1248.000	705.557	80.003	19.995	103.875	19.967	6.046	0.507
1250.000	706.511	80.004	19.996	103.875	19.964	6.264	0.463
1252.000	707.488	80.002	19.995	103.880	19.967	6.099	0.487
1254.000	708.492	80.003	19.994	103.878	19.966	6.138	0.478
1256.000	709.473	80.003	19.995	103.877	19.963	6.335	0.500
1258.000	710.442	80.002	19.995	103.880	19.967	6.040	0.493
1260.000	711.455	80.003	19.994	103.877	19.969	5.956	0.465
1262.001	712.466	80.003	19.995	103.870	19.970	5.883	0.530
1264.001	713.466	80.005	19.995	103.879	19.967	6.078	0.514
1266.001	714.486	80.004	19.994	103.875	19.972	5.740	0.495
1268.001	715.510	80.005	19.995	103.871	19.972	5.739	0.480
1270.000	716.565	80.005	19.993	103.873	19.969	5.952	0.538
1272.000	717.566	80.006	19.994	103.874	19.971	5.797	0.509
1274.001	718.619	80.006	19.994	103.865	19.970	5.877	0.522
1276.000	719.658	80.005	19.994	103.872	19.971	5.795	0.515
1278.000	720.662	80.006	19.994	103.850	19.968	5.980	0.512
1280.000	721.699	80.004	19.993	103.859	19.966	6.157	0.484
1282.000	722.685	80.005	19.995	103.874	19.967	6.078	0.479
1284.000	723.711	80.006	19.994	103.876	19.970	5.864	0.500
1286.000	724.749	80.005	19.996	103.874	19.968	5.991	0.493
1288.001	725.792	80.005	19.994	103.872	19.967	6.048	0.526
1290.001	726.814	80.006	19.994	103.855	19.973	5.616	0.537
1292.000	727.817	80.006	19.995	103.870	19.969	5.891	0.522
1294.000	728.847	80.006	19.994	103.873	19.972	5.694	0.518
1296.000	729.871	80.008	19.994	103.873	19.970	5.822	0.513
1298.000	730.920	80.008	19.994	103.871	19.969	5.922	0.523
1300.000	731.957	80.007	19.994	103.870	19.968	5.968	0.524
1302.000	732.932	80.007	19.994	103.873	19.969	5.891	0.487
1304.000	734.078	80.005	19.994	103.874	19.972	5.716	0.568
1306.000	735.054	80.005	19.994	103.876	19.970	5.876	0.510
1308.000	736.114	80.005	19.994	103.876	19.968	5.970	0.539
1310.000	737.102	80.003	19.995	103.875	19.971	5.799	0.508
1312.001	738.143	80.004	19.997	103.877	19.969	5.936	0.509
1314.000	739.164	80.004	19.995	103.878	19.973	5.626	0.503
1316.000	740.194	80.004	19.995	103.872	19.971	5.750	0.490
1318.000	741.225	80.003	19.995	103.868	19.970	5.854	0.516
1320.000	742.259	80.004	19.994	103.870	19.968	6.004	0.518
1322.001	743.288	80.004	19.995	103.879	19.966	6.127	0.509
1322.501	743.555	80.004	19.994	103.879	19.967	6.107	0.518