File: 01_Data/LatexPillow_A_Outer_Fabric/STA/N2/10K_min/Latex_Pillow_Outer_Fabric_A_STA_N2_10KData_220801_R1.csv
##Temp./Â°C,Time/min,Mass loss(subtr.2)/mg,DSC(subtr.2)/mW,Sensit./(uV/mW)
49.387,10.00917,0.00396, 3.207829e-02,1.07026
50.087,10.76994,0.004613907,      0.11317,1.07007
50.787,10.9763,0.00525292,      0.17828,1.06988
51.487,11.12844,0.00604069,      0.22363,1.06969
52.187,11.2566,0.004971913,      0.26325,1.06949
52.887,11.37214,0.005242514,      0.29699,1.0693
53.587,11.4787,0.004509792,      0.32308,1.0691
54.287,11.57771,0.005281183,      0.34911,1.06891
54.987,11.67175,0.004886457,      0.36595,1.06871
55.687,11.76258,0.006050626,      0.38256,1.06852
56.387,11.85126,0.00568637,      0.39254,1.06832
57.087,11.937,0.006006627,      0.41094,1.06812
57.787,12.02085,0.005784241,      0.41139,1.06793
58.487,12.10321,0.004449944,      0.42614,1.06773
59.187,12.18493,0.004164821,      0.42047,1.06753
59.887,12.2654,0.00569061,      0.43397,1.06733
60.587,12.34495,0.005182901,      0.43551,1.06713
61.287,12.42389,0.006472475,      0.44114,1.06693
61.987,12.50206,0.005495224,      0.44544,1.06673
62.687,12.57963,0.00704542,      0.44802,1.06653
63.387,12.6568,0.006238,      0.45001,1.06633
64.087,12.73352,0.005663507,      0.45667,1.06612
64.787,12.8104,0.00576405,      0.46610,1.06592
65.487,12.8867,0.006461356,      0.46633,1.06572
66.187,12.96278,0.005719728,      0.47192,1.06551
66.887,13.03832,0.005708286,      0.47655,1.06531
67.587,13.1137,0.005834943,      0.47666,1.06511
68.287,13.189,0.007029121,      0.48568,1.0649
68.987,13.26428,0.00561343,      0.49041,1.06469
69.687,13.33937,0.005715854,      0.49027,1.06449
70.387,13.4138,0.005710195,      0.49118,1.06428
71.087,13.48825,0.00701209,      0.49404,1.06407
71.787,13.56286,0.00703006,      0.48665,1.06387
72.487,13.63752,0.007023339,      0.49191,1.06366
73.187,13.71137,0.00704975,      0.47887,1.06345
73.887,13.7852,0.006552255,      0.46895,1.06324
74.587,13.85851,0.007019965,      0.44713,1.06303
75.287,13.9318,0.005870743,      0.43979,1.06282
75.987,14.00489,0.007023097,      0.41958,1.06261
76.687,14.07801,0.008335926,      0.40810,1.0624
77.387,14.15078,0.007022665,      0.39918,1.06219
78.087,14.2231,0.007028264,      0.38366,1.06197
78.787,14.29543,0.007044464,      0.37270,1.06176
79.487,14.36775,0.00670666,      0.36314,1.06155
80.187,14.4401,0.008348682,      0.35244,1.06133
80.887,14.512,0.007919111,      0.34357,1.06112
81.587,14.58339,0.007033494,      0.33941,1.0609
82.287,14.6547,0.008348401,      0.33519,1.06069
82.987,14.72613,0.006963754,      0.32813,1.06047
83.687,14.7975,0.008340181,      0.33636,1.06025
84.387,14.86859,0.00701927,      0.32810,1.06004
85.087,14.93934,0.008344344,      0.32607,1.05982
85.787,15.01038,0.008350306,      0.31947,1.0596
86.487,15.08109,0.007059856,      0.31854,1.05938
87.187,15.1514,0.008349887,      0.31663,1.05916
87.887,15.22135,0.0083698,      0.31624,1.05894
88.587,15.2914,0.00834021,      0.30517,1.05872
89.287,15.3616,0.008293783,      0.31020,1.0585
89.987,15.4316,0.0083434,      0.30293,1.05828
90.687,15.50106,0.0084258,      0.30594,1.05806
91.387,15.5707,0.00969837,      0.29742,1.05784
92.087,15.6402,0.008330821,      0.29388,1.05762
92.787,15.71013,0.009011129,      0.29615,1.05739
93.487,15.77979,0.008353249,      0.29017,1.05717
94.187,15.84914,0.00834073,      0.28584,1.05694
94.887,15.9184,0.008339963,      0.28609,1.05672
95.587,15.98751,0.009349437,      0.28658,1.05649
96.287,16.057,0.00941941,      0.28493,1.05627
96.987,16.12632,0.008069452,      0.28775,1.05604
97.687,16.1953,0.00834995,      0.28649,1.05581
98.387,16.2643,0.008343625,      0.28888,1.05559
99.087,16.33309,0.009673443,      0.29452,1.05536
99.787,16.40223,0.00834625,      0.29804,1.05513
100.487,16.4711,0.009701101,      0.29506,1.0549
101.187,16.53939,0.009646257,      0.29730,1.05467
101.887,16.60816,0.008338966,      0.30335,1.05444
102.587,16.67676,0.007030475,      0.30759,1.05421
103.287,16.74616,0.008354354,      0.30335,1.05398
103.987,16.81472,0.009679373,      0.30804,1.05375
104.687,16.8834,0.008673702,      0.31653,1.05352
105.387,16.95187,0.00932822,      0.31671,1.05328
106.087,17.02039,0.00967174,      0.31912,1.05305
106.787,17.08879,0.009658392,      0.33038,1.05282
107.487,17.15707,0.009659892,      0.32879,1.05258
108.187,17.2254,0.00835958,      0.33219,1.05235
108.887,17.29389,0.008881404,      0.33129,1.05211
109.587,17.36249,0.008680106,      0.34235,1.05188
110.287,17.43103,0.008357303,      0.34301,1.05164
110.987,17.49953,0.008349776,      0.34535,1.0514
111.687,17.56781,0.009699081,      0.34674,1.05116
112.387,17.63597,0.008349985,      0.35611,1.05093
113.087,17.70417,0.009302356,      0.35341,1.05069
113.787,17.7724,0.008663826,      0.35539,1.05045
114.487,17.8407,0.008339343,      0.36750,1.05021
115.187,17.90879,0.00701945,      0.36854,1.04997
115.887,17.97704,0.008342853,      0.36897,1.04973
116.587,18.04526,0.008346353,      0.37370,1.04949
117.287,18.11338,0.00835638,      0.37623,1.04925
117.987,18.18163,0.008351236,      0.37342,1.049
118.687,18.2498,0.008020187,      0.38115,1.04876
119.387,18.318,0.009310686,      0.37532,1.04852
120.087,18.38622,0.00835517,      0.37935,1.04827
120.787,18.4545,0.00713314,      0.37895,1.04803
121.487,18.5227,0.00734627,      0.37012,1.04778
122.187,18.59058,0.007332376,      0.37462,1.04754
122.887,18.65854,0.009905103,      0.38218,1.04729
123.587,18.72687,0.008562677,      0.39407,1.04705
124.287,18.7951,0.008611534,      0.39730,1.0468
124.987,18.8632,0.008567015,      0.40413,1.04655
125.687,18.93121,0.009893284,      0.40840,1.0463
126.387,18.99909,0.00857033,      0.40550,1.04606
127.087,19.06687,0.008569998,      0.41630,1.04581
127.787,19.13445,0.008571915,      0.42310,1.04556
128.487,19.2024,0.009888173,      0.42445,1.04531
129.187,19.27007,0.009891121,      0.42592,1.04506
129.887,19.33801,0.008570939,      0.42402,1.0448
130.587,19.40558,0.009871665,      0.42938,1.04455
131.287,19.47315,0.01058246,      0.42356,1.0443
131.987,19.54066,0.01020998,      0.42996,1.04405
132.687,19.6084,0.01020626,      0.42964,1.04379
133.387,19.67626,0.009880378,      0.43839,1.04354
134.087,19.74405,0.008563351,      0.44143,1.04329
134.787,19.81137,0.009972531,      0.44373,1.04303
135.487,19.87874,0.009248992,      0.44339,1.04277
136.187,19.94598,0.009255417,      0.44704,1.04252
136.887,20.01344,0.008569651,      0.44557,1.04226
137.587,20.081,0.009857151,      0.44691,1.042
138.287,20.14865,0.008569978,      0.45466,1.04175
138.987,20.21621,0.008569999,      0.45141,1.04149
139.687,20.2834,0.00857116,      0.45373,1.04123
140.387,20.35088,0.009569736,      0.45226,1.04097
141.087,20.41822,0.01087078,      0.45152,1.04071
141.787,20.48576,0.01087709,      0.44995,1.04045
142.487,20.55307,0.009529111,      0.45585,1.04019
143.187,20.62047,0.008230111,      0.45482,1.03993
143.887,20.68802,0.00911498,      0.45497,1.03967
144.587,20.75534,0.009550011,      0.46022,1.0394
145.287,20.82283,0.009377932,      0.45931,1.03914
145.987,20.89059,0.008221191,      0.45199,1.03888
146.687,20.95833,0.008899873,      0.46117,1.03861
147.387,21.02542,0.008245177,      0.46241,1.03835
148.087,21.0924,0.008238789,      0.46180,1.03808
148.787,21.15942,0.006920273,      0.46911,1.03782
149.487,21.22679,0.00691998,      0.47042,1.03755
150.187,21.2939,0.00719527,      0.45960,1.03728
150.887,21.36129,0.007910001,      0.46671,1.03701
151.587,21.42807,0.008213037,      0.47064,1.03675
152.287,21.49525,0.0068475,      0.47417,1.03648
152.987,21.56243,0.008228046,      0.47349,1.03621
153.687,21.6298,0.00823,      0.47870,1.03594
154.387,21.69686,0.00823,      0.46989,1.03567
155.087,21.76396,0.00822988,      0.47639,1.0354
155.787,21.8311,0.007121872,      0.47448,1.03513
156.487,21.89821,0.00758,      0.47242,1.03485
157.187,21.96513,0.006254049,      0.48077,1.03458
157.887,22.03205,0.00831441,      0.47044,1.03431
158.587,22.09895,0.008240063,      0.47670,1.03404
159.287,22.16592,0.006929095,      0.47887,1.03376
159.987,22.2329,0.00823899,      0.46935,1.03349
160.687,22.3,0.00824,      0.47289,1.03321
161.387,22.36711,0.00823999,      0.47344,1.03294
162.087,22.43429,0.008330993,      0.47245,1.03266
162.787,22.50132,0.008234887,      0.47214,1.03238
163.487,22.5682,0.00823,      0.46969,1.03211
164.187,22.63489,0.008211042,      0.46819,1.03183
164.887,22.70146,0.007144797,      0.47139,1.03155
165.587,22.76866,0.00691,      0.47606,1.03127
166.287,22.8357,0.00691364,      0.47193,1.03099
166.987,22.90334,0.005596498,      0.47477,1.03071
167.687,22.96981,0.006584465,      0.47096,1.03043
168.387,23.037,0.00659,      0.46958,1.03015
169.087,23.10386,0.00658988,      0.47014,1.02987
169.787,23.17105,0.00727022,      0.47308,1.02958
170.487,23.238,0.007251658,      0.46706,1.0293
171.187,23.30485,0.0055945,      0.47020,1.02902
171.887,23.372,0.0056,      0.47232,1.02873
172.587,23.4391,0.0056,      0.47105,1.02845
173.287,23.50629,0.004302605,      0.47135,1.02816
173.987,23.57299,0.004280012,      0.46740,1.02788
174.687,23.63995,0.00425328,      0.47999,1.02759
175.387,23.70682,0.004283058,      0.47324,1.02731
176.087,23.77412,0.00428,      0.47589,1.02702
176.787,23.8412,0.00428,      0.47810,1.02673
177.487,23.90813,0.004283681,      0.48019,1.02644
178.187,23.97482,0.002958938,      0.48312,1.02615
178.887,24.04156,0.00314525,      0.47850,1.02586
179.587,24.10845,0.00297,      0.48398,1.02557
180.287,24.1754,0.00297,      0.48230,1.02528
180.987,24.24221,0.002971547,      0.48155,1.02499
181.687,24.3092,0.002640004,      0.48396,1.0247
182.387,24.3762,0.00195075,      0.47675,1.02441
183.087,24.44316,0.001320015,      0.48334,1.02411
183.787,24.50992,0.0013116,      0.47986,1.02382
184.487,24.57615,0.0003298046,      0.48169,1.02353
185.187,24.64268,0.0003295153,      0.48127,1.02323
185.887,24.70955,2.80358e-06,      0.48922,1.02294
186.587,24.7768,-0.001315628,      0.48143,1.02264
187.287,24.84404,-0.0003183529,      0.48850,1.02234
187.987,24.91095,0.0009892401,      0.49244,1.02205
188.687,24.97746,0.0009899961,      0.48816,1.02175
189.387,25.04399,0.001037516,      0.49170,1.02145
190.087,25.11064,-0.0003301756,      0.49399,1.02115
190.787,25.17756,-0.0003300949,      0.49517,1.02085
191.487,25.24375,-0.001625427,      0.49667,1.02055
192.187,25.31019,-0.001648787,      0.49675,1.02025
192.887,25.37695,-0.0022675,      0.49652,1.01995
193.587,25.44415,-0.00371165,      0.49524,1.01965
194.287,25.51091,-0.003288074,      0.48929,1.01935
194.987,25.57724,-0.00328989,      0.49353,1.01905
195.687,25.64404,-0.00203853,      0.49339,1.01874
196.387,25.71045,-0.001969999,      0.49808,1.01844
197.087,25.7772,-0.0019708,      0.49642,1.01814
197.787,25.84362,-0.003278077,      0.49256,1.01783
198.487,25.9105,-0.004284771,      0.49804,1.01753
199.187,25.97731,-0.004280029,      0.49819,1.01722
199.887,26.04393,-0.003845017,      0.49532,1.01691
200.587,26.11071,-0.002960007,      0.49831,1.01661
201.287,26.1771,-0.002960108,      0.50295,1.0163
201.987,26.2436,-0.004254494,      0.50487,1.01599
202.687,26.3101,-0.00428,      0.50096,1.01568
203.387,26.3767,-0.00428,      0.50461,1.01537
204.087,26.44323,-0.00428,      0.50056,1.01506
204.787,26.5099,-0.00428,      0.49819,1.01475
205.487,26.5765,-0.00428012,      0.49172,1.01444
206.187,26.6433,-0.00554896,      0.49603,1.01413
206.887,26.71,-0.0042819,      0.49661,1.01382
207.587,26.77647,-0.0056021,      0.48972,1.0135
208.287,26.8427,-0.00688624,      0.49669,1.01319
208.987,26.9091,-0.00559034,      0.49637,1.01288
209.687,26.9759,-0.005589996,      0.50344,1.01256
210.387,27.0428,-0.005589984,      0.49812,1.01225
211.087,27.10983,-0.005217177,      0.49390,1.01193
211.787,27.1764,-0.004600016,      0.49904,1.01162
212.487,27.2431,-0.00601055,      0.49856,1.0113
213.187,27.3097,-0.00690982,      0.49825,1.01098
213.887,27.37643,-0.00592236,      0.49680,1.01066
214.587,27.44313,-0.00592,      0.51623,1.01034
215.287,27.50985,-0.00591994,      0.51084,1.01003
215.987,27.5765,-0.00722631,      0.50700,1.00971
216.687,27.6431,-0.007240003,      0.49500,1.00939
217.387,27.70973,-0.00724,      0.49588,1.00907
218.087,27.7764,-0.007239982,      0.50872,1.00874
218.787,27.84285,-0.007414025,      0.50177,1.00842
219.487,27.9094,-0.00757911,      0.52174,1.0081
220.187,27.9758,-0.007579998,      0.52947,1.00778
220.887,28.04242,-0.007580007,      0.52691,1.00745
221.587,28.10908,-0.007902919,      0.53932,1.00713
222.287,28.17568,-0.008931544,      0.53639,1.0068
222.987,28.2422,-0.007249536,      0.54057,1.00648
223.687,28.3089,-0.00724334,      0.53538,1.00615
224.387,28.37554,-0.00856023,      0.52933,1.00583
225.087,28.442,-0.007146039,      0.54091,1.0055
225.787,28.5084,-0.00724,      0.54261,1.00517
226.487,28.57498,-0.00818974,      0.55076,1.00484
227.187,28.64163,-0.00856003,      0.54823,1.00451
227.887,28.7084,-0.00856,      0.56153,1.00418
228.587,28.77481,-0.008555605,      0.57291,1.00385
229.287,28.84132,-0.007571,      0.57412,1.00352
229.987,28.90783,-0.00757,      0.58144,1.00319
230.687,28.97424,-0.00757,      0.58657,1.00286
231.387,29.0408,-0.007569989,      0.59556,1.00253
232.087,29.1074,-0.008761049,      0.60825,1.0022
232.787,29.174,-0.00889003,      0.62028,1.00186
233.487,29.24052,-0.008896525,      0.63557,1.00153
234.187,29.307,-0.01021022,      0.64913,1.00119
234.887,29.3735,-0.01020827,      0.65844,1.00086
235.587,29.4404,-0.00918535,      0.66344,1.00052
236.287,29.5072,-0.008889951,      0.67470,1.00019
236.987,29.57382,-0.009943343,      0.70378,0.99985
237.687,29.6404,-0.00885766,      0.70886,0.99951
238.387,29.70702,-0.01042831,      0.73795,0.99917
239.087,29.77378,-0.009111827,      0.75166,0.99883
239.787,29.84054,-0.00911,      0.76476,0.9985
240.487,29.9072,-0.009109993,      0.79977,0.99816
241.187,29.97392,-0.008279045,      0.82412,0.99781
241.887,30.0407,-0.008951854,      0.85818,0.99747
242.587,30.10742,-0.01043009,      0.88642,0.99713
243.287,30.1743,-0.01043004,      0.92648,0.99679
243.987,30.24111,-0.01078003,      0.97299,0.99645
244.687,30.30783,-0.009758098,      1.01398,0.9961
245.387,30.3744,-0.00975765,      1.07847,0.99576
246.087,30.44088,-0.0108016,      1.16435,0.99542
246.787,30.50753,-0.01075001,      1.25974,0.99507
247.487,30.5742,-0.01075,      1.37510,0.99472
248.187,30.64118,-0.01075007,      1.55738,0.99438
248.887,30.70798,-0.01041235,      1.90981,0.99403
249.587,30.7751,-0.01045446,      2.33867,0.99368
250.287,30.84249,-0.01010005,      2.80507,0.99334
250.987,30.9101,-0.01010431,      3.26544,0.99299
251.687,30.97734,-0.01173689,      3.67410,0.99264
252.387,31.0449,-0.01035078,      4.03102,0.99229
253.087,31.1126,-0.01043001,      4.33193,0.99194
253.787,31.18057,-0.0104275,      4.55171,0.99159
254.487,31.248,-0.01010014,      4.62825,0.99123
255.187,31.3154,-0.0101,      4.55206,0.99088
255.887,31.3826,-0.01009953,      4.26079,0.99053
256.587,31.4495,-0.00976951,      3.76317,0.99018
257.287,31.51616,-0.00977,      3.13412,0.98982
257.987,31.5826,-0.00977,      2.53056,0.98947
258.687,31.64902,-0.00977,      2.02336,0.98911
259.387,31.71521,-0.009358732,      1.64550,0.98876
260.087,31.7813,-0.0104359,      1.35154,0.9884
260.787,31.84712,-0.01043,      1.17466,0.98804
261.487,31.91297,-0.01043,      1.03675,0.98769
262.187,31.9791,-0.01043,      0.93051,0.98733
262.887,32.04527,-0.01043,      0.87405,0.98697
263.587,32.11145,-0.01043,      0.82678,0.98661
264.287,32.1776,-0.01043,      0.79079,0.98625
264.987,32.24377,-0.01042376,      0.76377,0.98589
265.687,32.3101,-0.009770558,      0.74117,0.98553
266.387,32.3765,-0.01108415,      0.73302,0.98517
267.087,32.443,-0.009755207,      0.71644,0.98481
267.787,32.5097,-0.009110454,      0.71383,0.98444
268.487,32.57613,-0.01042224,      0.70792,0.98408
269.187,32.64242,-0.009765216,      0.69684,0.98372
269.887,32.7087,-0.00877514,      0.70425,0.98335
270.587,32.7751,-0.008119707,      0.69315,0.98299
271.287,32.84167,-0.008128185,      0.69525,0.98262
271.987,32.90833,-0.009110178,      0.69624,0.98225
272.687,32.9751,-0.00911,      0.68948,0.98189
273.387,33.04201,-0.00911,      0.68856,0.98152
274.087,33.10864,-0.009109996,      0.68811,0.98115
274.787,33.17512,-0.009306165,      0.69609,0.98078
275.487,33.24157,-0.009426739,      0.69287,0.98041
276.187,33.30802,-0.01074961,      0.68615,0.98004
276.887,33.3748,-0.0107525,      0.68850,0.97967
277.587,33.44148,-0.0104206,      0.68076,0.9793
278.287,33.50828,-0.01042223,      0.68512,0.97893
278.987,33.57504,-0.009771088,      0.67693,0.97856
279.687,33.64201,-0.00977,      0.68428,0.97819
280.387,33.7087,-0.00977,      0.68106,0.97781
281.087,33.7755,-0.00977,      0.67805,0.97744
281.787,33.84228,-0.00977,      0.68025,0.97706
282.487,33.9095,-0.00977,      0.68974,0.97669
283.187,33.97648,-0.009769994,      0.68245,0.97631
283.887,34.04325,-0.009827542,      0.68361,0.97594
284.587,34.10994,-0.009110039,      0.68445,0.97556
285.287,34.17647,-0.009110067,      0.68109,0.97518
285.987,34.24331,-0.01010476,      0.67889,0.9748
286.687,34.31037,-0.0104296,      0.67369,0.97442
287.387,34.37753,-0.00910851,      0.67513,0.97404
288.087,34.4444,-0.01041713,      0.67896,0.97366
288.787,34.5112,-0.01043,      0.68776,0.97328
289.487,34.57795,-0.01043015,      0.68093,0.9729
290.187,34.64459,-0.00906345,      0.68405,0.97252
290.887,34.7115,-0.009208143,      0.68855,0.97214
291.587,34.77843,-0.01142216,      0.68182,0.97176
292.287,34.84543,-0.01140972,      0.69107,0.97137
292.987,34.91183,-0.01075749,      0.69425,0.97099
293.687,34.9786,-0.01076,      0.69427,0.9706
294.387,35.04565,-0.01076,      0.69373,0.97022
295.087,35.11329,-0.01076,      0.68952,0.96983
295.787,35.18033,-0.01076,      0.69905,0.96945
296.487,35.24747,-0.01076,      0.70075,0.96906
297.187,35.3144,-0.01075998,      0.70592,0.96867
297.887,35.38126,-0.01084715,      0.70044,0.96828
298.587,35.44827,-0.01042993,      0.70384,0.96789
299.287,35.51518,-0.01043,      0.70340,0.9675
299.987,35.5824,-0.01043,      0.70493,0.96711
300.687,35.64955,-0.01043,      0.70950,0.96672
301.387,35.71709,-0.01043,      0.69913,0.96633
302.087,35.7842,-0.01043,      0.70626,0.96594
302.787,35.85145,-0.01043,      0.71092,0.96555
303.487,35.91823,-0.01043,      0.70933,0.96515
304.187,35.98515,-0.010429,      0.70996,0.96476
304.887,36.052,-0.009081808,      0.71531,0.96437
305.587,36.1192,-0.009769998,      0.70597,0.96397
306.287,36.18629,-0.00977,      0.71242,0.96358
306.987,36.25347,-0.00977,      0.70637,0.96318
307.687,36.3207,-0.009770922,      0.71027,0.96278
308.387,36.38777,-0.009765948,      0.71175,0.96239
309.087,36.45496,-0.008921041,      0.71655,0.96199
309.787,36.5219,-0.00977102,      0.71737,0.96159
310.487,36.58889,-0.01108031,      0.71760,0.96119
311.187,36.65599,-0.01175673,      0.71802,0.96079
311.887,36.723,-0.01101422,      0.70945,0.96039
312.587,36.79011,-0.01041998,      0.71436,0.95999
313.287,36.85703,-0.01044184,      0.71919,0.95959
313.987,36.92385,-0.01173973,      0.72025,0.95919
314.687,36.9905,-0.01069679,      0.74255,0.95878
315.387,37.05768,-0.009440516,      0.73517,0.95838
316.087,37.12512,-0.009536789,      0.73584,0.95798
316.787,37.1928,-0.01069015,      0.74511,0.95757
317.487,37.26001,-0.01200926,      0.74877,0.95717
318.187,37.32723,-0.01080248,      0.74907,0.95676
318.887,37.39439,-0.01074999,      0.74796,0.95635
319.587,37.46167,-0.01075,      0.74485,0.95595
320.287,37.52903,-0.01075,      0.74654,0.95554
320.987,37.59649,-0.01075,      0.74629,0.95513
321.687,37.66388,-0.01074955,      0.73813,0.95472
322.387,37.7312,-0.01207561,      0.74237,0.95431
323.087,37.79838,-0.01207,      0.73970,0.9539
323.787,37.86561,-0.01216924,      0.74062,0.95349
324.487,37.933,-0.01207354,      0.73646,0.95308
325.187,38.00052,-0.0118404,      0.73757,0.95267
325.887,38.06793,-0.01207,      0.74294,0.95226
326.587,38.1353,-0.01207003,      0.74503,0.95185
327.287,38.2026,-0.01186201,      0.74191,0.95143
327.987,38.2699,-0.01074929,      0.74292,0.95102
328.687,38.3373,-0.01077003,      0.74408,0.9506
329.387,38.40461,-0.01206989,      0.74230,0.95019
330.087,38.47177,-0.01207,      0.74763,0.94977
330.787,38.53887,-0.01206992,      0.73133,0.94936
331.487,38.6062,-0.01141414,      0.73046,0.94894
332.187,38.67373,-0.01141,      0.72891,0.94852
332.887,38.74103,-0.01141,      0.73288,0.9481
333.587,38.80836,-0.01140979,      0.73738,0.94768
334.287,38.8754,-0.01273521,      0.73211,0.94727
334.987,38.9429,-0.01284609,      0.74800,0.94685
335.687,39.01015,-0.01305999,      0.73577,0.94642
336.387,39.07775,-0.01251793,      0.74211,0.946
337.087,39.14505,-0.01164577,      0.74127,0.94558
337.787,39.21215,-0.01306003,      0.73913,0.94516
338.487,39.27944,-0.01306,      0.74530,0.94474
339.187,39.347,-0.01306083,      0.74202,0.94431
339.887,39.4142,-0.01436728,      0.74267,0.94389
340.587,39.48178,-0.01417313,      0.74567,0.94346
341.287,39.54907,-0.01306,      0.74994,0.94304
341.987,39.617,-0.01306,      0.74821,0.94261
342.687,39.68461,-0.01306,      0.74503,0.94219
343.387,39.7524,-0.01306,      0.75644,0.94176
344.087,39.81998,-0.01306,      0.75215,0.94133
344.787,39.88727,-0.01305707,      0.76355,0.9409
345.487,39.95476,-0.01438318,      0.75056,0.94047
346.187,40.02245,-0.01437978,      0.76473,0.94004
346.887,40.09044,-0.01341657,      0.75751,0.93961
347.587,40.1582,-0.01273662,      0.75665,0.93918
348.287,40.22585,-0.01395401,      0.78562,0.93875
348.987,40.29312,-0.01610835,      0.78090,0.93832
349.687,40.3605,-0.01537069,      0.78290,0.93789
350.387,40.4281,-0.01404842,      0.78763,0.93745
351.087,40.49576,-0.0153748,      0.79594,0.93702
351.787,40.56354,-0.0166056,      0.79511,0.93658
352.487,40.631,-0.01556851,      0.78684,0.93615
353.187,40.69859,-0.01537,      0.78675,0.93571
353.887,40.76594,-0.01537013,      0.79159,0.93528
354.587,40.83343,-0.01666417,      0.79914,0.93484
355.287,40.90078,-0.01669,      0.79519,0.9344
355.987,40.96844,-0.01668473,      0.80002,0.93397
356.687,41.03598,-0.01603828,      0.80205,0.93353
357.387,41.10365,-0.01822701,      0.81194,0.93309
358.087,41.1712,-0.01812,      0.81253,0.93265
358.787,41.2389,-0.01810999,      0.81352,0.93221
359.487,41.30638,-0.0181268,      0.81806,0.93177
360.187,41.37404,-0.01779515,      0.82493,0.93133
360.887,41.44169,-0.01942805,      0.82987,0.93088
361.587,41.50946,-0.02008627,      0.82981,0.93044
362.287,41.5771,-0.02140011,      0.83542,0.93
362.987,41.64462,-0.0214,      0.84437,0.92955
363.687,41.7122,-0.02140427,      0.85107,0.92911
364.387,41.78,-0.02081953,      0.85701,0.92866
365.087,41.84776,-0.02140993,      0.86871,0.92822
365.787,41.9156,-0.02244387,      0.86389,0.92777
366.487,41.98335,-0.02239996,      0.87116,0.92732
367.187,42.05134,-0.02379142,      0.87490,0.92688
367.887,42.11909,-0.02370853,      0.90012,0.92643
368.587,42.18687,-0.02404146,      0.88357,0.92598
369.287,42.25457,-0.02404001,      0.89825,0.92553
369.987,42.32241,-0.02400595,      0.90117,0.92508
370.687,42.39004,-0.02609277,      0.91294,0.92463
371.387,42.45774,-0.02798232,      0.91254,0.92418
372.087,42.52531,-0.02926499,      0.93177,0.92373
372.787,42.5933,-0.02989927,      0.92431,0.92328
373.487,42.66133,-0.02997275,      0.91313,0.92282
374.187,42.72948,-0.03129006,      0.90242,0.92237
374.887,42.7973,-0.03259848,      0.88933,0.92191
375.587,42.86515,-0.03372695,      0.88000,0.92146
376.287,42.93319,-0.03552372,      0.88178,0.921
376.987,43.00117,-0.03685587,      0.88928,0.92055
377.687,43.0692,-0.03787989,      0.89221,0.92009
378.387,43.13708,-0.03918707,      0.90260,0.91964
379.087,43.20494,-0.04041406,      0.90059,0.91918
379.787,43.2729,-0.04342959,      0.91627,0.91872
380.487,43.34078,-0.04609973,      0.93724,0.91826
381.187,43.40875,-0.04771453,      0.94172,0.9178
381.887,43.47663,-0.05006475,      0.95470,0.91734
382.587,43.5446,-0.05276075,      0.96048,0.91688
383.287,43.61254,-0.05668252,      0.96360,0.91642
383.987,43.6804,-0.06052116,      0.95574,0.91596
384.687,43.74811,-0.06344443,      0.95530,0.9155
385.387,43.8161,-0.06630689,      0.95623,0.91503
386.087,43.88454,-0.06863372,      0.97304,0.91457
386.787,43.9529,-0.07284424,      0.98106,0.9141
387.487,44.02089,-0.07621715,      0.98313,0.91364
388.187,44.08875,-0.08112417,      0.97747,0.91317
388.887,44.1566,-0.08518632,      0.98840,0.91271
389.587,44.2246,-0.08943866,      0.98723,0.91224
390.287,44.29266,-0.09428099,      0.99567,0.91178
390.987,44.36068,-0.09896127,      0.99998,0.91131
391.687,44.4287,-0.10523,      1.00155,0.91084
392.387,44.49671,-0.11081,      1.00692,0.91037
393.087,44.5651,-0.1156,      1.01842,0.9099
393.787,44.63322,-0.1217,      1.04327,0.90943
394.487,44.70133,-0.12754,      1.05201,0.90896
395.187,44.76913,-0.13394,      1.06570,0.90849
395.887,44.8371,-0.14031,      1.07923,0.90802
396.587,44.90524,-0.1467,      1.08835,0.90754
397.287,44.97348,-0.15393,      1.12539,0.90707
397.987,45.04182,-0.1617,      1.14884,0.9066
398.687,45.10991,-0.1706,      1.14402,0.90612
399.387,45.17797,-0.17816,      1.17548,0.90565
400.087,45.24608,-0.18676,      1.19976,0.90517
400.787,45.3142,-0.19681,      1.23546,0.9047
401.487,45.3825,-0.20658,      1.21738,0.90422
402.187,45.45112,-0.2155,      1.10045,0.90374
402.887,45.5199,-0.22568,      1.10758,0.90327
403.587,45.5884,-0.23722,      1.12513,0.90279
404.287,45.65658,-0.24851,      1.18017,0.90231
404.987,45.7247,-0.26095,      1.19065,0.90183
405.687,45.79302,-0.27323,      1.20797,0.90135
406.387,45.86162,-0.28716,      1.27255,0.90087
407.087,45.9302,-0.3002,      1.31661,0.90039
407.787,45.99868,-0.31541,      1.34918,0.89991
408.487,46.06711,-0.32997,      1.37363,0.89942
409.187,46.13555,-0.34587,      1.41823,0.89894
409.887,46.2041,-0.3642,      1.47219,0.89846
410.587,46.27248,-0.38291,      1.49473,0.89797
411.287,46.34087,-0.4007,      1.53839,0.89749
411.987,46.40927,-0.41809,      1.58298,0.897
412.687,46.4776,-0.43815,      1.62627,0.89652
413.387,46.54618,-0.45806,      1.66990,0.89603
414.087,46.6146,-0.47936,      1.70681,0.89555
414.787,46.68333,-0.49964,      1.73361,0.89506
415.487,46.75179,-0.52297,      1.76683,0.89457
416.187,46.82036,-0.54666,      1.82565,0.89408
416.887,46.88884,-0.57041,      1.86952,0.89359
417.587,46.95753,-0.59584,      1.89715,0.8931
418.287,47.02599,-0.62146,      1.90447,0.89261
418.987,47.0946,-0.64861,      1.91716,0.89212
419.687,47.16296,-0.6762,      1.94653,0.89163
420.387,47.23168,-0.70566,      2.00437,0.89114
421.087,47.3003,-0.73593,      2.05043,0.89064
421.787,47.369,-0.76588,      2.09545,0.89015
422.487,47.4375,-0.79758,      2.10204,0.88966
423.187,47.50609,-0.8312,      2.12501,0.88916
423.887,47.57456,-0.86404,      2.17037,0.88867
424.587,47.64287,-0.89743,      2.27141,0.88817
425.287,47.71139,-0.93408,      2.34310,0.88768
425.987,47.77993,-0.97311,      2.43013,0.88718
426.687,47.84859,-1.01363,      2.46259,0.88668
427.387,47.9167,-1.05225,      2.52124,0.88618
428.087,47.9852,-1.09374,      2.53091,0.88568
428.787,48.0538,-1.13569,      2.54972,0.88519
429.487,48.1229,-1.17765,      2.53939,0.88469
430.187,48.19155,-1.22294,      2.62267,0.88419
430.887,48.26013,-1.26942,      2.65578,0.88368
431.587,48.32848,-1.31531,      2.67913,0.88318
432.287,48.39698,-1.36343,      2.66671,0.88268
432.987,48.4656,-1.41245,      2.67854,0.88218
433.687,48.53422,-1.46274,      2.70276,0.88168
434.387,48.60281,-1.51311,      2.69999,0.88117
435.087,48.6714,-1.56623,      2.69463,0.88067
435.787,48.74018,-1.62017,      2.68814,0.88016
436.487,48.80891,-1.67023,      2.68697,0.87966
437.187,48.87735,-1.72414,      2.69799,0.87915
437.887,48.94553,-1.78032,      2.69189,0.87865
438.587,49.01396,-1.8374,      2.68341,0.87814
439.287,49.0827,-1.89211,      2.67130,0.87763
439.987,49.15187,-1.94945,      2.65626,0.87712
440.687,49.2208,-2.00868,      2.63147,0.87661
441.387,49.28952,-2.06449,      2.59044,0.8761
442.087,49.35837,-2.12027,      2.54455,0.87559
442.787,49.427,-2.17665,      2.49571,0.87508
443.487,49.49569,-2.23257,      2.43482,0.87457
444.187,49.56392,-2.28519,      2.36893,0.87406
444.887,49.63215,-2.33922,      2.30694,0.87355
445.587,49.70053,-2.39303,      2.22563,0.87304
446.287,49.76923,-2.44239,      2.14481,0.87252
446.987,49.83781,-2.49095,      2.05604,0.87201
447.687,49.90648,-2.53968,      1.96889,0.87149
448.387,49.97484,-2.58457,      1.85199,0.87098
449.087,50.04306,-2.62656,      1.76016,0.87046
449.787,50.1111,-2.66681,      1.64820,0.86995
450.487,50.17948,-2.70599,      1.53933,0.86943
451.187,50.24798,-2.74045,      1.42843,0.86891
451.887,50.31668,-2.77405,      1.31399,0.8684
452.587,50.38495,-2.80658,      1.20502,0.86788
453.287,50.45332,-2.83399,      1.09114,0.86736
453.987,50.52153,-2.85883,      0.98505,0.86684
454.687,50.58988,-2.88298,      0.88127,0.86632
455.387,50.6582,-2.90697,      0.78631,0.8658
456.087,50.72657,-2.92718,      0.70769,0.86528
456.787,50.79526,-2.94484,      0.60577,0.86476
457.487,50.86385,-2.96247,      0.52847,0.86423
458.187,50.93247,-2.97782,      0.45658,0.86371
458.887,51.00112,-2.99278,      0.39618,0.86319
459.587,51.06974,-3.00628,      0.32199,0.86266
460.287,51.1383,-3.02063,      0.26142,0.86214
460.987,51.20667,-3.03272,      0.19234,0.86162
461.687,51.27514,-3.04246,      0.13843,0.86109
462.387,51.3435,-3.05287, 8.287695e-02,0.86056
463.087,51.4118,-3.06319, 3.117716e-02,0.86004
463.787,51.48018,-3.07151,-1.615629e-02,0.85951
464.487,51.54865,-3.07904,-6.701394e-02,0.85898
465.187,51.61743,-3.08778,     -0.11336,0.85845
465.887,51.6864,-3.09584,     -0.17178,0.85793
466.587,51.75527,-3.10394,     -0.21555,0.8574
467.287,51.82392,-3.1123,     -0.27083,0.85687
467.987,51.8924,-3.11787,     -0.32143,0.85634
468.687,51.96115,-3.12367,     -0.37487,0.8558
469.387,52.02986,-3.12966,     -0.41765,0.85527
470.087,52.0985,-3.13665,     -0.46084,0.85474
470.787,52.16704,-3.14203,     -0.50810,0.85421
471.487,52.23574,-3.14565,     -0.54153,0.85368
472.187,52.3046,-3.15035,     -0.58206,0.85314
472.887,52.37357,-3.15574,     -0.61402,0.85261
473.587,52.4423,-3.16002,     -0.64734,0.85207
474.287,52.51129,-3.16313,     -0.67930,0.85154
474.987,52.58002,-3.16823,     -0.70768,0.851
475.687,52.64885,-3.17218,     -0.72822,0.85046
476.387,52.7175,-3.17465,     -0.75546,0.84993
477.087,52.78641,-3.17793,     -0.78189,0.84939
477.787,52.8551,-3.1818,     -0.79911,0.84885
478.487,52.9235,-3.18426,     -0.80858,0.84831
479.187,52.9917,-3.18736,     -0.78493,0.84777
479.887,53.0603,-3.19102,     -0.76749,0.84723
480.587,53.1291,-3.19096,     -0.75960,0.84669
481.287,53.19797,-3.19372,     -0.74621,0.84615
481.987,53.26656,-3.19628,     -0.74367,0.84561
482.687,53.3353,-3.19849,     -0.73808,0.84507
483.387,53.40436,-3.20073,     -0.74473,0.84453
484.087,53.4735,-3.20256,     -0.74230,0.84399
484.787,53.5426,-3.20486,     -0.74392,0.84344
485.487,53.61107,-3.2066,     -0.74284,0.8429
486.187,53.67991,-3.20859,     -0.74847,0.84235
486.887,53.7488,-3.21083,     -0.74503,0.84181
487.587,53.8181,-3.2109,     -0.75777,0.84126
488.287,53.88705,-3.21294,     -0.75936,0.84072
488.987,53.95587,-3.21478,     -0.75864,0.84017
489.687,54.02469,-3.21504,     -0.76495,0.83962
490.387,54.0938,-3.21784,     -0.76904,0.83908
491.087,54.16291,-3.21917,     -0.77081,0.83853
491.787,54.232,-3.22046,     -0.78273,0.83798
492.487,54.3008,-3.22148,     -0.78375,0.83743
493.187,54.36956,-3.2229,     -0.78882,0.83688
493.887,54.4387,-3.22423,     -0.78988,0.83633
494.587,54.50786,-3.22556,     -0.79188,0.83578
495.287,54.577,-3.22572,     -0.80206,0.83523
495.987,54.6459,-3.22825,     -0.81147,0.83468
496.687,54.715,-3.22887,     -0.80920,0.83412
497.387,54.78415,-3.23011,     -0.82510,0.83357
498.087,54.85334,-3.23147,     -0.83171,0.83302
498.787,54.92247,-3.23141,     -0.83996,0.83246
499.487,54.99149,-3.23364,     -0.83972,0.83191
500.187,55.06071,-3.23412,     -0.85559,0.83135
500.887,55.12985,-3.23543,     -0.86416,0.8308
501.587,55.1991,-3.23674,     -0.87204,0.83024
502.287,55.2682,-3.2374,     -0.87345,0.82969
502.987,55.3374,-3.23739,     -0.88144,0.82913
503.687,55.4067,-3.23872,     -0.88618,0.82857
504.387,55.4759,-3.23918,     -0.89216,0.82801
505.087,55.5449,-3.23938,     -0.89811,0.82745
505.787,55.61375,-3.23933,     -0.90555,0.8269
506.487,55.6827,-3.24138,     -0.91700,0.82634
507.187,55.75136,-3.24333,     -0.92372,0.82578
507.887,55.8204,-3.24463,     -0.92907,0.82522
508.587,55.8893,-3.24464,     -0.94826,0.82465
509.287,55.9588,-3.24333,     -0.95545,0.82409
509.987,56.02786,-3.24464,     -0.96475,0.82353
510.687,56.09704,-3.24464,     -0.96544,0.82297
511.387,56.16625,-3.24596,     -0.98555,0.82241
512.087,56.2357,-3.24732,     -0.98297,0.82184
512.787,56.3054,-3.24728,     -0.99927,0.82128
513.487,56.375,-3.24728,     -1.00837,0.82071
514.187,56.44445,-3.24728,     -1.01321,0.82015
514.887,56.5136,-3.24865,     -1.02771,0.81958
515.587,56.5824,-3.2486,     -1.02728,0.81902
516.287,56.6516,-3.24991,     -1.03959,0.81845
516.987,56.7208,-3.25117,     -1.04397,0.81788
517.687,56.7903,-3.25091,     -1.05288,0.81731
518.387,56.85957,-3.25123,     -1.04733,0.81675
519.087,56.92909,-3.25123,     -1.06748,0.81618
519.787,56.9986,-3.25255,     -1.06901,0.81561
520.487,57.0682,-3.25255,     -1.06970,0.81504
521.187,57.13766,-3.25381,     -1.07634,0.81447
521.887,57.2072,-3.2527,     -1.09644,0.8139
522.587,57.2766,-3.25255,     -1.09703,0.81333
523.287,57.3461,-3.25255,     -1.10890,0.81276
523.987,57.41559,-3.25386,     -1.11364,0.81218
524.687,57.4851,-3.25418,     -1.12498,0.81161
525.387,57.55471,-3.25419,     -1.13213,0.81104
526.087,57.6243,-3.25551,     -1.12563,0.81046
526.787,57.69405,-3.25683,     -1.13968,0.80989
527.487,57.76367,-3.25672,     -1.13921,0.80932
528.187,57.8332,-3.25617,     -1.14663,0.80874
528.887,57.9027,-3.25617,     -1.15374,0.80816
529.587,57.9724,-3.25614,     -1.15342,0.80759
530.287,58.04195,-3.25782,     -1.16021,0.80701
530.987,58.1115,-3.25782,     -1.16874,0.80644
531.687,58.1809,-3.25846,     -1.17047,0.80586
532.387,58.2503,-3.25913,     -1.17193,0.80528
533.087,58.31977,-3.26017,     -1.17853,0.8047
533.787,58.38926,-3.26045,     -1.18697,0.80412
534.487,58.4587,-3.26178,     -1.19240,0.80354
535.187,58.52802,-3.26276,     -1.19790,0.80296
535.887,58.5976,-3.26276,     -1.20246,0.80238
536.587,58.6673,-3.26136,     -1.20985,0.8018
537.287,58.7371,-3.26243,     -1.21900,0.80122
537.987,58.80676,-3.26295,     -1.22185,0.80064
538.687,58.87595,-3.26344,     -1.21578,0.80006
539.387,58.9452,-3.26453,     -1.21943,0.79947
540.087,59.01452,-3.26472,     -1.22501,0.79889
540.787,59.08416,-3.26605,     -1.23219,0.79831
541.487,59.15367,-3.26736,     -1.23124,0.79772
542.187,59.2231,-3.26738,     -1.24111,0.79714
542.887,59.29245,-3.26869,     -1.24095,0.79655
543.587,59.36169,-3.26869,     -1.24248,0.79597
544.287,59.4311,-3.26868,     -1.25102,0.79538
544.987,59.5007,-3.26868,     -1.24883,0.79479
545.687,59.57048,-3.26968,     -1.25947,0.79421
546.387,59.63985,-3.27099,     -1.26338,0.79362
547.087,59.70918,-3.27099,     -1.27185,0.79303
547.787,59.7785,-3.27103,     -1.26509,0.79244
548.487,59.84795,-3.27231,     -1.27316,0.79186
549.187,59.91731,-3.27365,     -1.27571,0.79127
549.887,59.9868,-3.27494,     -1.28742,0.79068
550.587,60.0561,-3.27491,     -1.29729,0.79009
551.287,60.1256,-3.27362,     -1.29204,0.7895
551.987,60.1951,-3.27362,     -1.30075,0.7889
552.687,60.26474,-3.27352,     -1.29725,0.78831
553.387,60.33426,-3.27494,     -1.29324,0.78772
554.087,60.4038,-3.27618,     -1.31132,0.78713
554.787,60.4732,-3.27626,     -1.30843,0.78654
555.487,60.54266,-3.27758,     -1.31494,0.78594
556.187,60.6123,-3.27757,     -1.31780,0.78535
556.887,60.68199,-3.27978,     -1.32471,0.78475
557.587,60.75175,-3.27889,     -1.32673,0.78416
558.287,60.8215,-3.27887,     -1.32340,0.78356
558.987,60.89119,-3.28021,     -1.33186,0.78297
559.687,60.9611,-3.28021,     -1.33890,0.78237
560.387,61.03082,-3.28021,     -1.33359,0.78178
561.087,61.10069,-3.28014,     -1.34441,0.78118
561.787,61.17044,-3.28087,     -1.35207,0.78058
562.487,61.2402,-3.28191,     -1.36111,0.77998
563.187,61.3099,-3.28345,     -1.35834,0.77939
563.887,61.3798,-3.28485,     -1.37063,0.77879
564.587,61.4497,-3.28614,     -1.36673,0.77819
565.287,61.51979,-3.28614,     -1.37904,0.77759
565.987,61.58974,-3.28713,     -1.37988,0.77699
566.687,61.65962,-3.28844,     -1.38445,0.77639
567.387,61.72954,-3.28714,     -1.37508,0.77579
568.087,61.79934,-3.28713,     -1.38187,0.77518
568.787,61.86922,-3.28713,     -1.38780,0.77458
569.487,61.93844,-3.28845,     -1.40041,0.77398
570.187,62.0083,-3.28871,     -1.40083,0.77338
570.887,62.0781,-3.29165,     -1.40608,0.77277
571.587,62.14829,-3.29084,     -1.41202,0.77217
572.287,62.21785,-3.28953,     -1.42205,0.77157
572.987,62.2875,-3.29098,     -1.42161,0.77096
573.687,62.3572,-3.29185,     -1.42945,0.77036
574.387,62.42706,-3.29185,     -1.43759,0.76975
575.087,62.49677,-3.29314,     -1.43467,0.76915
575.787,62.5664,-3.29185,     -1.44383,0.76854
576.487,62.63593,-3.29185,     -1.45148,0.76793
577.187,62.7055,-3.29218,     -1.44869,0.76733
577.887,62.7752,-3.29317,     -1.44734,0.76672
578.587,62.84486,-3.29317,     -1.45066,0.76611
579.287,62.91475,-3.29448,     -1.45397,0.7655
579.987,62.9845,-3.29452,     -1.44763,0.7649
580.687,63.05444,-3.29688,     -1.46568,0.76429
581.387,63.12426,-3.29848,     -1.47578,0.76368
582.087,63.1939,-3.29843,     -1.47683,0.76307
582.787,63.26367,-3.29835,     -1.48008,0.76246
583.487,63.3334,-3.29975,     -1.48944,0.76185
584.187,63.4034,-3.29974,     -1.49193,0.76123
584.887,63.4732,-3.29976,     -1.48679,0.76062
585.587,63.54331,-3.29968,     -1.49194,0.76001
586.287,63.61335,-3.30116,     -1.49839,0.7594
586.987,63.6837,-3.29976,     -1.49272,0.75879
587.687,63.75349,-3.30184,     -1.49729,0.75817
588.387,63.82306,-3.30239,     -1.49738,0.75756
589.087,63.89317,-3.30239,     -1.50299,0.75695
589.787,63.9634,-3.30334,     -1.50900,0.75633
590.487,64.034,-3.30239,     -1.51459,0.75572
591.187,64.10416,-3.30364,     -1.51761,0.7551
591.887,64.1742,-3.30371,     -1.52438,0.75449
592.587,64.24439,-3.30637,     -1.52102,0.75387
593.287,64.31427,-3.30502,     -1.53900,0.75325
593.987,64.38424,-3.30502,     -1.54572,0.75264
594.687,64.4542,-3.30502,     -1.54042,0.75202
595.387,64.52436,-3.30628,     -1.54485,0.7514
596.087,64.59461,-3.30634,     -1.53941,0.75078
596.787,64.6648,-3.30634,     -1.54053,0.75016
597.487,64.73493,-3.3064,     -1.55055,0.74955
598.187,64.8049,-3.30667,     -1.55670,0.74893
598.887,64.87481,-3.30799,     -1.56137,0.74831
599.587,64.94471,-3.30931,     -1.56267,0.74769
600.287,65.01461,-3.30798,     -1.57038,0.74707
600.987,65.0845,-3.30898,     -1.57038,0.74645
601.687,65.15426,-3.3103,     -1.57038,0.74582
602.387,65.2243,-3.30958,     -1.57038,0.7452
603.087,65.29441,-3.31062,     -1.57038,0.74458
603.787,65.36457,-3.31061,     -1.57038,0.74396
604.487,65.4345,-3.31194,     -1.57038,0.74334
605.187,65.50461,-3.31249,     -1.57038,0.74271
605.887,65.57455,-3.31293,             ,0.74209
606.587,65.64453,-3.31233,             ,0.74147
607.287,65.7145,-3.31276,             ,0.74084
607.987,65.78446,-3.31358,             ,0.74022
608.687,65.85458,-3.31358,             ,0.73959
609.387,65.9248,-3.31354,             ,0.73897
610.087,65.99491,-3.31622,             ,0.73834
610.787,66.06514,-3.31556,             ,0.73772
611.487,66.13529,-3.31654,             ,0.73709
612.187,66.2054,-3.31687,             ,0.73646
612.887,66.27532,-3.31721,             ,0.73584
613.587,66.3451,-3.31754,             ,0.73521
614.287,66.41511,-3.31655,             ,0.73458
614.987,66.485,-3.31795,             ,0.73395
615.687,66.55503,-3.31842,             ,0.73332
616.387,66.6249,-3.32051,             ,0.73269
617.087,66.695,-3.3205,             ,0.73207
617.787,66.765,-3.3205,             ,0.73144
618.487,66.8353,-3.32052,             ,0.73081
619.187,66.90514,-3.32014,             ,0.73017
619.887,66.97516,-3.3205,             ,0.72954
620.587,67.0449,-3.32185,             ,0.72891
621.287,67.11506,-3.32314,             ,0.72828
621.987,67.18521,-3.32441,             ,0.72765
622.687,67.25546,-3.32413,             ,0.72702
623.387,67.32536,-3.32457,             ,0.72639
624.087,67.3955,-3.3259,             ,0.72575
624.787,67.46562,-3.32589,             ,0.72512
625.487,67.53605,-3.32589,             ,0.72449
626.187,67.606,-3.32524,             ,0.72385
626.887,67.67607,-3.32457,             ,0.72322
627.587,67.74615,-3.32452,             ,0.72258
628.287,67.81653,-3.32589,             ,0.72195
628.987,67.887,-3.32589,             ,0.72131
629.687,67.95736,-3.32589,             ,0.72068
630.387,68.02767,-3.3278,             ,0.72004
631.087,68.09793,-3.32818,             ,0.7194
631.787,68.1679,-3.32818,             ,0.71877
632.487,68.23796,-3.32818,             ,0.71813
633.187,68.3083,-3.32892,             ,0.71749
633.887,68.3789,-3.32951,             ,0.71686
634.587,68.44911,-3.32951,             ,0.71622
635.287,68.5194,-3.32951,             ,0.71558
635.987,68.5897,-3.32951,             ,0.71494
636.687,68.66028,-3.32951,             ,0.7143
637.387,68.73051,-3.33083,             ,0.71366
638.087,68.8009,-3.33083,             ,0.71302
638.787,68.8712,-3.33083,             ,0.71238
639.487,68.9413,-3.33182,             ,0.71174
640.187,69.0116,-3.33214,             ,0.7111
640.887,69.08176,-3.33402,             ,0.71046
641.587,69.1519,-3.33346,             ,0.70982
642.287,69.22184,-3.33346,             ,0.70918
642.987,69.29176,-3.33359,             ,0.70854
643.687,69.3622,-3.33445,             ,0.7079
644.387,69.43242,-3.33313,             ,0.70725
645.087,69.50288,-3.33309,             ,0.70661
645.787,69.57308,-3.33445,             ,0.70597
646.487,69.6434,-3.33477,             ,0.70532
647.187,69.7136,-3.33516,             ,0.70468
647.887,69.7838,-3.33511,             ,0.70404
648.587,69.85401,-3.33511,             ,0.70339
649.287,69.92425,-3.33511,             ,0.70275
649.987,69.99449,-3.33502,             ,0.7021
650.687,70.06459,-3.33642,             ,0.70146
651.387,70.13479,-3.33642,             ,0.70081
652.087,70.20495,-3.33674,             ,0.70017
652.787,70.2753,-3.33774,             ,0.69952
653.487,70.3454,-3.33873,             ,0.69887
654.187,70.41564,-3.33873,             ,0.69823
654.887,70.48571,-3.33838,             ,0.69758
655.587,70.55593,-3.3384,             ,0.69693
656.287,70.6263,-3.3384,             ,0.69628
656.987,70.69676,-3.33841,             ,0.69564
657.687,70.76715,-3.33892,             ,0.69499
658.387,70.83749,-3.34005,             ,0.69434
659.087,70.9077,-3.34005,             ,0.69369
659.787,70.9781,-3.34061,             ,0.69304
660.487,71.0485,-3.34136,             ,0.69239
661.187,71.11906,-3.34136,             ,0.69174
661.887,71.18945,-3.3407,             ,0.69109
662.587,71.25981,-3.3407,             ,0.69044
663.287,71.33,-3.3407,             ,0.68979
663.987,71.40024,-3.3407,             ,0.68914
664.687,71.47044,-3.34004,             ,0.68849
665.387,71.54044,-3.34069,             ,0.68784
666.087,71.61107,-3.3407,             ,0.68719
666.787,71.68175,-3.3407,             ,0.68654
667.487,71.75242,-3.34097,             ,0.68588
668.187,71.82275,-3.34202,             ,0.68523
668.887,71.8929,-3.34202,             ,0.68458
669.587,71.9633,-3.34202,             ,0.68393
670.287,72.0335,-3.34303,             ,0.68327
670.987,72.10376,-3.34337,             ,0.68262
671.687,72.17405,-3.34464,             ,0.68197
672.387,72.2443,-3.34336,             ,0.68131
673.087,72.3148,-3.34334,             ,0.68066
673.787,72.38516,-3.3443,             ,0.68
674.487,72.4555,-3.34465,             ,0.67935
675.187,72.5258,-3.344,             ,0.67869
675.887,72.59613,-3.34399,             ,0.67804
676.587,72.66625,-3.34394,             ,0.67738
677.287,72.7366,-3.34663,             ,0.67673
677.987,72.80696,-3.34663,             ,0.67607
678.687,72.87755,-3.34531,             ,0.67541
679.387,72.94821,-3.34531,             ,0.67476
680.087,73.0188,-3.34531,             ,0.6741
680.787,73.08918,-3.34663,             ,0.67344
681.487,73.15944,-3.34663,             ,0.67279
682.187,73.22986,-3.34663,             ,0.67213
682.887,73.3004,-3.34663,             ,0.67147
683.587,73.37096,-3.34668,             ,0.67081
684.287,73.4415,-3.34696,             ,0.67015
684.987,73.51182,-3.34696,             ,0.6695
685.687,73.5823,-3.34751,             ,0.66884
686.387,73.6528,-3.34794,             ,0.66818
687.087,73.72345,-3.34927,             ,0.66752
687.787,73.79401,-3.34795,             ,0.66686
688.487,73.86461,-3.34926,             ,0.6662
689.187,73.9351,-3.34925,             ,0.66554
689.887,74.0057,-3.34795,             ,0.66488
690.587,74.0762,-3.34808,             ,0.66422
691.287,74.14646,-3.34932,             ,0.66356
691.987,74.2166,-3.34927,             ,0.6629
692.687,74.2869,-3.34926,             ,0.66224
693.387,74.35717,-3.34913,             ,0.66158
694.087,74.42764,-3.35025,             ,0.66091
694.787,74.49802,-3.35026,             ,0.66025
695.487,74.5686,-3.35026,             ,0.65959
696.187,74.63923,-3.35026,             ,0.65893
696.887,74.70934,-3.35026,             ,0.65827
697.587,74.78009,-3.35026,             ,0.6576
698.287,74.8505,-3.3516,             ,0.65694
698.987,74.92135,-3.35157,             ,0.65628
699.687,74.99158,-3.35157,             ,0.65562
700.387,75.0621,-3.35157,             ,0.65495
701.087,75.13257,-3.3529,             ,0.65429
701.787,75.20321,-3.35289,             ,0.65362
702.487,75.27385,-3.35289,             ,0.65296
703.187,75.34445,-3.35289,             ,0.6523
703.887,75.41498,-3.35289,             ,0.65163
704.587,75.4853,-3.35422,             ,0.65097
705.287,75.5557,-3.35288,             ,0.6503
705.987,75.62626,-3.35289,             ,0.64964
706.687,75.69685,-3.35289,             ,0.64897
707.387,75.7675,-3.35289,             ,0.64831
708.087,75.83801,-3.35289,             ,0.64764
708.787,75.90876,-3.35319,             ,0.64698
709.487,75.97912,-3.35553,             ,0.64631
710.187,76.04983,-3.35553,             ,0.64564
710.887,76.12039,-3.35553,             ,0.64498
711.587,76.19121,-3.35553,             ,0.64431
712.287,76.26173,-3.35553,             ,0.64364
712.987,76.3322,-3.35553,             ,0.64298
713.687,76.40275,-3.35552,             ,0.64231
714.387,76.47364,-3.35684,             ,0.64164
715.087,76.54449,-3.35684,             ,0.64098
715.787,76.61508,-3.3562,             ,0.64031
716.487,76.68579,-3.35552,             ,0.63964
717.187,76.7565,-3.35457,             ,0.63897
717.887,76.82722,-3.35552,             ,0.6383
718.587,76.8977,-3.35608,             ,0.63764
719.287,76.96829,-3.35651,             ,0.63697
719.987,77.0388,-3.35651,             ,0.6363
720.687,77.10951,-3.35783,             ,0.63563
721.387,77.18015,-3.35816,             ,0.63496
722.087,77.2509,-3.35815,             ,0.63429
722.787,77.3216,-3.35717,             ,0.63362
723.487,77.39239,-3.35684,             ,0.63295
724.187,77.4632,-3.35684,             ,0.63228
724.887,77.53387,-3.35651,             ,0.63161
725.587,77.60441,-3.35756,             ,0.63094
726.287,77.6751,-3.35786,             ,0.63027
726.987,77.7457,-3.35783,             ,0.6296
727.687,77.81649,-3.35914,             ,0.62893
728.387,77.88707,-3.35914,             ,0.62826
729.087,77.9579,-3.35914,             ,0.62759
729.787,78.02879,-3.35783,             ,0.62692
730.487,78.09954,-3.35783,             ,0.62625
731.187,78.17023,-3.35914,             ,0.62558
731.887,78.24088,-3.35914,             ,0.62491
732.587,78.31181,-3.35981,             ,0.62424
733.287,78.38237,-3.35978,             ,0.62356
733.987,78.45304,-3.36113,             ,0.62289
734.687,78.52374,-3.36113,             ,0.62222
735.387,78.5947,-3.36113,             ,0.62155
736.087,78.66557,-3.36069,             ,0.62088
736.787,78.73615,-3.35981,             ,0.6202
737.487,78.80702,-3.35977,             ,0.61953
738.187,78.87781,-3.36244,             ,0.61886
738.887,78.94879,-3.36215,             ,0.61819
739.587,79.01943,-3.36178,             ,0.61751
740.287,79.0902,-3.36178,             ,0.61684
740.987,79.16113,-3.36178,             ,0.61617
741.687,79.232,-3.36173,             ,0.6155
742.387,79.30253,-3.3633,             ,0.61482
743.087,79.373,-3.36376,             ,0.61415
743.787,79.4435,-3.36244,             ,0.61347
744.487,79.51439,-3.36244,             ,0.6128
745.187,79.58524,-3.36377,             ,0.61213
745.887,79.6561,-3.36376,             ,0.61145
746.587,79.72674,-3.36376,             ,0.61078
747.287,79.7974,-3.36376,             ,0.61011
747.987,79.86799,-3.36376,             ,0.60943
748.687,79.93867,-3.36508,             ,0.60876
749.287,79.9987,-3.36508,             ,0.60818