File: 01_Data/Countertop_Plastic_LaminateA/MCC/Countertop_Plastic_LaminateA_MCC_30K_min_211103_R1.txt
Sample ID:	C:\MCC\MCC Cal\Countertop_Plastic_LaminateA_MCC_30K_min_211103_R1.txt
Sample Weight (mg):	5
Heating Rate (C/s):	0.5
Combustor Temp (C):	900
N2 Flow Rate (cc/min):	80
O2 Flow Rate (cc/min):	20
Calibration File:	C:\MCC\MCC Cal\Coeff1 JN10440_30_210304.txt.txt
T Correction Coefficients:	0	1.024463	0
Time Shift (s):	14
*
Time (s)	Temperature (C)	N2 flow rate (cc/min)	O2 flow rate (cc/min)	Flow Rate (cc/min)	Oxygen (%)	HRR (W/g)	Heating rate (C/s)
-0.001	110.875	80.007	19.994	103.026	20.057	-0.026	0.000
2.000	110.870	80.006	19.993	103.024	20.058	-0.106	-0.030
4.000	110.861	80.008	19.994	103.024	20.058	-0.058	-0.010
6.000	110.819	80.009	19.994	103.038	20.055	0.110	-0.027
8.000	110.861	80.006	19.995	103.066	20.052	0.328	0.011
10.000	110.888	80.006	19.995	103.101	20.051	0.367	0.042
12.000	110.845	80.004	19.995	103.103	20.050	0.409	0.000
14.000	110.881	80.005	19.994	103.120	20.044	0.854	0.016
16.000	110.955	80.005	19.995	103.127	20.045	0.779	0.032
18.000	110.966	80.005	19.995	103.100	20.038	1.191	0.038
20.000	111.101	80.004	19.995	103.208	20.035	1.416	0.075
22.000	111.189	80.005	19.996	103.234	20.032	1.581	0.061
24.000	111.384	80.004	19.995	103.210	20.027	1.895	0.097
26.000	111.566	80.005	19.995	103.220	20.026	2.000	0.114
28.000	111.765	80.004	19.995	103.216	20.022	2.265	0.118
30.000	112.038	80.004	19.993	103.218	20.019	2.407	0.151
32.000	112.273	80.005	19.995	103.231	20.015	2.708	0.123
33.999	112.636	80.004	19.995	103.246	20.016	2.638	0.161
36.000	112.981	80.003	19.995	103.246	20.015	2.675	0.153
37.999	113.291	80.003	19.996	103.234	20.014	2.790	0.161
40.000	113.738	80.002	19.996	103.252	20.014	2.767	0.215
41.999	114.128	80.003	19.996	103.273	20.010	3.024	0.214
43.999	114.506	80.002	19.995	103.260	20.013	2.832	0.199
45.999	115.010	80.002	19.995	103.279	20.012	2.900	0.249
47.999	115.501	80.003	19.995	103.272	20.010	3.004	0.232
49.999	116.006	80.002	19.994	103.263	20.011	2.928	0.284
52.000	116.447	80.003	19.995	103.263	20.012	2.877	0.250
54.000	117.026	80.005	19.995	103.262	20.015	2.711	0.268
55.999	117.587	80.005	19.994	103.249	20.012	2.858	0.282
57.999	118.132	80.006	19.994	103.249	20.017	2.591	0.277
59.999	118.660	80.005	19.995	103.256	20.012	2.858	0.278
62.000	119.252	80.006	19.995	103.252	20.015	2.714	0.285
63.999	119.810	80.007	19.995	103.237	20.013	2.847	0.290
66.000	120.441	80.006	19.993	103.247	20.014	2.769	0.310
67.999	121.048	80.006	19.995	103.257	20.013	2.804	0.287
69.999	121.698	80.006	19.995	103.257	20.017	2.596	0.339
71.999	122.322	80.004	19.995	103.238	20.015	2.674	0.323
73.999	123.003	80.006	19.994	103.233	20.013	2.807	0.327
76.000	123.650	80.005	19.994	103.238	20.016	2.636	0.352
77.999	124.284	80.004	19.995	103.255	20.013	2.842	0.327
79.999	125.002	80.006	19.996	103.251	20.013	2.827	0.373
81.999	125.689	80.006	19.994	103.257	20.013	2.849	0.351
83.999	126.341	80.008	19.994	103.250	20.014	2.781	0.330
85.999	127.096	80.009	19.994	103.250	20.014	2.734	0.351
88.000	127.773	80.007	19.994	103.252	20.015	2.682	0.336
90.000	128.505	80.008	19.995	103.259	20.015	2.663	0.364
91.999	129.217	80.006	19.994	103.266	20.015	2.726	0.373
93.999	129.938	80.005	19.994	103.262	20.013	2.820	0.378
95.999	130.660	80.004	19.994	103.252	20.013	2.792	0.333
97.999	131.432	80.004	19.994	103.252	20.015	2.687	0.374
99.999	132.190	80.005	19.995	103.270	20.013	2.816	0.399
102.000	132.900	80.005	19.994	103.283	20.014	2.760	0.375
103.999	133.669	80.005	19.995	103.262	20.015	2.706	0.362
105.999	134.424	80.006	19.995	103.257	20.010	3.036	0.401
107.999	135.176	80.004	19.996	103.257	20.010	3.038	0.391
109.999	136.001	80.004	19.995	103.257	20.010	3.033	0.395
111.999	136.793	80.005	19.995	103.263	20.010	3.045	0.392
114.000	137.569	80.005	19.995	103.268	20.014	2.752	0.382
116.000	138.375	80.003	19.995	103.264	20.011	2.946	0.388
118.001	139.176	80.005	19.994	103.267	20.008	3.145	0.393
119.999	139.999	80.004	19.995	103.273	20.006	3.281	0.404
122.000	140.785	80.004	19.995	103.266	20.010	3.011	0.416
123.999	141.583	80.006	19.995	103.272	20.006	3.268	0.402
125.999	142.436	80.005	19.995	103.274	20.007	3.236	0.414
127.999	143.288	80.005	19.996	103.275	20.001	3.589	0.432
130.000	144.095	80.004	19.996	103.280	20.008	3.142	0.422
132.000	144.957	80.004	19.995	103.284	20.003	3.437	0.423
134.000	145.817	80.003	19.995	103.295	20.002	3.501	0.401
136.000	146.669	80.004	19.996	103.281	19.999	3.725	0.426
138.000	147.529	80.004	19.997	103.288	20.005	3.330	0.438
140.000	148.423	80.006	19.996	103.289	20.004	3.376	0.471
142.000	149.269	80.005	19.995	103.282	20.005	3.327	0.435
144.000	150.184	80.006	19.996	103.275	20.005	3.362	0.460
146.000	151.051	80.008	19.995	103.259	20.007	3.238	0.423
148.000	151.922	80.006	19.995	103.269	20.002	3.542	0.451
150.000	152.853	80.005	19.995	103.279	20.001	3.587	0.441
152.000	153.722	80.004	19.993	103.280	20.002	3.552	0.451
154.000	154.656	80.005	19.994	103.287	20.001	3.587	0.453
156.000	155.588	80.005	19.993	103.273	20.003	3.444	0.454
158.000	156.556	80.006	19.994	103.279	20.003	3.450	0.465
160.000	157.491	80.005	19.994	103.277	20.002	3.510	0.469
162.000	158.427	80.005	19.994	103.269	20.003	3.500	0.471
164.000	159.313	80.006	19.994	103.262	20.000	3.652	0.449
166.000	160.247	80.006	19.995	103.269	20.000	3.636	0.486
168.000	161.240	80.007	19.994	103.265	20.006	3.299	0.499
170.000	162.173	80.007	19.994	103.269	20.003	3.495	0.468
172.000	163.163	80.007	19.993	103.279	20.002	3.557	0.491
174.000	164.126	80.006	19.995	103.283	20.002	3.526	0.492
176.000	165.097	80.005	19.995	103.288	20.002	3.526	0.499
178.000	166.051	80.003	19.994	103.287	20.001	3.595	0.482
180.000	167.013	80.005	19.994	103.292	20.002	3.560	0.486
182.000	167.969	80.004	19.994	103.281	20.001	3.572	0.487
184.000	168.975	80.005	19.994	103.267	19.995	3.977	0.524
186.000	169.943	80.005	19.993	103.266	20.001	3.604	0.487
188.000	170.872	80.004	19.995	103.270	20.000	3.630	0.506
190.000	171.837	80.004	19.995	103.262	19.997	3.845	0.493
192.000	172.816	80.004	19.995	103.271	19.999	3.704	0.464
194.000	173.802	80.005	19.995	103.283	19.997	3.831	0.495
196.000	174.789	80.004	19.995	103.268	20.000	3.658	0.506
198.000	175.745	80.004	19.995	103.268	19.996	3.903	0.475
200.000	176.774	80.005	19.995	103.267	19.999	3.695	0.489
202.000	177.766	80.005	19.994	103.265	19.995	4.008	0.482
204.000	178.753	80.005	19.996	103.261	19.997	3.884	0.490
206.000	179.751	80.004	19.997	103.260	19.994	4.055	0.479
208.000	180.742	80.004	19.996	103.259	19.994	4.025	0.462
210.000	181.756	80.005	19.995	103.260	19.997	3.833	0.475
212.000	182.770	80.004	19.996	103.260	19.995	3.976	0.484
214.000	183.740	80.005	19.994	103.261	19.993	4.112	0.528
216.000	184.760	80.005	19.996	103.265	20.000	3.667	0.497
218.000	185.771	80.006	19.995	103.265	19.996	3.943	0.492
220.000	186.799	80.005	19.996	103.262	20.001	3.586	0.509
222.000	187.829	80.005	19.996	103.259	19.999	3.723	0.513
224.000	188.836	80.005	19.995	103.263	19.998	3.817	0.492
226.000	189.824	80.006	19.995	103.260	19.995	3.999	0.483
228.000	190.839	80.006	19.996	103.261	19.995	3.960	0.476
230.000	191.875	80.005	19.996	103.259	19.991	4.231	0.504
232.000	192.887	80.005	19.995	103.258	19.993	4.100	0.464
234.000	193.932	80.004	19.996	103.255	19.996	3.922	0.516
236.000	194.924	80.005	19.995	103.257	19.997	3.862	0.507
238.000	195.897	80.004	19.996	103.256	19.997	3.885	0.486
240.000	196.928	80.005	19.995	103.256	20.001	3.621	0.516
242.000	197.912	80.005	19.995	103.253	19.992	4.161	0.535
244.000	198.882	80.006	19.994	103.258	19.997	3.871	0.497
246.000	199.932	80.007	19.994	103.257	19.996	3.907	0.508
248.000	200.905	80.005	19.995	103.246	19.994	4.040	0.524
250.000	201.963	80.007	19.995	103.255	19.995	3.979	0.513
252.000	202.924	80.008	19.995	103.250	19.994	4.052	0.514
254.000	203.935	80.007	19.993	103.252	19.998	3.782	0.608
256.000	204.905	80.006	19.994	103.239	19.998	3.809	0.475
258.000	205.976	80.007	19.996	103.247	19.999	3.696	0.506
260.000	206.933	80.006	19.994	103.243	19.998	3.814	0.508
262.000	207.882	80.005	19.995	103.232	19.998	3.802	0.513
264.000	208.864	80.006	19.994	103.246	19.998	3.792	0.478
266.000	209.844	80.004	19.995	103.236	19.997	3.865	0.493
268.000	210.876	80.005	19.994	103.226	19.994	4.057	0.519
270.000	211.774	80.005	19.995	103.233	19.995	3.957	0.449
272.000	212.777	80.005	19.995	103.224	19.995	3.964	0.446
274.000	213.717	80.006	19.995	103.232	19.995	3.992	0.482
276.000	214.741	80.006	19.995	103.237	19.996	3.935	0.497
278.000	215.650	80.004	19.994	103.232	19.992	4.198	0.464
280.000	216.628	80.005	19.994	103.228	19.993	4.101	0.478
282.000	217.573	80.004	19.995	103.228	19.991	4.225	0.472
284.000	218.556	80.006	19.996	103.221	19.990	4.280	0.486
286.000	219.489	80.004	19.994	103.229	19.991	4.227	0.480
288.000	220.454	80.004	19.994	103.226	19.991	4.219	0.489
290.000	221.421	80.004	19.996	103.234	19.993	4.087	0.472
292.000	222.339	80.004	19.996	103.231	19.991	4.246	0.454
294.000	223.298	80.003	19.994	103.224	19.988	4.422	0.483
296.000	224.213	80.004	19.995	103.231	19.990	4.272	0.495
298.000	225.155	80.004	19.995	103.229	19.984	4.675	0.460
300.000	226.079	80.004	19.997	103.226	19.983	4.750	0.458
302.000	227.063	80.003	19.995	103.228	19.987	4.476	0.474
304.000	228.015	80.004	19.996	103.224	19.984	4.691	0.469
306.000	228.996	80.005	19.994	103.238	19.987	4.516	0.471
308.000	229.915	80.006	19.994	103.229	19.982	4.828	0.423
310.000	230.893	80.006	19.995	103.228	19.983	4.737	0.489
312.000	231.796	80.005	19.994	103.234	19.985	4.639	0.474
314.000	232.782	80.006	19.995	103.237	19.987	4.524	0.464
316.000	233.723	80.005	19.994	103.229	19.983	4.735	0.471
318.000	234.675	80.006	19.996	103.238	19.982	4.823	0.467
320.000	235.629	80.004	19.996	103.247	19.984	4.704	0.469
322.000	236.601	80.006	19.997	103.240	19.982	4.823	0.503
324.000	237.533	80.004	19.995	103.239	19.978	5.108	0.463
326.000	238.483	80.006	19.995	103.235	19.979	5.033	0.451
328.000	239.452	80.005	19.996	103.240	19.976	5.220	0.465
330.000	240.375	80.005	19.996	103.252	19.976	5.222	0.474
332.000	241.278	80.006	19.995	103.252	19.977	5.160	0.456
334.000	242.322	80.008	19.995	103.252	19.971	5.546	0.470
336.000	243.240	80.008	19.995	103.252	19.972	5.443	0.464
338.000	244.186	80.008	19.994	103.257	19.970	5.569	0.442
340.000	245.189	80.006	19.995	103.256	19.970	5.611	0.480
342.000	246.216	80.006	19.995	103.257	19.971	5.559	0.506
344.000	247.199	80.006	19.995	103.256	19.968	5.730	0.495
346.000	248.234	80.005	19.996	103.256	19.966	5.875	0.500
348.000	249.221	80.004	19.994	103.257	19.963	6.064	0.506
350.000	250.247	80.004	19.995	103.256	19.962	6.080	0.519
352.000	251.275	80.005	19.995	103.261	19.961	6.151	0.533
354.000	252.286	80.004	19.995	103.256	19.960	6.226	0.486
356.000	253.307	80.006	19.995	103.259	19.956	6.501	0.488
358.000	254.374	80.003	19.994	103.261	19.956	6.488	0.546
360.000	255.377	80.004	19.996	103.264	19.955	6.562	0.513
362.000	256.406	80.005	19.995	103.260	19.952	6.735	0.499
364.000	257.477	80.005	19.994	103.259	19.951	6.848	0.528
366.000	258.516	80.004	19.994	103.263	19.948	7.012	0.511
368.000	259.556	80.005	19.995	103.263	19.948	7.014	0.529
370.000	260.584	80.005	19.995	103.265	19.944	7.249	0.514
372.000	261.628	80.005	19.994	103.263	19.940	7.521	0.508
374.000	262.638	80.004	19.994	103.260	19.945	7.196	0.537
376.000	263.711	80.003	19.995	103.263	19.937	7.724	0.524
378.000	264.734	80.003	19.994	103.263	19.933	7.989	0.523
380.000	265.790	80.004	19.995	103.269	19.937	7.690	0.531
382.000	266.847	80.004	19.995	103.266	19.927	8.367	0.558
384.000	267.887	80.004	19.995	103.266	19.927	8.360	0.502
386.000	268.936	80.004	19.994	103.265	19.928	8.270	0.541
388.000	269.997	80.005	19.995	103.269	19.927	8.353	0.539
390.000	271.022	80.006	19.994	103.275	19.924	8.576	0.525
392.000	272.097	80.007	19.995	103.284	19.922	8.690	0.523
394.000	273.143	80.006	19.996	103.264	19.920	8.814	0.536
396.000	274.155	80.006	19.995	103.271	19.914	9.187	0.515
398.000	275.155	80.006	19.995	103.277	19.909	9.512	0.486
400.000	276.189	80.007	19.995	103.258	19.908	9.610	0.499
402.000	277.217	80.006	19.995	103.263	19.902	9.967	0.521
404.000	278.275	80.007	19.995	103.269	19.900	10.107	0.515
406.000	279.262	80.007	19.996	103.293	19.896	10.346	0.513
408.000	280.274	80.006	19.995	103.291	19.893	10.586	0.504
410.000	281.268	80.005	19.995	103.278	19.884	11.114	0.479
412.000	282.261	80.006	19.996	103.287	19.886	11.006	0.471
414.000	283.306	80.008	19.995	103.289	19.882	11.298	0.548
416.000	284.322	80.007	19.995	103.283	19.876	11.676	0.516
418.000	285.323	80.006	19.995	103.291	19.873	11.860	0.498
420.000	286.354	80.006	19.996	103.294	19.868	12.200	0.503
422.000	287.395	80.007	19.995	103.297	19.865	12.343	0.529
424.000	288.371	80.005	19.995	103.297	19.858	12.799	0.501
426.000	289.376	80.004	19.996	103.300	19.850	13.355	0.514
428.000	290.389	80.003	19.996	103.306	19.846	13.575	0.522
430.000	291.375	80.004	19.995	103.302	19.842	13.824	0.494
432.000	292.411	80.005	19.996	103.297	19.838	14.112	0.506
434.000	293.416	80.005	19.995	103.299	19.832	14.518	0.461
436.000	294.426	80.004	19.995	103.317	19.824	15.015	0.513
438.000	295.435	80.004	19.994	103.327	19.818	15.389	0.516
440.000	296.398	80.005	19.995	103.340	19.811	15.832	0.495
442.000	297.402	80.004	19.994	103.338	19.808	16.029	0.490
444.000	298.380	80.004	19.994	103.341	19.800	16.575	0.506
446.000	299.374	80.005	19.994	103.340	19.791	17.132	0.502
448.000	300.376	80.005	19.994	103.344	19.783	17.677	0.479
450.000	301.338	80.006	19.995	103.349	19.781	17.773	0.501
452.000	302.355	80.004	19.994	103.365	19.772	18.392	0.494
454.000	303.332	80.006	19.995	103.370	19.766	18.730	0.496
456.000	304.340	80.005	19.995	103.363	19.759	19.218	0.513
458.000	305.318	80.005	19.995	103.371	19.749	19.846	0.480
460.000	306.326	80.004	19.995	103.345	19.740	20.455	0.467
462.000	307.334	80.004	19.995	103.354	19.733	20.909	0.506
464.000	308.314	80.005	19.995	103.368	19.727	21.300	0.493
466.000	309.330	80.006	19.994	103.377	19.719	21.811	0.500
468.000	310.337	80.005	19.994	103.373	19.704	22.733	0.505
470.000	311.285	80.007	19.995	103.371	19.698	23.157	0.481
472.000	312.326	80.007	19.995	103.383	19.689	23.765	0.508
474.000	313.376	80.007	19.993	103.378	19.677	24.510	0.507
476.000	314.369	80.008	19.994	103.375	19.669	25.020	0.505
478.000	315.335	80.008	19.994	103.386	19.658	25.752	0.506
480.000	316.323	80.007	19.995	103.401	19.649	26.301	0.501
482.000	317.353	80.006	19.995	103.413	19.640	26.924	0.508
484.000	318.329	80.005	19.995	103.418	19.626	27.805	0.498
486.000	319.336	80.005	19.994	103.421	19.617	28.422	0.509
488.000	320.315	80.005	19.995	103.417	19.604	29.240	0.497
490.000	321.361	80.005	19.996	103.432	19.593	29.943	0.510
492.000	322.333	80.005	19.995	103.452	19.582	30.674	0.499
494.000	323.332	80.007	19.995	103.456	19.572	31.321	0.483
496.000	324.352	80.007	19.995	103.455	19.555	32.381	0.493
498.000	325.338	80.006	19.995	103.453	19.550	32.729	0.501
500.000	326.326	80.007	19.994	103.459	19.533	33.818	0.484
502.000	327.284	80.007	19.994	103.467	19.521	34.609	0.469
504.000	328.305	80.006	19.994	103.467	19.510	35.308	0.502
506.000	329.326	80.005	19.994	103.469	19.492	36.458	0.521
508.000	330.309	80.004	19.994	103.469	19.486	36.829	0.508
510.000	331.286	80.003	19.994	103.467	19.472	37.779	0.483
512.000	332.299	80.004	19.995	103.481	19.459	38.575	0.504
514.000	333.282	80.003	19.996	103.478	19.447	39.400	0.503
516.000	334.330	80.003	19.996	103.478	19.434	40.207	0.504
518.000	335.330	80.004	19.996	103.491	19.425	40.823	0.523
520.000	336.299	80.004	19.996	103.481	19.413	41.535	0.489
522.000	337.319	80.004	19.997	103.476	19.399	42.446	0.513
524.000	338.321	80.003	19.995	103.477	19.394	42.791	0.505
526.000	339.337	80.005	19.995	103.467	19.395	42.699	0.493
528.000	340.338	80.007	19.995	103.475	19.387	43.225	0.492
530.000	341.327	80.005	19.995	103.471	19.381	43.620	0.504
532.000	342.325	80.006	19.995	103.462	19.376	43.916	0.521
534.000	343.290	80.004	19.995	103.463	19.381	43.637	0.509
536.000	344.288	80.005	19.994	103.462	19.381	43.576	0.496
538.000	345.266	80.006	19.995	103.450	19.383	43.434	0.496
540.000	346.296	80.004	19.995	103.439	19.388	43.156	0.497
542.000	347.279	80.004	19.995	103.426	19.398	42.459	0.505
544.000	348.266	80.005	19.996	103.415	19.405	41.999	0.487
546.000	349.263	80.005	19.995	103.402	19.412	41.553	0.477
548.000	350.313	80.002	19.995	103.379	19.433	40.197	0.532
550.000	351.287	80.005	19.995	103.369	19.448	39.214	0.505
552.000	352.254	80.006	19.995	103.343	19.465	38.144	0.492
554.000	353.248	80.008	19.996	103.348	19.484	36.926	0.529
556.000	354.311	80.006	19.995	103.336	19.505	35.549	0.522
558.000	355.266	80.006	19.995	103.322	19.530	33.920	0.476
560.000	356.264	80.007	19.995	103.302	19.556	32.282	0.482
562.000	357.266	80.006	19.995	103.294	19.580	30.715	0.506
564.000	358.254	80.007	19.994	103.281	19.596	29.662	0.506
566.000	359.253	80.007	19.995	103.264	19.621	28.052	0.489
568.000	360.271	80.006	19.995	103.272	19.643	26.635	0.486
570.000	361.289	80.006	19.995	103.260	19.664	25.335	0.532
572.000	362.291	80.006	19.994	103.255	19.688	23.761	0.485
574.000	363.341	80.006	19.995	103.261	19.700	22.954	0.516
576.000	364.332	80.006	19.995	103.257	19.717	21.898	0.490
578.000	365.346	80.008	19.995	103.249	19.737	20.621	0.492
580.000	366.422	80.007	19.995	103.244	19.749	19.806	0.535
582.000	367.353	80.007	19.996	103.228	19.764	18.828	0.458
584.000	368.412	80.007	19.995	103.223	19.778	17.969	0.498
586.000	369.455	80.007	19.995	103.222	19.785	17.507	0.504
588.000	370.442	80.007	19.995	103.222	19.796	16.797	0.497
590.000	371.489	80.006	19.995	103.208	19.804	16.290	0.534
592.000	372.504	80.005	19.995	103.216	19.816	15.518	0.515
594.000	373.518	80.006	19.995	103.216	19.822	15.107	0.508
596.000	374.559	80.006	19.995	103.222	19.833	14.385	0.515
598.000	375.526	80.005	19.994	103.222	19.837	14.147	0.495
600.000	376.564	80.004	19.994	103.225	19.843	13.764	0.506
602.000	377.615	80.004	19.995	103.226	19.849	13.397	0.529
604.000	378.594	80.005	19.994	103.220	19.859	12.724	0.489
606.000	379.598	80.005	19.995	103.213	19.855	13.013	0.508
608.000	380.640	80.004	19.995	103.203	19.863	12.513	0.529
610.000	381.616	80.006	19.995	103.195	19.863	12.483	0.486
612.000	382.597	80.004	19.996	103.142	19.864	12.387	0.487
614.000	383.589	80.005	19.995	103.272	19.869	12.064	0.496
616.000	384.652	80.005	19.995	103.211	19.876	11.631	0.555
618.000	385.644	80.005	19.996	103.216	19.876	11.634	0.496
620.000	386.617	80.003	19.993	103.232	19.872	11.923	0.483
622.000	387.631	80.005	19.994	103.204	19.880	11.380	0.537
624.000	388.625	80.006	19.994	103.194	19.876	11.662	0.467
626.000	389.611	80.005	19.994	103.203	19.879	11.473	0.519
628.000	390.645	80.004	19.994	103.214	19.885	11.061	0.526
630.000	391.653	80.005	19.994	103.207	19.879	11.426	0.517
632.000	392.638	80.005	19.994	103.216	19.881	11.327	0.496
634.000	393.622	80.004	19.994	103.219	19.882	11.240	0.491
636.000	394.678	80.006	19.994	103.198	19.879	11.483	0.535
638.000	395.698	80.005	19.993	103.186	19.880	11.382	0.500
640.000	396.692	80.005	19.994	103.191	19.877	11.567	0.532
642.000	397.688	80.005	19.994	103.193	19.876	11.659	0.480
644.000	398.674	80.008	19.994	103.193	19.871	11.963	0.475
646.000	399.682	80.007	19.995	103.205	19.872	11.927	0.514
648.000	400.652	80.006	19.994	103.213	19.871	11.994	0.505
650.000	401.646	80.007	19.995	103.195	19.871	11.962	0.487
652.000	402.672	80.005	19.995	103.199	19.866	12.297	0.491
654.000	403.637	80.007	19.994	103.216	19.865	12.330	0.500
656.000	404.659	80.008	19.994	103.215	19.862	12.555	0.515
658.000	405.645	80.008	19.995	103.224	19.865	12.377	0.521
660.000	406.629	80.007	19.994	103.204	19.861	12.589	0.486
662.000	407.597	80.007	19.993	103.186	19.855	13.011	0.482
664.000	408.618	80.008	19.994	103.189	19.853	13.129	0.494
666.000	409.653	80.009	19.994	103.197	19.857	12.900	0.536
668.000	410.623	80.007	19.994	103.211	19.856	12.955	0.515
670.000	411.670	80.008	19.995	103.197	19.853	13.102	0.514
672.000	412.692	80.008	19.995	103.197	19.849	13.370	0.534
674.000	413.714	80.005	19.994	103.218	19.843	13.740	0.488
676.000	414.717	80.005	19.995	103.224	19.846	13.596	0.501
678.000	415.699	80.005	19.995	103.197	19.850	13.293	0.496
680.000	416.800	80.003	19.996	103.216	19.840	13.955	0.523
682.000	417.789	80.006	19.997	103.222	19.842	13.818	0.489
684.000	418.821	80.005	19.995	103.217	19.839	14.014	0.498
686.000	419.862	80.005	19.995	103.204	19.840	13.966	0.525
688.000	420.830	80.006	19.994	103.207	19.841	13.890	0.481
690.000	421.904	80.005	19.994	103.203	19.839	14.027	0.514
692.000	422.931	80.005	19.996	103.207	19.839	14.021	0.508
694.000	423.965	80.006	19.995	103.223	19.835	14.295	0.521
696.000	424.948	80.005	19.996	103.222	19.836	14.231	0.511
698.000	425.991	80.004	19.996	103.207	19.834	14.352	0.515
700.000	427.010	80.005	19.995	103.204	19.833	14.398	0.526
702.000	428.044	80.004	19.996	103.200	19.833	14.386	0.494
704.000	429.100	80.003	19.996	103.217	19.838	14.121	0.516
706.000	430.121	80.002	19.995	103.203	19.834	14.334	0.523
708.000	431.120	80.003	19.995	103.206	19.836	14.244	0.507
710.000	432.147	80.004	19.995	103.209	19.834	14.372	0.492
712.000	433.192	80.005	19.996	103.208	19.837	14.148	0.549
714.000	434.212	80.005	19.995	103.196	19.836	14.203	0.516
716.000	435.277	80.004	19.995	103.211	19.834	14.339	0.514
718.000	436.287	80.006	19.995	103.209	19.841	13.916	0.545
720.000	437.345	80.007	19.994	103.198	19.838	14.120	0.534
722.000	438.350	80.005	19.994	103.209	19.833	14.403	0.518
724.000	439.365	80.006	19.994	103.193	19.834	14.336	0.511
726.000	440.396	80.005	19.995	103.197	19.829	14.678	0.516
728.000	441.401	80.008	19.995	103.190	19.838	14.088	0.483
730.000	442.420	80.007	19.994	103.195	19.838	14.075	0.530
732.000	443.428	80.006	19.994	103.190	19.839	14.029	0.500
734.000	444.458	80.007	19.995	103.187	19.836	14.213	0.536
736.000	445.447	80.005	19.994	103.188	19.837	14.139	0.519
738.000	446.410	80.006	19.994	103.187	19.843	13.783	0.488
740.000	447.423	80.006	19.994	103.194	19.839	14.020	0.511
742.000	448.472	80.007	19.994	103.194	19.841	13.887	0.516
744.000	449.456	80.007	19.994	103.184	19.839	14.028	0.493
746.000	450.454	80.008	19.994	103.187	19.843	13.752	0.512
748.000	451.465	80.008	19.994	103.187	19.846	13.583	0.511
750.000	452.468	80.007	19.994	103.184	19.847	13.491	0.490
752.000	453.465	80.008	19.994	103.185	19.857	12.894	0.498
754.000	454.489	80.007	19.995	103.184	19.852	13.204	0.523
756.000	455.475	80.006	19.994	103.181	19.851	13.264	0.497
758.000	456.499	80.007	19.994	103.182	19.859	12.738	0.513
760.000	457.517	80.006	19.994	103.184	19.855	12.994	0.510
762.000	458.474	80.006	19.995	103.186	19.857	12.866	0.485
764.000	459.502	80.005	19.994	103.185	19.859	12.712	0.519
766.000	460.518	80.004	19.994	103.184	19.854	13.053	0.532
768.000	461.510	80.004	19.996	103.184	19.860	12.651	0.513
770.000	462.517	80.006	19.995	103.172	19.860	12.666	0.491
772.000	463.498	80.005	19.995	103.185	19.866	12.257	0.504
774.000	464.487	80.006	19.994	103.192	19.862	12.571	0.475
776.000	465.502	80.006	19.994	103.146	19.865	12.333	0.536
778.000	466.500	80.005	19.996	103.218	19.867	12.244	0.515
780.000	467.505	80.006	19.995	103.188	19.862	12.534	0.501
782.000	468.514	80.006	19.994	103.177	19.870	12.036	0.505
784.000	469.530	80.006	19.994	103.184	19.871	11.949	0.504
786.000	470.573	80.006	19.996	103.186	19.872	11.917	0.527
788.000	471.593	80.005	19.994	103.181	19.871	11.942	0.526
790.000	472.632	80.006	19.995	103.181	19.872	11.879	0.514
792.000	473.673	80.004	19.996	103.184	19.874	11.746	0.492
794.000	474.706	80.005	19.995	103.184	19.877	11.572	0.503
796.000	475.764	80.005	19.996	103.182	19.878	11.528	0.521
798.000	476.803	80.005	19.996	103.181	19.879	11.438	0.556
800.000	477.863	80.005	19.995	103.180	19.885	11.088	0.516
802.000	478.950	80.007	19.996	103.182	19.884	11.123	0.539
804.000	479.944	80.006	19.995	103.176	19.887	10.956	0.535
806.000	481.035	80.006	19.996	103.175	19.882	11.246	0.537
808.000	482.101	80.006	19.995	103.190	19.888	10.898	0.533
810.000	483.113	80.006	19.996	103.183	19.889	10.798	0.515
812.000	484.142	80.005	19.996	103.178	19.891	10.704	0.510
814.000	485.192	80.005	19.995	103.181	19.892	10.633	0.538
816.000	486.249	80.006	19.994	103.181	19.890	10.762	0.517
818.000	487.308	80.006	19.995	103.184	19.887	10.934	0.529
820.000	488.339	80.006	19.995	103.180	19.891	10.701	0.541
822.000	489.397	80.006	19.994	103.180	19.891	10.673	0.507
824.000	490.421	80.007	19.994	103.181	19.897	10.318	0.493
826.000	491.434	80.007	19.995	103.182	19.895	10.418	0.500
828.000	492.473	80.009	19.995	103.178	19.900	10.074	0.504
830.000	493.569	80.008	19.994	103.175	19.898	10.245	0.509
832.000	494.617	80.008	19.993	103.182	19.897	10.292	0.534
834.000	495.630	80.008	19.995	103.181	19.900	10.098	0.497
836.000	496.694	80.007	19.994	103.181	19.899	10.162	0.533
838.000	497.736	80.005	19.995	103.181	19.901	10.028	0.542
840.000	498.800	80.005	19.993	103.181	19.909	9.505	0.521
842.000	499.770	80.004	19.994	103.178	19.901	10.033	0.492
844.000	500.805	80.006	19.995	103.178	19.904	9.838	0.507
846.000	501.855	80.006	19.994	103.178	19.902	9.936	0.502
848.000	502.880	80.007	19.994	103.174	19.909	9.546	0.504
850.000	503.912	80.006	19.993	103.171	19.906	9.707	0.504
852.000	504.920	80.006	19.995	103.168	19.911	9.364	0.503
854.000	505.945	80.007	19.995	103.172	19.909	9.508	0.523
856.000	506.963	80.005	19.995	103.179	19.911	9.395	0.502
858.000	507.949	80.007	19.995	103.175	19.911	9.401	0.502
860.000	508.973	80.007	19.995	103.181	19.911	9.397	0.494
862.000	510.018	80.006	19.994	103.167	19.913	9.247	0.522
864.000	510.985	80.006	19.996	103.149	19.915	9.145	0.490
866.000	512.034	80.005	19.996	103.173	19.914	9.197	0.510
868.000	513.005	80.006	19.995	103.157	19.918	8.958	0.499
870.000	514.050	80.005	19.996	103.164	19.919	8.848	0.508
872.000	515.109	80.005	19.995	103.160	19.915	9.130	0.512
874.000	516.122	80.006	19.996	103.172	19.918	8.912	0.517
876.000	517.158	80.005	19.995	103.173	19.919	8.872	0.515
878.000	518.212	80.007	19.995	103.174	19.916	9.071	0.514
880.000	519.226	80.006	19.994	103.178	19.919	8.842	0.497
882.000	520.186	80.006	19.995	103.168	19.919	8.852	0.478
884.000	521.272	80.006	19.994	103.171	19.922	8.663	0.544
886.000	522.281	80.008	19.995	103.158	19.926	8.410	0.522
888.000	523.274	80.008	19.995	103.148	19.923	8.596	0.504
890.000	524.277	80.007	19.994	103.148	19.926	8.389	0.515
892.000	525.308	80.006	19.996	103.147	19.924	8.572	0.509
894.000	526.307	80.006	19.995	103.158	19.926	8.401	0.495
896.000	527.265	80.005	19.995	103.150	19.929	8.229	0.485
898.000	528.327	80.005	19.996	103.167	19.928	8.288	0.518
900.000	529.393	80.005	19.995	103.154	19.932	8.023	0.547
902.000	530.379	80.006	19.996	103.162	19.928	8.288	0.516
904.000	531.423	80.005	19.995	103.163	19.928	8.294	0.520
906.000	532.425	80.006	19.995	103.152	19.935	7.845	0.508
908.000	533.454	80.007	19.995	103.159	19.934	7.935	0.504
910.000	534.495	80.009	19.994	103.166	19.934	7.900	0.518
912.000	535.495	80.008	19.995	103.154	19.939	7.589	0.515
914.000	536.520	80.010	19.995	103.160	19.930	8.146	0.470
916.000	537.517	80.009	19.995	103.153	19.935	7.814	0.513
918.000	538.571	80.009	19.995	103.149	19.933	7.964	0.506
920.000	539.633	80.007	19.995	103.152	19.931	8.066	0.520
922.000	540.635	80.007	19.995	103.146	19.932	8.007	0.499
924.000	541.641	80.005	19.996	103.147	19.932	8.013	0.484
926.000	542.648	80.005	19.995	103.147	19.941	7.481	0.479
928.000	543.644	80.007	19.995	103.142	19.940	7.507	0.502
930.000	544.664	80.005	19.996	103.149	19.937	7.694	0.518
932.000	545.655	80.006	19.994	103.160	19.938	7.621	0.489
934.000	546.705	80.006	19.994	103.169	19.944	7.230	0.518
936.000	547.689	80.008	19.994	103.149	19.938	7.630	0.511
938.000	548.706	80.006	19.995	103.147	19.939	7.598	0.483
940.000	549.736	80.006	19.994	103.149	19.938	7.656	0.496
942.000	550.763	80.006	19.995	103.146	19.942	7.387	0.496
944.000	551.790	80.007	19.994	103.154	19.942	7.403	0.533
946.000	552.799	80.008	19.994	103.152	19.947	7.055	0.510
948.000	553.805	80.007	19.995	103.154	19.945	7.195	0.492
950.000	554.821	80.006	19.993	103.150	19.945	7.183	0.473
952.000	555.811	80.006	19.995	103.148	19.943	7.340	0.501
954.000	556.835	80.007	19.995	103.154	19.943	7.338	0.501
956.000	557.832	80.005	19.994	103.146	19.945	7.211	0.510
958.000	558.863	80.006	19.995	103.151	19.950	6.906	0.535
960.000	559.871	80.005	19.995	103.154	19.947	7.082	0.523
962.000	560.829	80.005	19.994	103.145	19.941	7.451	0.497
964.000	561.915	80.005	19.996	103.146	19.950	6.867	0.524
966.000	562.869	80.008	19.996	103.149	19.948	6.991	0.508
968.000	563.870	80.005	19.995	103.150	19.950	6.885	0.494
970.000	564.868	80.006	19.995	103.159	19.952	6.762	0.473
972.000	565.876	80.007	19.995	103.143	19.953	6.712	0.517
974.000	566.873	80.007	19.993	103.146	19.949	6.924	0.496
976.000	567.854	80.007	19.995	103.147	19.953	6.655	0.518
978.000	568.890	80.007	19.996	103.143	19.952	6.773	0.517
980.000	569.860	80.006	19.996	103.168	19.955	6.531	0.481
982.000	570.907	80.007	19.995	103.161	19.954	6.647	0.513
984.000	571.932	80.007	19.996	103.154	19.956	6.516	0.526
986.000	572.958	80.006	19.996	103.140	19.953	6.706	0.532
988.000	574.014	80.007	19.996	103.146	19.954	6.632	0.534
990.000	575.050	80.007	19.996	103.155	19.952	6.718	0.538
992.000	576.089	80.006	19.997	103.154	19.954	6.613	0.491
994.000	577.143	80.009	19.995	103.151	19.953	6.668	0.537
996.000	578.150	80.007	19.995	103.142	19.952	6.767	0.508
998.000	579.155	80.008	19.996	103.138	19.954	6.616	0.512
1000.000	580.137	80.008	19.994	103.141	19.956	6.494	0.470
1002.000	581.205	80.007	19.994	103.141	19.959	6.306	0.537
1004.000	582.203	80.007	19.994	103.148	19.959	6.315	0.529
1006.000	583.222	80.005	19.995	103.150	19.956	6.519	0.511
1008.000	584.265	80.007	19.995	103.148	19.957	6.438	0.521
1010.000	585.278	80.005	19.994	103.157	19.956	6.468	0.518
1012.000	586.255	80.005	19.995	103.145	19.955	6.579	0.494
1014.000	587.321	80.007	19.995	103.143	19.957	6.399	0.513
1016.000	588.361	80.007	19.995	103.143	19.956	6.486	0.489
1018.000	589.386	80.007	19.995	103.148	19.956	6.515	0.529
1020.000	590.380	80.007	19.994	103.152	19.957	6.438	0.495
1022.000	591.408	80.006	19.995	103.151	19.960	6.227	0.489
1024.000	592.390	80.005	19.995	103.145	19.960	6.200	0.534
1025.999	593.395	80.006	19.994	103.144	19.958	6.363	0.493
1027.999	594.466	80.007	19.995	103.153	19.959	6.323	0.559
1029.999	595.448	80.007	19.996	103.156	19.956	6.499	0.519
1031.999	596.485	80.006	19.995	103.161	19.960	6.260	0.530
1033.999	597.504	80.004	19.995	103.151	19.956	6.477	0.503
1035.999	598.535	80.005	19.995	103.151	19.958	6.357	0.516
1037.999	599.572	80.005	19.996	103.151	19.957	6.423	0.510
1039.999	600.622	80.005	19.995	103.150	19.958	6.331	0.518
1041.999	601.610	80.003	19.995	103.157	19.958	6.334	0.489
1043.999	602.626	80.006	19.995	103.147	19.952	6.755	0.518
1045.999	603.619	80.006	19.994	103.146	19.958	6.331	0.488
1047.999	604.646	80.007	19.995	103.144	19.956	6.491	0.481
1049.999	605.668	80.007	19.994	103.144	19.957	6.430	0.514
1051.999	606.665	80.008	19.994	103.139	19.956	6.472	0.507
1053.999	607.631	80.006	19.995	103.142	19.960	6.223	0.482
1055.999	608.651	80.007	19.995	103.143	19.962	6.080	0.461
1057.999	609.619	80.008	19.995	103.157	19.961	6.172	0.464
1059.999	610.655	80.007	19.995	103.152	19.967	5.795	0.521
1062.000	611.652	80.006	19.995	103.142	19.968	5.729	0.477
1063.999	612.688	80.008	19.996	103.146	19.963	6.010	0.502
1065.999	613.715	80.007	19.996	103.160	19.971	5.533	0.509
1067.999	614.744	80.007	19.995	103.139	19.969	5.663	0.552
1070.000	615.779	80.007	19.995	103.143	19.973	5.384	0.518
1071.999	616.774	80.008	19.995	103.146	19.970	5.609	0.496
1073.999	617.806	80.009	19.995	103.140	19.967	5.806	0.494
1076.000	618.756	80.009	19.995	103.141	19.970	5.572	0.502
1077.999	619.813	80.009	19.994	103.148	19.967	5.777	0.508
1079.999	620.839	80.010	19.995	103.152	19.966	5.821	0.526
1082.000	621.845	80.008	19.996	103.152	19.965	5.892	0.508
1083.999	622.854	80.007	19.996	103.142	19.969	5.656	0.490
1085.999	623.830	80.007	19.996	103.146	19.968	5.719	0.470
1088.000	624.865	80.004	19.996	103.158	19.967	5.789	0.519
1089.999	625.770	80.006	19.995	103.164	19.968	5.737	0.465
1092.000	626.812	80.004	19.996	103.159	19.966	5.832	0.494
1093.999	627.771	80.006	19.996	103.148	19.965	5.910	0.493
1096.000	628.771	80.006	19.995	103.152	19.966	5.871	0.501
1097.999	629.774	80.005	19.995	103.149	19.965	5.923	0.511
1100.000	630.821	80.006	19.994	103.166	19.967	5.777	0.523
1101.999	631.768	80.005	19.995	103.149	19.965	5.899	0.466
1103.999	632.769	80.007	19.994	103.144	19.965	5.884	0.518
1105.999	633.727	80.005	19.994	103.157	19.968	5.698	0.493
1107.999	634.749	80.006	19.995	103.152	19.968	5.718	0.490
1110.000	635.755	80.006	19.997	103.158	19.966	5.819	0.503
1111.999	636.726	80.007	19.995	103.152	19.967	5.752	0.473
1113.999	637.736	80.005	19.996	103.152	19.964	5.978	0.517
1115.999	638.732	80.007	19.993	103.150	19.964	5.994	0.486
1117.999	639.738	80.007	19.995	103.162	19.966	5.869	0.501
1119.999	640.796	80.005	19.995	103.159	19.966	5.841	0.526
1121.999	641.800	80.008	19.995	103.163	19.963	6.019	0.504
1123.999	642.805	80.004	19.995	103.160	19.964	5.983	0.527
1125.999	643.824	80.006	19.994	103.167	19.964	5.945	0.530
1127.999	644.850	80.008	19.994	103.154	19.965	5.902	0.531
1129.999	645.835	80.007	19.994	103.143	19.968	5.744	0.513
1131.999	646.856	80.006	19.996	103.159	19.967	5.795	0.522
1133.999	647.901	80.008	19.994	103.155	19.964	5.957	0.506
1135.999	648.897	80.009	19.994	103.158	19.970	5.589	0.506
1137.999	649.971	80.009	19.994	103.160	19.966	5.838	0.524
1139.999	651.040	80.009	19.994	103.147	19.968	5.704	0.522
1142.000	652.021	80.008	19.994	103.168	19.965	5.879	0.521
1143.999	653.078	80.008	19.995	103.164	19.971	5.540	0.508
1145.999	654.158	80.006	19.995	103.163	19.970	5.618	0.545
1147.999	655.209	80.007	19.994	103.163	19.972	5.440	0.533
1150.000	656.261	80.008	19.995	103.165	19.972	5.490	0.561
1151.999	657.295	80.009	19.994	103.170	19.967	5.806	0.519
1153.999	658.338	80.008	19.995	103.169	19.970	5.569	0.502
1156.000	659.379	80.007	19.996	103.167	19.971	5.539	0.497
1157.999	660.444	80.007	19.995	103.166	19.966	5.830	0.527
1159.999	661.434	80.009	19.995	103.158	19.966	5.865	0.513
1161.999	662.437	80.009	19.995	103.142	19.969	5.640	0.500
1163.999	663.471	80.010	19.996	103.148	19.971	5.540	0.513
1165.999	664.474	80.006	19.995	103.163	19.971	5.550	0.499
1168.000	665.488	80.009	19.995	103.143	19.974	5.321	0.514
1169.999	666.522	80.006	19.994	103.160	19.971	5.540	0.521
1171.999	667.511	80.006	19.994	103.173	19.973	5.381	0.508
1174.000	668.505	80.005	19.995	103.173	19.976	5.230	0.495
1175.999	669.551	80.005	19.995	103.167	19.977	5.164	0.512
1177.999	670.578	80.005	19.996	103.161	19.977	5.139	0.518
1179.999	671.601	80.005	19.996	103.147	19.975	5.250	0.514
1181.999	672.639	80.005	19.996	103.130	19.976	5.177	0.524
1184.000	673.635	80.007	19.996	103.143	19.977	5.158	0.530
1185.999	674.668	80.005	19.996	103.155	19.972	5.488	0.509
1188.001	675.704	80.006	19.995	103.139	19.974	5.342	0.522
1190.000	676.733	80.008	19.995	103.138	19.970	5.577	0.525
1192.000	677.728	80.007	19.995	103.140	19.970	5.580	0.489
1193.999	678.760	80.007	19.995	103.134	19.967	5.761	0.512
1195.999	679.754	80.007	19.995	103.136	19.976	5.196	0.528
1198.000	680.783	80.004	19.994	103.131	19.975	5.289	0.542
1200.000	681.743	80.008	19.994	103.135	19.978	5.103	0.508
1202.000	682.772	80.006	19.994	103.128	19.974	5.356	0.504
1204.000	683.764	80.004	19.995	103.144	19.977	5.165	0.502
1205.999	684.775	80.006	19.994	103.157	19.974	5.310	0.498
1207.999	685.735	80.006	19.994	103.112	19.977	5.144	0.489
1209.999	686.785	80.008	19.996	103.122	19.974	5.302	0.509
1211.999	687.787	80.007	19.995	103.127	19.977	5.134	0.521
1213.999	688.813	80.006	19.995	103.125	19.977	5.140	0.534
1216.000	689.806	80.007	19.994	103.141	19.976	5.181	0.496
1218.000	690.784	80.008	19.995	103.140	19.972	5.460	0.499
1220.001	691.796	80.008	19.995	103.128	19.975	5.291	0.527
1222.000	692.774	80.008	19.994	103.138	19.976	5.173	0.512
1223.999	693.769	80.008	19.994	103.133	19.977	5.165	0.493
1226.000	694.775	80.006	19.993	103.140	19.979	5.004	0.515
1228.000	695.834	80.008	19.994	103.136	19.979	5.006	0.536
1229.999	696.807	80.005	19.994	103.144	19.976	5.186	0.546
1231.999	697.815	80.005	19.992	103.132	19.979	5.013	0.522
1233.999	698.855	80.004	19.994	103.136	19.977	5.162	0.514
1235.999	699.804	80.007	19.994	103.133	19.977	5.133	0.470
1237.999	700.827	80.010	19.993	103.130	19.975	5.243	0.482
1240.000	701.840	80.009	19.995	103.143	19.971	5.536	0.522
1241.999	702.854	80.017	19.994	103.135	19.975	5.237	0.522
1243.999	703.827	80.001	19.997	103.129	19.976	5.173	0.503
1245.999	704.829	80.008	19.995	103.124	19.977	5.112	0.493
1248.000	705.819	80.005	19.994	103.136	19.978	5.068	0.458
1250.001	706.787	80.004	19.995	103.132	19.980	4.914	0.485
1251.999	707.806	80.007	19.995	103.128	19.977	5.126	0.508
1253.999	708.771	79.999	19.995	103.120	19.974	5.330	0.489
1255.999	709.722	80.004	19.996	103.134	19.972	5.427	0.526
1258.000	710.701	80.007	19.994	103.125	19.976	5.186	0.465
1259.999	711.701	80.008	19.997	103.130	19.975	5.250	0.499
1262.000	712.706	80.007	19.994	103.133	19.977	5.135	0.494
1264.000	713.698	80.008	19.994	103.131	19.978	5.104	0.484
1265.999	714.669	80.008	19.993	103.134	19.976	5.217	0.467
1267.999	715.718	80.022	19.993	103.134	19.976	5.170	0.508
1270.000	716.739	79.994	19.997	103.132	19.979	4.984	0.510
1271.999	717.787	80.006	19.997	103.133	19.977	5.106	0.522
1273.999	718.825	80.016	19.994	103.136	19.978	5.049	0.502
1276.000	719.770	80.003	19.994	103.136	19.975	5.283	0.504
1277.999	720.808	80.009	19.994	103.135	19.975	5.274	0.526
1279.999	721.860	80.003	19.999	103.140	19.976	5.178	0.531
1281.999	722.874	80.004	19.996	103.139	19.976	5.173	0.513
1284.000	723.906	80.005	19.996	103.139	19.976	5.217	0.506
1285.999	724.967	80.002	19.995	103.120	19.976	5.201	0.491
1287.999	725.997	80.008	19.997	103.137	19.977	5.118	0.507
1289.999	727.024	80.007	19.995	103.133	19.973	5.400	0.498
1291.999	728.086	80.004	19.993	103.124	19.973	5.388	0.512
1293.999	729.138	80.008	19.995	103.127	19.974	5.331	0.546
1295.999	730.145	80.008	19.994	103.128	19.973	5.363	0.503
1297.999	731.195	80.007	19.995	103.127	19.974	5.315	0.502
1299.999	732.267	80.003	19.996	103.139	19.973	5.381	0.546
1301.999	733.272	80.006	19.994	103.140	19.975	5.276	0.484
1303.999	734.325	80.003	19.995	103.135	19.974	5.303	0.525
1305.999	735.373	80.009	19.992	103.146	19.971	5.528	0.530
1308.001	736.414	80.008	19.994	103.143	19.975	5.244	0.543
1309.999	737.430	80.005	19.994	103.152	19.975	5.261	0.498
1311.999	738.436	80.008	19.996	103.150	19.977	5.142	0.503
1313.999	739.466	80.008	19.994	103.120	19.976	5.201	0.526
1315.999	740.460	80.011	19.996	103.103	19.974	5.342	0.489
1317.999	741.514	80.005	19.995	103.119	19.973	5.418	0.526
1319.999	742.526	79.994	19.996	103.116	19.976	5.198	0.518
1321.999	743.477	80.004	19.994	103.125	19.975	5.281	0.484
1322.499	743.735	80.014	19.994	103.123	19.975	5.271	0.478