File: 01_Data/Countertop_Plastic_LaminateA/MCC/Countertop_Plastic_LaminateA_MCC_30K_min_211103_R2.txt
Sample ID:	C:\MCC\MCC Cal\Countertop_Plastic_LaminateA_MCC_30K_min_211103_R2.txt
Sample Weight (mg):	4.49
Heating Rate (C/s):	0.5
Combustor Temp (C):	900
N2 Flow Rate (cc/min):	80
O2 Flow Rate (cc/min):	20
Calibration File:	C:\MCC\MCC Cal\Coeff1 JN10440_30_210304.txt.txt
T Correction Coefficients:	0	1.024463	0
Time Shift (s):	14
*
Time (s)	Temperature (C)	N2 flow rate (cc/min)	O2 flow rate (cc/min)	Flow Rate (cc/min)	Oxygen (%)	HRR (W/g)	Heating rate (C/s)
0.000	108.549	80.002	19.994	103.059	20.057	0.023	-0.019
2.000	108.567	80.004	19.995	103.039	20.063	-0.409	0.032
4.000	108.527	80.008	20.001	103.035	20.061	-0.279	-0.001
6.000	108.524	79.997	19.991	103.062	20.061	-0.239	-0.031
8.000	108.500	79.999	19.994	103.072	20.058	-0.080	-0.003
10.000	108.516	80.006	19.996	103.045	20.060	-0.179	0.005
12.000	108.487	80.008	19.996	103.016	20.064	-0.509	-0.004
14.000	108.490	79.990	19.997	103.008	20.060	-0.231	0.022
16.000	108.504	80.007	19.993	103.013	20.063	-0.384	-0.032
18.000	108.462	80.001	19.996	103.026	20.063	-0.410	-0.040
20.000	108.478	80.007	19.994	103.068	20.064	-0.477	0.015
22.000	108.466	80.001	19.997	103.061	20.069	-0.875	0.005
24.000	108.462	79.999	19.996	103.020	20.067	-0.681	-0.006
26.000	108.458	80.005	19.989	103.019	20.066	-0.631	-0.003
28.000	108.481	80.014	19.992	103.038	20.068	-0.751	-0.007
30.000	108.447	80.002	19.992	103.026	20.072	-1.037	-0.040
32.000	108.489	80.011	19.993	103.032	20.064	-0.493	0.001
34.000	108.491	79.995	19.995	103.035	20.066	-0.621	0.023
36.000	108.527	80.006	19.995	103.039	20.062	-0.330	0.028
38.000	108.523	80.010	19.994	103.043	20.066	-0.598	-0.004
40.001	108.531	79.998	19.996	103.045	20.062	-0.319	0.010
42.000	108.591	80.008	19.996	103.053	20.060	-0.218	0.051
44.000	108.560	80.000	19.995	103.074	20.061	-0.264	-0.007
46.000	108.581	80.004	19.992	103.103	20.053	0.332	0.019
48.001	108.690	80.002	20.001	103.134	20.052	0.373	0.045
50.000	108.795	80.002	19.998	103.136	20.048	0.686	0.028
52.000	108.901	80.007	19.997	103.129	20.049	0.612	0.069
54.000	109.017	79.992	19.996	103.119	20.046	0.834	0.073
56.000	109.190	80.010	19.993	103.134	20.048	0.667	0.057
58.000	109.371	80.004	19.988	103.181	20.046	0.830	0.053
60.001	109.526	80.007	19.991	103.186	20.046	0.789	0.080
62.000	109.724	80.012	20.001	103.164	20.039	1.289	0.082
64.000	109.945	79.994	19.994	103.176	20.039	1.328	0.109
66.000	110.227	80.000	19.996	103.186	20.039	1.313	0.120
68.000	110.478	80.004	19.993	103.185	20.030	1.923	0.129
70.000	110.742	80.007	19.994	103.204	20.033	1.725	0.128
72.000	111.085	80.007	19.992	103.210	20.033	1.712	0.168
74.000	111.437	80.015	19.994	103.227	20.030	1.988	0.182
76.000	111.763	80.006	19.994	103.226	20.026	2.217	0.159
78.001	112.154	80.007	19.994	103.230	20.024	2.366	0.188
80.000	112.544	80.010	19.995	103.228	20.030	1.967	0.204
82.000	112.992	80.003	19.993	103.229	20.027	2.206	0.208
84.000	113.488	80.009	19.995	103.264	20.023	2.446	0.235
86.000	113.964	80.006	19.995	103.256	20.022	2.506	0.239
88.000	114.457	80.005	19.995	103.252	20.019	2.780	0.249
90.000	115.007	80.012	19.994	103.261	20.025	2.350	0.254
92.001	115.538	80.018	19.993	103.258	20.023	2.455	0.284
94.000	116.159	80.012	19.994	103.271	20.023	2.467	0.308
96.001	116.728	80.007	19.992	103.259	20.019	2.737	0.352
98.000	117.321	80.011	19.992	103.260	20.030	1.977	0.329
100.000	117.952	80.008	19.994	103.266	20.022	2.518	0.326
102.001	118.594	80.010	19.994	103.268	20.021	2.632	0.328
104.000	119.252	80.008	19.996	103.265	20.017	2.870	0.336
106.000	119.935	80.005	19.996	103.274	20.023	2.448	0.341
108.000	120.629	80.005	19.996	103.267	20.019	2.765	0.323
110.001	121.373	80.006	19.996	103.284	20.018	2.821	0.366
112.000	122.111	80.006	19.997	103.269	20.019	2.772	0.388
114.000	122.889	80.002	19.995	103.274	20.025	2.307	0.405
116.000	123.597	80.007	19.994	103.263	20.024	2.418	0.378
118.000	124.356	80.008	19.996	103.280	20.019	2.741	0.380
120.001	125.107	80.006	19.995	103.275	20.021	2.605	0.348
122.000	125.883	80.006	19.995	103.282	20.020	2.648	0.400
124.000	126.676	80.005	19.994	103.259	20.024	2.358	0.363
126.000	127.473	80.006	19.995	103.266	20.023	2.485	0.412
128.000	128.270	80.005	19.995	103.271	20.021	2.607	0.402
130.000	129.082	80.005	19.995	103.258	20.021	2.582	0.383
132.000	129.984	80.003	19.995	103.268	20.025	2.304	0.430
134.000	130.765	80.003	19.996	103.263	20.025	2.317	0.407
136.000	131.603	80.003	19.994	103.281	20.023	2.452	0.428
138.000	132.434	80.006	19.995	103.283	20.018	2.852	0.437
140.000	133.323	80.006	19.995	103.272	20.018	2.835	0.449
142.000	134.150	80.007	19.996	103.287	20.016	2.973	0.447
144.000	135.001	80.007	19.995	103.286	20.015	3.012	0.419
146.000	135.906	80.007	19.995	103.275	20.019	2.728	0.452
148.000	136.817	80.010	19.995	103.284	20.015	3.059	0.474
150.000	137.702	80.009	19.994	103.278	20.018	2.786	0.425
152.000	138.580	80.007	19.993	103.276	20.018	2.831	0.465
154.000	139.438	80.007	19.995	103.275	20.022	2.537	0.416
156.000	140.395	80.007	19.994	103.286	20.020	2.680	0.455
158.000	141.259	80.007	19.994	103.283	20.015	3.025	0.448
160.000	142.186	80.008	19.995	103.277	20.020	2.689	0.451
162.000	143.135	80.007	19.994	103.284	20.021	2.572	0.490
164.000	144.060	80.008	19.994	103.272	20.018	2.806	0.465
166.000	144.984	80.010	19.994	103.279	20.019	2.718	0.437
168.000	145.959	80.010	19.994	103.276	20.020	2.704	0.507
170.000	146.879	80.008	19.995	103.273	20.022	2.525	0.476
172.000	147.857	80.009	19.994	103.278	20.020	2.650	0.489
174.000	148.828	80.007	19.995	103.275	20.021	2.631	0.484
176.000	149.796	80.006	19.994	103.279	20.021	2.599	0.509
178.000	150.701	80.005	19.993	103.279	20.028	2.127	0.447
180.000	151.690	80.008	19.994	103.262	20.025	2.282	0.495
182.000	152.623	80.009	19.994	103.266	20.027	2.193	0.457
184.000	153.566	80.006	19.995	103.286	20.023	2.469	0.453
186.000	154.521	80.006	19.994	103.276	20.025	2.292	0.473
188.000	155.460	80.008	19.994	103.264	20.023	2.442	0.466
190.000	156.425	80.007	19.994	103.280	20.024	2.391	0.467
192.000	157.431	80.009	19.995	103.282	20.020	2.683	0.503
194.000	158.399	80.006	19.994	103.266	20.020	2.708	0.505
196.000	159.378	80.006	19.993	103.275	20.024	2.387	0.465
198.000	160.323	80.005	19.995	103.274	20.018	2.816	0.463
200.000	161.277	80.006	19.994	103.275	20.018	2.838	0.482
202.000	162.227	80.007	19.994	103.283	20.019	2.716	0.467
204.001	163.254	80.005	19.995	103.278	20.018	2.797	0.486
206.000	164.222	80.007	19.996	103.267	20.021	2.634	0.495
208.000	165.211	80.005	19.995	103.281	20.019	2.780	0.500
210.000	166.214	80.007	19.995	103.271	20.017	2.881	0.530
212.000	167.169	80.005	19.994	103.257	20.017	2.869	0.473
214.000	168.149	80.006	19.994	103.257	20.019	2.751	0.489
216.000	169.117	80.007	19.993	103.257	20.019	2.772	0.495
218.000	170.149	80.006	19.994	103.260	20.018	2.809	0.507
220.000	171.117	80.007	19.995	103.257	20.021	2.574	0.486
222.000	172.101	80.006	19.995	103.254	20.021	2.577	0.500
224.000	173.103	80.007	19.994	103.256	20.018	2.801	0.516
226.000	174.055	80.007	19.995	103.255	20.022	2.564	0.481
228.000	175.082	80.009	19.994	103.253	20.020	2.704	0.517
230.000	176.083	80.009	19.996	103.254	20.019	2.772	0.506
232.000	177.039	80.006	19.995	103.253	20.018	2.801	0.473
234.000	178.056	80.007	19.996	103.253	20.024	2.395	0.496
236.000	179.061	80.006	19.996	103.263	20.023	2.494	0.508
238.000	180.060	80.007	19.997	103.267	20.023	2.434	0.485
240.000	181.061	80.006	19.996	103.255	20.021	2.607	0.508
242.001	182.058	80.007	19.995	103.257	20.026	2.226	0.514
244.000	183.037	80.005	19.994	103.268	20.024	2.371	0.482
246.000	184.066	80.007	19.995	103.257	20.024	2.406	0.484
248.000	185.102	80.010	19.994	103.257	20.022	2.509	0.489
250.000	186.110	80.009	19.993	103.258	20.024	2.395	0.525
252.000	187.106	80.009	19.993	103.261	20.022	2.531	0.504
254.000	188.122	80.009	19.995	103.258	20.023	2.459	0.491
256.000	189.132	80.008	19.994	103.254	20.020	2.696	0.498
258.000	190.120	80.007	19.994	103.250	20.022	2.558	0.508
260.000	191.141	80.007	19.994	103.245	20.017	2.861	0.489
262.000	192.126	80.007	19.993	103.256	20.018	2.816	0.501
264.000	193.084	80.004	19.994	103.254	20.019	2.750	0.511
266.000	194.114	80.005	19.994	103.255	20.019	2.779	0.490
268.000	195.072	80.005	19.994	103.255	20.019	2.760	0.504
270.000	196.096	80.005	19.994	103.257	20.019	2.764	0.509
272.000	197.044	80.006	19.995	103.241	20.022	2.505	0.460
274.000	198.045	80.007	19.996	103.249	20.018	2.797	0.510
276.000	199.073	80.006	19.994	103.242	20.020	2.704	0.509
278.000	200.040	80.009	19.994	103.227	20.020	2.639	0.521
280.000	201.007	80.007	19.994	103.253	20.019	2.774	0.453
282.000	202.030	80.006	19.994	103.234	20.022	2.505	0.518
284.000	203.019	80.006	19.995	103.245	20.023	2.482	0.482
286.000	204.048	80.006	19.994	103.249	20.021	2.638	0.502
288.000	205.032	80.007	19.993	103.248	20.021	2.589	0.487
290.000	205.974	80.006	19.994	103.239	20.020	2.647	0.479
292.000	206.981	80.006	19.995	103.239	20.023	2.465	0.476
294.000	208.008	80.007	19.995	103.236	20.019	2.754	0.516
296.000	209.014	80.006	19.994	103.238	20.021	2.618	0.492
298.000	209.981	80.005	19.995	103.244	20.021	2.587	0.493
300.000	211.026	80.005	19.996	103.227	20.022	2.563	0.559
302.000	212.001	80.007	19.995	103.252	20.025	2.310	0.512
304.000	212.969	80.007	19.995	103.238	20.022	2.554	0.507
306.000	213.970	80.007	19.995	103.222	20.023	2.478	0.505
308.000	214.961	80.007	19.994	103.246	20.021	2.618	0.577
310.000	215.985	80.008	19.994	103.231	20.021	2.612	0.547
312.000	216.950	80.006	19.994	103.225	20.024	2.381	0.475
314.000	217.918	80.006	19.995	103.236	20.021	2.594	0.490
316.000	218.937	80.006	19.995	103.243	20.023	2.429	0.507
318.000	219.898	80.006	19.995	103.231	20.023	2.478	0.488
320.001	220.913	80.008	19.994	103.225	20.018	2.850	0.466
322.000	221.851	80.006	19.995	103.244	20.021	2.624	0.444
324.000	222.902	80.007	19.995	103.244	20.028	2.118	0.471
326.000	223.840	80.007	19.995	103.225	20.022	2.521	0.475
328.000	224.850	80.006	19.994	103.235	20.021	2.581	0.521
330.000	225.865	80.007	19.994	103.246	20.028	2.116	0.520
332.000	226.914	80.007	19.995	103.243	20.016	2.931	0.545
334.000	227.894	80.010	19.995	103.240	20.017	2.896	0.539
336.000	228.807	80.010	19.995	103.243	20.020	2.707	0.447
338.000	229.815	80.009	19.994	103.238	20.016	2.931	0.467
340.000	230.761	80.008	19.994	103.242	20.018	2.783	0.439
342.000	231.735	80.009	19.994	103.236	20.017	2.867	0.441
344.000	232.753	80.007	19.994	103.236	20.015	3.021	0.498
346.000	233.748	80.007	19.995	103.237	20.016	2.958	0.479
348.000	234.792	80.006	19.994	103.242	20.016	2.952	0.538
350.000	235.757	80.007	19.994	103.244	20.018	2.842	0.486
352.000	236.700	80.005	19.995	103.230	20.014	3.129	0.471
354.000	237.689	80.005	19.994	103.246	20.014	3.073	0.502
356.001	238.675	80.006	19.995	103.239	20.013	3.174	0.487
358.000	239.682	80.007	19.995	103.236	20.013	3.192	0.485
360.000	240.576	80.008	19.994	103.241	20.011	3.300	0.479
362.000	241.604	80.009	19.995	103.236	20.005	3.762	0.500
364.000	242.512	80.007	19.995	103.234	20.005	3.737	0.453
366.000	243.556	80.007	19.994	103.244	20.006	3.655	0.458
368.000	244.539	80.007	19.994	103.245	20.012	3.216	0.468
370.000	245.521	80.005	19.995	103.231	20.014	3.099	0.501
372.000	246.495	80.008	19.994	103.228	20.015	3.058	0.502
374.000	247.399	80.006	19.994	103.246	20.006	3.671	0.431
376.000	248.532	80.007	19.995	103.255	20.009	3.474	0.614
378.000	249.509	80.006	19.994	103.263	20.004	3.838	0.500
380.000	250.485	80.005	19.994	103.257	19.999	4.151	0.505
382.000	251.450	80.006	19.994	103.252	20.001	4.035	0.514
384.000	252.434	80.007	19.994	103.254	19.995	4.466	0.469
386.000	253.428	80.007	19.994	103.242	19.999	4.196	0.457
388.000	254.499	80.007	19.994	103.260	19.997	4.301	0.525
390.000	255.436	80.008	19.995	103.262	20.001	4.071	0.503
392.000	256.453	80.007	19.994	103.259	19.996	4.389	0.429
394.000	257.386	80.007	19.994	103.258	19.994	4.548	0.425
396.000	258.422	80.006	19.994	103.258	19.994	4.575	0.427
398.000	259.464	80.007	19.995	103.260	19.994	4.550	0.501
400.000	260.451	80.006	19.996	103.254	19.987	5.043	0.496
402.000	261.486	80.007	19.994	103.254	19.989	4.883	0.516
404.000	262.523	80.007	19.995	103.259	19.983	5.297	0.512
406.000	263.512	80.008	19.995	103.256	19.983	5.358	0.512
408.000	264.506	80.007	19.994	103.256	19.979	5.612	0.481
410.000	265.509	80.008	19.995	103.257	19.979	5.620	0.489
412.000	266.525	80.008	19.994	103.270	19.977	5.744	0.471
414.000	267.533	80.009	19.994	103.275	19.975	5.931	0.535
416.000	268.545	80.007	19.995	103.276	19.971	6.166	0.504
418.000	269.584	80.008	19.995	103.254	19.969	6.300	0.527
420.000	270.584	80.008	19.995	103.250	19.971	6.193	0.546
422.000	271.555	80.008	19.995	103.259	19.967	6.467	0.481
424.000	272.601	80.008	19.994	103.253	19.962	6.845	0.481
426.000	273.592	80.008	19.995	103.256	19.958	7.099	0.491
428.000	274.573	80.008	19.996	103.273	19.956	7.278	0.461
430.000	275.602	80.007	19.996	103.271	19.953	7.465	0.490
432.000	276.634	80.006	19.995	103.281	19.951	7.663	0.520
434.000	277.646	80.005	19.995	103.272	19.951	7.656	0.502
436.000	278.672	80.007	19.995	103.269	19.946	8.010	0.498
438.000	279.672	80.007	19.995	103.268	19.942	8.246	0.518
440.000	280.687	80.005	19.995	103.268	19.937	8.623	0.501
442.000	281.673	80.007	19.994	103.292	19.934	8.855	0.488
444.000	282.687	80.006	19.994	103.282	19.929	9.240	0.500
446.000	283.681	80.006	19.994	103.235	19.926	9.429	0.485
448.000	284.709	80.007	19.995	103.260	19.921	9.780	0.500
450.000	285.723	80.006	19.994	103.267	19.917	10.033	0.507
452.000	286.673	80.006	19.995	103.274	19.915	10.181	0.469
454.000	287.714	80.004	19.995	103.264	19.909	10.644	0.482
456.000	288.689	80.006	19.994	103.291	19.905	10.922	0.516
458.000	289.659	80.005	19.994	103.285	19.900	11.266	0.462
460.000	290.727	80.006	19.995	103.293	19.900	11.307	0.506
462.000	291.750	80.007	19.994	103.268	19.893	11.782	0.516
464.000	292.669	80.005	19.994	103.273	19.888	12.156	0.494
466.000	293.647	80.006	19.994	103.268	19.884	12.423	0.469
468.000	294.671	80.006	19.994	103.293	19.881	12.623	0.522
470.000	295.632	80.007	19.994	103.288	19.872	13.291	0.497
472.000	296.619	80.008	19.994	103.265	19.871	13.361	0.495
474.000	297.549	80.008	19.993	103.305	19.862	14.000	0.468
476.000	298.546	80.009	19.994	103.288	19.856	14.473	0.492
478.000	299.460	80.010	19.994	103.295	19.851	14.778	0.464
480.000	300.435	80.007	19.994	103.273	19.841	15.501	0.467
482.000	301.458	80.007	19.994	103.301	19.838	15.758	0.515
484.000	302.396	80.007	19.994	103.345	19.831	16.218	0.510
486.000	303.386	80.007	19.995	103.317	19.825	16.689	0.491
488.001	304.335	80.008	19.995	103.323	19.825	16.646	0.458
490.000	305.314	80.008	19.995	103.331	19.816	17.327	0.502
492.000	306.299	80.007	19.994	103.328	19.810	17.759	0.466
494.000	307.321	80.008	19.996	103.331	19.803	18.252	0.470
496.001	308.322	80.007	19.996	103.342	19.789	19.276	0.515
498.000	309.291	80.010	19.994	103.346	19.786	19.491	0.473
500.000	310.317	80.010	19.994	103.347	19.776	20.186	0.504
502.000	311.330	80.010	19.995	103.365	19.768	20.802	0.508
504.000	312.404	80.009	19.994	103.370	19.757	21.538	0.509
506.000	313.408	80.009	19.995	103.371	19.751	21.997	0.487
508.000	314.447	80.009	19.995	103.371	19.740	22.772	0.519
510.000	315.465	80.006	19.994	103.373	19.730	23.530	0.513
512.000	316.474	80.006	19.995	103.378	19.720	24.251	0.506
514.000	317.485	80.005	19.995	103.391	19.710	24.949	0.514
516.000	318.502	80.006	19.996	103.377	19.698	25.797	0.545
518.000	319.490	80.005	19.996	103.382	19.689	26.473	0.486
520.000	320.494	80.006	19.995	103.375	19.677	27.311	0.512
522.000	321.552	80.004	19.996	103.397	19.663	28.311	0.521
524.000	322.561	80.005	19.995	103.399	19.653	29.070	0.517
526.000	323.598	80.008	19.996	103.405	19.643	29.770	0.533
528.000	324.606	80.006	19.995	103.398	19.627	30.902	0.496
530.000	325.546	80.006	19.995	103.394	19.618	31.557	0.475
532.000	326.566	80.007	19.995	103.420	19.604	32.575	0.522
534.000	327.594	80.007	19.994	103.425	19.594	33.308	0.418
536.000	328.655	80.008	19.994	103.418	19.579	34.392	0.523
538.000	329.702	80.007	19.995	103.416	19.565	35.409	0.538
540.000	330.736	80.008	19.994	103.420	19.560	35.710	0.515
542.000	331.746	80.008	19.995	103.442	19.546	36.730	0.522
544.000	332.775	80.007	19.995	103.446	19.538	37.300	0.528
546.000	333.790	80.008	19.995	103.434	19.527	38.093	0.521
548.000	334.843	80.007	19.995	103.442	19.517	38.823	0.529
550.000	335.839	80.008	19.995	103.440	19.507	39.518	0.477
552.000	336.855	80.007	19.995	103.426	19.503	39.835	0.509
554.000	337.919	80.008	19.996	103.441	19.498	40.168	0.531
556.000	338.907	80.008	19.995	103.430	19.492	40.584	0.501
558.000	339.966	80.008	19.994	103.442	19.489	40.841	0.503
560.000	341.000	80.008	19.995	103.417	19.490	40.773	0.534
562.000	342.029	80.008	19.994	103.413	19.487	40.923	0.514
564.000	343.042	80.007	19.994	103.405	19.488	40.905	0.506
566.000	344.011	80.009	19.995	103.400	19.498	40.124	0.452
568.000	345.057	80.008	19.994	103.384	19.496	40.321	0.492
570.000	346.082	80.007	19.994	103.361	19.504	39.715	0.542
572.000	347.050	80.008	19.996	103.353	19.516	38.863	0.483
574.000	348.102	80.008	19.994	103.336	19.526	38.114	0.524
576.001	349.122	80.008	19.994	103.327	19.543	36.933	0.514
578.000	350.172	80.007	19.993	103.316	19.557	35.893	0.524
580.000	351.149	80.008	19.994	103.297	19.578	34.391	0.500
582.001	352.124	80.009	19.995	103.292	19.597	33.006	0.480
584.000	353.156	80.009	19.994	103.282	19.617	31.592	0.515
586.000	354.230	80.008	19.994	103.271	19.641	29.888	0.512
588.000	355.202	80.008	19.995	103.253	19.658	28.666	0.487
590.000	356.217	80.008	19.994	103.253	19.683	26.827	0.494
592.000	357.231	80.006	19.995	103.224	19.703	25.443	0.507
594.000	358.241	80.007	19.995	103.220	19.725	23.857	0.494
596.000	359.291	80.006	19.994	103.221	19.743	22.548	0.510
598.000	360.349	80.006	19.994	103.219	19.758	21.449	0.519
600.000	361.358	80.007	19.994	103.217	19.780	19.883	0.507
602.000	362.350	80.006	19.995	103.212	19.794	18.881	0.492
604.000	363.418	80.007	19.995	103.208	19.811	17.645	0.539
606.000	364.447	80.007	19.995	103.194	19.829	16.387	0.543
608.000	365.459	80.007	19.995	103.199	19.842	15.460	0.531
610.001	366.471	80.007	19.995	103.183	19.853	14.633	0.494
612.001	367.475	80.008	19.996	103.190	19.864	13.857	0.503
614.000	368.482	80.007	19.996	103.192	19.876	12.977	0.526
616.000	369.493	80.007	19.995	103.185	19.889	12.069	0.503
618.000	370.494	80.007	19.995	103.177	19.901	11.187	0.513
620.000	371.509	80.006	19.996	103.190	19.905	10.889	0.483
622.000	372.522	80.007	19.996	103.186	19.912	10.387	0.508
624.000	373.557	80.007	19.996	103.176	19.920	9.865	0.518
626.000	374.533	80.006	19.995	103.177	19.927	9.313	0.482
628.000	375.572	80.008	19.995	103.178	19.932	8.990	0.511
630.000	376.574	80.006	19.995	103.178	19.937	8.642	0.531
632.000	377.617	80.007	19.994	103.177	19.944	8.153	0.537
634.000	378.593	80.007	19.995	103.188	19.942	8.259	0.501
636.000	379.604	80.007	19.994	103.175	19.948	7.834	0.509
638.000	380.604	80.008	19.994	103.178	19.950	7.717	0.514
640.000	381.620	80.009	19.994	103.178	19.952	7.580	0.517
642.000	382.597	80.009	19.994	103.178	19.954	7.421	0.471
644.000	383.599	80.008	19.996	103.179	19.957	7.219	0.486
646.000	384.632	80.008	19.996	103.179	19.960	6.946	0.520
648.000	385.647	80.008	19.995	103.178	19.959	7.023	0.525
650.000	386.641	80.007	19.994	103.186	19.957	7.182	0.507
652.000	387.625	80.008	19.994	103.179	19.959	7.050	0.498
654.000	388.649	80.008	19.995	103.175	19.956	7.276	0.510
656.000	389.663	80.007	19.995	103.178	19.962	6.808	0.525
658.000	390.665	80.008	19.995	103.182	19.961	6.897	0.488
660.000	391.705	80.009	19.994	103.173	19.958	7.130	0.531
662.000	392.688	80.009	19.994	103.176	19.955	7.328	0.505
664.000	393.721	80.008	19.994	103.180	19.955	7.301	0.516
666.000	394.723	80.009	19.993	103.181	19.958	7.134	0.519
668.000	395.710	80.010	19.993	103.182	19.955	7.313	0.459
670.000	396.709	80.008	19.994	103.176	19.950	7.668	0.488
672.000	397.721	80.011	19.994	103.174	19.953	7.511	0.523
674.000	398.733	80.009	19.995	103.179	19.954	7.429	0.496
676.000	399.719	80.007	19.995	103.170	19.951	7.640	0.485
678.000	400.707	80.007	19.995	103.178	19.953	7.443	0.481
680.000	401.752	80.008	19.995	103.185	19.946	7.966	0.526
682.000	402.719	80.006	19.996	103.174	19.946	7.970	0.494
684.000	403.714	80.007	19.995	103.166	19.946	7.964	0.501
686.000	404.721	80.005	19.996	103.180	19.943	8.182	0.497
688.000	405.749	80.008	19.995	103.177	19.944	8.146	0.526
690.000	406.736	80.006	19.994	103.176	19.941	8.343	0.513
692.000	407.787	80.006	19.995	103.175	19.941	8.310	0.502
694.000	408.747	80.008	19.996	103.178	19.940	8.431	0.483
696.000	409.761	80.007	19.995	103.180	19.939	8.457	0.499
698.000	410.779	80.006	19.995	103.179	19.938	8.541	0.524
700.000	411.798	80.006	19.995	103.184	19.937	8.599	0.483
702.000	412.847	80.006	19.995	103.203	19.938	8.538	0.548
704.000	413.833	80.005	19.995	103.166	19.932	8.950	0.513
706.000	414.834	80.006	19.995	103.168	19.930	9.087	0.488
708.000	415.832	80.005	19.995	103.177	19.932	8.996	0.533
710.000	416.825	80.006	19.995	103.180	19.928	9.249	0.497
712.000	417.847	80.004	19.996	103.162	19.927	9.306	0.510
714.000	418.868	80.006	19.996	103.172	19.929	9.179	0.508
716.000	419.867	80.005	19.996	103.150	19.928	9.295	0.465
718.000	420.883	80.005	19.995	103.170	19.925	9.497	0.490
720.000	421.964	80.007	19.995	103.178	19.927	9.355	0.520
722.000	422.945	80.007	19.995	103.176	19.925	9.457	0.512
724.000	423.920	80.007	19.994	103.165	19.922	9.721	0.494
726.000	424.964	80.008	19.995	103.179	19.923	9.635	0.513
728.000	425.994	80.008	19.994	103.155	19.922	9.718	0.510
730.000	426.958	80.008	19.994	103.161	19.917	10.041	0.478
732.000	427.971	80.008	19.994	103.171	19.918	9.950	0.492
734.000	429.038	80.008	19.994	103.180	19.927	9.330	0.522
736.000	430.019	80.008	19.994	103.180	19.919	9.917	0.485
738.000	431.010	80.007	19.996	103.169	19.920	9.822	0.486
740.000	432.014	80.007	19.995	103.167	19.923	9.619	0.497
742.000	433.040	80.008	19.994	103.174	19.918	9.971	0.514
744.000	434.062	80.008	19.994	103.175	19.925	9.465	0.513
746.000	435.076	80.008	19.995	103.177	19.928	9.262	0.523
748.000	436.117	80.010	19.995	103.175	19.928	9.286	0.477
750.000	437.159	80.009	19.994	103.170	19.929	9.209	0.587
752.000	438.256	80.009	19.993	103.163	19.930	9.115	0.462
754.000	439.211	80.009	19.995	103.161	19.930	9.102	0.449
756.000	440.327	80.008	19.994	103.166	19.928	9.235	0.530
758.001	441.220	80.009	19.994	103.165	19.931	9.026	0.492
760.001	442.250	80.007	19.994	103.170	19.930	9.105	0.532
762.000	443.240	80.007	19.994	103.159	19.933	8.905	0.504
764.000	444.381	80.006	19.994	103.159	19.934	8.816	0.567
766.000	445.321	80.007	19.994	103.150	19.931	9.023	0.455
768.000	446.321	80.007	19.994	103.162	19.932	8.991	0.518
770.000	447.283	80.007	19.994	103.160	19.934	8.846	0.473
772.000	448.293	80.007	19.995	103.159	19.936	8.686	0.481
774.000	449.334	80.007	19.995	103.151	19.937	8.626	0.514
776.000	450.336	80.006	19.995	103.150	19.940	8.399	0.512
778.000	451.333	80.006	19.995	103.156	19.939	8.475	0.507
780.000	452.372	80.006	19.996	103.156	19.938	8.582	0.524
782.000	453.347	80.007	19.996	103.163	19.940	8.407	0.478
784.000	454.381	80.007	19.995	103.143	19.942	8.297	0.528
786.000	455.417	80.007	19.995	103.160	19.944	8.098	0.534
788.000	456.427	80.006	19.995	103.176	19.945	8.036	0.489
790.000	457.393	80.007	19.995	103.164	19.945	8.041	0.454
792.000	458.434	80.005	19.995	103.161	19.944	8.137	0.530
794.000	459.416	80.006	19.995	103.164	19.947	7.912	0.487
796.000	460.451	80.006	19.994	103.155	19.947	7.872	0.500
798.000	461.468	80.006	19.995	103.152	19.951	7.615	0.528
800.000	462.511	80.006	19.995	103.157	19.952	7.522	0.516
802.000	463.518	80.006	19.995	103.170	19.957	7.216	0.512
804.000	464.495	80.007	19.996	103.143	19.958	7.101	0.489
806.000	465.502	80.007	19.995	103.160	19.959	7.011	0.506
808.000	466.529	80.008	19.995	103.166	19.962	6.860	0.516
810.000	467.542	80.006	19.996	103.162	19.960	7.005	0.516
812.000	468.538	80.008	19.996	103.165	19.962	6.840	0.498
814.000	469.590	80.007	19.995	103.152	19.963	6.745	0.532
816.000	470.620	80.008	19.996	103.153	19.961	6.920	0.515
818.000	471.604	80.008	19.994	103.149	19.963	6.765	0.479
820.000	472.618	80.007	19.995	103.145	19.963	6.726	0.510
822.000	473.646	80.010	19.995	103.140	19.967	6.463	0.513
824.000	474.686	80.008	19.995	103.152	19.966	6.516	0.499
826.000	475.692	80.008	19.994	103.147	19.972	6.127	0.476
828.000	476.706	80.009	19.994	103.150	19.968	6.399	0.498
830.000	477.719	80.010	19.994	103.161	19.970	6.267	0.519
832.000	478.726	80.010	19.994	103.145	19.971	6.168	0.487
834.000	479.765	80.009	19.993	103.149	19.970	6.223	0.544
836.000	480.769	80.009	19.995	103.151	19.969	6.350	0.500
838.000	481.794	80.009	19.994	103.143	19.973	6.055	0.533
840.000	482.824	80.008	19.994	103.156	19.970	6.270	0.519
842.001	483.795	80.007	19.995	103.154	19.972	6.100	0.513
844.000	484.831	80.006	19.995	103.157	19.972	6.081	0.541
846.000	485.868	80.006	19.994	103.160	19.977	5.741	0.522
848.000	486.852	80.006	19.994	103.174	19.978	5.669	0.487
850.000	487.913	80.006	19.995	103.171	19.978	5.665	0.506
852.000	488.916	80.005	19.994	103.178	19.983	5.331	0.502
854.000	489.973	80.006	19.995	103.177	19.981	5.469	0.524
856.000	490.955	80.005	19.994	103.159	19.981	5.450	0.509
858.000	491.971	80.007	19.994	103.173	19.979	5.586	0.467
860.001	493.077	80.006	19.994	103.159	19.985	5.168	0.528
862.000	494.140	80.007	19.994	103.165	19.990	4.855	0.569
864.000	495.160	80.007	19.994	103.151	19.989	4.910	0.524
866.000	496.196	80.007	19.994	103.162	19.986	5.139	0.510
868.000	497.198	80.007	19.995	103.166	19.984	5.218	0.500
870.000	498.248	80.006	19.995	103.160	19.988	4.967	0.519
872.000	499.280	80.008	19.995	103.173	19.990	4.812	0.507
874.000	500.367	80.007	19.995	103.168	19.992	4.699	0.553
876.000	501.401	80.005	19.996	103.170	19.992	4.691	0.537
878.000	502.405	80.006	19.995	103.174	19.994	4.513	0.505
880.000	503.420	80.006	19.995	103.147	19.994	4.510	0.511
882.000	504.412	80.006	19.996	103.149	19.996	4.384	0.491
884.000	505.482	80.007	19.996	103.154	19.995	4.436	0.514
886.000	506.496	80.008	19.995	103.150	19.996	4.388	0.542
888.000	507.543	80.007	19.995	103.159	19.994	4.514	0.499
890.000	508.543	80.007	19.995	103.151	19.997	4.355	0.485
892.000	509.615	80.009	19.995	103.143	19.998	4.277	0.544
894.001	510.583	80.008	19.995	103.147	19.994	4.508	0.466
896.000	511.608	80.008	19.995	103.140	19.993	4.580	0.508
898.000	512.609	80.006	19.995	103.142	19.995	4.475	0.516
900.000	513.647	80.006	19.995	103.142	19.993	4.582	0.489
902.000	514.668	80.005	19.996	103.140	19.995	4.467	0.506
904.000	515.735	80.007	19.995	103.142	19.998	4.232	0.518
906.000	516.780	80.006	19.995	103.144	19.999	4.186	0.522
908.000	517.778	80.007	19.995	103.146	19.998	4.283	0.502
910.000	518.808	80.007	19.996	103.145	19.996	4.368	0.507
912.000	519.816	80.008	19.994	103.142	19.998	4.262	0.514
914.000	520.817	80.007	19.994	103.145	20.002	3.988	0.497
916.000	521.883	80.009	19.994	103.155	20.003	3.863	0.512
918.000	522.904	80.010	19.994	103.147	20.007	3.594	0.513
920.000	523.959	80.008	19.995	103.141	20.007	3.630	0.513
922.000	524.961	80.006	19.994	103.147	20.007	3.604	0.469
924.000	525.973	80.006	19.994	103.155	20.009	3.466	0.528
926.000	526.980	80.006	19.994	103.151	20.009	3.444	0.485
928.000	528.076	80.006	19.995	103.161	20.011	3.339	0.502
930.000	529.095	80.006	19.994	103.164	20.009	3.436	0.504
932.000	530.183	80.007	19.994	103.162	20.013	3.197	0.537
934.000	531.202	80.006	19.994	103.175	20.013	3.177	0.513
936.000	532.258	80.006	19.995	103.171	20.015	3.024	0.519
938.000	533.257	80.008	19.995	103.163	20.017	2.905	0.487
940.000	534.364	80.006	19.996	103.168	20.012	3.230	0.533
942.000	535.365	80.006	19.994	103.163	20.016	2.923	0.518
944.000	536.410	80.007	19.995	103.144	20.013	3.177	0.535
946.000	537.398	80.006	19.994	103.168	20.017	2.907	0.501
948.000	538.435	80.007	19.995	103.158	20.015	2.999	0.511
950.001	539.453	80.006	19.994	103.154	20.013	3.172	0.520
952.000	540.483	80.007	19.994	103.152	20.014	3.108	0.517
954.000	541.496	80.008	19.995	103.145	20.016	2.948	0.499
956.000	542.529	80.009	19.994	103.147	20.014	3.123	0.527
958.000	543.555	80.006	19.995	103.156	20.018	2.824	0.493
960.000	544.549	80.006	19.994	103.148	20.019	2.746	0.514
962.000	545.595	80.007	19.995	103.162	20.016	2.975	0.515
964.000	546.599	80.006	19.995	103.155	20.019	2.754	0.493
966.000	547.629	80.007	19.995	103.166	20.019	2.742	0.525
968.001	548.670	80.007	19.995	103.157	20.017	2.862	0.494
970.000	549.654	80.007	19.996	103.148	20.016	2.923	0.490
972.000	550.711	80.007	19.996	103.150	20.017	2.867	0.489
974.000	551.715	80.007	19.995	103.157	20.025	2.313	0.532
976.000	552.761	80.008	19.994	103.156	20.021	2.577	0.507
978.000	553.797	80.007	19.996	103.141	20.022	2.532	0.509
980.000	554.858	80.007	19.995	103.141	20.023	2.449	0.506
982.000	555.854	80.007	19.995	103.155	20.025	2.311	0.483
984.000	556.879	80.007	19.995	103.152	20.024	2.359	0.496
986.000	557.941	80.007	19.995	103.166	20.022	2.501	0.537
988.000	558.982	80.007	19.995	103.145	20.028	2.122	0.547
990.000	560.012	80.006	19.996	103.145	20.025	2.347	0.503
992.000	561.021	80.007	19.995	103.148	20.030	1.984	0.539
994.000	562.054	80.006	19.996	103.152	20.028	2.081	0.492
996.000	563.076	80.008	19.995	103.158	20.027	2.182	0.503
998.000	564.040	80.007	19.996	103.140	20.029	2.039	0.504
1000.000	565.068	80.008	19.996	103.138	20.033	1.745	0.487
1002.000	566.157	80.009	19.995	103.138	20.034	1.687	0.524
1004.000	567.142	80.008	19.995	103.143	20.032	1.788	0.501
1006.000	568.155	80.008	19.997	103.136	20.033	1.737	0.505
1008.000	569.159	80.008	19.996	103.146	20.033	1.726	0.512
1010.000	570.204	80.007	19.995	103.149	20.027	2.182	0.519
1012.000	571.220	80.006	19.995	103.142	20.029	2.027	0.536
1014.000	572.247	80.006	19.995	103.145	20.033	1.767	0.539
1016.000	573.336	80.006	19.995	103.137	20.032	1.821	0.550
1018.000	574.358	80.007	19.995	103.149	20.036	1.537	0.570
1020.000	575.412	80.007	19.994	103.158	20.032	1.806	0.527
1022.000	576.426	80.007	19.995	103.142	20.032	1.790	0.516
1024.000	577.419	80.006	19.994	103.163	20.035	1.600	0.489
1026.000	578.461	80.005	19.995	103.154	20.037	1.489	0.538
1028.000	579.536	80.007	19.996	103.142	20.035	1.597	0.546
1030.000	580.568	80.006	19.995	103.155	20.038	1.417	0.560
1032.000	581.622	80.006	19.995	103.171	20.038	1.413	0.524
1034.000	582.660	80.008	19.995	103.168	20.039	1.294	0.492
1036.000	583.667	80.006	19.995	103.167	20.039	1.335	0.536
1038.000	584.756	80.006	19.995	103.151	20.042	1.112	0.544
1040.000	585.767	80.005	19.995	103.152	20.039	1.308	0.497
1042.001	586.778	80.007	19.995	103.170	20.039	1.312	0.512
1044.000	587.876	80.006	19.995	103.156	20.042	1.073	0.532
1046.000	588.909	80.007	19.995	103.148	20.041	1.150	0.520
1048.000	589.949	80.007	19.995	103.165	20.042	1.117	0.523
1050.000	590.981	80.008	19.995	103.153	20.041	1.185	0.528
1052.000	592.012	80.008	19.995	103.144	20.036	1.543	0.503
1054.001	593.066	80.008	19.995	103.166	20.042	1.127	0.532
1056.000	594.158	80.009	19.994	103.156	20.041	1.183	0.548
1058.000	595.232	80.008	19.994	103.150	20.039	1.296	0.553
1060.000	596.247	80.008	19.994	103.145	20.040	1.224	0.514
1062.000	597.275	80.007	19.995	103.144	20.039	1.298	0.502
1064.000	598.331	80.007	19.995	103.152	20.042	1.082	0.556
1066.000	599.332	80.007	19.996	103.140	20.043	1.012	0.495
1068.000	600.411	80.006	19.995	103.139	20.043	1.038	0.524
1070.000	601.425	80.009	19.995	103.138	20.040	1.222	0.497
1072.000	602.434	80.008	19.995	103.151	20.040	1.248	0.469
1074.000	603.491	80.010	19.996	103.161	20.042	1.077	0.525
1076.000	604.514	80.008	19.995	103.143	20.042	1.125	0.503
1078.000	605.538	80.009	19.994	103.150	20.039	1.306	0.508
1080.000	606.522	80.010	19.994	103.156	20.044	0.966	0.500
1082.000	607.537	80.010	19.994	103.142	20.043	0.989	0.502
1084.000	608.517	80.009	19.995	103.149	20.042	1.063	0.494
1086.000	609.574	80.009	19.995	103.144	20.044	0.968	0.492
1088.000	610.586	80.007	19.996	103.145	20.043	1.055	0.497
1090.000	611.589	80.006	19.995	103.147	20.043	1.022	0.507
1092.000	612.576	80.006	19.996	103.147	20.048	0.670	0.509
1094.001	613.586	80.006	19.996	103.143	20.045	0.855	0.492
1096.000	614.638	80.007	19.996	103.150	20.048	0.674	0.501
1098.001	615.649	80.006	19.996	103.148	20.050	0.534	0.537
1100.000	616.670	80.007	19.995	103.145	20.049	0.566	0.512
1102.000	617.639	80.007	19.995	103.143	20.052	0.365	0.475
1104.000	618.651	80.007	19.995	103.139	20.047	0.719	0.498
1106.000	619.691	80.007	19.995	103.146	20.048	0.649	0.500
1108.001	620.717	80.006	19.993	103.142	20.051	0.420	0.504
1110.000	621.687	80.007	19.995	103.161	20.046	0.783	0.480
1112.000	622.767	80.008	19.994	103.165	20.050	0.550	0.558
1114.000	623.734	80.005	19.994	103.152	20.045	0.900	0.486
1116.000	624.776	80.006	19.994	103.144	20.050	0.544	0.569
1118.000	625.759	80.006	19.995	103.166	20.052	0.393	0.509
1120.000	626.784	80.005	19.994	103.148	20.050	0.505	0.505
1122.000	627.779	80.006	19.994	103.157	20.052	0.373	0.512
1124.001	628.793	80.005	19.995	103.145	20.053	0.276	0.488
1126.001	629.813	80.004	19.994	103.151	20.054	0.251	0.528
1128.000	630.784	80.004	19.995	103.165	20.050	0.498	0.490
1130.000	631.881	80.005	19.994	103.146	20.051	0.453	0.532
1132.000	632.897	80.007	19.995	103.153	20.054	0.245	0.527
1134.000	633.919	80.008	19.994	103.163	20.052	0.396	0.540
1136.000	634.975	80.007	19.995	103.151	20.056	0.097	0.528
1138.000	635.955	80.008	19.995	103.154	20.054	0.227	0.495
1140.000	636.935	80.008	19.995	103.161	20.052	0.348	0.456
1142.000	637.926	80.007	19.994	103.158	20.054	0.266	0.477
1144.000	638.952	80.008	19.994	103.158	20.050	0.521	0.466
1146.000	639.954	80.008	19.994	103.144	20.051	0.484	0.495
1148.000	640.962	80.007	19.994	103.153	20.047	0.729	0.520
1150.001	641.970	80.007	19.995	103.145	20.048	0.643	0.506
1152.000	642.968	80.007	19.994	103.145	20.049	0.575	0.502
1154.000	643.948	80.007	19.995	103.141	20.050	0.494	0.460
1156.000	644.943	80.008	19.996	103.138	20.051	0.437	0.516
1158.000	645.974	80.008	19.995	103.146	20.054	0.257	0.516
1160.000	646.939	80.008	19.996	103.149	20.052	0.365	0.498
1162.000	647.955	80.009	19.995	103.143	20.053	0.286	0.534
1164.000	648.926	80.008	19.995	103.146	20.055	0.192	0.528
1166.001	649.939	80.008	19.995	103.154	20.056	0.101	0.488
1168.000	650.987	80.009	19.994	103.154	20.059	-0.111	0.507
1170.001	652.039	80.008	19.995	103.151	20.058	-0.019	0.520
1172.000	653.004	80.007	19.995	103.149	20.056	0.060	0.469
1174.000	654.045	80.006	19.995	103.177	20.060	-0.171	0.486
1176.000	655.035	80.006	19.994	103.173	20.057	0.006	0.493
1178.000	656.093	80.006	19.995	103.161	20.055	0.154	0.520
1180.001	657.058	80.006	19.995	103.169	20.057	-0.008	0.484
1182.000	658.064	80.006	19.996	103.146	20.055	0.185	0.483
1184.000	659.103	80.006	19.995	103.144	20.058	-0.054	0.515
1186.000	660.099	80.005	19.995	103.144	20.053	0.336	0.471
1188.000	661.141	80.006	19.995	103.152	20.059	-0.105	0.519
1190.000	662.121	80.006	19.995	103.143	20.057	0.000	0.499
1192.000	663.108	80.005	19.995	103.149	20.057	0.051	0.495
1194.000	664.142	80.006	19.996	103.140	20.056	0.126	0.497
1196.000	665.162	80.006	19.995	103.141	20.056	0.070	0.489
1198.001	666.160	80.006	19.995	103.140	20.055	0.190	0.515
1200.000	667.153	80.006	19.995	103.138	20.053	0.297	0.480
1202.000	668.162	80.006	19.995	103.140	20.056	0.062	0.494
1204.000	669.170	80.006	19.994	103.145	20.059	-0.157	0.493
1206.000	670.177	80.006	19.995	103.140	20.055	0.152	0.496
1208.000	671.202	80.006	19.995	103.137	20.056	0.068	0.522
1210.000	672.227	80.026	19.999	103.149	20.056	0.084	0.532
1212.000	673.206	80.013	19.996	103.160	20.057	0.025	0.517
1214.000	674.204	80.008	19.994	103.138	20.059	-0.140	0.483
1216.000	675.294	80.008	19.995	103.138	20.056	0.119	0.515
1218.000	676.318	80.009	19.994	103.137	20.057	-0.014	0.531
1220.000	677.327	80.010	19.994	103.135	20.063	-0.391	0.517
1222.001	678.307	80.010	19.995	103.137	20.060	-0.188	0.505
1224.000	679.321	80.009	19.995	103.133	20.057	0.054	0.500
1226.000	680.339	80.007	19.995	103.137	20.058	-0.064	0.498
1228.000	681.396	80.007	19.995	103.140	20.058	-0.070	0.527
1230.001	682.406	80.008	19.995	103.141	20.061	-0.237	0.529
1232.001	683.408	80.007	19.994	103.138	20.056	0.095	0.507
1234.001	684.431	80.008	19.993	103.136	20.061	-0.253	0.532
1236.001	685.434	80.007	19.994	103.136	20.062	-0.311	0.494
1238.000	686.482	80.009	19.995	103.140	20.064	-0.453	0.521
1240.000	687.437	80.008	19.993	103.137	20.060	-0.208	0.472
1242.000	688.487	80.010	19.994	103.144	20.064	-0.462	0.497
1244.000	689.491	80.010	19.994	103.143	20.063	-0.392	0.495
1246.000	690.449	80.009	19.994	103.136	20.065	-0.536	0.542
1248.001	691.480	80.010	19.994	103.140	20.068	-0.754	0.494
1250.000	692.472	80.009	19.994	103.133	20.065	-0.583	0.502
1252.000	693.517	80.007	19.994	103.141	20.064	-0.466	0.506
1254.000	694.472	80.008	19.994	103.140	20.067	-0.729	0.493
1256.000	695.463	80.007	19.995	103.136	20.068	-0.748	0.491
1258.000	696.490	80.007	19.995	103.135	20.067	-0.733	0.491
1260.000	697.425	80.005	19.995	103.136	20.068	-0.771	0.483
1262.000	698.438	80.007	19.995	103.121	20.072	-1.024	0.520
1264.000	699.341	80.008	19.995	103.127	20.070	-0.896	0.446
1266.000	700.327	80.008	19.995	103.138	20.070	-0.892	0.488
1268.001	701.349	80.007	19.995	103.136	20.066	-0.649	0.517
1270.000	702.236	80.008	19.994	103.130	20.066	-0.649	0.491
1272.000	703.204	80.007	19.995	103.118	20.069	-0.820	0.447
1274.001	704.186	80.008	19.995	103.133	20.067	-0.707	0.483
1276.000	705.159	80.008	19.994	103.134	20.067	-0.731	0.431
1278.000	706.121	80.009	19.995	103.126	20.065	-0.527	0.474
1280.000	707.071	80.006	19.995	103.111	20.065	-0.542	0.480
1282.000	708.044	80.007	19.995	103.130	20.062	-0.371	0.519
1284.000	708.976	80.007	19.996	103.122	20.069	-0.861	0.478
1286.000	710.006	80.007	19.997	103.121	20.069	-0.822	0.500
1288.000	710.967	80.007	19.996	103.133	20.070	-0.940	0.475
1290.000	711.945	80.006	19.996	103.124	20.068	-0.775	0.449
1292.000	712.982	80.006	19.996	103.134	20.071	-0.969	0.509
1294.000	713.960	80.007	19.995	103.118	20.069	-0.832	0.480
1296.000	714.983	80.007	19.995	103.122	20.070	-0.921	0.516
1298.000	715.994	80.008	19.995	103.138	20.070	-0.913	0.516
1300.001	717.018	80.008	19.994	103.122	20.070	-0.880	0.518
1302.001	718.016	80.008	19.994	103.127	20.067	-0.723	0.503
1304.000	719.007	80.009	19.994	103.128	20.065	-0.565	0.508
1306.000	720.014	80.008	19.994	103.130	20.066	-0.626	0.481
1308.001	721.041	80.009	19.994	103.128	20.063	-0.410	0.502
1310.000	722.045	80.009	19.995	103.129	20.062	-0.354	0.517
1312.000	723.028	80.008	19.994	103.136	20.065	-0.579	0.496
1314.000	724.069	80.008	19.995	103.134	20.065	-0.540	0.520
1316.000	725.020	80.007	19.995	103.125	20.064	-0.482	0.471
1318.000	725.995	80.008	19.994	103.133	20.059	-0.144	0.486
1320.000	727.027	80.009	19.994	103.094	20.064	-0.447	0.484
1322.001	727.995	80.008	19.993	103.166	20.063	-0.385	0.514
1324.000	729.015	80.008	19.995	103.122	20.065	-0.554	0.512
1326.000	730.042	80.010	19.994	103.127	20.065	-0.540	0.520
1328.000	731.068	80.009	19.994	103.134	20.065	-0.548	0.487
1330.001	732.051	80.010	19.994	103.128	20.063	-0.433	0.492
1332.000	733.057	80.009	19.994	103.131	20.061	-0.295	0.515
1334.000	734.132	80.010	19.993	103.114	20.064	-0.493	0.511
1336.000	735.104	80.007	19.994	103.134	20.062	-0.371	0.492
1338.000	736.192	80.008	19.994	103.134	20.063	-0.439	0.536
1340.001	737.207	80.007	19.994	103.128	20.065	-0.548	0.508
1342.000	738.187	80.007	19.995	103.138	20.065	-0.561	0.497
1344.001	739.234	80.007	19.994	103.127	20.064	-0.470	0.522
1346.000	740.260	80.007	19.995	103.133	20.065	-0.528	0.501
1348.000	741.290	80.006	19.994	103.130	20.064	-0.449	0.513
1350.000	742.286	80.007	19.995	103.112	20.067	-0.725	0.517
1352.000	743.299	80.008	19.996	103.119	20.064	-0.511	0.485
1352.500	743.606	80.008	19.995	103.124	20.064	-0.492	0.517