File: 01_Data/HDPE/STA/N2/10K_min/HDPE_STA_N2_10KData_21109_R3.csv
##Temp./Â°C,Time/min,DSC(subtr.2)/(mW/mg),Mass loss(subtr.2)/mg,Sensit./(uV/mW)
49.721,10.01,-0.02145959,-0.0034,1.03585
50.321,11.45562,0.008494915,-0.003306437,1.03582
50.921,11.82168,0.02701889,-0.004708451,1.03579
51.521,12.08664,0.04258042,-0.00357547,1.03576
52.121,12.30443,0.05589839,-0.004487658,1.03572
52.721,12.494,0.06757975,-0.00428125,1.03569
53.321,12.66728,0.07802367,-0.00308519,1.03565
53.921,12.82638,0.08641394,-0.003480035,1.03561
54.521,12.975,0.09435091,-0.005451379,1.03558
55.121,13.1176,0.10171,-0.004002293,1.03553
55.721,13.2528,0.1089,-0.005699555,1.03549
56.321,13.3808,0.11358,-0.00575266,1.03545
56.921,13.5048,0.11858,-0.00421905,1.0354
57.521,13.6266,0.12274,-0.00389175,1.03535
58.121,13.7441,0.12809,-0.00358762,1.03531
58.721,13.85808,0.13495,-0.004154233,1.03526
59.321,13.968,0.13838,-0.005590376,1.0352
59.921,14.0764,0.14445,-0.00687208,1.03515
60.521,14.1834,0.14621,-0.00479858,1.03509
61.121,14.28765,0.14863,-0.005997486,1.03504
61.721,14.38967,0.15355,-0.005703456,1.03498
62.321,14.4897,0.15543,-0.00501583,1.03492
62.921,14.5877,0.16135,-0.00503496,1.03486
63.521,14.6843,0.16111,-0.004973538,1.0348
64.121,14.7795,0.16337,-0.005737215,1.03473
64.721,14.87265,0.16653,-0.00396142,1.03467
65.321,14.9645,0.17118,-0.004204702,1.0346
65.921,15.0552,0.1737,-0.003734124,1.03453
66.521,15.14507,0.17817,-0.004321403,1.03446
67.121,15.23371,0.17802,-0.00315778,1.03439
67.721,15.3205,0.17988,-0.004390289,1.03432
68.321,15.40657,0.18528,-0.00553432,1.03424
68.921,15.4916,0.18666,-0.005742299,1.03416
69.521,15.5756,0.18968,-0.005724619,1.03409
70.121,15.65869,0.19376,-0.005666695,1.03401
70.721,15.74119,0.19429,-0.005726337,1.03393
71.321,15.82272,0.2006,-0.00629457,1.03384
71.921,15.90335,0.2044,-0.006023606,1.03376
72.521,15.98365,0.20563,-0.004367145,1.03367
73.121,16.063,0.20851,-0.00722639,1.03359
73.721,16.14159,0.21099,-0.005349255,1.0335
74.321,16.21936,0.21611,-0.005818509,1.03341
74.921,16.29632,0.21569,-0.00531788,1.03332
75.521,16.37279,0.21829,-0.004616225,1.03323
76.121,16.4493,0.22151,-0.005918648,1.03313
76.721,16.5251,0.22266,-0.004433452,1.03304
77.321,16.60014,0.22507,-0.005810147,1.03294
77.921,16.6741,0.22856,-0.00586184,1.03284
78.521,16.74774,0.22949,-0.005946118,1.03274
79.121,16.82098,0.2327,-0.006031019,1.03264
79.721,16.89398,0.23583,-0.00612265,1.03253
80.321,16.96633,0.2369,-0.00502567,1.03243
80.921,17.0383,0.23996,-0.004717875,1.03232
81.521,17.10963,0.24325,-0.004709652,1.03222
82.121,17.18079,0.24298,-0.005442678,1.03211
82.721,17.25165,0.24569,-0.005516696,1.032
83.321,17.3221,0.25085,-0.006037031,1.03188
83.921,17.39195,0.25019,-0.006063722,1.03177
84.521,17.46128,0.25391,-0.00624686,1.03166
85.121,17.53044,0.25584,-0.003214437,1.03154
85.721,17.59906,0.25836,-0.005725005,1.03142
86.321,17.66749,0.25973,-0.00701993,1.0313
86.921,17.73528,0.2632,-0.007020949,1.03118
87.521,17.803,0.26302,-0.007698779,1.03106
88.121,17.87003,0.26678,-0.00570027,1.03094
88.721,17.93702,0.27111,-0.00576371,1.03081
89.321,18.00379,0.27396,-0.0048858,1.03068
89.921,18.07026,0.27421,-0.00448019,1.03056
90.521,18.13664,0.27629,-0.00532638,1.03043
91.121,18.20243,0.27779,-0.00544381,1.0303
91.721,18.2679,0.28316,-0.00417704,1.03016
92.321,18.33298,0.28126,-0.005477839,1.03003
92.921,18.39745,0.28534,-0.00678052,1.02989
93.521,18.46207,0.28708,-0.0059381,1.02976
94.121,18.5263,0.29031,-0.005498172,1.02962
94.721,18.59072,0.29073,-0.006802599,1.02948
95.321,18.6546,0.29331,-0.007867209,1.02934
95.921,18.7182,0.29549,-0.00682264,1.0292
96.521,18.78185,0.29989,-0.006579789,1.02905
97.121,18.84525,0.30176,-0.005514871,1.02891
97.721,18.90855,0.30396,-0.005269259,1.02876
98.321,18.97148,0.30666,-0.005281821,1.02862
98.921,19.0341,0.30805,-0.005265161,1.02847
99.521,19.0967,0.31318,-0.005128095,1.02832
100.121,19.15922,0.31651,-0.00502292,1.02816
100.721,19.2216,0.31753,-0.004071496,1.02801
101.321,19.28375,0.32074,-0.00405416,1.02786
101.921,19.34585,0.32366,-0.005046045,1.0277
102.521,19.4074,0.32826,-0.006247241,1.02754
103.121,19.46911,0.33242,-0.00505523,1.02738
103.721,19.53076,0.33458,-0.005011536,1.02722
104.321,19.59212,0.33748,-0.00617512,1.02706
104.921,19.6537,0.34157,-0.00641727,1.0269
105.521,19.71489,0.34682,-0.006348309,1.02673
106.121,19.77608,0.35233,-0.005048901,1.02657
106.721,19.8369,0.35692,-0.005693799,1.0264
107.321,19.89767,0.36161,-0.00504956,1.02623
107.921,19.95835,0.36443,-0.006349691,1.02606
108.521,20.01901,0.36776,-0.005074896,1.02589
109.121,20.0796,0.37333,-0.004359464,1.02572
109.721,20.13995,0.3784,-0.005049994,1.02554
110.321,20.2003,0.38125,-0.00637006,1.02537
110.921,20.2603,0.38702,-0.006364415,1.02519
111.521,20.3204,0.39321,-0.005037895,1.02501
112.121,20.38066,0.3969,-0.005048435,1.02483
112.721,20.44067,0.40355,-0.005082886,1.02465
113.321,20.5004,0.41155,-0.005050074,1.02447
113.921,20.55988,0.42097,-0.006359844,1.02429
114.521,20.61916,0.42659,-0.00502909,1.0241
115.121,20.67857,0.43365,-0.00372954,1.02392
115.721,20.73803,0.43773,-0.005040073,1.02373
116.321,20.7974,0.44859,-0.005051735,1.02354
116.921,20.8566,0.45886,-0.00647181,1.02335
117.521,20.91558,0.4657,-0.004999975,1.02316
118.121,20.97449,0.47525,-0.0063653,1.02297
118.721,21.0334,0.48776,-0.005716354,1.02277
119.321,21.09233,0.50389,-0.00640458,1.02258
119.921,21.15108,0.51835,-0.005049337,1.02238
120.521,21.20974,0.53292,-0.006362309,1.02218
121.121,21.26809,0.55173,-0.005049885,1.02198
121.721,21.3266,0.57057,-0.003719128,1.02178
122.321,21.38499,0.59282,-0.004983026,1.02158
122.921,21.4435,0.62048,-0.003726826,1.02138
123.521,21.50217,0.64633,-0.005038171,1.02117
124.121,21.56038,0.68161,-0.005049982,1.02097
124.721,21.61861,0.71885,-0.005585837,1.02076
125.321,21.67683,0.76147,-0.006360104,1.02055
125.921,21.73501,0.81431,-0.006097655,1.02034
126.521,21.7929,0.87581,-0.005047978,1.02013
127.121,21.8508,0.94787,-0.00636151,1.01992
127.721,21.90866,1.03309,-0.006911484,1.0197
128.321,21.96655,1.13093,-0.00636788,1.01949
128.921,22.02476,1.24747,-0.005026898,1.01927
129.521,22.0828,1.38549,-0.00623309,1.01905
130.121,22.14104,1.54152,-0.003681824,1.01884
130.721,22.19918,1.71882,-0.00239951,1.01862
131.321,22.25734,1.91593,-0.003729471,1.01839
131.921,22.3157,2.12919,-0.00244541,1.01817
132.521,22.37417,2.35323,-0.0050554,1.01795
133.121,22.43296,2.57106,-0.00636785,1.01772
133.721,22.49151,2.78481,-0.007684573,1.0175
134.321,22.5502,2.96845,-0.006362691,1.01727
134.921,22.6088,3.12713,-0.006118468,1.01704
135.521,22.66724,3.26446,-0.005098964,1.01681
136.121,22.72553,3.35223,-0.00373273,1.01658
136.721,22.78377,3.36796,-0.00505843,1.01635
137.321,22.8416,3.3041,-0.00588043,1.01611
137.921,22.8989,3.16,-0.00504354,1.01588
138.521,22.95565,2.94223,-0.003635388,1.01564
139.121,23.0119,2.67481,-0.00504281,1.0154
139.721,23.06782,2.35034,-0.004387701,1.01516
140.321,23.1234,1.95075,-0.004183769,1.01492
140.921,23.1785,1.57046,-0.00506757,1.01468
141.521,23.23293,1.27126,-0.005041125,1.01444
142.121,23.28719,1.04569,-0.00633806,1.0142
142.721,23.3412,0.8795,-0.00636,1.01395
143.321,23.3953,0.76087,-0.00633517,1.01371
143.921,23.4496,0.66929,-0.005039327,1.01346
144.521,23.50378,0.6012,-0.004382032,1.01321
145.121,23.55823,0.55301,-0.005379959,1.01296
145.721,23.61261,0.51817,-0.00538,1.01271
146.321,23.6669,0.49154,-0.00537974,1.01246
146.921,23.72138,0.4724,-0.00615393,1.0122
147.521,23.77572,0.45887,-0.006690235,1.01195
148.121,23.83034,0.44772,-0.00669202,1.01169
148.721,23.8851,0.44002,-0.00661561,1.01144
149.321,23.93976,0.43465,-0.006360583,1.01118
149.921,23.99452,0.4292,-0.005074964,1.01092
150.521,24.0492,0.42888,-0.005049965,1.01066
151.121,24.1039,0.42703,-0.004858847,1.0104
151.721,24.15841,0.42573,-0.003730278,1.01013
152.321,24.21291,0.4265,-0.00367282,1.00987
152.921,24.2673,0.42361,-0.005051992,1.0096
153.521,24.32175,0.42523,-0.006365395,1.00934
154.121,24.37658,0.42466,-0.006467135,1.00907
154.721,24.431,0.42601,-0.00635348,1.0088
155.321,24.48538,0.42442,-0.004150873,1.00853
155.921,24.53964,0.42825,-0.0040521,1.00826
156.521,24.5939,0.42571,-0.004305504,1.00799
157.121,24.64852,0.4278,-0.004720103,1.00771
157.721,24.7031,0.42726,-0.00472039,1.00744
158.321,24.75759,0.42873,-0.005082119,1.00716
158.921,24.8121,0.43017,-0.006027588,1.00689
159.521,24.86648,0.43043,-0.00466937,1.00661
160.121,24.92086,0.4316,-0.005616483,1.00633
160.721,24.97533,0.43362,-0.005598973,1.00605
161.321,25.02964,0.43232,-0.004932683,1.00577
161.921,25.08389,0.43646,-0.005891424,1.00548
162.521,25.1382,0.43465,-0.004610655,1.0052
163.121,25.1926,0.43601,-0.00461192,1.00492
163.721,25.24681,0.43654,-0.003257504,1.00463
164.321,25.30131,0.4377,-0.00463256,1.00434
164.921,25.35589,0.43807,-0.003283813,1.00405
165.521,25.4103,0.43745,-0.003289798,1.00376
166.121,25.46485,0.43812,-0.004770188,1.00347
166.721,25.51899,0.43978,-0.004709984,1.00318
167.321,25.57312,0.44007,-0.004709316,1.00289
167.921,25.62724,0.44001,-0.00473308,1.0026
168.521,25.68153,0.44001,-0.006042845,1.0023
169.121,25.73585,0.43876,-0.00714334,1.002
169.721,25.79,0.44288,-0.00735002,1.00171
170.321,25.84425,0.44244,-0.00602768,1.00141
170.921,25.89835,0.4413,-0.007352186,1.00111
171.521,25.95243,0.44243,-0.00734976,1.00081
172.121,26.00649,0.44473,-0.007975315,1.00051
172.721,26.0605,0.44441,-0.008668081,1.00021
173.321,26.11457,0.44466,-0.007349498,0.9999
173.921,26.16861,0.44599,-0.007345469,0.9996
174.521,26.2228,0.44605,-0.008544794,0.99929
175.121,26.27688,0.4467,-0.00724705,0.99898
175.721,26.33101,0.44559,-0.008889825,0.99868
176.321,26.38516,0.44752,-0.008991035,0.99837
176.921,26.43903,0.44706,-0.006970841,0.99806
177.521,26.4932,0.44966,-0.006886616,0.99775
178.121,26.54723,0.44845,-0.0054193,0.99743
178.721,26.6011,0.45127,-0.0046048,0.99712
179.321,26.65512,0.45044,-0.005918301,0.99681
179.921,26.70893,0.45055,-0.005923912,0.99649
180.521,26.7625,0.45238,-0.004933178,0.99617
181.121,26.8165,0.45026,-0.004940078,0.99586
181.721,26.8704,0.45059,-0.004953557,0.99554
182.321,26.92438,0.45245,-0.0062459,0.99522
182.921,26.9784,0.45188,-0.007585867,0.9949
183.521,27.0322,0.45334,-0.00644073,0.99458
184.121,27.086,0.45328,-0.0085288,0.99425
184.721,27.13982,0.45449,-0.008880014,0.99393
185.321,27.19363,0.45525,-0.008881411,0.9936
185.921,27.24742,0.45645,-0.01013351,0.99328
186.521,27.3012,0.45473,-0.01152028,0.99295
187.121,27.3547,0.45658,-0.01017085,0.99262
187.721,27.4084,0.45501,-0.00757697,0.99229
188.321,27.46207,0.45896,-0.00593652,0.99196
188.921,27.51578,0.45871,-0.006016815,0.99163
189.521,27.56969,0.45963,-0.004932782,0.9913
190.121,27.62327,0.45989,-0.005272582,0.99097
190.721,27.6771,0.46183,-0.005177639,0.99063
191.321,27.7308,0.45974,-0.00657692,0.9903
191.921,27.7844,0.45883,-0.00592493,0.98996
192.521,27.838,0.46172,-0.005930089,0.98963
193.121,27.8913,0.45969,-0.007274921,0.98929
193.721,27.94456,0.46283,-0.008550371,0.98895
194.321,27.99792,0.46324,-0.008550004,0.98861
194.921,28.05136,0.46299,-0.008553365,0.98827
195.521,28.10483,0.46332,-0.01033163,0.98793
196.121,28.15839,0.46342,-0.01086268,0.98758
196.721,28.21201,0.46545,-0.009443824,0.98724
197.321,28.26572,0.46452,-0.009120239,0.9869
197.921,28.3193,0.46308,-0.00839764,0.98655
198.521,28.37305,0.46518,-0.009430465,0.9862
199.121,28.4267,0.46704,-0.009446379,0.98586
199.721,28.48012,0.46526,-0.01042008,0.98551
200.321,28.5333,0.46749,-0.01045435,0.98516
200.921,28.5866,0.46849,-0.00909748,0.98481
201.521,28.6402,0.46557,-0.009100218,0.98446
202.121,28.69365,0.46751,-0.007080379,0.9841
202.721,28.7474,0.46602,-0.007680386,0.98375
203.321,28.801,0.46757,-0.00911331,0.9834
203.921,28.85418,0.46767,-0.00910999,0.98304
204.521,28.90809,0.47038,-0.00911003,0.98268
205.121,28.96169,0.47006,-0.008620091,0.98233
205.721,29.0155,0.47251,-0.00918303,0.98197
206.321,29.0693,0.4732,-0.01037262,0.98161
206.921,29.12275,0.4725,-0.01041885,0.98125
207.521,29.17626,0.47278,-0.00913635,0.98089
208.121,29.22975,0.47374,-0.009099395,0.98053
208.721,29.28345,0.47357,-0.009143901,0.98016
209.321,29.337,0.47502,-0.00876984,0.9798
209.921,29.39061,0.4724,-0.008769986,0.97944
210.521,29.444,0.47545,-0.008026636,0.97907
211.121,29.49744,0.47601,-0.007717723,0.9787
211.721,29.55084,0.47655,-0.007080655,0.97834
212.321,29.6042,0.47631,-0.007143728,0.97797
212.921,29.65762,0.47457,-0.008111739,0.9776
213.521,29.7112,0.47465,-0.009438997,0.97723
214.121,29.7647,0.47567,-0.009465529,0.97686
214.721,29.81839,0.47575,-0.01042054,0.97649
215.321,29.8721,0.47536,-0.01075221,0.97611
215.921,29.92565,0.47659,-0.009238236,0.97574
216.521,29.97918,0.47615,-0.008038284,0.97537
217.121,30.0327,0.47695,-0.00801106,0.97499
217.721,30.08602,0.47598,-0.00927711,0.97461
218.321,30.1393,0.47829,-0.009320005,0.97424
218.921,30.1928,0.47873,-0.009320033,0.97386
219.521,30.24635,0.47962,-0.009277673,0.97348
220.121,30.3,0.47951,-0.01096998,0.9731
220.721,30.3538,0.47788,-0.00953216,0.97272
221.321,30.40751,0.47854,-0.009538352,0.97234
221.921,30.46129,0.47836,-0.008225886,0.97196
222.521,30.5149,0.48089,-0.009483469,0.97157
223.121,30.56865,0.47822,-0.009551584,0.97119
223.721,30.6221,0.48225,-0.009217898,0.9708
224.321,30.6755,0.48364,-0.009219871,0.97042
224.921,30.72895,0.48033,-0.007970438,0.97003
225.521,30.7824,0.48281,-0.007896855,0.96964
226.121,30.83607,0.48489,-0.009344659,0.96926
226.721,30.88976,0.48375,-0.00933003,0.96887
227.321,30.94349,0.48501,-0.008318735,0.96848
227.921,30.99714,0.48556,-0.009320137,0.96809
228.521,31.0505,0.48439,-0.00932,0.9677
229.121,31.10397,0.48617,-0.00932074,0.9673
229.721,31.1575,0.48575,-0.01061824,0.96691
230.321,31.2109,0.48649,-0.01204879,0.96652
230.921,31.2645,0.48528,-0.01201977,0.96612
231.521,31.31799,0.48879,-0.01205965,0.96573
232.121,31.37153,0.48544,-0.01337592,0.96533
232.721,31.42535,0.48762,-0.01215556,0.96493
233.321,31.47917,0.4875,-0.01114894,0.96453
233.921,31.53299,0.48586,-0.01041974,0.96414
234.521,31.58683,0.48784,-0.01041637,0.96374
235.121,31.6405,0.48833,-0.01173627,0.96334
235.721,31.69408,0.48866,-0.01174023,0.96293
236.321,31.7477,0.4887,-0.01127058,0.96253
236.921,31.80143,0.4879,-0.01141207,0.96213
237.521,31.85517,0.48832,-0.01006555,0.96173
238.121,31.909,0.48843,-0.00942905,0.96132
238.721,31.96254,0.49001,-0.00942981,0.96092
239.321,32.0156,0.49042,-0.0098142,0.96051
239.921,32.06925,0.48995,-0.01042039,0.9601
240.521,32.1229,0.49042,-0.01042,0.9597
241.121,32.1766,0.49089,-0.01041951,0.95929
241.721,32.23088,0.49129,-0.01147818,0.95888
242.321,32.28447,0.49323,-0.01174635,0.95847
242.921,32.3382,0.49349,-0.01041761,0.95806
243.521,32.39206,0.49344,-0.01041999,0.95765
244.121,32.4459,0.49333,-0.01043653,0.95724
244.721,32.49974,0.49497,-0.01140985,0.95682
245.321,32.5534,0.49496,-0.01047593,0.95641
245.921,32.60696,0.49406,-0.01009985,0.956
246.521,32.66066,0.49416,-0.01010254,0.95558
247.121,32.71436,0.49433,-0.01141411,0.95517
247.721,32.76806,0.49392,-0.01009798,0.95475
248.321,32.82199,0.49372,-0.0101,0.95433
248.921,32.87579,0.49587,-0.01010035,0.95391
249.521,32.92942,0.49788,-0.009077752,0.9535
250.121,32.9833,0.4963,-0.00906592,0.95308
250.721,33.03688,0.49622,-0.01044624,0.95266
251.321,33.0905,0.49813,-0.0127157,0.95224
251.921,33.14435,0.49841,-0.01272002,0.95181
252.521,33.19815,0.4979,-0.0127229,0.95139
253.121,33.25193,0.49786,-0.01143823,0.95097
253.721,33.30578,0.49581,-0.009545636,0.95055
254.321,33.35964,0.49773,-0.008550046,0.95012
254.921,33.41352,0.49734,-0.008387175,0.9497
255.521,33.46738,0.49901,-0.007240655,0.94927
256.121,33.52126,0.49881,-0.008606052,0.94884
256.721,33.575,0.49862,-0.0085465,0.94842
257.321,33.62871,0.49917,-0.00983341,0.94799
257.921,33.68253,0.49978,-0.01400618,0.94756
258.521,33.7363,0.49901,-0.0143701,0.94713
259.121,33.79011,0.50006,-0.01436976,0.9467
259.721,33.8438,0.5028,-0.01307356,0.94627
260.321,33.89768,0.50118,-0.01305999,0.94584
260.921,33.95154,0.50269,-0.01306058,0.94541
261.521,34.0054,0.50186,-0.01427028,0.94498
262.121,34.05925,0.5046,-0.01304759,0.94454
262.721,34.11293,0.50272,-0.01436819,0.94411
263.321,34.1666,0.50317,-0.01446478,0.94368
263.921,34.22048,0.50416,-0.01426196,0.94324
264.521,34.27426,0.50598,-0.01442595,0.9428
265.121,34.32822,0.50475,-0.01429956,0.94237
265.721,34.38221,0.50557,-0.01294084,0.94193
266.321,34.43615,0.5051,-0.01294,0.94149
266.921,34.49021,0.50225,-0.01294003,0.94106
267.521,34.54425,0.50633,-0.01394375,0.94062
268.121,34.59809,0.50476,-0.01425861,0.94018
268.721,34.6522,0.5084,-0.01293418,0.93974
269.321,34.70601,0.5069,-0.01293997,0.9393
269.921,34.76005,0.50844,-0.01293921,0.93885
270.521,34.81432,0.50942,-0.01494251,0.93841
271.121,34.86831,0.50917,-0.01558022,0.93797
271.721,34.9225,0.51065,-0.01409259,0.93753
272.321,34.97671,0.50955,-0.01277635,0.93708
272.921,35.03072,0.51034,-0.01414029,0.93664
273.521,35.08485,0.50963,-0.01280423,0.93619
274.121,35.13895,0.51,-0.01140928,0.93575
274.721,35.1931,0.50729,-0.01141114,0.9353
275.321,35.24731,0.5093,-0.01270045,0.93485
275.921,35.30148,0.50863,-0.01404453,0.93441
276.521,35.35557,0.50956,-0.0140381,0.93396
277.121,35.4097,0.51114,-0.01272129,0.93351
277.721,35.46383,0.51174,-0.01271859,0.93306
278.321,35.51798,0.50893,-0.0114217,0.93261
278.921,35.57225,0.50732,-0.01194722,0.93216
279.521,35.62645,0.51012,-0.0127463,0.93171
280.121,35.68067,0.5121,-0.01439836,0.93126
280.721,35.73488,0.51052,-0.01472635,0.9308
281.321,35.78905,0.51176,-0.01565821,0.93035
281.921,35.84317,0.50942,-0.01635051,0.9299
282.521,35.8974,0.51155,-0.01592493,0.92944
283.121,35.95152,0.51043,-0.01340031,0.92899
283.721,36.0057,0.51035,-0.01218007,0.92853
284.321,36.05996,0.50948,-0.01218035,0.92808
284.921,36.1141,0.51019,-0.01350374,0.92762
285.521,36.16832,0.51084,-0.01349995,0.92716
286.121,36.22266,0.51194,-0.01338314,0.92671
286.721,36.27677,0.51191,-0.01087713,0.92625
287.321,36.33108,0.51371,-0.01193237,0.92579
287.921,36.38535,0.5132,-0.01218101,0.92533
288.521,36.43947,0.5154,-0.01348139,0.92487
289.121,36.49372,0.51348,-0.01481499,0.92441
289.721,36.54786,0.51463,-0.01611919,0.92395
290.321,36.6021,0.51614,-0.01612,0.92349
290.921,36.65634,0.51427,-0.01612711,0.92303
291.521,36.71073,0.51382,-0.0148107,0.92257
292.121,36.7652,0.51614,-0.01481,0.9221
292.721,36.8196,0.5141,-0.01481,0.92164
293.321,36.87422,0.51344,-0.01485307,0.92118
293.921,36.92866,0.51585,-0.01348844,0.92071
294.521,36.98302,0.51578,-0.0141,0.92025
295.121,37.03761,0.51549,-0.01399174,0.91978
295.721,37.09199,0.51641,-0.012721,0.91932
296.321,37.14638,0.51277,-0.01136964,0.91885
296.921,37.2008,0.51444,-0.01009079,0.91838
297.521,37.2552,0.51481,-0.01010835,0.91792
298.121,37.3098,0.51745,-0.01074396,0.91745
298.721,37.36421,0.51602,-0.01217054,0.91698
299.321,37.41872,0.51698,-0.0131645,0.91651
299.921,37.473,0.51604,-0.01548064,0.91604
300.521,37.52735,0.52001,-0.01557998,0.91557
301.121,37.5818,0.51977,-0.01556924,0.9151
301.721,37.6362,0.51954,-0.01366261,0.91463
302.321,37.6907,0.51884,-0.01161021,0.91416
302.921,37.74515,0.51768,-0.01190547,0.91369
303.521,37.7998,0.51675,-0.01293997,0.91322
304.121,37.8544,0.51568,-0.01280162,0.91275
304.721,37.90903,0.51694,-0.01319935,0.91227
305.321,37.9638,0.51713,-0.01393027,0.9118
305.921,38.01842,0.51722,-0.01392918,0.91133
306.521,38.07308,0.51616,-0.01292419,0.91085
307.121,38.12765,0.51498,-0.01294609,0.91038
307.721,38.1822,0.51574,-0.01161861,0.9099
308.321,38.23673,0.51581,-0.01294453,0.90943
308.921,38.29135,0.51698,-0.01294347,0.90895
309.521,38.3461,0.51558,-0.01438446,0.90847
310.121,38.40068,0.51594,-0.00640881,0.908
310.721,38.45528,0.51813,-0.02248262,0.90752
311.321,38.51,0.51673,-0.01590041,0.90704
311.921,38.56473,0.51726,-0.0154662,0.90656
312.521,38.61945,0.51626,-0.01413934,0.90608
313.121,38.67415,0.5144,-0.01414002,0.9056
313.721,38.7289,0.51426,-0.01390208,0.90512
314.321,38.78379,0.51254,-0.01412375,0.90464
314.921,38.83875,0.51251,-0.0141503,0.90416
315.521,38.89355,0.51304,-0.0128557,0.90368
316.121,38.94818,0.51352,-0.01334001,0.9032
316.721,39.00294,0.51144,-0.01413904,0.90272
317.321,39.05761,0.5104,-0.01420498,0.90224
317.921,39.11255,0.51338,-0.0154475,0.90176
318.521,39.1674,0.51127,-0.01546003,0.90127
319.121,39.2222,0.51129,-0.01548151,0.90079
319.721,39.27701,0.51294,-0.01414759,0.90031
320.321,39.33194,0.51301,-0.01399288,0.89982
320.921,39.3869,0.51145,-0.01315966,0.89934
321.521,39.44192,0.51081,-0.01315968,0.89885
322.121,39.497,0.51018,-0.01181307,0.89837
322.721,39.55202,0.50891,-0.01292883,0.89788
323.321,39.6068,0.50807,-0.01314043,0.8974
323.921,39.6616,0.50882,-0.01365651,0.89691
324.521,39.7164,0.50813,-0.01613114,0.89642
325.121,39.7712,0.5097,-0.01667986,0.89594
325.721,39.82654,0.50863,-0.01668,0.89545
326.321,39.88173,0.51012,-0.01668,0.89496
326.921,39.9367,0.51092,-0.016679,0.89447
327.521,39.99191,0.50959,-0.01531865,0.89398
328.121,40.0469,0.50866,-0.0160406,0.89349
328.721,40.10195,0.50903,-0.01539842,0.89301
329.321,40.15713,0.50771,-0.0140397,0.89252
329.921,40.21204,0.50946,-0.01403951,0.89203
330.521,40.26719,0.50994,-0.01323932,0.89154
331.121,40.3222,0.50948,-0.01437044,0.89104
331.721,40.37726,0.50786,-0.01437175,0.89055
332.321,40.4323,0.51047,-0.01569605,0.89006
332.921,40.48728,0.50764,-0.01568974,0.88957
333.521,40.5422,0.50878,-0.01652821,0.88908
334.121,40.5972,0.50867,-0.01797469,0.88859
334.721,40.65248,0.50859,-0.01798999,0.88809
335.321,40.7077,0.50985,-0.01799043,0.8876
335.921,40.76303,0.5118,-0.01681992,0.88711
336.521,40.8182,0.51044,-0.01534213,0.88661
337.121,40.87327,0.50872,-0.01532038,0.88612
337.721,40.92835,0.50971,-0.01513938,0.88563
338.321,40.98325,0.50973,-0.01567932,0.88513
338.921,41.03829,0.5114,-0.01634003,0.88464
339.521,41.09366,0.51073,-0.01670277,0.88414
340.121,41.14901,0.50737,-0.01742059,0.88365
340.721,41.2044,0.50914,-0.01386477,0.88315
341.321,41.25967,0.51022,-0.02376712,0.88265
341.921,41.3149,0.50941,-0.0180965,0.88216
342.521,41.37015,0.50784,-0.01591328,0.88166
343.121,41.4253,0.50706,-0.008383269,0.88116
343.721,41.4806,0.51227,-0.02438529,0.88067
344.321,41.53577,0.51069,-0.01981877,0.88017
344.921,41.59101,0.51255,-0.01643744,0.87967
345.521,41.64609,0.51379,-0.01996852,0.87917
346.121,41.70146,0.51606,-0.02028992,0.87868
346.721,41.75693,0.51471,-0.02029,0.87818
347.321,41.81244,0.51414,-0.02029023,0.87768
347.921,41.86796,0.51639,-0.01898442,0.87718
348.521,41.92342,0.5175,-0.01766095,0.87668
349.121,41.97871,0.51649,-0.01765928,0.87618
349.721,42.03419,0.51605,-0.01863366,0.87568
350.321,42.08963,0.51772,-0.01865014,0.87518
350.921,42.1452,0.51783,-0.01894656,0.87468
351.521,42.20077,0.51661,-0.01765982,0.87418
352.121,42.25623,0.51783,-0.01766,0.87368
352.721,42.3117,0.51673,-0.01766009,0.87318
353.321,42.36715,0.51969,-0.0172341,0.87267
353.921,42.42283,0.51683,-0.01631714,0.87217
354.521,42.47851,0.51853,-0.01503019,0.87167
355.121,42.5342,0.51698,-0.01625086,0.87117
355.721,42.58985,0.51884,-0.01634,0.87067
356.321,42.64537,0.51633,-0.01631503,0.87016
356.921,42.70107,0.51715,-0.0150549,0.86966
357.521,42.7568,0.51601,-0.01633576,0.86916
358.121,42.81239,0.51932,-0.0133157,0.86865
358.721,42.86817,0.51681,-0.01329188,0.86815
359.321,42.92358,0.52015,-0.01525706,0.86765
359.921,42.97916,0.52005,-0.01704045,0.86714
360.521,43.03475,0.51964,-0.01700961,0.86664
361.121,43.09039,0.51805,-0.01667002,0.86614
361.721,43.14607,0.51935,-0.0166627,0.86563
362.321,43.20191,0.51866,-0.01880684,0.86513
362.921,43.2578,0.51895,-0.01931062,0.86462
363.521,43.31365,0.51923,-0.01706184,0.86412
364.121,43.3695,0.51964,-0.01513914,0.86361
364.721,43.42518,0.52054,-0.01653693,0.8631
365.321,43.481,0.51891,-0.01645002,0.8626
365.921,43.53671,0.52102,-0.01644634,0.86209
366.521,43.59214,0.5214,-0.01775855,0.86159
367.121,43.64817,0.52272,-0.01777077,0.86108
367.721,43.704,0.52062,-0.01914191,0.86057
368.321,43.76014,0.52197,-0.01909087,0.86007
368.921,43.8163,0.52236,-0.01645999,0.85956
369.521,43.87193,0.52172,-0.01812162,0.85905
370.121,43.9277,0.52384,-0.01506902,0.85855
370.721,43.9835,0.52816,-0.02381823,0.85804
371.321,44.03926,0.52878,-0.02227261,0.85753
371.921,44.09515,0.52708,-0.02226872,0.85702
372.521,44.1509,0.52712,-0.01963884,0.85652
373.121,44.20695,0.52649,-0.01963196,0.85601
373.721,44.26291,0.52993,-0.0205928,0.8555
374.321,44.31885,0.52645,-0.02062001,0.85499
374.921,44.37484,0.5283,-0.02062041,0.85448
375.521,44.43077,0.52626,-0.01932025,0.85397
376.121,44.48679,0.52734,-0.0193075,0.85346
376.721,44.5428,0.52916,-0.01963828,0.85296
377.321,44.59885,0.52774,-0.02095246,0.85245
377.921,44.65518,0.52994,-0.02226641,0.85194
378.521,44.71136,0.52952,-0.02226214,0.85143
379.121,44.76762,0.52445,-0.01463081,0.85092
379.721,44.82362,0.53072,-0.02402147,0.85041
380.321,44.87975,0.53156,-0.02363534,0.8499
380.921,44.93598,0.53463,-0.02135001,0.84939
381.521,44.99219,0.53496,-0.02129844,0.84888
382.121,45.04855,0.53389,-0.02091826,0.84837
382.721,45.10472,0.53363,-0.02140134,0.84786
383.321,45.16072,0.53021,-0.01921994,0.84735
383.921,45.21672,0.53405,-0.02264991,0.84684
384.521,45.2729,0.53503,-0.02735538,0.84633
385.121,45.32907,0.53665,-0.02386,0.84582
385.721,45.3857,0.53552,-0.02335724,0.8453
386.321,45.44198,0.53514,-0.02334008,0.84479
386.921,45.4983,0.53518,-0.02471864,0.84428
387.521,45.55461,0.53542,-0.023361,0.84377
388.121,45.61091,0.53692,-0.02336843,0.84326
388.721,45.66722,0.53704,-0.02203961,0.84275
389.321,45.72345,0.53666,-0.02336699,0.84224
389.921,45.7797,0.53651,-0.02336023,0.84173
390.521,45.83593,0.53594,-0.02400466,0.84121
391.121,45.8923,0.53672,-0.02401999,0.8407
391.721,45.94873,0.53862,-0.02402006,0.84019
392.321,46.0051,0.53958,-0.02435867,0.83968
392.921,46.06151,0.53728,-0.02467996,0.83917
393.521,46.11788,0.53843,-0.02462173,0.83865
394.121,46.17412,0.53721,-0.02533047,0.83814
394.721,46.23046,0.53685,-0.02498094,0.83763
395.321,46.2868,0.53858,-0.02467041,0.83712
395.921,46.34325,0.53859,-0.02535501,0.83661
396.521,46.39974,0.53957,-0.02629741,0.83609
397.121,46.4563,0.53887,-0.0266501,0.83558
397.721,46.5129,0.54315,-0.02677704,0.83507
398.321,46.56933,0.54104,-0.02796988,0.83456
398.921,46.62591,0.54195,-0.02805623,0.83404
399.521,46.68226,0.53912,-0.02604623,0.83353
400.121,46.73867,0.54443,-0.02407343,0.83302
400.721,46.7952,0.5446,-0.03311941,0.8325
401.321,46.8517,0.54616,-0.02975499,0.83199
401.921,46.9082,0.54586,-0.02844804,0.83148
402.521,46.9645,0.54467,-0.02669056,0.83097
403.121,47.02098,0.54685,-0.02577984,0.83045
403.721,47.07758,0.54962,-0.02863066,0.82994
404.321,47.13428,0.54996,-0.02975332,0.82943
404.921,47.19089,0.54879,-0.03114906,0.82891
405.521,47.24746,0.54962,-0.02830659,0.8284
406.121,47.30397,0.54974,-0.02847398,0.82789
406.721,47.3606,0.54445,-0.03048898,0.82737
407.321,47.4172,0.55003,-0.03084615,0.82686
407.921,47.47392,0.55108,-0.03212496,0.82635
408.521,47.53045,0.55309,-0.03344904,0.82583
409.121,47.5871,0.55141,-0.03477395,0.82532
409.721,47.64387,0.55259,-0.03477,0.82481
410.321,47.7005,0.5535,-0.03477009,0.82429
410.921,47.75717,0.5528,-0.03595424,0.82378
411.521,47.81378,0.55466,-0.03607852,0.82327
412.121,47.8703,0.55393,-0.03476695,0.82275
412.721,47.92691,0.55736,-0.03509972,0.82224
413.321,47.98361,0.55893,-0.03650766,0.82173
413.921,48.04016,0.55804,-0.03773066,0.82121
414.521,48.09682,0.55857,-0.03890485,0.8207
415.121,48.15337,0.55979,-0.03901515,0.82019
415.721,48.20986,0.56126,-0.04036023,0.81967
416.321,48.26638,0.56088,-0.04168454,0.81916
416.921,48.32308,0.56366,-0.04286305,0.81865
417.521,48.37986,0.56785,-0.04298945,0.81813
418.121,48.43677,0.56658,-0.04430879,0.81762
418.721,48.4936,0.56451,-0.04431,0.81711
419.321,48.55018,0.56521,-0.04431003,0.81659
419.921,48.6068,0.56524,-0.04574566,0.81608
420.521,48.66332,0.56459,-0.04716134,0.81557
421.121,48.7201,0.5642,-0.04716001,0.81505
421.721,48.77695,0.56576,-0.04856522,0.81454
422.321,48.8337,0.56301,-0.04989916,0.81403
422.921,48.89053,0.5651,-0.05088986,0.81351
423.521,48.94737,0.56354,-0.05221195,0.813
424.121,49.00423,0.56527,-0.05220384,0.81249
424.721,49.06118,0.56591,-0.05353277,0.81198
425.321,49.11808,0.56768,-0.05612904,0.81146
425.921,49.17484,0.57008,-0.05690322,0.81095
426.521,49.23167,0.56775,-0.05794742,0.81044
427.121,49.28844,0.56917,-0.05792781,0.80992
427.721,49.34537,0.5705,-0.05923048,0.80941
428.321,49.40242,0.5718,-0.05925396,0.8089
428.921,49.4593,0.56938,-0.06299565,0.80839
429.521,49.51621,0.57326,-0.06484202,0.80787
430.121,49.57294,0.57485,-0.06588368,0.80736
430.721,49.62975,0.57484,-0.06800825,0.80685
431.321,49.68656,0.57444,-0.07005985,0.80634
431.921,49.74342,0.56857,-0.07219656,0.80582
432.521,49.8005,0.56414,-0.0745861,0.80531
433.121,49.8575,0.56075,-0.07682848,0.8048
433.721,49.9146,0.55639,-0.07884067,0.80429
434.321,49.97146,0.55152,-0.08017879,0.80377
434.921,50.02843,0.5483,-0.08147724,0.80326
435.521,50.08548,0.54514,-0.08312433,0.80275
436.121,50.14268,0.5425,-0.08491726,0.80224
436.721,50.19986,0.5404,-0.0886056,0.80173
437.321,50.25698,0.53829,-0.09150156,0.80121
437.921,50.314,0.53607,-0.09268733,0.8007
438.521,50.3707,0.53634,-0.09434918,0.80019
439.121,50.42792,0.53222,-0.09732732,0.79968
439.721,50.48529,0.53012,-0.10167,0.79917
440.321,50.54249,0.52945,-0.10527,0.79866
440.921,50.60007,0.52725,-0.10849,0.79815
441.521,50.657,0.52798,-0.1112,0.79764
442.121,50.7141,0.52522,-0.11319,0.79712
442.721,50.7712,0.52252,-0.11751,0.79661
443.321,50.82846,0.52203,-0.12169,0.7961
443.921,50.88572,0.52219,-0.12514,0.79559
444.521,50.94313,0.51802,-0.12981,0.79508
445.121,51.0004,0.52038,-0.13461,0.79457
445.721,51.05772,0.51969,-0.13756,0.79406
446.321,51.11507,0.52346,-0.14212,0.79355
446.921,51.17238,0.52526,-0.14737,0.79304
447.521,51.22979,0.52677,-0.14959,0.79253
448.121,51.2872,0.52893,-0.15614,0.79202
448.721,51.34445,0.53289,-0.16404,0.79151
449.321,51.40169,0.53792,-0.16822,0.791
449.921,51.4589,0.54184,-0.17458,0.79049
450.521,51.51625,0.54839,-0.17842,0.78998
451.121,51.57367,0.55156,-0.18562,0.78947
451.721,51.63114,0.55934,-0.19307,0.78896
452.321,51.68866,0.56544,-0.19939,0.78846
452.921,51.74628,0.57613,-0.20636,0.78795
453.521,51.80385,0.58478,-0.21491,0.78744
454.121,51.8615,0.59432,-0.22297,0.78693
454.721,51.91899,0.6076,-0.2327,0.78642
455.321,51.9764,0.61926,-0.2409,0.78591
455.921,52.034,0.63229,-0.25054,0.7854
456.521,52.09147,0.64534,-0.2583,0.7849
457.121,52.14898,0.66335,-0.26904,0.78439
457.721,52.2065,0.67819,-0.279,0.78388
458.321,52.26397,0.69547,-0.28903,0.78337
458.921,52.3214,0.71233,-0.30146,0.78287
459.521,52.37879,0.73641,-0.31526,0.78236
460.121,52.43637,0.75504,-0.32701,0.78185
460.721,52.49395,0.77805,-0.33922,0.78135
461.321,52.5517,0.80082,-0.35379,0.78084
461.921,52.60944,0.82535,-0.36878,0.78033
462.521,52.66715,0.85342,-0.38443,0.77983
463.121,52.7249,0.88358,-0.39994,0.77932
463.721,52.78252,0.91197,-0.42118,0.77881
464.321,52.8399,0.94199,-0.43806,0.77831
464.921,52.89721,0.97255,-0.45727,0.7778
465.521,52.95445,1.00821,-0.47768,0.7773
466.121,53.0121,1.04202,-0.49987,0.77679
466.721,53.06986,1.07761,-0.5226,0.77629
467.321,53.1279,1.11696,-0.54854,0.77578
467.921,53.18574,1.16229,-0.57199,0.77528
468.521,53.2432,1.20163,-0.6007,0.77477
469.121,53.30067,1.25506,-0.65565,0.77427
469.721,53.3583,1.30106,-0.69063,0.77376
470.321,53.41596,1.34635,-0.69248,0.77326
470.921,53.47384,1.39244,-0.7242,0.77275
471.521,53.5319,1.43747,-0.75901,0.77225
472.121,53.5898,1.4849,-0.79423,0.77175
472.721,53.64773,1.52872,-0.8323,0.77124
473.321,53.7058,1.56891,-0.87412,0.77074
473.921,53.7637,1.60986,-0.91268,0.77024
474.521,53.8216,1.64944,-0.95153,0.76973
475.121,53.87924,1.68814,-1.00739,0.76923
475.721,53.93713,1.72141,-1.0571,0.76873
476.321,53.99507,1.75265,-1.1075,0.76823
476.921,54.0532,1.782,-1.16267,0.76773
477.521,54.11108,1.8104,-1.21787,0.76722
478.121,54.16865,1.83558,-1.27771,0.76672
478.721,54.22628,1.86475,-1.33892,0.76622
479.321,54.28408,1.88675,-1.39456,0.76572
479.921,54.3419,1.90955,-1.46112,0.76522
480.521,54.3997,1.92951,-1.52497,0.76472
481.121,54.45731,1.94516,-1.59726,0.76422
481.721,54.51486,1.96816,-1.66818,0.76372
482.321,54.5725,1.98665,-1.74748,0.76322
482.921,54.6302,2.00163,-1.82563,0.76272
483.521,54.688,2.01423,-1.90279,0.76222
484.121,54.7456,2.02057,-1.98458,0.76172
484.721,54.80333,2.0267,-2.06638,0.76122
485.321,54.86096,2.02406,-2.1528,0.76072
485.921,54.91865,2.01842,-2.23417,0.76022
486.521,54.9765,2.00586,-2.32185,0.75973
487.121,55.03422,1.98986,-2.3991,0.75923
487.721,55.0919,1.96488,-2.48983,0.75873
488.321,55.14963,1.9381,-2.58362,0.75823
488.921,55.20762,1.90431,-2.6701,0.75774
489.521,55.2656,1.85807,-2.75469,0.75724
490.121,55.3236,1.80793,-2.83325,0.75674
490.721,55.38146,1.75545,-2.93952,0.75624
491.321,55.43915,1.69507,-3.03032,0.75575
491.921,55.497,1.62795,-3.12056,0.75525
492.521,55.55522,1.55361,-3.20161,0.75476
493.121,55.6134,1.46954,-3.2819,0.75426
493.721,55.6717,1.38645,-3.35695,0.75377
494.321,55.73013,1.30098,-3.42964,0.75327
494.921,55.7886,1.20753,-3.49763,0.75278
495.521,55.8473,1.11921,-3.55899,0.75228
496.121,55.9058,1.02696,-3.6177,0.75179
496.721,55.96435,0.9419,-3.66993,0.75129
497.321,56.0229,0.86063,-3.7212,0.7508
497.921,56.0815,0.78413,-3.76537,0.75031
498.521,56.14009,0.71012,-3.8076,0.74981
499.121,56.19865,0.64134,-3.84212,0.74932
499.721,56.25715,0.57972,-3.86938,0.74883
500.321,56.3157,0.51933,-3.89437,0.74833
500.921,56.3743,0.46715,-3.9142,0.74784
501.521,56.43297,0.41262,-3.92947,0.74735
502.121,56.4918,0.36922,-3.94604,0.74686
502.721,56.5504,0.32462,-3.95821,0.74637
503.321,56.6089,0.28396,-3.96768,0.74588
503.921,56.66734,0.24444,-3.97777,0.74539
504.521,56.7258,0.20821,-3.98453,0.74489
505.121,56.78434,0.17378,-3.98787,0.7444
505.721,56.84276,0.14215,-3.98669,0.74391
506.321,56.90133,0.11183,-3.98654,0.74342
506.921,56.9599,0.08623652,-3.98971,0.74294
507.521,57.0184,0.07082414,-3.99484,0.74245
508.121,57.07674,0.05326322,-3.99494,0.74196
508.721,57.13505,0.03749541,-3.99631,0.74147
509.321,57.19331,0.02739184,-3.99765,0.74098
509.921,57.2517,0.01456567,-3.99893,0.74049
510.521,57.31,0.01043865,-3.99893,0.74001
511.121,57.3683,0.00540412,-4.0012,0.73952
511.721,57.42654,-0.000420466,-4.00259,0.73903
512.321,57.4846,-0.005393109,-4.00113,0.73855
512.921,57.5426,-0.01434912,-4.00025,0.73806
513.521,57.6008,-0.02445924,-3.99953,0.73757
514.121,57.6589,-0.02598024,-3.99893,0.73709
514.721,57.71725,-0.02391271,-3.99893,0.7366
515.321,57.77542,-0.01700229,-3.99893,0.73612
515.921,57.8338,-0.01357098,-3.99893,0.73563
516.521,57.89213,-0.01262166,-3.99778,0.73515
517.121,57.9504,-0.0122945,-3.99729,0.73466
517.721,58.00871,-0.01040266,-3.99729,0.73418
518.321,58.067,-0.01004919,-3.99866,0.7337
518.921,58.12531,-0.007964272,-3.9986,0.73321
519.521,58.1838,-0.009474745,-3.9986,0.73273
520.121,58.2423,-0.008961134,-3.99828,0.73225
520.721,58.30085,-0.01218087,-3.99762,0.73176
521.321,58.3595,-0.01036773,-3.99762,0.73128
521.921,58.4181,-0.007158923,-3.99868,0.7308
522.521,58.4767,-0.005600329,-3.99828,0.73032
523.121,58.53525,-0.00492521,-3.99828,0.72984
523.721,58.59391,-0.00389168,-3.9986,0.72936
524.321,58.6524,-0.0057606,-3.99827,0.72888
524.921,58.711,-0.003018983,-3.99869,0.7284
525.521,58.7695,-0.00621552,-4.00201,0.72792
526.121,58.828,-0.00652184,-4.00433,0.72744
526.721,58.8865,-0.003992422,-4.00341,0.72696
527.321,58.9452,-0.008795254,-3.99974,0.72648
527.921,59.0041,-0.008565091,-3.99871,0.726
528.521,59.0628,-0.00717988,-4.00179,0.72553
529.121,59.12157,-0.004216017,-4.00169,0.72505
529.721,59.18054,-0.005153416,-4.00129,0.72457
530.321,59.23946,-0.00631213,-3.99888,0.72409
530.921,59.2984,-0.00793152,-3.99707,0.72362
531.521,59.35702,-0.0077459,-3.99707,0.72314
532.121,59.41575,-0.00816173,-3.99706,0.72266
532.721,59.47447,-0.004787523,-3.99575,0.72219
533.321,59.53298,-0.005864745,-3.99576,0.72171
533.921,59.59179,-0.007122392,-3.996,0.72124
534.521,59.65056,-0.007329218,-3.99718,0.72076
535.121,59.7095,-0.006587244,-3.99751,0.72029
535.721,59.7683,-0.007878868,-3.99871,0.71982
536.321,59.82708,-0.006665538,-3.99883,0.71934
536.921,59.8858,-0.005722544,-3.99883,0.71887
537.521,59.9446,-0.005215385,-3.99883,0.7184
538.121,60.00316,-0.00673823,-3.99883,0.71793
538.721,60.0618,-0.004575189,-4.00046,0.71745
539.321,60.12086,-0.005017533,-4.00168,0.71698
539.921,60.1798,-0.00339203,-4.00026,0.71651
540.521,60.23891,-0.003804359,-3.99894,0.71604
541.121,60.2979,-0.001684674,-3.99894,0.71557
541.721,60.3567,-0.00296278,-3.99894,0.7151
542.321,60.41556,-0.002863464,-3.99894,0.71463
542.921,60.4745,-0.00345591,-3.99894,0.71416
543.521,60.53346,-0.00814768,-3.99894,0.71369
544.121,60.5923,-0.006056993,-3.99794,0.71322
544.721,60.65125,-0.0101219,-3.99891,0.71275
545.321,60.7102,-0.01138085,-3.99893,0.71229
545.921,60.7691,-0.009279777,-3.99893,0.71182
546.521,60.82806,-0.006112015,-3.99893,0.71135
547.121,60.8869,-0.007064676,-4.00024,0.71088
547.721,60.9459,-0.0078926,-3.99893,0.71042
548.321,61.00499,-0.00925628,-3.99761,0.70995
548.921,61.064,-0.00910968,-3.99631,0.70949
549.521,61.1231,-0.009183555,-3.99765,0.70902
550.121,61.18212,-0.01062726,-3.99884,0.70856
550.721,61.24111,-0.009527224,-3.99761,0.70809
551.321,61.30011,-0.01037919,-3.99631,0.70763
551.921,61.3592,-0.009366898,-3.99631,0.70716
552.521,61.418,-0.01080004,-3.99766,0.7067
553.121,61.477,-0.009759464,-3.99777,0.70624
553.721,61.53592,-0.01335332,-3.99762,0.70577
554.321,61.59502,-0.01531266,-3.99756,0.70531
554.921,61.654,-0.01518968,-3.99861,0.70485
555.521,61.71304,-0.01295263,-3.99861,0.70439
556.121,61.77202,-0.01528842,-3.99809,0.70393
556.721,61.831,-0.01672492,-3.9973,0.70347
557.321,61.88992,-0.01767426,-3.9973,0.70301
557.921,61.949,-0.02127458,-3.9973,0.70255
558.521,62.00798,-0.02163662,-3.9973,0.70209
559.121,62.0671,-0.01956364,-3.9973,0.70163
559.721,62.12627,-0.00226836,-3.99765,0.70117
560.321,62.1852,-0.00153356,-3.9986,0.70071
560.921,62.24422,-0.004886044,-3.99829,0.70025
561.521,62.3033,-0.008115231,-3.9996,0.6998
562.121,62.36243,-0.01143035,-3.9996,0.69934
562.721,62.4214,-0.0111478,-3.9983,0.69888
563.321,62.48052,-0.01265913,-3.99828,0.69843
563.921,62.53943,-0.01054404,-3.99828,0.69797
564.521,62.59856,-0.009471388,-3.9995,0.69752
565.121,62.65735,-0.009866557,-3.99831,0.69706
565.721,62.7167,-0.01224468,-3.99817,0.69661
566.321,62.77587,-0.01034118,-3.9987,0.69615
566.921,62.83534,-0.009815063,-3.99855,0.6957
567.521,62.89465,-0.009638159,-3.99718,0.69525
568.121,62.95397,-0.007117636,-3.9971,0.69479
568.721,63.0134,-0.0105394,-3.9985,0.69434
569.321,63.0728,-0.008487151,-3.9985,0.69389
569.921,63.13221,-0.006103004,-3.997,0.69344
570.521,63.19155,-0.00620808,-3.99621,0.69299
571.121,63.2508,-0.00538235,-3.99718,0.69253
571.721,63.3101,-0.004091626,-3.99718,0.69208
572.321,63.3693,-0.005796298,-3.99819,0.69163
572.921,63.4284,-0.00679746,-3.99685,0.69118
573.521,63.4877,-0.005228897,-3.99685,0.69074
574.121,63.547,-0.007267789,-3.99661,0.69029
574.721,63.60621,-0.006219936,-3.99652,0.68984
575.321,63.66555,-0.005353829,-3.99649,0.68939
575.921,63.7248,-0.00644042,-3.99685,0.68894
576.521,63.7842,-0.004451457,-3.99685,0.6885
577.121,63.8436,-0.00306395,-3.99685,0.68805
577.721,63.903,-0.002496532,-3.99685,0.6876
578.321,63.96249,-0.00229888,-3.99696,0.68716
578.921,64.02206,-0.002398095,-3.99817,0.68671
579.521,64.08155,-0.002229498,-3.99551,0.68627
580.121,64.14092,-0.002189776,-3.99422,0.68582
580.721,64.20026,-4.63584e-05,-3.99553,0.68538
581.321,64.25972,-0.00169891,-3.99695,0.68494
581.921,64.31923,0.00106529,-3.99829,0.68449
582.521,64.37857,0.00294062,-3.99696,0.68405
583.121,64.438,0.001053365,-3.9988,0.68361
583.721,64.49739,-0.002652887,-3.99914,0.68317
584.321,64.55681,-0.001463411,-3.99682,0.68272
584.921,64.61628,-0.0009191595,-3.99989,0.68228
585.521,64.6759,0.0007110794,-3.99983,0.68184
586.121,64.73555,-0.003114216,-3.99856,0.6814
586.721,64.79508,-0.003374933,-3.99525,0.68096
587.321,64.85471,-0.00327411,-3.99533,0.68052
587.921,64.91425,-0.00167078,-3.99665,0.68009
588.521,64.9739,0.000181757,-3.99597,0.67965
589.121,65.03352,-0.00341929,-3.99598,0.67921
589.721,65.0929,-0.00323768,-3.99598,0.67877
590.321,65.15212,-0.002098964,-3.99595,0.67834
590.921,65.21164,0.001062748,-3.99765,0.6779
591.521,65.27101,-0.00136823,-3.99817,0.67746
592.121,65.33055,-0.000706827,-3.99817,0.67703
592.721,65.3902,0.001136244,-3.99817,0.67659
593.321,65.44999,-0.002230883,-3.9951,0.67616
593.921,65.50973,-0.003642428,-3.99259,0.67572
594.521,65.5692,-0.00150525,-3.99224,0.67529
595.121,65.62886,-0.0001108495,-3.99506,0.67486
595.721,65.6884,0.0009806499,-3.9951,0.67442
596.321,65.74803,0.0001811726,-3.99511,0.67399
596.921,65.80736,-0.001075937,-3.99378,0.67356
597.521,65.8668,0.0007306394,-3.99582,0.67313
598.121,65.92631,0.002970796,-3.99752,0.6727
598.721,65.98586,0.004162837,-3.99915,0.67227
599.321,66.04549,0.004889656,-3.99819,0.67184
599.921,66.10502,0.003343011,-3.99692,0.67141
600.521,66.1648,0.0058576,-3.99715,0.67098
601.121,66.2244,0.004497218,-3.99674,0.67055
601.721,66.28379,0.004516994,-3.99691,0.67012
602.321,66.3433,0.003157972,-3.99778,0.66969
602.921,66.40275,0.00422087,-3.99702,0.66926
603.521,66.46243,0.003989375,-3.99924,0.66884
604.121,66.5218,0.003355548,-3.99965,0.66841
604.721,66.58129,0.006572351,-3.99783,0.66798
605.321,66.64073,0.002594703,-3.99652,0.66756
605.921,66.70025,0.0008255327,-3.99652,0.66713
606.521,66.75968,7.489677e-05,-3.99751,0.66671
607.121,66.81939,0.00314979,-3.99886,0.66629
607.721,66.8793,0.001032532,-3.99751,0.66586
608.321,66.93896,0.0007828217,-3.99878,0.66544
608.921,66.9988,0.00048451,-3.99621,0.66502
609.521,67.05851,-0.00192756,-3.99674,0.66459
610.121,67.1182,0.001051756,-3.99753,0.66417
610.721,67.17795,0.0004309025,-3.99849,0.66375
611.321,67.2377,0.002477885,-3.99848,0.66333
611.921,67.2974,0.00116252,-3.99751,0.66291
612.521,67.35709,0.0007244294,-3.99745,0.66249
613.121,67.41682,0.004418397,-3.9985,0.66207
613.721,67.47675,0.001875763,-3.99745,0.66165
614.321,67.53645,0.00550496,-3.99718,0.66123
614.921,67.5962,0.00354002,-3.99723,0.66081
615.521,67.65602,0.00469297,-3.99586,0.6604
616.121,67.71571,0.0049289,-3.99586,0.65998
616.721,67.77548,0.001003345,-3.99586,0.65956
617.321,67.83535,-0.002084621,-3.99586,0.65915
617.921,67.89489,-0.00329735,-3.99456,0.65873
618.521,67.9547,-0.003121655,-3.99455,0.65831
619.121,68.01436,-0.004084503,-3.99494,0.6579
619.721,68.07417,-0.00489032,-3.99728,0.65749
620.321,68.1339,-0.00768455,-3.99684,0.65707
620.921,68.19365,-0.006733805,-3.99621,0.65666
621.521,68.25322,-0.00526001,-3.99722,0.65625
622.121,68.3129,-0.002162126,-3.99719,0.65583
622.721,68.37263,-0.00183289,-3.99719,0.65542
623.321,68.43239,-0.002939764,-3.997,0.65501
623.921,68.49231,0.00279874,-3.99584,0.6546
624.521,68.55203,0.00470996,-3.99653,0.65419
625.121,68.61184,0.006144067,-3.99654,0.65378
625.721,68.67156,0.006011873,-3.99786,0.65337
626.321,68.73129,0.007126854,-3.99784,0.65296
626.921,68.79114,0.004178369,-3.99784,0.65255
627.521,68.851,0.005038798,-3.99785,0.65214
628.121,68.91114,0.005888177,-3.99653,0.65174
628.721,68.97114,0.0078593,-3.99653,0.65133
629.321,69.0311,0.005105059,-3.99521,0.65092
629.921,69.0909,0.00629321,-3.99491,0.65052
630.521,69.15011,0.006676345,-3.99619,0.65011
631.121,69.20984,0.004942823,-3.99554,0.64971
631.721,69.2698,0.004589378,-3.99422,0.6493
632.321,69.3301,0.00726658,-3.99389,0.6489
632.921,69.39036,0.004976122,-3.99591,0.64849
633.521,69.45018,0.006141277,-3.99928,0.64809
634.121,69.5101,0.004953662,-3.99806,0.64769
634.721,69.5698,0.004642861,-3.99773,0.64729
635.321,69.62976,0.002674362,-3.99641,0.64688
635.921,69.6897,0.00463562,-3.99672,0.64648
636.521,69.74983,0.0003004317,-3.99641,0.64608
637.121,69.8099,-0.0005739909,-3.9962,0.64568
637.721,69.87009,0.00145496,-3.99488,0.64528
638.321,69.93034,0.002673505,-3.99488,0.64488
638.921,69.99064,-0.000277612,-3.99488,0.64448