File: 01_Data/HDPE/STA/N2/10K_min/HDPE_STA_N2_10KData_2199_R1.csv
##Temp./Â°C,Time/min,DSC(subtr.2)/(mW/mg),Mass loss(subtr.2)/mg,Sensit./(uV/mW)
49.608,10.00917,0.02214633,-0.04004,1.03585
50.208,11.44847,0.05365921,-0.03843271,1.03582
50.808,11.82218,0.07622349,-0.04309695,1.03579
51.408,12.0878,0.09261981,-0.04776379,1.03576
52.008,12.30697,0.1087,-0.04592773,1.03573
52.608,12.4999,0.12262,-0.04585051,1.0357
53.208,12.67267,0.13234,-0.04617334,1.03566
53.808,12.83225,0.14438,-0.04556421,1.03562
54.408,12.9818,0.1533,-0.04477217,1.03558
55.008,13.12333,0.16302,-0.04614177,1.03554
55.608,13.2587,0.16918,-0.04871845,1.0355
56.208,13.38902,0.17793,-0.04760939,1.03546
56.808,13.5146,0.18396,-0.04902577,1.03541
57.408,13.63655,0.19091,-0.04916063,1.03536
58.008,13.7545,0.19443,-0.04959591,1.03531
58.608,13.869,0.20208,-0.0488189,1.03526
59.208,13.98105,0.20879,-0.04891747,1.03521
59.808,14.08991,0.21129,-0.05045893,1.03516
60.408,14.1959,0.21774,-0.04915482,1.03511
61.008,14.2998,0.22104,-0.04903188,1.03505
61.608,14.4011,0.22481,-0.05292618,1.03499
62.208,14.5008,0.23107,-0.04897845,1.03493
62.808,14.60015,0.23181,-0.05080869,1.03487
63.408,14.69692,0.23615,-0.05082737,1.03481
64.008,14.7918,0.23917,-0.05055815,1.03474
64.608,14.88505,0.24469,-0.05164453,1.03468
65.208,14.9767,0.24943,-0.05177443,1.03461
65.808,15.0673,0.2521,-0.05318605,1.03454
66.408,15.15722,0.25523,-0.05160284,1.03447
67.008,15.2459,0.26063,-0.05201158,1.0344
67.608,15.3324,0.26205,-0.05326791,1.03433
68.208,15.4178,0.26424,-0.05330602,1.03425
68.808,15.50344,0.26704,-0.05295094,1.03418
69.408,15.5874,0.27086,-0.05193856,1.0341
70.008,15.67136,0.27351,-0.05193732,1.03402
70.608,15.75385,0.27568,-0.05425009,1.03394
71.208,15.8353,0.28026,-0.0534181,1.03386
71.808,15.9156,0.28129,-0.0542845,1.03378
72.408,15.9957,0.28506,-0.0531709,1.03369
73.008,16.07496,0.28805,-0.05356126,1.0336
73.608,16.1533,0.29064,-0.05356884,1.03352
74.208,16.2305,0.29458,-0.05419738,1.03343
74.808,16.3076,0.29952,-0.05413937,1.03334
75.408,16.3846,0.30159,-0.05365119,1.03324
76.008,16.46109,0.30493,-0.05384535,1.03315
76.608,16.53664,0.30499,-0.05514167,1.03305
77.208,16.61157,0.31076,-0.05408023,1.03296
77.808,16.686,0.31293,-0.05409538,1.03286
78.408,16.75984,0.31457,-0.05467197,1.03276
79.008,16.8334,0.31775,-0.05466588,1.03266
79.608,16.90638,0.32094,-0.05531389,1.03255
80.208,16.97865,0.32526,-0.05518407,1.03245
80.808,17.05037,0.32793,-0.05518101,1.03234
81.408,17.1217,0.33039,-0.05516728,1.03224
82.008,17.19292,0.33078,-0.05649211,1.03213
82.608,17.26365,0.33519,-0.05650555,1.03202
83.208,17.33409,0.33741,-0.05520686,1.03191
83.808,17.40379,0.34096,-0.05637136,1.03179
84.408,17.47327,0.34405,-0.05496169,1.03168
85.008,17.54255,0.34731,-0.05563027,1.03156
85.608,17.61141,0.34707,-0.05487584,1.03144
86.208,17.67977,0.35241,-0.05640711,1.03132
86.808,17.74756,0.35491,-0.05563859,1.0312
87.408,17.81503,0.35678,-0.05644544,1.03108
88.008,17.88235,0.35824,-0.05652144,1.03096
88.608,17.9494,0.36033,-0.056397,1.03083
89.208,18.0162,0.36425,-0.05877398,1.03071
89.808,18.08258,0.36698,-0.05770794,1.03058
90.408,18.14865,0.36966,-0.05771079,1.03045
91.008,18.2145,0.3723,-0.05741811,1.03032
91.608,18.27993,0.37307,-0.05768728,1.03019
92.208,18.34531,0.37706,-0.0576274,1.03006
92.808,18.41052,0.37912,-0.05824668,1.02992
93.408,18.4752,0.38302,-0.05763419,1.02978
94.008,18.5396,0.3845,-0.05767692,1.02965
94.608,18.60369,0.38715,-0.05773535,1.02951
95.208,18.66769,0.38987,-0.05868967,1.02937
95.808,18.7314,0.3933,-0.05766279,1.02923
96.408,18.79485,0.39654,-0.057693,1.02908
97.008,18.85795,0.40082,-0.05896717,1.02894
97.608,18.9212,0.40109,-0.05771621,1.02879
98.208,18.98405,0.40375,-0.05902981,1.02864
98.808,19.04673,0.40873,-0.05773033,1.02849
99.408,19.10954,0.41085,-0.0590296,1.02834
100.008,19.17207,0.41253,-0.05901004,1.02819
100.608,19.23433,0.41571,-0.05903445,1.02804
101.208,19.29628,0.4196,-0.05896344,1.02788
101.808,19.3578,0.42158,-0.05895901,1.02773
102.408,19.41948,0.42456,-0.0603302,1.02757
103.008,19.48132,0.42655,-0.05903158,1.02741
103.608,19.543,0.43053,-0.05752639,1.02725
104.208,19.60438,0.43179,-0.05902188,1.02709
104.808,19.66538,0.43655,-0.05920745,1.02693
105.408,19.72606,0.44083,-0.05902045,1.02676
106.008,19.78699,0.4438,-0.05860165,1.0266
106.608,19.8478,0.44787,-0.05866825,1.02643
107.208,19.90858,0.45318,-0.0590034,1.02626
107.808,19.96953,0.45663,-0.06135938,1.02609
108.408,20.0305,0.45739,-0.06026949,1.02592
109.008,20.09103,0.46243,-0.06087204,1.02575
109.608,20.15138,0.46875,-0.06159454,1.02558
110.208,20.21172,0.47102,-0.06159968,1.0254
110.808,20.27168,0.47786,-0.06033806,1.02523
111.408,20.33175,0.48199,-0.0614294,1.02505
112.008,20.39149,0.48616,-0.06021652,1.02487
112.608,20.45138,0.49161,-0.06153832,1.02469
113.208,20.51127,0.49688,-0.0623983,1.02451
113.808,20.57086,0.50439,-0.06187877,1.02432
114.408,20.63038,0.50973,-0.06286912,1.02414
115.008,20.68993,0.517,-0.06154039,1.02395
115.608,20.74921,0.5237,-0.06153983,1.02376
116.208,20.80852,0.53029,-0.06151836,1.02358
116.808,20.8677,0.53861,-0.06153872,1.02339
117.408,20.92671,0.54568,-0.06167559,1.0232
118.008,20.98575,0.5573,-0.06147051,1.023
118.608,21.04465,0.5686,-0.06248782,1.02281
119.208,21.10322,0.57919,-0.06144428,1.02261
119.808,21.16168,0.59019,-0.06211721,1.02242
120.408,21.22012,0.6022,-0.06286802,1.02222
121.008,21.27872,0.61669,-0.062192,1.02202
121.608,21.33727,0.63323,-0.0628601,1.02182
122.208,21.39583,0.652,-0.06215274,1.02162
122.808,21.45433,0.67205,-0.0613844,1.02141
123.408,21.51248,0.69658,-0.06165925,1.02121
124.008,21.57084,0.72344,-0.06285867,1.021
124.608,21.62901,0.75413,-0.06286,1.0208
125.208,21.6872,0.78959,-0.0628538,1.02059
125.808,21.7453,0.82945,-0.06285429,1.02038
126.408,21.80324,0.87464,-0.06350208,1.02017
127.008,21.861,0.93186,-0.06424237,1.01996
127.608,21.91882,0.9908,-0.06549065,1.01974
128.208,21.9767,1.06334,-0.06293303,1.01953
128.808,22.03465,1.1501,-0.06274012,1.01931
129.408,22.09241,1.24801,-0.06273968,1.0191
130.008,22.15023,1.36084,-0.06404659,1.01888
130.608,22.20801,1.48642,-0.0640525,1.01866
131.208,22.26582,1.62727,-0.06274688,1.01844
131.808,22.3238,1.77777,-0.06380489,1.01821
132.408,22.38189,1.93862,-0.06415107,1.01799
133.008,22.43979,2.10134,-0.06406,1.01777
133.608,22.49801,2.25877,-0.06411307,1.01754
134.208,22.556,2.4052,-0.06275447,1.01731
134.808,22.61378,2.54927,-0.06375267,1.01708
135.408,22.67199,2.68256,-0.06384958,1.01685
136.008,22.73,2.79709,-0.06160587,1.01662
136.608,22.78855,2.89906,-0.06165068,1.01639
137.208,22.84635,2.97568,-0.06262336,1.01616
137.808,22.904,3.03175,-0.06387887,1.01592
138.408,22.96134,3.05548,-0.06395309,1.01569
139.008,23.0185,3.02458,-0.06264405,1.01545
139.608,23.07566,2.95274,-0.06396276,1.01521
140.208,23.13242,2.84531,-0.06421158,1.01497
140.808,23.18892,2.70359,-0.06394784,1.01473
141.408,23.24479,2.52719,-0.06296222,1.01449
142.008,23.30023,2.2812,-0.06427903,1.01424
142.608,23.35531,1.97222,-0.06435806,1.014
143.208,23.41,1.65692,-0.06440638,1.01375
143.808,23.4645,1.38677,-0.06439054,1.0135
144.408,23.51866,1.16994,-0.06505022,1.01326
145.008,23.57273,1.00737,-0.06539018,1.01301
145.608,23.62656,0.87975,-0.06539005,1.01276
146.208,23.6804,0.78763,-0.06541038,1.0125
146.808,23.734,0.71792,-0.06435523,1.01225
147.408,23.78784,0.66504,-0.06339739,1.012
148.008,23.84178,0.62699,-0.06470853,1.01174
148.608,23.89584,0.59858,-0.06556489,1.01148
149.208,23.95,0.57591,-0.0667224,1.01123
149.808,24.00413,0.56019,-0.06637257,1.01097
150.408,24.05816,0.5488,-0.06603652,1.01071
151.008,24.11226,0.54176,-0.06739271,1.01045
151.608,24.16669,0.53225,-0.066691,1.01018
152.208,24.22092,0.52801,-0.06598825,1.00992
152.808,24.27544,0.52595,-0.06601042,1.00965
153.408,24.32974,0.52389,-0.06603561,1.00939
154.008,24.384,0.52177,-0.06604047,1.00912
154.608,24.43831,0.52295,-0.06512597,1.00885
155.208,24.49276,0.52125,-0.06476487,1.00858
155.808,24.5471,0.52058,-0.06735919,1.00831
156.408,24.60109,0.52136,-0.06605196,1.00804
157.008,24.65511,0.52191,-0.06702663,1.00776
157.608,24.7091,0.52094,-0.06570935,1.00749
158.208,24.7633,0.52354,-0.06570997,1.00722
158.808,24.81776,0.52145,-0.06570837,1.00694
159.408,24.87209,0.52322,-0.06601483,1.00666
160.008,24.9265,0.52268,-0.06604475,1.00638
160.608,24.98079,0.52324,-0.06604,1.0061
161.208,25.0351,0.52363,-0.06604001,1.00582
161.808,25.08945,0.52577,-0.06604099,1.00554
162.408,25.1438,0.52505,-0.06602114,1.00525
163.008,25.19801,0.52437,-0.06604001,1.00497
163.608,25.25225,0.52655,-0.06604005,1.00468
164.208,25.30648,0.52918,-0.06723368,1.0044
164.808,25.3607,0.52819,-0.06615938,1.00411
165.408,25.41473,0.53001,-0.06615183,1.00382
166.008,25.46892,0.53082,-0.06746898,1.00353
166.608,25.5231,0.533,-0.06746999,1.00324
167.208,25.57751,0.53191,-0.06746997,1.00295
167.808,25.63213,0.53146,-0.06739687,1.00265
168.408,25.68645,0.53328,-0.06755012,1.00236
169.008,25.7408,0.53391,-0.06664468,1.00206
169.608,25.7947,0.53536,-0.0675705,1.00176
170.208,25.84872,0.53563,-0.06756988,1.00147
170.808,25.90285,0.5379,-0.06886901,1.00117
171.408,25.95685,0.53826,-0.06757661,1.00087
172.008,26.01124,0.53886,-0.06758,1.00057
172.608,26.0645,0.53993,-0.06757974,1.00026
173.208,26.1186,0.54073,-0.06819166,0.99996
173.808,26.17239,0.54151,-0.06889025,0.99965
174.408,26.2264,0.5419,-0.06889022,0.99935
175.008,26.28107,0.54335,-0.06840954,0.99904
175.608,26.33515,0.54354,-0.06898943,0.99873
176.208,26.3895,0.54585,-0.0682577,0.99843
176.808,26.44363,0.5448,-0.06893522,0.99812
177.408,26.49775,0.54449,-0.06756901,0.9978
178.008,26.5518,0.54619,-0.06759011,0.99749
178.608,26.60577,0.54818,-0.06888873,0.99718
179.208,26.65982,0.55035,-0.06889001,0.99686
179.808,26.71367,0.55053,-0.06968728,0.99655
180.408,26.7675,0.55119,-0.06895546,0.99623
181.008,26.82125,0.54987,-0.06889083,0.99592
181.608,26.87507,0.55263,-0.07015962,0.9956
182.208,26.9289,0.55285,-0.07019919,0.99528
182.808,26.9826,0.55509,-0.07018916,0.99496
183.408,27.0362,0.55395,-0.07021002,0.99464
184.008,27.08922,0.55407,-0.07021,0.99431
184.608,27.1429,0.55482,-0.0701512,0.99399
185.208,27.19688,0.55646,-0.07021256,0.99367
185.808,27.2507,0.55554,-0.07021,0.99334
186.408,27.30517,0.55821,-0.07021,0.99301
187.008,27.35888,0.55848,-0.07020998,0.99269
187.608,27.41245,0.56153,-0.06996626,0.99236
188.208,27.46625,0.56296,-0.07020904,0.99203
188.808,27.5198,0.56086,-0.07020995,0.9917
189.408,27.57341,0.56226,-0.07162609,0.99136
190.008,27.62697,0.56349,-0.07152994,0.99103
190.608,27.6805,0.56278,-0.07152649,0.9907
191.208,27.7341,0.56361,-0.07022325,0.99036
191.808,27.78769,0.56291,-0.07020999,0.99003
192.408,27.8413,0.56649,-0.07019507,0.98969
193.008,27.895,0.56519,-0.07053944,0.98935
193.608,27.94845,0.56804,-0.07054063,0.98901
194.208,28.00175,0.56555,-0.0703725,0.98867
194.808,28.0553,0.56736,-0.07118229,0.98833
195.408,28.10877,0.56742,-0.07151963,0.98799
196.008,28.1622,0.57003,-0.07018875,0.98765
196.608,28.21585,0.56876,-0.07152494,0.98731
197.208,28.26928,0.57052,-0.07085081,0.98696
197.808,28.3228,0.57038,-0.07023054,0.98662
198.408,28.37627,0.57077,-0.07119442,0.98627
199.008,28.42966,0.57102,-0.07119001,0.98592
199.608,28.4831,0.57213,-0.07191556,0.98557
200.208,28.53652,0.57305,-0.07192873,0.98522
200.808,28.59,0.57224,-0.07251001,0.98487
201.408,28.6435,0.5735,-0.07250916,0.98452
202.008,28.69695,0.57707,-0.07128212,0.98417
202.608,28.75044,0.57688,-0.07119004,0.98382
203.208,28.804,0.57565,-0.07119,0.98346
203.808,28.8576,0.57663,-0.07119001,0.98311
204.408,28.911,0.57902,-0.07120821,0.98275
205.008,28.96443,0.57912,-0.06987669,0.98239
205.608,29.01793,0.57661,-0.06988001,0.98204
206.208,29.07142,0.57676,-0.06989158,0.98168
206.808,29.125,0.58008,-0.07119849,0.98132
207.408,29.1786,0.57964,-0.0712,0.98096
208.008,29.23204,0.58223,-0.0712,0.98059
208.608,29.28527,0.581,-0.0712,0.98023
209.208,29.33874,0.58255,-0.07120043,0.97987
209.808,29.3921,0.58373,-0.07252224,0.9795
210.408,29.4456,0.58404,-0.06988668,0.97914
211.008,29.49946,0.58559,-0.07131282,0.97877
211.608,29.55288,0.58482,-0.0726909,0.97841
212.208,29.6066,0.585,-0.07393888,0.97804
212.808,29.66005,0.58702,-0.0738823,0.97767
213.408,29.71353,0.5871,-0.0725754,0.9773
214.008,29.76711,0.58728,-0.07394455,0.97693
214.608,29.82054,0.58528,-0.07262874,0.97656
215.208,29.87425,0.58615,-0.07262655,0.97618
215.808,29.92795,0.58636,-0.07129851,0.97581
216.408,29.9815,0.58836,-0.0714818,0.97544
217.008,30.03515,0.58932,-0.07261989,0.97506
217.608,30.08863,0.5921,-0.07261983,0.97468
218.208,30.1421,0.58921,-0.07366374,0.97431
218.808,30.19571,0.58909,-0.07264567,0.97393
219.408,30.24932,0.59014,-0.07197005,0.97355
220.008,30.30279,0.5899,-0.0719701,0.97317
220.608,30.35635,0.59272,-0.07305639,0.97279
221.208,30.40987,0.59132,-0.07327995,0.97241
221.808,30.46337,0.59325,-0.07327842,0.97203
222.408,30.5171,0.59163,-0.07199121,0.97165
223.008,30.57072,0.59356,-0.07328037,0.97126
223.608,30.62432,0.59419,-0.07320992,0.97088
224.208,30.67788,0.59596,-0.07283199,0.97049
224.808,30.7314,0.59712,-0.07327669,0.9701
225.408,30.78507,0.59823,-0.07424696,0.96972
226.008,30.8388,0.59952,-0.07397243,0.96933
226.608,30.8921,0.60003,-0.07294955,0.96894
227.208,30.9457,0.59929,-0.07289816,0.96855
227.808,30.9991,0.60045,-0.07427003,0.96816
228.408,31.0526,0.60075,-0.07398315,0.96777
229.008,31.10653,0.60104,-0.07295851,0.96738
229.608,31.16033,0.6024,-0.07326964,0.96698
230.208,31.214,0.60246,-0.07326993,0.96659
230.808,31.26772,0.60243,-0.07327992,0.9662
231.408,31.3212,0.60269,-0.07328006,0.9658
232.008,31.3747,0.60306,-0.07418948,0.9654
232.608,31.4284,0.60489,-0.07459006,0.96501
233.208,31.482,0.6027,-0.07459,0.96461
233.808,31.53592,0.60397,-0.07458816,0.96421
234.408,31.5896,0.60387,-0.07364968,0.96381
235.008,31.64335,0.60377,-0.07460051,0.96341
235.608,31.69705,0.6065,-0.07460212,0.96301
236.208,31.75055,0.60422,-0.07426594,0.96261
236.808,31.80433,0.60525,-0.07394254,0.96221
237.408,31.85805,0.60618,-0.07328395,0.9618
238.008,31.9117,0.60535,-0.07328001,0.9614
238.608,31.9655,0.60746,-0.07327968,0.96099
239.208,32.0191,0.60773,-0.0739347,0.96059
239.808,32.0726,0.60958,-0.07426008,0.96018
240.408,32.12619,0.60925,-0.07425757,0.95977
241.008,32.17995,0.60968,-0.07459267,0.95937
241.608,32.23383,0.60922,-0.07461766,0.95896
242.208,32.28781,0.61036,-0.07321865,0.95855
242.808,32.3416,0.60947,-0.07458987,0.95814
243.408,32.3955,0.60925,-0.07459241,0.95773
244.008,32.44936,0.61123,-0.0746035,0.95731
244.608,32.50309,0.61193,-0.07459996,0.9569
245.208,32.5569,0.61302,-0.0746,0.95649
245.808,32.61043,0.61352,-0.07459994,0.95607
246.408,32.66408,0.61305,-0.07485749,0.95566
247.008,32.71788,0.61277,-0.0759187,0.95524
247.608,32.77166,0.61553,-0.0745919,0.95483
248.208,32.82558,0.61461,-0.07595723,0.95441
248.808,32.8793,0.61502,-0.07592001,0.95399
249.408,32.93294,0.61325,-0.07450295,0.95357
250.008,32.98657,0.61523,-0.07451217,0.95316
250.608,33.0403,0.61369,-0.07590992,0.95274
251.208,33.09398,0.6162,-0.07592518,0.95231
251.808,33.14775,0.61596,-0.07491882,0.95189
252.408,33.20151,0.61618,-0.07491998,0.95147
253.008,33.25524,0.61729,-0.07494607,0.95105
253.608,33.30903,0.6161,-0.07623996,0.95063
254.208,33.36287,0.6167,-0.07620402,0.9502
254.808,33.4168,0.61714,-0.0749331,0.94978
255.408,33.47025,0.62013,-0.07624191,0.94935
256.008,33.524,0.61856,-0.07617897,0.94892
256.608,33.57767,0.61843,-0.07492052,0.9485
257.208,33.63135,0.61856,-0.07492,0.94807
257.808,33.6854,0.61685,-0.07492,0.94764
258.408,33.7393,0.61888,-0.07492,0.94721
259.008,33.7931,0.6197,-0.07492145,0.94678
259.608,33.84677,0.6199,-0.07622304,0.94635
260.208,33.9005,0.62008,-0.07624,0.94592
260.808,33.95414,0.6218,-0.07624,0.94549
261.408,34.00773,0.62091,-0.07623992,0.94506
262.008,34.06157,0.62241,-0.07605521,0.94463
262.608,34.11541,0.62275,-0.0749301,0.94419
263.208,34.16924,0.62482,-0.07493,0.94376
263.808,34.223,0.62369,-0.07493,0.94332
264.408,34.2767,0.62356,-0.07492392,0.94289
265.008,34.3305,0.6243,-0.07623883,0.94245
265.608,34.3842,0.6257,-0.07624001,0.94201
266.208,34.43789,0.62639,-0.07624,0.94158
266.808,34.4916,0.62516,-0.07624,0.94114
267.408,34.54547,0.62632,-0.07624373,0.9407
268.008,34.59939,0.62735,-0.0749218,0.94026
268.608,34.6532,0.62466,-0.07491995,0.93982
269.208,34.70709,0.62697,-0.07510558,0.93938
269.808,34.7609,0.62952,-0.07624035,0.93894
270.408,34.8149,0.62841,-0.07629169,0.9385
271.008,34.869,0.62696,-0.07491999,0.93805
271.608,34.92295,0.62881,-0.07629198,0.93761
272.208,34.97687,0.629,-0.07623997,0.93717
272.808,35.03076,0.62957,-0.07624,0.93672
273.408,35.08478,0.62862,-0.07624,0.93628
274.008,35.1388,0.63044,-0.07624001,0.93583
274.608,35.19299,0.62997,-0.07626694,0.93538
275.208,35.24688,0.63086,-0.07591031,0.93494
275.808,35.30072,0.63026,-0.07591131,0.93449
276.408,35.35465,0.63181,-0.07490528,0.93404
277.008,35.40842,0.63343,-0.07491999,0.93359
277.608,35.46257,0.63382,-0.07487124,0.93314
278.208,35.51677,0.63445,-0.07584803,0.93269
278.808,35.5709,0.63558,-0.07657154,0.93224
279.408,35.625,0.63281,-0.07692898,0.93179
280.008,35.67897,0.63388,-0.07690001,0.93134
280.608,35.73294,0.63661,-0.07710431,0.93089
281.208,35.787,0.63555,-0.07699997,0.93044
281.808,35.84115,0.63679,-0.07690007,0.92998
282.408,35.89523,0.63777,-0.0769,0.92953
283.008,35.9492,0.63938,-0.07690008,0.92907
283.608,36.00322,0.6382,-0.07723257,0.92862
284.208,36.05721,0.63977,-0.07723,0.92816
284.808,36.1113,0.64188,-0.07723,0.92771
285.408,36.16551,0.63996,-0.07723,0.92725
286.008,36.21976,0.6397,-0.07723,0.92679
286.608,36.27407,0.64018,-0.07722995,0.92634
287.208,36.32839,0.64227,-0.07724399,0.92588
287.808,36.38256,0.64171,-0.07689981,0.92542
288.408,36.4368,0.64221,-0.07690612,0.92496
289.008,36.491,0.64139,-0.07559033,0.9245
289.608,36.5452,0.64206,-0.07822369,0.92404
290.208,36.5996,0.64217,-0.07821993,0.92358
290.808,36.65404,0.64221,-0.07717277,0.92312
291.408,36.7085,0.64563,-0.07689996,0.92265
292.008,36.7628,0.64512,-0.0769,0.92219
292.608,36.81708,0.64501,-0.07689998,0.92173
293.208,36.87142,0.64562,-0.07687719,0.92126
293.808,36.92585,0.64372,-0.07822248,0.9208
294.408,36.9803,0.64455,-0.0782196,0.92034
295.008,37.03498,0.6453,-0.07692155,0.91987
295.608,37.08933,0.64571,-0.0769,0.91941
296.208,37.14382,0.64869,-0.0769,0.91894
296.808,37.19812,0.64585,-0.0769,0.91847
297.408,37.25249,0.64729,-0.0769,0.91801
298.008,37.30684,0.64701,-0.07690167,0.91754
298.608,37.3612,0.64684,-0.07821557,0.91707
299.208,37.41556,0.6461,-0.07821,0.9166
299.808,37.46993,0.64835,-0.07821,0.91613
300.408,37.52446,0.64716,-0.07821,0.91566
301.008,37.5789,0.65051,-0.07821,0.91519
301.608,37.6336,0.64811,-0.07821006,0.91472
302.208,37.6881,0.64648,-0.07818395,0.91425
302.808,37.74279,0.647,-0.07956259,0.91378
303.408,37.79738,0.64535,-0.07924547,0.91331
304.008,37.85204,0.64713,-0.07776487,0.91283
304.608,37.90684,0.64442,-0.07778001,0.91236
305.208,37.96137,0.6462,-0.07777756,0.91189
305.808,38.0161,0.64726,-0.07841235,0.91141
306.408,38.07066,0.64746,-0.07777051,0.91094
307.008,38.12523,0.64661,-0.07906981,0.91047
307.608,38.17977,0.64529,-0.07909,0.90999
308.208,38.23438,0.64653,-0.07908993,0.90951
308.808,38.28897,0.64313,-0.07909577,0.90904
309.408,38.34355,0.6449,-0.0777792,0.90856
310.008,38.39829,0.64697,-0.07645718,0.90809
310.608,38.4529,0.64414,-0.07743886,0.90761
311.208,38.50756,0.6475,-0.07741523,0.90713
311.808,38.56224,0.64514,-0.07777018,0.90665
312.408,38.61716,0.64432,-0.07777001,0.90617
313.008,38.67191,0.6454,-0.07779111,0.90569
313.608,38.72655,0.64439,-0.07908857,0.90521
314.208,38.7812,0.64455,-0.08022268,0.90473
314.808,38.8358,0.64377,-0.08028772,0.90425
315.408,38.89052,0.64351,-0.07908388,0.90377
316.008,38.94534,0.64183,-0.07842606,0.90329
316.608,39.00007,0.64391,-0.07843,0.90281
317.208,39.05485,0.64272,-0.07842996,0.90233
317.808,39.10967,0.64563,-0.07842166,0.90185
318.408,39.1646,0.64119,-0.07975095,0.90136
319.008,39.21962,0.64324,-0.08042173,0.90088
319.608,39.2744,0.64561,-0.07973299,0.9004
320.208,39.32936,0.64364,-0.07909015,0.89991
320.808,39.3839,0.64469,-0.07908954,0.89943
321.408,39.43865,0.64224,-0.08003448,0.89894
322.008,39.49361,0.64458,-0.08041341,0.89846
322.608,39.5486,0.64558,-0.08073776,0.89797
323.208,39.60367,0.64423,-0.08076095,0.89749
323.808,39.6586,0.64625,-0.08040006,0.897
324.408,39.71352,0.64691,-0.0804,0.89651
325.008,39.76847,0.6463,-0.0804,0.89603
325.608,39.82346,0.64913,-0.0804,0.89554
326.208,39.8784,0.64661,-0.0804,0.89505
326.808,39.93334,0.64598,-0.08040598,0.89456
327.408,39.98825,0.647,-0.07776273,0.89408
328.008,40.04338,0.64785,-0.07798167,0.89359
328.608,40.09858,0.64811,-0.07919988,0.8931
329.208,40.15383,0.64932,-0.0792,0.89261
329.808,40.2089,0.64623,-0.0792,0.89212
330.408,40.26406,0.64942,-0.0792,0.89163
331.008,40.3191,0.65078,-0.0792,0.89114
331.608,40.37424,0.65059,-0.07920093,0.89065
332.208,40.42925,0.64935,-0.08051245,0.89016
332.808,40.4842,0.64945,-0.08044858,0.88966
333.408,40.5394,0.64967,-0.07919993,0.88917
334.008,40.59465,0.65069,-0.07918477,0.88868
334.608,40.64975,0.65274,-0.08051674,0.88819
335.208,40.70503,0.65126,-0.08052003,0.88769
335.808,40.76017,0.65108,-0.08053113,0.8872
336.408,40.81517,0.65346,-0.07952907,0.88671
337.008,40.8705,0.65506,-0.07953025,0.88621
337.608,40.92573,0.65183,-0.08068238,0.88572
338.208,40.98087,0.65372,-0.08036011,0.88522
338.808,41.03603,0.65688,-0.08035398,0.88473
339.408,41.091,0.65617,-0.08052017,0.88423
340.008,41.146,0.65703,-0.08087272,0.88374
340.608,41.20102,0.6562,-0.08084497,0.88324
341.208,41.25568,0.65563,-0.07953975,0.88275
341.808,41.31057,0.65636,-0.07953,0.88225
342.408,41.36573,0.65625,-0.07953,0.88175
343.008,41.42092,0.6527,-0.07952982,0.88126
343.608,41.47663,0.65658,-0.08088861,0.88076
344.208,41.5319,0.65861,-0.08170709,0.88026
344.808,41.5871,0.65789,-0.08085449,0.87977
345.408,41.6423,0.66052,-0.08184434,0.87927
346.008,41.6976,0.66033,-0.08184,0.87877
346.608,41.75282,0.66225,-0.08184004,0.87827
347.208,41.80807,0.66126,-0.08182179,0.87777
347.808,41.8634,0.66273,-0.0821573,0.87727
348.408,41.91863,0.66328,-0.08287956,0.87677
349.008,41.9741,0.66464,-0.0811168,0.87627
349.608,42.0295,0.664,-0.08215039,0.87577
350.208,42.08491,0.66514,-0.08188734,0.87527
350.808,42.1404,0.66644,-0.0815101,0.87477
351.408,42.19567,0.6665,-0.08143887,0.87427
352.008,42.25116,0.6654,-0.0821703,0.87377
352.608,42.3065,0.66828,-0.08216999,0.87327
353.208,42.36208,0.66659,-0.08215188,0.87277
353.808,42.4176,0.66622,-0.08149234,0.87227
354.408,42.47302,0.66631,-0.08292789,0.87177
355.008,42.52843,0.66832,-0.08292806,0.87126
355.608,42.58378,0.66863,-0.08359492,0.87076
356.208,42.63928,0.66821,-0.08359,0.87026
356.808,42.69502,0.67086,-0.08358986,0.86976
357.408,42.7506,0.67206,-0.08221764,0.86925
358.008,42.80624,0.66995,-0.08228016,0.86875
358.608,42.86176,0.66967,-0.0824118,0.86825
359.208,42.91744,0.67251,-0.08346626,0.86774
359.808,42.97314,0.67191,-0.08457053,0.86724
360.408,43.0288,0.6727,-0.08456481,0.86673
361.008,43.08439,0.67339,-0.08325952,0.86623
361.608,43.14,0.67556,-0.08326,0.86573
362.208,43.19571,0.6736,-0.0832619,0.86522
362.808,43.25145,0.67405,-0.08457537,0.86472
363.408,43.30734,0.67643,-0.08303806,0.86421
364.008,43.36296,0.67606,-0.08325555,0.86371
364.608,43.41864,0.67804,-0.08326536,0.8632
365.208,43.4743,0.67721,-0.08391876,0.86269
365.808,43.53001,0.67592,-0.08391947,0.86219
366.408,43.58585,0.67955,-0.08507011,0.86168
367.008,43.64163,0.6798,-0.0845699,0.86118
367.608,43.69741,0.67744,-0.08457,0.86067
368.208,43.7532,0.67999,-0.08457,0.86016
368.808,43.80894,0.68273,-0.08457,0.85966
369.408,43.86485,0.68136,-0.08457,0.85915
370.008,43.9208,0.68493,-0.08457,0.85864
370.608,43.97663,0.68417,-0.08456309,0.85813
371.208,44.03252,0.68497,-0.08556757,0.85763
371.808,44.08833,0.68624,-0.08556,0.85712
372.408,44.14416,0.68726,-0.08556002,0.85661
373.008,44.2001,0.68969,-0.08556908,0.8561
373.608,44.25607,0.69112,-0.08531252,0.85559
374.208,44.3121,0.69009,-0.08554685,0.85509
374.808,44.3681,0.69101,-0.08425225,0.85458
375.408,44.42403,0.69129,-0.08294311,0.85407
376.008,44.4801,0.69256,-0.08292991,0.85356
376.608,44.536,0.69396,-0.08365157,0.85305
377.208,44.592,0.69343,-0.08293103,0.85254
377.808,44.64802,0.69311,-0.08289062,0.85203
378.408,44.7041,0.69646,-0.08556036,0.85152
379.008,44.76038,0.69591,-0.08556,0.85101
379.608,44.81648,0.69726,-0.08556178,0.8505
380.208,44.8727,0.69712,-0.08688697,0.84999
380.808,44.92885,0.69789,-0.08688001,0.84948
381.408,44.98505,0.70062,-0.08720744,0.84897
382.008,45.0413,0.70166,-0.08820017,0.84846
382.608,45.09753,0.7035,-0.08699723,0.84795
383.208,45.15383,0.70516,-0.08682512,0.84744
383.808,45.21007,0.7056,-0.08786986,0.84693
384.408,45.26628,0.70572,-0.08786979,0.84642
385.008,45.32249,0.70465,-0.08817367,0.84591
385.608,45.37857,0.70724,-0.09101766,0.8454
386.208,45.43466,0.70956,-0.09097331,0.84489
386.808,45.49086,0.70966,-0.09105246,0.84438
387.408,45.54716,0.71061,-0.09223945,0.84387
388.008,45.60368,0.71029,-0.0923415,0.84336
388.608,45.66029,0.71365,-0.09094056,0.84285
389.208,45.71691,0.71453,-0.09094007,0.84233
389.808,45.77335,0.715,-0.09117706,0.84182
390.408,45.82967,0.71463,-0.09192937,0.84131
391.008,45.8859,0.71746,-0.09290141,0.8408
391.608,45.9422,0.71661,-0.09292001,0.84029
392.208,45.99865,0.71894,-0.09291138,0.83977
392.808,46.0552,0.72279,-0.09226365,0.83926
393.408,46.1116,0.72196,-0.09226,0.83875
394.008,46.1678,0.72249,-0.09226,0.83824
394.608,46.22405,0.72277,-0.09226,0.83773
395.208,46.28038,0.72487,-0.09226,0.83721
395.808,46.3367,0.72765,-0.09226,0.8367
396.408,46.3932,0.7295,-0.09226148,0.83619
397.008,46.4497,0.73179,-0.09357196,0.83568
397.608,46.50598,0.73189,-0.09357183,0.83516
398.208,46.56231,0.73373,-0.09488571,0.83465
398.808,46.61877,0.73611,-0.09488,0.83414
399.408,46.67517,0.73737,-0.09488012,0.83363
400.008,46.73167,0.73588,-0.09627473,0.83311
400.608,46.7881,0.73824,-0.09489831,0.8326
401.208,46.84447,0.74227,-0.09752702,0.83209
401.808,46.90098,0.74193,-0.0986106,0.83157
402.408,46.9575,0.7446,-0.0972692,0.83106
403.008,47.01404,0.74521,-0.09729997,0.83055
403.608,47.07058,0.74506,-0.09729901,0.83004
404.208,47.1271,0.74808,-0.09864026,0.82952
404.808,47.1837,0.75039,-0.09985975,0.82901
405.408,47.24021,0.75266,-0.09994,0.8285
406.008,47.29677,0.75193,-0.09994,0.82798
406.608,47.35286,0.75536,-0.09992509,0.82747
407.208,47.40945,0.75591,-0.09992195,0.82696
407.808,47.46593,0.75968,-0.09987879,0.82644
408.408,47.5227,0.76231,-0.10125,0.82593
409.008,47.57947,0.75966,-0.10125,0.82542
409.608,47.63605,0.76495,-0.10193,0.8249
410.208,47.69274,0.76759,-0.10258,0.82439
410.808,47.74946,0.7676,-0.10454,0.82388
411.408,47.80611,0.76887,-0.10522,0.82336
412.008,47.86269,0.77171,-0.10523,0.82285
412.608,47.9193,0.77348,-0.10552,0.82234
413.208,47.97599,0.77574,-0.10593,0.82182
413.808,48.03293,0.77965,-0.10684,0.82131
414.408,48.08992,0.78234,-0.10683,0.8208
415.008,48.1467,0.78292,-0.10816,0.82028
415.608,48.20341,0.78575,-0.10949,0.81977
416.208,48.25993,0.78773,-0.10948,0.81926
416.808,48.3167,0.79003,-0.11079,0.81874
417.408,48.37355,0.7972,-0.11118,0.81823
418.008,48.4302,0.80123,-0.11211,0.81772
418.608,48.4871,0.81605,-0.11343,0.8172
419.208,48.54392,0.81844,-0.11476,0.81669
419.808,48.60076,0.81379,-0.11404,0.81618
420.408,48.65786,0.81149,-0.11446,0.81566
421.008,48.7147,0.80861,-0.11715,0.81515
421.608,48.77145,0.80497,-0.11844,0.81464
422.208,48.8284,0.80348,-0.12138,0.81412
422.808,48.88496,0.80362,-0.12254,0.81361
423.408,48.9418,0.8034,-0.1238,0.8131
424.008,48.99868,0.80481,-0.12394,0.81258
424.608,49.05558,0.80625,-0.12658,0.81207
425.208,49.11237,0.8099,-0.12753,0.81156
425.808,49.1693,0.81107,-0.12933,0.81105
426.408,49.22611,0.81499,-0.13083,0.81053
427.008,49.283,0.81674,-0.13438,0.81002
427.608,49.3398,0.82008,-0.13579,0.80951
428.208,49.39652,0.82383,-0.13739,0.80899
428.808,49.45341,0.82623,-0.13959,0.80848
429.408,49.51024,0.82621,-0.14055,0.80797
430.008,49.56712,0.83159,-0.1434,0.80746
430.608,49.62409,0.83075,-0.14466,0.80694
431.208,49.68121,0.83168,-0.14782,0.80643
431.808,49.73822,0.83771,-0.14839,0.80592
432.408,49.7952,0.83924,-0.15132,0.80541
433.008,49.85228,0.84363,-0.15305,0.80489
433.608,49.9093,0.8467,-0.15676,0.80438
434.208,49.96618,0.84783,-0.16121,0.80387
434.808,50.02309,0.85126,-0.16256,0.80336
435.408,50.08017,0.85669,-0.16403,0.80285
436.008,50.13738,0.86168,-0.16667,0.80233
436.608,50.19445,0.86622,-0.17063,0.80182
437.208,50.25158,0.87016,-0.17386,0.80131
437.808,50.3086,0.87427,-0.17635,0.8008
438.408,50.3658,0.88108,-0.17987,0.80029
439.008,50.423,0.88467,-0.183,0.79978
439.608,50.48003,0.88949,-0.18734,0.79927
440.208,50.537,0.89488,-0.19085,0.79875
440.808,50.59404,0.90151,-0.19429,0.79824
441.408,50.65145,0.90642,-0.19958,0.79773
442.008,50.70882,0.91289,-0.2037,0.79722
442.608,50.7663,0.91802,-0.20527,0.79671
443.208,50.82372,0.92513,-0.2104,0.7962
443.808,50.88111,0.93203,-0.2159,0.79569
444.408,50.93851,0.94029,-0.2192,0.79518
445.008,50.99589,0.94713,-0.22492,0.79467
445.608,51.0533,0.95463,-0.23074,0.79416
446.208,51.11078,0.96054,-0.23534,0.79365
446.808,51.1682,0.97224,-0.241,0.79314
447.408,51.22571,0.97806,-0.24706,0.79263
448.008,51.28315,0.98938,-0.25357,0.79212
448.608,51.34052,0.99707,-0.26009,0.79161
449.208,51.39803,1.00547,-0.26423,0.7911
449.808,51.45545,1.01539,-0.27049,0.79059
450.408,51.5128,1.02696,-0.27563,0.79008
451.008,51.57028,1.03728,-0.28502,0.78957
451.608,51.62754,1.05012,-0.29241,0.78906
452.208,51.68502,1.06195,-0.29834,0.78855
452.808,51.74248,1.07268,-0.30786,0.78804
453.408,51.8,1.08807,-0.3164,0.78753
454.008,51.8574,1.10018,-0.32734,0.78703
454.608,51.91491,1.11537,-0.33302,0.78652
455.208,51.9724,1.12911,-0.34251,0.78601
455.808,52.03015,1.14505,-0.35176,0.7855
456.408,52.08784,1.16179,-0.36406,0.78499
457.008,52.14541,1.17779,-0.37317,0.78448
457.608,52.20293,1.19557,-0.38469,0.78398
458.208,52.26023,1.2138,-0.39781,0.78347
458.808,52.31767,1.23648,-0.41005,0.78296
459.408,52.37522,1.25228,-0.42241,0.78245
460.008,52.43277,1.2719,-0.43739,0.78195
460.608,52.4904,1.29758,-0.44853,0.78144
461.208,52.54806,1.31818,-0.46535,0.78093
461.808,52.6056,1.34034,-0.47933,0.78043
462.408,52.66325,1.36595,-0.49725,0.77992
463.008,52.72076,1.39136,-0.51616,0.77941
463.608,52.7783,1.41835,-0.53461,0.77891
464.208,52.83589,1.44684,-0.55129,0.7784
464.808,52.8935,1.47582,-0.57399,0.7779
465.408,52.95106,1.50575,-0.59511,0.77739
466.008,53.00865,1.5385,-0.61618,0.77689
466.608,53.0663,1.57508,-0.64064,0.77638
467.208,53.12392,1.60597,-0.66579,0.77588
467.808,53.18156,1.64079,-0.6925,0.77537
468.408,53.2392,1.67992,-0.72132,0.77487
469.008,53.29694,1.71929,-0.75081,0.77436
469.608,53.3548,1.7668,-0.78067,0.77386
470.208,53.4125,1.81116,-0.8155,0.77335
470.808,53.47006,1.85128,-0.84933,0.77285
471.408,53.52777,1.89646,-0.88792,0.77235
472.008,53.58545,1.94214,-0.92849,0.77184
472.608,53.6431,1.98404,-0.96927,0.77134
473.208,53.70086,2.02511,-1.01497,0.77084
473.808,53.7584,2.07139,-1.05852,0.77033
474.408,53.81601,2.1081,-1.10754,0.76983
475.008,53.8736,2.14015,-1.15585,0.76933
475.608,53.93135,2.1827,-1.20811,0.76882
476.208,53.98907,2.22322,-1.26243,0.76832
476.808,54.0469,2.25434,-1.31781,0.76782
477.408,54.10455,2.27807,-1.37816,0.76732
478.008,54.16216,2.31346,-1.43701,0.76682
478.608,54.21969,2.33819,-1.50376,0.76632
479.208,54.27725,2.35682,-1.56739,0.76582
479.808,54.335,2.38122,-1.6376,0.76531
480.408,54.39278,2.39834,-1.70621,0.76481
481.008,54.4506,2.41311,-1.77772,0.76431
481.608,54.50815,2.43181,-1.85545,0.76381
482.208,54.56555,2.44696,-1.93399,0.76331
482.808,54.6233,2.46687,-2.01655,0.76281
483.408,54.68087,2.48133,-2.09802,0.76231
484.008,54.73882,2.49742,-2.18769,0.76181
484.608,54.7966,2.50042,-2.2741,0.76132
485.208,54.8544,2.49939,-2.36808,0.76082
485.808,54.9122,2.49533,-2.45897,0.76032
486.408,54.97,2.48544,-2.55383,0.75982
487.008,55.028,2.47175,-2.65192,0.75932
487.608,55.0858,2.46114,-2.7469,0.75882
488.208,55.1438,2.43861,-2.84502,0.75833
488.808,55.2017,2.41195,-2.94297,0.75783
489.408,55.25966,2.38165,-3.04684,0.75733
490.008,55.31774,2.3401,-3.14184,0.75683
490.608,55.3758,2.29674,-3.24087,0.75634
491.208,55.43396,2.2405,-3.33497,0.75584
491.808,55.4921,2.18379,-3.43085,0.75535
492.408,55.5503,2.11678,-3.52302,0.75485
493.008,55.6086,2.04051,-3.61164,0.75435
493.608,55.6669,1.96276,-3.70043,0.75386
494.208,55.72518,1.87121,-3.78099,0.75336
494.808,55.78349,1.77634,-3.86263,0.75287
495.408,55.8417,1.67527,-3.93324,0.75237
496.008,55.9001,1.57184,-4.00573,0.75188
496.608,55.9584,1.46152,-4.06779,0.75139
497.208,56.0169,1.34974,-4.12837,0.75089
497.808,56.0754,1.23417,-4.18032,0.7504
498.408,56.1338,1.1229,-4.22862,0.7499
499.008,56.19245,1.01251,-4.27014,0.74941
499.608,56.25096,0.90553,-4.30873,0.74892
500.208,56.30955,0.80563,-4.34179,0.74843
500.808,56.3682,0.70936,-4.36994,0.74793
501.408,56.42669,0.624,-4.39225,0.74744
502.008,56.4851,0.54123,-4.40893,0.74695
502.608,56.5436,0.46889,-4.42718,0.74646
503.208,56.60199,0.40197,-4.43835,0.74597
503.808,56.6603,0.3454,-4.44713,0.74548
504.408,56.7186,0.29505,-4.45649,0.74499
505.008,56.7769,0.25269,-4.46241,0.7445
505.608,56.83504,0.2163,-4.46675,0.74401
506.208,56.8928,0.18647,-4.46971,0.74352
506.808,56.9508,0.15816,-4.4728,0.74303
507.408,57.00889,0.1391,-4.4741,0.74254
508.008,57.06703,0.12462,-4.47658,0.74205
508.608,57.1259,0.10713,-4.47674,0.74156
509.208,57.18427,0.09320238,-4.47644,0.74107
509.808,57.24253,0.08310942,-4.47765,0.74059
510.408,57.30078,0.07900654,-4.47904,0.7401
511.008,57.3589,0.07522443,-4.47904,0.73961
511.608,57.417,0.06998015,-4.47904,0.73912
512.208,57.4753,0.06700921,-4.47904,0.73864
512.808,57.53351,0.06167404,-4.47764,0.73815
513.408,57.59189,0.0473919,-4.47773,0.73766
514.008,57.6502,0.0383662,-4.47909,0.73718
514.608,57.7086,0.03585591,-4.47772,0.73669
515.208,57.76699,0.0373931,-4.47895,0.73621
515.808,57.82525,0.04204956,-4.47914,0.73572
516.408,57.8836,0.04152119,-4.48035,0.73524
517.008,57.9419,0.04631604,-4.48035,0.73475
517.608,58.0001,0.04884841,-4.48036,0.73427
518.208,58.0584,0.05424804,-4.48003,0.73379
518.808,58.11674,0.05494352,-4.48003,0.7333
519.408,58.1752,0.05657874,-4.48003,0.73282
520.008,58.2338,0.05575715,-4.48012,0.73234
520.608,58.29225,0.05786372,-4.47871,0.73186
521.208,58.35065,0.05964655,-4.47871,0.73137
521.808,58.40909,0.06182395,-4.47871,0.73089
522.408,58.46761,0.06197132,-4.48003,0.73041
523.008,58.52612,0.06094634,-4.48003,0.72993
523.608,58.58446,0.06233714,-4.48008,0.72945
524.208,58.64292,0.06139051,-4.47797,0.72897
524.808,58.70156,0.06029436,-4.47887,0.72849
525.408,58.76014,0.06313973,-4.47904,0.72801
526.008,58.8189,0.06369222,-4.47904,0.72753
526.608,58.8774,0.06416543,-4.47904,0.72705
527.208,58.9359,0.06134703,-4.47894,0.72657
527.808,58.99417,0.06185034,-4.48034,0.72609
528.408,59.0525,0.06221092,-4.47904,0.72562
529.008,59.11104,0.06236259,-4.47771,0.72514
529.608,59.1697,0.06298646,-4.47772,0.72466
530.208,59.22851,0.0623495,-4.47773,0.72418
530.808,59.28715,0.06478786,-4.47904,0.72371
531.408,59.34565,0.06376412,-4.47904,0.72323
532.008,59.4042,0.06504586,-4.47904,0.72275
532.608,59.46291,0.06030485,-4.47775,0.72228
533.208,59.52171,0.06233812,-4.4797,0.7218
533.808,59.5805,0.06176119,-4.47969,0.72133
534.408,59.6393,0.06171172,-4.47969,0.72085
535.008,59.6978,0.06563527,-4.47969,0.72038
535.608,59.75649,0.0655347,-4.47969,0.71991
536.208,59.81519,0.06346618,-4.47969,0.71943
536.808,59.874,0.06296464,-4.47969,0.71896
537.408,59.933,0.06280738,-4.47968,0.71849
538.008,59.99174,0.06542345,-4.47904,0.71801
538.608,60.0506,0.06306576,-4.47904,0.71754
539.208,60.10946,0.06569302,-4.48071,0.71707
539.808,60.16835,0.06360458,-4.48101,0.7166
540.408,60.22707,0.06735572,-4.47971,0.71613
541.008,60.2858,0.06534374,-4.47967,0.71566
541.608,60.3444,0.06816174,-4.48036,0.71519
542.208,60.40299,0.06820883,-4.48036,0.71472
542.808,60.46187,0.06891616,-4.48036,0.71425
543.408,60.5207,0.06811527,-4.48036,0.71378
544.008,60.5797,0.06874457,-4.48036,0.71331
544.608,60.6387,0.07192361,-4.4797,0.71284
545.208,60.6978,0.06842084,-4.4797,0.71237
545.808,60.75666,0.07074806,-4.481,0.71191
546.408,60.8154,0.07070563,-4.48107,0.71144
547.008,60.8742,0.07258504,-4.4797,0.71097
547.608,60.93319,0.07095896,-4.48037,0.71051
548.208,60.99219,0.07107681,-4.48035,0.71004
548.808,61.05118,0.0708733,-4.48035,0.70957
549.408,61.11014,0.07090784,-4.47905,0.70911
550.008,61.169,0.0709428,-4.47839,0.70864
550.608,61.2279,0.06328471,-4.47839,0.70818
551.208,61.2867,0.06728183,-4.4808,0.70771
551.808,61.3457,0.06934704,-4.48065,0.70725
552.408,61.4045,0.06754063,-4.47959,0.70679
553.008,61.4634,0.06858089,-4.47959,0.70632
553.608,61.52244,0.06872711,-4.47959,0.70586
554.208,61.5815,0.06740616,-4.47959,0.7054
554.808,61.64056,0.07143074,-4.47959,0.70494
555.408,61.69954,0.07131226,-4.47959,0.70448
556.008,61.75849,0.07092393,-4.47959,0.70402
556.608,61.81742,0.07141273,-4.47861,0.70355
557.208,61.8765,0.0731422,-4.47828,0.70309
557.808,61.9355,0.07158733,-4.47827,0.70263
558.408,61.99456,0.07241838,-4.4796,0.70217
559.008,62.05356,0.07132183,-4.47959,0.70172
559.608,62.11265,0.07140264,-4.47949,0.70126
560.208,62.1717,0.07093304,-4.47959,0.7008
560.808,62.23064,0.07064171,-4.47959,0.70034
561.408,62.2896,0.07141399,-4.47959,0.69988
562.008,62.34875,0.07162626,-4.47959,0.69943
562.608,62.408,0.07459113,-4.47959,0.69897
563.208,62.467,0.07396846,-4.4796,0.69851
563.808,62.526,0.07270769,-4.4786,0.69806
564.408,62.58501,0.07320448,-4.4786,0.6976
565.008,62.644,0.07404218,-4.47855,0.69715
565.608,62.70304,0.07535999,-4.47992,0.69669
566.208,62.7622,0.07351246,-4.47992,0.69624
566.808,62.82133,0.0744031,-4.47992,0.69578
567.408,62.8805,0.07436506,-4.4796,0.69533
568.008,62.93955,0.07755287,-4.47959,0.69488
568.608,62.9985,0.07615162,-4.4809,0.69443
569.208,63.05755,0.07607779,-4.47956,0.69397
569.808,63.1169,0.07548784,-4.47828,0.69352
570.408,63.176,0.07590872,-4.47959,0.69307
571.008,63.23536,0.07720087,-4.47959,0.69262
571.608,63.2945,0.07423005,-4.48091,0.69217
572.208,63.35375,0.07760171,-4.48027,0.69172
572.808,63.41307,0.07451919,-4.48025,0.69127
573.408,63.4722,0.07544547,-4.48007,0.69082
574.008,63.53135,0.07666909,-4.47959,0.69037
574.608,63.5904,0.07327996,-4.47959,0.68992
575.208,63.64969,0.07786517,-4.47959,0.68948
575.808,63.70893,0.07308179,-4.47959,0.68903
576.408,63.7681,0.07880916,-4.47959,0.68858
577.008,63.82731,0.08009666,-4.4801,0.68813
577.608,63.8866,0.07836543,-4.48091,0.68769
578.208,63.94549,0.07879282,-4.48091,0.68724
578.808,64.00491,0.07679579,-4.48059,0.6868
579.408,64.06403,0.08038533,-4.47959,0.68635
580.008,64.12351,0.07830125,-4.47959,0.68591
580.608,64.1828,0.07881304,-4.47959,0.68546
581.208,64.24199,0.07836836,-4.47959,0.68502
581.808,64.30142,0.07892273,-4.48023,0.68458
582.408,64.36059,0.0790085,-4.48023,0.68413
583.008,64.42002,0.07648902,-4.47984,0.68369
583.608,64.47922,0.07860497,-4.47958,0.68325
584.208,64.53848,0.08178543,-4.47958,0.68281
584.808,64.59777,0.08115013,-4.47958,0.68237
585.408,64.657,0.07808063,-4.47958,0.68193
586.008,64.71631,0.0773068,-4.48125,0.68149
586.608,64.77564,0.07475306,-4.48067,0.68105
587.208,64.83482,0.07776638,-4.47407,0.68061
587.808,64.89412,0.07807098,-4.48869,0.68017
588.408,64.9534,0.0781624,-4.4839,0.67973
589.008,65.013,0.0781543,-4.4804,0.67929
589.608,65.0723,0.07684082,-4.48046,0.67885
590.208,65.13178,0.07760887,-4.48176,0.67842
590.808,65.19128,0.07729127,-4.48096,0.67798
591.408,65.25106,0.07773615,-4.48048,0.67755
592.008,65.31059,0.07594211,-4.48178,0.67711
592.608,65.37021,0.07683208,-4.48044,0.67667
593.208,65.42973,0.0808559,-4.48047,0.67624
593.808,65.48926,0.07792534,-4.48047,0.67581
594.408,65.54903,0.07719877,-4.48146,0.67537
595.008,65.60868,0.08090943,-4.48277,0.67494
595.608,65.6686,0.07584325,-4.4818,0.6745
596.208,65.72822,0.0748212,-4.48146,0.67407
596.808,65.78791,0.07626515,-4.48146,0.67364
597.408,65.84743,0.07671223,-4.48148,0.67321
598.008,65.90705,0.07560294,-4.48277,0.67278
598.608,65.9666,0.07707457,-4.48142,0.67235
599.208,66.02632,0.08040929,-4.48014,0.67192
599.808,66.086,0.07897831,-4.48014,0.67149
600.408,66.1456,0.07735007,-4.48014,0.67106
601.008,66.2051,0.07682985,-4.48014,0.67063
601.608,66.26469,0.0742506,-4.48009,0.6702
602.208,66.32444,0.07595098,-4.48147,0.66977
602.808,66.38414,0.07710138,-4.48015,0.66934
603.408,66.44373,0.07719278,-4.47422,0.66892
604.008,66.50321,0.07559574,-4.48646,0.66849
604.608,66.56262,0.07712256,-4.48314,0.66806
605.208,66.62225,0.07488367,-4.48056,0.66764
605.808,66.6819,0.07426691,-4.48025,0.66721
606.408,66.7415,0.07151909,-4.48024,0.66679
607.008,66.80115,0.0734792,-4.48137,0.66636
607.608,66.8605,0.07148194,-4.48157,0.66594
608.208,66.92008,0.07063734,-4.47999,0.66552
608.808,66.97975,0.0769938,-4.48036,0.66509
609.408,67.03955,0.07512652,-4.48036,0.66467
610.008,67.09915,0.07587472,-4.48167,0.66425
610.608,67.15889,0.07433289,-4.48167,0.66383
611.208,67.2186,0.07175745,-4.48233,0.66341
611.808,67.27855,0.07197893,-4.48233,0.66299
612.408,67.3381,0.07313051,-4.48233,0.66257
613.008,67.39783,0.07666892,-4.48235,0.66215
613.608,67.45756,0.07128627,-4.48364,0.66173
614.208,67.5172,0.07349748,-4.48364,0.66131
614.808,67.57652,0.0712789,-4.48102,0.66089
615.408,67.63622,0.07322686,-4.48103,0.66047
616.008,67.69615,0.07417382,-4.48233,0.66006
616.608,67.75657,0.07133326,-4.48234,0.65964
617.208,67.81651,0.07120063,-4.48101,0.65922
617.808,67.87657,0.07512197,-4.48101,0.65881
618.408,67.93645,0.07357402,-4.48101,0.65839
619.008,67.99646,0.07321499,-4.481,0.65798
619.608,68.05637,0.07005153,-4.48364,0.65756
620.208,68.11607,0.07251973,-4.48216,0.65715
620.808,68.17583,0.07495783,-4.48211,0.65674
621.408,68.23567,0.07198148,-4.48216,0.65632
622.008,68.29555,0.0719582,-4.48079,0.65591
622.608,68.3556,0.07330323,-4.48116,0.6555
623.208,68.4158,0.07203761,-4.48211,0.65509
623.808,68.4758,0.07279466,-4.48211,0.65468
624.408,68.53579,0.07429619,-4.48209,0.65427
625.008,68.5957,0.07294188,-4.48212,0.65386
625.608,68.65527,0.07067201,-4.48277,0.65345
626.208,68.71545,0.07291988,-4.48277,0.65304
626.808,68.77524,0.0711301,-4.4815,0.65263
627.408,68.8355,0.07428105,-4.48079,0.65222
628.008,68.8956,0.07433266,-4.48208,0.65181
628.608,68.95551,0.07582002,-4.4811,0.65141
629.208,69.01557,0.07190647,-4.48215,0.651
629.808,69.07545,0.07389856,-4.48211,0.65059
630.408,69.1354,0.07293322,-4.48211,0.65019
631.008,69.1953,0.07501674,-4.4828,0.64978
631.608,69.2552,0.07363161,-4.48211,0.64938
632.208,69.31523,0.0762781,-4.48211,0.64897
632.808,69.3751,0.07641055,-4.48211,0.64857
633.408,69.43508,0.07216556,-4.48211,0.64817
634.008,69.49501,0.07234177,-4.48211,0.64776
634.608,69.55502,0.07403721,-4.48211,0.64736
635.208,69.6151,0.06908411,-4.4808,0.64696
635.808,69.67531,0.07244492,-4.48079,0.64656
636.408,69.73515,0.07082376,-4.48079,0.64616
637.008,69.79511,0.07165954,-4.48079,0.64576
637.608,69.85495,0.07166047,-4.4819,0.64536
638.208,69.9149,0.07101208,-4.48212,0.64496
638.808,69.97502,0.07242585,-4.47953,0.64456
639.008,69.9948,0.07094992,-4.47948,0.64443