File: 01_Data/HDPE/STA/N2/10K_min/HDPE_STA_N2_10KData_2199_R2.csv
##Temp./Â°C,Time/min,DSC(subtr.2)/(mW/mg),Mass loss(subtr.2)/mg,Sensit./(uV/mW)
49.648,10.01,-0.002515,-0.03511,1.03585
50.248,11.45096,0.03207945,-0.03838219,1.03582
50.848,11.81835,0.05520375,-0.03980407,1.03579
51.448,12.0843,0.07132884,-0.03913418,1.03576
52.048,12.30464,0.08735641,-0.0384813,1.03573
52.648,12.49413,0.10085,-0.03830424,1.03569
53.248,12.66566,0.11224,-0.04211304,1.03566
53.848,12.82634,0.1224,-0.04084416,1.03562
54.448,12.97551,0.132,-0.04225078,1.03558
55.048,13.1182,0.1395,-0.04080547,1.03554
55.648,13.2539,0.14576,-0.0411562,1.0355
56.248,13.38316,0.15394,-0.04081629,1.03545
56.848,13.5077,0.16105,-0.03939346,1.03541
57.448,13.6292,0.16617,-0.04150428,1.03536
58.048,13.74724,0.17184,-0.0421148,1.03531
58.648,13.8606,0.17685,-0.04234763,1.03526
59.248,13.972,0.1836,-0.04224425,1.03521
59.848,14.081,0.18817,-0.04059666,1.03516
60.448,14.1872,0.19235,-0.04266909,1.0351
61.048,14.2912,0.19838,-0.0434519,1.03505
61.648,14.3939,0.19949,-0.04265422,1.03499
62.248,14.4945,0.20398,-0.04185385,1.03493
62.848,14.5923,0.20814,-0.04258675,1.03487
63.448,14.68839,0.21191,-0.04204696,1.0348
64.048,14.78351,0.21653,-0.04363093,1.03474
64.648,14.8776,0.21717,-0.04276539,1.03468
65.248,14.9701,0.22412,-0.04168417,1.03461
65.848,15.0604,0.22682,-0.0432392,1.03454
66.448,15.14967,0.22919,-0.0445294,1.03447
67.048,15.23826,0.23206,-0.04457402,1.0344
67.648,15.32555,0.23419,-0.04331869,1.03432
68.248,15.4112,0.23572,-0.04453387,1.03425
68.848,15.49666,0.2391,-0.04315573,1.03417
69.448,15.58041,0.24157,-0.0445366,1.0341
70.048,15.6637,0.24366,-0.04604674,1.03402
70.648,15.7464,0.24723,-0.04474282,1.03394
71.248,15.8284,0.25058,-0.04548987,1.03385
71.848,15.90905,0.25455,-0.04597839,1.03377
72.448,15.98906,0.25561,-0.04586018,1.03369
73.048,16.06781,0.25893,-0.04595514,1.0336
73.648,16.14631,0.2628,-0.04597181,1.03351
74.248,16.22393,0.26451,-0.04591241,1.03342
74.848,16.30132,0.26628,-0.04574067,1.03333
75.448,16.37771,0.27091,-0.04572982,1.03324
76.048,16.4539,0.27335,-0.04606515,1.03314
76.648,16.5295,0.27403,-0.04740138,1.03305
77.248,16.60468,0.27663,-0.04734686,1.03295
77.848,16.67907,0.28396,-0.0473904,1.03285
78.448,16.7528,0.28527,-0.04743636,1.03275
79.048,16.82589,0.29007,-0.04607004,1.03265
79.648,16.8989,0.2915,-0.04613033,1.03255
80.248,16.97145,0.2957,-0.04654589,1.03244
80.848,17.04335,0.29892,-0.04737588,1.03234
81.448,17.11443,0.30172,-0.04682584,1.03223
82.048,17.18554,0.30342,-0.04736432,1.03212
82.648,17.25628,0.30655,-0.04792567,1.03201
83.248,17.32667,0.30743,-0.04790414,1.0319
83.848,17.3964,0.3096,-0.04879785,1.03178
84.448,17.46582,0.31302,-0.04795874,1.03167
85.048,17.53519,0.31504,-0.04828016,1.03155
85.648,17.60352,0.31692,-0.04963832,1.03144
86.248,17.67193,0.3204,-0.04885443,1.03132
86.848,17.73967,0.32425,-0.04960618,1.0312
87.448,17.80782,0.32493,-0.0487803,1.03107
88.048,17.8753,0.32544,-0.0508081,1.03095
88.648,17.94271,0.32961,-0.04957765,1.03083
89.248,18.00924,0.33279,-0.04798366,1.0307
89.848,18.07574,0.33593,-0.04699336,1.03057
90.448,18.14125,0.33784,-0.04750157,1.03044
91.048,18.2071,0.34094,-0.04707285,1.03031
91.648,18.27231,0.34424,-0.0483548,1.03018
92.248,18.33749,0.3454,-0.04974758,1.03005
92.848,18.40234,0.35103,-0.04847901,1.02991
93.448,18.46735,0.35134,-0.04953293,1.02978
94.048,18.5317,0.35502,-0.04972245,1.02964
94.648,18.59607,0.35792,-0.04862173,1.0295
95.248,18.65991,0.35866,-0.0483774,1.02936
95.848,18.72389,0.36252,-0.04835882,1.02922
96.448,18.7876,0.36297,-0.04773273,1.02907
97.048,18.85105,0.36931,-0.04771576,1.02893
97.648,18.91414,0.37261,-0.04900411,1.02878
98.248,18.97719,0.37289,-0.04902733,1.02863
98.848,19.04009,0.37581,-0.04903965,1.02848
99.448,19.1025,0.38008,-0.04904,1.02833
100.048,19.16493,0.38297,-0.04906914,1.02818
100.648,19.227,0.38553,-0.04908789,1.02803
101.248,19.28896,0.38722,-0.04914973,1.02787
101.848,19.3509,0.39079,-0.05013812,1.02772
102.448,19.41263,0.39347,-0.04931244,1.02756
103.048,19.47462,0.39681,-0.05072006,1.0274
103.648,19.53623,0.40017,-0.05089901,1.02724
104.248,19.59769,0.40216,-0.04946593,1.02708
104.848,19.65908,0.40566,-0.05047868,1.02692
105.448,19.72056,0.40943,-0.050685,1.02675
106.048,19.78124,0.41423,-0.05199952,1.02659
106.648,19.84197,0.41863,-0.05087157,1.02642
107.248,19.9025,0.42173,-0.05050245,1.02625
107.848,19.96314,0.42338,-0.05186487,1.02608
108.448,20.0239,0.43005,-0.05069109,1.02591
109.048,20.0844,0.43197,-0.0524579,1.02574
109.648,20.14465,0.43925,-0.05244,1.02557
110.248,20.20486,0.44119,-0.05243834,1.02539
110.848,20.26505,0.44715,-0.05120441,1.02521
111.448,20.32506,0.44966,-0.05067456,1.02504
112.048,20.38496,0.45397,-0.05252978,1.02486
112.648,20.4448,0.4607,-0.05234991,1.02468
113.248,20.50469,0.46738,-0.05255489,1.02449
113.848,20.56448,0.47223,-0.05324785,1.02431
114.448,20.62388,0.48048,-0.05092454,1.02413
115.048,20.68325,0.48716,-0.0510198,1.02394
115.648,20.74244,0.49598,-0.05189387,1.02375
116.248,20.8018,0.50311,-0.05241658,1.02356
116.848,20.86111,0.51227,-0.0514478,1.02337
117.448,20.9204,0.52153,-0.05243448,1.02318
118.048,20.97931,0.53272,-0.05247487,1.02299
118.648,21.03824,0.54313,-0.0523357,1.0228
119.248,21.0972,0.55408,-0.0512314,1.0226
119.848,21.15597,0.56816,-0.05255539,1.0224
120.448,21.2148,0.58219,-0.05211191,1.02221
121.048,21.27359,0.5988,-0.05260157,1.02201
121.648,21.33238,0.61934,-0.05255002,1.02181
122.248,21.3907,0.63817,-0.05255113,1.0216
122.848,21.4489,0.66163,-0.0527884,1.0214
123.448,21.50702,0.68733,-0.05321113,1.0212
124.048,21.5651,0.72038,-0.05321001,1.02099
124.648,21.62323,0.75452,-0.05322221,1.02078
125.248,21.68145,0.79439,-0.05385914,1.02058
125.848,21.73968,0.84154,-0.05385059,1.02037
126.448,21.79782,0.89682,-0.05522278,1.02016
127.048,21.85584,0.96272,-0.05395224,1.01994
127.648,21.91369,1.0371,-0.05389639,1.01973
128.248,21.97157,1.12756,-0.0527657,1.01951
128.848,22.02948,1.23021,-0.05255,1.0193
129.448,22.08751,1.34998,-0.05254695,1.01908
130.048,22.1458,1.48318,-0.05374227,1.01886
130.648,22.2039,1.6331,-0.0527797,1.01864
131.248,22.26192,1.79735,-0.05408039,1.01842
131.848,22.31992,1.97625,-0.05407876,1.0182
132.448,22.3781,2.16122,-0.05276683,1.01798
133.048,22.43626,2.35715,-0.05406571,1.01775
133.648,22.49454,2.54562,-0.05276608,1.01752
134.248,22.55307,2.71964,-0.05277008,1.0173
134.848,22.61133,2.8869,-0.05275704,1.01707
135.448,22.66974,3.04283,-0.05409016,1.01684
136.048,22.72801,3.17698,-0.05408303,1.01661
136.648,22.7861,3.27057,-0.05407362,1.01637
137.248,22.8441,3.32096,-0.05285367,1.01614
137.848,22.90166,3.31199,-0.05279363,1.01591
138.448,22.95903,3.21196,-0.05178043,1.01567
139.048,23.01588,3.04509,-0.05237757,1.01543
139.648,23.07199,2.81229,-0.05309199,1.01519
140.248,23.1277,2.51215,-0.05386435,1.01495
140.848,23.18319,2.16872,-0.05442066,1.01471
141.448,23.238,1.82625,-0.05565259,1.01447
142.048,23.29336,1.50367,-0.05512499,1.01423
142.648,23.34768,1.24485,-0.05396635,1.01398
143.248,23.40171,1.04744,-0.05495652,1.01374
143.848,23.45585,0.90025,-0.05655533,1.01349
144.448,23.5097,0.78835,-0.05529115,1.01324
145.048,23.56375,0.70681,-0.05525097,1.01299
145.648,23.61769,0.64603,-0.05660166,1.01274
146.248,23.6718,0.60099,-0.05659521,1.01249
146.848,23.72616,0.5666,-0.05529063,1.01223
147.448,23.78055,0.5436,-0.05527986,1.01198
148.048,23.835,0.52332,-0.05390397,1.01172
148.648,23.88922,0.51043,-0.05529006,1.01147
149.248,23.94346,0.50146,-0.05528972,1.01121
149.848,23.99758,0.4959,-0.05461738,1.01095
150.448,24.05181,0.49017,-0.0552878,1.01069
151.048,24.1059,0.4876,-0.05660536,1.01043
151.648,24.16029,0.48409,-0.05561003,1.01016
152.248,24.2149,0.48079,-0.05706826,1.0099
152.848,24.26955,0.47912,-0.05705004,1.00964
153.448,24.3244,0.48187,-0.0566837,1.00937
154.048,24.3786,0.47701,-0.05672002,1.0091
154.648,24.43289,0.47832,-0.05674312,1.00883
155.248,24.48712,0.47777,-0.05801332,1.00856
155.848,24.5414,0.47773,-0.05768902,1.00829
156.448,24.59583,0.47838,-0.05770002,1.00802
157.048,24.65031,0.48142,-0.05770049,1.00775
157.648,24.70489,0.48019,-0.05803242,1.00747
158.248,24.75935,0.4814,-0.05802891,1.0072
158.848,24.81383,0.48112,-0.05804356,1.00692
159.448,24.868,0.48112,-0.05933967,1.00664
160.048,24.92223,0.48489,-0.05654536,1.00636
160.648,24.9766,0.48277,-0.05668981,1.00608
161.248,25.03095,0.48516,-0.05671704,1.0058
161.848,25.08544,0.48776,-0.05563788,1.00552
162.448,25.13984,0.4872,-0.05703931,1.00524
163.048,25.19416,0.48684,-0.05701121,1.00495
163.648,25.24851,0.48908,-0.05539983,1.00466
164.248,25.30266,0.49077,-0.055401,1.00438
164.848,25.35709,0.49094,-0.05668897,1.00409
165.448,25.41139,0.49262,-0.05669651,1.0038
166.048,25.46528,0.49433,-0.05804089,1.00351
166.648,25.51975,0.49469,-0.05803167,1.00322
167.248,25.57416,0.49423,-0.05903031,1.00293
167.848,25.62866,0.49394,-0.05935006,1.00263
168.448,25.6834,0.49614,-0.05931378,1.00234
169.048,25.73766,0.4959,-0.05900588,1.00204
169.648,25.7917,0.49824,-0.05769541,1.00174
170.248,25.84587,0.49844,-0.05881545,1.00145
170.848,25.90002,0.49999,-0.05902014,1.00115
171.448,25.95429,0.49849,-0.0576963,1.00085
172.048,26.00864,0.50168,-0.05769995,1.00054
172.648,26.06281,0.49771,-0.05638311,1.00024
173.248,26.1172,0.50116,-0.05686585,0.99994
173.848,26.17135,0.50186,-0.0580403,0.99963
174.448,26.2255,0.50283,-0.05806516,0.99933
175.048,26.27967,0.50288,-0.0593499,0.99902
175.648,26.3337,0.50368,-0.05942913,0.99871
176.248,26.38782,0.50309,-0.05903934,0.9984
176.848,26.44185,0.50548,-0.05912927,0.99809
177.448,26.49592,0.50443,-0.05785308,0.99778
178.048,26.54993,0.50632,-0.05781007,0.99747
178.648,26.6039,0.50699,-0.05913697,0.99716
179.248,26.65796,0.50764,-0.05913,0.99684
179.848,26.7119,0.50728,-0.05913137,0.99653
180.448,26.7658,0.50857,-0.05776679,0.99621
181.048,26.8195,0.5094,-0.05843223,0.9959
181.648,26.87343,0.50911,-0.05912025,0.99558
182.248,26.9272,0.50865,-0.0591332,0.99526
182.848,26.9811,0.51192,-0.06044197,0.99494
183.448,27.03489,0.51128,-0.06049647,0.99461
184.048,27.0886,0.51167,-0.0594595,0.99429
184.648,27.1423,0.51528,-0.05841687,0.99397
185.248,27.1961,0.51397,-0.05847188,0.99364
185.848,27.24969,0.51496,-0.05978911,0.99332
186.448,27.3033,0.51515,-0.05945743,0.99299
187.048,27.3569,0.51514,-0.05946,0.99266
187.648,27.41047,0.5147,-0.05946,0.99233
188.248,27.46415,0.51801,-0.05941864,0.99201
188.848,27.5177,0.51831,-0.06077146,0.99167
189.448,27.57142,0.51712,-0.06154148,0.99134
190.048,27.6249,0.51897,-0.06067465,0.99101
190.648,27.67853,0.51893,-0.06067,0.99068
191.248,27.73238,0.52333,-0.06067,0.99034
191.848,27.7859,0.5228,-0.0606738,0.99001
192.448,27.83969,0.52462,-0.05934738,0.98967
193.048,27.89347,0.52528,-0.05934998,0.98933
193.648,27.947,0.52522,-0.05935013,0.98899
194.248,28.00064,0.524,-0.0593908,0.98865
194.848,28.05415,0.52631,-0.06065948,0.98831
195.448,28.1076,0.52826,-0.06202612,0.98797
196.048,28.16113,0.52502,-0.06067415,0.98763
196.648,28.2146,0.52758,-0.06065997,0.98728
197.248,28.26815,0.52949,-0.06066,0.98694
197.848,28.3215,0.52633,-0.06066054,0.98659
198.448,28.37505,0.52788,-0.06195432,0.98625
199.048,28.42848,0.53127,-0.06066754,0.9859
199.648,28.48165,0.52995,-0.06066001,0.98555
200.248,28.53507,0.53072,-0.06066006,0.9852
200.848,28.5886,0.53012,-0.06062881,0.98485
201.448,28.6422,0.53181,-0.06210424,0.9845
202.048,28.696,0.53316,-0.06283083,0.98415
202.648,28.74946,0.53294,-0.06208997,0.98379
203.248,28.8029,0.53323,-0.06185574,0.98344
203.848,28.8563,0.53219,-0.06078011,0.98308
204.448,28.9097,0.53552,-0.06077996,0.98273
205.048,28.9632,0.53559,-0.061692,0.98237
205.648,29.0169,0.53724,-0.06079596,0.98201
206.248,29.07047,0.53689,-0.06077,0.98165
206.848,29.1241,0.53801,-0.05997756,0.98129
207.448,29.1777,0.53868,-0.06077146,0.98093
208.048,29.23116,0.53953,-0.06076961,0.98057
208.648,29.28483,0.53863,-0.06145437,0.98021
209.248,29.3383,0.54,-0.06142495,0.97984
209.848,29.3918,0.53981,-0.06274861,0.97948
210.448,29.44547,0.5419,-0.06275133,0.97911
211.048,29.49907,0.54085,-0.06333482,0.97875
211.648,29.55255,0.54247,-0.06296987,0.97838
212.248,29.60608,0.54472,-0.06297,0.97801
212.848,29.65962,0.54329,-0.06297,0.97764
213.448,29.71322,0.54519,-0.06297,0.97727
214.048,29.76675,0.54626,-0.06297,0.9769
214.648,29.82044,0.54501,-0.06297007,0.97653
215.248,29.874,0.54635,-0.06395028,0.97616
215.848,29.9275,0.54662,-0.06437654,0.97579
216.448,29.98123,0.54891,-0.0639872,0.97541
217.048,30.03477,0.54762,-0.06428235,0.97504
217.648,30.0882,0.54766,-0.06428,0.97466
218.248,30.1416,0.54989,-0.06428,0.97428
218.848,30.19527,0.55031,-0.06428049,0.9739
219.448,30.2488,0.55026,-0.06339724,0.97353
220.048,30.3025,0.55029,-0.06296,0.97315
220.648,30.35612,0.54946,-0.06290766,0.97277
221.248,30.4098,0.55093,-0.06428001,0.97238
221.848,30.4635,0.55094,-0.06292266,0.972
222.448,30.51727,0.55228,-0.06299431,0.97162
223.048,30.5708,0.55615,-0.06428016,0.97124
223.648,30.6243,0.55339,-0.06428,0.97085
224.248,30.67765,0.5563,-0.06428002,0.97047
224.848,30.73119,0.55404,-0.06429389,0.97008
225.448,30.7849,0.55386,-0.06533556,0.96969
226.048,30.83853,0.55623,-0.06428968,0.9693
226.648,30.89225,0.55706,-0.06428917,0.96891
227.248,30.9458,0.55653,-0.06301411,0.96853
227.848,30.9994,0.55824,-0.06296985,0.96813
228.448,31.05307,0.55941,-0.06443858,0.96774
229.048,31.10681,0.5596,-0.06494052,0.96735
229.648,31.16044,0.55885,-0.06424325,0.96696
230.248,31.2142,0.56034,-0.06438477,0.96656
230.848,31.26783,0.55989,-0.0649387,0.96617
231.448,31.32163,0.56135,-0.06361492,0.96577
232.048,31.37544,0.56237,-0.06408142,0.96538
232.648,31.4292,0.56228,-0.06626054,0.96498
233.248,31.48303,0.5643,-0.0663193,0.96458
233.848,31.5367,0.56507,-0.06493997,0.96418
234.448,31.5903,0.56399,-0.06427259,0.96378
235.048,31.64402,0.56645,-0.06395989,0.96338
235.648,31.6976,0.56722,-0.06397664,0.96298
236.248,31.75126,0.5669,-0.06461922,0.96258
236.848,31.80505,0.56776,-0.06457209,0.96218
237.448,31.8587,0.56954,-0.06591649,0.96178
238.048,31.9126,0.56895,-0.06525232,0.96137
238.648,31.9664,0.56941,-0.06527002,0.96097
239.248,32.02026,0.56955,-0.06527,0.96056
239.848,32.07408,0.57109,-0.065267,0.96015
240.448,32.1278,0.57162,-0.06660724,0.95975
241.048,32.18105,0.57473,-0.06791911,0.95934
241.648,32.23474,0.57381,-0.06658686,0.95893
242.248,32.28846,0.5732,-0.06574359,0.95852
242.848,32.34225,0.57375,-0.06526975,0.95811
243.448,32.39634,0.5724,-0.06588367,0.9577
244.048,32.4501,0.57324,-0.06659001,0.95729
244.648,32.50362,0.5744,-0.06641807,0.95687
245.248,32.55697,0.5773,-0.06527058,0.95646
245.848,32.6109,0.57583,-0.06526204,0.95605
246.448,32.66474,0.57685,-0.06659355,0.95563
247.048,32.71886,0.57373,-0.06659015,0.95522
247.648,32.77298,0.57681,-0.0656848,0.9548
248.248,32.82679,0.57441,-0.06526965,0.95438
248.848,32.8806,0.57741,-0.06561137,0.95397
249.448,32.9345,0.57737,-0.06631766,0.95355
250.048,32.98836,0.57556,-0.06624817,0.95313
250.648,33.04208,0.57694,-0.06658208,0.95271
251.248,33.09574,0.57646,-0.06658001,0.95229
251.848,33.14945,0.57689,-0.06657599,0.95187
252.448,33.20345,0.57972,-0.06555821,0.95144
253.048,33.25742,0.57834,-0.06658997,0.95102
253.648,33.31119,0.5805,-0.06661128,0.9506
254.248,33.36526,0.58111,-0.0652595,0.95017
254.848,33.4191,0.5804,-0.0679091,0.94975
255.448,33.4731,0.58216,-0.06637359,0.94932
256.048,33.52733,0.58169,-0.06615007,0.9489
256.648,33.58117,0.58316,-0.06752358,0.94847
257.248,33.6351,0.58441,-0.06747162,0.94804
257.848,33.68881,0.58406,-0.06680429,0.94761
258.448,33.7427,0.58507,-0.06681003,0.94718
259.048,33.79654,0.58719,-0.06675896,0.94675
259.648,33.8504,0.59007,-0.06811975,0.94632
260.248,33.90445,0.58898,-0.06761349,0.94589
260.848,33.95832,0.5891,-0.06848421,0.94546
261.448,34.01231,0.58936,-0.06845003,0.94503
262.048,34.06633,0.5881,-0.0684505,0.9446
262.648,34.12019,0.58966,-0.06744417,0.94416
263.248,34.17415,0.59121,-0.06789275,0.94373
263.848,34.228,0.59069,-0.07003319,0.94329
264.448,34.28197,0.59283,-0.07009996,0.94286
265.048,34.3358,0.59335,-0.07009999,0.94242
265.648,34.38988,0.59322,-0.07010052,0.94198
266.248,34.44403,0.59424,-0.06878186,0.94155
266.848,34.49788,0.59351,-0.06878,0.94111
267.448,34.55178,0.59602,-0.06877995,0.94067
268.048,34.60556,0.59593,-0.06785907,0.94023
268.648,34.65938,0.59547,-0.06774052,0.93979
269.248,34.71342,0.59723,-0.06878036,0.93935
269.848,34.76746,0.59633,-0.06877976,0.93891
270.448,34.82148,0.59715,-0.06875775,0.93847
271.048,34.87547,0.5982,-0.06910659,0.93802
271.648,34.92947,0.59844,-0.06911071,0.93758
272.248,34.98339,0.59906,-0.06914106,0.93714
272.848,35.03735,0.59939,-0.06783819,0.93669
273.448,35.09138,0.59645,-0.06845739,0.93625
274.048,35.1453,0.5988,-0.06977676,0.9358
274.648,35.19956,0.59901,-0.06976999,0.93535
275.248,35.2537,0.59661,-0.07047736,0.93491
275.848,35.3077,0.60021,-0.06992449,0.93446
276.448,35.36183,0.60097,-0.06846086,0.93401
277.048,35.41585,0.60166,-0.06976897,0.93356
277.648,35.46994,0.60186,-0.06878543,0.93311
278.248,35.52401,0.60227,-0.06840848,0.93266
278.848,35.57815,0.60495,-0.07112609,0.93221
279.448,35.6323,0.6018,-0.07109003,0.93176
280.048,35.68651,0.60428,-0.07109703,0.93131
280.648,35.7408,0.60404,-0.06977101,0.93086
281.248,35.795,0.60293,-0.07106613,0.93041
281.848,35.84921,0.60435,-0.07203756,0.92995
282.448,35.90356,0.60594,-0.07206992,0.9295
283.048,35.9578,0.60526,-0.07207,0.92904
283.648,36.01212,0.60701,-0.07207,0.92859
284.248,36.06654,0.60721,-0.07207023,0.92813
284.848,36.12086,0.60668,-0.07131756,0.92768
285.448,36.17521,0.6084,-0.07043284,0.92722
286.048,36.22948,0.6088,-0.07173353,0.92676
286.648,36.2838,0.60884,-0.07109133,0.92631
287.248,36.33809,0.60643,-0.07109,0.92585
287.848,36.39246,0.6078,-0.07109003,0.92539
288.448,36.44685,0.60852,-0.07104007,0.92493
289.048,36.50116,0.61063,-0.07239797,0.92447
289.648,36.55545,0.61034,-0.07372564,0.92401
290.248,36.6098,0.61048,-0.07373238,0.92355
290.848,36.66435,0.61311,-0.07272948,0.92309
291.448,36.71891,0.61274,-0.0727178,0.92262
292.048,36.77355,0.61329,-0.07107709,0.92216
292.648,36.82783,0.61424,-0.07219178,0.9217
293.248,36.8821,0.61441,-0.07258367,0.92123
293.848,36.93634,0.6143,-0.07301087,0.92077
294.448,36.99089,0.61352,-0.07503315,0.92031
295.048,37.04545,0.61319,-0.07503248,0.91984
295.648,37.10014,0.61472,-0.07469979,0.91937
296.248,37.15477,0.61341,-0.07469338,0.91891
296.848,37.20919,0.61219,-0.07338848,0.91844
297.448,37.2637,0.61399,-0.07239883,0.91797
298.048,37.31814,0.61112,-0.0724,0.91751
298.648,37.3726,0.61331,-0.0724,0.91704
299.248,37.42715,0.61567,-0.07240001,0.91657
299.848,37.4818,0.61377,-0.07240477,0.9161
300.448,37.53635,0.61424,-0.07369995,0.91563
301.048,37.59083,0.61881,-0.07370723,0.91516
301.648,37.64532,0.61454,-0.07305549,0.91469
302.248,37.69972,0.61563,-0.07306002,0.91422
302.848,37.75417,0.61807,-0.07447765,0.91375
303.448,37.80858,0.61849,-0.07437997,0.91328
304.048,37.86312,0.61954,-0.07438099,0.9128
304.648,37.91769,0.61684,-0.07567554,0.91233
305.248,37.97258,0.61813,-0.07300555,0.91186
305.848,38.02727,0.61943,-0.07306004,0.91138
306.448,38.08202,0.61828,-0.07305924,0.91091
307.048,38.13664,0.61962,-0.07189377,0.91043
307.648,38.1911,0.62142,-0.07475824,0.90996
308.248,38.24577,0.62174,-0.07600632,0.90948
308.848,38.30041,0.61867,-0.07469916,0.90901
309.448,38.3551,0.61964,-0.07470186,0.90853
310.048,38.40961,0.61946,-0.07601834,0.90805
310.648,38.46409,0.61643,-0.07601999,0.90758
311.248,38.51872,0.62032,-0.07602,0.9071
311.848,38.57343,0.61865,-0.07602,0.90662
312.448,38.62823,0.61818,-0.07602,0.90614
313.048,38.68314,0.61765,-0.07602,0.90566
313.648,38.73789,0.61901,-0.07602,0.90518
314.248,38.7926,0.61618,-0.07602098,0.9047
314.848,38.8475,0.61629,-0.07731706,0.90422
315.448,38.9022,0.61605,-0.07732915,0.90374
316.048,38.95702,0.61938,-0.07603543,0.90326
316.648,39.012,0.61657,-0.07602001,0.90278
317.248,39.06688,0.61583,-0.07602,0.9023
317.848,39.12192,0.61641,-0.07602,0.90181
318.448,39.17688,0.61615,-0.07602,0.90133
319.048,39.2318,0.61612,-0.07601509,0.90085
319.648,39.28675,0.61808,-0.07510686,0.90036
320.248,39.34166,0.61787,-0.07602052,0.89988
320.848,39.39652,0.61935,-0.07717011,0.8994
321.448,39.4512,0.61722,-0.07732996,0.89891
322.048,39.50612,0.61945,-0.07733,0.89843
322.648,39.56106,0.61962,-0.07733,0.89794
323.248,39.61603,0.6184,-0.07732988,0.89745
323.848,39.67118,0.61908,-0.07596535,0.89697
324.448,39.72623,0.62043,-0.0760201,0.89648
325.048,39.78138,0.61836,-0.0760182,0.89599
325.648,39.83633,0.62188,-0.07733421,0.89551
326.248,39.89113,0.62393,-0.07733001,0.89502
326.848,39.94591,0.6215,-0.07724261,0.89453
327.448,40.0009,0.6216,-0.07601978,0.89404
328.048,40.05579,0.62304,-0.07602007,0.89355
328.648,40.11111,0.62285,-0.07605961,0.89306
329.248,40.16602,0.62435,-0.0786883,0.89258
329.848,40.22112,0.62422,-0.07733587,0.89209
330.448,40.27618,0.62249,-0.07734001,0.8916
331.048,40.33121,0.62618,-0.07734,0.8911
331.648,40.38628,0.62664,-0.07734,0.89061
332.248,40.4413,0.62649,-0.07734003,0.89012
332.848,40.49627,0.62785,-0.07833779,0.88963
333.448,40.55102,0.62854,-0.07865993,0.88914
334.048,40.60613,0.62762,-0.07866027,0.88865
334.648,40.66124,0.62729,-0.07789673,0.88815
335.248,40.71648,0.62688,-0.07733982,0.88766
335.848,40.7718,0.63196,-0.07734,0.88717
336.448,40.82694,0.63197,-0.07734009,0.88667
337.048,40.88219,0.63116,-0.07746068,0.88618
337.648,40.93727,0.6341,-0.07797556,0.88569
338.248,40.99256,0.63161,-0.07865961,0.88519
338.848,41.04779,0.63134,-0.07842148,0.8847
339.448,41.10286,0.63417,-0.07799987,0.8842
340.048,41.15817,0.63344,-0.078,0.88371
340.648,41.21334,0.63361,-0.078,0.88321
341.248,41.2686,0.63559,-0.07800355,0.88271
341.848,41.32399,0.63512,-0.07802062,0.88222
342.448,41.3793,0.6343,-0.0793319,0.88172
343.048,41.43481,0.63257,-0.07925965,0.88122
343.648,41.49013,0.633,-0.07800011,0.88073
344.248,41.5456,0.63259,-0.07667457,0.88023
344.848,41.60083,0.63459,-0.07735087,0.87973
345.448,41.65607,0.63657,-0.07733432,0.87923
346.048,41.71141,0.63899,-0.07930685,0.87874
346.648,41.76625,0.63721,-0.07792941,0.87824
347.248,41.82156,0.63912,-0.07799997,0.87774
347.848,41.87684,0.63853,-0.07802557,0.87724
348.448,41.9321,0.63785,-0.07932046,0.87674
349.048,41.98785,0.63746,-0.08046881,0.87624
349.648,42.0435,0.64211,-0.07997687,0.87574
350.248,42.0989,0.63867,-0.07997,0.87524
350.848,42.15425,0.64159,-0.07997,0.87474
351.448,42.20967,0.64201,-0.07996998,0.87424
352.048,42.2645,0.64176,-0.07967671,0.87374
352.648,42.31969,0.63891,-0.07867352,0.87324
353.248,42.37516,0.63975,-0.07861182,0.87274
353.848,42.4306,0.64112,-0.07996966,0.87223
354.448,42.48677,0.64038,-0.07996987,0.87173
355.048,42.5424,0.64328,-0.08039758,0.87123
355.648,42.59794,0.64621,-0.0809562,0.87073
356.248,42.65341,0.64447,-0.08095999,0.87023
356.848,42.70895,0.64496,-0.08096,0.86972
357.448,42.7645,0.64659,-0.08096,0.86922
358.048,42.82023,0.64695,-0.08096,0.86872
358.648,42.87597,0.64709,-0.08096,0.86821
359.248,42.93176,0.64756,-0.08096006,0.86771
359.848,42.9875,0.64766,-0.08070097,0.86721
360.448,43.0432,0.65134,-0.08063005,0.8667
361.048,43.09898,0.64951,-0.08062982,0.8662
361.648,43.1546,0.65137,-0.08135902,0.86569
362.248,43.21028,0.65121,-0.08129,0.86519
362.848,43.26594,0.65254,-0.08128495,0.86468
363.448,43.32143,0.6515,-0.08195325,0.86418
364.048,43.37719,0.65591,-0.08194974,0.86367
364.648,43.43292,0.65376,-0.08284746,0.86317
365.248,43.4887,0.65548,-0.08324293,0.86266
365.848,43.54469,0.65467,-0.08228197,0.86215
366.448,43.60053,0.65794,-0.08228013,0.86165
367.048,43.65643,0.65648,-0.08297926,0.86114
367.648,43.7121,0.66001,-0.08370479,0.86064
368.248,43.76798,0.66015,-0.08391003,0.86013
368.848,43.82385,0.66279,-0.0838995,0.85962
369.448,43.87976,0.66259,-0.08261354,0.85911
370.048,43.93591,0.6628,-0.0812901,0.85861
370.648,43.99187,0.66277,-0.08127096,0.8581
371.248,44.04783,0.66457,-0.08260154,0.85759
371.848,44.10391,0.66552,-0.0826,0.85708
372.448,44.16004,0.66432,-0.0826,0.85658
373.048,44.21609,0.66748,-0.0826,0.85607
373.648,44.27198,0.66694,-0.08384867,0.85556
374.248,44.328,0.66872,-0.0825581,0.85505
374.848,44.38392,0.66808,-0.08513923,0.85454
375.448,44.43999,0.66804,-0.08425112,0.85404
376.048,44.49593,0.66871,-0.08391997,0.85353
376.648,44.552,0.66775,-0.08392,0.85302
377.248,44.6081,0.66778,-0.08391801,0.85251
377.848,44.66417,0.67394,-0.08425261,0.852
378.448,44.72011,0.67176,-0.08425114,0.85149
379.048,44.77618,0.67348,-0.08600738,0.85098
379.648,44.8322,0.67233,-0.08600275,0.85047
380.248,44.88864,0.67264,-0.08599417,0.84996
380.848,44.94477,0.67349,-0.08567757,0.84945
381.448,45.0009,0.67581,-0.08467663,0.84894
382.048,45.05715,0.67735,-0.08468,0.84843
382.648,45.11337,0.68091,-0.08468033,0.84792
383.248,45.16961,0.67834,-0.08533355,0.84741
383.848,45.22589,0.67752,-0.0853396,0.8469
384.448,45.28198,0.68035,-0.08786618,0.84639
385.048,45.33805,0.67988,-0.08797997,0.84588
385.648,45.3943,0.68319,-0.08798,0.84537
386.248,45.45033,0.68121,-0.08798,0.84486
386.848,45.50662,0.68176,-0.08803101,0.84434
387.448,45.56278,0.68179,-0.08668225,0.84383
388.048,45.61905,0.68363,-0.08797962,0.84332
388.648,45.67546,0.68354,-0.08657503,0.84281
389.248,45.73175,0.6861,-0.087465,0.8423
389.848,45.78799,0.68559,-0.08798,0.84179
390.448,45.8444,0.68759,-0.08847098,0.84128
391.048,45.90045,0.6873,-0.0899466,0.84076
391.648,45.9568,0.69031,-0.0899282,0.84025
392.248,46.0131,0.6885,-0.0893032,0.83974
392.848,46.06942,0.69326,-0.08929,0.83923
393.448,46.1258,0.69238,-0.08938203,0.83872
394.048,46.18207,0.69441,-0.09061052,0.8382
394.648,46.23832,0.69579,-0.09008946,0.83769
395.248,46.29473,0.69747,-0.08928974,0.83718
395.848,46.3512,0.69869,-0.08928846,0.83667
396.448,46.4078,0.69997,-0.09061309,0.83616
397.048,46.46432,0.69955,-0.0907185,0.83564
397.648,46.52064,0.70059,-0.09127224,0.83513
398.248,46.57717,0.7059,-0.09122505,0.83462
398.848,46.63365,0.70404,-0.0906107,0.8341
399.448,46.69035,0.70527,-0.09194026,0.83359
400.048,46.74686,0.70677,-0.09193003,0.83308
400.648,46.8035,0.70838,-0.09209473,0.83257
401.248,46.8601,0.7103,-0.09324001,0.83205
401.848,46.91652,0.71063,-0.0936166,0.83154
402.448,46.97311,0.71214,-0.09323189,0.83103
403.048,47.02969,0.7145,-0.09192005,0.83051
403.648,47.08576,0.71486,-0.09286315,0.83
404.248,47.14224,0.71408,-0.0934106,0.82949
404.848,47.19873,0.71636,-0.09358493,0.82898
405.448,47.25577,0.7196,-0.09451256,0.82846
406.048,47.3127,0.72129,-0.09352093,0.82795
406.648,47.3692,0.7207,-0.09357563,0.82744
407.248,47.42593,0.72545,-0.09489438,0.82692
407.848,47.4825,0.72505,-0.09553289,0.82641
408.448,47.5392,0.72813,-0.09555003,0.8259
409.048,47.596,0.72688,-0.09588033,0.82538
409.648,47.65263,0.72875,-0.09758528,0.82487
410.248,47.70941,0.73275,-0.09751999,0.82436
410.848,47.76618,0.73365,-0.09752001,0.82384
411.448,47.82308,0.73526,-0.09741032,0.82333
412.048,47.87979,0.73946,-0.09752,0.82282
412.648,47.93642,0.73937,-0.09925471,0.8223
413.248,47.99309,0.74111,-0.09916274,0.82179
413.848,48.0497,0.74456,-0.10015,0.82128
414.448,48.1066,0.74756,-0.1001,0.82076
415.048,48.16344,0.75152,-0.10147,0.82025
415.648,48.2202,0.7532,-0.10147,0.81974
416.248,48.27691,0.75248,-0.10147,0.81922
416.848,48.3339,0.75669,-0.10181,0.81871
417.448,48.39077,0.76055,-0.10279,0.8182
418.048,48.44806,0.76426,-0.10279,0.81768
418.648,48.50488,0.76556,-0.10312,0.81717
419.248,48.5617,0.76493,-0.10444,0.81666
419.848,48.61851,0.7698,-0.10443,0.81614
420.448,48.67552,0.77305,-0.1057,0.81563
421.048,48.73255,0.77257,-0.10707,0.81512
421.648,48.78971,0.77695,-0.10707,0.8146
422.248,48.8468,0.7774,-0.10836,0.81409
422.848,48.90359,0.77948,-0.10726,0.81358
423.448,48.96048,0.78348,-0.10838,0.81306
424.048,49.01736,0.78788,-0.10958,0.81255
424.648,49.0743,0.78489,-0.10969,0.81204
425.248,49.13126,0.78888,-0.10969,0.81152
425.848,49.1883,0.78904,-0.111,0.81101
426.448,49.24539,0.79069,-0.11234,0.8105
427.048,49.3025,0.79086,-0.1123,0.80999
427.648,49.3596,0.79369,-0.11364,0.80947
428.248,49.41653,0.79881,-0.1149,0.80896
428.848,49.4735,0.79917,-0.11726,0.80845
429.448,49.5304,0.80312,-0.11771,0.80794
430.048,49.5873,0.80505,-0.11805,0.80742
430.648,49.64431,0.80718,-0.1204,0.80691
431.248,49.70133,0.81116,-0.12175,0.8064
431.848,49.75842,0.812,-0.12231,0.80589
432.448,49.81547,0.81606,-0.12478,0.80537
433.048,49.87256,0.82218,-0.12532,0.80486
433.648,49.92954,0.82435,-0.12747,0.80435
434.248,49.98665,0.82789,-0.12758,0.80384
434.848,50.0438,0.83173,-0.12933,0.80332
435.448,50.10103,0.83527,-0.12986,0.80281
436.048,50.15822,0.92546,-0.13297,0.8023
436.648,50.21537,0.91344,-0.134,0.80179
437.248,50.27239,0.89478,-0.13582,0.80128
437.848,50.32949,0.88034,-0.13798,0.80077
438.448,50.38677,0.87156,-0.14091,0.80025
439.048,50.44409,0.86701,-0.14345,0.79974
439.648,50.50141,0.8695,-0.14548,0.79923
440.248,50.55872,0.8713,-0.14587,0.79872
440.848,50.61588,0.87622,-0.15036,0.79821
441.448,50.67302,0.87855,-0.15293,0.7977
442.048,50.7303,0.88354,-0.15511,0.79719
442.648,50.7876,0.89047,-0.15733,0.79668
443.248,50.84506,0.89869,-0.16129,0.79617
443.848,50.90249,0.90316,-0.16481,0.79565
444.448,50.95981,0.91058,-0.16782,0.79514
445.048,51.0169,0.91942,-0.17116,0.79463
445.648,51.07399,0.92601,-0.17555,0.79412
446.248,51.13112,0.93338,-0.17812,0.79361
446.848,51.1881,0.94443,-0.18087,0.7931
447.448,51.2454,0.94881,-0.18565,0.79259
448.048,51.30284,0.96221,-0.19066,0.79208
448.648,51.36051,0.97124,-0.19704,0.79157
449.248,51.41785,0.98109,-0.20084,0.79106
449.848,51.4752,0.99269,-0.20699,0.79055
450.448,51.53241,1.0018,-0.20811,0.79004
451.048,51.5897,1.01167,-0.21606,0.78954
451.648,51.64721,1.02383,-0.22089,0.78903
452.248,51.70455,1.03739,-0.22863,0.78852
452.848,51.76208,1.05075,-0.23318,0.78801
453.448,51.81955,1.0633,-0.24039,0.7875
454.048,51.87712,1.07564,-0.24722,0.78699
454.648,51.93464,1.08955,-0.25378,0.78648
455.248,51.9921,1.10613,-0.26357,0.78597
455.848,52.0495,1.12613,-0.2696,0.78547
456.448,52.1069,1.13672,-0.27985,0.78496
457.048,52.16469,1.15792,-0.28836,0.78445
457.648,52.2223,1.17085,-0.29631,0.78394
458.248,52.28003,1.19047,-0.30691,0.78344
458.848,52.3375,1.20914,-0.31554,0.78293
459.448,52.39515,1.23151,-0.33059,0.78242
460.048,52.45264,1.25529,-0.34133,0.78191
460.648,52.51025,1.27988,-0.35148,0.78141
461.248,52.56769,1.30206,-0.36533,0.7809
461.848,52.62514,1.32512,-0.37916,0.78039
462.448,52.68265,1.34936,-0.39214,0.77989
463.048,52.7402,1.37935,-0.40787,0.77938
463.648,52.7977,1.40789,-0.42392,0.77887
464.248,52.8554,1.43838,-0.43879,0.77837
464.848,52.91305,1.46902,-0.45728,0.77786
465.448,52.9707,1.49612,-0.47544,0.77736
466.048,53.02842,1.53315,-0.49456,0.77685
466.648,53.086,1.56485,-0.51557,0.77635
467.248,53.14357,1.59876,-0.53875,0.77584
467.848,53.20086,1.63552,-0.56301,0.77534
468.448,53.2584,1.67225,-0.5848,0.77483
469.048,53.3162,1.70979,-0.61163,0.77433
469.648,53.3741,1.75804,-0.6367,0.77382
470.248,53.432,1.80376,-0.66863,0.77332
470.848,53.48964,1.83857,-0.6985,0.77282
471.448,53.5474,1.87548,-0.7304,0.77231
472.048,53.6051,1.91434,-0.76264,0.77181
472.648,53.6628,1.96956,-0.79958,0.7713
473.248,53.72055,2.01222,-0.8347,0.7708
473.848,53.77822,2.06521,-0.87399,0.7703
474.448,53.8359,2.12096,-0.91672,0.7698
475.048,53.8936,2.18807,-0.95912,0.76929
475.648,53.95131,2.2347,-1.01037,0.76879
476.248,54.009,2.27961,-1.05699,0.76829
476.848,54.06666,2.32381,-1.10966,0.76779
477.448,54.1244,2.38078,-1.16054,0.76729
478.048,54.1823,2.43322,-1.21559,0.76678
478.648,54.24005,2.48058,-1.27537,0.76628
479.248,54.2979,2.53327,-1.33616,0.76578
479.848,54.35569,2.58224,-1.39914,0.76528
480.448,54.4134,2.63966,-1.46339,0.76478
481.048,54.4712,2.68617,-1.53517,0.76428
481.648,54.52887,2.7421,-1.60301,0.76378
482.248,54.58667,2.78095,-1.68049,0.76328
482.848,54.6446,2.83322,-1.75594,0.76278
483.448,54.70254,2.84978,-1.83608,0.76228
484.048,54.76047,2.88177,-1.91985,0.76178
484.648,54.81821,2.92348,-2.00107,0.76128
485.248,54.876,2.95479,-2.09199,0.76078
485.848,54.93359,2.95779,-2.17818,0.76028
486.448,54.99136,2.97167,-2.27073,0.75979
487.048,55.04925,2.99176,-2.35694,0.75929
487.648,55.10734,2.94491,-2.45426,0.75879
488.248,55.16548,2.95212,-2.54349,0.75829
488.848,55.2235,2.9336,-2.63954,0.7578
489.448,55.28161,2.87258,-2.7297,0.7573
490.048,55.3396,2.83362,-2.82311,0.7568
490.648,55.3975,2.78139,-2.91751,0.7563
491.248,55.4554,2.71725,-3.00774,0.75581
491.848,55.5134,2.6393,-3.0992,0.75531
492.448,55.5717,2.5546,-3.18602,0.75482
493.048,55.63005,2.45768,-3.27521,0.75432
493.648,55.6882,2.35145,-3.35735,0.75383
494.248,55.7467,2.23424,-3.43949,0.75333
494.848,55.8049,2.1145,-3.51468,0.75284
495.448,55.8634,1.98313,-3.58969,0.75234
496.048,55.92188,1.85001,-3.65997,0.75185
496.648,55.9802,1.71294,-3.72469,0.75135
497.248,56.03875,1.57027,-3.78523,0.75086
497.848,56.09715,1.42877,-3.83777,0.75037
498.448,56.15555,1.28819,-3.89044,0.74987
499.048,56.21389,1.1539,-3.93226,0.74938
499.648,56.2721,1.02477,-3.97138,0.74889
500.248,56.33041,0.90363,-4.00189,0.74839
500.848,56.38884,0.78961,-4.03331,0.7479
501.448,56.4474,0.68698,-4.05482,0.74741
502.048,56.506,0.59226,-4.07354,0.74692
502.648,56.56439,0.50829,-4.08967,0.74643
503.248,56.6227,0.43575,-4.1022,0.74594
503.848,56.68082,0.37083,-4.11361,0.74544
504.448,56.73887,0.31562,-4.12265,0.74495
505.048,56.79687,0.26633,-4.12725,0.74446
505.648,56.85482,0.22728,-4.13138,0.74397
506.248,56.913,0.19452,-4.13597,0.74348
506.848,56.97115,0.16662,-4.13746,0.743
507.448,57.0292,0.14354,-4.14054,0.74251
508.048,57.0873,0.12544,-4.1392,0.74202
508.648,57.14536,0.11187,-4.14043,0.74153
509.248,57.2036,0.09958065,-4.14282,0.74104
509.848,57.26183,0.08807587,-4.1429,0.74055
510.448,57.32003,0.07995276,-4.1445,0.74007
511.048,57.37816,0.07836552,-4.1445,0.73958
511.648,57.43629,0.07134853,-4.14414,0.73909
512.248,57.49434,0.06903585,-4.14185,0.7386
512.848,57.5523,0.06177472,-4.14186,0.73812
513.448,57.6105,0.05093803,-4.14318,0.73763
514.048,57.66875,0.04376259,-4.1445,0.73715
514.648,57.7272,0.04543548,-4.1445,0.73666
515.248,57.78549,0.05147158,-4.1445,0.73618
515.848,57.8438,0.05338824,-4.1445,0.73569
516.448,57.90214,0.05679248,-4.14581,0.73521
517.048,57.9604,0.05979741,-4.14449,0.73472
517.648,58.01866,0.06279425,-4.14397,0.73424
518.248,58.0769,0.06022125,-4.14443,0.73375
518.848,58.1354,0.06190105,-4.14586,0.73327
519.448,58.19392,0.06098885,-4.1445,0.73279
520.048,58.25218,0.05909487,-4.14456,0.73231
520.648,58.31057,0.06120694,-4.14449,0.73182
521.248,58.369,0.06126442,-4.14449,0.73134
521.848,58.42754,0.06119681,-4.1432,0.73086
522.448,58.4863,0.06092758,-4.14318,0.73038
523.048,58.54473,0.06227989,-4.14313,0.7299
523.648,58.60341,0.05972067,-4.14449,0.72942
524.248,58.6619,0.06175971,-4.145,0.72894
524.848,58.7205,0.0589561,-4.14618,0.72846
525.448,58.779,0.06002708,-4.14712,0.72798
526.048,58.83752,0.06165834,-4.14449,0.7275
526.648,58.89601,0.06206035,-4.14444,0.72702
527.248,58.95451,0.05944659,-4.14613,0.72654
527.848,59.01288,0.06013588,-4.14614,0.72606
528.448,59.07135,0.05569055,-4.14615,0.72558
529.048,59.1298,0.05805257,-4.14482,0.72511
529.648,59.1882,0.05585355,-4.14581,0.72463
530.248,59.24694,0.05453589,-4.14571,0.72415
530.848,59.3054,0.05588564,-4.1457,0.72367
531.448,59.36387,0.05465665,-4.1457,0.7232
532.048,59.42253,0.0552034,-4.1457,0.72272
532.648,59.481,0.05674848,-4.1457,0.72225
533.248,59.5395,0.0565636,-4.1457,0.72177
533.848,59.59794,0.05687811,-4.1457,0.7213
534.448,59.65648,0.05825578,-4.14563,0.72082
535.048,59.7152,0.05998643,-4.14588,0.72035
535.648,59.7742,0.0606353,-4.14505,0.71987
536.248,59.833,0.06253564,-4.14623,0.7194
536.848,59.8919,0.06012151,-4.14636,0.71893
537.448,59.9507,0.05902352,-4.14503,0.71846
538.048,60.00956,0.06033503,-4.14373,0.71798
538.648,60.0681,0.06153834,-4.14507,0.71751
539.248,60.1267,0.06234568,-4.14439,0.71704
539.848,60.1855,0.06243384,-4.14434,0.71657
540.448,60.24445,0.06034455,-4.14571,0.7161
541.048,60.30344,0.06274619,-4.14498,0.71563
541.648,60.36226,0.0623256,-4.14505,0.71516
542.248,60.42125,0.0648302,-4.14649,0.71469
542.848,60.48015,0.06518099,-4.14648,0.71422
543.448,60.5389,0.06701282,-4.1452,0.71375
544.048,60.5978,0.06543726,-4.1465,0.71328
544.648,60.6567,0.06449645,-4.14378,0.71281
545.248,60.7157,0.06495385,-4.14522,0.71234
545.848,60.7747,0.06485832,-4.14647,0.71188
546.448,60.83356,0.06351218,-4.14647,0.71141
547.048,60.8925,0.06335922,-4.14561,0.71094
547.648,60.9513,0.06042502,-4.1452,0.71047
548.248,61.01022,0.06370847,-4.14779,0.71001
548.848,61.06916,0.06200717,-4.14647,0.70954
549.448,61.12791,0.06320488,-4.14511,0.70908
550.048,61.18682,0.06314052,-4.14515,0.70861
550.648,61.2458,0.06483913,-4.14664,0.70815
551.248,61.3047,0.06367564,-4.14773,0.70768
551.848,61.36379,0.06282007,-4.14647,0.70722
552.448,61.4228,0.06386869,-4.14646,0.70676
553.048,61.4817,0.06279335,-4.14713,0.70629
553.648,61.5406,0.06462177,-4.14713,0.70583
554.248,61.59947,0.06400927,-4.14713,0.70537
554.848,61.65857,0.0688868,-4.14559,0.70491
555.448,61.71756,0.06150821,-4.14559,0.70445
556.048,61.77672,0.06560016,-4.14559,0.70398
556.648,61.83563,0.06628629,-4.14628,0.70352
557.248,61.8947,0.06815302,-4.14555,0.70306
557.848,61.95375,0.06447792,-4.1456,0.7026
558.448,62.0129,0.06450737,-4.1456,0.70214
559.048,62.07196,0.06311436,-4.1456,0.70169
559.648,62.131,0.06239952,-4.1456,0.70123
560.248,62.19008,0.06662882,-4.14691,0.70077
560.848,62.2491,0.06242987,-4.1469,0.70031
561.448,62.30828,0.06316622,-4.14692,0.69985
562.048,62.3675,0.0640605,-4.14691,0.6994
562.648,62.42661,0.06381124,-4.14624,0.69894
563.248,62.48581,0.0622878,-4.14593,0.69848
563.848,62.5447,0.06036971,-4.14593,0.69803
564.448,62.6036,0.06007779,-4.1461,0.69757
565.048,62.6626,0.06093062,-4.14703,0.69712
565.648,62.72159,0.06012558,-4.14592,0.69666
566.248,62.7806,0.06219453,-4.14593,0.69621
566.848,62.83965,0.05913579,-4.14594,0.69575
567.448,62.89869,0.05892953,-4.14592,0.6953
568.048,62.95777,0.05848684,-4.14523,0.69485
568.648,63.017,0.05999347,-4.14526,0.6944
569.248,63.07615,0.05834802,-4.14526,0.69394
569.848,63.1353,0.0565731,-4.14526,0.69349
570.448,63.1944,0.05690024,-4.14526,0.69304
571.048,63.2536,0.05817412,-4.14526,0.69259
571.648,63.31275,0.05604971,-4.14526,0.69214
572.248,63.37195,0.05489588,-4.14485,0.69169
572.848,63.4314,0.05430414,-4.1446,0.69124
573.448,63.4907,0.05525893,-4.1446,0.69079
574.048,63.5501,0.05418843,-4.14724,0.69034
574.648,63.6095,0.04950978,-4.14581,0.68989
575.248,63.66861,0.05101842,-4.14581,0.68945
575.848,63.7279,0.04590476,-4.14611,0.689
576.448,63.7871,0.04907212,-4.14581,0.68855
577.048,63.84641,0.04944286,-4.14581,0.6881
577.648,63.90569,0.04627147,-4.14581,0.68766
578.248,63.96515,0.04829802,-4.14567,0.68721
578.848,64.02471,0.04808595,-4.14515,0.68677
579.448,64.08423,0.05134003,-4.14612,0.68632
580.048,64.14379,0.05519937,-4.14614,0.68588
580.648,64.20323,0.07824079,-4.14472,0.68543
581.248,64.2627,0.07951873,-4.14482,0.68499
581.848,64.32212,0.08463401,-4.14473,0.68455
582.448,64.38155,0.08415722,-4.14398,0.6841
583.048,64.44094,0.08297527,-4.14483,0.68366
583.648,64.50025,0.08117655,-4.1448,0.68322
584.248,64.55963,0.08531434,-4.14252,0.68278
584.848,64.6191,0.08669149,-4.14384,0.68234
585.448,64.67856,0.08289566,-4.1433,0.6819
586.048,64.73791,0.08140832,-4.14252,0.68146
586.648,64.79726,0.08345791,-4.1431,0.68102
587.248,64.8567,0.08360702,-4.14516,0.68058
587.848,64.91597,0.08259583,-4.14516,0.68014
588.448,64.97536,0.08250483,-4.14385,0.6797
589.048,65.0346,0.08372624,-4.14384,0.67926
589.648,65.0938,0.08274798,-4.14384,0.67883
590.248,65.15315,0.08077523,-4.14384,0.67839
590.848,65.21245,0.08080133,-4.14384,0.67795
591.448,65.27198,0.08149636,-4.14456,0.67752
592.048,65.33144,0.08237353,-4.14516,0.67708
592.648,65.3908,0.08369853,-4.14516,0.67665
593.248,65.45014,0.08311565,-4.14384,0.67621
593.848,65.50949,0.08392404,-4.14384,0.67578
594.448,65.569,0.08426541,-4.14384,0.67534
595.048,65.62861,0.0865312,-4.14325,0.67491
595.648,65.68828,0.08534064,-4.14316,0.67448
596.248,65.7479,0.08480855,-4.1433,0.67404
596.848,65.80749,0.08618659,-4.1431,0.67361
597.448,65.86712,0.08627974,-4.14415,0.67318
598.048,65.92681,0.08886486,-4.14482,0.67275
598.648,65.98659,0.08917649,-4.14383,0.67232
599.248,66.04644,0.08679538,-4.14384,0.67189
599.848,66.1061,0.08863861,-4.14384,0.67146
600.448,66.16591,0.08780255,-4.14299,0.67103
601.048,66.22548,0.08978034,-4.14285,0.6706
601.648,66.28516,0.08689696,-4.14181,0.67017
602.248,66.34467,0.09024737,-4.14346,0.66974
602.848,66.40429,0.09248902,-4.14285,0.66932
603.448,66.46378,0.09342477,-4.14286,0.66889
604.048,66.52338,0.09224711,-4.14286,0.66846
604.648,66.58288,0.09537809,-4.14286,0.66804
605.248,66.64235,0.09497817,-4.1437,0.66761
605.848,66.70191,0.08959075,-4.14304,0.66719
606.448,66.7615,0.09159302,-4.14252,0.66676
607.048,66.821,0.09148945,-4.14252,0.66634
607.648,66.88056,0.09031668,-4.14252,0.66591
608.248,66.9401,0.09311353,-4.14252,0.66549
608.848,66.99976,0.09366648,-4.14348,0.66507
609.448,67.05963,0.09280322,-4.14321,0.66464
610.048,67.11944,0.09394775,-4.1438,0.66422
610.648,67.17911,0.09258325,-4.14296,0.6638
611.248,67.23876,0.08878025,-4.14296,0.66338
611.848,67.29847,0.0895897,-4.14296,0.66296
612.448,67.35831,0.08876243,-4.14296,0.66254
613.048,67.4182,0.08637705,-4.14297,0.66212
613.648,67.4778,0.08818685,-4.14428,0.6617
614.248,67.53744,0.08462821,-4.14316,0.66128
614.848,67.5969,0.08789048,-4.1427,0.66086
615.448,67.65687,0.08537167,-4.14296,0.66045
616.048,67.71653,0.08562484,-4.14296,0.66003
616.648,67.7766,0.08695733,-4.14164,0.65961
617.248,67.83628,0.0861319,-4.14165,0.6592
617.848,67.896,0.08515752,-4.14294,0.65878
618.448,67.95574,0.08451153,-4.14296,0.65837
619.048,68.01554,0.08788466,-4.14299,0.65795
619.648,68.0754,0.08529308,-4.14265,0.65754
620.248,68.13508,0.08487696,-4.14347,0.65712
620.848,68.1948,0.08696096,-4.1437,0.65671
621.448,68.25453,0.08852126,-4.14462,0.6563
622.048,68.31461,0.08599697,-4.14724,0.65588
622.648,68.37462,0.08865344,-4.14415,0.65547
623.248,68.4346,0.08946579,-4.14285,0.65506
623.848,68.49454,0.08601748,-4.14285,0.65465
624.448,68.55439,0.08696873,-4.14285,0.65424
625.048,68.61423,0.0881613,-4.14285,0.65383
625.648,68.67405,0.08751035,-4.14285,0.65342
626.248,68.73395,0.08591419,-4.14283,0.65301
626.848,68.7941,0.08618492,-4.14252,0.6526
627.448,68.8541,0.08678196,-4.14285,0.65219
628.048,68.91395,0.08467412,-4.14285,0.65179
628.648,68.97383,0.08618305,-4.14285,0.65138
629.248,69.03369,0.08625008,-4.14285,0.65097
629.848,69.0939,0.08645792,-4.14407,0.65057
630.448,69.154,0.09128853,-4.14417,0.65016
631.048,69.2138,0.08917494,-4.14286,0.64976
631.648,69.2737,0.09296153,-4.14285,0.64935
632.248,69.3336,0.08995681,-4.1431,0.64895
632.848,69.39346,0.09184589,-4.14285,0.64854
633.448,69.4537,0.08667038,-4.14181,0.64814
634.048,69.5137,0.08963832,-4.14045,0.64774
634.648,69.57372,0.09014157,-4.14199,0.64733
635.248,69.6336,0.08772183,-4.14097,0.64693
635.848,69.69331,0.087643,-4.14242,0.64653
636.448,69.7531,0.09088038,-4.14241,0.64613
637.048,69.81289,0.09230809,-4.14241,0.64573
637.648,69.8728,0.09024323,-4.14241,0.64533
638.248,69.93279,0.09001251,-4.14242,0.64493
638.848,69.99316,0.08841075,-4.14242,0.64453