File: 01_Data/Hemp_Sheet/Cone/Hemp_Sheet_Cone_HF25Scan_220524_R1.csv
Names,Time,Stack TC,Smoke TC,Exh Press,Smoke Comp,Smoke Meas,CO Meter,CO2 Meter,O2 Meter,Sample Mass,Ext Coeff,Start Test,Flame Verif
Chan Gain,,500,500,1,1,1,1,1,1,1,1,1.0,1.0
Offset,,0,0,0.139323,0,0,0,0,0,0,0,0.0,0.0
Gain,,1,1,25.011,13.8491,15.2622,1,1,1,1.00087,1.03118,1.0,1.0
Units,sec,C,C,Pa,%,%,%,%,%,g,/m,,
Baseline,,19.7873,20.3252,146.842,104.215,104.097,0.000402748,0.0431055,20.9984,-452.408,0.0102368,,
2,0.25,19.3464,20.463,147.197,103.819,103.617,0.000493083,0.0543641,20.9848,563.42,0.0176303,0.0,0.0
4,0.75,18.6433,19.8666,145.978,103.811,103.676,0.000468707,0.0539538,20.9854,563.41,0.0117728,0.0,0.0
6,1.25,17.7446,19.09,147.736,103.81,103.521,0.000448962,0.0536214,20.9861,563.38,0.025237,0.0,0.0
8,1.75,18.0245,18.3753,147.157,103.803,103.839,0.000419642,0.0533523,20.9869,563.2,-0.00318372,0.0,0.0
10,2.25,17.7858,18.3319,146.843,103.811,104.022,0.000395892,0.0529543,20.9878,563.27,-0.0182974,0.0,0.0
12,2.75,17.3135,18.6592,147.908,103.794,103.5,0.000362122,0.0524701,20.9887,563.18,0.0256316,0.0,0.0
14,3.25,17.9972,18.5311,146.284,103.817,103.938,0.000334768,0.0519627,20.9896,563.22,-0.0104888,0.0,0.0
16,3.75,17.6418,18.6821,146.885,103.793,103.619,0.000312612,0.0514482,20.9904,563.26,0.0151849,0.0,0.0
18,4.25,17.9175,18.4316,144.406,103.802,103.735,0.000282558,0.0509093,20.9913,563.19,0.00579834,0.0,0.0
20,4.75,17.4827,18.6894,146.039,103.778,103.431,0.000258215,0.0503627,20.9922,563.26,0.0303723,0.0,0.0
22,5.25,17.4523,18.3753,148.176,103.794,103.549,0.000241682,0.0498194,20.9929,563.2,0.0213909,0.0,0.0
24,5.75,18.2361,18.2392,148.66,103.77,103.433,0.000231157,0.0492888,20.9937,563.21,0.0294286,0.0,0.0
26,6.25,18.5244,18.6693,147.036,103.778,103.624,0.000222633,0.048859,20.9946,563.22,0.0134472,0.0,0.0
28,6.75,18.4978,18.6397,149.902,103.781,103.526,0.000227836,0.0483061,20.9953,563.2,0.0223257,0.0,0.0
30,7.25,18.2572,18.4097,150.157,103.799,103.626,0.000232051,0.0478583,20.9959,563.19,0.0150858,0.0,0.0
32,7.75,18.2446,18.6488,145.65,103.777,103.315,0.000246367,0.0473878,20.9963,563.18,0.0402927,0.0,0.0
34,8.25,18.3285,18.9186,148.437,103.779,103.29,0.000257962,0.0469098,20.9967,563.21,0.0427152,0.0,0.0
36,8.75,17.7153,18.809,146.213,103.773,103.262,0.000289166,0.0465226,20.997,563.22,0.0446479,0.0,0.0
38,9.25,18.3198,18.3305,145.145,103.792,102.871,0.000314442,0.0461408,20.9973,563.22,0.080646,0.0,0.0
40,9.75,18.3789,18.7389,142.84,103.768,102.95,0.000372511,0.0458316,20.9975,563.2,0.0715829,0.0,0.0
42,10.25,18.8693,19.1346,145.472,103.788,103.053,0.000419548,0.0455538,20.9976,563.21,0.064316,0.0,0.0
44,10.75,18.1542,18.6667,144.476,103.762,103.133,0.000457647,0.0453288,20.9977,563.22,0.0549621,0.0,0.0
46,11.25,18.2321,19.1913,145.931,103.772,102.944,0.000532217,0.0452901,20.9974,563.19,0.0724826,0.0,0.0
48,11.75,18.0727,18.538,144.258,103.757,102.756,0.000592619,0.045388,20.9967,563.2,0.0877471,0.0,0.0
50,12.25,18.4281,18.9862,146.392,103.766,102.357,0.000667066,0.0469075,20.9931,563.2,0.123645,0.0,0.0
52,12.75,18.3741,18.7614,147.293,103.758,102.315,0.000727368,0.0494345,20.9876,563.2,0.126695,0.0,0.0
54,13.25,18.218,18.523,147.717,103.773,103.844,0.000792216,0.0565769,20.9831,563.18,-0.00616785,0.0,0.0
56,13.75,18.2849,18.6876,140.294,103.773,105.737,0.000859146,0.0669482,20.9681,563.12,-0.169524,0.0,1.0
58,14.25,18.3957,18.2111,141.921,103.796,106.321,0.000936427,0.075349,20.9449,563.06,-0.2174,0.0,1.0
60,14.75,18.5802,19.0774,136.266,103.753,106.806,0.00101979,0.0981165,20.9162,562.9,-0.262394,0.0,1.0
62,15.25,18.6558,19.0568,142.712,103.764,107.181,0.00112257,0.116558,20.8929,562.58,-0.293061,0.0,1.0
64,15.75,18.7748,18.9166,131.594,103.772,107.289,0.00123756,0.138709,20.8588,562.96,-0.301475,0.0,1.0
66,16.25,19.281,18.8603,129.601,103.757,107.879,0.0013307,0.163143,20.8311,562.86,-0.352379,0.0,1.0
68,16.75,19.8247,19.3508,130.621,103.753,108.681,0.00146234,0.189006,20.8031,562.69,-0.419749,0.0,1.0
70,17.25,20.2702,19.9168,134.406,103.762,108.427,0.00156896,0.215419,20.7753,562.76,-0.397823,0.0,1.0
72,17.75,20.3615,19.7871,132.98,103.753,109.728,0.00165532,0.24062,20.7527,562.58,-0.506513,0.0,1.0
74,18.25,21.3972,20.2141,126.992,103.766,108.049,0.00175707,0.264458,20.7308,562.62,-0.365846,0.0,1.0
76,18.75,21.3831,19.4193,128.552,103.749,108.307,0.00183948,0.283767,20.7097,562.51,-0.388898,0.0,1.0
78,19.25,21.0872,19.1487,131.787,103.762,106.895,0.00191236,0.302464,20.6927,562.44,-0.269038,0.0,0.0
80,19.75,21.4282,19.723,127.106,103.753,108.586,0.00197139,0.320361,20.6788,562.39,-0.411798,0.0,0.0
82,20.25,22.0872,19.8474,129.944,103.771,109.436,0.00201598,0.334858,20.6676,562.279,-0.480823,0.0,0.0
84,20.75,23.8356,21.1378,130.265,103.761,107.975,0.0020492,0.34623,20.6586,562.27,-0.36009,0.0,0.0
86,21.25,24.3245,22.3114,131.333,103.767,108.339,0.00207489,0.355442,20.6512,562.189,-0.390071,0.0,0.0
88,21.75,24.7442,22.8596,129.915,103.764,107.826,0.0020957,0.359825,20.6453,562.199,-0.347336,0.0,0.0
90,22.25,25.813,23.0548,132.693,103.764,106.383,0.00211255,0.360605,20.6457,562.139,-0.225511,0.0,0.0
92,22.75,25.9248,23.3689,134.08,103.772,106.019,0.00216488,0.35736,20.646,562.089,-0.193789,0.0,0.0
94,23.25,26.2763,23.6376,137.058,103.775,106.327,0.00224206,0.351243,20.6559,562.069,-0.219722,0.0,0.0
96,23.75,27.1961,23.89,135.061,103.779,105.613,0.00235626,0.341896,20.6639,562.079,-0.158444,0.0,0.0
98,24.25,26.4547,24.3266,136.498,103.785,105.303,0.00249528,0.330372,20.6796,562.079,-0.131361,0.0,0.0
100,24.75,27.2321,24.7291,134.631,103.777,105.222,0.00260788,0.321038,20.6923,562.029,-0.125094,0.0,0.0
102,25.25,27.384,24.2833,138.939,103.787,105.117,0.00280026,0.307147,20.7026,562.039,-0.115156,0.0,0.0
104,25.75,27.8204,24.6785,141.295,103.785,104.504,0.00304715,0.2902,20.7205,562.019,-0.062444,0.0,0.0
106,26.25,27.544,24.5196,140.918,103.797,105.032,0.00324713,0.273077,20.735,562.009,-0.106974,0.0,0.0
108,26.75,27.4169,25.1297,143.438,103.819,105.04,0.00361977,0.256152,20.7516,561.989,-0.105742,0.0,0.0
110,27.25,27.5498,25.4177,141.483,103.813,104.632,0.00392162,0.242443,20.7694,561.979,-0.0710562,0.0,0.0
112,27.75,27.1683,25.2585,146.634,103.821,104.576,0.00423685,0.225676,20.7863,561.979,-0.0655966,0.0,0.0
114,28.25,27.4415,25.3623,144.969,103.827,104.449,0.00455586,0.212095,20.8021,561.959,-0.0539627,0.0,0.0
116,28.75,27.0159,26.0643,142.672,103.842,104.519,0.00490413,0.201094,20.8179,561.969,-0.0587987,0.0,0.0
118,29.25,27.7921,25.5497,146.752,103.857,104.23,0.00518623,0.186896,20.8334,561.969,-0.0324439,0.0,0.0
120,29.75,27.1533,25.891,147.052,103.85,104.638,0.00547601,0.175396,20.8481,561.979,-0.0683357,0.0,0.0
122,30.25,26.4302,26.0346,150.415,103.87,103.964,0.00571074,0.164479,20.8618,561.969,-0.00823337,0.0,0.0
124,30.75,27.0154,25.5694,143.274,103.867,103.869,0.00594344,0.154195,20.874,561.969,-0.000183314,0.0,0.0
126,31.25,27.0967,25.3339,145.997,103.878,104.097,0.00613194,0.144841,20.885,561.969,-0.0190354,0.0,0.0
128,31.75,26.2329,25.8857,145.908,103.892,103.996,0.00628461,0.136342,20.8939,561.939,-0.00907526,0.0,0.0
130,32.25,26.607,25.5685,146.083,103.912,103.859,0.00641831,0.12871,20.902,561.939,0.0045687,0.0,0.0
132,32.75,26.9461,25.1921,146.416,103.914,104.218,0.00652661,0.121855,20.9094,561.929,-0.0263879,0.0,0.0
134,33.25,25.7485,25.6136,143.655,103.941,104.004,0.00658551,0.11508,20.9161,561.909,-0.00550049,0.0,0.0
136,33.75,26.4021,25.5168,148.258,103.962,104.135,0.00663322,0.109592,20.9221,561.939,-0.0149966,0.0,0.0
138,34.25,25.7653,25.873,145.633,103.969,104.1,0.00664306,0.104476,20.9275,561.809,-0.0114141,0.0,0.0
140,34.75,25.919,25.546,147.63,103.985,104.018,0.00665104,0.0997291,20.9322,561.859,-0.0028914,0.0,0.0
142,35.25,25.9713,25.7256,146.028,104.014,104.189,0.00664624,0.0958838,20.9367,561.849,-0.0152066,0.0,0.0
144,35.75,25.5098,25.3566,149.055,104.031,104.027,0.00664235,0.091871,20.941,561.869,0.000349364,0.0,0.0
146,36.25,25.5049,25.4731,147.139,104.046,104.032,0.00663545,0.0886207,20.9445,561.889,0.00118714,0.0,0.0
148,36.75,25.7016,25.694,153.784,104.073,104.308,0.00662986,0.0853949,20.9482,561.909,-0.0203684,0.0,0.0
150,37.25,25.9239,24.8818,146.307,104.101,104.179,0.00662747,0.0827819,20.9498,561.909,-0.0067457,0.0,0.0
152,37.75,25.6185,25.4092,148.058,104.116,103.808,0.00661352,0.0802521,20.9524,561.919,0.0267885,0.0,0.0
154,38.25,25.5663,25.0566,145.42,104.123,104.193,0.00659334,0.078203,20.9551,561.909,-0.00612955,0.0,0.0
156,38.75,25.1334,25.0833,145.585,104.153,104.237,0.00657699,0.0762266,20.9572,561.929,-0.00728689,0.0,0.0
158,39.25,24.7656,25.3209,147.532,104.165,104.457,0.00652375,0.0746256,20.9591,561.929,-0.0253168,0.0,0.0
160,39.75,24.802,25.2375,147.843,104.197,104.476,0.00648063,0.0731986,20.9609,561.959,-0.0241772,0.0,0.0
162,40.25,25.1405,25.3938,147.102,104.212,104.255,0.00639078,0.0725285,20.9624,561.959,-0.00379913,0.0,0.0
164,40.75,24.2989,24.7192,148.903,104.256,104.33,0.006318,0.0713825,20.9635,561.959,-0.00648887,0.0,0.0
166,41.25,22.9672,23.1858,143.314,104.258,104.387,0.00618553,0.0703169,20.9647,561.959,-0.0111539,0.0,0.0
168,41.75,22.8914,23.6789,146.593,104.289,104.766,0.00607823,0.0693299,20.9659,561.939,-0.0412707,0.0,0.0
170,42.25,22.4358,23.2298,147.9,104.316,104.768,0.00593766,0.0685305,20.9673,561.939,-0.0391624,0.0,0.0
172,42.75,22.4029,23.1982,145.454,104.34,105.06,0.00577551,0.0675531,20.9688,561.919,-0.0622122,0.0,0.0
174,43.25,22.1116,22.637,142.283,104.353,104.632,0.00557828,0.0667615,20.9701,561.919,-0.024188,0.0,0.0
176,43.75,22.7037,23.2532,145.228,104.395,104.621,0.00535922,0.0658745,20.972,561.899,-0.0195552,0.0,0.0
178,44.25,23.1478,23.2586,149.625,104.414,104.466,0.00511481,0.064935,20.9735,561.909,-0.00449118,0.0,0.0
180,44.75,22.5658,23.0973,146.806,104.445,104.334,0.00485657,0.0639285,20.9747,561.919,0.00960152,0.0,0.0
182,45.25,22.7279,23.6479,148.592,104.468,104.507,0.0046474,0.0628923,20.9762,561.929,-0.00335469,0.0,0.0
184,45.75,23.1446,23.4938,146.242,104.504,104.17,0.00447797,0.0617645,20.9773,561.919,0.0289901,0.0,0.0
186,46.25,22.8924,23.6531,145.9,104.525,104.383,0.00422231,0.0605914,20.9783,561.909,0.0123145,0.0,0.0
188,46.75,22.9411,24.1343,145.14,104.566,104.635,0.00390864,0.0593674,20.9796,561.899,-0.00594773,0.0,0.0
190,47.25,22.6916,23.6968,145.618,104.589,104.614,0.00365457,0.0581296,20.9808,561.899,-0.00212505,0.0,0.0
192,47.75,22.1386,23.9715,145.72,104.634,105.07,0.00333862,0.057127,20.9816,561.919,-0.037589,0.0,0.0
194,48.25,22.381,23.8449,148.332,104.658,104.74,0.0030827,0.0563149,20.9832,561.919,-0.00703544,0.0,0.0
196,48.75,22.7358,23.6468,142.223,104.704,104.417,0.00282594,0.0550008,20.9845,561.929,0.0247488,0.0,0.0
198,49.25,22.3623,23.3223,146.175,104.73,104.744,0.00257344,0.0539364,20.986,561.929,-0.00123097,0.0,0.0
200,49.75,23.0725,23.2167,145.013,104.769,104.686,0.00233815,0.0530742,20.9872,561.939,0.00719698,0.0,0.0
202,50.25,22.6399,23.7197,146.499,104.797,104.787,0.00211987,0.0520207,20.9886,561.929,0.000839961,0.0,0.0
204,50.75,22.113,23.5045,141.796,104.836,104.741,0.00189563,0.0511674,20.9898,561.929,0.00817202,0.0,0.0
206,51.25,22.5465,23.1283,145.797,104.85,104.543,0.001714,0.05039,20.9911,561.899,0.0264875,0.0,0.0
208,51.75,22.2248,23.2502,149.715,104.89,105.096,0.00154897,0.0496827,20.9923,561.909,-0.0177561,0.0,0.0
210,52.25,22.3464,23.1485,145.334,104.916,105.106,0.00139919,0.049038,20.9931,561.909,-0.0163824,0.0,0.0
212,52.75,22.0603,23.8084,148.534,104.966,104.725,0.00127786,0.0484511,20.9939,561.889,0.0207282,0.0,0.0
214,53.25,21.7101,23.6396,141.25,104.98,104.972,0.00116502,0.0479255,20.9945,561.859,0.000709497,0.0,0.0
216,53.75,21.6617,23.3042,146.087,105.015,105.041,0.00107361,0.0474544,20.9949,561.849,-0.00224585,0.0,0.0
218,54.25,21.8811,23.0633,143.689,105.035,105.329,0.00100079,0.0470227,20.9953,561.869,-0.0253287,0.0,0.0
220,54.75,21.6629,23.4376,150.013,105.1,105.215,0.000941804,0.0466277,20.9956,561.899,-0.00995608,0.0,0.0
222,55.25,21.8281,23.1713,144.142,105.116,105.122,0.000900095,0.0463077,20.9961,561.919,-0.000489025,0.0,0.0
224,55.75,21.6527,23.1859,146.911,105.168,105.443,0.00086631,0.0459667,20.9967,561.899,-0.0236214,0.0,0.0
226,56.25,21.8503,23.3819,144.991,105.179,104.772,0.000836517,0.0456905,20.9972,561.899,0.0350438,0.0,0.0
228,56.75,21.3477,23.4372,144.592,105.198,105.337,0.000812384,0.0454123,20.9976,561.909,-0.0119301,0.0,0.0
230,57.25,21.2328,23.0491,145.041,105.216,105.247,0.000773418,0.0451869,20.9979,561.889,-0.00260502,0.0,0.0
232,57.75,21.3507,22.8312,146.475,105.249,105.463,0.000741856,0.044977,20.9982,561.899,-0.0183628,0.0,0.0
234,58.25,21.5266,22.7031,148.061,105.283,105.224,0.000716291,0.0448071,20.9984,561.899,0.00509571,0.0,0.0
236,58.75,20.5876,23.0444,147.847,105.332,105.322,0.000661556,0.044655,20.9985,561.909,0.000902496,0.0,0.0
238,59.25,22.0424,22.7505,147.043,105.34,105.726,0.000617221,0.044519,20.9987,561.919,-0.0331035,0.0,0.0
240,59.75,20.9628,22.8159,144.685,105.356,105.507,0.000553258,0.0443872,20.9988,561.909,-0.0129721,0.0,0.0
242,60.25,20.8931,22.3286,146.681,105.363,105.427,0.000476201,0.0442611,20.999,561.889,-0.00552369,0.0,0.0
244,60.75,21.0306,22.8518,145.318,105.402,105.254,0.000397229,0.044145,20.9992,561.919,0.0126515,0.0,0.0
246,61.25,21.347,22.6954,145.891,105.414,105.375,0.00031836,0.0440385,20.9994,561.919,0.0033777,0.0,0.0
248,61.75,21.2578,22.6852,145.28,105.44,105.879,0.000284737,0.0439522,20.9995,561.899,-0.0375273,0.0,0.0
250,62.25,21.0509,22.3586,144.528,105.461,105.43,0.000210309,0.0438679,20.9998,561.889,0.00265009,0.0,0.0
252,62.75,21.3302,22.285,141.642,105.482,105.525,0.000150022,0.0437867,21.0003,561.909,-0.00372254,0.0,0.0
254,63.25,20.8805,22.4542,145.105,105.515,105.51,0.00010119,0.0437209,21.0007,561.899,0.000381712,0.0,0.0
256,63.75,21.1197,22.2949,147.141,105.514,105.459,6.16359e-05,0.0436404,21.001,561.899,0.00470234,0.0,0.0
258,64.25,20.7258,22.2009,141.345,105.54,106.07,3.46898e-05,0.0435752,21.0013,561.909,-0.0453896,0.0,0.0
260,64.75,21.5199,22.2557,148.806,105.552,105.675,1.74471e-05,0.0435617,21.0015,561.919,-0.0105579,0.0,0.0
262,65.25,20.9409,22.6254,142.208,105.575,105.24,7.93602e-06,0.0435387,21.0017,561.919,0.0287106,0.0,0.0
264,65.75,21.2139,22.5365,147.704,105.605,105.618,4.24201e-06,0.0435129,21.0018,561.909,-0.00109077,0.0,0.0
266,66.25,20.5518,22.4055,143.011,105.613,105.443,1.24986e-06,0.0434855,21.0019,561.889,0.0146122,0.0,0.0
268,66.75,21.1365,22.3908,146.466,105.63,105.229,1.93926e-05,0.0434562,21.002,561.879,0.0343821,0.0,0.0
270,67.25,21.0628,22.1485,148.462,105.651,105.185,3.40882e-05,0.043426,21.0021,561.899,0.0400318,0.0,0.0
272,67.75,21.4406,21.9165,147.009,105.665,105.392,6.17267e-05,0.04338,21.0022,561.889,0.0233432,0.0,0.0
274,68.25,20.3032,22.2804,154.261,105.658,105.457,8.41138e-05,0.0433233,21.0022,561.879,0.0172461,0.0,0.0
276,68.75,21.0863,21.7843,144.35,105.692,105.703,0.000102247,0.0432775,21.0025,561.879,-0.000965674,0.0,0.0
278,69.25,20.3899,21.9886,146.381,105.698,105.578,0.000116936,0.0432403,21.0029,561.869,0.0102295,0.0,0.0
280,69.75,20.649,22.0649,149.522,105.709,105.964,0.000150631,0.0432102,21.003,561.859,-0.0218151,0.0,0.0
282,70.25,20.6299,22.0565,150.063,105.721,105.756,0.000177924,0.0431858,21.0028,561.889,-0.00301275,0.0,0.0
284,70.75,20.8524,21.8973,145.138,105.734,105.655,0.000215783,0.0431661,21.0026,561.879,0.00676168,0.0,0.0
286,71.25,20.2734,22.2051,143.823,105.753,105.924,0.000246448,0.0431501,21.0025,561.889,-0.0145948,0.0,0.0
288,71.75,20.5105,21.6088,146.336,105.758,105.479,0.000290683,0.0431371,21.0021,561.909,0.0238272,0.0,0.0
290,72.25,20.4656,22.2283,148.48,105.766,105.525,0.000326513,0.0430994,21.0017,561.919,0.0206368,0.0,0.0
292,72.75,20.3562,22.0097,146.72,105.765,105.795,0.000367662,0.0430688,21.0013,561.929,-0.00255864,0.0,0.0
294,73.25,20.6154,21.9508,148.51,105.772,105.641,0.000400994,0.0430849,21.0009,561.929,0.0112074,0.0,0.0
296,73.75,20.3557,22.5426,147.403,105.785,105.716,0.000427992,0.043098,21.0007,561.919,0.0058727,0.0,0.0
298,74.25,20.2163,21.7071,147.664,105.78,105.929,0.000438946,0.0431014,21.0005,561.909,-0.0127594,0.0,0.0
300,74.75,20.3001,22.2074,142.594,105.776,105.659,0.000447818,0.0430977,21.0003,561.899,0.0100162,0.0,0.0
302,75.25,20.5091,21.6956,144.846,105.794,105.459,0.000442881,0.0430947,21.0002,561.909,0.0287289,0.0,0.0
304,75.75,20.2291,21.5695,147.961,105.791,105.675,0.000438882,0.0430922,21.0001,561.909,0.00988266,0.0,0.0
306,76.25,20.0506,22.2836,145.88,105.797,105.739,0.000435005,0.0430903,21,561.909,0.00496423,0.0,0.0
308,76.75,20.1773,21.7944,144.686,105.786,105.814,0.00043129,0.0431023,20.9999,561.909,-0.00238391,0.0,0.0
310,77.25,19.4355,21.9752,145.954,105.795,105.686,0.000427069,0.0431121,20.9999,561.909,0.0093667,0.0,0.0
312,77.75,20.1024,21.9051,143.86,105.793,106.098,0.00042365,0.0431271,20.9998,561.919,-0.0260613,0.0,0.0
314,78.25,20.4056,21.8431,144.856,105.796,105.94,0.000417244,0.0431458,20.9998,561.929,-0.0122967,0.0,0.0
316,78.75,19.6544,21.0242,143.777,105.775,105.919,0.000412055,0.0431537,20.9997,561.919,-0.012314,0.0,0.0
318,79.25,20.3051,21.1267,145.78,105.781,105.936,0.000402113,0.0431537,20.9997,561.909,-0.0132437,0.0,0.0
320,79.75,19.9492,21.0251,143.936,105.764,105.679,0.000388893,0.0431394,20.9997,561.909,0.00728641,0.0,0.0
322,80.25,19.8521,21.649,151.438,105.765,105.752,0.000378185,0.0431148,20.9997,561.889,0.00114185,0.0,0.0
324,80.75,19.9468,21.3512,148.77,105.742,105.624,0.000369511,0.0430734,20.9997,561.899,0.0101164,0.0,0.0
326,81.25,19.7509,21.5084,146.872,105.765,105.506,0.000351583,0.0430205,20.9997,561.879,0.0221256,0.0,0.0
328,81.75,20.0495,21.1785,151.428,105.729,105.53,0.000337061,0.0429776,20.9996,561.859,0.0170556,0.0,0.0
330,82.25,19.9972,21.3377,146.62,105.736,105.854,0.000327721,0.0429429,20.9996,561.879,-0.0101088,0.0,0.0
332,82.75,19.9185,21.4994,145.738,105.713,105.888,0.000320156,0.0429148,20.9996,561.899,-0.0149674,0.0,0.0
334,83.25,20.1998,21.4686,146.227,105.697,106.178,0.000317662,0.0428848,20.9996,561.909,-0.0410557,0.0,0.0
336,83.75,20.216,21.5609,146.839,105.68,105.765,0.000315642,0.0428541,20.9996,561.899,-0.00728149,0.0,0.0
338,84.25,19.872,21.4636,146.639,105.674,105.798,0.000320064,0.0428292,20.9996,561.899,-0.0106157,0.0,0.0
340,84.75,19.0281,21.0407,149.413,105.652,105.603,0.000323645,0.0428227,20.9996,561.919,0.004171,0.0,0.0
342,85.25,19.9885,21.2303,149.873,105.654,105.677,0.000338665,0.0428174,20.9996,561.899,-0.00195302,0.0,0.0
344,85.75,19.4277,21.0473,147.584,105.627,105.595,0.000350831,0.042854,20.9996,561.899,0.0026738,0.0,0.0
346,86.25,20.2397,20.9488,144.75,105.62,105.671,0.000365151,0.0428837,20.9996,561.899,-0.00437035,0.0,0.0
348,86.75,19.9303,21.4914,144.696,105.601,105.87,0.00038077,0.0429077,20.9996,561.889,-0.0230074,0.0,0.0
350,87.25,20.0479,21.3686,145.204,105.602,105.469,0.0003969,0.0429272,20.9996,561.899,0.0114336,0.0,0.0
352,87.75,19.4776,21.085,146.502,105.563,105.49,0.000400031,0.0429501,20.9996,561.889,0.00630481,0.0,0.0
354,88.25,19.5105,21.1528,146.02,105.567,105.63,0.000405386,0.0429751,20.9996,561.879,-0.00538612,0.0,0.0
356,88.75,19.7057,21.6245,147.957,105.54,106.206,0.000404875,0.0429954,20.9996,561.849,-0.0569083,0.0,0.0
358,89.25,20.1366,20.8062,146.979,105.532,105.217,0.000404461,0.0430119,20.9996,561.859,0.0270949,0.0,0.0
360,89.75,20.0502,21.4393,144.428,105.503,105.196,0.0004048,0.0430252,20.9996,561.829,0.0263574,0.0,0.0
362,90.25,19.9803,20.9071,147.8,105.499,105.518,0.000405682,0.0430211,20.9996,561.809,-0.00163378,0.0,0.0
364,90.75,20.147,21.3886,144.94,105.471,105.799,0.000406395,0.04302,20.9996,561.809,-0.0280735,0.0,0.0
366,91.25,20.0204,21.0872,144.83,105.469,105.3,0.000406974,0.0429909,20.9996,561.819,0.0145314,0.0,0.0
368,91.75,19.8819,21.0948,143.78,105.449,105.312,0.000407442,0.0429673,20.9995,561.819,0.0117545,0.0,0.0
370,92.25,19.4344,21.3991,146.404,105.439,105.44,0.000407642,0.0429477,20.9995,561.859,-3.77408e-05,0.0,0.0
372,92.75,20.075,21.3288,145.338,105.425,105.136,0.000399645,0.0429315,20.9994,561.879,0.024823,0.0,0.0
374,93.25,19.6087,21.1855,145.994,105.421,105.458,0.000396159,0.0429184,20.9996,561.879,-0.0031519,0.0,0.0
376,93.75,19.7889,21.0856,148.651,105.387,105.292,0.00038701,0.0429214,20.9998,561.859,0.0081397,0.0,0.0
378,94.25,19.784,21.0838,149.436,105.392,105.28,0.000376729,0.0429239,20.9999,561.879,0.00957998,0.0,0.0
380,94.75,19.571,21.055,146.368,105.368,105.055,0.000368401,0.0429259,21.0001,561.839,0.0269337,0.0,0.0
382,95.25,19.6126,21.1726,145.429,105.357,105.655,0.000353368,0.0429267,21.0002,561.839,-0.0254758,0.0,0.0
384,95.75,19.4592,21.0757,148.313,105.348,105.693,0.000333732,0.0429482,21.0002,561.879,-0.0295836,0.0,0.0
386,96.25,19.831,20.8432,147.963,105.34,105.322,0.000313366,0.042954,21.0003,561.839,0.00154939,0.0,0.0
388,96.75,19.2727,20.509,144.837,105.329,104.907,0.000292854,0.0429366,21.0008,561.809,0.0363241,0.0,0.0
390,97.25,19.7852,20.9936,150.121,105.334,105.106,0.000274327,0.0429225,21.0012,561.839,0.0195835,0.0,0.0
392,97.75,19.1839,21.1795,146.586,105.307,105.134,0.0002576,0.0429384,21.0015,561.859,0.0148199,0.0,0.0
394,98.25,19.5098,21,144.096,105.31,105.572,0.000244051,0.0429513,21.0018,561.849,-0.0225171,0.0,0.0
396,98.75,19.104,20.934,146.456,105.295,105.476,0.000233077,0.0429617,21.002,561.829,-0.0154864,0.0,0.0
398,99.25,19.2773,21.2576,142.709,105.301,105.223,0.000222276,0.0429837,21.0022,561.839,0.00669703,0.0,0.0
400,99.75,19.6907,20.6847,144.496,105.282,105.204,0.000211806,0.0430016,21.0023,561.829,0.00666902,0.0,0.0
402,100.25,19.5244,21.0921,147.887,105.28,104.745,0.000203326,0.0430161,21.0024,561.849,0.0461328,0.0,0.0
404,100.75,19.5494,20.9254,145.804,105.262,104.95,0.000193236,0.0430206,21.0025,561.859,0.0268907,0.0,0.0
406,101.25,19.4363,21.0103,146.143,105.257,105.134,0.000182163,0.0430178,21.0023,561.849,0.0105343,0.0,0.0
408,101.75,19.0566,20.8471,144.247,105.249,104.995,0.000173194,0.0430371,21.0022,561.869,0.0218309,0.0,0.0
410,102.25,19.9019,20.9642,150.183,105.241,105.267,0.000174212,0.0430721,21.002,561.859,-0.00222266,0.0,0.0
412,102.75,19.0694,20.8416,147.164,105.23,105.037,0.000182491,0.0431005,21.0019,561.859,0.0165487,0.0,0.0
414,103.25,19.6177,20.5419,147.751,105.225,105.575,0.000196463,0.0430969,21.0018,561.879,-0.0300196,0.0,0.0
416,103.75,19.7346,20.9066,146.359,105.217,105.3,0.00020778,0.0430941,21.0018,561.859,-0.00709479,0.0,0.0
418,104.25,18.9955,20.853,143.466,105.217,104.981,0.000218222,0.0430918,21.0017,561.849,0.0203172,0.0,0.0
420,104.75,19.1069,20.7969,144.606,105.21,105.771,0.000227828,0.0431308,21.0017,561.839,-0.0480359,0.0,0.0
422,105.25,19.3982,20.957,145.746,105.208,105.369,0.000238159,0.0431624,21.0016,561.849,-0.0138938,0.0,0.0
424,105.75,19.5949,21.0226,143.966,105.194,105.053,0.000248822,0.0432023,21.0016,561.859,0.0121336,0.0,0.0
426,106.25,19.3356,20.1503,147.468,105.2,104.858,0.000260647,0.0432476,21.0016,561.859,0.0294254,0.0,0.0
428,106.75,19.1009,21.1196,146.522,105.185,104.995,0.000273095,0.0432843,21.0015,561.849,0.0162721,0.0,0.0
430,107.25,19.7277,20.6563,144.438,105.19,105.167,0.000288917,0.043314,21.0015,561.869,0.00199033,0.0,0.0
432,107.75,18.9401,20.3595,144.021,105.17,104.956,0.000306899,0.0433309,21.0015,561.869,0.0184073,0.0,0.0
434,108.25,19.5238,20.6793,147.481,105.191,105.157,0.000321465,0.0433381,21.0015,561.879,0.00290341,0.0,0.0
436,108.75,19.2694,20.4358,147.234,105.174,105.012,0.000331987,0.0433439,21.0015,561.879,0.0139587,0.0,0.0
438,109.25,19.2378,20.6447,145.789,105.157,105.443,0.000339362,0.0433487,21.0015,561.879,-0.0244939,0.0,0.0
440,109.75,18.561,20.1862,145.626,105.161,105.297,0.000342784,0.0433669,21.0015,561.889,-0.0116888,0.0,0.0
442,110.25,19.4905,20.4878,144.131,105.157,105.305,0.00034326,0.0433945,21.0015,561.879,-0.0126957,0.0,0.0
444,110.75,19.5629,20.2953,146.825,105.168,105.085,0.000343646,0.0434169,21.0015,561.869,0.00714849,0.0,0.0
446,111.25,19.2911,20.4484,144.204,105.144,105.117,0.00034381,0.0434078,21.0015,561.869,0.00235148,0.0,0.0
448,111.75,19.2982,20.4889,146.005,105.151,105.019,0.00034288,0.0434004,21.0015,561.859,0.0113571,0.0,0.0
450,112.25,19.6103,20.3397,148.43,105.132,105.274,0.000342126,0.0433801,21.0015,561.869,-0.0121601,0.0,0.0
452,112.75,19.4614,20.9685,152.834,105.146,105.423,0.000349998,0.0433507,21.0015,561.879,-0.0237977,0.0,0.0
454,113.25,19.3414,20.7862,142.165,105.133,105.379,0.000356375,0.0433269,21.0015,561.869,-0.0212033,0.0,0.0
456,113.75,19.4896,20.6009,147.312,105.149,104.831,0.000371237,0.0433485,21.0015,561.829,0.0274701,0.0,0.0
458,114.25,19.2042,20.3113,145.995,105.133,105.064,0.000383275,0.0433577,21.0015,561.809,0.00586408,0.0,0.0
460,114.75,19.3021,20.788,145.907,105.142,104.988,0.000394238,0.0433735,21.0015,561.809,0.0132793,0.0,0.0
462,115.25,19.6335,20.8513,145.708,105.123,105.277,0.000403118,0.0433862,21.0017,561.819,-0.0132038,0.0,0.0
464,115.75,19.2132,20.5667,144.333,105.139,104.941,0.000410311,0.0433966,21.0021,561.809,0.0170416,0.0,0.0
466,116.25,19.1127,20.3416,146.828,105.132,104.913,0.000416137,0.0433777,21.0024,561.819,0.0188722,0.0,0.0
468,116.75,19.0216,20.3312,144.421,105.127,104.887,0.000374818,0.0433624,21.0023,561.799,0.0206411,0.0,0.0
470,117.25,19.4475,20.6258,146.755,105.126,104.866,0.000341349,0.0433091,21.0018,561.779,0.0224203,0.0,0.0
472,117.75,19.1633,20.1684,144.827,105.135,105.099,0.000299713,0.0432659,21.0017,561.759,0.00311469,0.0,0.0
474,118.25,18.7878,20.5969,148.706,105.12,104.998,0.000265988,0.0432309,21.0018,561.759,0.0105052,0.0,0.0
476,118.75,18.8455,20.5358,147.874,105.124,104.864,0.000243513,0.0432026,21.0019,561.799,0.0224365,0.0,0.0
478,119.25,19.1558,20.2827,143.689,105.114,105.014,0.000225308,0.0431252,21.002,561.819,0.00855877,0.0,0.0
480,119.75,19.213,20.3626,144.233,105.13,105.218,0.00022509,0.0430624,21.002,561.799,-0.00757395,0.0,0.0
482,120.25,19.2989,20.6356,145.034,105.123,104.943,0.000224913,0.042998,21.0021,561.759,0.0154992,0.0,0.0
484,120.75,19.5835,20.7708,146.329,105.129,104.726,0.0002242,0.0429457,21.0023,561.769,0.034772,0.0,0.0
486,121.25,18.9894,20.366,145.09,105.124,105.175,0.000222982,0.0428898,21.0026,561.739,-0.00439948,0.0,0.0
488,121.75,19.1171,20.2744,145.001,105.14,105.477,0.000221995,0.0428445,21.0029,561.729,-0.0289773,0.0,0.0
490,122.25,19.0045,20.1162,143.065,105.125,105.101,0.000211579,0.0427669,21.0032,561.719,0.00204531,0.0,0.0
492,122.75,19.4165,20.088,143.589,105.137,105.232,0.000203142,0.0427041,21.0035,561.769,-0.00819721,0.0,0.0
494,123.25,18.875,20.308,143.361,105.121,105.397,0.000191212,0.0426532,21.0037,561.759,-0.0237447,0.0,0.0
496,123.75,18.6223,20.0313,143.877,105.128,105.19,0.000176962,0.0426315,21.0037,561.749,-0.00535753,0.0,0.0
498,124.25,19.2083,20.6943,144.988,105.117,104.97,0.000160962,0.042594,21.0037,561.709,0.012658,0.0,0.0
500,124.75,19.3575,20.1858,148.727,105.127,104.819,0.000143989,0.0425632,21.0033,561.719,0.0264714,0.0,0.0
502,125.25,19.364,20.5013,145.177,105.113,105.328,0.000127694,0.0425383,21.0029,561.649,-0.0184373,0.0,0.0
504,125.75,19.33,19.9514,146.599,105.131,105.005,0.000112203,0.0425612,21.0026,561.649,0.010852,0.0,0.0
506,126.25,19.1162,20.3055,145.697,105.106,105.271,0.000101565,0.0426185,21.0024,561.679,-0.0141746,0.0,0.0
508,126.75,19.2105,20.2125,145.131,105.133,104.927,9.46682e-05,0.0426648,21.0022,561.699,0.0177337,0.0,0.0
510,127.25,19.5748,20.1351,146.191,105.114,104.991,9.16288e-05,0.0427297,21.002,561.749,0.0105612,0.0,0.0
512,127.75,18.7254,19.7232,146.7,105.125,104.917,9.14592e-05,0.0427822,21.0024,561.729,0.0178897,0.0,0.0
514,128.25,19.1586,20.5259,148.79,105.125,104.952,8.94113e-05,0.0428247,21.0026,561.779,0.0148813,0.0,0.0
516,128.75,19.0822,20.4541,146.333,105.151,105.557,8.60328e-05,0.0428448,21.0028,561.799,-0.0348234,0.0,0.0
518,129.25,18.981,20.21,146.599,105.135,104.941,8.32963e-05,0.0428482,21.003,561.729,0.0166779,0.0,0.0
520,129.75,19.3473,20.1102,152.233,105.146,104.756,7.15304e-05,0.0428294,21.0031,561.709,0.0335753,0.0,0.0
522,130.25,19.1356,19.5819,148.8,105.143,105.075,5.34055e-05,0.0427948,21.0032,561.819,0.00589102,0.0,0.0
524,130.75,19.3979,20.3008,147.719,105.15,104.722,3.6178e-05,0.0427309,21.0033,561.819,0.0369158,0.0,0.0
526,131.25,18.5806,20.6943,151.052,105.142,104.99,1.99319e-05,0.0426469,21.0034,561.759,0.0130413,0.0,0.0
528,131.75,19.1632,20.2246,148.89,105.155,105.03,1.25016e-05,0.0425788,21.0034,561.799,0.010754,0.0,0.0
530,132.25,19.5714,20.2596,144.91,105.141,104.854,1.16393e-05,0.0425237,21.0035,561.779,0.0246972,0.0,0.0
532,132.75,19.1299,20.3604,143.951,105.153,105.075,1.09409e-05,0.042479,21.0035,561.839,0.00676276,0.0,0.0
534,133.25,19.3284,20.0426,143.927,105.146,105.107,3.45733e-05,0.0424214,21.0036,561.799,0.0033777,0.0,0.0
536,133.75,18.8268,20.7074,151.162,105.163,104.948,5.37155e-05,0.0423553,21.0036,561.799,0.0185483,0.0,0.0
538,134.25,19.1753,20.0921,147.337,105.161,104.938,7.64833e-05,0.0423233,21.0036,561.819,0.0192499,0.0,0.0
540,134.75,19.1028,20.3393,146.126,105.166,104.969,8.61895e-05,0.0423167,21.0036,561.799,0.0169964,0.0,0.0
542,135.25,19.1981,20.1971,144.219,105.165,105.333,9.70541e-05,0.0423114,21.0036,561.769,-0.0144819,0.0,0.0
544,135.75,19.1003,20.4815,147.325,105.172,105.068,0.000100695,0.0422253,21.0036,561.769,0.00896382,0.0,0.0
546,136.25,18.9578,20.1899,145.275,105.171,105.136,0.000103643,0.0421556,21.0037,561.759,0.0030015,0.0,0.0
548,136.75,18.8596,20.0979,144.711,105.174,105.133,8.06266e-05,0.0420446,21.0034,561.779,0.00349303,0.0,0.0
550,137.25,18.308,20.6764,145.727,105.182,105.152,6.1983e-05,0.0419547,21.003,561.779,0.00258109,0.0,0.0
552,137.75,19.2412,20.5994,151.682,105.198,105.03,3.47869e-05,0.0419379,21.0027,561.779,0.0144259,0.0,0.0
554,138.25,18.9286,20.1151,153.527,105.191,105.161,1.2758e-05,0.0419092,21.0025,561.789,0.00257894,0.0,0.0
556,138.75,18.7623,20.1849,148.093,105.21,105.32,-1.26923e-05,0.0418859,21.0022,561.729,-0.00947248,0.0,0.0
558,139.25,19.0762,20.0464,145.557,105.2,105.179,-1.4446e-05,0.041867,21.0021,561.779,0.00178442,0.0,0.0
560,139.75,19.1557,20.036,149.18,105.213,105.108,-1.74449e-05,0.0418517,21.0023,561.799,0.00904138,0.0,0.0
562,140.25,19.2215,20.0149,142.546,105.206,105.083,-1.03245e-05,0.0418394,21.0025,561.789,0.0105881,0.0,0.0
564,140.75,19.275,19.7593,146.866,105.215,105.053,4.03755e-06,0.0418293,21.0026,561.809,0.0139899,0.0,0.0
566,141.25,18.7921,19.8766,145.249,105.214,105.322,2.45878e-05,0.0418212,21.0027,561.829,-0.00926523,0.0,0.0
568,141.75,18.7577,19.5925,145.505,105.237,105.342,4.92587e-05,0.0417846,21.0028,561.799,-0.00906338,0.0,0.0
570,142.25,19.1069,20.112,144.237,105.221,105.418,7.11532e-05,0.0417705,21.0029,561.779,-0.0169242,0.0,0.0
572,142.75,18.6104,20.0148,145.398,105.229,104.993,9.06078e-05,0.0417176,21.003,561.759,0.020328,0.0,0.0
574,143.25,18.7896,19.7615,147.336,105.242,105.149,0.000106366,0.041649,21.003,561.779,0.0079447,0.0,0.0
576,143.75,19.1261,20.3154,147.635,105.238,105.384,0.00011913,0.0416005,21.0032,561.769,-0.0125931,0.0,0.0
578,144.25,18.9205,19.8984,147.535,105.245,105.046,0.000110036,0.0415678,21.0034,561.789,0.0170589,0.0,0.0
580,144.75,18.6715,19.7073,144.968,105.261,105.234,0.00010267,0.0415125,21.0035,561.789,0.00236334,0.0,0.0
582,145.25,19.2353,19.9145,146.297,105.261,105.067,8.70243e-05,0.041442,21.0036,561.799,0.0166703,0.0,0.0
584,145.75,19.176,20.3698,143.731,105.262,105.039,7.43514e-05,0.0413849,21.0037,561.799,0.0191864,0.0,0.0
586,146.25,18.8635,19.4591,143.4,105.278,105.155,5.80385e-05,0.041339,21.0038,561.779,0.0105472,0.0,0.0
588,146.75,19.0352,19.5165,145.659,105.272,105.192,4.35522e-05,0.0413022,21.0038,561.769,0.00687482,0.0,0.0
590,147.25,19.1548,20.0366,148.132,105.277,105.296,3.06727e-05,0.0412724,21.0039,561.769,-0.00165697,0.0,0.0
592,147.75,19.0987,20.2211,145.959,105.281,105.056,1.76938e-05,0.0412619,21.0039,561.749,0.0193801,0.0,0.0
594,148.25,19.3622,20.0673,144.365,105.283,105.291,4.88923e-06,0.0412534,21.0039,561.789,-0.000668035,0.0,0.0
596,148.75,18.9324,19.8265,145.794,105.279,105.288,-5.48252e-06,0.0412737,21.004,561.799,-0.000795285,0.0,0.0
598,149.25,18.6383,20.0564,146.619,105.289,105.271,,0.0412902,,561.809,0.00152028,0.0,0.0
600,149.75,19.4308,19.481,149.792,105.298,105.664,,0.0413035,,561.809,-0.0313553,0.0,0.0
602,150.25,18.686,19.9625,146.217,105.292,105.158,,0.0413143,,561.799,0.0115057,0.0,0.0
604,150.75,18.8496,19.9387,146.265,105.3,105.248,,0.0413095,,561.819,0.004462,0.0,0.0
606,151.25,18.9049,19.8493,148.235,105.303,105.472,,0.0413055,,561.799,-0.0145132,0.0,0.0
608,151.75,18.6582,20.4053,147.63,105.302,104.774,,0.0413023,,561.839,0.0454505,0.0,0.0
610,152.25,18.7118,20.3872,143.208,105.306,105.144,,,,561.819,0.0139457,0.0,0.0
612,152.75,18.8085,19.6935,145.121,105.302,105.253,,,,561.829,0.004171,0.0,0.0
614,153.25,19.3852,19.8131,145.352,105.309,105.227,,,,561.819,0.00699011,0.0,0.0
616,153.75,18.6693,20.2092,145.613,105.321,104.87,,,,561.799,0.0388809,0.0,0.0
618,154.25,19.0753,20.1748,145.783,105.327,105.248,,,,561.829,0.00671319,0.0,0.0
620,154.75,18.6937,19.2985,147.98,105.313,105.34,,,,561.799,-0.00236665,0.0,0.0
622,155.25,18.7534,19.8151,147.803,105.327,105.444,,,,561.789,-0.0100473,0.0,0.0
624,155.75,19.0529,20.0216,144.597,105.321,105.386,,,,561.809,-0.00559922,0.0,0.0
626,156.25,19.0232,19.8594,143.922,105.336,105.191,,,,561.799,0.0124362,0.0,0.0
628,156.75,18.8339,20.2214,142.524,105.326,105.382,,,,561.779,-0.00484073,0.0,0.0
630,157.25,19.1543,19.8899,145.262,105.35,105.44,,,,561.809,-0.00772774,0.0,0.0
632,157.75,19.0671,20.0129,146.461,105.335,105.326,,,,561.739,0.000756939,0.0,0.0
634,158.25,19.0132,19.6301,146.686,105.348,105.235,,,,561.739,0.00964892,0.0,0.0
636,158.75,19.1393,19.6267,142.973,105.336,105.521,,,,561.749,-0.0159152,0.0,0.0
638,159.25,18.8616,19.2806,144.903,105.356,105.28,,,,561.799,0.00649553,0.0,0.0
640,159.75,18.7488,19.5394,145.503,105.353,105.445,,,,561.759,-0.0079533,0.0,0.0