File: 01_Data/Hemp_Sheet/Cone/Hemp_Sheet_Cone_HF50Scan_220524_R3.csv
Names,Time,Stack TC,Smoke TC,Exh Press,Smoke Comp,Smoke Meas,CO Meter,CO2 Meter,O2 Meter,Sample Mass,Ext Coeff,Start Test,Flame Verif
Chan Gain,,500,500,1,1,1,1,1,1,1,1,1.0,1.0
Offset,,0,0,0.139323,0,0,0,0,0,0,0,0.0,0.0
Gain,,1,1,25.011,13.8491,15.2622,1,1,1,1.00087,1.03118,1.0,1.0
Units,sec,C,C,Pa,%,%,%,%,%,g,/m,,
Baseline,,38.1443,39.3242,139.477,104.727,106.729,0.000268304,0.0410222,21.0034,-452.525,-0.171218,,
2,0.25,35.1609,36.9516,143.096,104.724,106.382,0.000604701,0.0440204,20.9964,564.151,-0.142069,0.0,0.0
4,0.75,34.4908,36.8432,138.33,104.74,106.483,0.000596634,0.0440602,20.9951,564.461,-0.149232,0.0,0.0
6,1.25,33.7147,35.8955,136.622,104.722,105.84,0.000597379,0.0440925,20.9933,564.151,-0.0961124,0.0,0.0
8,1.75,33.3842,34.6952,138.81,104.748,105.677,0.000597982,0.0441596,20.9913,564.271,-0.0799066,0.0,0.0
10,2.25,33.5918,35.2583,141.263,104.748,105.986,0.00062595,0.0442139,20.9896,564.231,-0.10626,0.0,0.0
12,2.75,33.3996,35.6299,136.874,104.753,105.731,0.000673335,0.0461571,20.9867,564.141,-0.084055,0.0,0.0
14,3.25,33.9181,35.4093,137.109,104.75,105.313,0.000711717,0.0477312,20.9828,564.221,-0.0484532,0.0,0.0
16,3.75,33.6957,35.6798,138.022,104.753,104.824,0.000742806,0.0602617,20.9797,564.061,-0.00617163,0.0,0.0
18,4.25,33.9099,35.4433,143.358,104.76,105.721,0.000767989,0.0704115,20.9585,564.141,-0.0825548,0.0,0.0
20,4.75,33.9971,34.6819,131.327,104.768,109.684,0.00100409,0.0946953,20.9413,563.931,-0.414827,0.0,1.0
22,5.25,33.7674,34.8881,114.232,104.769,109.267,0.00119533,0.128821,20.8858,563.851,-0.380274,0.0,1.0
24,5.75,34.6265,34.8466,108.995,104.781,110.826,0.00145183,0.156464,20.8409,564.111,-0.507353,0.0,1.0
26,6.25,34.9764,35.5928,108.515,104.785,110.438,0.00165959,0.178854,20.7463,563.391,-0.475305,0.0,1.0
28,6.75,36.6027,36.4688,102.148,104.789,110.311,0.0019064,0.261525,20.6696,563.511,-0.464592,0.0,1.0
30,7.25,36.947,36.5723,103.412,104.789,110.171,0.00213284,0.328488,20.6076,563.25,-0.453089,0.0,1.0
32,7.75,38.6767,37.378,101.021,104.799,109.755,0.00234013,0.390481,20.5573,563.17,-0.417925,0.0,1.0
34,8.25,40.1086,38.3626,106.551,104.799,109.647,0.00250803,0.447673,20.5166,563.1,-0.40909,0.0,1.0
36,8.75,41.702,39.073,107.403,104.819,108.001,0.00266987,0.489032,20.4836,563.01,-0.270517,0.0,1.0
38,9.25,43.001,39.7978,113.736,104.811,105.981,0.0028191,0.518061,20.4761,563.02,-0.100389,0.0,1.0
40,9.75,42.867,40.03,122.542,104.82,105.908,0.00295631,0.531664,20.4701,562.9,-0.0934569,0.0,1.0
42,10.25,44.1514,40.5909,128.896,104.835,108.134,0.00301481,0.533761,20.4675,562.94,-0.280244,0.0,0.0
44,10.75,44.2906,41.4191,127.073,104.837,108.434,0.00311484,0.52524,20.4859,562.85,-0.305119,0.0,0.0
46,11.25,44.8596,41.7889,129.342,104.848,109.54,0.00332543,0.509139,20.5007,562.84,-0.396019,0.0,0.0
48,11.75,45.2398,42.8846,130.146,104.846,108.509,0.00349602,0.487062,20.5307,562.8,-0.310606,0.0,0.0
50,12.25,45.4708,43.0189,131.526,104.861,109.317,0.003794,0.461049,20.555,562.79,-0.376445,0.0,0.0
52,12.75,45.2465,43.4142,133.541,104.888,108.191,0.00403537,0.439978,20.5824,562.8,-0.280441,0.0,0.0
54,13.25,45.219,43.1791,135.758,104.893,108.165,0.00439261,0.423134,20.6118,562.78,-0.277824,0.0,0.0
56,13.75,45.2822,43.6753,134.248,104.881,107.373,0.00468197,0.394332,20.6355,562.79,-0.212458,0.0,0.0
58,14.25,44.9863,43.9808,136.695,104.888,106.926,0.00502096,0.371001,20.6679,562.81,-0.174055,0.0,0.0
60,14.75,45.2853,44.2621,139.288,104.904,107.595,0.00538969,0.340537,20.6941,562.82,-0.22915,0.0,0.0
62,15.25,45.069,44.1964,134.717,104.907,107.884,0.00568836,0.315861,20.7241,562.81,-0.253139,0.0,0.0
64,15.75,44.9404,44.4437,137.185,104.907,108.484,0.00604827,0.289088,20.7483,562.82,-0.303224,0.0,0.0
66,16.25,44.9628,44.2766,138.322,104.911,107.182,0.00637954,0.267402,20.7737,562.79,-0.193656,0.0,0.0
68,16.75,44.5033,43.9198,138.351,104.913,107.579,0.00668363,0.247179,20.7942,562.8,-0.226977,0.0,0.0
70,17.25,44.723,44.162,134.944,104.93,107.334,0.00692994,0.228409,20.8132,562.8,-0.204897,0.0,0.0
72,17.75,44.2811,44.2199,139.615,104.917,107.57,0.00715599,0.211554,20.8306,562.79,-0.225906,0.0,0.0
74,18.25,44.5975,43.8558,135.006,104.945,106.612,0.00736297,0.196418,20.8447,562.8,-0.142536,0.0,0.0
76,18.75,43.9079,44.2139,135.585,104.936,107.92,0.0075273,0.182921,20.8587,562.79,-0.253593,0.0,0.0
78,19.25,43.6392,43.4242,136.059,104.942,107.323,0.00765742,0.170878,20.8701,562.8,-0.202939,0.0,0.0
80,19.75,43.8864,43.4579,137.179,104.937,106.975,0.00775154,0.161122,20.8815,562.78,-0.173961,0.0,0.0
82,20.25,43.8512,43.9781,141.273,104.954,107.097,0.00781763,0.151266,20.8908,562.78,-0.18282,0.0,0.0
84,20.75,43.4717,43.5165,137.031,104.954,107.578,0.00784266,0.143283,20.9,562.78,-0.223326,0.0,0.0
86,21.25,43.7043,43.5028,139.443,104.971,106.494,0.00783728,0.135991,20.9075,562.78,-0.130351,0.0,0.0
88,21.75,43.6204,43.616,139.052,104.958,107.237,0.00783292,0.129343,20.9153,562.76,-0.194361,0.0,0.0
90,22.25,43.1391,43.9066,139.045,104.966,106.844,0.00773386,0.123378,20.9216,562.78,-0.160377,0.0,0.0
92,22.75,43.2187,43.4442,137.495,104.963,106.251,0.00765362,0.118024,20.9274,562.79,-0.110296,0.0,0.0
94,23.25,42.8727,43.6344,143.085,104.988,106.871,0.0074796,0.113153,20.9328,562.77,-0.16077,0.0,0.0
96,23.75,42.5659,43.2816,137.486,104.969,106.78,0.00733865,0.108726,20.9371,562.74,-0.154679,0.0,0.0
98,24.25,42.7599,43.2723,135.26,104.983,107.929,0.00722448,0.104622,20.9417,562.76,-0.250294,0.0,0.0
100,24.75,42.4534,43.1199,139.258,104.978,107.083,0.00699205,0.100831,20.9455,562.75,-0.1796,0.0,0.0
102,25.25,42.1847,42.814,135.016,104.994,107.277,0.00680378,0.0977604,20.9485,562.74,-0.194532,0.0,0.0
104,25.75,41.0329,41.6933,138.108,104.985,107.209,0.00665129,0.0940817,20.9515,562.76,-0.1896,0.0,0.0
106,26.25,40.4533,41.3949,135.17,105.006,107.861,0.00637466,0.091102,20.9543,562.77,-0.242627,0.0,0.0
108,26.75,40.0009,41.0996,137.304,104.988,106.951,0.00615059,0.0876666,20.9566,562.77,-0.167585,0.0,0.0
110,27.25,40.5388,41.4847,138.077,105.006,107.604,0.00587108,0.084884,20.9587,562.75,-0.221076,0.0,0.0
112,27.75,40.508,40.8697,139.886,104.992,106.771,0.00564468,0.0826301,20.961,562.73,-0.151963,0.0,0.0
114,28.25,40.1572,40.9586,138.762,105.007,107.041,0.00536107,0.0796749,20.9636,562.73,-0.17347,0.0,0.0
116,28.75,39.9324,40.8431,139.472,105.007,106.305,0.00513135,0.0772812,20.9665,562.72,-0.111139,0.0,0.0
118,29.25,39.5022,41.4429,139.593,105.01,106.422,0.00485147,0.0753424,20.9697,562.74,-0.12079,0.0,0.0
120,29.75,39.5063,40.7373,137.822,105.002,106.88,0.00462477,0.0726039,20.9728,562.72,-0.160393,0.0,0.0
122,30.25,39.9239,41.0348,137.358,105.016,107.341,0.00434758,0.0703858,20.9757,562.71,-0.198017,0.0,0.0
124,30.75,39.4352,40.9441,138.588,105.001,106.785,0.00412306,0.0680542,20.9781,562.7,-0.152421,0.0,0.0
126,31.25,39.587,40.5114,138.951,105.018,107.605,0.0039412,0.0661656,20.9804,562.71,-0.220101,0.0,0.0
128,31.75,39.7084,40.3067,137.769,105.007,107.126,0.00364786,0.0641289,20.9823,562.72,-0.18067,0.0,0.0
130,32.25,39.1019,40.6743,140.893,105.013,106.146,0.00341026,0.0624791,20.9843,562.72,-0.0970726,0.0,0.0
132,32.75,38.6934,40.341,136.422,105.001,106.761,0.00315666,0.0606501,20.9859,562.74,-0.15037,0.0,0.0
134,33.25,38.7025,39.8865,139.315,105.017,106.293,0.00289623,0.0591686,20.9876,562.71,-0.109236,0.0,0.0
136,33.75,39.6409,40.4112,141.154,105.005,106.526,0.00265061,0.0577382,20.989,562.73,-0.130052,0.0,0.0
138,34.25,38.9404,40.0733,138.723,105.016,107.152,0.00242046,0.0563724,20.9904,562.73,-0.182108,0.0,0.0
140,34.75,38.8429,40.607,136.197,105.004,107.832,0.00223403,0.055266,20.9917,562.68,-0.240463,0.0,0.0
142,35.25,38.8377,40.3924,140.395,105.021,106.942,0.00205291,0.0541685,20.9928,562.68,-0.16392,0.0,0.0
144,35.75,38.4922,40.499,141.387,105.001,107.233,0.00187909,0.0530983,20.9936,562.64,-0.190296,0.0,0.0
146,36.25,38.5626,40.3868,137.93,105.01,107.048,0.00170182,0.0522315,20.9943,562.66,-0.173881,0.0,0.0
148,36.75,38.5305,40.2143,136.758,104.999,107.357,0.00155822,0.0512562,20.9953,562.66,-0.200884,0.0,0.0
150,37.25,38.2323,39.7849,139.801,105.008,107.525,0.00142784,0.0504662,20.9962,562.66,-0.214275,0.0,0.0
152,37.75,38.3143,39.8669,141.4,104.996,106.94,0.00130957,0.0496626,20.9973,562.7,-0.165947,0.0,0.0
154,38.25,37.9123,40.1163,138.753,105.004,106.996,0.00121377,0.0490116,20.9981,562.69,-0.170021,0.0,0.0
156,38.75,37.8783,40.003,140.689,104.995,106.553,0.00109612,0.0483981,20.9989,562.69,-0.133298,0.0,0.0
158,39.25,37.781,39.9313,138.403,105.005,106.79,0.00100081,0.0478237,20.9994,562.69,-0.152449,0.0,0.0
160,39.75,38.0107,39.5307,140.839,104.991,107.438,0.000894514,0.0472722,20.9999,562.67,-0.208405,0.0,0.0
162,40.25,37.5148,39.528,141.33,104.995,107.368,0.00080841,0.046748,21.0003,562.65,-0.20215,0.0,0.0
164,40.75,37.4048,39.4676,138.271,104.983,106.647,0.00071564,0.0463233,21.0011,562.63,-0.142262,0.0,0.0
166,41.25,36.9711,39.2787,142.344,104.991,106.775,0.000640496,0.0458976,21.0021,562.65,-0.152387,0.0,0.0
168,41.75,37.4094,39.55,141.019,104.985,107.197,0.000575995,0.0455527,21.0029,562.65,-0.188575,0.0,0.0
170,42.25,37.4219,39.9022,141.052,104.982,106.844,0.00052375,0.045259,21.0036,562.64,-0.159027,0.0,0.0
172,42.75,37.3166,39.6459,139.724,104.963,106.894,0.000494759,0.0450082,21.0042,562.63,-0.164926,0.0,0.0
174,43.25,37.6775,39.1875,137.291,104.971,106.871,0.000471275,0.0447691,21.0046,562.6,-0.162263,0.0,0.0
176,43.75,37.0362,39.691,139.961,104.957,106.909,0.000465015,0.0445432,21.005,562.6,-0.166658,0.0,0.0
178,44.25,36.9798,39.084,137.663,104.977,107.002,0.000471428,0.0443243,21.0053,562.62,-0.172861,0.0,0.0
180,44.75,36.8974,39.0585,138.934,104.954,107.289,0.000476623,0.0441147,21.0055,562.61,-0.199049,0.0,0.0
182,45.25,37.2962,38.2451,140.654,104.962,107.029,0.000480831,0.0439235,21.0057,562.58,-0.176458,0.0,0.0
184,45.75,36.9532,38.9316,136.898,104.949,106.838,0.000509714,0.0437491,21.0059,562.61,-0.161358,0.0,0.0
186,46.25,36.9805,38.806,137.354,104.962,106.983,0.000533109,0.043608,21.006,562.61,-0.172485,0.0,0.0
188,46.75,36.968,38.9284,138.317,104.937,106.777,0.000552059,0.0434254,21.0061,562.68,-0.157211,0.0,0.0
190,47.25,36.8584,38.9852,138.71,104.947,107.405,0.000567408,0.0432776,21.0062,562.68,-0.20948,0.0,0.0
192,47.75,36.5968,38.8903,137.988,104.929,107.144,0.000567708,0.0431148,21.0062,562.67,-0.188902,0.0,0.0
194,48.25,36.5202,38.6746,141.525,104.934,106.812,0.000567951,0.0429442,21.0063,562.68,-0.160461,0.0,0.0
196,48.75,36.4447,38.8015,143.637,104.926,106.865,0.000568148,0.042806,21.0063,562.62,-0.165649,0.0,0.0
198,49.25,35.8182,38.4835,139.786,104.925,106.18,0.000559371,0.0426654,21.0061,562.66,-0.107544,0.0,0.0
200,49.75,36.136,38.3016,140.276,104.914,107.21,0.000544219,0.0425257,21.0056,562.66,-0.195799,0.0,0.0
202,50.25,36.7221,38.4356,138.304,104.92,106.912,0.000529521,0.042391,21.0052,562.67,-0.170103,0.0,0.0
204,50.75,36.4719,38.4001,139.371,104.911,106.327,0.000517615,0.0422625,21.0049,562.67,-0.12127,0.0,0.0
206,51.25,36.4475,38.7128,139.994,104.906,106.912,0.000507971,0.0421585,21.0049,562.63,-0.171342,0.0,0.0
208,51.75,36.1768,38.2988,138.782,104.903,106.524,0.00050016,0.0420527,21.0051,562.63,-0.138672,0.0,0.0
210,52.25,35.7952,38.5967,142.194,104.903,106.601,0.000493833,0.0419476,21.0052,562.63,-0.145238,0.0,0.0
212,52.75,36.4074,38.0106,138.787,104.89,106.902,0.000481434,0.0418984,21.0054,562.62,-0.17186,0.0,0.0
214,53.25,36.215,38.3159,139.275,104.882,106.645,0.000471391,0.0418908,21.0055,562.6,-0.150736,0.0,0.0
216,53.75,35.8366,38.2711,140.329,104.878,107.196,0.000456877,0.0418631,21.0055,562.65,-0.19779,0.0,0.0
218,54.25,36.1876,38.2378,137.475,104.876,106.59,0.00043938,0.0418213,21.0056,562.74,-0.146622,0.0,0.0
220,54.75,35.9236,38.1121,134.932,104.861,106.822,0.000420743,0.0417875,21.0057,562.69,-0.167594,0.0,0.0
222,55.25,35.8597,38.1277,142.1,104.86,106.793,0.00040163,0.0416783,21.0057,562.69,-0.165297,0.0,0.0
224,55.75,35.8075,37.9844,140.235,104.851,106.824,0.000386148,0.0415899,21.0057,562.64,-0.168666,0.0,0.0
226,56.25,35.9199,38.1459,137.714,104.84,106.551,0.000355439,0.0415326,21.0058,562.6,-0.146473,0.0,0.0
228,56.75,35.8126,38.2366,134.494,104.848,107.084,0.000330565,0.0414991,21.0058,562.64,-0.190826,0.0,0.0
230,57.25,36.172,38.3721,140.312,104.827,106.519,0.000301943,0.041472,21.0058,562.66,-0.144802,0.0,0.0
232,57.75,35.6147,38.0602,145.178,104.83,106.443,0.000278759,0.04145,21.0058,562.63,-0.138058,0.0,0.0
234,58.25,35.0405,37.8966,140.805,104.815,106.992,0.000269666,0.0414322,21.0058,562.63,-0.185992,0.0,0.0
236,58.75,35.4047,37.7802,137.834,104.802,107.321,0.000262301,0.0414859,21.0058,562.6,-0.214881,0.0,0.0
238,59.25,35.6951,37.4014,140.348,104.81,106.672,0.000261441,0.0415294,21.0058,562.57,-0.159298,0.0,0.0
240,59.75,35.2873,38.0108,139.602,104.79,106.736,0.000266037,0.0415238,21.0059,562.57,-0.166385,0.0,0.0
242,60.25,35.6473,37.4031,137.318,104.772,106.212,0.000273895,0.0415192,21.0059,562.57,-0.123478,0.0,0.0
244,60.75,35.331,37.5073,136.978,104.77,106.952,0.000274203,0.0414202,21.0059,562.61,-0.186472,0.0,0.0
246,61.25,35.8418,37.5899,133.382,104.755,106.857,0.000274452,0.0413399,21.0059,562.66,-0.17967,0.0,0.0
248,61.75,35.2745,38.0116,136.166,104.765,107.399,0.00025528,0.0412463,21.0059,562.66,-0.224609,0.0,0.0
250,62.25,35.239,37.6419,138.962,104.75,106.307,0.000229559,0.0411446,21.0059,562.68,-0.133424,0.0,0.0
252,62.75,35.1052,37.489,141.574,104.745,106.602,0.000199553,0.0410622,21.0059,562.67,-0.158994,0.0,0.0
254,63.25,35.2741,37.3876,137.505,104.725,106.802,0.000175247,0.0410091,21.0059,562.7,-0.177608,0.0,0.0
256,63.75,35.0667,37.7564,147.051,104.74,107.072,0.000138626,0.0409661,21.0059,562.68,-0.199221,0.0,0.0
258,64.25,34.975,37.584,139.473,104.723,106.271,0.000108962,0.0409449,21.0059,562.69,-0.132672,0.0,0.0
260,64.75,35.2574,37.7353,139.884,104.731,106.606,9.44066e-05,0.0409277,21.0059,562.7,-0.160438,0.0,0.0
262,65.25,35.1007,37.423,139.773,104.71,106.524,6.95161e-05,0.0409274,21.0059,562.7,-0.155344,0.0,0.0
264,65.75,35.3512,37.6969,137.811,104.727,106.39,4.93549e-05,0.0409272,21.0059,562.72,-0.142524,0.0,0.0
266,66.25,35.2114,37.6143,136.759,104.685,105.948,4.51195e-05,0.0408998,21.0059,562.66,-0.108483,0.0,0.0
268,66.75,34.9362,37.3609,139.27,104.691,106.212,4.16888e-05,0.0408775,21.0059,562.64,-0.13041,0.0,0.0
270,67.25,35.0924,37.7342,137.453,104.675,106.662,5.16471e-05,0.0408595,21.0059,562.69,-0.170072,0.0,0.0
272,67.75,34.9091,37.6533,139.344,104.6875,107.137,7.11767e-05,0.0408519,21.0059,562.65,-0.209216,0.0,0.0
274,68.25,35.0962,37.2836,138.994,104.675,107.358,8.69957e-05,0.0408387,21.0059,562.65,-0.228932,0.0,0.0
276,68.75,35.0394,37.179,141.296,104.665,106.196,0.000130083,0.040869,21.0054,562.63,-0.131327,0.0,0.0
278,69.25,35.0562,36.8222,136.05,104.642,106.917,0.000177102,0.0408935,21.0051,562.64,-0.194544,0.0,0.0
280,69.75,35.2159,36.7954,137.926,104.663,106.277,0.000226094,0.040899,21.0048,562.67,-0.138372,0.0,0.0
282,70.25,34.936,36.5957,141.242,104.639,106.256,0.000272159,0.0408905,21.0047,562.67,-0.138671,0.0,0.0
284,70.75,35.0686,36.5239,136.856,104.63,106.79,0.00029482,0.0408837,21.0045,562.66,-0.18484,0.0,0.0
286,71.25,34.4021,37.3575,140.98,104.602,106.827,0.000333571,0.0408645,21.0043,562.63,-0.190407,0.0,0.0
288,71.75,34.9417,37.0184,138.238,104.619,106.659,0.000364958,0.040849,21.0042,562.62,-0.174733,0.0,0.0
290,72.25,35.1969,36.637,138.633,104.598,106.212,0.000380683,0.0408364,21.0043,562.63,-0.138524,0.0,0.0
292,72.75,35.0142,36.9813,139.008,104.597,107.557,0.000393419,0.0408191,21.0046,562.65,-0.252359,0.0,0.0
294,73.25,34.9715,37.3121,140.836,104.575,106.384,0.000403736,0.0408083,21.0048,562.62,-0.155123,0.0,0.0
296,73.75,34.9743,36.853,137.966,104.576,106.583,0.000396336,0.0407898,21.005,562.67,-0.171944,0.0,0.0
298,74.25,34.834,37.1705,137.082,104.556,106.699,0.000390342,0.0407749,21.0052,562.66,-0.183536,0.0,0.0
300,74.75,34.3937,36.8227,137.947,104.57,106.552,0.0003874,0.0407627,21.0053,562.64,-0.169883,0.0,0.0
302,75.25,34.2064,37.1039,138.612,104.544,106.05,0.000386739,0.0407529,21.0054,562.62,-0.129349,0.0,0.0
304,75.75,34.734,36.7046,139.136,104.553,106.345,0.000403174,0.0407665,21.0055,562.61,-0.153773,0.0,0.0
306,76.25,34.3085,36.6942,137.104,104.531,106.424,0.000416487,0.0407968,21.0056,562.62,-0.162292,0.0,0.0
308,76.75,34.1892,36.6515,138.319,104.543,105.846,0.000439399,0.0408214,21.0056,562.62,-0.112048,0.0,0.0
310,77.25,34.2792,36.6693,135.91,104.519,106.577,0.000468873,0.0408549,21.0057,562.63,-0.176371,0.0,0.0
312,77.75,34.4153,36.9537,138.491,104.524,106.744,0.000503607,0.0408821,21.0057,562.61,-0.190072,0.0,0.0
314,78.25,34.5844,36.842,141.967,104.506,106.963,0.000541513,0.0409113,21.0058,562.62,-0.210216,0.0,0.0
316,78.75,34.3214,36.6995,140.503,104.519,106.255,0.000572856,0.0409413,21.0058,562.58,-0.14901,0.0,0.0
318,79.25,34.4024,36.6303,138.198,104.499,106.56,0.000598819,0.0409299,21.0058,562.61,-0.1767,0.0,0.0
320,79.75,34.5223,36.7815,140.216,104.504,106.863,0.000619848,0.0408883,21.0058,562.61,-0.201887,0.0,0.0
322,80.25,34.3784,36.8659,143.779,104.488,106.767,0.000629217,0.0408331,21.0058,562.61,-0.195155,0.0,0.0
324,80.75,34.2376,36.3981,140.985,104.49,105.973,0.000629906,0.0407691,21.0058,562.63,-0.127437,0.0,0.0
326,81.25,34.3154,37.0159,139.001,104.466,106.066,0.00061961,0.0407172,21.0058,562.67,-0.137434,0.0,0.0
328,81.75,34.1278,36.577,140.859,104.472,106.126,0.000610079,0.0406752,21.0058,562.64,-0.142084,0.0,0.0
330,82.25,34.6465,36.7718,139.463,104.483,106.429,0.000580381,0.0406411,21.0059,562.64,-0.166934,0.0,0.0
332,82.75,34.3554,36.624,134.932,104.459,106.156,0.000544265,0.0406817,21.0054,562.62,-0.145796,0.0,0.0
334,83.25,34.2444,36.243,140.605,104.444,106.305,0.000506084,0.0407145,21.0051,562.61,-0.159731,0.0,0.0
336,83.75,34.4197,36.6522,133.559,104.447,105.985,0.000467122,0.0407698,21.0052,562.6,-0.132243,0.0,0.0
338,84.25,34.5754,36.6154,136.177,104.443,106.518,0.000430462,0.0408404,21.0054,562.57,-0.177931,0.0,0.0
340,84.75,34.3184,36.4338,137.922,104.462,106.404,0.000396178,0.0408705,21.0055,562.61,-0.166628,0.0,0.0
342,85.25,34.1679,36.5178,140.001,104.432,106.331,0.000368408,0.0408947,21.0055,562.61,-0.163012,0.0,0.0
344,85.75,34.335,36.1578,137.614,104.43,106.147,0.000331315,0.0409071,21.0056,562.6,-0.147491,0.0,0.0
346,86.25,34.3636,36.3243,135.273,104.421,105.756,0.00030127,0.0409107,21.0057,562.66,-0.114935,0.0,0.0
348,86.75,34.4025,36.5673,139.247,104.444,106.603,0.000264194,0.0408993,21.0057,562.6,-0.18502,0.0,0.0
350,87.25,34.0463,36.4806,138.517,104.416,106.688,0.000205008,0.0408772,21.006,562.62,-0.194702,0.0,0.0
352,87.75,34.2348,36.442,139.472,104.437,106.239,0.000189086,0.0408593,21.0061,562.6,-0.154721,0.0,0.0
354,88.25,34.5969,36.6413,139.743,104.459,106.461,0.000154603,0.0408311,21.0062,562.61,-0.171717,0.0,0.0
356,88.75,34.631,36.6754,141.187,104.489,106.044,0.000126671,0.0408083,21.0063,562.63,-0.133632,0.0,0.0
358,89.25,34.5062,36.4232,140.957,104.522,105.982,0.000113724,0.0407974,21.0064,562.64,-0.125452,0.0,0.0
360,89.75,34.4947,36.3367,137.054,104.558,106.387,0.000103237,0.0407954,21.0064,562.64,-0.156823,0.0,0.0
362,90.25,34.378,36.5624,136.742,104.578,107.677,0.000102002,0.0408074,21.0065,562.67,-0.264144,0.0,0.0
364,90.75,34.206,36.1161,136.48,104.608,106.665,0.000101002,0.0408197,21.0065,562.69,-0.176161,0.0,0.0
366,91.25,34.6758,36.519,138.359,104.634,106.655,0.000105032,0.0408407,21.0066,562.71,-0.173066,0.0,0.0
368,91.75,34.1681,35.8845,141.082,104.657,106.93,0.000108297,0.0408986,21.0066,562.7,-0.194366,0.0,0.0
370,92.25,34.8125,36.2756,139.324,104.686,107.09,0.000116993,0.0409455,21.0066,562.67,-0.205428,0.0,0.0
372,92.75,34.1486,36.314,136.481,104.699,106.189,0.000124037,0.0409426,21.0067,562.68,-0.127813,0.0,0.0
374,93.25,34.6744,36.2099,136.142,104.725,106.264,0.000129743,0.0409402,21.0067,562.67,-0.131968,0.0,0.0
376,93.75,33.9324,36.2874,136.712,104.752,106.194,0.000131943,0.0409111,21.0067,562.65,-0.123647,0.0,0.0
378,94.25,34.4467,36.4479,138.975,104.787,107.873,0.000133726,0.0408875,21.0067,562.64,-0.262482,0.0,0.0
380,94.75,34.3198,35.9324,139.953,104.803,107.256,0.00013517,0.0408684,21.0067,562.65,-0.209238,0.0,0.0
382,95.25,34.1782,36.5447,139.881,104.822,106.362,0.000131244,0.0408529,21.0067,562.65,-0.1319,0.0,0.0
384,95.75,34.3008,36.2977,137.648,104.836,106.796,0.000123477,0.0408547,21.0066,562.64,-0.167536,0.0,0.0
386,96.25,34.0107,36.0203,136.205,104.87,106.907,0.00011655,0.040869,21.0064,562.65,-0.174043,0.0,0.0
388,96.75,33.5602,36.1906,138.159,104.883,106.72,0.000110365,0.0408807,21.0063,562.63,-0.157058,0.0,0.0
390,97.25,34.5033,36.6379,138.072,104.91,106.781,0.000101535,0.0408901,21.0062,562.63,-0.159858,0.0,0.0
392,97.75,34.2669,36.5026,142.917,104.922,107.608,9.09444e-05,0.040912,21.0062,562.61,-0.228716,0.0,0.0
394,98.25,33.5447,36.3855,137.704,104.948,106.762,7.85456e-05,0.0409427,21.0061,562.61,-0.154997,0.0,0.0
396,98.75,34.1931,36.1257,141.459,104.959,107.089,7.14503e-05,0.0409676,21.0061,562.6,-0.181714,0.0,0.0
398,99.25,34.461,36.5762,138.62,104.991,106.92,5.93172e-05,0.0410014,21.0061,562.6,-0.16473,0.0,0.0
400,99.75,34.5328,36.0549,139.34,105.013,106.521,5.31184e-05,0.0410287,21.006,562.6,-0.128964,0.0,0.0
402,100.25,34.3891,36.3094,139.82,105.031,106.69,4.80974e-05,0.0410509,21.006,562.59,-0.141784,0.0,0.0
404,100.75,33.9711,36.5152,140.87,105.03,106.185,4.40304e-05,0.0410688,21.006,562.6,-0.0989104,0.0,0.0
406,101.25,33.455,36.3051,138.08,105.071,106.926,6.61479e-05,0.0410697,21.006,562.61,-0.158323,0.0,0.0
408,101.75,34.3963,35.9697,141.223,105.071,107.018,8.40631e-05,0.0410701,21.0059,562.61,-0.166046,0.0,0.0
410,102.25,34.3373,35.9589,136.565,105.09,107.079,0.000119159,0.0411117,21.0059,562.63,-0.16964,0.0,0.0
412,102.75,33.8733,36.0754,138.207,105.097,107.883,0.000134121,0.0411453,21.0059,562.64,-0.236675,0.0,0.0
414,103.25,33.3597,36.195,137.924,105.125,107.611,0.000164551,0.041151,21.0057,562.61,-0.211403,0.0,0.0
416,103.75,34.2863,35.977,140.032,105.131,106.842,0.0001892,0.0411363,21.0053,562.58,-0.145987,0.0,0.0
418,104.25,34.4911,36.0194,142.503,105.15,106.644,0.000199475,0.0411244,21.005,562.58,-0.127613,0.0,0.0
420,104.75,33.7444,36.0473,138.288,105.16,107.293,0.000207799,0.0411011,21.0047,562.6,-0.181604,0.0,0.0
422,105.25,34.2944,36.425,137.221,105.163,107.463,0.000204853,0.0410823,21.0045,562.6,-0.195711,0.0,0.0
424,105.75,34.3367,35.8336,138.775,105.167,106.905,0.000202468,0.0410742,21.0043,562.57,-0.148255,0.0,0.0
426,106.25,33.9218,35.8699,139.17,105.182,107.44,0.000198624,0.0410605,21.0042,562.62,-0.192154,0.0,0.0
428,106.75,33.9713,35.9824,136.262,105.195,107.541,0.00019379,0.0410422,21.0041,562.61,-0.199569,0.0,0.0
430,107.25,34.1868,35.6839,142.848,105.206,107.701,0.000189874,0.0410209,21.004,562.58,-0.212015,0.0,0.0
432,107.75,33.8501,35.8134,143.839,105.19,106.875,0.000198811,0.0410037,21.0039,562.53,-0.143809,0.0,0.0
434,108.25,34.0182,35.8085,138.798,105.214,107.819,0.000206049,0.0409897,21.0038,562.59,-0.221217,0.0,0.0
436,108.75,33.9473,36.1777,138.643,105.21,107.339,0.000230405,0.0409713,21.0038,562.59,-0.181242,0.0,0.0
438,109.25,34.361,35.8759,137.427,105.232,107.715,0.000266776,0.0409498,21.0037,562.58,-0.210897,0.0,0.0
440,109.75,34.1701,35.9797,138.651,105.23,106.726,0.000296237,0.0409325,21.0037,562.58,-0.127697,0.0,0.0
442,110.25,33.9237,36.2082,143.47,105.249,107.559,0.000343139,0.0408912,21.0041,562.55,-0.196331,0.0,0.0
444,110.75,34.1276,36.1114,141.048,105.229,107.635,0.00038113,0.0408578,21.0045,562.58,-0.204421,0.0,0.0
446,111.25,33.6871,35.924,136.463,105.252,107.493,0.00041918,0.040845,21.0047,562.53,-0.190591,0.0,0.0
448,111.75,33.6775,35.7687,138.418,105.236,107.116,0.000450001,0.0408476,21.005,562.55,-0.160169,0.0,0.0
450,112.25,33.9054,36.4914,137.056,105.259,106.797,0.000468901,0.0408497,21.0051,562.53,-0.131189,0.0,0.0
452,112.75,34.0801,35.6314,137.705,105.269,107.356,0.00048421,0.0408513,21.0053,562.53,-0.177572,0.0,0.0
454,113.25,34.2911,35.8451,138.351,105.278,107.406,0.000488121,0.0408527,21.0054,562.55,-0.181005,0.0,0.0
456,113.75,33.5808,36.1121,140.21,105.271,106.457,0.000491288,0.0408538,21.0055,562.56,-0.101288,0.0,0.0
458,114.25,34.0505,36.1861,141.235,105.289,106.972,0.00048811,0.0408547,21.0056,562.6,-0.143431,0.0,0.0
460,114.75,33.7762,36.0641,139.686,105.288,107.383,0.000480366,0.0408418,21.0056,562.58,-0.178175,0.0,0.0
462,115.25,34.3116,35.8282,135.365,105.297,106.302,0.00047218,0.0408314,21.0057,562.59,-0.0859251,0.0,0.0
464,115.75,33.56,35.8258,139.588,105.297,106.905,0.000463826,0.0408365,21.0057,562.6,-0.137105,0.0,0.0
466,116.25,33.9442,35.9928,142.334,105.33,107.182,0.00045706,0.0408407,21.0057,562.6,-0.157656,0.0,0.0
468,116.75,33.7044,35.8091,139.671,105.302,107.009,0.000455451,0.0408441,21.0058,562.59,-0.145492,0.0,0.0
470,117.25,34.0452,36.0336,138.605,105.325,106.851,0.000452701,0.0408468,21.0056,562.63,-0.130136,0.0,0.0
472,117.75,34.0275,35.7247,135.979,105.31,107.212,0.000450473,0.0408491,21.0054,562.61,-0.161876,0.0,0.0
474,118.25,33.5815,35.7061,138.881,105.341,107.075,0.000446116,0.0408372,21.005,562.62,-0.147666,0.0,0.0
476,118.75,33.7983,35.5529,139.375,105.322,107.093,0.00044029,0.0408277,21.005,562.64,-0.150834,0.0,0.0
478,119.25,33.7954,35.6853,139.465,105.33,106.537,0.000435571,0.0408199,21.0052,562.64,-0.103086,0.0,0.0
480,119.75,33.7975,35.3914,138.662,105.318,107.535,0.00041236,0.0408166,21.0053,562.65,-0.188452,0.0,0.0
482,120.25,33.6316,35.9167,140.258,105.346,107.293,0.000393559,0.0408085,21.0054,562.61,-0.165627,0.0,0.0
484,120.75,33.7584,35.0367,140.112,105.342,107.624,0.000365007,0.0408064,21.0055,562.61,-0.193826,0.0,0.0
486,121.25,33.4325,35.6249,138.873,105.35,106.868,0.000341879,0.0407482,21.0056,562.62,-0.129414,0.0,0.0
488,121.75,33.7178,36.1245,136.683,105.349,106.99,0.000323145,0.040701,21.0056,562.63,-0.139813,0.0,0.0
490,122.25,34.0178,35.6624,140.193,105.364,107.444,0.000301917,0.0406492,21.0057,562.63,-0.176855,0.0,0.0
492,122.75,33.7322,35.9466,140.553,105.355,107.283,0.000284722,0.0406073,21.0057,562.64,-0.164037,0.0,0.0
494,123.25,33.8057,35.2883,136.439,105.368,107.128,0.000278059,0.0405733,21.0058,562.64,-0.149864,0.0,0.0
496,123.75,33.6669,35.8528,140.119,105.359,106.605,0.000272663,0.0405458,21.0058,562.63,-0.106315,0.0,0.0
498,124.25,33.7229,34.9637,136.721,105.353,107.631,0.000275559,0.0405235,21.0058,562.63,-0.193508,0.0,0.0
500,124.75,33.7767,36.0345,139.428,105.354,107.531,0.000277904,0.0404918,21.0058,562.61,-0.185015,0.0,0.0
502,125.25,33.5079,35.8939,134.579,105.357,107.695,0.000279804,0.0404661,21.0058,562.6,-0.198544,0.0,0.0
504,125.75,33.8283,35.7194,140.5,105.367,107.36,0.000281343,0.0404726,21.0058,562.61,-0.169538,0.0,0.0
506,126.25,33.6556,35.3202,135.935,105.368,107.948,0.000271689,0.0404778,21.0058,562.61,-0.218853,0.0,0.0
508,126.75,33.695,35.9559,141.217,105.37,107.148,0.00026387,0.0405093,21.0059,562.61,-0.151298,0.0,0.0
510,127.25,33.7955,35.3833,139.016,105.367,107.16,0.000253749,0.0405348,21.0059,562.63,-0.152687,0.0,0.0
512,127.75,33.4714,35.4654,138.362,105.365,107.16,0.000242142,0.0405827,21.0059,562.61,-0.152793,0.0,0.0
514,128.25,33.7366,35.7631,134.356,105.361,107.954,0.000232741,0.0406215,21.0059,562.58,-0.219944,0.0,0.0
516,128.75,33.2554,35.1071,137.303,105.362,107.612,0.000223214,0.0406665,21.0059,562.6,-0.191105,0.0,0.0
518,129.25,33.3329,35.7973,138.419,105.366,107.21,0.000213777,0.040703,21.0057,562.59,-0.156925,0.0,0.0
520,129.75,33.534,34.8877,135.665,105.369,107.427,0.000206133,0.0407326,21.0056,562.57,-0.174969,0.0,0.0
522,130.25,33.9436,35.1766,141.786,105.363,107.266,0.000197521,0.0407693,21.0055,562.57,-0.161934,0.0,0.0
524,130.75,33.6715,35.8318,137.932,105.371,107.471,0.000190545,0.0407991,21.0054,562.57,-0.178473,0.0,0.0
526,131.25,33.7718,35.3221,141.181,105.359,106.7,0.000188527,0.0408097,21.0053,562.6,-0.114448,0.0,0.0
528,131.75,33.9826,35.465,140.397,105.368,106.914,0.000186892,0.0408182,21.0053,562.6,-0.131756,0.0,0.0
530,132.25,33.9905,35.3452,138.701,105.361,107.599,0.000192832,0.0408251,21.0052,562.61,-0.190078,0.0,0.0
532,132.75,33.9429,35.2345,136.976,105.369,107.033,0.000197643,0.0407898,21.0052,562.58,-0.141729,0.0,0.0
534,133.25,33.7966,35.5332,135.493,105.363,107.345,0.00020154,0.0407612,21.0052,562.59,-0.168568,0.0,0.0
536,133.75,34.2285,35.3981,135.348,105.363,107.45,,0.0407653,,562.58,-0.177398,0.0,0.0
538,134.25,33.8214,35.9499,138.659,105.357,106.675,,0.0407686,,562.57,-0.112425,0.0,0.0
540,134.75,33.7927,35.7066,141.999,105.371,107.138,,0.0407857,,562.56,-0.150439,0.0,0.0
542,135.25,33.8438,35.5653,140.442,105.36,107.05,,0.0408124,,562.56,-0.143905,0.0,0.0
544,135.75,34.382,35.7918,139.726,105.363,107.258,,0.040834,,562.58,-0.161229,0.0,0.0
546,136.25,33.6847,36.0133,136.254,105.351,107.781,,0.0408515,,562.61,-0.206286,0.0,0.0
548,136.75,33.8648,35.6538,138.388,105.363,107.283,,,,562.61,-0.163386,0.0,0.0
550,137.25,33.7783,35.5104,143.5,105.356,107.571,,,,562.59,-0.188164,0.0,0.0
552,137.75,33.5478,35.713,141.512,105.362,107.36,,,,562.58,-0.1699,0.0,0.0
554,138.25,33.6133,35.6447,138.801,105.365,107.097,,,,562.59,-0.14748,0.0,0.0
556,138.75,33.4461,35.3396,135.236,105.355,107.039,,,,562.55,-0.143438,0.0,0.0
558,139.25,34.0835,35.3344,144.05,105.365,106.981,,,,562.55,-0.137643,0.0,0.0
560,139.75,33.3471,35.3038,135.302,105.352,107.475,,,,562.59,-0.180456,0.0,0.0
562,140.25,34.5328,35.4977,136.992,105.343,107.716,,,,562.57,-0.201498,0.0,0.0
564,140.75,33.3352,35.2409,139.194,105.37,107.527,,,,562.55,-0.18336,0.0,0.0
566,141.25,33.9077,35.5315,143.036,105.335,107.425,,,,562.53,-0.177787,0.0,0.0
568,141.75,33.6929,35.3516,142.901,105.359,106.692,,,,562.51,-0.113741,0.0,0.0
570,142.25,33.6298,35.0451,138.365,105.336,107.406,,,,562.5,-0.175995,0.0,0.0
572,142.75,33.2437,35.4111,139.611,105.34,108.2,,,,562.52,-0.242338,0.0,0.0
574,143.25,33.641,35.5641,138.456,105.316,106.806,,,,562.52,-0.12711,0.0,0.0
576,143.75,33.9894,35.4853,139.697,105.351,107.262,,,,562.56,-0.162559,0.0,0.0
578,144.25,34.2831,35.1701,137.581,105.328,106.637,,,,562.54,-0.111726,0.0,0.0
579,144.5,33.7778,35.525,139.401,105.333,106.52,,,,562.54,-0.101369,0.0,0.0