File: 01_Data/Hemp_Sheet/Cone/Hemp_Sheet_Cone_HF75Scan_220524_R3.csv
Names,Time,Stack TC,Smoke TC,Exh Press,Smoke Comp,Smoke Meas,CO Meter,CO2 Meter,O2 Meter,Sample Mass,Ext Coeff,Start Test,Flame Verif
Chan Gain,,500,500,1,1,1,1,1,1,1,1,1.0,1.0
Offset,,0,0,0.139323,0,0,0,0,0,0,0,0.0,0.0
Gain,,1,1,25.011,13.8491,15.2622,1,1,1,1.00087,1.03118,1.0,1.0
Units,sec,C,C,Pa,%,%,%,%,%,g,/m,,
Baseline,,44.8817,46.6426,134.893,104.985,108.232,0.000178936,0.0420338,21.0017,-452.827,-0.275426,,
2,0.25,42.6764,45.0081,135.488,105.561,107.838,0.000277536,0.0467635,20.9834,563.791,-0.193073,0.0,0.0
4,0.75,41.8892,44.0311,132.743,105.556,108.793,0.00037661,0.0503067,20.977,563.831,-0.273283,0.0,0.0
6,1.25,40.9354,43.1092,131.469,105.572,107.727,0.000635839,0.0531767,20.9445,563.761,-0.182827,0.0,0.0
8,1.75,41.155,42.9938,144.534,105.571,106.057,0.000845814,0.0850342,20.8935,563.731,-0.041561,0.0,0.0
10,2.25,41.353,43.6036,129.131,105.563,109.619,0.00113187,0.110839,20.8522,563.521,-0.340994,0.0,1.0
12,2.75,41.1698,43.0862,107.249,105.582,110.848,0.00146796,0.191705,20.7391,563.4,-0.440263,0.0,1.0
14,3.25,41.7208,43.602,104.819,105.586,110.718,0.00179714,0.257206,20.6475,562.76,-0.429327,0.0,1.0
16,3.75,42.3867,43.3518,88.4045,105.584,110.075,0.00211503,0.376319,20.5714,562.94,-0.37677,0.0,1.0
18,4.25,43.4746,44.0732,89.3052,105.581,109.441,0.00237253,0.472801,20.5082,562.86,-0.324818,0.0,1.0
20,4.75,45.2368,44.958,83.4562,105.585,108.308,0.00265259,0.559341,20.457,562.68,-0.230304,0.0,1.0
22,5.25,47.7776,45.7588,94.336,105.6,105.736,0.00287944,0.636989,20.4155,562.63,-0.0116084,0.0,1.0
24,5.75,50.2191,47.4475,110.234,105.599,106.405,0.00307553,0.682119,20.3818,562.49,-0.068797,0.0,1.0
26,6.25,52.5605,49.0348,116.796,105.609,109.962,0.00323437,0.702686,20.3546,562.5,-0.365403,0.0,1.0
28,6.75,54.5649,50.6259,121.219,105.6,111.322,0.00336822,0.719345,20.3326,562.47,-0.477316,0.0,1.0
30,7.25,54.7732,51.0165,123.435,105.63,111.189,0.00348132,0.68897,20.3602,562.39,-0.463989,0.0,1.0
32,7.75,54.8134,51.6619,126.459,105.602,110.089,0.00358787,0.664367,20.3826,562.41,-0.376398,0.0,0.0
34,8.25,54.6306,52.0447,127.563,105.616,110.049,0.00368764,0.629488,20.4261,562.41,-0.371837,0.0,0.0
36,8.75,54.8955,52.8087,128.129,105.617,111.227,0.00376846,0.587782,20.4613,562.37,-0.468145,0.0,0.0
38,9.25,55.0168,53.4924,129.344,105.62,109.85,0.00388796,0.543483,20.4899,562.34,-0.355188,0.0,0.0
40,9.75,55.047,53.9057,132.168,105.624,108.885,0.0040334,0.498137,20.5327,562.37,-0.275043,0.0,0.0
42,10.25,54.7114,53.774,129.721,105.626,109.8,0.00420016,0.454693,20.5673,562.31,-0.350538,0.0,0.0
44,10.75,54.5183,54.1206,129.834,105.619,109.476,0.00437931,0.413463,20.6072,562.36,-0.324444,0.0,0.0
46,11.25,54.5422,53.7453,132.282,105.64,109.56,0.00457809,0.380066,20.6396,562.36,-0.329597,0.0,0.0
48,11.75,54.5229,54.1695,133.501,105.627,109.526,0.00478741,0.342345,20.6767,562.4,-0.327913,0.0,0.0
50,12.25,54.6154,53.7282,137.347,105.649,108.873,0.00500683,0.311791,20.7067,562.38,-0.271902,0.0,0.0
52,12.75,54.2696,53.7401,134.109,105.642,108.492,0.00522945,0.283869,20.7381,562.38,-0.240808,0.0,0.0
54,13.25,53.8889,54.0752,128.892,105.638,109.493,0.00548099,0.258398,20.7653,562.36,-0.324167,0.0,0.0
56,13.75,53.6874,54.001,130.58,105.638,109.485,0.00568474,0.236116,20.789,562.35,-0.323474,0.0,0.0
58,14.25,53.4487,53.9886,136.645,105.644,109.11,0.00587151,0.216581,20.8083,562.33,-0.291937,0.0,0.0
60,14.75,53.3707,53.6991,133.27,105.645,109.241,0.00604236,0.199506,20.8238,562.32,-0.302783,0.0,0.0
62,15.25,52.9521,53.7939,131.603,105.657,109.882,0.00618074,0.18455,20.8395,562.31,-0.354683,0.0,0.0
64,15.75,52.7334,53.5649,135.196,105.646,109.986,0.00629283,0.171532,20.8522,562.299,-0.364208,0.0,0.0
66,16.25,52.4258,53.4854,133.446,105.661,110.255,0.00639349,0.160174,20.8625,562.289,-0.385019,0.0,0.0
68,16.75,52.6167,53.867,138.033,105.672,110.131,0.0064839,0.150251,20.8729,562.27,-0.373908,0.0,0.0
70,17.25,52.1611,53.3881,133.559,105.663,109.37,0.00655515,0.141563,20.8814,562.239,-0.311904,0.0,0.0
72,17.75,51.7114,52.8026,132.339,105.648,110.048,0.00661108,0.134526,20.8901,562.289,-0.369082,0.0,0.0
74,18.25,52.2334,53.3538,133.01,105.645,109.948,0.00665639,0.128826,20.897,562.279,-0.361103,0.0,0.0
76,18.75,52.0708,52.9353,139.849,105.66,109.17,0.00666554,0.122298,20.9036,562.27,-0.295578,0.0,0.0
78,19.25,51.8252,53.0081,133.494,105.669,109.028,0.00667296,0.11701,20.9098,562.289,-0.283079,0.0,0.0
80,19.75,51.644,53.0742,138.564,105.647,109.193,0.00662268,0.112061,20.9159,562.31,-0.298668,0.0,0.0
82,20.25,50.01,51.4729,133.562,105.676,108.479,0.00658195,0.107453,20.9219,562.279,-0.23679,0.0,0.0
84,20.75,49.1242,50.8602,137.466,105.646,109.147,0.0064516,0.103721,20.9275,562.249,-0.294955,0.0,0.0
86,21.25,50.5252,51.6865,134.29,105.661,107.673,0.00634602,0.0996575,20.9326,562.229,-0.170613,0.0,0.0
88,21.75,51.6218,52.8201,136.021,105.667,108.145,0.00613728,0.0963664,20.9377,562.249,-0.209621,0.0,0.0
90,22.25,51.2235,52.6055,133.127,105.669,108.616,0.0059682,0.0924837,20.9426,562.259,-0.248854,0.0,0.0
92,22.75,50.9991,52.6567,129.923,105.657,108.917,0.00583124,0.0893387,20.9466,562.249,-0.27489,0.0,0.0
94,23.25,50.9259,52.8131,135.831,105.671,109.189,0.0055554,0.0863122,20.9503,562.289,-0.296255,0.0,0.0
96,23.75,50.0991,51.5512,133.628,105.65,109.043,0.00533197,0.0834293,20.9538,562.279,-0.285868,0.0,0.0
98,24.25,49.5763,51.0331,136.545,105.671,109.026,0.00503735,0.0806305,20.9572,562.31,-0.282743,0.0,0.0
100,24.75,50.456,52.4121,134.88,105.66,108.929,0.0047987,0.0779461,20.9606,562.279,-0.275604,0.0,0.0
102,25.25,49.9759,51.9266,133.262,105.671,109.102,0.0044897,0.0752655,20.9639,562.249,-0.289001,0.0,0.0
104,25.75,49.7086,51.5141,136.205,105.661,108.746,0.0042394,0.0726386,20.9669,562.239,-0.260319,0.0,0.0
106,26.25,49.4099,51.1148,134.255,105.67,108.472,0.00396664,0.0705108,20.9697,562.239,-0.236753,0.0,0.0
108,26.75,50.4055,52.6937,131.375,105.68,108.519,0.00385036,0.0679507,20.9711,562.199,-0.239728,0.0,0.0
110,27.25,51.0756,52.3267,130.823,105.683,109.283,0.00362441,0.065877,20.9735,562.179,-0.302962,0.0,0.0
112,27.75,50.1438,52.0711,135.942,105.655,109.001,0.00341699,0.0638874,20.9763,562.199,-0.282067,0.0,0.0
114,28.25,49.7523,51.9865,130.046,105.689,109.254,0.00322384,0.0619968,20.9785,562.239,-0.300139,0.0,0.0
116,28.75,49.3418,51.9193,133.146,105.671,108.934,0.00304477,0.0602563,20.9808,562.199,-0.275014,0.0,0.0
118,29.25,49.9079,51.8492,135.08,105.684,109.611,0.00289972,0.0586581,20.9826,562.249,-0.330063,0.0,0.0
120,29.75,49.8833,51.8007,134.478,105.664,108.072,0.00273911,0.0577969,20.9841,562.279,-0.20387,0.0,0.0
122,30.25,49.4161,50.9883,132.093,105.677,108.318,0.00257022,0.0563242,20.9858,562.27,-0.223233,0.0,0.0
124,30.75,49.1996,51.5017,134.231,105.659,108.639,0.00240837,0.0550091,20.9871,562.239,-0.251548,0.0,0.0
126,31.25,48.5317,51.3463,134.308,105.673,109.238,0.00225472,0.0538338,20.9886,562.239,-0.300126,0.0,0.0
128,31.75,48.7262,51.1945,132.969,105.667,109.338,0.00211102,0.0528818,20.9898,562.249,-0.308922,0.0,0.0
130,32.25,48.5131,51.3951,135.493,105.68,109.085,0.0019773,0.0519886,20.9908,562.199,-0.286851,0.0,0.0
132,32.75,48.3684,51.2522,134.514,105.66,108.906,0.0018536,0.051155,20.9916,562.199,-0.273706,0.0,0.0
134,33.25,48.591,51.4906,132.393,105.663,108.877,0.00173956,0.0504798,20.9927,562.239,-0.271092,0.0,0.0
136,33.75,48.2714,50.4868,131.537,105.656,109.315,0.00163117,0.0497282,20.9936,562.239,-0.307934,0.0,0.0
138,34.25,48.3726,51.2889,131.898,105.673,109.928,0.00152897,0.0490547,20.9943,562.189,-0.357141,0.0,0.0
140,34.75,48.4978,51.0922,130.141,105.644,108.811,0.00143146,0.048451,20.9949,562.209,-0.267226,0.0,0.0
142,35.25,47.7909,50.6655,134.744,105.657,109.45,0.00133923,0.0479045,20.9956,562.189,-0.319032,0.0,0.0
144,35.75,47.6479,50.3715,134.832,105.659,109.256,0.00126453,0.0474102,20.9964,562.209,-0.302787,0.0,0.0
146,36.25,47.7608,50.1,137.514,105.654,109.324,0.00119187,0.0469739,20.997,562.229,-0.308849,0.0,0.0
148,36.75,47.6881,50.0677,132.422,105.646,108.192,0.00112208,0.0465882,20.9975,562.27,-0.215439,0.0,0.0
150,37.25,47.6358,50.3505,133.191,105.666,108.617,0.00106555,0.0462327,20.9979,562.27,-0.249186,0.0,0.0
152,37.75,47.5986,50.7389,136.225,105.649,109.333,0.00102948,0.045906,20.9983,562.219,-0.310018,0.0,0.0
154,38.25,47.4072,50.2261,133.223,105.656,109.294,0.00100026,0.0456413,20.9985,562.209,-0.306199,0.0,0.0
156,38.75,47.3482,49.9597,132.747,105.653,109.018,0.000976593,0.0453552,20.9987,562.249,-0.283568,0.0,0.0
158,39.25,47.3759,50.0037,136.344,105.66,108.784,0.000966504,0.0450588,20.9988,562.239,-0.263567,0.0,0.0
160,39.75,47.4415,49.8347,135.467,105.645,108.709,0.00097964,0.0448187,20.9994,562.239,-0.258635,0.0,0.0
162,40.25,47.0555,50.6078,133.613,105.645,108.777,0.000987081,0.0445425,20.9999,562.209,-0.264253,0.0,0.0
164,40.75,47.2244,50.1268,134.051,105.652,109.627,0.000990227,0.0443187,21.0002,562.179,-0.334081,0.0,0.0
166,41.25,47.1743,49.979,135.178,105.637,108.1,0.000973588,0.0441375,21.0005,562.179,-0.208524,0.0,0.0
168,41.75,46.9612,49.7086,133.839,105.634,109.217,0.00094284,0.0439361,21.0008,562.219,-0.301719,0.0,0.0
170,42.25,47.0362,49.9226,132.599,105.641,109.549,0.000917935,0.0438503,21.001,562.229,-0.328565,0.0,0.0
172,42.75,46.9456,49.6929,132.657,105.626,108.969,0.000854061,0.0437035,21.0012,562.259,-0.2819,0.0,0.0
174,43.25,46.4442,49.3559,134.487,105.629,110.129,0.000802324,0.0435301,21.0013,562.239,-0.37737,0.0,0.0
176,43.75,47.0081,49.9629,133.533,105.627,108.794,0.00072788,0.0433896,21.0014,562.239,-0.267239,0.0,0.0
178,44.25,46.7936,49.8557,133.845,105.632,109.817,0.000638298,0.0432077,21.0015,562.249,-0.351412,0.0,0.0
180,44.75,46.4324,49.4644,133.249,105.632,109.293,0.000548534,0.0430604,21.0015,562.27,-0.308224,0.0,0.0
182,45.25,46.7334,49.079,134.538,105.641,108.741,0.000460343,0.0429137,21.0018,562.249,-0.261557,0.0,0.0
184,45.75,46.6495,49.3826,130.657,105.624,108.626,0.000388908,0.042795,21.0023,562.27,-0.253541,0.0,0.0
186,46.25,46.5872,49.0651,135.364,105.613,108.582,0.000310411,0.0426988,21.0026,562.259,-0.250799,0.0,0.0
188,46.75,46.2247,49.3252,135.661,105.609,110.117,0.000246828,0.0426209,21.0029,562.249,-0.378114,0.0,0.0
190,47.25,46.1143,49.0978,134.477,105.617,109.115,0.000208632,0.0425362,21.0032,562.249,-0.294678,0.0,0.0
192,47.75,46.3124,48.7567,136.499,105.616,108.979,0.000177693,0.0424483,21.0036,562.249,-0.28358,0.0,0.0
194,48.25,46.6058,49.1803,136.724,105.613,109.07,0.000186521,0.0423771,21.0038,562.229,-0.29133,0.0,0.0
196,48.75,46.5964,49.616,136.321,105.61,109.053,0.000193673,0.0422922,21.0041,562.229,-0.290232,0.0,0.0
198,49.25,46.3637,49.1613,134.876,105.607,108.898,0.000232175,0.0422234,21.0042,562.249,-0.27761,0.0,0.0
200,49.75,46.1325,49.0568,134.999,105.594,108.529,0.000263361,0.0421957,21.0039,562.229,-0.247968,0.0,0.0
202,50.25,46.2472,49.1637,131.099,105.611,108.335,0.000288622,0.0421732,21.0037,562.229,-0.230353,0.0,0.0
204,50.75,45.8484,48.8443,139.318,105.596,109.984,0.000323631,0.0421264,21.0035,562.229,-0.368326,0.0,0.0
206,51.25,46.5294,48.7967,131.835,105.597,109.142,0.000351988,0.0420626,21.0034,562.249,-0.298619,0.0,0.0
208,51.75,45.9947,48.6831,133.951,105.594,108.606,0.000364047,0.0420109,21.0032,562.229,-0.254368,0.0,0.0
210,52.25,45.9182,48.6053,134.899,105.581,109.387,0.000373814,0.0419691,21.0031,562.239,-0.320388,0.0,0.0
212,52.75,45.4834,49.0727,132.452,105.594,108.692,0.000369608,0.0419352,21.003,562.219,-0.261545,0.0,0.0
214,53.25,46.1955,48.8568,134.152,105.592,108.68,0.000355296,0.0419214,21.003,562.219,-0.260754,0.0,0.0
216,53.75,45.8457,48.689,135.315,105.594,109.501,0.000331593,0.0419102,21.0029,562.229,-0.32866,0.0,0.0
218,54.25,45.8637,48.4721,132.993,105.578,108.457,0.000301495,0.0418867,21.0029,562.249,-0.243322,0.0,0.0
220,54.75,45.3986,48.8959,134.6,105.59,108.488,0.000273929,0.0418549,21.0028,562.249,-0.244874,0.0,0.0
222,55.25,45.6132,48.3604,132.265,105.574,109.346,0.000248735,0.0418434,21.0028,562.259,-0.317576,0.0,0.0
224,55.75,45.4342,48.8932,137.819,105.59,109.012,0.000230875,0.041847,21.003,562.259,-0.288458,0.0,0.0
226,56.25,45.2413,47.9285,129.769,105.58,109.498,0.000218703,0.0418571,21.0034,562.229,-0.329622,0.0,0.0
228,56.75,45.8808,48.5234,136.097,105.586,108.787,0.000208843,0.0418717,21.0037,562.239,-0.270209,0.0,0.0
230,57.25,44.9724,48.5793,133.087,105.557,109.365,0.000200857,0.0418836,21.0039,562.239,-0.320569,0.0,0.0
232,57.75,45.686,48.6541,137.034,105.57,108.73,0.000218607,0.0418932,21.0041,562.249,-0.266786,0.0,0.0
234,58.25,45.3804,48.0657,132.404,105.555,108.404,0.000232985,0.0419082,21.0043,562.239,-0.240887,0.0,0.0
236,58.75,45.3,48.4637,133.639,105.564,109.431,0.000261594,0.0419267,21.0044,562.239,-0.325494,0.0,0.0
238,59.25,45.4022,48.1394,133.868,105.564,109.904,0.000284767,0.0419418,21.0045,562.249,-0.364412,0.0,0.0
240,59.75,45.2993,48.0397,134.096,105.559,110.08,0.000318084,0.0419267,21.0046,562.229,-0.37929,0.0,0.0
242,60.25,45.1549,48.3784,134.069,105.542,108.873,0.000345071,0.0419145,21.0047,562.249,-0.281062,0.0,0.0
244,60.75,45.381,48.5667,131.468,105.55,108.861,0.00036693,0.0419046,21.0048,562.209,-0.279403,0.0,0.0
246,61.25,45.3041,48.1083,138.169,105.543,109.817,0.000410106,0.0418966,21.0048,562.199,-0.359088,0.0,0.0
248,61.75,45.0896,48.5196,135.993,105.553,109.207,0.000445078,0.0419044,21.0048,562.209,-0.307824,0.0,0.0
250,62.25,45.2885,48.3718,132.625,105.541,108.936,0.000482987,0.0419237,21.0047,562.219,-0.286395,0.0,0.0
252,62.75,45.1971,48.3223,132.976,105.548,110.288,0.000522315,0.0419393,21.0047,562.219,-0.397357,0.0,0.0
254,63.25,45.3214,48.1361,134.865,105.528,109.012,0.000554171,0.0418974,21.0047,562.199,-0.293856,0.0,0.0
256,63.75,45.003,47.8303,135.78,105.54,108.785,0.000579974,0.0418635,21.0046,562.189,-0.273929,0.0,0.0
258,64.25,45.1356,47.6046,133.161,105.52,109.394,0.000600875,0.0418361,21.0046,562.179,-0.326142,0.0,0.0
260,64.75,45.3233,48.2242,133.96,105.536,109.558,0.00059418,0.041821,21.0046,562.209,-0.338276,0.0,0.0
262,65.25,44.6218,47.9462,134.065,105.526,109.435,0.000567496,0.0418152,21.0046,562.219,-0.329024,0.0,0.0
264,65.75,44.8447,48.1448,138.876,105.534,108.774,0.000522286,0.0418177,21.0045,562.169,-0.27354,0.0,0.0
266,66.25,45.0178,47.7262,132.6,105.529,110.049,0.000464431,0.0418262,21.0045,562.189,-0.379446,0.0,0.0
268,66.75,44.6941,47.3928,130.247,105.537,109.152,0.000417569,0.0418331,21.0045,562.159,-0.304682,0.0,0.0
270,67.25,44.8417,47.9427,132.979,105.518,108.825,0.000355401,0.0418387,21.0045,562.159,-0.279179,0.0,0.0
272,67.75,45.0795,47.8621,135.348,105.528,109.678,0.000305045,0.0418432,21.0045,562.169,-0.34888,0.0,0.0
274,68.25,44.8439,47.5557,134.194,105.519,108.969,0.000258951,0.041854,21.0045,562.149,-0.291061,0.0,0.0
276,68.75,44.9497,48.5569,135.772,105.527,109.911,0.000246552,0.0418692,21.0045,562.179,-0.368174,0.0,0.0
278,69.25,45.4738,47.3345,131.152,105.511,108.95,0.000247142,0.0418959,21.0045,562.159,-0.290128,0.0,0.0
280,69.75,45.0661,47.9781,133.153,105.517,108.985,0.000247619,0.0419304,21.0045,562.129,-0.292481,0.0,0.0
282,70.25,44.7108,47.2952,133.895,105.511,108.479,0.000264965,0.0419584,21.0045,562.129,-0.250949,0.0,0.0
284,70.75,45.2486,48.2285,135.535,105.531,109.373,0.000279015,0.0420083,21.0045,562.189,-0.323506,0.0,0.0
286,71.25,45.0501,47.8165,133.891,105.504,108.648,0.000290396,0.0420731,21.0045,562.209,-0.265537,0.0,0.0
288,71.75,44.4581,47.7118,131.907,105.502,108.851,0.000298976,0.0420951,21.0045,562.199,-0.282609,0.0,0.0
290,72.25,45.0733,47.6004,132.678,105.506,108.032,0.000305352,0.0421326,21.0045,562.219,-0.214022,0.0,0.0
292,72.75,44.4884,47.9485,137.493,105.514,108.67,0.000302866,0.0421903,21.0045,562.199,-0.266565,0.0,0.0
294,73.25,44.6571,47.5211,132.924,105.509,108.656,0.000293967,0.042237,21.0045,562.189,-0.265876,0.0,0.0
296,73.75,45.175,47.855,133.989,105.514,108.733,0.000283571,0.0422677,21.0045,562.199,-0.271797,0.0,0.0
298,74.25,44.5249,47.2331,137.989,105.502,108.977,0.000272283,0.0422861,21.0045,562.229,-0.293129,0.0,0.0
300,74.75,44.4162,47.4695,132.707,105.511,109.58,0.000265052,0.042301,21.0045,562.229,-0.342257,0.0,0.0
302,75.25,44.8426,47.6036,135.414,105.507,109.318,0.000260916,0.0423202,21.0045,562.249,-0.320985,0.0,0.0
304,75.75,44.6985,47.3187,133.793,105.515,109.54,0.000262665,0.0423423,21.0045,562.239,-0.3387,0.0,0.0
306,76.25,44.9146,47.5714,130.238,105.489,108.083,0.000268672,0.0423458,21.0045,562.209,-0.219758,0.0,0.0
308,76.75,44.7846,47.6438,131.715,105.512,108.647,0.000279276,0.0423357,21.0045,562.149,-0.26481,0.0,0.0
310,77.25,44.5484,47.6563,135.456,105.496,108.927,0.00029303,0.0423419,21.0045,562.159,-0.289424,0.0,0.0
312,77.75,44.6576,47.5171,131.703,105.493,108.547,0.000304171,0.0423598,21.0045,562.169,-0.2581,0.0,0.0
314,78.25,44.4979,47.7992,137.955,105.498,108.547,0.000324679,0.0423672,21.0045,562.129,-0.257738,0.0,0.0
316,78.75,44.2843,47.2978,130.353,105.488,109.271,0.000351624,0.0423666,21.0045,562.139,-0.318725,0.0,0.0
318,79.25,44.5438,47.0306,135.586,105.48,109.344,0.00038494,0.0423734,21.0045,562.149,-0.325465,0.0,0.0
320,79.75,44.3116,47.2775,134.606,105.491,108.138,0.000422267,0.0423853,21.0045,562.169,-0.224175,0.0,0.0
322,80.25,43.9412,47.1874,132.509,105.479,108.743,0.00046272,0.042395,21.0045,562.169,-0.275696,0.0,0.0
324,80.75,44.0985,47.2835,139.496,105.498,108.873,0.000504686,0.042471,21.0045,562.179,-0.284828,0.0,0.0
326,81.25,44.3809,47.1995,137.982,105.482,109.145,0.000538677,0.0425325,21.0045,562.169,-0.308742,0.0,0.0
328,81.75,43.8507,46.5484,135.835,105.486,108.812,0.000583208,0.0425609,21.0045,562.209,-0.280773,0.0,0.0
330,82.25,44.135,47.1709,131.601,105.488,109.214,0.000619278,0.0425644,21.0045,562.199,-0.313982,0.0,0.0
332,82.75,44.6427,47.4977,135.464,105.494,109.174,0.000655782,0.042553,21.0045,562.209,-0.31012,0.0,0.0
334,83.25,43.8632,46.5058,133.494,105.494,109.122,0.00068535,0.0425308,21.0045,562.209,-0.305871,0.0,0.0
336,83.75,44.3798,46.8965,136.369,105.509,109.701,0.000709301,0.0425128,21.0045,562.179,-0.352428,0.0,0.0
338,84.25,44.1283,47.1868,133.812,105.5,109.238,0.000726271,0.042471,21.0045,562.199,-0.314973,0.0,0.0
340,84.75,44.6505,46.9778,137.559,105.493,109,0.000740017,0.0424371,21.0045,562.199,-0.295823,0.0,0.0
342,85.25,44.3966,47.221,133.433,105.489,109.055,0.000744121,0.0424506,21.0046,562.199,-0.300745,0.0,0.0
344,85.75,44.126,46.8468,135.861,105.495,109.949,0.000741118,0.0424615,21.0046,562.139,-0.374071,0.0,0.0
346,86.25,44.1613,47.4023,134.904,105.496,109.159,0.000738685,0.0424703,21.0042,562.109,-0.308815,0.0,0.0
348,86.75,44.4367,46.5845,136.441,105.503,107.468,0.000724575,0.0424775,21.0039,562.139,-0.166922,0.0,0.0
350,87.25,44.388,46.75,130.945,105.513,108.705,0.000713146,0.0424833,21.0036,562.129,-0.269581,0.0,0.0
352,87.75,44.1077,46.607,134.271,105.508,108.325,0.000688114,0.0425016,21.0034,562.119,-0.238373,0.0,0.0
354,88.25,44.1995,47.2415,136.447,105.519,108.644,0.000667837,0.0425164,21.0032,562.099,-0.263996,0.0,0.0
356,88.75,44.1916,46.8633,136.86,105.512,109.112,0.00063996,0.0425213,21.0031,562.109,-0.3035,0.0,0.0
358,89.25,44.2922,46.9964,134.824,105.522,108.974,0.000607071,0.0425187,21.003,562.109,-0.291155,0.0,0.0
360,89.75,44.051,46.7185,132.391,105.514,109.567,0.00058043,0.0425167,21.0027,562.099,-0.340967,0.0,0.0
362,90.25,43.6662,46.7927,133.164,105.51,108.855,0.000545517,0.0425014,21.0025,562.119,-0.282309,0.0,0.0
364,90.75,44.2465,46.7292,134.882,105.52,108.342,0.000517238,0.042489,21.0023,562.159,-0.238798,0.0,0.0
366,91.25,44.1884,46.7813,134.927,105.521,109.335,0.000489484,0.042479,21.0022,562.159,-0.321254,0.0,0.0
368,91.75,44.0679,46.2892,133.421,105.5,109.314,0.000467003,0.0424709,21.0021,562.169,-0.321182,0.0,0.0
370,92.25,44.6206,46.9437,133.05,105.506,110.247,0.000448793,0.0424854,21.002,562.139,-0.397619,0.0,0.0
372,92.75,43.6399,46.8692,131.784,105.496,109.099,0.000448589,0.0425161,21.0019,562.129,-0.303834,0.0,0.0
374,93.25,43.9445,46.6228,133.283,105.506,109.444,0.000448423,0.0425554,21.0019,562.109,-0.331535,0.0,0.0
376,93.75,43.9257,46.5668,134.431,105.505,109.863,0.000450714,0.0426001,21.0018,562.129,-0.366112,0.0,0.0
378,94.25,44.2158,46.6153,132.916,105.508,108.999,0.00045257,0.0426364,21.0018,562.139,-0.294441,0.0,0.0
380,94.75,43.4694,46.4537,132.482,105.497,109.549,0.000445586,0.0426801,21.0018,562.129,-0.340878,0.0,0.0
382,95.25,44.327,47.0564,135.265,105.504,109.344,0.00043993,0.0427284,21.0017,562.139,-0.323363,0.0,0.0
384,95.75,44.2958,46.2564,130.647,105.483,109.915,0.000431712,0.0427316,21.0017,562.179,-0.372252,0.0,0.0
386,96.25,44.1474,46.2615,132.609,105.492,108.695,0.000425056,0.042702,21.0017,562.179,-0.270579,0.0,0.0
388,96.75,44.034,46.7447,131.895,105.496,108.903,0.000421578,0.042678,21.0017,562.159,-0.287526,0.0,0.0
390,97.25,43.6108,46.3061,135.52,105.49,109.573,0.000420483,0.0426721,21.0017,562.109,-0.343532,0.0,0.0
392,97.75,44.285,46.143,136.186,105.475,109.298,0.000425657,0.0426674,21.0017,562.079,-0.322046,0.0,0.0
394,98.25,43.9353,46.6939,136.128,105.492,108.277,0.000429849,0.0426772,21.0017,562.109,-0.235704,0.0,0.0
396,98.75,43.9692,46.6503,134.332,105.481,108.164,0.000433244,0.0426852,21.0017,562.109,-0.227151,0.0,0.0
398,99.25,43.9324,46.688,139.146,105.5,108.079,0.000444893,0.0426916,21.0017,562.149,-0.218504,0.0,0.0
400,99.75,43.7999,46.8636,136.854,105.476,109.05,0.000462338,0.0426968,21.0016,562.149,-0.301446,0.0,0.0
402,100.25,43.8976,46.5922,133.131,105.484,108.066,0.000483492,0.0427147,21.0016,562.139,-0.218713,0.0,0.0
404,100.75,43.895,46.5347,133.964,105.469,108.471,0.000506947,0.0427291,21.0017,562.099,-0.253798,0.0,0.0
406,101.25,43.8917,46.2681,140.009,105.468,108.891,0.000527862,0.042748,21.0019,562.099,-0.288949,0.0,0.0
408,101.75,44.0623,46.6332,134.74,105.453,109.131,0.000546527,0.0427698,21.002,562.119,-0.310046,0.0,0.0
410,102.25,43.7631,46.6855,133.034,105.462,108.375,0.000554484,0.0427874,21.002,562.119,-0.24641,0.0,0.0
412,102.75,44.2099,46.6363,138.906,105.45,108.282,0.000551107,0.0428025,21.0021,562.089,-0.23976,0.0,0.0
414,103.25,43.5023,46.9073,134.775,105.449,107.947,0.000548371,0.0428147,21.0022,562.109,-0.211773,0.0,0.0
416,103.75,43.5582,46.0424,133.624,105.445,109.118,0.000526754,0.0427973,21.0022,562.089,-0.30969,0.0,0.0
418,104.25,44.2367,45.7869,133.639,105.447,109.349,0.000509244,0.0427832,21.0023,562.099,-0.328678,0.0,0.0
420,104.75,43.6395,46.2336,132.169,105.435,109.679,0.000485364,0.0427646,21.0023,562.129,-0.357005,0.0,0.0
422,105.25,43.4808,45.986,135.377,105.433,109.338,0.000466021,0.0427533,21.0024,562.139,-0.328913,0.0,0.0
424,105.75,43.5429,46.1448,133.355,105.406,109.063,0.000450353,0.0427339,21.0024,562.119,-0.308508,0.0,0.0
426,106.25,43.3799,46.36,134.893,105.424,109.675,0.000448572,0.0427319,21.0024,562.099,-0.357602,0.0,0.0
428,106.75,43.5687,46.1705,134.282,105.401,109.244,0.000447128,0.0427302,21.0024,562.079,-0.323919,0.0,0.0
430,107.25,43.5461,46.4216,132.469,105.41,108.308,0.000445959,0.0427289,21.0024,562.079,-0.245306,0.0,0.0
432,107.75,43.6924,46.1481,135.741,105.394,108.58,0.000455224,0.0427278,21.0024,562.079,-0.269411,0.0,0.0
434,108.25,43.7782,46.4851,135.686,105.408,108.522,0.000471918,0.0427341,21.0024,562.089,-0.263327,0.0,0.0
436,108.75,43.5499,46.4328,132.771,105.381,108.731,0.000493932,0.0427456,21.0023,562.099,-0.283027,0.0,0.0
438,109.25,43.267,46.0956,132.057,105.381,108.822,0.000511764,0.042755,21.0022,562.089,-0.290618,0.0,0.0
440,109.75,43.5205,46.2473,135.821,105.371,108.815,0.000533907,0.0427353,21.0021,562.089,-0.290908,0.0,0.0
442,110.25,43.579,45.8846,137.221,105.376,108.025,0.000558774,0.0427194,21.0021,562.089,-0.224568,0.0,0.0
444,110.75,43.595,45.6521,133.956,105.352,108.664,0.000587861,0.0427065,21.0019,562.099,-0.279984,0.0,0.0
446,111.25,43.4656,45.8771,133.537,105.367,108.748,0.000619471,0.0427233,21.0017,562.089,-0.285692,0.0,0.0
448,111.75,44.0576,45.5038,135.501,105.345,109.833,0.000645076,0.0427369,21.0016,562.079,-0.377401,0.0,0.0
450,112.25,43.5551,46.1317,130.669,105.346,108.526,0.00068282,0.0427551,21.0015,562.059,-0.269009,0.0,0.0
452,112.75,43.3154,45.8493,133.803,105.331,108.672,0.000713393,0.0427763,21.0014,562.049,-0.282497,0.0,0.0
454,113.25,43.7431,45.8432,138.72,105.331,109.444,0.000738157,0.042793,21.0013,562.019,-0.346509,0.0,0.0
456,113.75,43.8828,46.0272,133.493,105.331,109.021,0.000754571,0.0428062,21.0012,562.009,-0.311414,0.0,0.0
458,114.25,43.7231,46.0642,134.444,105.327,109.363,0.000767866,0.042817,21.0012,562.019,-0.340174,0.0,0.0
460,114.75,43.8618,45.966,133.363,105.32,109.334,0.000772882,0.0428256,21.0011,562.039,-0.338365,0.0,0.0
462,115.25,43.9973,46.5893,134.545,105.319,109.763,0.000771768,0.0428326,21.0011,562.009,-0.373857,0.0,0.0
464,115.75,43.3287,46.1929,133.843,105.317,109.028,0.000763197,0.042824,21.0011,562.009,-0.31323,0.0,0.0
466,116.25,44.0854,45.8441,137.977,105.319,108.948,0.000749353,0.042804,21.0011,562.019,-0.306361,0.0,0.0
468,116.75,43.4006,46.0727,135.309,105.302,109.029,0.000726003,0.0427879,21.0011,562.029,-0.314578,0.0,0.0
470,117.25,43.5832,45.8412,132.268,105.318,109.589,0.00070709,0.0427884,21.001,562.009,-0.359638,0.0,0.0
472,117.75,43.9762,45.936,137.753,105.3,108.729,0.000677211,0.0427889,21.001,562.009,-0.289876,0.0,0.0
474,118.25,44.0611,46.1799,135.935,105.291,109.084,0.00065301,0.0427893,21.001,561.999,-0.320191,0.0,0.0
476,118.75,43.6645,46.3865,134.434,105.278,109.609,0.000620067,0.0427895,21.001,562.059,-0.364629,0.0,0.0
478,119.25,43.9925,46.0444,136.495,105.288,109.893,0.000593383,0.0427762,21.001,562.029,-0.387208,0.0,0.0
480,119.75,43.4335,46.2705,133.029,105.273,109.221,0.000571769,0.0427653,21.001,562.029,-0.333064,0.0,0.0
482,120.25,44.0018,45.7801,132.931,105.285,108.371,0.000549343,0.0427565,21.001,562.029,-0.261339,0.0,0.0
484,120.75,43.458,45.4944,136.395,105.283,108.415,0.000531177,0.0427494,21.001,562.029,-0.265174,0.0,0.0
486,121.25,43.6873,45.5745,132.912,105.281,109.356,0.000529801,0.04273,21.001,562.079,-0.343515,0.0,0.0
488,121.75,43.6495,46.0977,132.863,105.268,109.759,0.000528687,0.0427143,21.0011,562.079,-0.377868,0.0,0.0
490,122.25,44.1443,46.236,133.886,105.261,109.466,0.000541129,0.0426801,21.0012,562.039,-0.354312,0.0,0.0
492,122.75,43.7429,46.0496,133.72,105.263,108.792,0.000551207,0.0426329,21.0013,562.049,-0.298339,0.0,0.0
494,123.25,44.101,46.0188,135.589,105.248,110.879,0.000564479,0.0425948,21.0014,562.049,-0.471498,0.0,0.0
496,123.75,43.8404,46.0131,134.235,105.253,109.106,0.000579827,0.0425374,21.0015,562.049,-0.325275,0.0,0.0
498,124.25,43.3375,45.8474,135.363,105.248,109.203,0.000594815,0.0424909,21.0016,562.059,-0.333664,0.0,0.0
500,124.75,43.8229,45.9614,133.319,105.238,108.928,0.000609255,0.0424669,21.0016,562.059,-0.311709,0.0,0.0
502,125.25,43.3754,45.659,136.54,105.246,109.397,0.000620312,0.0424474,21.0017,562.049,-0.34992,0.0,0.0
504,125.75,43.8367,45.8517,132.969,105.258,108.659,0.000628693,0.0424453,21.0017,562.059,-0.287654,0.0,0.0
506,126.25,43.2421,45.3251,133.372,105.237,109.749,0.000635482,0.0424436,21.0017,562.039,-0.379714,0.0,0.0
508,126.75,43.496,46.0665,135.564,105.257,108.389,0.00063651,0.0424278,21.0017,561.989,-0.265174,0.0,0.0
510,127.25,43.819,45.8876,134.373,105.237,109.353,0.000633319,0.0424022,21.0018,561.999,-0.347059,0.0,0.0
512,127.75,43.9226,46.2231,134.32,105.253,108.626,0.000625625,0.0423957,21.0018,562.029,-0.285339,0.0,0.0
514,128.25,43.9897,46.0596,133.661,105.231,108.697,,0.0424034,,562.049,-0.293197,0.0,0.0
516,128.75,43.7293,45.993,134,105.225,108.88,,0.042424,,562.049,-0.308886,0.0,0.0
518,129.25,43.6013,46.1702,132.591,105.225,108.166,,0.0424536,,562.029,-0.249375,0.0,0.0
520,129.75,43.846,45.9384,134.863,105.225,108.411,,0.0424775,,562.039,-0.269837,0.0,0.0
522,130.25,43.9559,45.7966,132.913,105.225,109.041,,0.0424833,,562.009,-0.322265,0.0,0.0
524,130.75,44.1853,45.731,134.542,105.234,109.577,,0.042488,,561.999,-0.365828,0.0,0.0
526,131.25,44.0016,45.939,138.568,105.223,108.199,,,,562.009,-0.252282,0.0,0.0
528,131.75,43.916,46.273,134.604,105.247,108.473,,,,562.019,-0.273079,0.0,0.0
530,132.25,43.4415,45.7862,130.482,105.242,108.346,,,,562.009,-0.262908,0.0,0.0
532,132.75,43.7181,45.7273,134.923,105.249,108.81,,,,562.009,-0.300935,0.0,0.0
534,133.25,43.6824,45.8078,137.763,105.231,108.639,,,,562.009,-0.288239,0.0,0.0
536,133.75,44.011,45.8293,131.182,105.236,109.645,,,,562.039,-0.371259,0.0,0.0
538,134.25,43.17,45.6669,134.995,105.237,109.797,,,,562.039,-0.38374,0.0,0.0
540,134.75,43.7696,45.5912,135.415,105.248,109.345,,,,562.069,-0.345423,0.0,0.0
542,135.25,43.8819,45.5441,136.408,105.256,108.768,,,,562.049,-0.296943,0.0,0.0
544,135.75,43.689,45.6491,132.006,105.263,110.636,,,,561.989,-0.450332,0.0,0.0
546,136.25,43.9691,46.1564,134.045,105.253,109.35,,,,561.999,-0.345448,0.0,0.0
548,136.75,43.3851,45.4931,134.104,105.272,109.184,,,,562.009,-0.330087,0.0,0.0
550,137.25,43.9808,45.8333,130.73,105.255,109.749,,,,561.999,-0.378186,0.0,0.0
552,137.75,44.112,45.9421,134.964,105.272,109.773,,,,561.989,-0.378768,0.0,0.0
554,138.25,43.3695,45.7975,129.26,105.27,109.993,,,,561.989,-0.396972,0.0,0.0
556,138.75,43.7885,45.5238,132.41,105.287,108.75,,,,562.009,-0.292706,0.0,0.0
557,139,43.7138,45.7618,134.764,105.286,108.522,,,,562.009,-0.27389,0.0,0.0