File: 01_Data/Hemp_Sheet/Cone/Hemp_Sheet_Cone_HF75Scan_220524_R2.csv
Names,Time,Stack TC,Smoke TC,Exh Press,Smoke Comp,Smoke Meas,CO Meter,CO2 Meter,O2 Meter,Sample Mass,Ext Coeff,Start Test,Flame Verif
Chan Gain,,500,500,1,1,1,1,1,1,1,1,1.0,1.0
Offset,,0,0,0.139323,0,0,0,0,0,0,0,0.0,0.0
Gain,,1,1,25.011,13.8491,15.2622,1,1,1,1.00087,1.03118,1.0,1.0
Units,sec,C,C,Pa,%,%,%,%,%,g,/m,,
Baseline,,46.7205,48.447,135.337,104.97,108.126,0.000284792,0.0420203,21.0032,-452.737,-0.267832,,
2,0.25,44.2261,46.2809,137.875,104.661,107.091,0.000605383,0.0460218,20.9821,575.101,-0.207625,0.0,0.0
4,0.75,42.8471,45.3482,137.765,104.652,106.895,0.000722415,0.0477613,20.979,574.971,-0.191815,0.0,0.0
6,1.25,42.4714,44.6224,134.51,104.647,107.005,0.000988024,0.050785,20.9542,575.031,-0.20151,0.0,0.0
8,1.75,42.8895,44.8586,137.082,104.634,105.655,0.00120317,0.074114,20.9165,575.071,-0.0878918,0.0,0.0
10,2.25,42.8009,44.2458,143.842,104.629,105.005,0.00137743,0.0919662,20.886,574.87,-0.0324521,0.0,0.0
12,2.75,43.0081,44.6096,130.29,104.641,109.122,0.00179108,0.122833,20.8267,574.85,-0.379224,0.0,1.0
14,3.25,42.1278,45.025,106.068,104.633,109.705,0.00212614,0.175615,20.7476,574.65,-0.428128,0.0,1.0
16,3.75,42.5598,44.8883,99.8941,104.615,109.218,0.00248332,0.247163,20.6835,574.55,-0.389515,0.0,1.0
18,4.25,43.4203,45.1796,91.8294,104.614,109.463,0.00284982,0.331031,20.6106,574.06,-0.409816,0.0,1.0
20,4.75,44.7994,46.0164,91.4416,104.606,109.464,0.0031467,0.398965,20.5516,574.02,-0.410664,0.0,1.0
22,5.25,46.7027,46.2044,91.7217,104.616,108.18,0.00343421,0.488626,20.5038,573.85,-0.303046,0.0,1.0
24,5.75,49.0733,47.2352,96.0045,104.589,105.938,0.0036671,0.561252,20.465,573.78,-0.115862,0.0,1.0
26,6.25,51.4017,48.9167,109.949,104.591,105.824,0.0038545,0.605795,20.4337,573.82,-0.106043,0.0,1.0
28,6.75,53.394,49.9303,123.772,104.594,108.669,0.0040063,0.62902,20.4082,573.709,-0.345749,0.0,1.0
30,7.25,54.6174,51.0886,120.413,104.581,110.086,0.00413421,0.62965,20.4086,573.76,-0.464058,0.0,1.0
32,7.75,55.0209,51.9528,126.665,104.578,108.587,0.00423781,0.613796,20.4278,573.689,-0.340349,0.0,1.0
34,8.25,54.8269,52.1647,130.105,104.562,108.41,0.00436761,0.600954,20.4585,573.749,-0.326907,0.0,0.0
36,8.75,54.9433,52.4312,129.89,104.559,109.631,0.00447274,0.559375,20.497,573.659,-0.428416,0.0,0.0
38,9.25,55.1063,53.365,129.627,104.565,109.252,0.0045579,0.525696,20.5283,573.699,-0.396567,0.0,0.0
40,9.75,55.3904,53.6214,130.891,104.55,108.332,0.00475984,0.488655,20.5628,573.669,-0.321437,0.0,0.0
42,10.25,54.8002,53.7637,130.395,104.549,107.893,0.00492342,0.449868,20.599,573.679,-0.284762,0.0,0.0
44,10.75,54.3922,53.6666,129.199,104.538,108.218,0.00515689,0.412241,20.6284,573.699,-0.312966,0.0,0.0
46,11.25,54.428,53.9172,131.182,104.541,107.9,0.005346,0.376175,20.6521,573.679,-0.286081,0.0,0.0
48,11.75,54.195,53.1611,129.093,104.518,108.519,0.00549918,0.346962,20.6823,573.669,-0.339763,0.0,0.0
50,12.25,53.8969,54.1279,131.389,104.537,107.157,0.00569038,0.314613,20.7068,573.679,-0.223953,0.0,0.0
52,12.75,53.8365,53.9698,136.049,104.522,107.644,0.00590566,0.28841,20.7346,573.699,-0.266265,0.0,0.0
54,13.25,54.2885,53.8428,133.539,104.505,107.809,0.00608003,0.263894,20.7571,573.679,-0.281533,0.0,0.0
56,13.75,53.3286,53.859,133.128,104.507,107.315,0.00628019,0.241074,20.7788,573.699,-0.239829,0.0,0.0
58,14.25,53.8358,54.009,131.064,104.508,107.605,0.00644231,0.22259,20.7995,573.689,-0.264108,0.0,0.0
60,14.75,53.5919,54.0763,136.042,104.501,107.441,0.00658743,0.205266,20.8183,573.659,-0.250974,0.0,0.0
62,15.25,53.1893,54.0633,128.861,104.503,107.78,0.00670497,0.189117,20.8355,573.679,-0.279293,0.0,0.0
64,15.75,52.9424,53.5499,132.473,104.492,108.579,0.00679028,0.175007,20.8509,573.689,-0.346999,0.0,0.0
66,16.25,53.3201,53.9926,134.474,104.483,108.127,0.00685047,0.162652,20.8649,573.679,-0.310163,0.0,0.0
68,16.75,52.753,53.6835,135.558,104.481,107.229,0.00689922,0.152645,20.8762,573.669,-0.234835,0.0,0.0
70,17.25,52.9689,53.8578,138.556,104.465,107.77,0.0068986,0.14258,20.8866,573.669,-0.281765,0.0,0.0
72,17.75,52.7155,53.7305,135.483,104.473,107.802,0.00689809,0.134427,20.896,573.659,-0.283767,0.0,0.0
74,18.25,52.2915,53.7602,135.843,104.474,108.254,0.00685762,0.126667,20.9043,573.659,-0.321448,0.0,0.0
76,18.75,52.4593,53.479,133.137,104.458,108.361,0.00682483,0.120381,20.9116,573.649,-0.331825,0.0,0.0
78,19.25,52.096,53.2197,138.008,104.467,107.784,0.00675324,0.115289,20.9185,573.629,-0.282758,0.0,0.0
80,19.75,51.5561,53.1916,132.577,104.456,107.211,0.00669526,0.109873,20.9249,573.639,-0.2355,0.0,0.0
82,20.25,50.9267,52.5085,132.232,104.455,107.83,0.00659582,0.105485,20.9308,573.639,-0.287646,0.0,0.0
84,20.75,49.9748,51.0201,133.142,104.447,108.153,0.00651528,0.101377,20.9362,573.649,-0.315455,0.0,0.0
86,21.25,49.0577,50.9424,137.033,104.438,107.135,0.00637771,0.0975506,20.941,573.629,-0.230627,0.0,0.0
88,21.75,49.0789,49.9896,135.445,104.435,107.156,0.00626627,0.093594,20.9453,573.649,-0.232616,0.0,0.0
90,22.25,47.3846,49.3349,134.858,104.442,107.664,0.0060715,0.0903891,20.9495,573.639,-0.274899,0.0,0.0
92,22.75,47.6071,49.2041,136.818,104.427,107.098,0.00591372,0.0869513,20.9535,573.629,-0.228475,0.0,0.0
94,23.25,47.3227,48.2603,135.119,104.44,106.961,0.00578593,0.0841667,20.9567,573.629,-0.215764,0.0,0.0
96,23.75,46.7152,48.7982,135.263,104.413,106.795,0.00553237,0.0811535,20.9598,573.609,-0.204073,0.0,0.0
98,24.25,46.842,48.9959,136.991,104.42,108.144,0.00532698,0.0787128,20.9628,573.589,-0.316944,0.0,0.0
100,24.75,47.0421,49.0031,134.257,104.399,107.515,0.00502837,0.0760344,20.9656,573.589,-0.266068,0.0,0.0
102,25.25,47.0182,48.8206,134.925,104.431,108.435,0.0047865,0.0738649,20.9683,573.589,-0.340345,0.0,0.0
104,25.75,46.2427,48.3205,135.389,104.41,108.119,0.00453937,0.0716595,20.9705,573.579,-0.315721,0.0,0.0
106,26.25,47.2716,48.4257,135.997,104.41,107.219,0.00429311,0.0694699,20.9728,573.589,-0.240119,0.0,0.0
108,26.75,46.2131,48.0091,134.951,104.402,107.978,0.0040503,0.0676963,20.9748,573.589,-0.304639,0.0,0.0
110,27.25,46.5187,48.4017,131.449,104.398,107.266,0.00381464,0.0659065,20.9772,573.579,-0.245115,0.0,0.0
112,27.75,46.7431,48.5444,133.306,104.393,107.974,0.00360051,0.064139,20.9792,573.559,-0.30502,0.0,0.0
114,28.25,46.1857,48.3631,137.468,104.4,106.709,0.00340615,0.06252,20.9816,573.559,-0.197908,0.0,0.0
116,28.75,45.6783,48.3015,133.5,104.387,106.908,0.00323324,0.0610398,20.9836,573.569,-0.215812,0.0,0.0
118,29.25,46.038,47.9975,137.3,104.391,107.766,0.00307925,0.0596608,20.9857,573.569,-0.28782,0.0,0.0
120,29.75,45.8883,48.1908,132.072,104.367,108.308,0.00295452,0.0583818,20.9874,573.539,-0.335302,0.0,0.0
122,30.25,45.5889,48.006,133.084,104.4,106.934,0.00283288,0.0572089,20.9887,573.549,-0.21692,0.0,0.0
124,30.75,45.4351,47.9504,134.577,104.378,108.267,0.00271578,0.0561359,20.9903,573.539,-0.330848,0.0,0.0
126,31.25,45.8136,47.9261,138.757,104.39,106.871,0.00260098,0.0552667,20.9915,573.559,-0.212515,0.0,0.0
128,31.75,45.4502,48.2888,133.194,104.394,107.365,0.00249004,0.0543575,20.9925,573.539,-0.253843,0.0,0.0
130,32.25,45.6385,47.422,134.423,104.411,108.19,0.00238474,0.0536211,20.9933,573.529,-0.321644,0.0,0.0
132,32.75,45.5719,47.6685,134.554,104.414,107.497,0.00228556,0.0527924,20.9944,573.529,-0.263257,0.0,0.0
134,33.25,45.2102,47.947,138.682,104.435,107.918,0.00219108,0.052121,20.9953,573.529,-0.296748,0.0,0.0
136,33.75,44.8166,47.9607,135.795,104.438,107.896,0.00210184,0.051455,20.996,573.549,-0.29466,0.0,0.0
138,34.25,44.8779,47.6896,135.686,104.47,107.66,0.00202955,0.0508056,20.9966,573.549,-0.272096,0.0,0.0
140,34.75,45.6904,47.5317,135.729,104.486,107.92,0.00197099,0.0502221,20.9971,573.569,-0.292476,0.0,0.0
142,35.25,44.8853,47.1257,134.259,104.494,107.585,0.00188697,0.0496976,20.9972,573.559,-0.263707,0.0,0.0
144,35.75,44.681,47.1444,136.526,104.509,107.787,0.00181891,0.0492729,20.997,573.549,-0.27937,0.0,0.0
146,36.25,44.1034,46.6837,136.573,104.53,107.538,0.00174184,0.048765,20.9969,573.539,-0.256566,0.0,0.0
148,36.75,44.7956,47.3152,135.62,104.544,107.31,0.00167942,0.0483536,20.9972,573.529,-0.236257,0.0,0.0
150,37.25,43.9464,47.2367,134.306,104.573,107.567,0.00162885,0.0480203,20.9975,573.539,-0.255341,0.0,0.0
152,37.75,44.2242,46.9884,136.037,104.572,106.993,0.00155842,0.0475867,20.9977,573.539,-0.206992,0.0,0.0
154,38.25,44.7257,46.7199,134.896,104.593,108.007,0.00151443,0.0472354,20.9978,573.559,-0.290484,0.0,0.0
156,38.75,44.5232,47.0968,132.506,104.613,107.606,0.0014392,0.046879,20.998,573.569,-0.255155,0.0,0.0
158,39.25,44.5291,47.3357,134.721,104.617,107.651,0.0013228,0.0465258,20.998,573.569,-0.25859,0.0,0.0
160,39.75,44.3745,46.6678,137.002,104.633,107.602,0.00129149,0.0462396,20.9981,573.569,-0.253091,0.0,0.0
162,40.25,44.2807,47.1176,135.436,104.65,108.477,0.00122215,0.0459648,20.9985,573.549,-0.324825,0.0,0.0
164,40.75,44.3648,46.8512,131.54,104.658,107.886,0.00116598,0.0457034,20.9989,573.539,-0.274788,0.0,0.0
166,41.25,44.0124,46.5277,135.454,104.668,107.937,0.00110954,0.0455919,20.9993,573.539,-0.278203,0.0,0.0
168,41.75,43.8546,46.8394,137.056,104.67,107.468,0.00106383,0.0453332,20.9996,573.539,-0.23863,0.0,0.0
170,42.25,43.9608,47.1324,133.728,104.685,107.502,0.00102194,0.0451236,20.9998,573.539,-0.240212,0.0,0.0
172,42.75,43.921,46.4542,135.442,104.694,108.375,0.000988013,0.044872,21,573.549,-0.312553,0.0,0.0
174,43.25,44.6394,46.8595,133.459,104.71,108.76,0.000959317,0.0446682,21.0002,573.559,-0.343261,0.0,0.0
176,43.75,44.1772,46.6967,134.821,104.715,108.679,0.000936073,0.0444623,21.0003,573.529,-0.336041,0.0,0.0
178,44.25,44.155,46.4562,134,104.733,107.14,0.000917246,0.0442954,21.0004,573.509,-0.205508,0.0,0.0
180,44.75,43.9545,46.755,132.801,104.742,108.003,0.000897136,0.0441194,21.0007,573.529,-0.277279,0.0,0.0
182,45.25,43.5837,46.498,137.663,104.755,107.135,0.000880847,0.0439768,21.0012,573.529,-0.203178,0.0,0.0
184,45.75,43.5755,46.9071,133.36,104.765,107.895,0.000860019,0.0438469,21.0016,573.519,-0.26633,0.0,0.0
186,46.25,43.7646,46.7231,137.966,104.771,108.803,0.000836277,0.0437288,21.0019,573.519,-0.341529,0.0,0.0
188,46.75,43.9601,46.229,135.031,104.784,108.555,0.000803631,0.0436117,21.0021,573.499,-0.319774,0.0,0.0
190,47.25,44.0536,46.3016,132.864,104.79,108.392,0.000765114,0.0434974,21.0023,573.479,-0.305745,0.0,0.0
192,47.75,43.7253,45.9976,132.983,104.809,107.946,0.000733916,0.0434048,21.0023,573.479,-0.266791,0.0,0.0
194,48.25,43.7062,46.4911,136.905,104.815,108.164,0.000673477,0.0432753,21.0023,573.449,-0.284452,0.0,0.0
196,48.75,43.4754,46.2074,132.761,104.83,108.117,0.000624521,0.0431704,21.0023,573.469,-0.27924,0.0,0.0
198,49.25,43.7728,46.0837,134.277,104.835,107.971,0.000567901,0.0430563,21.0023,573.489,-0.266634,0.0,0.0
200,49.75,43.4895,46.5022,136.601,104.844,108.031,0.000523315,0.0429377,21.0023,573.519,-0.270867,0.0,0.0
202,50.25,43.5311,45.9108,130.382,104.854,108.337,0.000488347,0.0428417,21.0023,573.539,-0.295614,0.0,0.0
204,50.75,43.1396,46.2928,133.695,104.868,107.927,0.000460024,0.0427775,21.0023,573.539,-0.26001,0.0,0.0
206,51.25,43.2762,46.0695,135.276,104.876,107.963,0.000437082,0.0427255,21.0023,573.509,-0.262434,0.0,0.0
208,51.75,43.943,46.2774,134.323,104.881,107.525,0.000446377,0.0426561,21.0023,573.509,-0.225165,0.0,0.0
210,52.25,43.587,46.2741,141.186,104.896,109.408,0.000458374,0.0425999,21.0023,573.509,-0.380896,0.0,0.0
212,52.75,43.4138,46.2393,133.25,104.909,108.945,0.000472113,0.0425681,21.0023,573.509,-0.34148,0.0,0.0
214,53.25,43.2852,45.863,135.273,104.922,108.479,0.000478773,0.0425422,21.0023,573.499,-0.30156,0.0,0.0
216,53.75,43.246,45.8819,136.237,104.926,108.095,0.000480147,0.0424926,21.0023,573.499,-0.269136,0.0,0.0
218,54.25,43.4701,46.2734,134.567,104.919,108.119,0.000472966,0.0424266,21.0023,573.529,-0.271743,0.0,0.0
220,54.75,43.5727,45.7355,132.842,104.949,108.8,0.000459683,0.0423731,21.0023,573.549,-0.325984,0.0,0.0
222,55.25,43.1438,46.0964,139.629,104.945,109.029,0.000440633,0.0423298,21.0023,573.509,-0.345269,0.0,0.0
224,55.75,43.4754,46.087,133.27,104.961,108.837,0.000417741,0.0422948,21.0023,573.489,-0.328062,0.0,0.0
226,56.25,42.9662,46.1124,136.252,104.96,108.69,0.000399198,0.0422936,21.0023,573.489,-0.315933,0.0,0.0
228,56.75,43.0811,45.9195,139.467,104.976,108.025,0.000382897,0.0422927,21.0023,573.499,-0.258951,0.0,0.0
230,57.25,43.3213,46.1338,132.523,104.973,108.589,0.000369694,0.0422646,21.0023,573.469,-0.306352,0.0,0.0
232,57.75,43.1449,45.5564,134.056,104.985,108.328,0.000359,0.042242,21.0023,573.469,-0.283504,0.0,0.0
234,58.25,42.6859,45.7106,135.819,104.988,108.558,0.000350338,0.0421963,21.0023,573.489,-0.302441,0.0,0.0
236,58.75,43.0051,45.194,131.588,105.004,108.274,0.000368843,0.0421594,21.0023,573.489,-0.27739,0.0,0.0
238,59.25,43.155,45.1964,133.587,104.986,108.403,0.000406802,0.0421298,21.0021,573.489,-0.289727,0.0,0.0
240,59.75,42.5718,45.8378,136.677,105.021,108.169,0.000448406,0.0421063,21.0019,573.489,-0.267137,0.0,0.0
242,60.25,43.5027,45.2613,131.55,105.007,107.92,0.000491877,0.0420872,21.0018,573.469,-0.247513,0.0,0.0
244,60.75,43.3698,45.4348,131.827,105.012,107.277,0.000528366,0.0420717,21.0017,573.449,-0.193079,0.0,0.0
246,61.25,42.3224,45.4006,133.925,105.018,107.752,0.000559073,0.0421001,21.0016,573.459,-0.232465,0.0,0.0
248,61.75,42.8854,45.4001,135.91,105.026,108.334,0.000578834,0.0421231,21.0015,573.459,-0.280475,0.0,0.0
250,62.25,42.9013,45.6256,137.853,105.015,108.963,0.000590242,0.0421273,21.0015,573.449,-0.333846,0.0,0.0
252,62.75,42.8376,45.4848,136.008,105.033,108.074,0.000589904,0.0421179,21.0014,573.459,-0.258205,0.0,0.0
254,63.25,42.7697,45.6027,134.407,105.025,107.688,0.000581009,0.0421102,21.0014,573.469,-0.226486,0.0,0.0
256,63.75,42.6134,44.8952,136.237,105.043,108.664,0.000564231,0.0421313,21.0014,573.459,-0.306514,0.0,0.0
258,64.25,42.6105,45.2152,132.287,105.031,108.286,0.000542024,0.0421412,21.0013,573.459,-0.276107,0.0,0.0
260,64.75,43.0544,45.6374,135.821,105.051,108.426,0.000524037,0.0421427,21.0013,573.439,-0.286025,0.0,0.0
262,65.25,42.5553,45.6076,132.394,105.041,108.436,0.000506915,0.0421368,21.0013,573.459,-0.287678,0.0,0.0
264,65.75,42.7499,45.2976,130.796,105.048,108.345,0.000490749,0.0421255,21.0013,573.489,-0.279553,0.0,0.0
266,66.25,43.0753,45.2389,134.316,105.046,108.54,0.000485987,0.0421236,21.0013,573.479,-0.296015,0.0,0.0
268,66.75,42.999,45.5076,136.56,105.069,107.938,0.000489629,0.0421285,21.0013,573.469,-0.243686,0.0,0.0
270,67.25,42.1118,45.4074,136.207,105.055,108.631,0.000492578,0.0421324,21.0013,573.459,-0.302778,0.0,0.0
272,67.75,42.957,45.6203,134.83,105.067,108.723,0.000516802,0.0421629,21.0011,573.449,-0.309474,0.0,0.0
274,68.25,42.5703,45.4069,131.607,105.064,108.153,0.000545366,0.0421876,21.001,573.439,-0.262061,0.0,0.0
276,68.75,42.6397,45.289,136.599,105.077,108.663,0.000576552,0.0422076,21.0006,573.489,-0.303601,0.0,0.0
278,69.25,42.647,44.9988,131.04,105.063,107.523,0.000589847,0.0422237,21.0004,573.499,-0.209387,0.0,0.0
280,69.75,42.8304,44.8249,133.553,105.095,108.61,0.000624723,0.0422369,20.9999,573.479,-0.297613,0.0,0.0
282,70.25,42.3541,45.0589,133.894,105.074,108.399,0.000652973,0.0422603,20.9996,573.469,-0.281808,0.0,0.0
284,70.75,42.0259,44.9948,135.815,105.13,107.871,0.000681928,0.0422793,20.9993,573.459,-0.232822,0.0,0.0
286,71.25,42.3445,45.3958,132.33,105.081,108.301,0.000705381,0.0423356,20.9991,573.429,-0.272985,0.0,0.0
288,71.75,42.4328,45.115,136.818,105.108,107.972,0.000724379,0.0423812,20.9989,573.459,-0.243188,0.0,0.0
290,72.25,42.2106,45.7824,134.14,105.092,108.128,0.00075799,0.0423791,20.999,573.459,-0.257557,0.0,0.0
292,72.75,42.5794,45.0384,132.105,105.097,108.185,0.000785215,0.0423756,20.9992,573.459,-0.261873,0.0,0.0
294,73.25,42.2339,45.0801,131.591,105.096,108.212,0.000826716,0.0423799,20.9994,573.479,-0.264316,0.0,0.0
296,73.75,42.7069,45.0422,137.655,105.11,107.922,0.000860332,0.0423898,20.9996,573.469,-0.238829,0.0,0.0
298,74.25,42.479,45.1255,134.084,105.095,108.302,0.000900938,0.0423978,20.9998,573.459,-0.271939,0.0,0.0
300,74.75,42.5042,45.0436,133.921,105.115,108.235,0.000933829,0.0424316,20.9999,573.499,-0.264586,0.0,0.0
302,75.25,42.0137,45.3409,133.048,105.111,108.173,0.000965336,0.042459,21,573.449,-0.259738,0.0,0.0
304,75.75,42.3691,44.9862,137.74,105.125,108.411,0.000990857,0.0424402,21,573.449,-0.278451,0.0,0.0
306,76.25,42.3225,44.8802,135.284,105.124,109.359,0.00101883,0.0424251,21.0001,573.439,-0.357304,0.0,0.0
308,76.75,42.0677,44.2674,135.418,105.129,108.056,0.00104148,0.0424264,21.0002,573.429,-0.248429,0.0,0.0
310,77.25,41.7732,45.0936,133.532,105.122,108.332,0.00106172,0.0424275,21.0002,573.449,-0.272025,0.0,0.0
312,77.75,42.4027,44.8799,131.899,105.13,107.474,0.00107981,0.0424556,21.0002,573.459,-0.199412,0.0,0.0
314,78.25,42.347,45.1739,132.627,105.133,108.094,0.00109447,0.0424784,21.0003,573.439,-0.251184,0.0,0.0
316,78.75,42.07,44.7428,135.023,105.158,107.454,0.00109353,0.0424969,21.0003,573.459,-0.195362,0.0,0.0
318,79.25,41.9779,45.1774,132.708,105.13,108.868,0.00108125,0.0425118,21.0005,573.419,-0.316024,0.0,0.0
320,79.75,42.4254,44.7673,134.633,105.16,108.768,0.0010713,0.0425387,21.0006,573.419,-0.305116,0.0,0.0
322,80.25,42.5076,44.934,137.44,105.147,108.507,0.00102678,0.0425738,21.0007,573.419,-0.284566,0.0,0.0
324,80.75,42.2304,44.6262,134.616,105.15,110.278,0.000990718,0.0426021,21.0006,573.429,-0.430703,0.0,0.0
326,81.25,42.1113,45.071,137.459,105.151,109.543,0.000961508,0.0426388,21.0003,573.409,-0.370144,0.0,0.0
328,81.75,42.3569,44.7123,133.107,105.162,107.433,0.00092813,0.0426684,21.0004,573.419,-0.193234,0.0,0.0
330,82.25,41.8128,44.9771,132.659,105.149,107.558,0.000901094,0.0426925,21.0008,573.429,-0.204829,0.0,0.0
332,82.75,42.3144,45.241,134.221,105.158,108.594,0.000885268,0.0427119,21.0011,573.399,-0.2908,0.0,0.0
334,83.25,42.2621,45.4445,135.584,105.166,108.573,0.000872449,0.0427277,21.0014,573.409,-0.288399,0.0,0.0
336,83.75,42.7219,44.7435,133.751,105.171,108.858,0.000869354,0.0427405,21.0016,573.379,-0.31168,0.0,0.0
338,84.25,42.437,44.718,134.547,105.165,108.877,0.000866847,0.042819,21.0018,573.379,-0.313778,0.0,0.0
340,84.75,42.2975,45.0979,133.883,105.171,108.276,0.000858743,0.0428826,21.0019,573.399,-0.26325,0.0,0.0
342,85.25,42.2175,44.545,134.079,105.183,107.989,0.000855287,0.0429613,21.002,573.399,-0.23812,0.0,0.0
344,85.75,41.991,44.8456,132.458,105.171,108.541,0.000835995,0.0430251,21.0021,573.389,-0.285252,0.0,0.0
346,86.25,42.1898,44.3909,133.417,105.188,108.811,0.000823949,0.0430904,21.0022,573.389,-0.306319,0.0,0.0
348,86.75,42.406,44.7049,134.712,105.193,108.482,0.00080335,0.0431433,21.0022,573.409,-0.278504,0.0,0.0
350,87.25,42.3785,44.5049,133.761,105.193,108.179,0.000781554,0.0431862,21.0023,573.379,-0.253112,0.0,0.0
352,87.75,41.8195,44.667,132.251,105.19,108.267,0.000759299,0.0432209,21.0023,573.379,-0.260761,0.0,0.0
354,88.25,42.1728,44.5689,133.703,105.194,108.497,0.000743864,0.0432357,21.0024,573.369,-0.279639,0.0,0.0
356,88.75,42.4137,44.5132,134.5,105.19,108.735,0.000733694,0.0432912,21.0018,573.389,-0.29986,0.0,0.0
358,89.25,42.1446,44.7281,133.14,105.198,109.226,0.00073632,0.0433062,21.0013,573.379,-0.339955,0.0,0.0
360,89.75,41.2907,45.1674,133.919,105.197,108.498,0.000748225,0.0433726,21.001,573.369,-0.2795,0.0,0.0
362,90.25,42.2603,44.5387,132.961,105.208,109.132,0.000776415,0.0434265,21.0007,573.359,-0.33125,0.0,0.0
364,90.75,42.07,44.383,136.754,105.197,108.145,0.000815941,0.0434768,21.0009,573.359,-0.249979,0.0,0.0
366,91.25,41.9625,44.9451,132.051,105.206,108.279,0.000862039,0.0435237,21.001,573.349,-0.260429,0.0,0.0
368,91.75,42.3728,44.7015,134.222,105.206,107.878,0.000912052,0.0435545,21.0011,573.349,-0.226829,0.0,0.0
370,92.25,42.1044,45.0361,134.337,105.211,108.512,0.000952563,0.043573,21.0012,573.349,-0.279467,0.0,0.0
372,92.75,42.2633,44.9478,131.985,105.208,108.822,0.000993703,0.0435593,21.0013,573.329,-0.30554,0.0,0.0
374,93.25,42.302,44.6398,135.138,105.212,108.55,0.00103452,0.0435223,21.0014,573.319,-0.282464,0.0,0.0
376,93.75,42.5488,44.3966,134.512,105.209,109.263,0.0010695,0.0434924,21.0015,573.329,-0.341982,0.0,0.0
378,94.25,41.2193,44.449,139.4,105.232,108.451,0.00109957,0.0434954,21.0015,573.339,-0.272561,0.0,0.0
380,94.75,41.8962,44.6812,133.529,105.204,108.749,0.00112777,0.0434979,21.0015,573.339,-0.299712,0.0,0.0
382,95.25,41.9284,44.899,134.213,105.232,108.264,0.00115407,0.043568,21.0016,573.359,-0.25693,0.0,0.0
384,95.75,42.0421,44.4888,135.663,105.199,108.844,0.00118242,0.0436248,21.0016,573.349,-0.308123,0.0,0.0
386,96.25,41.9966,44.9492,137.298,105.226,108.418,0.00121173,0.0436565,21.0016,573.309,-0.27035,0.0,0.0
388,96.75,42.4211,44.699,136.515,105.215,108.109,0.0012374,0.0436693,21.0016,573.319,-0.245455,0.0,0.0
390,97.25,42.295,44.5181,131.337,105.221,107.958,0.00125992,0.0436796,21.0016,573.319,-0.232235,0.0,0.0
392,97.75,42.6519,44.5322,134.67,105.218,107.651,0.00127816,0.0436879,21.0016,573.319,-0.206775,0.0,0.0
394,98.25,42.2253,44.7579,132.936,105.247,108.549,0.00127826,0.0436947,21.0016,573.329,-0.279446,0.0,0.0
396,98.75,42.3483,44.7662,133.356,105.228,108.522,0.00127833,0.0437002,21.0017,573.309,-0.278754,0.0,0.0
398,99.25,42.0822,44.3921,132.67,105.228,107.732,0.0012784,0.0437046,21.0017,573.309,-0.212743,0.0,0.0
400,99.75,42.4337,44.7043,132.7,105.224,109.59,0.00126384,0.0437355,21.0017,573.309,-0.367738,0.0,0.0
402,100.25,42.4848,44.9011,134.186,105.232,108.43,0.00125205,0.0437605,21.0019,573.299,-0.270851,0.0,0.0
404,100.75,42.061,44.0807,131.447,105.221,108.211,0.00124249,0.0437815,21.0023,573.289,-0.253477,0.0,0.0
406,101.25,42.106,44.2091,133.959,105.253,107.919,0.00123476,0.0437986,21.0027,573.319,-0.226308,0.0,0.0
408,101.75,42.4313,44.4252,135.323,105.237,107.594,0.00122849,0.0438124,21.0031,573.309,-0.200364,0.0,0.0
410,102.25,42.4292,44.5331,129.503,105.239,108.655,0.00122341,0.0438236,21.0035,573.299,-0.288906,0.0,0.0
412,102.75,42.3098,44.7011,132.665,105.236,108.758,0.00121687,0.0438326,21.0037,573.289,-0.297798,0.0,0.0
414,103.25,42.5438,44.8274,135.011,105.251,108.342,0.00121157,0.0438127,21.0039,573.279,-0.261831,0.0,0.0
416,103.75,41.7473,44.3436,133.586,105.229,107.73,0.00120727,0.0437965,21.0041,573.279,-0.212517,0.0,0.0
418,104.25,41.8398,44.5403,134.529,105.253,108.056,0.00121231,0.0437978,21.0042,573.249,-0.237741,0.0,0.0
420,104.75,42.1665,44.5254,138.224,105.232,109.003,0.0012164,0.0438117,21.0043,573.269,-0.318478,0.0,0.0
422,105.25,42.1221,44.2475,132.906,105.248,108.127,0.00122823,0.0438015,21.0043,573.269,-0.244177,0.0,0.0
424,105.75,42.3075,44.4027,138.504,105.24,107.985,0.00123781,0.0437739,21.0039,573.249,-0.232864,0.0,0.0
426,106.25,42.3311,44.7625,131.196,105.253,108.878,0.00124557,0.0437514,21.0036,573.249,-0.306297,0.0,0.0
428,106.75,42.2799,44.2636,132.817,105.246,109.095,0.00125673,0.0437333,21.0033,573.259,-0.324893,0.0,0.0
430,107.25,41.7828,44.5324,133.226,105.255,107.571,0.00126577,0.0437186,21.0031,573.279,-0.196878,0.0,0.0
432,107.75,42.1165,44.3639,134.138,105.245,108.47,0.001267,0.0436923,21.0029,573.289,-0.273028,0.0,0.0
434,108.25,42.1577,44.2071,136.647,105.258,108.623,0.001268,0.0436581,21.0028,573.249,-0.284671,0.0,0.0
436,108.75,42.6432,44.3392,132.632,105.25,108.349,0.00126564,0.0436305,21.0027,573.269,-0.262451,0.0,0.0
438,109.25,42.4303,44.3797,139.439,105.259,107.843,0.00126087,0.0436353,21.0026,573.269,-0.219358,0.0,0.0
440,109.75,42.1772,44.4751,137.868,105.242,108.19,0.00125189,0.0436392,21.0025,573.269,-0.249832,0.0,0.0
442,110.25,42.4817,44.1898,131.662,105.275,108.426,0.00124,0.0436424,21.0023,573.289,-0.266794,0.0,0.0
444,110.75,41.953,44.2633,133.275,105.247,109.292,0.00122268,0.043645,21.0021,573.279,-0.341141,0.0,0.0
446,111.25,42.2023,44.4094,134.986,105.26,108.287,0.00120174,0.0436395,21.002,573.249,-0.256441,0.0,0.0
448,111.75,42.2409,44.1623,134.65,105.256,107.688,0.00117454,0.0436282,21.0018,573.219,-0.206597,0.0,0.0
450,112.25,42.4048,44.8271,134.134,105.265,109.124,0.00114328,0.043619,21.0017,573.249,-0.32565,0.0,0.0
452,112.75,42.1023,44.6399,135.229,105.258,109.347,0.00111797,0.0436116,21.0017,573.209,-0.344781,0.0,0.0
454,113.25,42.4933,44.3131,134.663,105.267,109.58,0.00110717,0.0435841,21.0016,573.179,-0.363263,0.0,0.0
456,113.75,42.1852,44.373,135.76,105.262,109.151,0.00106562,0.0435424,21.0016,573.249,-0.328144,0.0,0.0
458,114.25,41.8724,44.5206,137.119,105.269,109.006,0.00103197,0.0435087,21.0015,573.279,-0.315514,0.0,0.0
460,114.75,42.1525,44.5144,131.336,105.261,108.872,0.000990129,0.0434677,21.0015,573.269,-0.305105,0.0,0.0
462,115.25,42.101,44.6758,132.499,105.278,108.964,0.000956239,0.0434345,21.0015,573.259,-0.311272,0.0,0.0
464,115.75,42.3004,44.6605,137.376,105.272,109.191,0.000925145,0.0433667,21.0014,573.249,-0.330629,0.0,0.0
466,116.25,42.8133,44.4986,133.195,105.29,107.443,0.000899958,0.0433378,21.0014,573.219,-0.183049,0.0,0.0
468,116.75,41.9081,43.6289,133.971,105.28,108.112,0.000884415,0.0432884,21.0014,573.219,-0.24017,0.0,0.0
470,117.25,42.5039,44.3579,134.49,105.288,108.316,0.000871825,0.043262,21.0014,573.219,-0.256533,0.0,0.0
472,117.75,41.9158,44.7588,136.764,105.284,107.709,0.000864057,0.0432407,21.0014,573.219,-0.205996,0.0,0.0
474,118.25,42.266,44.6426,135.618,105.294,108.139,0.000857765,0.0432233,21.0014,573.219,-0.241159,0.0,0.0
476,118.75,42.4008,44.4915,140.844,105.295,108.437,0.000853272,0.0432093,21.0016,573.209,-0.265984,0.0,0.0
478,119.25,42.111,44.3853,135.322,105.294,108.052,0.000850177,0.0431843,21.002,573.179,-0.233868,0.0,0.0
480,119.75,42.4303,44.3707,131.201,105.281,107.854,0.000847669,0.0431641,21.0023,573.169,-0.218371,0.0,0.0
482,120.25,41.9965,44.2172,134.805,105.292,109.675,0.000856511,0.0431204,21.0026,573.199,-0.368885,0.0,0.0
484,120.75,41.9655,44.8188,134.248,105.294,108.937,0.000873458,0.0430851,21.0029,573.219,-0.307724,0.0,0.0
486,121.25,42.0949,44.6786,132.432,105.296,109.209,0.000887185,0.0430564,21.0032,573.209,-0.330062,0.0,0.0
488,121.75,42.6012,44.3703,134.193,105.303,107.641,0.00093079,0.0430332,21.0036,573.169,-0.19861,0.0,0.0
490,122.25,42.3752,44.6891,131.785,105.292,108.969,0.00094252,0.0430144,21.0037,573.199,-0.310501,0.0,0.0
492,122.75,42.0748,44.4102,135.181,105.296,108.331,0.000960146,0.0429863,21.0038,573.199,-0.257051,0.0,0.0
494,123.25,42.0296,44.3724,131.437,105.287,109.154,0.000974423,0.0429636,21.0039,573.219,-0.326309,0.0,0.0
496,123.75,41.9626,44.8353,138.305,105.3,108.488,0.000972613,0.0429093,21.004,573.219,-0.269821,0.0,0.0
498,124.25,42.2779,44.4329,135.315,105.299,108.664,0.000971147,0.042833,21.0041,573.219,-0.284561,0.0,0.0
500,124.75,42.6804,44.241,136.751,105.316,109.075,0.000955375,0.0427378,21.004,573.179,-0.317202,0.0,0.0
502,125.25,42.2216,44.2918,132.797,105.298,108.859,0.0009426,0.0427076,21.0036,573.179,-0.300787,0.0,0.0
504,125.75,42.4176,44.4383,132.592,105.305,107.217,0.000926176,0.042656,21.0034,573.169,-0.162705,0.0,0.0
506,126.25,42.3593,44.2865,132.845,105.299,108.624,0.000912873,0.0426279,21.0034,573.159,-0.281262,0.0,0.0
508,126.75,42.3988,43.9493,131.204,105.317,108.187,0.000902098,0.0426051,21.0036,573.199,-0.243172,0.0,0.0
510,127.25,41.8624,44.6432,132.908,105.327,108.281,0.00089337,0.0425321,21.0038,573.179,-0.250124,0.0,0.0
512,127.75,41.9977,44.5163,137.309,105.321,108.629,0.000875367,0.042473,21.0035,573.219,-0.27969,0.0,0.0
514,128.25,41.9396,44.2529,131.823,105.31,109.165,0.000860785,0.0424524,21.003,573.189,-0.325125,0.0,0.0
516,128.75,42.279,44.4609,137.131,105.32,109.429,,0.0424357,,573.189,-0.346185,0.0,0.0
518,129.25,42.6182,44.3382,132.911,105.308,109.312,,0.0424222,,573.169,-0.337567,0.0,0.0
520,129.75,41.9559,44.5088,132.296,105.316,108.056,,0.0423969,,573.189,-0.232334,0.0,0.0
522,130.25,42.0106,44.733,134.369,105.303,109.299,,0.0423634,,573.189,-0.336925,0.0,0.0
524,130.75,42.2395,44.2904,135.819,105.319,108.819,,0.0423364,,573.169,-0.29572,0.0,0.0
526,131.25,41.6482,44.2671,132.763,105.303,109.069,,0.0422872,,573.169,-0.317789,0.0,0.0
528,131.75,41.4029,44.3795,137.047,105.313,108.089,,,,573.199,-0.235278,0.0,0.0
530,132.25,42.3693,44.2533,136.285,105.296,108.648,,,,573.199,-0.283455,0.0,0.0
532,132.75,42.6092,44.28,133.231,105.307,108.521,,,,573.159,-0.271921,0.0,0.0
534,133.25,42.4426,44.6656,133.031,105.295,108.701,,,,573.139,-0.287986,0.0,0.0
536,133.75,42.0324,44.2205,134.306,105.297,109.038,,,,573.159,-0.315784,0.0,0.0
538,134.25,42.4442,44.8696,133.422,105.294,109.105,,,,573.189,-0.321563,0.0,0.0
540,134.75,42.4419,44.1888,131.856,105.308,108.785,,,,573.189,-0.29391,0.0,0.0
542,135.25,42.0317,44.2719,131.346,105.278,109.635,,,,573.159,-0.366817,0.0,0.0
544,135.75,42.3306,44.1759,133.21,105.272,109.031,,,,573.149,-0.317349,0.0,0.0
546,136.25,42.5797,44.1255,134.68,105.263,108.893,,,,573.149,-0.306662,0.0,0.0
548,136.75,42.0596,44.5111,135.066,105.271,108.867,,,,573.159,-0.303807,0.0,0.0
550,137.25,41.8531,43.9254,133.21,105.265,108.383,,,,573.159,-0.264057,0.0,0.0
552,137.75,41.8103,44.2593,134.591,105.255,108.085,,,,573.109,-0.239976,0.0,0.0
554,138.25,42.3314,43.8477,138.344,105.243,108.404,,,,573.129,-0.267655,0.0,0.0
556,138.75,42.0712,44.3901,132.098,105.252,108.889,,,,573.159,-0.307335,0.0,0.0
558,139.25,42.302,44.3215,131.979,105.236,109.124,,,,573.149,-0.328234,0.0,0.0