File: 01_Data/Hemp_Sheet/Cone/Hemp_Sheet_Cone_HF50Scan_220524_R2.csv
Names,Time,Stack TC,Smoke TC,Exh Press,Smoke Comp,Smoke Meas,CO Meter,CO2 Meter,O2 Meter,Sample Mass,Ext Coeff,Start Test,Flame Verif
Chan Gain,,500,500,1,1,1,1,1,1,1,1,1.0,1.0
Offset,,0,0,0.139323,0,0,0,0,0,0,0,0.0,0.0
Gain,,1,1,25.011,13.8491,15.2622,1,1,1,1.00087,1.03118,1.0,1.0
Units,sec,C,C,Pa,%,%,%,%,%,g,/m,,
Baseline,,36.0463,37.2926,138.872,104.291,106.066,0.00011547,0.0415405,21.0046,-452.597,-0.152576,,
2,0.25,33.4309,35.0155,140.586,103.696,105.755,0.000316013,0.0450961,20.9957,575.611,-0.177859,0.0,0.0
4,0.75,33.2958,34.3449,135.509,103.682,105.76,0.000337331,0.04519,20.995,575.361,-0.179477,0.0,0.0
6,1.25,31.8236,33.8618,139.119,103.701,105.086,0.000354599,0.045266,20.9945,575.591,-0.120031,0.0,0.0
8,1.75,31.3237,33.2316,141.132,103.698,105.49,0.000368586,0.0453549,20.9931,575.351,-0.154982,0.0,0.0
10,2.25,31.9343,33.0276,139.99,103.704,104.589,0.000415038,0.0454268,20.9921,575.561,-0.0768534,0.0,0.0
12,2.75,32.3982,33.1912,140.545,103.687,105.495,0.000484274,0.0454851,20.9934,575.411,-0.156339,0.0,0.0
14,3.25,31.8683,33.9111,137.143,103.701,105.034,0.000582589,0.0473374,20.9944,575.441,-0.115503,0.0,0.0
16,3.75,31.9812,33.8416,139.36,103.686,104.843,0.000700234,0.0488378,20.9931,575.411,-0.100365,0.0,0.0
18,4.25,32.2134,34.1606,140.3,103.723,103.884,0.000850698,0.0500531,20.992,575.271,-0.0140013,0.0,0.0
20,4.75,32.7259,33.5835,143.853,103.695,104.281,0.00102223,0.0510375,20.9548,575.321,-0.0509617,0.0,0.0
22,5.25,32.1903,33.7958,128.031,103.711,108.141,0.0012339,0.0832881,20.9247,575.161,-0.378356,0.0,1.0
24,5.75,32.3509,33.6609,116.45,103.69,109.292,0.00147081,0.109411,20.8364,575.031,-0.47592,0.0,1.0
26,6.25,32.4712,33.9905,108.705,103.71,109.709,0.00171372,0.162479,20.7649,574.961,-0.508698,0.0,1.0
28,6.75,32.9939,34.0577,113.722,103.703,109.387,0.00195639,0.221803,20.6825,574.8,-0.482676,0.0,1.0
30,7.25,34.1932,34.526,105.926,103.708,109.689,0.00215295,0.284561,20.6157,574.74,-0.507155,0.0,1.0
32,7.75,35.1074,34.4287,107.848,103.691,108.996,0.00236201,0.335395,20.5616,574.52,-0.451335,0.0,1.0
34,8.25,36.5091,35.4495,106.481,103.708,109.347,0.00257622,0.396976,20.5178,574.47,-0.478882,0.0,1.0
36,8.75,38.1327,36.8224,103.621,103.698,108.821,0.00277827,0.446857,20.4823,574.31,-0.436162,0.0,1.0
38,9.25,39.4151,37.2148,108.754,103.71,108.107,0.00296761,0.486461,20.4536,574.26,-0.375586,0.0,1.0
40,9.75,40.7602,38.3211,118.417,103.698,105.766,0.00312098,0.518541,20.4303,574.19,-0.178671,0.0,1.0
42,10.25,40.7835,37.3422,116.971,103.718,105.941,0.00332547,0.526961,20.4246,574.14,-0.191866,0.0,0.0
44,10.75,42.0178,38.5558,125.493,103.712,105.038,0.0034911,0.533781,20.4318,574.16,-0.114865,0.0,0.0
46,11.25,42.6955,39.4524,126.623,103.72,106.439,0.00373549,0.525989,20.4376,574.13,-0.234054,0.0,0.0
48,11.75,43.1109,40.0887,130.906,103.712,107.36,0.00393344,0.507691,20.4762,574.14,-0.312749,0.0,0.0
50,12.25,43.5954,40.8614,133.771,103.722,107.873,0.0041873,0.49287,20.5076,574.11,-0.355006,0.0,0.0
52,12.75,43.5706,41.1445,134.084,103.718,106.683,0.0044771,0.461615,20.5513,574.13,-0.254993,0.0,0.0
54,13.25,43.2091,41.2513,136.076,103.726,106.754,0.00480118,0.436298,20.5867,574.08,-0.260219,0.0,0.0
56,13.75,43.4954,41.3469,138.985,103.72,106.244,0.0051441,0.407753,20.6299,574.09,-0.217532,0.0,0.0
58,14.25,43.2918,41.8671,136.985,103.73,106.152,0.00542186,0.377396,20.6648,574.1,-0.208831,0.0,0.0
60,14.75,43.2882,42.271,135.692,103.719,106.25,0.00576506,0.348093,20.6931,574.09,-0.218044,0.0,0.0
62,15.25,42.8826,41.8007,133.231,103.723,106.344,0.00614943,0.320115,20.7244,574.05,-0.225719,0.0,0.0
64,15.75,43.0221,42.0598,134.568,103.719,106.426,0.0065198,0.297452,20.7497,574.05,-0.233096,0.0,0.0
66,16.25,42.4901,42.5378,137.412,103.735,106.197,0.00687293,0.27183,20.7767,574.08,-0.212161,0.0,0.0
68,16.75,42.4869,41.6496,139.63,103.726,106.691,0.00715897,0.251076,20.7987,574.08,-0.254928,0.0,0.0
70,17.25,42.1469,42.1081,136.726,103.742,105.157,0.00745633,0.231567,20.8203,574.09,-0.122548,0.0,0.0
72,17.75,42.1141,41.4572,145.019,103.723,106.024,0.00770119,0.213337,20.8379,574.08,-0.198461,0.0,0.0
74,18.25,41.8189,41.4934,138.752,103.737,105.381,0.00790312,0.196857,20.8561,574.1,-0.142203,0.0,0.0
76,18.75,41.6576,41.5083,138.176,103.735,105.247,0.00804075,0.181967,20.8708,574.08,-0.130866,0.0,0.0
78,19.25,41.6541,42.0168,139.649,103.747,106.269,0.00812889,0.169906,20.8849,574.09,-0.217313,0.0,0.0
80,19.75,41.2712,41.4669,134.437,103.739,105.244,0.00820027,0.158352,20.8963,574.06,-0.130254,0.0,0.0
82,20.25,41.3219,41.5892,136.099,103.745,105.383,0.00817232,0.148213,20.9063,574.03,-0.1417,0.0,0.0
84,20.75,41.0729,41.3089,138.734,103.743,105.873,0.00814968,0.139297,20.915,574.06,-0.183807,0.0,0.0
86,21.25,40.9384,41.3537,134.364,103.76,105.533,0.00813135,0.132075,20.922,574.06,-0.153237,0.0,0.0
88,21.75,41.1913,41.0598,134.941,103.751,105.134,0.00797814,0.125012,20.929,574.07,-0.11981,0.0,0.0
90,22.25,41.1401,41.4657,137.622,103.743,106.262,0.00785404,0.119291,20.9347,574.04,-0.217011,0.0,0.0
92,22.75,40.9765,41.0706,134.18,103.76,106.125,0.00765823,0.113628,20.9397,574.04,-0.203876,0.0,0.0
94,23.25,40.707,41.3599,136.392,103.754,106.293,0.00749961,0.109041,20.9443,574.03,-0.218709,0.0,0.0
96,23.75,39.8239,41.1662,138.395,103.759,105.303,0.00728732,0.104748,20.9479,574.03,-0.133568,0.0,0.0
98,24.25,40.0296,41.0624,139.691,103.758,106.697,0.00711536,0.100752,20.9516,574.04,-0.252679,0.0,0.0
100,24.75,40.5759,40.6342,137.096,103.767,105.612,0.00697608,0.0975152,20.9551,574.04,-0.159355,0.0,0.0
102,25.25,40.4152,41.0996,136.181,103.758,106.184,0.00678907,0.0938693,20.9577,574.05,-0.209061,0.0,0.0
104,25.75,39.6773,41.2409,138.493,103.783,105.749,0.00657083,0.0909161,20.9594,574.06,-0.16979,0.0,0.0
106,26.25,39.9319,40.6211,133.812,103.772,105.564,0.00633778,0.0880226,20.9608,574.04,-0.154841,0.0,0.0
108,26.75,39.7762,40.7735,139.262,103.785,105.844,0.00609837,0.0852275,20.9628,574.04,-0.17769,0.0,0.0
110,27.25,39.5666,40.443,136.711,103.766,106.57,0.00584506,0.0829635,20.9645,574.04,-0.241154,0.0,0.0
112,27.75,39.8839,40.8198,139.442,103.775,106.092,0.00558646,0.0805496,20.9671,574.04,-0.19969,0.0,0.0
114,28.25,39.2705,40.5387,137.522,103.777,105.732,0.00537698,0.0780723,20.9692,574.04,-0.168794,0.0,0.0
116,28.75,39.5471,40.7164,136.57,103.779,104.908,0.00505167,0.0756676,20.9714,574.04,-0.0978454,0.0,0.0
118,29.25,39.578,40.7473,139.569,103.781,105.342,0.00478816,0.0733617,20.9736,574.05,-0.135009,0.0,0.0
120,29.75,39.7044,40.7406,136.64,103.791,105.994,0.00447747,0.0711471,20.9758,574.04,-0.189945,0.0,0.0
122,30.25,37.5496,38.9424,139.823,103.786,105.825,0.00422581,0.0690411,20.9781,574.03,-0.176024,0.0,0.0
124,30.75,37.3446,38.3202,142.625,103.794,105.504,0.00397027,0.0673352,20.9798,574.05,-0.147815,0.0,0.0
126,31.25,38.0353,39.4584,141.161,103.783,105.975,0.00383684,0.0653092,20.9817,574.08,-0.189055,0.0,0.0
128,31.75,37.798,39.1896,137.182,103.791,105.729,0.00357063,0.063668,20.9826,574.04,-0.16734,0.0,0.0
130,32.25,38.7231,39.9233,136.76,103.783,105.579,0.00332077,0.0620504,20.9842,574.02,-0.155123,0.0,0.0
132,32.75,38.681,40.2974,135.683,103.794,105.308,0.00311838,0.0604807,20.9857,574.03,-0.130987,0.0,0.0
134,33.25,39.1322,40.3219,136.219,103.785,105.749,0.00287743,0.0590293,20.9871,574.04,-0.169605,0.0,0.0
136,33.75,38.3859,40.1151,136.533,103.794,105.093,0.00268226,0.0576916,20.9885,574.02,-0.112489,0.0,0.0
138,34.25,38.2481,40.1645,138.514,103.795,105.269,0.00246682,0.0571213,20.9901,574.01,-0.127556,0.0,0.0
140,34.75,38.4309,40.4442,139.358,103.8,105.561,0.00229231,0.0557223,20.9918,574.03,-0.152132,0.0,0.0
142,35.25,38.4132,40.0705,134.109,103.803,105.132,0.00215096,0.0545891,20.9932,574.04,-0.115041,0.0,0.0
144,35.75,38.2503,39.5052,139.291,103.805,105.998,0.00196703,0.0534117,20.9943,574,-0.189163,0.0,0.0
146,36.25,38.2654,40.3164,137.421,103.796,105.838,0.00181804,0.052458,20.9952,574.01,-0.176214,0.0,0.0
148,36.75,38.1909,39.8335,140.09,103.802,105.892,0.00165115,0.0514943,20.9959,573.98,-0.180281,0.0,0.0
150,37.25,38.0129,40.0329,135.705,103.797,106.915,0.00151597,0.0507137,20.9965,573.96,-0.267751,0.0,0.0
152,37.75,38.4518,39.6198,136.241,103.818,105.754,0.00136517,0.049988,20.997,573.97,-0.167094,0.0,0.0
154,38.25,38.0161,39.8761,139.723,103.791,105.37,0.00124302,0.0493162,20.9974,573.97,-0.136601,0.0,0.0
156,38.75,38.3881,39.4604,140.699,103.805,105.246,0.00111131,0.048772,20.9979,573.99,-0.124707,0.0,0.0
158,39.25,37.8859,39.3465,141.156,103.805,105.751,0.00100463,0.0481401,20.9986,574,-0.16796,0.0,0.0
160,39.75,37.0596,39.2625,140.99,103.817,105.478,0.000886698,0.0476283,20.9991,574,-0.14355,0.0,0.0
162,40.25,37.5917,39.4059,138.278,103.79,105.387,0.00079117,0.0471319,20.9995,574.02,-0.138117,0.0,0.0
164,40.75,37.4998,39.3994,138.817,103.822,105.696,0.000698042,0.0467298,20.9999,574.02,-0.161818,0.0,0.0
166,41.25,37.4488,39.0088,140.347,103.798,106.333,0.000622607,0.0463632,21.0001,574.02,-0.218286,0.0,0.0
168,41.75,37.8026,39.8097,141.383,103.816,106.372,0.000561506,0.0460662,21.0004,574.01,-0.219953,0.0,0.0
170,42.25,37.416,39.4552,142.686,103.809,106.849,0.000509463,0.0457324,21.0005,574.02,-0.261046,0.0,0.0
172,42.75,37.3914,39.3646,138.662,103.816,106.358,0.000465013,0.045378,21.0011,574.01,-0.218765,0.0,0.0
174,43.25,37.0556,39.2841,136.003,103.809,105.707,0.000429009,0.045012,21.0016,574.01,-0.16388,0.0,0.0
176,43.75,36.5202,38.9413,139.578,103.819,105.933,0.000397423,0.0446445,21.002,574.01,-0.182306,0.0,0.0
178,44.25,36.9351,38.7293,138.217,103.803,105.874,0.000371839,0.0443468,21.0023,574,-0.178695,0.0,0.0
180,44.75,36.6101,38.6311,137.911,103.811,106.269,0.000357172,0.0440648,21.0026,574,-0.211751,0.0,0.0
182,45.25,36.5954,38.7213,138.261,103.802,105.81,0.000350919,0.0438364,21.0027,573.99,-0.173276,0.0,0.0
184,45.75,36.7589,38.591,139.288,103.813,105.646,0.000344052,0.0436514,21.0028,574,-0.158365,0.0,0.0
186,46.25,36.5035,39.0265,136.473,103.816,105.998,0.000341933,0.043447,21.003,573.98,-0.188207,0.0,0.0
188,46.75,36.6171,38.1513,138.839,103.827,105.165,0.00034213,0.0432814,21.0031,574.01,-0.115824,0.0,0.0
190,47.25,36.66,38.8593,138.823,103.824,104.943,0.000344012,0.0431114,21.0032,573.98,-0.0969898,0.0,0.0
192,47.75,37.0785,38.8861,141.613,103.827,106.103,0.000345536,0.0429415,21.0033,574,-0.196148,0.0,0.0
194,48.25,36.6958,38.9564,140.778,103.807,106.203,0.000339756,0.0428475,21.0034,574,-0.206374,0.0,0.0
196,48.75,36.4994,38.7259,139.72,103.822,105.561,0.000328762,0.0426868,21.0035,574.01,-0.150255,0.0,0.0
198,49.25,36.2212,38.7807,139.555,103.804,105.638,0.000319856,0.0425567,21.0037,573.99,-0.158421,0.0,0.0
200,49.75,36.7036,38.2601,136.429,103.826,106.28,0.000299898,0.0424512,21.0038,573.98,-0.211301,0.0,0.0
202,50.25,36.8359,38.4447,138.47,103.812,105.825,0.00027226,0.0423658,21.0039,573.98,-0.173779,0.0,0.0
204,50.75,36.6288,38.19,142.849,103.817,105.572,0.000246051,0.0422465,21.004,573.99,-0.151654,0.0,0.0
206,51.25,36.7504,38.2439,138.804,103.803,105.907,0.000221382,0.0421046,21.004,573.99,-0.181521,0.0,0.0
208,51.75,36.1661,39.1498,136.375,103.822,106.288,0.0002014,0.0419897,21.0041,573.98,-0.212266,0.0,0.0
210,52.25,35.9741,38.7276,137.614,103.824,105.679,0.000182794,0.041883,21.0041,574.01,-0.160126,0.0,0.0
212,52.75,36.4782,38.4921,135.423,103.835,105.408,0.000167724,0.0417965,21.0041,574.03,-0.136049,0.0,0.0
214,53.25,36.0145,38.3724,138.988,103.824,105.682,0.000161567,0.0417265,21.0042,574,-0.160439,0.0,0.0
216,53.75,36.4814,38.4608,139.071,103.837,106.162,0.000156581,0.0416698,21.0042,574.02,-0.200306,0.0,0.0
218,54.25,36.6107,38.3173,137.806,103.826,105.515,0.000155727,0.0416239,21.0042,574.01,-0.146011,0.0,0.0
220,54.75,36.458,38.3356,142.264,103.84,105.997,0.000157902,0.0415458,21.0042,574.01,-0.185988,0.0,0.0
222,55.25,36.2596,37.8647,136.229,103.833,105.848,0.000160301,0.0414826,21.0042,573.99,-0.173849,0.0,0.0
224,55.75,36.203,38.5202,139.727,103.851,106.357,0.000162817,0.041445,21.0042,574,-0.215744,0.0,0.0
226,56.25,36.0751,37.5381,139.82,103.834,105.762,0.000164856,0.0414145,21.0042,574,-0.166449,0.0,0.0
228,56.75,36.1937,38.0314,136.238,103.862,106.091,0.000158863,0.0414035,21.0043,574.01,-0.192099,0.0,0.0
230,57.25,35.6806,37.84,138.788,103.854,105.193,0.000147129,0.0413945,21.0043,573.98,-0.115872,0.0,0.0
232,57.75,35.9467,38.0216,136.779,103.864,105.465,0.00013253,0.0413944,21.0043,573.99,-0.138384,0.0,0.0
234,58.25,35.5348,37.8833,139.549,103.861,105.541,0.00011612,0.0414008,21.0043,573.99,-0.145114,0.0,0.0
236,58.75,35.9728,37.5065,132.29,103.863,105.318,9.83715e-05,0.041406,21.0043,573.99,-0.125789,0.0,0.0
238,59.25,36.1885,37.7579,138.417,103.87,105.537,7.99843e-05,0.0413829,21.0043,574,-0.144059,0.0,0.0
240,59.75,35.5759,37.8899,137.958,103.872,105.989,6.76373e-05,0.0413643,21.0043,574.02,-0.182515,0.0,0.0
242,60.25,35.8879,37.7935,137.703,103.878,105.828,5.99282e-05,0.0413348,21.0043,574.01,-0.168199,0.0,0.0
244,60.75,35.9662,37.9317,139.781,103.872,105.849,6.3236e-05,0.041298,21.0043,573.99,-0.170542,0.0,0.0
246,61.25,35.9836,37.6973,138.441,103.878,105.95,7.45123e-05,0.0412826,21.0043,574,-0.178623,0.0,0.0
248,61.75,35.0158,37.5396,140.655,103.889,105.751,9.51148e-05,0.041283,21.0043,574.02,-0.160708,0.0,0.0
250,62.25,35.6944,37.3515,139.477,103.885,105.748,0.000122125,0.0412905,21.0043,574.01,-0.160763,0.0,0.0
252,62.75,34.9977,37.7434,142.943,103.89,105.616,0.000144003,0.041303,21.0043,574.01,-0.149,0.0,0.0
254,63.25,35.6136,37.5722,139.246,103.895,105.154,0.000177665,0.0413275,21.0043,574.01,-0.109014,0.0,0.0
256,63.75,35.3573,37.7408,136.966,103.884,106.06,0.000219277,0.0413602,21.0043,574,-0.187525,0.0,0.0
258,64.25,35.4311,37.819,135.424,103.904,106.363,0.000252984,0.0413437,21.0043,574,-0.211544,0.0,0.0
260,64.75,35.3565,37.5346,141.728,103.889,105.91,0.000294832,0.0412916,21.0043,574,-0.174283,0.0,0.0
262,65.25,35.4235,37.2341,140.219,103.901,105.783,0.00032873,0.0412494,21.0043,574,-0.162352,0.0,0.0
264,65.75,35.5514,37.7426,135.913,103.899,105.719,0.000361037,0.041188,21.0043,573.99,-0.157038,0.0,0.0
266,66.25,35.499,37.2749,140.127,103.916,105.514,0.000387207,0.0411383,21.0043,573.99,-0.138014,0.0,0.0
268,66.75,35.1657,37.3892,136.256,103.901,105.762,0.000396279,0.0411266,21.0043,574,-0.16052,0.0,0.0
270,67.25,35.2093,37.3938,138.789,103.912,105.564,0.000403628,0.041143,21.0043,574.01,-0.142691,0.0,0.0
272,67.75,35.1664,37.415,142.703,103.907,106.543,0.000384132,0.0411563,21.0043,573.98,-0.226603,0.0,0.0
274,68.25,35.2476,37.5081,141.864,103.917,105.736,0.000354956,0.0411262,21.0043,573.98,-0.156928,0.0,0.0
276,68.75,35.2476,36.8766,135.661,103.917,106.706,0.000319278,0.0411018,21.0043,574,-0.23951,0.0,0.0
278,69.25,35.2934,37.023,141.225,103.925,105.941,0.000290378,0.0410821,21.0043,574,-0.17386,0.0,0.0
280,69.75,35.254,37.4366,137.764,103.905,105.651,0.000257415,0.0410661,21.0043,573.97,-0.15074,0.0,0.0
282,70.25,34.5526,37.5436,138.845,103.925,106.343,0.000222116,0.0410667,21.0043,573.97,-0.208002,0.0,0.0
284,70.75,35.0007,37.1866,141.561,103.911,105.771,0.000193523,0.0410673,21.0043,573.96,-0.16047,0.0,0.0
286,71.25,35.0988,36.98,134.613,103.926,106.577,0.000170364,0.0410813,21.0043,573.99,-0.227831,0.0,0.0
288,71.75,34.8691,36.9623,139.958,103.911,105.788,0.000166127,0.0410927,21.0042,573.98,-0.161944,0.0,0.0
290,72.25,35.1646,36.7037,141.597,103.944,106.065,0.000162695,0.0410804,21.0041,574,-0.182737,0.0,0.0
292,72.75,34.9239,36.792,138.46,103.92,106.263,0.000159878,0.0410511,21.004,574,-0.201666,0.0,0.0
294,73.25,34.598,37.2499,141.399,103.928,105.447,0.000157563,0.0410274,21.0039,574,-0.131236,0.0,0.0
296,73.75,35.22,37.1161,140.233,103.939,106.148,0.000146135,0.0410082,21.0039,573.99,-0.190213,0.0,0.0
298,74.25,34.5849,36.5737,137.554,103.942,105.445,0.00012828,0.0410062,21.004,573.99,-0.129863,0.0,0.0
300,74.75,34.5317,36.9059,141.796,103.925,105.676,0.000113818,0.0410046,21.0041,573.99,-0.151203,0.0,0.0
302,75.25,34.8884,36.7701,138.652,103.94,105.573,7.42833e-05,0.0409897,21.0042,573.98,-0.141025,0.0,0.0
304,75.75,34.8304,36.9612,136.83,103.928,105.414,4.22605e-05,0.0409776,21.0042,573.99,-0.128436,0.0,0.0
306,76.25,34.6105,36.9982,143.711,103.939,106.484,1.80811e-06,0.0409611,21.0043,573.98,-0.218857,0.0,0.0
308,76.75,34.464,36.9631,139.025,103.935,105.186,-3.09583e-05,0.0409416,21.0043,573.94,-0.108283,0.0,0.0
310,77.25,34.4175,37.4704,137.044,103.948,106.421,-5.74992e-05,0.0409258,21.0043,573.97,-0.212668,0.0,0.0
312,77.75,34.4935,37.1473,142.486,103.946,105.732,-6.93208e-05,0.040913,21.0044,573.96,-0.154148,0.0,0.0
314,78.25,34.6778,36.7716,138.443,103.944,106.169,-7.88963e-05,0.0409027,21.0044,573.96,-0.191557,0.0,0.0
316,78.75,34.6569,37.1166,136.705,103.946,106.372,-7.09297e-05,0.0408943,21.0044,573.93,-0.208695,0.0,0.0
318,79.25,34.3985,36.8933,137.817,103.943,106.042,-6.44768e-05,0.0408875,21.0044,573.96,-0.180828,0.0,0.0
320,79.75,34.7029,36.543,139.782,103.943,105.868,-4.5945e-05,0.0408605,21.0042,573.99,-0.165956,0.0,0.0
322,80.25,34.7794,36.8578,139.262,103.957,106.257,-3.09342e-05,0.0408193,21.0038,573.96,-0.197947,0.0,0.0
324,80.75,34.7262,36.4746,141.538,103.936,106.051,-3.04578e-06,0.0407859,21.0035,573.94,-0.182171,0.0,0.0
326,81.25,34.7663,36.6963,138.886,103.954,105.405,1.95438e-05,0.0407588,21.0033,573.93,-0.125433,0.0,0.0
328,81.75,35.0233,36.6316,135.33,103.947,106.01,5.47881e-05,0.0407369,21.0031,573.96,-0.177831,0.0,0.0
330,82.25,34.617,36.5863,138.271,103.955,106.195,8.3336e-05,0.0407328,21.0029,573.96,-0.19282,0.0,0.0
332,82.75,34.5806,36.8005,140.173,103.949,105.79,0.000122204,0.0407294,21.0028,573.93,-0.158753,0.0,0.0
334,83.25,34.7404,36.2741,136.987,103.955,106.355,0.000153687,0.0407131,21.0026,573.94,-0.206457,0.0,0.0
336,83.75,34.4562,36.6733,136.507,103.947,106.17,0.000179188,0.0406999,21.0026,573.93,-0.191415,0.0,0.0
338,84.25,34.3853,36.505,140.745,103.964,106.996,0.000220511,0.040682,21.0025,573.93,-0.260105,0.0,0.0
340,84.75,34.1146,36.7811,138.404,103.956,106.705,0.000253983,0.0406611,21.0024,573.93,-0.236123,0.0,0.0
342,85.25,34.6338,36.63,135.265,103.969,106.238,0.000286837,0.0406441,21.0024,573.92,-0.195258,0.0,0.0
344,85.75,34.559,36.8793,136.912,103.96,105.555,0.000318617,0.0406304,21.0022,573.91,-0.13774,0.0,0.0
346,86.25,34.4567,36.4398,135.035,103.973,105.925,0.000344359,0.0406192,21.002,573.93,-0.168235,0.0,0.0
348,86.75,34.6488,36.0866,139,103.966,105.792,0.000365209,0.0406367,21.0019,573.96,-0.157484,0.0,0.0
350,87.25,33.7598,36.4242,135.484,103.975,106.209,0.000378908,0.0406508,21.0018,573.95,-0.192319,0.0,0.0
352,87.75,34.5795,36.5653,139.091,103.959,105.502,0.000387132,0.0406623,21.0017,573.97,-0.133302,0.0,0.0
354,88.25,34.4532,36.4047,140.355,103.985,106.847,0.00038614,0.0406716,21.0016,573.97,-0.245618,0.0,0.0
356,88.75,34.8808,36.6724,138.361,103.978,105.815,0.000378448,0.0406719,21.0016,573.96,-0.158442,0.0,0.0
358,89.25,34.0679,36.3383,140.007,103.991,106.533,0.000362016,0.0406657,21.0015,573.96,-0.218449,0.0,0.0
360,89.75,34.4364,36.6326,135.364,103.988,105.927,0.000339526,0.0406607,21.0019,573.96,-0.167108,0.0,0.0
362,90.25,34.5396,36.4564,136.366,103.994,106.675,0.000321309,0.0406567,21.0022,573.97,-0.230247,0.0,0.0
364,90.75,34.1503,36.3051,138.669,103.994,106.156,0.000295083,0.0406534,21.0025,573.98,-0.186141,0.0,0.0
366,91.25,34.4769,36.3188,136.063,104.005,106.116,0.000263518,0.0406507,21.0027,573.97,-0.181698,0.0,0.0
368,91.75,34.5559,36.2671,138.15,104.004,106.069,0.000236677,0.0406486,21.0029,573.97,-0.177836,0.0,0.0
370,92.25,34.6973,36.4308,136.856,104.008,106.498,0.000213789,0.0406469,21.003,573.97,-0.213974,0.0,0.0
372,92.75,34.654,36.0422,137.016,104.023,106.1,0.000202895,0.0406454,21.0031,573.97,-0.17888,0.0,0.0
374,93.25,34.2569,36.1428,136.826,104.027,106.214,0.000200951,0.0406715,21.0032,573.98,-0.188199,0.0,0.0
376,93.75,34.1385,36.0726,140.969,104.039,106.318,0.000199376,0.0406927,21.0033,573.98,-0.196008,0.0,0.0
378,94.25,34.8586,36.5063,136.11,104.02,106.293,0.0001981,0.0406955,21.0034,573.97,-0.195526,0.0,0.0
380,94.75,34.127,35.8555,136.56,104.018,106.247,0.000229702,0.0406848,21.0034,573.94,-0.191821,0.0,0.0
382,95.25,34.4675,36.362,140.127,104.027,106.155,0.000255299,0.0406977,21.0035,573.94,-0.183196,0.0,0.0
384,95.75,33.9942,36.2694,138.509,104.023,106.357,0.000295427,0.0407275,21.0036,573.95,-0.200736,0.0,0.0
386,96.25,34.1146,36.0022,138.17,104.016,105.574,0.00032793,0.0407516,21.0037,573.94,-0.13449,0.0,0.0
388,96.75,34.3115,36.3428,139.247,104.022,106.272,0.000347531,0.0407712,21.0038,573.95,-0.193558,0.0,0.0
390,97.25,34.5746,36.5619,135.348,104.026,106.548,0.000381048,0.0407741,21.0039,573.96,-0.216703,0.0,0.0
392,97.75,34.2368,35.6872,137.034,104.024,106.003,0.000408197,0.0407766,21.004,573.95,-0.170471,0.0,0.0
394,98.25,34.2834,36.3913,134.166,104.029,105.958,0.000428273,0.0407513,21.0041,573.95,-0.166134,0.0,0.0
396,98.75,34.4686,36.1274,140.819,104.041,106.113,0.000442812,0.0407308,21.0042,573.97,-0.178375,0.0,0.0
398,99.25,34.1045,36.0567,139.472,104.021,105.778,0.000442465,0.040707,21.0043,573.96,-0.151547,0.0,0.0
400,99.75,33.607,36.326,142.01,104.033,106.358,0.000431273,0.0406935,21.0043,573.97,-0.19997,0.0,0.0
402,100.25,34.5656,36.3668,134.598,104.02,106.74,0.000400532,0.0406704,21.0043,573.95,-0.233533,0.0,0.0
404,100.75,33.7287,36.0826,143.632,104.025,106.324,0.000356125,0.0407061,21.0044,573.97,-0.197736,0.0,0.0
406,101.25,34.3107,36.3691,132.385,104.033,106.035,0.000302324,0.0407351,21.0044,573.96,-0.1724,0.0,0.0
408,101.75,34.1508,36.3806,136.215,104.016,106.648,0.000242696,0.0407657,21.0044,573.94,-0.226082,0.0,0.0
410,102.25,34.166,35.7606,136.131,104.016,106.169,0.000186759,0.040797,21.0044,573.94,-0.185304,0.0,0.0
412,102.75,34.2927,36.7427,138.569,104.021,106.196,0.000134575,0.0408151,21.0044,573.95,-0.18724,0.0,0.0
414,103.25,34.091,35.797,144.949,104.018,106.208,9.86723e-05,0.0408234,21.0044,573.96,-0.188529,0.0,0.0
416,103.75,34.1256,36.4425,137.989,104.02,106.167,7.532e-05,0.0408301,21.004,573.94,-0.184778,0.0,0.0
418,104.25,34.0671,36.3361,140.474,104.016,106.53,5.64046e-05,0.0408355,21.0037,573.93,-0.216008,0.0,0.0
420,104.75,34.7222,35.6704,140.093,104.022,105.837,4.10831e-05,0.0408112,21.0034,573.94,-0.15649,0.0,0.0
422,105.25,34.383,36.1741,138.614,104.032,106.337,5.4078e-05,0.0407657,21.0034,573.94,-0.198221,0.0,0.0
424,105.75,34.421,36.2405,134.154,104.016,105.892,6.46038e-05,0.0407289,21.0036,573.95,-0.161662,0.0,0.0
426,106.25,34.2193,36.1428,138.137,104.003,105.776,7.63145e-05,0.0406718,21.0038,573.94,-0.152892,0.0,0.0
428,106.75,34.2696,35.7665,137.817,104.001,106.431,8.86665e-05,0.0406255,21.0039,573.93,-0.208864,0.0,0.0
430,107.25,34.3837,36.1778,140.62,103.991,106.078,0.00010122,0.0406289,21.004,573.91,-0.17977,0.0,0.0
432,107.75,33.818,36.3156,137.314,104.002,105.521,0.000113682,0.0406317,21.0041,573.93,-0.131149,0.0,0.0
434,108.25,33.9133,36.2006,138.103,103.987,105.827,0.000125051,0.0406339,21.0042,573.93,-0.158706,0.0,0.0
436,108.75,34.3643,36.1328,135.65,103.997,105.933,0.000135406,0.040663,21.0042,573.93,-0.166816,0.0,0.0
438,109.25,34.2717,35.9997,136.76,103.978,106.309,0.000144431,0.0406865,21.0043,573.9,-0.200552,0.0,0.0
440,109.75,34.0402,36.3107,140.83,103.987,106.619,0.000152314,0.0407056,21.0043,573.9,-0.226096,0.0,0.0
442,110.25,34.3052,35.5842,137.414,103.962,106.19,0.000157426,0.040721,21.0044,573.9,-0.191835,0.0,0.0
444,110.75,34.37,35.8427,141.418,103.977,106.319,0.000160419,0.0407049,21.0044,573.89,-0.201494,0.0,0.0
446,111.25,34.3732,36.05,135.733,103.966,106.606,0.000162844,0.040666,21.0044,573.93,-0.226864,0.0,0.0
448,111.75,33.9744,36.0573,138.306,103.966,106.471,0.000158756,0.0406559,21.0044,573.91,-0.215399,0.0,0.0
450,112.25,34.4087,35.9309,137.759,103.953,106.501,0.000155444,0.0406672,21.0044,573.89,-0.219071,0.0,0.0
452,112.75,34.3997,36.2656,138.329,103.963,105.756,0.000150213,0.040705,21.0044,573.82,-0.154709,0.0,0.0
454,113.25,34.708,36.0661,135.371,103.954,105.612,0.000143684,0.0407614,21.0044,573.85,-0.143086,0.0,0.0
456,113.75,34.1408,36.2011,141.825,103.958,105.43,0.000139669,0.0408071,21.0042,573.91,-0.127107,0.0,0.0
458,114.25,34.3004,35.8933,139.425,103.958,106.435,0.000137563,0.0408714,21.0038,573.93,-0.213047,0.0,0.0
460,114.75,34.1728,35.6443,136.645,103.939,105.914,0.000137068,0.0409234,21.0035,573.9,-0.170186,0.0,0.0
462,115.25,33.8111,35.7908,134.434,103.928,105.831,0.000136667,0.0409369,21.0037,573.93,-0.164173,0.0,0.0
464,115.75,34.5011,36.4901,138.285,103.934,105.873,0.000133194,0.040922,21.0039,573.94,-0.167203,0.0,0.0
466,116.25,34.3963,35.6422,137.242,103.904,106.53,0.000127548,0.0409171,21.004,573.94,-0.225714,0.0,0.0
468,116.75,34.0548,35.9905,138.694,103.911,106.014,0.000122974,0.0409196,21.0041,573.94,-0.181236,0.0,0.0
470,117.25,34.0936,35.7919,136.24,103.904,106.202,0.000119269,0.0409288,21.0041,573.96,-0.197866,0.0,0.0
472,117.75,34.4497,36.002,136.081,103.895,106.166,9.32834e-05,0.0409427,21.0042,573.97,-0.195587,0.0,0.0
474,118.25,34.4825,36.2223,135.234,103.886,106.361,7.2235e-05,0.0409539,21.0042,573.94,-0.212966,0.0,0.0
476,118.75,33.9846,35.7868,138.401,103.898,106.193,5.51858e-05,0.0409623,21.0042,573.95,-0.197666,0.0,0.0
478,119.25,34.5095,35.8574,138.971,103.883,106.239,5.46818e-05,0.040969,21.0042,573.96,-0.202802,0.0,0.0
480,119.75,34.4875,36.1583,140.978,103.891,106.313,5.42734e-05,0.0409745,21.0042,573.94,-0.208482,0.0,0.0
482,120.25,33.8975,35.9626,135.971,103.86,106.451,7.33041e-05,0.0409926,21.0042,573.94,-0.222855,0.0,0.0
484,120.75,34.2092,35.6326,140.485,103.869,106.238,8.87189e-05,0.0410072,21.0043,573.93,-0.204014,0.0,0.0
486,121.25,34.1304,36.171,136.825,103.848,105.643,0.000114522,0.0410477,21.0043,573.95,-0.155031,0.0,0.0
488,121.75,34.1321,35.9054,138.446,103.853,105.987,0.000135422,0.0411064,21.0043,573.92,-0.183935,0.0,0.0
490,122.25,34.3687,36.0952,139.23,103.836,105.778,0.000146298,0.0411539,21.0043,573.95,-0.16758,0.0,0.0
492,122.75,34.3513,36.2129,136.491,103.852,106.39,0.000155107,0.0411787,21.0043,573.96,-0.218481,0.0,0.0
494,123.25,34.2971,35.8915,141.454,103.814,106.453,0.000142877,0.0411988,21.0043,573.98,-0.227063,0.0,0.0
496,123.75,33.9371,36.1282,141.503,103.834,105.933,0.00013297,0.0412015,21.0043,573.97,-0.18102,0.0,0.0
498,124.25,34.2804,35.6316,136.947,103.821,106.033,0.000100753,0.0412037,21.0043,573.93,-0.190745,0.0,0.0
500,124.75,33.9942,36.1117,136.321,103.833,106.107,7.46564e-05,0.04126,21.0043,573.93,-0.195992,0.0,0.0
502,125.25,34.5004,36.0975,136.137,103.804,105.937,5.35185e-05,0.0413055,21.0043,573.94,-0.183992,0.0,0.0
504,125.75,34.359,35.8061,139.489,103.804,105.591,2.93574e-05,0.0413288,21.0043,573.95,-0.154395,0.0,0.0
506,126.25,33.8279,35.7144,135.889,103.799,105.66,3.45144e-06,0.0413477,21.0043,573.97,-0.160738,0.0,0.0
508,126.75,34.6005,35.7576,137.111,103.797,105.698,-2.00785e-05,0.0413343,21.0043,573.96,-0.164154,0.0,0.0
510,127.25,34.2789,35.7818,139.346,103.793,105.699,-4.14292e-05,0.0412976,21.0044,573.96,-0.164565,0.0,0.0
512,127.75,34.1,35.977,137.416,103.789,106.139,-5.87232e-05,0.0412679,21.0046,573.95,-0.202562,0.0,0.0
514,128.25,34.4935,35.7573,134.837,103.769,105.324,-6.66843e-05,0.0412847,21.0047,573.95,-0.134521,0.0,0.0
516,128.75,34.9792,36.2215,137.999,103.767,106.355,-7.31328e-05,0.0412983,21.0048,573.94,-0.222873,0.0,0.0
518,129.25,34.1843,35.7068,135.742,103.745,106.362,-5.77951e-05,0.0413098,21.0048,573.95,-0.225384,0.0,0.0
520,129.75,34.6119,35.9942,147.265,103.742,105.348,-4.53715e-05,0.0413194,21.0049,573.93,-0.138919,0.0,0.0
522,130.25,33.9756,35.7689,138.77,103.74,104.994,-9.89921e-06,0.0413272,21.0049,573.93,-0.108695,0.0,0.0
524,130.75,34.2076,35.9463,137.516,103.743,105.334,1.88334e-05,0.0413199,21.005,573.93,-0.137649,0.0,0.0
526,131.25,34.3787,35.4038,137.937,103.739,106.547,6.14786e-05,0.041314,21.005,573.93,-0.241612,0.0,0.0
528,131.75,34.5012,35.9136,136.148,103.729,105.844,9.60212e-05,0.0413163,21.005,573.89,-0.182516,0.0,0.0
530,132.25,34.5429,35.8292,138.956,103.724,105.796,0.000110747,0.0413247,21.005,573.9,-0.178935,0.0,0.0
532,132.75,33.8736,35.6159,138.175,103.726,106.336,0.000144407,0.0413451,21.0051,573.91,-0.224787,0.0,0.0
534,133.25,33.9492,36.2828,142.09,103.698,105.37,0.000171671,0.0413617,21.0051,573.91,-0.144708,0.0,0.0
536,133.75,33.6135,35.909,138.041,103.701,105.146,0.00018891,0.0413894,21.0051,573.9,-0.125201,0.0,0.0
538,134.25,34.1717,36.0846,140.908,103.693,105.808,0.000202873,0.0414248,21.0051,573.91,-0.182697,0.0,0.0
540,134.75,34.1619,35.6604,135.505,103.69,105.814,0.000204497,0.0414534,21.0049,573.91,-0.183433,0.0,0.0
542,135.25,34.3064,35.7882,138.42,103.68,105.538,0.000205812,0.0414656,21.0045,573.91,-0.16064,0.0,0.0
544,135.75,34.5624,35.7556,137.062,103.669,106.092,0.00019598,0.0414865,21.0042,573.89,-0.208979,0.0,0.0
546,136.25,34.2282,36.045,137.176,103.677,105.88,0.000188017,0.0414891,21.0039,573.91,-0.190268,0.0,0.0
548,136.75,34.7719,36.3972,142.762,103.661,105.963,0.000179692,0.0414783,21.0037,573.92,-0.198673,0.0,0.0
550,137.25,34.0574,36.1162,138.978,103.665,106.748,0.000171261,0.0414552,21.0035,573.91,-0.265093,0.0,0.0
552,137.75,34.4283,35.8154,138.16,103.658,106.062,0.000164433,0.0414235,21.0034,573.91,-0.207359,0.0,0.0
554,138.25,34.4193,35.934,138.02,103.668,106.862,,0.0413979,,573.91,-0.274459,0.0,0.0
556,138.75,34.6286,35.7632,137.118,103.657,106.213,,0.0413772,,573.91,-0.22029,0.0,0.0
558,139.25,34.5042,36.1704,141.499,103.655,105.286,,0.0413887,,573.9,-0.141156,0.0,0.0
560,139.75,34.2066,35.8027,140.533,103.653,105.828,,0.0414234,,573.9,-0.187799,0.0,0.0
562,140.25,34.4077,35.5605,139.991,103.653,105.473,,0.0414874,,573.93,-0.157412,0.0,0.0
564,140.75,34.3818,35.7704,142.306,103.638,105.62,,0.0415715,,573.92,-0.171354,0.0,0.0
566,141.25,35.0674,35.4731,135.856,103.649,105.622,,,,573.93,-0.170592,0.0,0.0
568,141.75,35.0616,36.2047,139.086,103.647,106.876,,,,573.95,-0.277486,0.0,0.0
570,142.25,34.7203,35.8517,134.798,103.653,105.15,,,,573.92,-0.129725,0.0,0.0
572,142.75,34.2764,35.4969,136.758,103.659,105.896,,,,573.93,-0.193093,0.0,0.0
574,143.25,34.3406,36.0612,134.978,103.653,105.191,,,,573.93,-0.133251,0.0,0.0
576,143.75,34.1395,35.312,136.487,103.641,105.521,,,,573.92,-0.162635,0.0,0.0
578,144.25,34.1398,35.6999,142.436,103.657,105.455,,,,573.92,-0.155559,0.0,0.0
580,144.75,34.7076,36.2819,136.716,103.641,106.139,,,,573.92,-0.215423,0.0,0.0
582,145.25,34.7486,35.6847,137.664,103.663,105.813,,,,573.92,-0.18568,0.0,0.0
584,145.75,34.1789,36.0603,141.552,103.652,106.029,,,,573.92,-0.205092,0.0,0.0
586,146.25,34.285,36.2787,136.606,103.671,106.387,,,,573.9,-0.233937,0.0,0.0
588,146.75,34.3949,35.758,137.747,103.669,105.519,,,,573.89,-0.160001,0.0,0.0
590,147.25,34.27,35.4784,139.371,103.675,105.503,,,,573.88,-0.158088,0.0,0.0
592,147.75,33.7585,35.5309,138.04,103.677,106.431,,,,573.89,-0.237139,0.0,0.0
594,148.25,34.1629,35.8777,138.943,103.68,105.694,,,,573.88,-0.174003,0.0,0.0
596,148.75,34.1176,35.855,138.312,103.677,105.506,,,,573.86,-0.158223,0.0,0.0
597,149,34.383,35.8362,137.446,103.683,106.056,,,,573.85,-0.204667,0.0,0.0