File: 01_Data/Hemp_Sheet/Cone/Hemp_Sheet_Cone_HF75Scan_220524_R1.csv
Names,Time,Stack TC,Smoke TC,Exh Press,Smoke Comp,Smoke Meas,CO Meter,CO2 Meter,O2 Meter,Sample Mass,Ext Coeff,Start Test,Flame Verif
Chan Gain,,500,500,1,1,1,1,1,1,1,1,1.0,1.0
Offset,,0,0,0.139323,0,0,0,0,0,0,0,0.0,0.0
Gain,,1,1,25.011,13.8491,15.2622,1,1,1,1.00087,1.03118,1.0,1.0
Units,sec,C,C,Pa,%,%,%,%,%,g,/m,,
Baseline,,44.7635,46.5507,135.83,103.913,107.096,0.000467876,0.041307,21.0005,-452.683,-0.272835,,
2,0.25,41.9178,43.8834,136.554,103.915,107.169,0.000622069,0.0426474,21.0076,562.79,-0.278932,0.0,0.0
4,0.75,41.2008,43.3021,137.419,103.909,106.629,0.000695763,0.045348,21.0043,562.89,-0.233768,0.0,0.0
6,1.25,40.3211,42.4394,136.299,103.908,105.665,0.000809015,0.0499169,20.999,562.81,-0.151642,0.0,0.0
8,1.75,40.5063,42.5374,138.162,103.887,105.46,0.00099004,0.0536177,20.9946,562.68,-0.135961,0.0,0.0
10,2.25,40.4563,42.7163,136.407,103.888,106.361,0.00121703,0.0942655,20.9241,562.66,-0.212784,0.0,0.0
12,2.75,40.3255,42.4796,121.644,103.874,109.181,0.00140089,0.12719,20.867,562.58,-0.45068,0.0,1.0
14,3.25,40.4689,42.8544,104.388,103.875,109.24,0.00175223,0.221779,20.7705,562.35,-0.455467,0.0,1.0
16,3.75,40.8363,42.7143,95.5755,103.873,108.83,0.00203681,0.298397,20.6471,562.079,-0.421649,0.0,1.0
18,4.25,41.9432,43.1245,95.419,103.862,108.534,0.00236956,0.389629,20.5472,561.909,-0.398064,0.0,1.0
20,4.75,43.5984,43.6043,83.512,103.85,107.643,0.00263908,0.489781,20.4663,561.709,-0.324454,0.0,1.0
22,5.25,45.4753,44.901,87.4688,103.85,106.317,0.0028574,0.572214,20.4007,561.549,-0.21237,0.0,1.0
24,5.75,47.9518,45.7233,102.029,103.829,104.768,0.00309966,0.640162,20.3476,561.499,-0.0814031,0.0,1.0
26,6.25,50.8908,47.5815,114.618,103.835,105.356,0.0032959,0.6952,20.3046,561.439,-0.131572,0.0,1.0
28,6.75,53.1518,49.41,119.658,103.822,108.934,0.00349812,0.70017,20.2921,561.449,-0.434845,0.0,1.0
30,7.25,54.1937,50.7919,124.193,103.839,108.665,0.00366192,0.704195,20.3021,561.449,-0.410954,0.0,1.0
32,7.75,53.0619,50.5557,126.411,103.804,109.086,0.00385526,0.68556,20.3312,561.419,-0.448991,0.0,0.0
34,8.25,54.4281,51.203,128.723,103.801,109.321,0.00401187,0.650761,20.3736,561.389,-0.468694,0.0,0.0
36,8.75,54.347,52.0124,127.494,103.798,108.048,0.00421189,0.622574,20.4243,561.389,-0.362931,0.0,0.0
38,9.25,54.5242,51.9869,131.275,103.796,108.255,0.00429716,0.584438,20.4537,561.389,-0.38049,0.0,0.0
40,9.75,53.8807,53.0681,131.336,103.773,107.982,0.00452127,0.539775,20.5039,561.399,-0.359643,0.0,0.0
42,10.25,54.2436,52.9649,134.044,103.79,108.335,0.0047028,0.488315,20.5599,561.399,-0.387695,0.0,0.0
44,10.75,53.878,53.1676,131.064,103.769,107.212,0.00490098,0.446632,20.6053,561.399,-0.295248,0.0,0.0
46,11.25,53.7006,53.0626,134.207,103.768,107.306,0.00510752,0.402406,20.6508,561.389,-0.303257,0.0,0.0
48,11.75,53.4372,53.2729,132.203,103.749,107.029,0.00527482,0.366583,20.6876,561.409,-0.281563,0.0,0.0
50,12.25,53.1368,53.4107,132.656,103.761,107.321,0.00549148,0.347518,20.7211,561.399,-0.305102,0.0,0.0
52,12.75,53.2191,53.2028,134.177,103.751,107.288,0.00566698,0.314918,20.7516,561.419,-0.303312,0.0,0.0
54,13.25,53.039,53.3143,132.978,103.748,107.935,0.00582361,0.285515,20.7763,561.429,-0.357877,0.0,0.0
56,13.75,52.6617,53.2924,132.442,103.734,106.825,0.00596352,0.259001,20.8016,561.409,-0.265553,0.0,0.0
58,14.25,52.3975,53.2209,132.625,103.746,106.718,0.00607618,0.237525,20.822,561.369,-0.255485,0.0,0.0
60,14.75,52.2655,53.1274,136.083,103.728,107.21,0.00616684,0.216362,20.8421,561.329,-0.298664,0.0,0.0
62,15.25,51.7623,53.0155,132.826,103.734,107.199,0.00623172,0.19922,20.8584,561.369,-0.297246,0.0,0.0
64,15.75,51.9821,52.5628,136.731,103.716,106.313,0.00627658,0.184052,20.8746,561.389,-0.22373,0.0,0.0
66,16.25,51.8465,52.7161,139.531,103.742,107.004,0.00631291,0.17061,20.8877,561.349,-0.280063,0.0,0.0
68,16.75,51.5652,52.0528,131.122,103.707,107.349,0.00632984,0.159722,20.901,561.379,-0.312173,0.0,0.0
70,17.25,51.4196,52.716,136.573,103.728,106.961,0.00634355,0.149095,20.9118,561.379,-0.277617,0.0,0.0
72,17.75,51.2296,52.2313,133.085,103.692,106.745,0.00634591,0.140487,20.9212,561.359,-0.262495,0.0,0.0
74,18.25,51.1233,52.4984,136.133,103.71,106.613,0.00634782,0.13209,20.9294,561.319,-0.249728,0.0,0.0
76,18.75,50.6376,52.0888,132.433,103.699,107.046,0.00633622,0.125289,20.9361,561.299,-0.287327,0.0,0.0
78,19.25,49.6918,51.3727,138.963,103.697,106.727,0.00631499,0.118597,20.9415,561.309,-0.260514,0.0,0.0
80,19.75,48.5829,49.9961,134.19,103.685,105.871,0.0062978,0.113177,20.9472,561.299,-0.188732,0.0,0.0
82,20.25,48.6754,50.1359,136.188,103.716,106.509,0.00628387,0.107912,20.9518,561.299,-0.240359,0.0,0.0
84,20.75,48.4479,49.8183,136.139,103.671,107.1,0.00620896,0.103648,20.9539,561.319,-0.294324,0.0,0.0
86,21.25,47.9737,49.7014,134.703,103.7,107.65,0.00614828,0.0997704,20.9541,561.289,-0.338196,0.0,0.0
88,21.75,48.0488,49.5793,137.222,103.673,107.054,0.00603182,0.0962492,20.9548,561.269,-0.290322,0.0,0.0
90,22.25,47.6316,49.7499,133.919,103.69,107.215,0.00593749,0.0933971,20.9558,561.279,-0.302413,0.0,0.0
92,22.75,47.725,49.6803,137.082,103.673,107.163,0.00581791,0.0910869,20.9569,561.269,-0.299526,0.0,0.0
94,23.25,48.2005,49.7612,130.283,103.692,106.763,0.00568218,0.0879717,20.958,561.269,-0.264032,0.0,0.0
96,23.75,47.9576,49.7114,133.318,103.666,107.198,0.00551156,0.0854485,20.9589,561.249,-0.302988,0.0,0.0
98,24.25,48.4961,50.0462,136.401,103.681,107.474,0.00531873,0.082592,20.9614,561.229,-0.325009,0.0,0.0
100,24.75,47.869,49.8321,137.601,103.669,107.502,0.00510854,0.0802782,20.9634,561.208,-0.328396,0.0,0.0
102,25.25,47.6903,49.7781,134.539,103.686,106.678,0.00488969,0.0779839,20.9663,561.229,-0.257323,0.0,0.0
104,25.75,47.3891,49.1926,131.548,103.67,106.576,0.00471241,0.0757473,20.9687,561.208,-0.250111,0.0,0.0
106,26.25,47.632,49.7719,131.362,103.678,106.683,0.0045059,0.0735957,20.9706,561.208,-0.258422,0.0,0.0
108,26.75,47.7516,50.0071,131.408,103.669,106.016,0.00428199,0.0715469,20.973,561.219,-0.202467,0.0,0.0
110,27.25,47.4582,49.6208,134.91,103.685,106.105,0.00406891,0.0695407,20.975,561.179,-0.208729,0.0,0.0
112,27.75,47.6433,49.2271,134.658,103.67,106.786,0.00386778,0.0676036,20.9774,561.179,-0.267922,0.0,0.0
114,28.25,47.2062,49.9506,134.725,103.677,106.134,0.00370486,0.0660345,20.9794,561.189,-0.211928,0.0,0.0
116,28.75,47.5718,49.6942,132.929,103.673,106.946,0.00352011,0.0642016,20.9811,561.199,-0.28111,0.0,0.0
118,29.25,46.3209,49.2142,131.275,103.682,107.045,0.00334207,0.0627169,20.9824,561.189,-0.288762,0.0,0.0
120,29.75,46.4297,49.2293,134.877,103.696,106.637,0.0031723,0.0612333,20.9843,561.208,-0.252963,0.0,0.0
122,30.25,46.923,48.9308,134.322,103.68,107.139,0.00300194,0.0597786,20.9859,561.208,-0.296817,0.0,0.0
124,30.75,46.8889,49.18,136.046,103.682,107.042,0.00283437,0.0586003,20.9872,561.208,-0.288486,0.0,0.0
126,31.25,45.995,49.0449,135.509,103.692,106.164,0.00269865,0.0572902,20.9882,561.208,-0.213064,0.0,0.0
128,31.75,47.0133,49.2762,139.283,103.681,106.108,0.00260288,0.056042,20.9889,561.199,-0.20926,0.0,0.0
130,32.25,46.3876,48.9796,134.069,103.702,107.24,0.00243912,0.0548626,20.99,561.199,-0.303427,0.0,0.0
132,32.75,46.4624,49.2799,135.413,103.693,106.485,0.00230647,0.0539072,20.9909,561.189,-0.240293,0.0,0.0
134,33.25,46.1332,48.7331,136.636,103.705,106.951,0.00212221,0.0528601,20.9921,561.189,-0.278818,0.0,0.0
136,33.75,45.9604,48.7136,134.331,103.7,106.208,0.00197296,0.052012,20.9933,561.179,-0.21621,0.0,0.0
138,34.25,45.9138,48.5691,135.365,103.709,107.173,0.00181877,0.0511194,20.9943,561.189,-0.29722,0.0,0.0
140,34.75,45.5658,48.504,133.669,103.697,106.16,0.00166389,0.0507389,20.9951,561.208,-0.212381,0.0,0.0
142,35.25,45.7738,48.4918,132.048,103.71,107.054,0.00151159,0.0500379,20.9958,561.189,-0.28704,0.0,0.0
144,35.75,45.5859,47.9465,133.649,103.722,106.399,0.00136405,0.0494248,20.9963,561.208,-0.230542,0.0,0.0
146,36.25,45.3323,48.28,137.649,103.72,106.681,0.00123176,0.0489282,20.9968,561.208,-0.254577,0.0,0.0
148,36.75,45.2855,48.836,133.703,103.723,107.028,0.00111312,0.0484613,20.9974,561.199,-0.283731,0.0,0.0
150,37.25,45.9976,48.4569,135.02,103.731,106.61,0.0010119,0.0480249,20.998,561.189,-0.247651,0.0,0.0
152,37.75,45.3409,47.7823,136.04,103.729,106.967,0.000925324,0.0475781,20.9986,561.189,-0.278092,0.0,0.0
154,38.25,45.1259,48.2227,132.029,103.742,106.998,0.000854556,0.0471321,20.999,561.189,-0.279515,0.0,0.0
156,38.75,45.4413,48.3844,136.684,103.728,106.335,0.000796659,0.0467135,20.9994,561.179,-0.224599,0.0,0.0
158,39.25,45.4265,48.1469,135.175,103.753,106.777,0.000749763,0.0463227,20.9997,561.199,-0.259831,0.0,0.0
160,39.75,45.6677,47.7386,134.752,103.756,106.54,0.00072391,0.0460061,20.9999,561.179,-0.239545,0.0,0.0
162,40.25,45.0877,48.0362,135.322,103.759,107.246,0.000713889,0.0456406,21.0001,561.179,-0.299001,0.0,0.0
164,40.75,45.0467,47.824,135.916,103.771,106.364,0.00072111,0.0453446,21.0003,561.169,-0.223258,0.0,0.0
166,41.25,44.9595,47.9837,135.01,103.774,106.26,0.000740763,0.0450502,21.0004,561.189,-0.214162,0.0,0.0
168,41.75,44.9888,47.7667,132.797,103.782,106.866,0.000756682,0.0448118,21.0005,561.148,-0.264899,0.0,0.0
170,42.25,45.167,47.8732,139.678,103.782,107.488,0.000797459,0.0445613,21.0006,561.159,-0.317379,0.0,0.0
172,42.75,44.7097,47.7511,133.846,103.792,106.84,0.000830488,0.0443067,21.0006,561.189,-0.261807,0.0,0.0
174,43.25,44.8999,47.2456,134.131,103.786,106.174,0.000857242,0.0440861,21.0007,561.189,-0.205756,0.0,0.0
176,43.75,44.6552,47.9968,136.057,103.807,106.857,0.000863112,0.0438945,21.0007,561.189,-0.261938,0.0,0.0
178,44.25,44.211,47.891,134.279,103.822,106.865,0.000867867,0.0437393,21.0008,561.169,-0.261245,0.0,0.0
180,44.75,44.7307,47.6755,137.683,103.835,107.298,0.000855097,0.0435872,21.0008,561.148,-0.296768,0.0,0.0
182,45.25,44.3884,47.6518,135.639,103.822,106.873,0.000829794,0.0434639,21.0008,561.169,-0.261992,0.0,0.0
184,45.75,44.3014,47.2785,136.905,103.841,107.285,0.000794607,0.043364,21.0009,561.159,-0.295153,0.0,0.0
186,46.25,44.4801,47.6068,132.359,103.838,107.407,0.000752884,0.0432559,21.0013,561.128,-0.305696,0.0,0.0
188,46.75,44.1935,47.2928,136.305,103.85,106.705,0.000719088,0.0431683,21.0017,561.108,-0.24532,0.0,0.0
190,47.25,44.4798,47.3199,137.263,103.856,107.032,0.000674482,0.043083,21.002,561.128,-0.272481,0.0,0.0
192,47.75,44.2804,47.1967,132.566,103.867,106.839,0.000622843,0.043001,21.0022,561.128,-0.255135,0.0,0.0
194,48.25,44.1847,47.1905,132.229,103.868,107.301,0.000573362,0.0429346,21.0024,561.148,-0.294132,0.0,0.0
196,48.75,44.2458,47.1933,134.422,103.879,107.105,0.000526394,0.0428808,21.0026,561.128,-0.276709,0.0,0.0
198,49.25,44.1373,46.8413,137.16,103.891,106.236,0.000483886,0.0428372,21.0027,561.179,-0.201941,0.0,0.0
200,49.75,44.3197,47.664,136.285,103.899,106.775,0.000445438,0.0427746,21.0028,561.179,-0.246973,0.0,0.0
202,50.25,44.3941,47.3205,135.958,103.899,107.665,0.00041302,0.042724,21.0029,561.148,-0.322063,0.0,0.0
204,50.75,43.8703,47.2827,136.305,103.92,107.151,0.000385615,0.0426829,21.0029,561.179,-0.27688,0.0,0.0
206,51.25,44.084,47.0111,133.094,103.923,105.727,0.000366604,0.0426769,21.003,561.179,-0.155619,0.0,0.0
208,51.75,44.0316,46.7551,135.309,103.95,107.4,0.000354073,0.0426721,21.003,561.189,-0.29532,0.0,0.0
210,52.25,43.5829,46.5884,134.835,103.947,106.546,0.000343924,0.0426545,21.0031,561.199,-0.223382,0.0,0.0
212,52.75,43.9354,46.6443,133.176,103.957,107.685,0.000357515,0.0426403,21.0031,561.199,-0.318707,0.0,0.0
214,53.25,43.972,47.0318,135.923,103.967,106.635,0.000368523,0.0426288,21.0031,561.179,-0.229243,0.0,0.0
216,53.75,44.0165,46.7756,134.059,103.971,106.693,0.000393395,0.0426194,21.0032,561.208,-0.233734,0.0,0.0
218,54.25,43.7619,46.7195,133.524,103.982,107.466,0.000427902,0.0425983,21.0032,561.229,-0.298167,0.0,0.0
220,54.75,43.9737,46.299,139.864,104.002,107.87,0.000460962,0.0425381,21.0032,561.259,-0.330291,0.0,0.0
222,55.25,43.4841,46.5317,135.564,103.988,107.413,0.000492338,0.0424506,21.0032,561.189,-0.293106,0.0,0.0
224,55.75,43.9129,46.671,138.149,104.032,106.983,0.000517753,0.0423797,21.0032,561.118,-0.253084,0.0,0.0
226,56.25,43.4778,46.7469,133.432,104.014,107.228,0.000531058,0.0423223,21.0032,561.128,-0.275242,0.0,0.0
228,56.75,43.6143,46.8101,134.55,104.036,107.249,0.000541836,0.0422758,21.0032,561.128,-0.275099,0.0,0.0
230,57.25,43.7979,46.4017,136.976,104.039,106.539,0.000533585,0.0422812,21.0032,561.088,-0.214775,0.0,0.0
232,57.75,43.5568,46.5492,131.867,104.07,106.805,0.000526901,0.0423243,21.0037,561.118,-0.234645,0.0,0.0
234,58.25,43.4919,47.1312,134.5,104.056,106.818,0.000512999,0.042352,21.004,561.118,-0.236886,0.0,0.0
236,58.75,43.3822,46.6815,134.899,104.065,106.722,0.000501739,0.042368,21.0041,561.148,-0.227986,0.0,0.0
238,59.25,43.3075,46.4569,134.907,104.083,107.47,0.000495043,0.0423666,21.0039,561.169,-0.289661,0.0,0.0
240,59.75,43.1889,46.9601,135.934,104.099,107.342,0.000489619,0.0423526,21.0038,561.199,-0.277518,0.0,0.0
242,60.25,43.414,46.859,136.908,104.107,107.448,0.000485226,0.0423412,21.0041,561.148,-0.285725,0.0,0.0
244,60.75,43.075,46.5642,137.105,104.132,107.894,0.000492581,0.0422911,21.0044,561.098,-0.321081,0.0,0.0
246,61.25,43.5657,46.2384,133.253,104.132,108.104,0.000498539,0.0422506,21.0042,561.169,-0.338636,0.0,0.0
248,61.75,43.467,46.4346,137.243,104.149,106.51,0.000504578,0.0421768,21.004,561.118,-0.202772,0.0,0.0
250,62.25,43.691,46.2788,136.693,104.147,107.749,0.000509469,0.0421171,21.0038,561.108,-0.307531,0.0,0.0
252,62.75,43.3624,45.8275,132.93,104.172,107.22,0.000514106,0.0420687,21.0037,561.118,-0.260799,0.0,0.0
254,63.25,43.5147,46.2383,135.225,104.172,107.352,0.000518468,0.0420295,21.0035,561.078,-0.271952,0.0,0.0
256,63.75,43.6234,46.0864,136.602,104.184,107.357,0.00052711,0.0419978,21.0033,561.118,-0.271356,0.0,0.0
258,64.25,43.2784,45.8776,135.324,104.181,106.979,0.000538706,0.0419993,21.0031,561.128,-0.239727,0.0,0.0
260,64.75,43.4392,46.4723,135.199,104.21,107.579,0.000555763,0.0420005,21.003,561.159,-0.28778,0.0,0.0
262,65.25,43.4852,45.9932,139.59,104.215,107.023,0.000576477,0.0419871,21.0029,561.118,-0.240459,0.0,0.0
264,65.75,43.0188,45.8924,135.202,104.233,107.715,0.000593256,0.0419763,21.0028,561.078,-0.297226,0.0,0.0
266,66.25,42.9067,46.3147,135.486,104.242,107.084,0.000606846,0.0419539,21.0027,561.068,-0.243307,0.0,0.0
268,66.75,43.1751,46.0678,138.212,104.259,107.403,0.000627565,0.0419357,21.0026,561.128,-0.26871,0.0,0.0
270,67.25,42.8801,46.1469,138.674,104.266,108.027,0.000644347,0.0419282,21.0026,561.058,-0.320536,0.0,0.0
272,67.75,42.9835,46.2664,135.38,104.272,106.991,0.00065794,0.0419285,21.0025,561.098,-0.232831,0.0,0.0
274,68.25,42.8783,45.7449,137.808,104.296,106.836,0.000684737,0.0419288,21.0024,561.108,-0.217692,0.0,0.0
276,68.75,43.2823,46.1732,135.475,104.313,107.446,0.000706443,0.0419291,21.0027,561.098,-0.267699,0.0,0.0
278,69.25,43.0684,46.0789,135.189,104.324,107.521,0.000737387,0.0419292,21.003,561.108,-0.272984,0.0,0.0
280,69.75,42.7142,45.812,131.475,104.34,107.167,0.000762451,0.0419294,21.0032,561.108,-0.241839,0.0,0.0
282,70.25,42.8504,46.3331,134.754,104.353,107.19,0.000792475,0.0419295,21.0034,561.128,-0.242666,0.0,0.0
284,70.75,42.7165,45.8932,133.499,104.364,107.857,0.000816794,0.0419296,21.0036,561.118,-0.297787,0.0,0.0
286,71.25,43.3296,46.1387,136.458,104.372,108.148,0.000835277,0.0419297,21.0037,561.118,-0.32147,0.0,0.0
288,71.75,43.085,45.7117,136.499,104.387,108.149,0.000850248,0.0419434,21.0038,561.108,-0.320229,0.0,0.0
290,72.25,43.191,45.5987,138.779,104.387,107.641,0.000850224,0.0419473,21.0039,561.138,-0.277664,0.0,0.0
292,72.75,43.2064,45.6796,132.148,104.401,107.695,0.000850204,0.041944,21.004,561.108,-0.280958,0.0,0.0
294,73.25,43.1563,45.7575,134.396,104.401,107.167,0.000842481,0.0419414,21.004,561.118,-0.236601,0.0,0.0
296,73.75,42.5911,45.402,133.053,104.425,108.351,0.000829289,0.0419529,21.0041,561.108,-0.333861,0.0,0.0
298,74.25,42.924,45.6851,135.776,104.42,107.482,0.000818603,0.0419622,21.0042,561.128,-0.26149,0.0,0.0
300,74.75,42.7194,45.8604,134.474,104.45,107.267,0.00080228,0.0420106,21.0044,561.118,-0.240803,0.0,0.0
302,75.25,43.1694,45.6844,137.069,104.431,108.657,0.000782157,0.0420498,21.0045,561.078,-0.358824,0.0,0.0
304,75.75,42.9728,46.1474,136.169,104.445,108.797,0.000756914,0.0421106,21.0046,561.088,-0.369202,0.0,0.0
306,76.25,42.5361,45.5303,131.268,104.458,107.292,0.000728419,0.0421861,21.0047,561.048,-0.242152,0.0,0.0
308,76.75,42.8885,46.069,136.462,104.473,107.504,0.000705338,0.0422186,21.0048,561.078,-0.258681,0.0,0.0
310,77.25,42.8476,45.5389,137.993,104.477,107.502,0.000681789,0.042219,21.0049,561.118,-0.258161,0.0,0.0
312,77.75,42.4798,45.7185,133.864,104.486,107.284,0.000662714,0.0422194,21.0049,561.118,-0.239031,0.0,0.0
314,78.25,42.7702,45.8176,134.986,104.494,107.766,0.000659398,0.0422197,21.0049,561.118,-0.278926,0.0,0.0
316,78.75,42.8586,45.858,135.056,104.5,107.7,0.000656711,0.04222,21.005,561.098,-0.272862,0.0,0.0
318,79.25,42.7519,45.9213,134.583,104.507,108.702,0.000666674,0.0422273,21.005,561.078,-0.356032,0.0,0.0
320,79.75,42.9591,45.8781,135.754,104.528,107.178,0.000680739,0.0422398,21.005,561.058,-0.226453,0.0,0.0
322,80.25,42.874,45.4328,132.782,104.526,107.181,0.000686136,0.0422714,21.005,561.028,-0.226909,0.0,0.0
324,80.75,42.3559,45.8507,133.658,104.543,108.021,0.000695364,0.0423163,21.005,560.998,-0.296042,0.0,0.0
326,81.25,42.8733,45.4738,134.963,104.549,107.197,0.000707312,0.0423455,21.005,561.048,-0.226234,0.0,0.0
328,81.75,42.9288,45.5412,134.292,104.559,107.302,0.000721017,0.0423628,21.0051,561.078,-0.23431,0.0,0.0
330,82.25,42.6861,45.7144,136.194,104.565,107.274,0.000735953,0.0423624,21.0051,561.048,-0.231289,0.0,0.0
332,82.75,43.0432,45.1924,134.735,104.582,107.366,0.000751504,0.0423435,21.0051,561.088,-0.237601,0.0,0.0
334,83.25,43.2743,45.7729,133.366,104.582,107.312,0.0007641,0.0423384,21.0051,561.028,-0.233047,0.0,0.0
336,83.75,42.9415,45.6357,135.153,104.589,107.914,0.000786519,0.042357,21.0051,561.028,-0.28316,0.0,0.0
338,84.25,43.301,45.4347,138.169,104.6,107.993,0.000804679,0.0423721,21.0048,561.058,-0.288732,0.0,0.0
340,84.75,42.5502,45.01,139.794,104.595,107.663,0.000825144,0.0423914,21.0042,561.058,-0.261507,0.0,0.0
342,85.25,43.0684,45.3574,132.955,104.635,107.128,0.000846903,0.0424136,21.0038,561.068,-0.212958,0.0,0.0
344,85.75,42.6025,45.1012,132.417,104.619,107.586,0.000868365,0.0424315,21.0034,561.028,-0.252887,0.0,0.0
346,86.25,43.2104,45.404,137.824,104.641,108.647,0.000889205,0.0425142,21.0032,561.018,-0.339795,0.0,0.0
348,86.75,42.9905,45.7562,131.422,104.641,108.26,0.000906085,0.0425811,21.0029,561.018,-0.307589,0.0,0.0
350,87.25,42.2885,45.5205,135.594,104.666,107.886,0.000928269,0.0426755,21.0027,561.048,-0.274095,0.0,0.0
352,87.75,42.7405,45.3177,135.184,104.656,108.83,0.000946238,0.0427519,21.0026,561.078,-0.353744,0.0,0.0
354,88.25,42.8021,45.6664,135.418,104.68,107.965,0.000960792,0.0427593,21.0025,561.088,-0.279447,0.0,0.0
356,88.75,42.7357,45.1431,136.824,104.669,108.078,0.000981094,0.0427653,21.0024,561.078,-0.289914,0.0,0.0
358,89.25,42.6806,45.3175,137.031,104.687,108.496,0.000997539,0.042763,21.0023,561.058,-0.323239,0.0,0.0
360,89.75,41.7743,44.9896,131.865,104.677,108.113,0.00101086,0.0427546,21.0022,561.068,-0.292176,0.0,0.0
362,90.25,42.8876,45.4927,133.725,104.696,108.328,0.00101922,0.0427479,21.0022,561.048,-0.308407,0.0,0.0
364,90.75,42.4469,45.4715,139.272,104.688,107.412,0.00102599,0.0428106,21.0021,561.028,-0.23239,0.0,0.0
366,91.25,42.8784,45.4985,135.349,104.709,108.044,0.00102687,0.0428613,21.002,561.018,-0.283671,0.0,0.0
368,91.75,42.8272,45.5665,134.876,104.699,109.095,0.00102711,0.0428881,21.0019,561.018,-0.372019,0.0,0.0
370,92.25,42.7047,45.6111,133.252,104.706,108.055,0.0010263,0.0428969,21.0019,561.028,-0.284784,0.0,0.0
372,92.75,42.487,45.7601,127.434,104.714,108.469,0.00102564,0.042904,21.0018,561.058,-0.318725,0.0,0.0
374,93.25,42.9641,45.9413,133.713,104.711,108.411,0.00102635,0.0429097,21.0018,561.058,-0.314127,0.0,0.0
376,93.75,42.7691,45.5146,132.485,104.713,107.679,0.00102805,0.0429689,21.0017,561.199,-0.252647,0.0,0.0
378,94.25,42.763,45.2793,134.758,104.726,108.08,0.00102687,0.0430517,21.0017,561.028,-0.285173,0.0,0.0
380,94.75,42.683,45.6953,134.724,104.72,108.744,0.0010236,0.043083,21.0017,561.128,-0.34114,0.0,0.0
382,95.25,42.3153,45.2779,137.078,104.739,108.621,0.00102096,0.0431365,21.0018,561.028,-0.329188,0.0,0.0
384,95.75,42.8599,45.2657,132.049,104.725,108.574,0.00101983,0.0431799,21.0019,561.058,-0.326511,0.0,0.0
386,96.25,43.0905,45.8056,134.325,104.745,108.426,0.00100089,0.043215,21.002,561.048,-0.312411,0.0,0.0
388,96.75,42.9264,45.3069,132.572,104.741,108.675,0.000983621,0.0432224,21.0021,561.058,-0.333542,0.0,0.0
390,97.25,43.0326,45.8416,135.107,104.764,108.555,0.000967909,0.0432093,21.0021,561.048,-0.321529,0.0,0.0
392,97.75,42.8721,45.6279,135.51,104.731,108.352,0.000955183,0.0431987,21.0022,561.028,-0.307472,0.0,0.0
394,98.25,43.0919,45.4854,133.497,104.754,108.036,0.000954598,0.0431765,21.0022,561.048,-0.279065,0.0,0.0
396,98.75,43.181,45.36,138.816,104.759,108.33,0.000954124,0.0431671,21.0023,561.028,-0.303201,0.0,0.0
398,99.25,43.1478,45.011,136.572,104.754,108.722,0.000960778,0.0431939,21.0023,561.038,-0.336287,0.0,0.0
400,99.75,43.0958,45.3971,135.026,104.745,107.845,0.000972504,0.0432544,21.0023,560.998,-0.263751,0.0,0.0
402,100.25,43.1386,45.5783,133.841,104.775,107.937,0.000989297,0.0433035,21.0024,561.018,-0.268892,0.0,0.0
404,100.75,43.0282,45.0095,134.975,104.75,107.262,0.0010029,0.0433841,21.0024,560.998,-0.214421,0.0,0.0
406,101.25,43.0766,45.5194,135.909,104.777,108.346,0.00101456,0.0434493,21.0024,561.038,-0.302952,0.0,0.0
408,101.75,42.9407,45.4001,137.65,104.753,107.755,0.00102458,0.0435022,21.0024,560.998,-0.255588,0.0,0.0
410,102.25,43.0906,45.7687,134.884,104.776,108.029,0.00103269,0.0435451,21.002,561.008,-0.276541,0.0,0.0
412,102.75,42.3528,45.5373,136.692,104.782,107.783,0.00104695,0.0436013,21.0016,560.998,-0.255418,0.0,0.0
414,103.25,43.0343,45.5129,136.938,104.769,108.507,0.00106542,0.0436662,21.0013,560.998,-0.317166,0.0,0.0
416,103.75,42.7085,44.8021,133.394,104.773,107.476,0.00108873,0.0436915,21.0011,560.978,-0.230389,0.0,0.0
418,104.25,43.4153,45.5806,131.689,104.79,107.521,0.00111515,0.043712,21.0009,560.968,-0.232767,0.0,0.0
420,104.75,42.8066,45.795,132.255,104.779,107.684,0.00114359,0.0437286,21.0008,560.968,-0.247383,0.0,0.0
422,105.25,43.0069,46.1422,131.772,104.791,107.703,0.00117297,0.0437421,21.0007,560.998,-0.247963,0.0,0.0
424,105.75,42.871,45.2221,136.967,104.781,107.072,0.00119677,0.043753,21.0004,560.948,-0.195641,0.0,0.0
426,106.25,43.1732,45.5757,133.438,104.803,107.559,0.0012331,0.0437331,21.0002,560.958,-0.234773,0.0,0.0
428,106.75,42.5243,45.8544,135.059,104.78,108.579,0.00126253,0.0436912,21,560.938,-0.322155,0.0,0.0
430,107.25,43.0476,45.9119,132.988,104.797,108.081,0.00129733,0.0436496,20.9999,560.938,-0.279084,0.0,0.0
432,107.75,43.3773,45.1138,133.871,104.792,108.005,0.00132552,0.0436091,21,560.958,-0.273168,0.0,0.0
434,108.25,43.1015,45.7336,133.474,104.799,108.533,0.0013413,0.0435477,21.0003,560.978,-0.316712,0.0,0.0
436,108.75,43.2442,45.928,136.382,104.803,108.417,0.00134773,0.043472,21.0005,560.968,-0.306673,0.0,0.0
438,109.25,43.1341,45.9685,135.441,104.799,108.096,0.00135295,0.0434107,21.0007,561.008,-0.280112,0.0,0.0
440,109.75,42.631,45.7347,138.746,104.807,108.371,0.0013405,0.0433475,21.0009,560.978,-0.3025,0.0,0.0
442,110.25,43.2126,45.1818,133.47,104.829,108.552,0.00131543,0.0432962,21.001,560.998,-0.315711,0.0,0.0
444,110.75,43.1915,45.4705,133.95,104.808,108.038,0.00129512,0.0432138,21.0011,560.998,-0.274512,0.0,0.0
446,111.25,42.9406,45.3288,135.53,104.809,108.646,0.00127258,0.0431471,21.0012,560.938,-0.325226,0.0,0.0
448,111.75,42.7532,45.7121,135.815,104.828,107.966,0.00125432,0.043093,21.0013,560.968,-0.266752,0.0,0.0
450,112.25,43.3165,45.4747,130.646,104.822,107.857,0.0012371,0.043022,21.0013,560.968,-0.258165,0.0,0.0
452,112.75,43.1033,45.3497,135.777,104.826,107.821,0.00122316,0.0429644,21.0014,560.968,-0.254829,0.0,0.0
454,113.25,43.552,45.4224,133.695,104.824,108.219,0.00121186,0.0429178,21.0014,560.958,-0.288317,0.0,0.0
456,113.75,43.0374,45.5088,133.983,104.83,108.214,0.00119419,0.04288,21.0015,560.948,-0.287418,0.0,0.0
458,114.25,42.9907,45.7213,136.023,104.843,107.871,0.00117988,0.0428495,21.0017,560.958,-0.257475,0.0,0.0
460,114.75,42.8331,45.5343,134.145,104.821,107.122,0.00116188,0.0427974,21.0018,560.958,-0.196423,0.0,0.0
462,115.25,42.8656,45.0647,136.813,104.831,107.234,0.00114154,0.0427553,21.0019,560.968,-0.205023,0.0,0.0
464,115.75,42.9034,45.3051,134.233,104.827,107.675,0.00112379,0.0427211,21.0019,560.968,-0.242554,0.0,0.0
466,116.25,42.5639,44.9422,139.376,104.83,108.224,0.00110826,0.0426526,21.002,560.988,-0.288162,0.0,0.0
468,116.75,42.9419,45.1752,134.409,104.829,106.9,0.00109568,0.0425971,21.002,560.968,-0.176913,0.0,0.0
470,117.25,43.4471,45.0168,135.415,104.837,107.36,0.00108805,0.0425378,21.0021,560.938,-0.215111,0.0,0.0
472,117.75,42.8967,45.5961,131.821,104.848,109.217,0.00108417,0.0424768,21.0021,560.938,-0.369288,0.0,0.0
474,118.25,42.4392,45.5227,134.279,104.833,108.162,0.00108103,0.0424274,21.0021,560.938,-0.282728,0.0,0.0
476,118.75,42.8749,45.6521,138.501,104.85,107.915,0.00108457,0.0424147,21.0022,560.948,-0.260601,0.0,0.0
478,119.25,42.8286,45.5328,132.911,104.839,108.204,0.00108744,0.0424044,21.0022,560.938,-0.285798,0.0,0.0
480,119.75,42.8544,45.3618,135.487,104.847,108.094,0.00109097,0.0424032,21.0022,560.958,-0.275835,0.0,0.0
482,120.25,43.0308,45.4934,131.878,104.84,107.885,0.00109,0.0424087,21.0022,560.948,-0.258901,0.0,0.0
484,120.75,43.3124,45.4781,134.14,104.843,107.957,0.00108575,0.0424131,21.0022,560.948,-0.26481,0.0,0.0
486,121.25,43.0322,45.0644,134.008,104.836,108.848,0.00107399,0.0424304,21.0022,560.958,-0.339667,0.0,0.0
488,121.75,43.3199,45.234,133.711,104.851,108.386,0.00105698,0.0424443,21.0022,560.938,-0.299951,0.0,0.0
490,122.25,43.2748,45.457,134.416,104.837,108.651,0.00102976,0.0424284,21.0022,560.908,-0.323206,0.0,0.0
492,122.75,43.2182,45.3812,134.552,104.848,107.365,0.000995632,0.0424155,21.0022,560.928,-0.214595,0.0,0.0
494,123.25,43.2555,45.5255,133.437,104.85,108.917,0.000967985,0.0423777,21.0022,560.948,-0.344228,0.0,0.0
496,123.75,43.2082,45.8431,133.561,104.846,107.833,0.000936002,0.0423472,21.0022,560.938,-0.254056,0.0,0.0
498,124.25,43.3808,45.7043,134.693,104.841,107.495,0.000901466,0.0423224,21.0022,560.908,-0.22616,0.0,0.0
500,124.75,43.0536,45.5385,133.333,104.851,108.16,0.000876012,0.0423024,21.0022,560.918,-0.28104,0.0,0.0
502,125.25,42.9016,45.3868,131.833,104.846,108.041,0.000857664,0.0423134,21.0022,560.928,-0.271503,0.0,0.0
504,125.75,42.7177,45.0901,134.688,104.857,107.77,0.000842801,0.0423223,21.0022,560.938,-0.247792,0.0,0.0
506,126.25,43.0982,45.4417,131.522,104.858,109.078,0.000835621,0.0423081,21.0024,560.918,-0.356908,0.0,0.0
508,126.75,43.345,45.4451,135.21,104.86,108.106,0.000829806,0.0422771,21.0025,560.918,-0.275719,0.0,0.0
510,127.25,43.7088,45.2588,131.477,104.86,108.204,0.000820236,0.0422377,21.0026,560.938,-0.283938,0.0,0.0
512,127.75,43.4887,45.5752,135.005,104.86,108.238,,0.0421929,,560.948,-0.286777,0.0,0.0
514,128.25,42.857,45.2918,134.739,104.854,108.237,,0.0421566,,560.928,-0.287285,0.0,0.0
516,128.75,43.4467,45.2727,134.567,104.862,108.401,,0.0421552,,560.908,-0.300208,0.0,0.0
518,129.25,43.2159,45.5934,134.91,104.868,108.354,,0.0421541,,560.918,-0.295808,0.0,0.0
520,129.75,42.8445,45.6874,130.87,104.866,108.717,,0.0421395,,560.898,-0.326231,0.0,0.0
522,130.25,43.4328,45.5493,132.299,104.849,108.245,,0.0421278,,560.888,-0.288348,0.0,0.0
524,130.75,43.0835,45.1708,135.459,104.867,108.176,,,,560.878,-0.280979,0.0,0.0
526,131.25,43.4653,45.4998,134.423,104.851,108.623,,,,560.908,-0.319752,0.0,0.0
528,131.75,43.3615,45.4825,133.502,104.879,106.965,,,,560.908,-0.178203,0.0,0.0
530,132.25,43.376,45.433,133.213,104.87,107.768,,,,560.918,-0.246618,0.0,0.0
532,132.75,43.0957,45.1368,135.792,104.867,108.356,,,,560.908,-0.296078,0.0,0.0
534,133.25,42.9024,45.2895,134.006,104.873,108.771,,,,560.898,-0.330068,0.0,0.0
536,133.75,42.8327,45.7396,135.768,104.877,107.887,,,,560.898,-0.256,0.0,0.0
538,134.25,43.9343,45.8132,132.017,104.865,108.202,,,,560.848,-0.283418,0.0,0.0
540,134.75,43.0156,45.0882,135.909,104.876,108.612,,,,560.868,-0.316557,0.0,0.0
542,135.25,43.3758,45.187,132.323,104.862,108.104,,,,560.898,-0.275342,0.0,0.0
544,135.75,42.8994,45.4563,133.016,104.881,107.55,,,,560.868,-0.22728,0.0,0.0
546,136.25,43.2798,45.62,137.081,104.861,108.457,,,,560.918,-0.30498,0.0,0.0
548,136.75,43.1499,45.7837,134.163,104.881,109.171,,,,560.898,-0.362549,0.0,0.0
550,137.25,43.2198,45.4544,133.214,104.855,108.582,,,,560.898,-0.315973,0.0,0.0
552,137.75,42.9992,45.3801,136.457,104.87,107.549,,,,560.888,-0.228225,0.0,0.0
554,138.25,42.8486,45.3833,133.949,104.877,108.433,,,,560.888,-0.301614,0.0,0.0