File: 01_Data/Hemp_Sheet/Cone/Hemp_Sheet_Cone_HF50Scan_220524_R1.csv
Names,Time,Stack TC,Smoke TC,Exh Press,Smoke Comp,Smoke Meas,CO Meter,CO2 Meter,O2 Meter,Sample Mass,Ext Coeff,Start Test,Flame Verif
Chan Gain,,500,500,1,1,1,1,1,1,1,1,1.0,1.0
Offset,,0,0,0.139323,0,0,0,0,0,0,0,0.0,0.0
Gain,,1,1,25.011,13.8491,15.2622,1,1,1,1.00087,1.03118,1.0,1.0
Units,sec,C,C,Pa,%,%,%,%,%,g,/m,,
Baseline,,35.9197,37.2014,139.422,105.533,107.273,0.000242714,0.0414614,21.0019,-452.562,-0.147843,,
2,0.25,33.0189,34.8013,140.349,105.217,106.609,0.000320878,0.0473822,20.9907,563.16,-0.118906,0.0,0.0
4,0.75,32.0548,33.6005,144.821,105.201,106.214,0.000310092,0.047738,20.9892,562.97,-0.0867165,0.0,0.0
6,1.25,31.3303,32.5834,136.863,105.214,106.561,0.000305945,0.0480262,20.9871,563.01,-0.115093,0.0,0.0
8,1.75,31.6025,32.5309,137.318,105.204,106.341,0.000323637,0.0482733,20.9855,563.07,-0.0972813,0.0,0.0
10,2.25,31.2688,32.4646,138.891,105.229,106.144,0.000356912,0.0484735,20.9811,562.93,-0.0783266,0.0,0.0
12,2.75,31.4118,32.5109,136.608,105.205,106.083,0.000383865,0.0502504,20.9775,563.04,-0.0751565,0.0,0.0
14,3.25,31.3095,32.7194,140.595,105.221,105.649,0.000469627,0.0516897,20.9746,562.92,-0.0367293,0.0,0.0
16,3.75,31.6914,32.4553,133.526,105.217,103.893,0.000650776,0.0624145,20.9614,562.84,0.114546,0.0,0.0
18,4.25,31.9973,33.0701,138.409,105.227,104.81,0.000699505,0.0711016,20.941,562.86,0.0359267,0.0,0.0
20,4.75,32.154,33.0231,132.048,105.225,110.323,0.000912034,0.0995834,20.9245,562.8,-0.427938,0.0,1.0
22,5.25,31.6192,33.062,117.813,105.239,110.233,0.00108418,0.122654,20.874,562.65,-0.419328,0.0,1.0
24,5.75,31.8599,33.2464,119.112,105.224,110.361,0.00128348,0.160614,20.8331,562.49,-0.431104,0.0,1.0
26,6.25,32.7781,33.3587,104.223,105.258,110.317,0.00149879,0.208707,20.7575,562.34,-0.424647,0.0,1.0
28,6.75,33.4232,33.684,99.111,105.229,110.734,0.00171642,0.247663,20.6963,562.229,-0.461232,0.0,1.0
30,7.25,34.4084,33.9821,102.25,105.242,110.45,0.00193162,0.317645,20.6441,562.179,-0.436903,0.0,1.0
32,7.75,35.6493,34.5069,107.099,105.242,110.802,0.00213373,0.374331,20.6018,561.969,-0.465733,0.0,1.0
34,8.25,37.6045,35.5212,111.343,105.257,110.183,0.00232247,0.423945,20.5676,561.929,-0.413714,0.0,1.0
36,8.75,38.9087,36.3392,109.35,105.242,108.981,0.00249217,0.46746,20.5398,561.789,-0.315754,0.0,1.0
38,9.25,40.5684,37.4475,114.996,105.264,105.477,0.00264477,0.496531,20.5174,561.789,-0.0182542,0.0,1.0
40,9.75,40.1359,36.9563,117.169,105.251,106.771,0.00276838,0.514519,20.4992,561.719,-0.129667,0.0,0.0
42,10.25,40.9149,37.825,126.415,105.279,107.514,0.00290416,0.519706,20.4964,561.709,-0.190028,0.0,0.0
44,10.75,41.652,38.3324,126.117,105.258,110.424,0.00304621,0.515463,20.5049,561.679,-0.433386,0.0,0.0
46,11.25,41.7019,39.3811,130.184,105.266,108.845,0.00320349,0.503439,20.5118,561.659,-0.302499,0.0,0.0
48,11.75,42.5863,39.6375,127.535,105.264,110.09,0.00336888,0.48597,20.5264,561.619,-0.405408,0.0,0.0
50,12.25,42.7166,40.0226,127.835,105.293,108.82,0.00350285,0.471821,20.5462,561.559,-0.298084,0.0,0.0
52,12.75,43.0243,40.5418,132.846,105.274,108.48,0.0037235,0.444435,20.5623,561.569,-0.271376,0.0,0.0
54,13.25,42.9387,40.8208,133.552,105.292,108.304,0.00400315,0.422252,20.5895,561.509,-0.255083,0.0,0.0
56,13.75,43.2411,41.2597,134.048,105.278,108.758,0.00430894,0.397963,20.6115,561.589,-0.294241,0.0,0.0
58,14.25,42.7975,41.0754,135.898,105.303,108.066,0.00462796,0.372601,20.6369,561.529,-0.234239,0.0,0.0
60,14.75,42.7141,41.2909,133.833,105.294,107.55,0.00488638,0.352057,20.6643,561.539,-0.191773,0.0,0.0
62,15.25,42.8233,41.8858,137.007,105.307,108.296,0.0052694,0.32945,20.6865,561.499,-0.253226,0.0,0.0
64,15.75,42.1646,41.2579,133.08,105.295,107.845,0.00557965,0.305767,20.7136,561.489,-0.216431,0.0,0.0
66,16.25,42.4826,41.8211,135.824,105.328,107.528,0.00590229,0.283782,20.7357,561.509,-0.187031,0.0,0.0
68,16.75,42.529,41.4865,133.267,105.31,108.185,0.00622784,0.263451,20.7606,561.499,-0.243633,0.0,0.0
70,17.25,42.3182,41.7357,137.352,105.341,108.173,0.00649154,0.246984,20.7809,561.509,-0.239973,0.0,0.0
72,17.75,42.4848,41.9726,137.728,105.319,107.199,0.00678191,0.22878,20.7998,561.529,-0.160047,0.0,0.0
74,18.25,41.521,41.9512,136.628,105.351,107.492,0.0070171,0.214035,20.8174,561.529,-0.181942,0.0,0.0
76,18.75,42.116,41.6664,139.024,105.34,107.573,0.00721769,0.202092,20.8337,561.499,-0.189779,0.0,0.0
78,19.25,41.705,41.7901,136.317,105.381,106.573,0.00738017,0.188682,20.8488,561.469,-0.101776,0.0,0.0
80,19.75,42.2101,41.1435,138.042,105.36,107.108,0.00749414,0.17782,20.8622,561.459,-0.148862,0.0,0.0
82,20.25,42.2713,41.4991,135.678,105.376,107.674,0.00758645,0.166323,20.8741,561.429,-0.195147,0.0,0.0
84,20.75,41.2328,41.5033,141.644,105.369,106.607,0.0076373,0.15701,20.8837,561.419,-0.105717,0.0,0.0
86,21.25,41.2969,41.5405,139.862,105.385,106.657,0.00767849,0.1483,20.8936,561.419,-0.10853,0.0,0.0
88,21.75,41.1577,41.2265,141.029,105.378,107.118,0.00768669,0.140193,20.9024,561.459,-0.148204,0.0,0.0
90,22.25,40.3187,41.2248,139.678,105.398,107.246,0.00767069,0.132943,20.9101,561.469,-0.157194,0.0,0.0
92,22.75,40.5337,41.1556,137.793,105.383,106.656,0.00758614,0.126455,20.9171,561.469,-0.108592,0.0,0.0
94,23.25,40.5882,41.0084,133.511,105.42,107.284,0.00751765,0.120664,20.9233,561.409,-0.158565,0.0,0.0
96,23.75,39.3419,40.1509,138.933,105.411,107.301,0.00746217,0.115492,20.9284,561.359,-0.160704,0.0,0.0
98,24.25,38.2702,39.4324,136.117,105.415,106.783,0.00736863,0.110798,20.9329,561.349,-0.116613,0.0,0.0
100,24.75,38.521,39.194,138.541,105.427,106.804,0.00720868,0.106541,20.9351,561.329,-0.117333,0.0,0.0
102,25.25,38.4645,39.5501,135.726,105.444,107.079,0.00695426,0.102589,20.9388,561.309,-0.139166,0.0,0.0
104,25.75,37.3019,37.836,134.637,105.454,107.308,0.00684189,0.0989348,20.9431,561.319,-0.157673,0.0,0.0
106,26.25,37.8628,38.7199,142.05,105.458,107.121,0.00664974,0.0954506,20.9466,561.359,-0.14151,0.0,0.0
108,26.75,36.9611,38.2312,139.127,105.455,107.235,0.00642665,0.0921564,20.9498,561.369,-0.151358,0.0,0.0
110,27.25,36.4648,38.0151,138.195,105.475,107.712,0.00618525,0.090752,20.9527,561.419,-0.189797,0.0,0.0
112,27.75,36.8494,37.9162,139.333,105.479,106.695,0.00588677,0.0883505,20.9558,561.359,-0.103639,0.0,0.0
114,28.25,36.4281,37.7093,140.095,105.491,107.146,0.005645,0.0838829,20.9589,561.339,-0.14081,0.0,0.0
116,28.75,36.549,38.5407,140.755,105.497,106.661,0.00534033,0.0826811,20.9621,561.379,-0.0991977,0.0,0.0
118,29.25,37.0208,37.7541,137.241,105.502,107.045,0.00509354,0.0801327,20.9653,561.339,-0.131292,0.0,0.0
120,29.75,36.2194,37.9844,136.115,105.507,106.635,0.00478881,0.0776245,20.9684,561.329,-0.0961522,0.0,0.0
122,30.25,36.9459,37.5806,138.558,105.518,107.047,0.00454199,0.0752095,20.9713,561.369,-0.130112,0.0,0.0
124,30.75,36.6648,37.5181,135.167,105.522,106.839,0.00434205,0.0729082,20.9736,561.349,-0.112176,0.0,0.0
126,31.25,36.0077,37.5981,137.223,105.529,106.879,0.00405102,0.0706974,20.976,561.359,-0.114987,0.0,0.0
128,31.75,35.9176,37.4558,139.026,105.545,107.125,0.00381528,0.0685945,20.9783,561.359,-0.134399,0.0,0.0
130,32.25,35.8013,37.8574,143.013,105.546,106.231,0.00343276,0.066581,20.9814,561.359,-0.0585024,0.0,0.0
132,32.75,35.5558,37.4222,138.685,105.54,107.215,0.00332986,0.0646708,20.9823,561.369,-0.142461,0.0,0.0
134,33.25,36.0658,36.9975,137.782,105.545,106.775,0.00307561,0.0628209,20.9844,561.399,-0.104815,0.0,0.0
136,33.75,35.7476,38.1763,138.072,105.564,107.062,0.00286966,0.06105,20.9864,561.409,-0.127495,0.0,0.0
138,34.25,36.2631,37.3054,135.218,105.579,107.729,0.00264666,0.0596157,20.9881,561.419,-0.182329,0.0,0.0
140,34.75,35.5225,37.2484,138.894,105.582,107.09,0.00246604,0.0580298,20.9899,561.419,-0.128299,0.0,0.0
142,35.25,35.399,37.3422,137.292,105.577,107.8,0.00231973,0.0561976,20.9917,561.369,-0.188531,0.0,0.0
144,35.75,34.839,37.1065,139.005,105.585,106.971,0.00207269,0.0555321,20.9936,561.389,-0.117969,0.0,0.0
146,36.25,35.3059,36.9798,143.129,105.593,106.893,0.00192311,0.0543941,20.9942,561.379,-0.110704,0.0,0.0
148,36.75,35.3766,36.9756,134.832,105.598,107.425,0.00185934,0.0533141,20.9945,561.369,-0.155129,0.0,0.0
150,37.25,35.3526,36.9739,139.445,105.592,107.926,0.00170649,0.052297,20.9951,561.359,-0.197774,0.0,0.0
152,37.75,35.4832,37.0371,139.759,105.615,106.66,0.00152989,0.0514731,20.9962,561.349,-0.0890531,0.0,0.0
154,38.25,35.4691,37.2715,140.079,105.594,107.913,0.00139831,0.0506693,20.9967,561.329,-0.196535,0.0,0.0
156,38.75,34.856,37.155,138.596,105.614,107.531,0.00134221,0.0495653,20.997,561.349,-0.162724,0.0,0.0
158,39.25,34.6054,36.7866,136.192,105.604,107.376,0.00123414,0.0488236,20.9974,561.339,-0.150464,0.0,0.0
160,39.75,34.98,37.1965,139.658,105.627,107.582,0.00113567,0.0485075,20.9981,561.379,-0.165839,0.0,0.0
162,40.25,34.6153,36.9464,141.323,105.614,107.297,0.00104633,0.0479668,20.9988,561.339,-0.142999,0.0,0.0
164,40.75,34.4914,36.8333,137.682,105.631,107.512,0.000965342,0.0471921,20.9992,561.359,-0.159636,0.0,0.0
166,41.25,34.9485,36.4627,136.091,105.635,107.412,0.000898463,0.0467513,20.9997,561.379,-0.150885,0.0,0.0
168,41.75,34.5483,36.448,141.787,105.633,106.876,0.000843143,0.0465634,21,561.369,-0.105807,0.0,0.0
170,42.25,34.6455,36.4763,139.255,105.629,107.588,0.000804081,0.0461329,21.0002,561.359,-0.166241,0.0,0.0
172,42.75,34.4265,36.5947,139.825,105.646,107.226,0.000777615,0.0457627,21.0005,561.339,-0.134313,0.0,0.0
174,43.25,33.9045,36.2686,137.837,105.635,107.4,0.000762246,0.0454434,21.0006,561.399,-0.149898,0.0,0.0
176,43.75,34.5698,36.6463,138.301,105.653,107.434,0.000749797,0.0451705,21.0008,561.359,-0.151208,0.0,0.0
178,44.25,34.1581,36.2323,137.17,105.639,108.147,0.000739713,0.0449365,21.0009,561.349,-0.212204,0.0,0.0
180,44.75,34.1661,36.3917,140.416,105.66,107.627,0.000715768,0.0447111,21.001,561.379,-0.166775,0.0,0.0
182,45.25,34.4052,36.0401,135.7,105.665,107.981,0.000696372,0.0444962,21.0011,561.379,-0.196041,0.0,0.0
184,45.75,33.3542,35.8663,137.253,105.666,107.555,0.000673638,0.0442862,21.0011,561.339,-0.160237,0.0,0.0
186,46.25,33.7932,35.4814,137.591,105.672,107.013,0.000648903,0.0440839,21.0012,561.369,-0.114059,0.0,0.0
188,46.75,34.0368,35.8866,134.913,105.684,106.881,0.000628867,0.04392,21.0012,561.399,-0.101859,0.0,0.0
190,47.25,33.6734,36.0034,137.491,105.67,107.611,0.000607717,0.0437463,21.0012,561.399,-0.164612,0.0,0.0
192,47.75,33.6905,35.8752,139.789,105.698,107.317,0.000590586,0.0436057,21.0013,561.349,-0.137489,0.0,0.0
194,48.25,33.9811,36.0827,135.89,105.683,107.531,0.000587627,0.0434487,21.0014,561.399,-0.156829,0.0,0.0
196,48.75,34.0522,35.644,138.506,105.694,107.68,0.00058523,0.0432828,21.0015,561.409,-0.168381,0.0,0.0
198,49.25,33.9241,35.6632,138.825,105.686,107.106,0.000586481,0.0431484,21.0017,561.409,-0.120737,0.0,0.0
200,49.75,33.6106,35.7444,136.428,105.703,107.053,0.000590368,0.0430267,21.0018,561.359,-0.11484,0.0,0.0
202,50.25,34.0845,36.0241,138.759,105.708,107.423,0.000581385,0.0429282,21.0021,561.429,-0.145561,0.0,0.0
204,50.75,33.5392,35.3943,143.164,105.722,108.307,0.000574109,0.0428074,21.0026,561.399,-0.218466,0.0,0.0
206,51.25,33.5523,35.6549,140.813,105.712,107.681,0.000568216,0.0427097,21.0029,561.389,-0.166901,0.0,0.0
208,51.75,33.5946,35.5472,136.514,105.723,107.685,0.000528283,0.0426018,21.003,561.399,-0.166349,0.0,0.0
210,52.25,33.409,35.6047,139.41,105.718,107.388,0.000495938,0.0424885,21.0029,561.419,-0.14179,0.0,0.0
212,52.75,33.6689,35.4834,135.731,105.729,107.397,0.000441879,0.0423968,21.0027,561.389,-0.141596,0.0,0.0
214,53.25,33.5498,36.0302,138.835,105.714,107.18,0.000398091,0.0423225,21.0026,561.399,-0.124563,0.0,0.0
216,53.75,33.0787,35.4912,137.039,105.739,107.772,0.000340834,0.042248,21.0026,561.399,-0.172252,0.0,0.0
218,54.25,33.1951,35.282,136.36,105.722,107.688,0.000294456,0.0421748,21.0025,561.369,-0.166657,0.0,0.0
220,54.75,33.5055,35.1448,141.056,105.74,107.08,0.00025326,0.0421154,21.0024,561.389,-0.113901,0.0,0.0
222,55.25,33.6827,35.4537,140.007,105.722,107.584,0.000219891,0.042081,21.0024,561.399,-0.157928,0.0,0.0
224,55.75,33.8043,35.2961,137.742,105.744,107.763,0.000194072,0.0420531,21.0024,561.399,-0.171073,0.0,0.0
226,56.25,33.0169,35.275,136.734,105.731,107.574,0.000173158,0.0420305,21.0023,561.409,-0.156313,0.0,0.0
228,56.75,33.5488,34.8085,138.295,105.739,107.571,0.000154945,0.0420122,21.0023,561.409,-0.155313,0.0,0.0
230,57.25,33.2526,35.4053,136.277,105.731,107.386,0.000139046,0.0419973,21.0023,561.409,-0.140548,0.0,0.0
232,57.75,33.2146,35.2504,135.428,105.749,107.747,0.000126168,0.0419853,21.0023,561.409,-0.169309,0.0,0.0
234,58.25,33.3999,34.7917,137.463,105.731,107.568,0.000115736,0.0419684,21.0023,561.439,-0.155803,0.0,0.0
236,58.75,33.4273,35.1972,141.231,105.751,107.672,0.000107287,0.0419483,21.0023,561.409,-0.162831,0.0,0.0
238,59.25,32.6963,35.4395,137.796,105.738,107.753,8.11588e-05,0.0419105,21.0024,561.429,-0.170797,0.0,0.0
240,59.75,32.214,34.9539,139.128,105.761,107.341,5.9995e-05,0.0418605,21.0026,561.399,-0.134064,0.0,0.0
242,60.25,32.7892,35.2279,138.617,105.754,107.634,3.1967e-05,0.04182,21.0027,561.369,-0.159369,0.0,0.0
244,60.75,32.936,35.3113,140.642,105.756,108.024,9.26436e-06,0.0417871,21.0028,561.399,-0.192006,0.0,0.0
246,61.25,32.2992,34.9295,138.648,105.745,107.518,-2.12196e-05,0.041753,21.0029,561.389,-0.150379,0.0,0.0
248,61.75,33.0624,35.061,136.456,105.772,107.86,-4.59116e-05,0.0417185,21.003,561.409,-0.176854,0.0,0.0
250,62.25,33.2203,34.704,135.538,105.748,107.856,-7.92159e-05,0.0416906,21.0031,561.379,-0.178527,0.0,0.0
252,62.75,33.1518,34.6897,134.98,105.755,107.295,-0.000106192,0.0416543,21.0031,561.389,-0.130798,0.0,0.0
254,63.25,33.2639,35.2967,139.863,105.746,107.889,-0.00013651,0.041625,21.0031,561.409,-0.181481,0.0,0.0
256,63.75,32.596,34.9706,135.869,105.75,107.515,-0.000161067,0.041594,21.0032,561.419,-0.149708,0.0,0.0
258,64.25,32.7704,35.0756,140.066,105.755,106.693,-0.000173702,0.0415625,21.0032,561.429,-0.0799207,0.0,0.0
260,64.75,33.0783,34.8684,137.898,105.76,107.394,-0.000183937,0.0415298,21.0032,561.399,-0.138682,0.0,0.0
262,65.25,32.0029,35.3497,136.857,105.751,107.799,-0.000192226,0.0414968,21.0032,561.379,-0.173546,0.0,0.0
264,65.75,32.74,34.5712,138.743,105.746,106.995,-0.000167494,0.0414701,21.0033,561.379,-0.106192,0.0,0.0
266,66.25,32.532,34.9129,137.114,105.743,107.12,-0.000147461,0.0414485,21.0033,561.379,-0.117031,0.0,0.0
268,66.75,32.4051,34.9633,140.399,105.738,107.345,-0.000104623,0.041431,21.0033,561.369,-0.136481,0.0,0.0
270,67.25,32.617,34.837,139.895,105.74,107.183,-6.99241e-05,0.0414168,21.0033,561.369,-0.122596,0.0,0.0
272,67.75,32.7419,34.495,138.362,105.739,106.752,-2.90775e-05,0.0413838,21.0033,561.329,-0.0862685,0.0,0.0
274,68.25,32.7722,34.4081,141.048,105.736,107.064,1.54748e-05,0.0413377,21.0033,561.339,-0.112928,0.0,0.0
276,68.75,32.8337,35.1104,138.51,105.739,108.018,5.15621e-05,0.0413004,21.0033,561.329,-0.192908,0.0,0.0
278,69.25,31.7532,34.6042,138.66,105.742,107.461,8.07928e-05,0.0412702,21.0033,561.359,-0.145884,0.0,0.0
280,69.75,31.856,34.5536,136.953,105.743,107.905,0.00010447,0.0412457,21.0033,561.389,-0.183101,0.0,0.0
282,70.25,32.4719,34.5347,139.891,105.734,107.437,0.000104281,0.0412474,21.0033,561.409,-0.144535,0.0,0.0
284,70.75,32.4168,34.8759,140.573,105.721,107.45,0.000104128,0.0412681,21.0033,561.409,-0.146718,0.0,0.0
286,71.25,31.6715,34.3411,132.017,105.722,107.493,9.31141e-05,0.0412418,21.0033,561.399,-0.150251,0.0,0.0
288,71.75,32.3211,34.758,140.114,105.728,107.921,8.41931e-05,0.0411818,21.0033,561.369,-0.185729,0.0,0.0
290,72.25,32.2922,34.1662,141.426,105.729,107.426,8.46094e-05,0.0411333,21.0033,561.379,-0.144027,0.0,0.0
292,72.75,31.9823,35.2003,137.487,105.704,107.073,9.18247e-05,0.0410939,21.0033,561.389,-0.116424,0.0,0.0
294,73.25,32.3485,34.464,137.279,105.712,107.349,0.000105951,0.041062,21.0033,561.389,-0.138964,0.0,0.0
296,73.75,31.6582,34.7932,139.353,105.696,107.449,0.000124848,0.0410771,21.0033,561.399,-0.148845,0.0,0.0
298,74.25,32.3791,34.0923,141.37,105.715,106.645,0.000145253,0.0410893,21.0033,561.379,-0.079212,0.0,0.0
300,74.75,32.3439,34.5572,142.472,105.698,106.972,0.00016637,0.0411063,21.0033,561.369,-0.108388,0.0,0.0
302,75.25,32.4247,34.5072,139.209,105.709,107.932,0.000180926,0.0411266,21.0033,561.369,-0.188294,0.0,0.0
304,75.75,32.5317,33.964,136.445,105.696,107.616,0.000190421,0.041143,21.0033,561.369,-0.162836,0.0,0.0
306,76.25,31.888,34.2537,137.157,105.704,107.589,0.000198112,0.0411018,21.0033,561.369,-0.159877,0.0,0.0
308,76.75,32.4464,34.4703,143.221,105.685,107.75,0.000174081,0.0410684,21.0033,561.389,-0.175008,0.0,0.0
310,77.25,32.0961,34.0321,135.667,105.697,107.543,0.000154615,0.0410142,21.0033,561.369,-0.156579,0.0,0.0
312,77.75,32.4219,34.3018,138.117,105.687,107.479,0.000117075,0.0409702,21.0033,561.399,-0.152153,0.0,0.0
314,78.25,32.2384,34.413,139.187,105.692,107.23,8.66684e-05,0.040921,21.0033,561.389,-0.130648,0.0,0.0
316,78.75,31.9116,34.1618,140.468,105.681,108.182,6.20387e-05,0.0408811,21.0033,561.429,-0.211618,0.0,0.0
318,79.25,31.9414,34.0324,137.865,105.699,107.032,5.2974e-05,0.040876,21.0033,561.419,-0.113359,0.0,0.0
320,79.75,32.0204,34.2524,140.643,105.677,107.192,4.56315e-05,0.040872,21.0033,561.369,-0.128767,0.0,0.0
322,80.25,32.5938,33.9373,139.059,105.679,107.15,5.43318e-05,0.0408686,21.0033,561.379,-0.125046,0.0,0.0
324,80.75,31.9843,34.218,139.31,105.665,107.594,7.45619e-05,0.0408659,21.0033,561.379,-0.163672,0.0,0.0
326,81.25,32.1122,33.9325,137.828,105.675,107.621,9.09483e-05,0.0408423,21.0033,561.379,-0.165114,0.0,0.0
328,81.75,31.9795,34.261,142.066,105.664,107.522,0.000104858,0.0408037,21.0033,561.359,-0.157636,0.0,0.0
330,82.25,31.4593,33.6232,140.079,105.666,106.81,0.000116698,0.0407725,21.0037,561.389,-0.0973816,0.0,0.0
332,82.75,32.3361,34.2384,139.974,105.652,107.277,0.000126289,0.0407759,21.004,561.409,-0.138052,0.0,0.0
334,83.25,31.6705,34.1569,137.076,105.654,107.907,0.000117114,0.0408044,21.0042,561.429,-0.190891,0.0,0.0
336,83.75,32.0558,34.1524,138.024,105.641,107.605,0.000106499,0.0408276,21.0044,561.409,-0.166602,0.0,0.0
338,84.25,31.9135,33.9849,136.305,105.656,108.109,9.50347e-05,0.0408463,21.0046,561.399,-0.207597,0.0,0.0
340,84.75,31.8105,33.8401,132.86,105.647,108.016,9.02063e-05,0.0408751,21.0047,561.409,-0.200599,0.0,0.0
342,85.25,31.8889,34.1991,135.106,105.64,107.926,9.0307e-05,0.0408984,21.0048,561.399,-0.193683,0.0,0.0
344,85.75,31.8294,33.8259,144.614,105.635,108.096,9.03886e-05,0.0408901,21.0049,561.419,-0.208279,0.0,0.0
346,86.25,32.0235,33.9866,141.808,105.634,108.125,0.000106383,0.0408833,21.005,561.409,-0.210882,0.0,0.0
348,86.75,32.3155,34.2961,139.351,105.627,107.323,0.000133674,0.0409187,21.005,561.419,-0.144111,0.0,0.0
350,87.25,31.9782,33.9324,139.568,105.628,107.649,0.00015578,0.0409474,21.0051,561.429,-0.171441,0.0,0.0
352,87.75,31.6688,33.4463,136.415,105.608,106.697,0.000193068,0.0409978,21.0051,561.429,-0.0928648,0.0,0.0
354,88.25,31.7819,34.3056,140.197,105.617,108.075,0.000223271,0.0410387,21.0051,561.419,-0.208084,0.0,0.0
356,88.75,31.8475,34.1743,136.566,105.601,107.92,0.000254078,0.0410718,21.0052,561.419,-0.19647,0.0,0.0
358,89.25,32.0744,34.3963,139.959,105.61,108.155,0.000284739,0.0410986,21.0052,561.419,-0.2154,0.0,0.0
360,89.75,31.6023,33.862,135.168,105.599,107.728,0.000310787,0.0410773,21.0052,561.399,-0.180549,0.0,0.0
362,90.25,32.1395,33.497,136.703,105.598,107.189,0.000331886,0.0410214,21.0054,561.419,-0.135263,0.0,0.0
364,90.75,32.0162,33.6745,138.891,105.583,107.406,0.000344511,0.040976,21.0055,561.399,-0.154861,0.0,0.0
366,91.25,32.0825,34.2543,139.377,105.612,107.631,0.000350718,0.0409899,21.0056,561.399,-0.171328,0.0,0.0
368,91.75,32.0141,33.5717,137.033,105.576,106.975,0.000351282,0.0410467,21.0057,561.399,-0.119122,0.0,0.0
370,92.25,31.693,34.0157,136.054,105.582,107.223,0.00034772,0.0410927,21.0058,561.399,-0.139544,0.0,0.0
372,92.75,31.8203,34.1668,142.177,105.557,106.932,0.000344835,0.0411299,21.0059,561.399,-0.11705,0.0,0.0
374,93.25,31.6987,33.9059,140.41,105.587,107.118,0.000340585,0.0411529,21.0059,561.409,-0.130188,0.0,0.0
376,93.75,31.6196,33.8224,139.692,105.558,107.159,0.00033322,0.0411651,21.006,561.409,-0.136147,0.0,0.0
378,94.25,31.4357,34.082,142.47,105.557,107.629,0.000328688,0.041175,21.006,561.409,-0.175842,0.0,0.0
380,94.75,31.9513,33.859,138.373,105.552,107.24,0.000320939,0.0411966,21.006,561.409,-0.143454,0.0,0.0
382,95.25,32.2271,34.0607,139.766,105.556,107.437,0.000314662,0.0412141,21.006,561.439,-0.15977,0.0,0.0
384,95.75,31.6009,33.9284,137.377,105.544,108.262,0.000303522,0.0412354,21.0061,561.439,-0.229967,0.0,0.0
386,96.25,32.0383,34.0165,140.052,105.541,107.698,0.000294498,0.0412592,21.0061,561.429,-0.183046,0.0,0.0
388,96.75,32.5051,34.3158,143.385,105.53,107.966,0.000284767,0.041301,21.0061,561.419,-0.206378,0.0,0.0
390,97.25,32.1681,33.9238,134.276,105.54,107.414,0.000272249,0.0413213,21.0061,561.429,-0.159189,0.0,0.0
392,97.75,31.525,33.5912,140.595,105.512,107.195,0.000268078,0.0413559,21.0061,561.439,-0.143199,0.0,0.0
394,98.25,31.9153,33.2491,138.781,105.514,106.88,0.000260944,0.0413568,21.0061,561.449,-0.116331,0.0,0.0
396,98.75,31.616,33.1291,138.942,105.507,107.721,0.000253255,0.0413575,21.0061,561.429,-0.187825,0.0,0.0
398,99.25,32.2576,33.7758,138.417,105.502,106.85,0.000245306,0.0413444,21.0061,561.429,-0.114825,0.0,0.0
400,99.75,31.8494,33.9857,141.074,105.488,106.793,0.000236122,0.0413338,21.0061,561.419,-0.111169,0.0,0.0
402,100.25,32.1263,33.6431,134.832,105.487,107.022,0.000219036,0.041341,21.006,561.429,-0.130664,0.0,0.0
404,100.75,32.0537,33.6774,137.64,105.466,107.094,0.00018982,0.041343,21.0059,561.419,-0.138579,0.0,0.0
406,101.25,31.723,33.9616,139.904,105.452,106.723,0.000143873,0.0413735,21.0058,561.419,-0.108367,0.0,0.0
408,101.75,31.5388,33.892,138.62,105.447,106.84,8.66042e-05,0.0413983,21.0057,561.419,-0.118669,0.0,0.0
410,102.25,31.831,34.1354,138.995,105.45,107.342,2.87583e-05,0.0414184,21.0056,561.409,-0.160862,0.0,0.0
412,102.75,31.5487,33.8553,141.242,105.437,106.81,-5.27803e-05,0.0413821,21.0055,561.399,-0.116976,0.0,0.0
414,103.25,32.2265,33.3857,136.361,105.417,107.454,-7.34416e-05,0.0413724,21.0055,561.399,-0.17318,0.0,0.0
416,103.75,31.6333,34.0794,135.987,105.433,107.724,-0.000108772,0.0413557,21.0054,561.409,-0.194442,0.0,0.0
418,104.25,32.3795,34.0537,139.372,105.416,107.479,-0.00013739,0.0413967,21.0054,561.419,-0.175294,0.0,0.0
420,104.75,31.9502,33.4899,137.482,105.404,107.016,-0.000160571,0.0414299,21.0054,561.449,-0.137299,0.0,0.0
422,105.25,31.7477,33.2697,136.988,105.411,107.151,-0.000137016,0.0414841,21.0053,561.429,-0.148128,0.0,0.0
424,105.75,31.7141,33.6749,140.964,105.396,107.286,-0.000117936,0.0415251,21.0052,561.419,-0.160753,0.0,0.0
426,106.25,31.7258,33.5949,140.453,105.38,106.448,-6.86065e-05,0.0415226,21.0051,561.399,-0.0912477,0.0,0.0
428,106.75,32.0692,33.5081,136.754,105.368,107.026,-2.86496e-05,0.0415182,21.005,561.389,-0.141208,0.0,0.0
430,107.25,32.2597,33.6472,140.348,105.348,107.051,3.71539e-06,0.0415147,21.0049,561.379,-0.145114,0.0,0.0
432,107.75,31.9809,33.7083,138.691,105.351,107.123,7.11074e-05,0.0415119,21.0049,561.399,-0.150884,0.0,0.0
434,108.25,32.0361,33.6086,140.449,105.333,106.782,0.000125695,0.0415096,21.0048,561.399,-0.123533,0.0,0.0
436,108.75,32.1932,33.8692,138.436,105.33,106.965,0.000180818,0.0415214,21.0048,561.409,-0.139319,0.0,0.0
438,109.25,31.4215,33.7611,137.424,105.313,106.722,0.000225467,0.0415309,21.0048,561.409,-0.120221,0.0,0.0
440,109.75,31.4572,33.6348,138.564,105.301,106.527,0.000261633,0.0415673,21.0047,561.409,-0.104684,0.0,0.0
442,110.25,31.4946,33.5143,139.99,105.294,107.292,0.000290928,0.0416226,21.0047,561.409,-0.170049,0.0,0.0
444,110.75,31.7346,33.5722,138.716,105.298,107.343,0.000311467,0.0416674,21.0047,561.419,-0.173965,0.0,0.0
446,111.25,31.7323,34.1706,138.805,105.282,107.201,0.000325233,0.0416628,21.0047,561.409,-0.163405,0.0,0.0
448,111.75,31.883,33.4829,139.063,105.271,106.543,0.000333195,0.0416591,21.0047,561.409,-0.108607,0.0,0.0
450,112.25,31.7258,33.0328,139.326,105.257,107.403,0.000336774,0.041656,21.0047,561.419,-0.182625,0.0,0.0
452,112.75,31.8497,33.2558,135.547,105.252,106.867,0.000337122,0.0416536,21.0047,561.419,-0.137758,0.0,0.0
454,113.25,31.9585,33.2954,136.376,105.234,106.85,0.000335108,0.0416588,21.0042,561.429,-0.137828,0.0,0.0
456,113.75,31.8004,33.2984,135.007,105.221,107.537,0.000333477,0.0416695,21.0039,561.419,-0.196888,0.0,0.0
458,114.25,31.9173,33.3068,140.067,105.208,107.577,0.000329605,0.0416781,21.0036,561.409,-0.201458,0.0,0.0
460,114.75,31.8112,33.8274,140.566,105.19,106.433,0.000324174,0.0416851,21.0033,561.389,-0.106285,0.0,0.0
462,115.25,31.6828,33.259,136.307,105.186,106.903,0.000318499,0.0416908,21.0031,561.419,-0.146425,0.0,0.0
464,115.75,31.5805,33.8511,136.896,105.176,107.228,0.000312755,0.0416953,21.003,561.419,-0.174767,0.0,0.0
466,116.25,31.6038,33.7089,137.082,105.157,107.287,0.00030619,0.0416991,21.0029,561.429,-0.181313,0.0,0.0
468,116.75,31.431,33.3682,136.986,105.152,107.297,0.000299152,0.0416949,21.0028,561.389,-0.182724,0.0,0.0
470,117.25,31.5935,33.8311,137.697,105.135,106.832,0.00029345,0.0416851,21.0027,561.409,-0.14487,0.0,0.0
472,117.75,31.8591,33.3058,137.962,105.138,107.555,0.000288832,0.0416771,21.0026,561.399,-0.20554,0.0,0.0
474,118.25,31.661,33.4356,138.047,105.109,106.726,0.00029083,0.0416707,21.0026,561.399,-0.13809,0.0,0.0
476,118.75,32.0477,33.6865,138.888,105.113,106.444,0.000297611,0.0416726,21.0025,561.409,-0.113812,0.0,0.0
478,119.25,31.4365,33.5465,136.702,105.089,106.424,0.000303104,0.0416807,21.0025,561.399,-0.114223,0.0,0.0
480,119.75,31.7884,33.4394,139.779,105.086,107.099,0.000325731,0.0416872,21.0024,561.389,-0.171582,0.0,0.0
482,120.25,31.6461,33.4837,142.453,105.056,105.879,0.00034406,0.0417197,21.0024,561.389,-0.070585,0.0,0.0
484,120.75,31.5406,33.2583,140.054,105.048,106.345,0.000358905,0.041746,21.0024,561.389,-0.110944,0.0,0.0
486,121.25,31.6926,33.5031,137.883,105.032,106.869,0.000406101,0.0417674,21.0024,561.389,-0.156863,0.0,0.0
488,121.75,31.9482,33.1858,135.106,105.039,106.351,0.000444329,0.0417703,21.0024,561.409,-0.112296,0.0,0.0
490,122.25,31.8087,33.5033,140.161,105.003,106.095,0.000492284,0.0417598,21.0024,561.399,-0.0935757,0.0,0.0
492,122.75,31.4858,33.9126,139.187,105.007,107.011,0.000531128,0.0417513,21.0024,561.399,-0.171026,0.0,0.0
494,123.25,31.5044,33.5317,138.182,104.977,106.992,0.000551668,0.0417228,21.0024,561.399,-0.171958,0.0,0.0
496,123.75,31.7166,33.3543,141.365,104.98,106.538,0.000568305,0.0416805,21.0023,561.389,-0.133232,0.0,0.0
498,124.25,31.995,33.3648,135.715,104.958,107.038,0.000556306,0.0416461,21.0023,561.369,-0.177458,0.0,0.0
500,124.75,31.6848,33.1436,134.872,104.961,106.647,0.000551191,0.0416255,21.0023,561.379,-0.144153,0.0,0.0
502,125.25,31.173,33.5871,139.819,104.934,107.249,0.000523046,0.0416152,21.0023,561.369,-0.197386,0.0,0.0
504,125.75,31.4762,33.287,137.286,104.95,107.175,0.000500248,0.0416284,21.0023,561.379,-0.189827,0.0,0.0
506,126.25,31.5798,34.056,136.092,104.906,107.025,0.000480506,0.0416585,21.0023,561.369,-0.18095,0.0,0.0
508,126.75,31.4596,33.3621,138.842,104.898,106.539,0.000463367,0.0416828,21.0023,561.369,-0.140412,0.0,0.0
510,127.25,31.8714,33.0188,138.014,104.877,107.522,0.000449484,0.0417026,21.0023,561.359,-0.225333,0.0,0.0
512,127.75,31.4957,33.4944,136.739,104.883,106.428,0.000438239,0.0417181,21.0023,561.349,-0.13231,0.0,0.0
514,128.25,31.9431,33.5714,138.836,104.854,106.427,0.000441254,0.0417448,21.0023,561.369,-0.13471,0.0,0.0
516,128.75,31.8813,33.4692,137.659,104.858,106.501,0.000454608,0.0417448,21.0028,561.369,-0.140598,0.0,0.0
518,129.25,31.6633,33.0381,138.626,104.824,107.41,0.000470531,0.0417255,21.0032,561.369,-0.220406,0.0,0.0
520,129.75,31.7668,33.0122,139.052,104.838,107.356,0.000488024,0.0417099,21.0035,561.359,-0.214764,0.0,0.0
522,130.25,31.776,32.9507,135.75,104.833,107.065,0.000502194,0.0416972,21.0038,561.369,-0.190604,0.0,0.0
524,130.75,31.8355,33.1003,138.249,104.803,105.831,0.00050882,0.0416188,21.004,561.369,-0.0882332,0.0,0.0
526,131.25,31.4236,33.7965,138.568,104.789,106.699,0.000514187,0.0415553,21.0042,561.369,-0.163451,0.0,0.0
528,131.75,31.4281,33.535,141.636,104.79,106.845,0.000503982,0.0415039,21.0043,561.379,-0.175693,0.0,0.0
530,132.25,32.1016,33.8228,132.177,104.763,107.534,,0.0414622,,561.379,-0.236199,0.0,0.0
532,132.75,31.7469,33.2103,139.295,104.753,107.19,,0.0414285,,561.359,-0.208039,0.0,0.0
534,133.25,31.9301,33.1993,138.424,104.743,106.606,,0.0414965,,561.329,-0.159456,0.0,0.0
536,133.75,31.7446,33.4874,136.862,104.742,106.82,,0.0415517,,561.339,-0.177687,0.0,0.0
538,134.25,31.6969,33.47,136.159,104.71,106.46,,0.0415963,,561.359,-0.149961,0.0,0.0
540,134.75,31.9316,33.273,138.275,104.703,106.923,,0.0416325,,561.359,-0.189797,0.0,0.0
542,135.25,31.693,33.2947,139.244,104.687,106.477,,,,561.309,-0.153394,0.0,0.0
544,135.75,31.8588,33.5654,141.304,104.706,107.069,,,,561.379,-0.201866,0.0,0.0
546,136.25,31.9538,34.0133,138.589,104.668,106.206,,,,561.349,-0.131907,0.0,0.0
548,136.75,31.4919,33.626,142.609,104.659,107.07,,,,561.329,-0.205959,0.0,0.0
550,137.25,31.7485,32.776,138.411,104.641,106.326,,,,561.329,-0.144434,0.0,0.0
552,137.75,31.5752,33.4718,140.829,104.634,106.079,,,,561.349,-0.12407,0.0,0.0
554,138.25,32.1973,33.7127,139.143,104.623,106.472,,,,561.359,-0.158515,0.0,0.0
556,138.75,32.5997,33.404,136.122,104.62,105.788,,,,561.329,-0.100415,0.0,0.0
558,139.25,31.7745,33.4934,138.413,104.602,106.657,,,,561.319,-0.175961,0.0,0.0
560,139.75,32.343,33.0062,140.897,104.589,106.059,,,,561.329,-0.126308,0.0,0.0
562,140.25,31.3622,33.2486,137.366,104.581,106.243,,,,561.359,-0.142607,0.0,0.0
564,140.75,31.7345,33.8877,139.304,104.571,105.744,,,,561.329,-0.10091,0.0,0.0
566,141.25,31.8056,33.5621,139.438,104.562,106.008,,,,561.319,-0.1242,0.0,0.0
568,141.75,31.8761,33.3875,140.614,104.565,106.09,,,,561.299,-0.130938,0.0,0.0
570,142.25,32.0921,33.9893,140.743,104.546,106.058,,,,561.319,-0.129921,0.0,0.0
572,142.75,31.6984,33.4039,139.91,104.532,106.136,,,,561.349,-0.137723,0.0,0.0