File: 01_Data/PVC_Pipe/STA/N2/10K_min/PVC_Pipe_STA_N2_10KData_22075_R2.csv
##Temp./Â°C,Time/min,Mass loss(subtr.2)/mg,DSC(subtr.2)/(mW/mg),Sensit./(uV/mW)
49.724,10.00917,0.02503,0.00788149,1.07017
50.324,10.7352,0.02751322,0.0351143,1.07001
50.924,10.92419,0.02808889,0.0566821,1.06984
51.524,11.06639,0.02643496,0.07440446,1.06968
52.124,11.18534,0.02826569,0.08875415,1.06951
52.724,11.2899,0.02747162,0.10129,1.06934
53.324,11.38585,0.02718783,0.11294,1.06918
53.924,11.4763,0.02774721,0.12161,1.06901
54.524,11.56197,0.02952522,0.12835,1.06884
55.124,11.64413,0.03040351,0.137,1.06868
55.724,11.7235,0.02920951,0.14378,1.06851
56.324,11.80052,0.02877715,0.15029,1.06834
56.924,11.87502,0.02877424,0.15418,1.06817
57.524,11.9484,0.03034061,0.16123,1.068
58.124,12.02037,0.03043266,0.16592,1.06783
58.724,12.0915,0.03136294,0.17031,1.06766
59.324,12.16104,0.03031127,0.17479,1.06749
59.924,12.22989,0.03028445,0.18041,1.06732
60.524,12.29849,0.03025492,0.18454,1.06715
61.124,12.3665,0.03094547,0.19058,1.06698
61.724,12.4338,0.03034857,0.19523,1.06681
62.324,12.50013,0.03086953,0.19885,1.06663
62.924,12.56625,0.03134412,0.20542,1.06646
63.524,12.63204,0.03094784,0.20755,1.06629
64.124,12.6978,0.03084716,0.2101,1.06611
64.724,12.7635,0.03077359,0.21039,1.06594
65.324,12.82821,0.03019122,0.2087,1.06577
65.924,12.8933,0.03250298,0.20258,1.06559
66.524,12.95784,0.0315086,0.19987,1.06542
67.124,13.02282,0.0314669,0.19747,1.06524
67.724,13.08769,0.03147046,0.19379,1.06507
68.324,13.15215,0.03150852,0.19142,1.06489
68.924,13.21675,0.03152409,0.19113,1.06471
69.524,13.28067,0.03161534,0.19065,1.06454
70.124,13.3443,0.03255847,0.19046,1.06436
70.724,13.40727,0.03283181,0.18858,1.06418
71.324,13.47061,0.03282069,0.19084,1.064
71.924,13.534,0.03193507,0.191,1.06383
72.524,13.5977,0.03185309,0.19089,1.06365
73.124,13.6607,0.03077251,0.19505,1.06347
73.724,13.72362,0.03151034,0.19514,1.06329
74.324,13.7862,0.03162736,0.19466,1.06311
74.924,13.84895,0.03151171,0.19693,1.06293
75.524,13.91146,0.03281916,0.19948,1.06275
76.124,13.9741,0.03291875,0.19915,1.06257
76.724,14.03641,0.03182965,0.20021,1.06239
77.324,14.09891,0.03150563,0.2005,1.0622
77.924,14.16095,0.03282231,0.20143,1.06202
78.524,14.223,0.03281108,0.20386,1.06184
79.124,14.28471,0.03230003,0.20724,1.06166
79.724,14.34649,0.03150384,0.20801,1.06147
80.324,14.40797,0.03227003,0.20954,1.06129
80.924,14.46928,0.03282014,0.21135,1.06111
81.524,14.53055,0.0341419,0.21404,1.06092
82.124,14.59111,0.03281458,0.2158,1.06074
82.724,14.6522,0.0328284,0.22025,1.06055
83.324,14.7133,0.03414071,0.22271,1.06037
83.924,14.77464,0.03544756,0.22605,1.06018
84.524,14.83586,0.03407579,0.23048,1.05999
85.124,14.89679,0.03414108,0.23661,1.05981
85.724,14.9573,0.03366397,0.24011,1.05962
86.324,15.01779,0.03417499,0.24407,1.05943
86.924,15.07825,0.03413955,0.24869,1.05925
87.524,15.13887,0.03281734,0.25086,1.05906
88.124,15.19922,0.03281997,0.25436,1.05887
88.724,15.2599,0.03413478,0.25635,1.05868
89.324,15.32,0.03414374,0.25588,1.05849
89.924,15.38011,0.03411596,0.25528,1.0583
90.524,15.4399,0.03341611,0.25344,1.05811
91.124,15.5,0.03284998,0.25449,1.05792
91.724,15.5599,0.03417897,0.25385,1.05773
92.324,15.61999,0.0347323,0.2519,1.05754
92.924,15.67956,0.03412709,0.252,1.05735
93.524,15.7391,0.03282001,0.24988,1.05716
94.124,15.79855,0.03410103,0.25172,1.05696
94.724,15.85825,0.03413974,0.25065,1.05677
95.324,15.9177,0.03545781,0.25174,1.05658
95.924,15.977,0.0341522,0.25185,1.05638
96.524,16.03643,0.03408965,0.25327,1.05619
97.124,16.0958,0.03413997,0.25262,1.056
97.724,16.15495,0.03413986,0.25293,1.0558
98.324,16.21418,0.0336769,0.25481,1.05561
98.924,16.2733,0.03410439,0.25464,1.05541
99.524,16.33267,0.03411182,0.25728,1.05522
100.124,16.39208,0.0328192,0.25727,1.05502
100.724,16.4511,0.03394444,0.25827,1.05482
101.324,16.50991,0.03414365,0.2632,1.05463
101.924,16.56853,0.0354598,0.26125,1.05443
102.524,16.6271,0.03554018,0.26381,1.05423
103.124,16.68605,0.03414026,0.26469,1.05403
103.724,16.745,0.03378083,0.26852,1.05384
104.324,16.8041,0.03380933,0.26937,1.05364
104.924,16.86284,0.03150919,0.27128,1.05344
105.524,16.92138,0.03145714,0.27497,1.05324
106.124,16.97999,0.03281248,0.27497,1.05304
106.724,17.0388,0.03413887,0.27953,1.05284
107.324,17.09764,0.03544947,0.28073,1.05264
107.924,17.15654,0.0354517,0.28209,1.05244
108.524,17.2153,0.03677941,0.2833,1.05223
109.124,17.2737,0.03548558,0.28667,1.05203
109.724,17.3324,0.03612682,0.28837,1.05183
110.324,17.3911,0.0354601,0.28989,1.05163
110.924,17.45007,0.03546,0.29181,1.05142
111.524,17.50875,0.03545989,0.29289,1.05122
112.124,17.56723,0.03677057,0.29563,1.05102
112.724,17.6256,0.03542726,0.29684,1.05081
113.324,17.68417,0.03676906,0.29805,1.05061
113.924,17.74267,0.03672771,0.29894,1.0504
114.524,17.80108,0.03775359,0.30071,1.0502
115.124,17.85954,0.03874933,0.30177,1.04999
115.724,17.91789,0.03809052,0.30394,1.04979
116.324,17.9766,0.03676641,0.3038,1.04958
116.924,18.0352,0.03676997,0.30559,1.04937
117.524,18.09348,0.03669525,0.30441,1.04916
118.124,18.15182,0.0367716,0.30803,1.04896
118.724,18.21014,0.03676998,0.30962,1.04875
119.324,18.26856,0.03680054,0.30786,1.04854
119.924,18.32709,0.03744003,0.31009,1.04833
120.524,18.38556,0.03725656,0.31056,1.04812
121.124,18.44391,0.03677987,0.31177,1.04791
121.724,18.50231,0.03678444,0.31257,1.0477
122.324,18.5608,0.03546138,0.31398,1.04749
122.924,18.61915,0.03611989,0.31446,1.04728
123.524,18.67725,0.03711042,0.31714,1.04707
124.124,18.73532,0.03711136,0.31632,1.04686
124.724,18.79338,0.03774274,0.31676,1.04665
125.324,18.85131,0.03711398,0.31662,1.04643
125.924,18.9096,0.03775967,0.32156,1.04622
126.524,18.96772,0.03861525,0.32149,1.04601
127.124,19.02572,0.03907868,0.32129,1.04579
127.724,19.0842,0.03843779,0.3229,1.04558
128.324,19.1424,0.03842001,0.32439,1.04536
128.924,19.20036,0.03842151,0.32485,1.04515
129.524,19.2588,0.03709953,0.32438,1.04493
130.124,19.31699,0.0371,0.324,1.04472
130.724,19.37515,0.03709937,0.32717,1.0445
131.324,19.43374,0.03798576,0.32823,1.04429
131.924,19.49178,0.03710996,0.32979,1.04407
132.524,19.54973,0.03711,0.32892,1.04385
133.124,19.60768,0.03712862,0.33147,1.04364
133.724,19.6656,0.03965193,0.33194,1.04342
134.324,19.7232,0.03863842,0.33472,1.0432
134.924,19.7813,0.03732197,0.33572,1.04298
135.524,19.83909,0.03863768,0.33623,1.04276
136.124,19.8969,0.03863918,0.33789,1.04254
136.724,19.955,0.03716418,0.3382,1.04232
137.324,20.01287,0.03605956,0.34097,1.0421
137.924,20.0707,0.03732943,0.33949,1.04188
138.524,20.1286,0.03863981,0.34065,1.04166
139.124,20.1861,0.03858901,0.34079,1.04144
139.724,20.2438,0.04000495,0.34365,1.04122
140.324,20.30162,0.03864027,0.3436,1.04099
140.924,20.3594,0.03799169,0.34443,1.04077
141.524,20.41725,0.03799437,0.34427,1.04055
142.124,20.47516,0.03830266,0.34539,1.04032
142.724,20.53286,0.03732044,0.34806,1.0401
143.324,20.5907,0.03914862,0.34774,1.03988
143.924,20.64881,0.03996,0.34779,1.03965
144.524,20.70652,0.0392312,0.34872,1.03943
145.124,20.76424,0.03863997,0.34974,1.0392
145.724,20.82187,0.03864,0.34902,1.03898
146.324,20.87945,0.03864,0.35065,1.03875
146.924,20.93734,0.03864,0.35082,1.03852
147.524,20.9951,0.03864772,0.35237,1.0383
148.124,21.05282,0.03733184,0.35117,1.03807
148.724,21.11045,0.0373287,0.35403,1.03784
149.324,21.16799,0.03931705,0.35418,1.03761
149.924,21.2255,0.0392034,0.35612,1.03738
150.524,21.28293,0.04062023,0.35656,1.03715
151.124,21.34035,0.03931459,0.35686,1.03692
151.724,21.3978,0.03929999,0.35739,1.03669
152.324,21.45536,0.03930087,0.35649,1.03646
152.924,21.51296,0.03925489,0.3573,1.03623
153.524,21.57077,0.03929707,0.35874,1.036
154.124,21.62828,0.0389696,0.35721,1.03577
154.724,21.68601,0.03896999,0.35854,1.03554
155.324,21.74335,0.03894123,0.36083,1.03531
155.924,21.8011,0.03818164,0.36038,1.03507
156.524,21.85877,0.03929906,0.35954,1.03484
157.124,21.91633,0.04039019,0.36121,1.03461
157.724,21.9738,0.04060763,0.36025,1.03437
158.324,22.03109,0.03929702,0.36077,1.03414
158.924,22.08844,0.03929995,0.36265,1.0339
159.524,22.14593,0.03863697,0.36287,1.03367
160.124,22.20342,0.03803813,0.36241,1.03343
160.724,22.26105,0.03930038,0.36212,1.0332
161.324,22.31852,0.0393,0.36246,1.03296
161.924,22.37604,0.0393,0.36261,1.03272
162.524,22.43342,0.0393,0.36269,1.03249
163.124,22.49081,0.03929942,0.36422,1.03225
163.724,22.5484,0.03798348,0.36275,1.03201
164.324,22.60582,0.03928267,0.36143,1.03177
164.924,22.66339,0.03929999,0.36321,1.03153
165.524,22.7209,0.0393,0.36318,1.0313
166.124,22.77835,0.0393,0.36604,1.03106
166.724,22.8358,0.03928134,0.36346,1.03082
167.324,22.8931,0.03864136,0.36489,1.03058
167.924,22.9504,0.03864,0.36488,1.03033
168.524,23.00783,0.03863691,0.36409,1.03009
169.124,23.06529,0.03930392,0.36411,1.02985
169.724,23.1227,0.03929952,0.36316,1.02961
170.324,23.18037,0.0389838,0.36444,1.02937
170.924,23.23775,0.03831271,0.36492,1.02912
171.524,23.29494,0.03833599,0.36553,1.02888
172.124,23.35211,0.03963049,0.3667,1.02864
172.724,23.40918,0.03963,0.36814,1.02839
173.324,23.46649,0.03963,0.36796,1.02815
173.924,23.52381,0.03963,0.36713,1.0279
174.524,23.5811,0.03962974,0.36741,1.02766
175.124,23.63831,0.03929411,0.3665,1.02741
175.724,23.69602,0.0382998,0.36686,1.02717
176.324,23.75369,0.0370815,0.36622,1.02692
176.924,23.81154,0.0371003,0.36768,1.02667
177.524,23.86901,0.03831829,0.36793,1.02643
178.124,23.92634,0.03766094,0.36892,1.02618
178.724,23.98356,0.0372945,0.36685,1.02593
179.324,24.04082,0.03829811,0.3674,1.02568
179.924,24.09821,0.03831,0.36842,1.02543
180.524,24.15537,0.03831,0.36692,1.02518
181.124,24.21264,0.03830999,0.3689,1.02493
181.724,24.26994,0.03830641,0.3681,1.02468
182.324,24.32715,0.03700059,0.36986,1.02443
182.924,24.3843,0.03701314,0.36937,1.02418
183.524,24.44162,0.03831333,0.36961,1.02393
184.124,24.49887,0.03830999,0.36967,1.02368
184.724,24.55609,0.03937663,0.37021,1.02343
185.324,24.61338,0.03968109,0.36762,1.02317
185.924,24.67073,0.03859996,0.37079,1.02292
186.524,24.72791,0.03830996,0.36941,1.02267
187.124,24.78501,0.03831,0.36946,1.02241
187.724,24.842,0.03831924,0.36935,1.02216
188.324,24.89913,0.03731997,0.36954,1.0219
188.924,24.95652,0.03732,0.36938,1.02165
189.524,25.01365,0.03732,0.3713,1.02139
190.124,25.0711,0.03732,0.37249,1.02114
190.724,25.1283,0.0373197,0.37146,1.02088
191.324,25.1857,0.03699675,0.37144,1.02062
191.924,25.24305,0.03699001,0.37167,1.02037
192.524,25.29973,0.03699001,0.37114,1.02011
193.124,25.35684,0.03690651,0.3715,1.01985
193.724,25.41411,0.03828667,0.37157,1.01959
194.324,25.4716,0.03907679,0.37109,1.01933
194.924,25.5293,0.03874703,0.37225,1.01907
195.524,25.58652,0.03777614,0.37344,1.01881
196.124,25.64358,0.03645188,0.3742,1.01855
196.724,25.70073,0.03644781,0.37424,1.01829
197.324,25.75789,0.03777165,0.37272,1.01803
197.924,25.8153,0.03787715,0.37359,1.01777
198.524,25.87246,0.0368262,0.37353,1.01751
199.124,25.92965,0.03611933,0.37331,1.01725
199.724,25.98686,0.03744478,0.37217,1.01698
200.324,26.04362,0.03678662,0.37242,1.01672
200.924,26.10075,0.03678,0.37212,1.01646
201.524,26.15769,0.03678,0.37328,1.01619
202.124,26.2147,0.03678,0.37296,1.01593
202.724,26.2721,0.03678008,0.37445,1.01566
203.324,26.3293,0.03644392,0.37343,1.0154
203.924,26.3864,0.03611993,0.37374,1.01513
204.524,26.44337,0.03612,0.37407,1.01487
205.124,26.50048,0.03612,0.37428,1.0146
205.724,26.55736,0.03612,0.37419,1.01434
206.324,26.61423,0.03611825,0.37402,1.01407
206.924,26.67098,0.03479492,0.37459,1.0138
207.524,26.7279,0.03606163,0.37333,1.01353
208.124,26.78482,0.03480074,0.37553,1.01326
208.724,26.8418,0.03479981,0.37622,1.01299
209.324,26.89875,0.03544117,0.37476,1.01273
209.924,26.95559,0.03545996,0.37442,1.01246
210.524,27.0123,0.03552194,0.37406,1.01219
211.124,27.06927,0.03414001,0.37489,1.01191
211.724,27.1263,0.03414,0.37507,1.01164
212.324,27.18335,0.03414,0.37458,1.01137
212.924,27.2406,0.03414,0.37635,1.0111
213.524,27.29757,0.03413689,0.37551,1.01083
214.124,27.35458,0.03314612,0.37587,1.01056
214.724,27.41171,0.03315,0.37824,1.01028
215.324,27.4689,0.03315,0.37597,1.01001
215.924,27.52617,0.03315,0.37791,1.00973
216.524,27.58329,0.03315,0.37892,1.00946
217.124,27.6404,0.03314984,0.3779,1.00919
217.724,27.6973,0.03280752,0.37813,1.00891
218.324,27.75427,0.03281988,0.3783,1.00863
218.924,27.81082,0.03271669,0.38012,1.00836
219.524,27.86792,0.03018923,0.38067,1.00808
220.124,27.92478,0.02945109,0.38053,1.00781
220.724,27.9816,0.02920007,0.3823,1.00753
221.324,28.0391,0.0292,0.38272,1.00725
221.924,28.09631,0.02919269,0.38327,1.00697
222.524,28.1535,0.03019753,0.38478,1.00669
223.124,28.211,0.03019,0.38686,1.00641
223.724,28.2681,0.03019347,0.38851,1.00613
224.324,28.32517,0.02892314,0.38793,1.00586
224.924,28.38226,0.02754257,0.39026,1.00557
225.524,28.4393,0.02623967,0.38802,1.00529
226.124,28.4963,0.02624026,0.39028,1.00501
226.724,28.55333,0.02524432,0.38904,1.00473
227.324,28.61028,0.02492004,0.38994,1.00445
227.924,28.6675,0.0249157,0.38927,1.00417
228.524,28.72478,0.02260396,0.38983,1.00388
229.124,28.7821,0.0213035,0.39149,1.0036
229.724,28.8393,0.02129,0.3909,1.00332
230.324,28.89654,0.02129548,0.39281,1.00303
230.924,28.9535,0.01998208,0.39532,1.00275
231.524,29.0106,0.01856807,0.39315,1.00246
232.124,29.0677,0.01750697,0.39486,1.00218
232.724,29.1248,0.01789016,0.39502,1.00189
233.324,29.1823,0.01723819,0.39625,1.00161
233.924,29.2397,0.01525869,0.3971,1.00132
234.524,29.2968,0.0139367,0.39931,1.00103
235.124,29.3538,0.0139374,0.39948,1.00074
235.724,29.4109,0.01111116,0.40071,1.00046
236.324,29.4679,0.009927345,0.40251,1.00017
236.924,29.5252,0.008567079,0.40512,0.99988
237.524,29.58227,0.007240634,0.40436,0.99959
238.124,29.6393,0.005919471,0.40649,0.9993
238.724,29.69653,0.005923384,0.40677,0.99901
239.324,29.75375,0.00452798,0.40766,0.99872
239.924,29.81053,0.00460633,0.40828,0.99843
240.524,29.86771,0.00269522,0.40947,0.99814
241.124,29.92489,0.0010064,0.40918,0.99785
241.724,29.9822,-0.001685552,0.4104,0.99755
242.324,30.0396,-0.003403678,0.41094,0.99726
242.924,30.0967,-0.0034348,0.4146,0.99697
243.524,30.1539,-0.004782312,0.41292,0.99667
244.124,30.2111,-0.006377769,0.41478,0.99638
244.724,30.2685,-0.00770152,0.41375,0.99609
245.324,30.32583,-0.008992656,0.41397,0.99579
245.924,30.38307,-0.009004837,0.41416,0.9955
246.524,30.44032,-0.01033883,0.41667,0.9952
247.124,30.4975,-0.01266147,0.41726,0.9949
247.724,30.5546,-0.01404552,0.41746,0.99461
248.324,30.6115,-0.0150327,0.41901,0.99431
248.924,30.66865,-0.0163645,0.41942,0.99401
249.524,30.7259,-0.01768617,0.42038,0.99371
250.124,30.7833,-0.01903988,0.42389,0.99342
250.724,30.8407,-0.02157334,0.42733,0.99312
251.324,30.89793,-0.02435338,0.42794,0.99282
251.924,30.95528,-0.02614922,0.42892,0.99252
252.524,31.0125,-0.02594883,0.43072,0.99222
253.124,31.06995,-0.02716803,0.43264,0.99192
253.724,31.1272,-0.03010372,0.43374,0.99162
254.324,31.1845,-0.03134327,0.43321,0.99132
254.924,31.24165,-0.03337407,0.43602,0.99102
255.524,31.2988,-0.03368941,0.43901,0.99071
256.124,31.3559,-0.03602533,0.43896,0.99041
256.724,31.413,-0.03799498,0.44129,0.99011
257.324,31.47036,-0.04045088,0.44304,0.9898
257.924,31.5276,-0.04404954,0.44349,0.9895
258.524,31.585,-0.04541601,0.44387,0.9892
259.124,31.6423,-0.04780848,0.4481,0.98889
259.724,31.6996,-0.04955387,0.44967,0.98859
260.324,31.75688,-0.05179906,0.45349,0.98828
260.924,31.8141,-0.05319934,0.45465,0.98797
261.524,31.8712,-0.05550115,0.45819,0.98767
262.124,31.92848,-0.05730725,0.45876,0.98736
262.724,31.98583,-0.05937614,0.4612,0.98705
263.324,32.0431,-0.06250798,0.4637,0.98675
263.924,32.10009,-0.06433542,0.46701,0.98644
264.524,32.15713,-0.06742652,0.46734,0.98613
265.124,32.21437,-0.07117097,0.47243,0.98582
265.724,32.27143,-0.07400103,0.47379,0.98551
266.324,32.32895,-0.07607098,0.47709,0.9852
266.924,32.38617,-0.07885105,0.48237,0.98489
267.524,32.44338,-0.08196889,0.48324,0.98458
268.124,32.50065,-0.08322686,0.48863,0.98427
268.724,32.55784,-0.08603228,0.49063,0.98396
269.324,32.61499,-0.09070399,0.49314,0.98364
269.924,32.67223,-0.09467512,0.49686,0.98333
270.524,32.72938,-0.09696248,0.49925,0.98302
271.124,32.78668,-0.09946901,0.50505,0.98271
271.724,32.8437,-0.10377,0.50718,0.98239
272.324,32.90074,-0.10809,0.51166,0.98208
272.924,32.95819,-0.11316,0.51635,0.98176
273.524,33.01551,-0.11841,0.52143,0.98145
274.124,33.07322,-0.12179,0.52731,0.98113
274.724,33.13095,-0.1261,0.53003,0.98082
275.324,33.18837,-0.13275,0.53704,0.9805
275.924,33.24569,-0.13684,0.54098,0.98018
276.524,33.3031,-0.14191,0.54886,0.97987
277.124,33.36053,-0.14814,0.55444,0.97955
277.724,33.418,-0.15366,0.55767,0.97923
278.324,33.47534,-0.15892,0.564,0.97891
278.924,33.53284,-0.16442,0.57152,0.97859
279.524,33.59018,-0.17168,0.57818,0.97827
280.124,33.6475,-0.17853,0.58458,0.97795
280.724,33.70492,-0.18511,0.5922,0.97763
281.324,33.76225,-0.19163,0.59792,0.97731
281.924,33.81975,-0.19879,0.60535,0.97699
282.524,33.8773,-0.20465,0.61401,0.97667
283.124,33.93483,-0.21285,0.62079,0.97635
283.724,33.9923,-0.22258,0.62869,0.97602
284.324,34.04983,-0.23149,0.63787,0.9757
284.924,34.1075,-0.23998,0.64728,0.97538
285.524,34.1651,-0.24843,0.65505,0.97505
286.124,34.22252,-0.25871,0.66504,0.97473
286.724,34.28015,-0.26998,0.67396,0.9744
287.324,34.33761,-0.28102,0.6849,0.97408
287.924,34.39525,-0.29159,0.69788,0.97375
288.524,34.4529,-0.30442,0.7093,0.97343
289.124,34.51058,-0.3169,0.72311,0.9731
289.724,34.56834,-0.33184,0.7367,0.97277
290.324,34.62592,-0.34667,0.75712,0.97245
290.924,34.6837,-0.36114,0.77707,0.97212
291.524,34.74139,-0.37767,0.80681,0.97179
292.124,34.79908,-0.39903,0.83996,0.97146
292.724,34.85662,-0.41963,0.88651,0.97113
293.324,34.9143,-0.44577,0.93641,0.9708
293.924,34.9722,-0.47548,0.99931,0.97047
294.524,35.03015,-0.51051,1.07412,0.97014
295.124,35.0882,-0.5498,1.13891,0.96981
295.724,35.14628,-0.59252,1.1939,0.96948
296.324,35.20443,-0.6373,1.23816,0.96915
296.924,35.26259,-0.67935,1.26903,0.96882
297.524,35.32076,-0.72518,1.27614,0.96848
298.124,35.37873,-0.76609,1.26796,0.96815
298.724,35.4365,-0.81044,1.24941,0.96782
299.324,35.49422,-0.84897,1.21895,0.96748
299.924,35.55198,-0.88797,1.18157,0.96715
300.524,35.60966,-0.92274,1.13584,0.96681
301.124,35.66733,-0.95491,1.09022,0.96648
301.724,35.7249,-0.98691,1.04163,0.96614
302.324,35.7824,-1.01461,0.99294,0.96581
302.924,35.83976,-1.04089,0.94755,0.96547
303.524,35.89716,-1.06282,0.9063,0.96513
304.124,35.95443,-1.08708,0.87607,0.9648
304.724,36.0115,-1.10844,0.85109,0.96446
305.324,36.06886,-1.1279,0.83001,0.96412
305.924,36.12603,-1.14938,0.81264,0.96378
306.524,36.18325,-1.16791,0.80039,0.96344
307.124,36.24073,-1.18962,0.78808,0.9631
307.724,36.2982,-1.20927,0.77991,0.96276
308.324,36.35584,-1.22897,0.77336,0.96242
308.924,36.4134,-1.24976,0.76676,0.96208
309.524,36.47102,-1.26973,0.76222,0.96174
310.124,36.52847,-1.28811,0.75925,0.9614
310.724,36.586,-1.30701,0.75429,0.96106
311.324,36.6434,-1.32731,0.75176,0.96071
311.924,36.70085,-1.34519,0.74646,0.96037
312.524,36.75823,-1.36699,0.74257,0.96003
313.124,36.81584,-1.38588,0.73617,0.95968
313.724,36.8733,-1.40458,0.73244,0.95934
314.324,36.93087,-1.42501,0.7265,0.95899
314.924,36.98842,-1.44675,0.7221,0.95865
315.524,37.04596,-1.46464,0.71656,0.9583
316.124,37.10374,-1.48265,0.70944,0.95795
316.724,37.1614,-1.5038,0.707,0.95761
317.324,37.21883,-1.52214,0.70107,0.95726
317.924,37.27633,-1.54228,0.69308,0.95691
318.524,37.33398,-1.55841,0.69027,0.95657
319.124,37.39158,-1.57542,0.68067,0.95622
319.724,37.4495,-1.59285,0.67639,0.95587
320.324,37.50712,-1.61319,0.66899,0.95552
320.924,37.5648,-1.631,0.66385,0.95517
321.524,37.62253,-1.64755,0.65751,0.95482
322.124,37.68029,-1.6641,0.6479,0.95447
322.724,37.73793,-1.68162,0.64146,0.95412
323.324,37.79558,-1.69939,0.63368,0.95377
323.924,37.85287,-1.71526,0.62893,0.95341
324.524,37.91035,-1.73218,0.622,0.95306
325.124,37.9679,-1.74866,0.61398,0.95271
325.724,38.02543,-1.7636,0.60536,0.95236
326.324,38.08294,-1.77933,0.60049,0.952
326.924,38.14048,-1.79395,0.59044,0.95165
327.524,38.19795,-1.80976,0.58453,0.95129
328.124,38.2556,-1.82489,0.57617,0.95094
328.724,38.31338,-1.83968,0.57047,0.95058
329.324,38.371,-1.85467,0.56283,0.95023
329.924,38.4285,-1.86965,0.55322,0.94987
330.524,38.4861,-1.88277,0.54478,0.94951
331.124,38.54372,-1.89662,0.54096,0.94916
331.724,38.6012,-1.91091,0.53105,0.9488
332.324,38.65835,-1.92323,0.52749,0.94844
332.924,38.7158,-1.93538,0.51835,0.94808
333.524,38.77337,-1.94755,0.51094,0.94772
334.124,38.83116,-1.95935,0.50436,0.94736
334.724,38.88889,-1.97178,0.49717,0.947
335.324,38.9468,-1.9846,0.48871,0.94664
335.924,39.00472,-1.99646,0.48223,0.94628
336.524,39.0627,-2.00872,0.47348,0.94592
337.124,39.12082,-2.02099,0.46638,0.94556
337.724,39.17839,-2.03273,0.45926,0.9452
338.324,39.23587,-2.04227,0.45076,0.94483
338.924,39.29373,-2.05225,0.44237,0.94447
339.524,39.35136,-2.06354,0.43107,0.94411
340.124,39.4093,-2.07327,0.42511,0.94374
340.724,39.4669,-2.08339,0.41499,0.94338
341.324,39.52471,-2.09147,0.40952,0.94302
341.924,39.5827,-2.10153,0.39895,0.94265
342.524,39.64071,-2.11019,0.39076,0.94228
343.124,39.69875,-2.11874,0.38245,0.94192
343.724,39.75659,-2.12904,0.37272,0.94155
344.324,39.81451,-2.13666,0.36495,0.94119
344.924,39.87234,-2.14467,0.35521,0.94082
345.524,39.92993,-2.15236,0.34513,0.94045
346.124,39.98761,-2.15867,0.33528,0.94008
346.724,40.04541,-2.16598,0.32842,0.93971
347.324,40.10326,-2.17337,0.31847,0.93934
347.924,40.16138,-2.18123,0.31017,0.93897
348.524,40.21929,-2.18733,0.29959,0.9386
349.124,40.27725,-2.19451,0.29082,0.93823
349.724,40.33524,-2.19907,0.28124,0.93786
350.324,40.39318,-2.20519,0.27248,0.93749
350.924,40.45128,-2.21153,0.26422,0.93712
351.524,40.50925,-2.21697,0.25538,0.93675
352.124,40.56712,-2.22295,0.24462,0.93638
352.724,40.625,-2.22838,0.2355,0.936
353.324,40.6825,-2.23159,0.22578,0.93563
353.924,40.73999,-2.23648,0.21786,0.93525
354.524,40.79769,-2.24114,0.21114,0.93488
355.124,40.8556,-2.24496,0.20267,0.93451
355.724,40.91384,-2.24894,0.19553,0.93413
356.324,40.97222,-2.25392,0.18567,0.93375
356.924,41.03008,-2.25665,0.17893,0.93338
357.524,41.08781,-2.25981,0.17097,0.933
358.124,41.14557,-2.26304,0.16837,0.93262
358.724,41.20341,-2.26468,0.1611,0.93225
359.324,41.26127,-2.26814,0.15283,0.93187
359.924,41.3196,-2.27022,0.15059,0.93149
360.524,41.37769,-2.27204,0.1475,0.93111
361.124,41.4358,-2.27448,0.14441,0.93073
361.724,41.49388,-2.27532,0.14067,0.93035
362.324,41.55193,-2.27789,0.13843,0.92997
362.924,41.61007,-2.2802,0.13837,0.92959
363.524,41.66809,-2.28158,0.13471,0.92921
364.124,41.72614,-2.28261,0.1367,0.92883
364.724,41.7843,-2.28294,0.13605,0.92845
365.324,41.84239,-2.2842,0.13488,0.92807
365.924,41.90037,-2.28705,0.13718,0.92768
366.524,41.95851,-2.28772,0.13896,0.9273
367.124,42.01657,-2.28832,0.14081,0.92692
367.724,42.07475,-2.28832,0.14172,0.92653
368.324,42.13304,-2.28969,0.14181,0.92615
368.924,42.1914,-2.28964,0.1451,0.92576
369.524,42.24967,-2.29096,0.1456,0.92538
370.124,42.30787,-2.29194,0.14874,0.92499
370.724,42.366,-2.29325,0.15031,0.92461
371.324,42.42408,-2.29327,0.15355,0.92422
371.924,42.4824,-2.29329,0.15637,0.92383
372.524,42.54067,-2.29409,0.15706,0.92345
373.124,42.59879,-2.29469,0.15783,0.92306
373.724,42.65701,-2.29469,0.16131,0.92267
374.324,42.7151,-2.29333,0.16328,0.92228
374.924,42.77312,-2.29464,0.16321,0.92189
375.524,42.83121,-2.29666,0.16525,0.9215
376.124,42.8892,-2.29667,0.16795,0.92111
376.724,42.9472,-2.29665,0.17117,0.92072
377.324,43.00522,-2.29667,0.1732,0.92033
377.924,43.06313,-2.29765,0.17755,0.91994
378.524,43.12113,-2.29797,0.18471,0.91955
379.124,43.17915,-2.29931,0.1877,0.91915
379.724,43.2373,-2.29931,0.1912,0.91876
380.324,43.29529,-2.30065,0.19623,0.91837
380.924,43.3532,-2.30174,0.2007,0.91797
381.524,43.411,-2.30064,0.20239,0.91758
382.124,43.469,-2.30063,0.20418,0.91719
382.724,43.52733,-2.30128,0.20665,0.91679
383.324,43.58563,-2.30128,0.21055,0.9164
383.924,43.6439,-2.30132,0.20956,0.916
384.524,43.70212,-2.30128,0.21226,0.9156
385.124,43.7603,-2.30128,0.21331,0.91521
385.724,43.81856,-2.3026,0.21539,0.91481
386.324,43.87696,-2.30324,0.21704,0.91441
386.924,43.9352,-2.30491,0.21793,0.91401
387.524,43.9934,-2.30491,0.22009,0.91362
388.124,44.05146,-2.30622,0.22071,0.91322
388.724,44.10966,-2.30754,0.21909,0.91282
389.324,44.16792,-2.30754,0.21964,0.91242
389.924,44.2263,-2.30768,0.2183,0.91202
390.524,44.2849,-2.30886,0.21718,0.91162
391.124,44.34345,-2.30882,0.21741,0.91122
391.724,44.40184,-2.31018,0.21515,0.91081
392.324,44.46043,-2.31019,0.2168,0.91041
392.924,44.51887,-2.3115,0.21192,0.91001
393.524,44.57748,-2.31278,0.21077,0.90961
394.124,44.63613,-2.31248,0.21023,0.9092
394.724,44.69469,-2.31266,0.20826,0.9088
395.324,44.75334,-2.3128,0.20772,0.9084
395.924,44.81179,-2.31281,0.20559,0.90799
396.524,44.87027,-2.31285,0.20204,0.90759
397.124,44.92869,-2.31413,0.20224,0.90718
397.724,44.9873,-2.31545,0.1995,0.90678
398.324,45.0458,-2.31676,0.19709,0.90637
398.924,45.10426,-2.31676,0.19495,0.90596
399.524,45.16271,-2.31676,0.19276,0.90556
400.124,45.22105,-2.31676,0.18894,0.90515
400.724,45.2797,-2.31544,0.18394,0.90474
401.324,45.33856,-2.31544,0.1806,0.90433
401.924,45.39741,-2.31758,0.17722,0.90392
402.524,45.45617,-2.31943,0.17365,0.90351
403.124,45.5148,-2.31975,0.16745,0.90311
403.724,45.5735,-2.3208,0.16077,0.9027
404.324,45.6321,-2.32357,0.15731,0.90228
404.924,45.69077,-2.32489,0.14877,0.90187
405.524,45.74941,-2.32621,0.14311,0.90146
406.124,45.80805,-2.32621,0.13621,0.90105
406.724,45.86673,-2.32752,0.13153,0.90064
407.324,45.9253,-2.32851,0.12493,0.90023
407.924,45.98384,-2.32886,0.11979,0.89981
408.524,46.04242,-2.33019,0.11633,0.8994
409.124,46.10089,-2.33148,0.11241,0.89899
409.724,46.15913,-2.33148,0.10944,0.89857
410.324,46.21747,-2.3333,0.10755,0.89816
410.924,46.27567,-2.3363,0.10579,0.89774
411.524,46.33395,-2.33792,0.10414,0.89733
412.124,46.3928,-2.3392,0.10104,0.89691
412.724,46.45145,-2.34046,0.09968235,0.89649
413.324,46.51025,-2.3419,0.09903552,0.89608
413.924,46.5689,-2.34256,0.09654711,0.89566
414.524,46.62726,-2.34372,0.0951533,0.89524
415.124,46.68568,-2.34454,0.0941733,0.89482
415.724,46.7442,-2.34545,0.09389806,0.8944
416.324,46.8029,-2.34719,0.09049283,0.89399
416.924,46.86172,-2.34925,0.08912187,0.89357
417.524,46.92027,-2.3519,0.08651442,0.89315
418.124,46.97894,-2.35416,0.08269383,0.89273
418.724,47.03763,-2.35748,0.08020701,0.8923
419.324,47.0965,-2.35841,0.07557709,0.89188
419.924,47.15555,-2.36034,0.0707286,0.89146
420.524,47.2144,-2.36397,0.06807626,0.89104
421.124,47.27303,-2.36655,0.06838132,0.89062
421.724,47.33177,-2.36968,0.06706022,0.89019
422.324,47.39047,-2.3709,0.06608864,0.88977
422.924,47.44915,-2.37308,0.06530858,0.88935
423.524,47.508,-2.37546,0.06328871,0.88892
424.124,47.56661,-2.37829,0.0646799,0.8885
424.724,47.62514,-2.3812,0.06277775,0.88807
425.324,47.68353,-2.38404,0.06491449,0.88765
425.924,47.74198,-2.38427,0.06465974,0.88722
426.524,47.80063,-2.38786,0.06688531,0.8868
427.124,47.85946,-2.39155,0.06835972,0.88637
427.724,47.9182,-2.39595,0.06832906,0.88594
428.324,47.97681,-2.39928,0.06971885,0.88552
428.924,48.03541,-2.40265,0.07041431,0.88509
429.524,48.09383,-2.4069,0.07118188,0.88466
430.124,48.15231,-2.41144,0.07219176,0.88423
430.724,48.21105,-2.41649,0.07540422,0.8838
431.324,48.26982,-2.42156,0.0761888,0.88337
431.924,48.3289,-2.42411,0.07687752,0.88294
432.524,48.38779,-2.42857,0.078807,0.88251
433.124,48.4465,-2.43361,0.08219334,0.88208
433.724,48.50526,-2.43912,0.08443961,0.88165
434.324,48.564,-2.44464,0.08662858,0.88122
434.924,48.62292,-2.4504,0.08820139,0.88079
435.524,48.68204,-2.45488,0.09190845,0.88035
436.124,48.741,-2.46026,0.09516676,0.87992
436.724,48.8001,-2.46561,0.0957091,0.87949
437.324,48.85901,-2.47022,0.09943112,0.87905
437.924,48.91791,-2.47543,0.10302,0.87862
438.524,48.97659,-2.48243,0.1066,0.87818
439.124,49.035,-2.48946,0.11147,0.87775
439.724,49.0938,-2.49645,0.11494,0.87731
440.324,49.15256,-2.50332,0.11984,0.87688
440.924,49.21159,-2.50991,0.12274,0.87644
441.524,49.27082,-2.51711,0.12747,0.876
442.124,49.32954,-2.52416,0.13356,0.87557
442.724,49.38838,-2.53238,0.13745,0.87513
443.324,49.4473,-2.54026,0.14175,0.87469
443.924,49.50634,-2.5468,0.14533,0.87425
444.524,49.5653,-2.55562,0.15418,0.87381
445.124,49.62455,-2.56183,0.15889,0.87338
445.724,49.68342,-2.56953,0.16402,0.87294
446.324,49.74216,-2.57764,0.16922,0.8725
446.924,49.80113,-2.58628,0.17446,0.87206
447.524,49.86,-2.59383,0.17729,0.87161
448.124,49.9193,-2.60134,0.18133,0.87117
448.724,49.97822,-2.60908,0.18822,0.87073
449.324,50.03716,-2.61598,0.19263,0.87029
449.924,50.09605,-2.62575,0.19693,0.86985
450.524,50.15488,-2.63403,0.20244,0.8694
451.124,50.21379,-2.64001,0.20445,0.86896
451.724,50.2727,-2.64902,0.20775,0.86852
452.324,50.3315,-2.65614,0.21163,0.86807
452.924,50.39051,-2.66483,0.21546,0.86763
453.524,50.4493,-2.67533,0.21598,0.86718
454.124,50.50844,-2.68545,0.2204,0.86674
454.724,50.56733,-2.69415,0.22434,0.86629
455.324,50.62635,-2.70269,0.22854,0.86585
455.924,50.6855,-2.71087,0.2291,0.8654
456.524,50.74463,-2.71941,0.23594,0.86495
457.124,50.80393,-2.7276,0.24052,0.86451
457.724,50.86302,-2.73688,0.24829,0.86406
458.324,50.9221,-2.74697,0.25314,0.86361
458.924,50.98124,-2.75584,0.25639,0.86316
459.524,51.0401,-2.76505,0.25865,0.86271
460.124,51.0989,-2.77519,0.25947,0.86226
460.724,51.15794,-2.78322,0.26313,0.86181
461.324,51.21686,-2.79113,0.26367,0.86136
461.924,51.27609,-2.80085,0.26553,0.86091
462.524,51.33518,-2.81085,0.2671,0.86046
463.124,51.39427,-2.81778,0.26647,0.86001
463.724,51.45322,-2.82686,0.26892,0.85956
464.324,51.51231,-2.83322,0.26635,0.85911
464.924,51.57135,-2.84124,0.26609,0.85865
465.524,51.6304,-2.85153,0.26863,0.8582
466.124,51.68954,-2.86091,0.26926,0.85775
466.724,51.7487,-2.86923,0.26833,0.85729
467.324,51.80789,-2.88097,0.26964,0.85684
467.924,51.86678,-2.88985,0.2714,0.85638
468.524,51.92579,-2.89773,0.26992,0.85593
469.124,51.9848,-2.90692,0.26859,0.85547
469.724,52.04397,-2.91395,0.26971,0.85502
470.324,52.10313,-2.92045,0.26946,0.85456
470.924,52.16219,-2.92848,0.26899,0.8541
471.524,52.22129,-2.93755,0.26861,0.85365
472.124,52.28042,-2.9447,0.26811,0.85319
472.724,52.33951,-2.95353,0.26617,0.85273
473.324,52.39881,-2.96027,0.26649,0.85227
473.924,52.45802,-2.96713,0.2665,0.85181
474.524,52.51706,-2.97604,0.26611,0.85136
475.124,52.5762,-2.98391,0.26706,0.8509
475.724,52.6354,-2.98915,0.26406,0.85044
476.324,52.6946,-2.99538,0.26154,0.84998
476.924,52.7539,-2.9999,0.26109,0.84952
477.524,52.81318,-3.00782,0.26054,0.84905
478.124,52.87223,-3.01382,0.26067,0.84859
478.724,52.9313,-3.02044,0.25953,0.84813
479.324,52.99029,-3.02488,0.25888,0.84767
479.924,53.0493,-3.03125,0.25727,0.84721
480.524,53.1084,-3.03859,0.25598,0.84674
481.124,53.1678,-3.04671,0.25493,0.84628
481.724,53.227,-3.05313,0.25346,0.84582
482.324,53.2862,-3.05948,0.25333,0.84535
482.924,53.3452,-3.06345,0.25187,0.84489
483.524,53.40438,-3.06987,0.24923,0.84442
484.124,53.4633,-3.07687,0.24761,0.84396
484.724,53.52245,-3.08191,0.24586,0.84349
485.324,53.5818,-3.08731,0.24706,0.84302
485.924,53.641,-3.09327,0.24675,0.84256
486.524,53.70064,-3.09745,0.24467,0.84209
487.124,53.75988,-3.10111,0.24189,0.84162
487.724,53.8193,-3.10622,0.23904,0.84116
488.324,53.87875,-3.11035,0.23827,0.84069
488.924,53.9381,-3.11679,0.23764,0.84022
489.524,53.9974,-3.12164,0.23759,0.83975
490.124,54.0567,-3.12547,0.23676,0.83928
490.724,54.1161,-3.12901,0.23653,0.83881
491.324,54.17545,-3.13177,0.23389,0.83834
491.924,54.2347,-3.13698,0.23454,0.83787
492.524,54.2941,-3.14078,0.22966,0.8374
493.124,54.35326,-3.14622,0.22876,0.83693
493.724,54.41274,-3.15079,0.22957,0.83646
494.324,54.4719,-3.15287,0.22831,0.83599
494.924,54.53115,-3.15525,0.2274,0.83551
495.524,54.5906,-3.15865,0.22584,0.83504
496.124,54.6499,-3.16338,0.22641,0.83457
496.724,54.7094,-3.16704,0.22474,0.83409
497.324,54.76874,-3.1694,0.22354,0.83362
497.924,54.82813,-3.17351,0.22335,0.83315
498.524,54.8872,-3.17476,0.22475,0.83267
499.124,54.9464,-3.17687,0.22142,0.8322
499.724,55.0057,-3.18062,0.21893,0.83172
500.324,55.0651,-3.18231,0.21857,0.83125
500.924,55.12484,-3.18574,0.21845,0.83077
501.524,55.18424,-3.18943,0.21738,0.83029
502.124,55.2436,-3.19253,0.21835,0.82982
502.724,55.30295,-3.19333,0.21591,0.82934
503.324,55.36231,-3.19393,0.2148,0.82886
503.924,55.42142,-3.19534,0.21278,0.82838
504.524,55.48075,-3.19819,0.21546,0.8279
505.124,55.54014,-3.20141,0.21547,0.82743
505.724,55.5997,-3.20366,0.21395,0.82695
506.324,55.6594,-3.20526,0.21317,0.82647
506.924,55.7188,-3.20696,0.21351,0.82599
507.524,55.7783,-3.20921,0.21212,0.82551
508.124,55.8376,-3.21069,0.21233,0.82503
508.724,55.8972,-3.21316,0.20948,0.82454
509.324,55.9565,-3.21449,0.21049,0.82406
509.924,56.0163,-3.21578,0.2119,0.82358
510.524,56.0758,-3.21725,0.21202,0.8231
511.124,56.1353,-3.21852,0.21113,0.82262
511.724,56.19478,-3.21955,0.20665,0.82213
512.324,56.25422,-3.21979,0.20807,0.82165
512.924,56.3136,-3.22136,0.21026,0.82117
513.524,56.3731,-3.22262,0.21119,0.82068
514.124,56.4326,-3.2239,0.2087,0.8202
514.724,56.49195,-3.22546,0.2099,0.81971
515.324,56.55151,-3.2272,0.20868,0.81923
515.924,56.61099,-3.22926,0.20749,0.81874
516.524,56.67077,-3.22928,0.20945,0.81826
517.124,56.7302,-3.22928,0.20719,0.81777
517.724,56.78963,-3.23059,0.21092,0.81728
518.324,56.84904,-3.23059,0.21051,0.8168
518.924,56.90857,-3.23323,0.21042,0.81631
519.524,56.9681,-3.23259,0.21024,0.81582
520.124,57.0277,-3.23386,0.20983,0.81533
520.724,57.08741,-3.23541,0.21068,0.81485
521.324,57.14699,-3.2367,0.21137,0.81436
521.924,57.2064,-3.23785,0.2093,0.81387
522.524,57.26585,-3.2385,0.20962,0.81338
523.124,57.32546,-3.23843,0.2104,0.81289
523.724,57.3851,-3.23918,0.21119,0.8124
524.324,57.44481,-3.23981,0.21244,0.81191
524.924,57.5044,-3.24113,0.21433,0.81142
525.524,57.5639,-3.24113,0.21573,0.81093
526.124,57.6235,-3.24113,0.21596,0.81043
526.724,57.68274,-3.24255,0.218,0.80994
527.324,57.7421,-3.24245,0.21924,0.80945
527.924,57.80157,-3.24381,0.22181,0.80896
528.524,57.8613,-3.24508,0.22087,0.80846
529.124,57.92116,-3.24509,0.22349,0.80797
529.724,57.9808,-3.24641,0.22364,0.80748
530.324,58.0403,-3.24641,0.22546,0.80698
530.924,58.09972,-3.24704,0.22543,0.80649
531.524,58.1592,-3.2464,0.22497,0.80599
532.124,58.21884,-3.24706,0.22753,0.8055
532.724,58.27876,-3.24772,0.22973,0.805
533.324,58.3384,-3.24772,0.23318,0.80451
533.924,58.398,-3.24796,0.23498,0.80401
534.524,58.4576,-3.24904,0.23969,0.80351
535.124,58.5172,-3.25035,0.2383,0.80302
535.724,58.57676,-3.25035,0.24122,0.80252
536.324,58.6364,-3.24914,0.24597,0.80202
536.924,58.69607,-3.25036,0.24745,0.80152
537.524,58.7555,-3.25036,0.25073,0.80102
538.124,58.8151,-3.25026,0.25457,0.80052
538.724,58.8745,-3.25168,0.256,0.80003
539.324,58.93415,-3.25168,0.25955,0.79953
539.924,58.99377,-3.25168,0.25862,0.79903
540.524,59.05327,-3.25035,0.25981,0.79853
541.124,59.11264,-3.25039,0.26127,0.79803
541.724,59.17241,-3.25168,0.26551,0.79752
542.324,59.232,-3.25257,0.26629,0.79702
542.924,59.2916,-3.25319,0.26579,0.79652
543.524,59.3515,-3.25431,0.26531,0.79602
544.124,59.4111,-3.25513,0.26965,0.79552
544.724,59.47113,-3.25563,0.26835,0.79502
545.324,59.5308,-3.25432,0.27053,0.79451
545.924,59.59064,-3.25563,0.27035,0.79401
546.524,59.65044,-3.25492,0.27067,0.79351
547.124,59.7102,-3.25596,0.2696,0.793
547.724,59.7697,-3.25596,0.27229,0.7925
548.324,59.8293,-3.25596,0.27107,0.79199
548.924,59.8889,-3.25859,0.27248,0.79149
549.524,59.94857,-3.25859,0.27543,0.79098
550.124,60.0083,-3.25986,0.28078,0.79048
550.724,60.06795,-3.26045,0.28197,0.78997
551.324,60.12763,-3.25991,0.28148,0.78946
551.924,60.18728,-3.26131,0.28235,0.78896
552.524,60.2468,-3.25991,0.2831,0.78845
553.124,60.30627,-3.25991,0.28408,0.78794
553.724,60.36583,-3.25991,0.28436,0.78744
554.324,60.42552,-3.26122,0.28627,0.78693
554.924,60.48528,-3.26133,0.28684,0.78642
555.524,60.54476,-3.25861,0.2872,0.78591
556.124,60.6045,-3.25859,0.28636,0.7854
556.724,60.66417,-3.25859,0.28614,0.78489
557.324,60.7238,-3.25859,0.28744,0.78438
557.924,60.7831,-3.25851,0.28766,0.78387
558.524,60.84245,-3.25994,0.2878,0.78336
559.124,60.9021,-3.26123,0.28811,0.78285
559.724,60.9619,-3.26255,0.28746,0.78234
560.324,61.02189,-3.26283,0.29125,0.78183
560.924,61.08165,-3.26286,0.29099,0.78132
561.524,61.14155,-3.26352,0.28865,0.78081
562.124,61.20149,-3.26221,0.29185,0.78029
562.724,61.2612,-3.26354,0.28977,0.77978
563.324,61.3208,-3.26352,0.29049,0.77927
563.924,61.38072,-3.26287,0.29347,0.77875
564.524,61.44066,-3.26222,0.2888,0.77824
565.124,61.5008,-3.26294,0.28963,0.77773
565.724,61.56095,-3.26287,0.28953,0.77721
566.324,61.6209,-3.26287,0.28904,0.7767
566.924,61.6809,-3.26394,0.29025,0.77618
567.524,61.74086,-3.26416,0.29056,0.77567
568.124,61.80076,-3.26682,0.29025,0.77515
568.724,61.86059,-3.26682,0.29219,0.77464
569.324,61.9205,-3.26442,0.28895,0.77412
569.924,61.98044,-3.26419,0.28978,0.7736
570.524,62.0403,-3.26419,0.28974,0.77309
571.124,62.1004,-3.26419,0.28735,0.77257
571.724,62.1603,-3.26421,0.28696,0.77205
572.324,62.22028,-3.26287,0.28797,0.77154
572.924,62.2801,-3.26287,0.2892,0.77102
573.524,62.3398,-3.26551,0.28859,0.7705
574.124,62.3995,-3.26551,0.28708,0.76998
574.724,62.45916,-3.26551,0.28724,0.76946
575.324,62.51916,-3.26682,0.28819,0.76894
575.924,62.57911,-3.26682,0.28987,0.76842
576.524,62.6392,-3.26551,0.28833,0.7679
577.124,62.699,-3.2665,0.29076,0.76738
577.724,62.7589,-3.26683,0.28943,0.76686
578.324,62.81889,-3.26779,0.28894,0.76634
578.924,62.87876,-3.26815,0.28834,0.76582
579.524,62.93865,-3.26946,0.28776,0.7653
580.124,62.99853,-3.26819,0.28759,0.76478
580.724,63.0584,-3.26816,0.28818,0.76425
581.324,63.1184,-3.26946,0.28888,0.76373
581.924,63.17835,-3.26798,0.28702,0.76321
582.524,63.23819,-3.26792,0.28546,0.76269
583.124,63.29806,-3.26792,0.28585,0.76216
583.724,63.35795,-3.26794,0.28405,0.76164
584.324,63.41786,-3.27057,0.28297,0.76111
584.924,63.47804,-3.27056,0.28305,0.76059
585.524,63.5379,-3.27056,0.28076,0.76007
586.124,63.59788,-3.27056,0.27884,0.75954
586.724,63.65786,-3.27056,0.27901,0.75902
587.324,63.71768,-3.27056,0.27588,0.75849
587.924,63.77769,-3.27056,0.27434,0.75797
588.524,63.83745,-3.27057,0.27404,0.75744
589.124,63.89736,-3.27056,0.26968,0.75691
589.724,63.9572,-3.27056,0.27089,0.75639
590.324,64.0171,-3.27056,0.26923,0.75586
590.924,64.07745,-3.27057,0.26852,0.75533
591.524,64.13754,-3.27117,0.26773,0.7548
592.124,64.19768,-3.27191,0.26411,0.75428
592.724,64.2577,-3.27056,0.26456,0.75375
593.324,64.31769,-3.2705,0.26181,0.75322
593.924,64.37781,-3.27188,0.26245,0.75269
594.524,64.4379,-3.27188,0.26161,0.75216
595.124,64.49803,-3.27188,0.25972,0.75163
595.724,64.55799,-3.27264,0.25777,0.7511
596.324,64.61783,-3.27187,0.25503,0.75057
596.924,64.67777,-3.27319,0.25445,0.75004
597.524,64.7379,-3.27319,0.25372,0.74951
598.124,64.79799,-3.27345,0.25343,0.74898
598.724,64.85843,-3.27451,0.25115,0.74845
599.324,64.9184,-3.2755,0.25017,0.74792
599.924,64.97836,-3.2755,0.24926,0.74739
600.524,65.03836,-3.2755,0.24821,0.74686
601.124,65.09835,-3.27551,0.24731,0.74632
601.724,65.15866,-3.27451,0.24521,0.74579
602.324,65.21866,-3.27451,0.24334,0.74526
602.924,65.27864,-3.27451,0.2404,0.74473
603.524,65.3387,-3.27614,0.2427,0.74419
604.124,65.39838,-3.27616,0.23932,0.74366
604.724,65.45867,-3.27484,0.23918,0.74313
605.324,65.5188,-3.27484,0.23567,0.74259
605.924,65.57934,-3.27352,0.23506,0.74206
606.524,65.6395,-3.27352,0.2306,0.74152
607.124,65.69935,-3.27519,0.22816,0.74099
607.724,65.7594,-3.27616,0.22884,0.74045
608.324,65.81971,-3.27484,0.22589,0.73992
608.924,65.88009,-3.27352,0.22352,0.73938
609.524,65.94076,-3.27486,0.22377,0.73885
610.124,66.00111,-3.27597,0.21914,0.73831
610.724,66.06135,-3.27711,0.21621,0.73777
611.324,66.1217,-3.27748,0.2185,0.73724
611.924,66.18183,-3.27879,0.2167,0.7367
612.524,66.24203,-3.27879,0.21566,0.73616
613.124,66.30236,-3.2801,0.21155,0.73562
613.724,66.36279,-3.27737,0.21225,0.73509
614.324,66.42309,-3.27747,0.21056,0.73455
614.924,66.48308,-3.27747,0.20731,0.73401
615.524,66.54321,-3.27747,0.20857,0.73347
616.124,66.60316,-3.27747,0.20626,0.73293
616.724,66.66343,-3.27877,0.20185,0.73239
617.324,66.7235,-3.27748,0.20439,0.73185
617.924,66.7837,-3.2788,0.20471,0.73131
618.524,66.84393,-3.2788,0.20428,0.73077
619.124,66.90425,-3.2788,0.20516,0.73023
619.724,66.9644,-3.2802,0.20323,0.72969
620.324,67.0244,-3.28011,0.20359,0.72915
620.924,67.08439,-3.28013,0.20417,0.72861
621.524,67.14437,-3.28142,0.20718,0.72807
622.124,67.2046,-3.28142,0.20517,0.72753
622.724,67.26479,-3.28142,0.20644,0.72698
623.324,67.32473,-3.28142,0.20426,0.72644
623.924,67.3848,-3.28013,0.2038,0.7259
624.524,67.4448,-3.28011,0.20427,0.72536
625.124,67.5048,-3.28011,0.20761,0.72481
625.724,67.565,-3.28016,0.20869,0.72427
626.324,67.62485,-3.28011,0.20653,0.72373
626.924,67.68486,-3.28011,0.20411,0.72318
627.524,67.7452,-3.28045,0.20925,0.72264
628.124,67.80537,-3.28297,0.21061,0.7221
628.724,67.86579,-3.2816,0.21035,0.72155
629.324,67.92574,-3.28022,0.21013,0.72101
629.924,67.98526,-3.28022,0.20815,0.72046
630.524,68.04508,-3.28058,0.21095,0.71992
631.124,68.10505,-3.28084,0.21392,0.71937
631.724,68.1651,-3.27711,0.21482,0.71883
632.324,68.22506,-3.27781,0.21449,0.71828
632.924,68.28524,-3.27782,0.21813,0.71773
633.524,68.3454,-3.27845,0.21506,0.71719
634.124,68.4058,-3.27781,0.21609,0.71664
634.724,68.46615,-3.27781,0.21744,0.71609
635.324,68.52634,-3.27781,0.21974,0.71555
635.924,68.58678,-3.27857,0.21891,0.715
636.524,68.6469,-3.27913,0.21857,0.71445
637.124,68.70702,-3.27913,0.22133,0.7139
637.724,68.76695,-3.27815,0.2262,0.71336
638.324,68.827,-3.27662,0.22278,0.71281
638.924,68.887,-3.283,0.22228,0.71226
639.524,68.94711,-3.28113,0.21995,0.71171
640.124,69.0074,-3.28132,0.2254,0.71116
640.724,69.06783,-3.28045,0.22558,0.71061
641.324,69.12853,-3.28065,0.22844,0.71006
641.924,69.1891,-3.28065,0.23127,0.70951
642.524,69.24937,-3.28098,0.23091,0.70896
643.124,69.30956,-3.2823,0.23168,0.70841
643.724,69.36972,-3.28232,0.23429,0.70786
644.324,69.42971,-3.28164,0.23586,0.70731
644.924,69.48995,-3.28169,0.24063,0.70676
645.524,69.55029,-3.28541,0.24019,0.70621
646.124,69.61069,-3.2856,0.23893,0.70566
646.724,69.67102,-3.2843,0.24397,0.70511
647.324,69.7312,-3.28376,0.24431,0.70455
647.924,69.79148,-3.28296,0.2441,0.704
648.524,69.8518,-3.28296,0.24424,0.70345
649.124,69.9122,-3.28302,0.24764,0.7029
649.724,69.97278,-3.28314,0.2496,0.70234
649.924,69.99329,-3.28434,0.25186,0.70216