File: 01_Data/PVC_Pipe/STA/N2/10K_min/PVC_Pipe_STA_N2_10KData_22075_R3.csv
##Temp./Â°C,Time/min,Mass loss(subtr.2)/mg,DSC(subtr.2)/(mW/mg),Sensit./(uV/mW)
49.772,10.01,0.01197,-0.002873241,1.07016
50.372,10.7384,0.01441392,0.01530803,1.06999
50.972,10.92725,0.01875689,0.03344229,1.06983
51.572,11.06832,0.01949979,0.04830257,1.06966
52.172,11.18779,0.01990156,0.05771978,1.0695
52.772,11.29262,0.01941799,0.06800768,1.06933
53.372,11.38901,0.01992966,0.07631917,1.06916
53.972,11.47954,0.02113249,0.08617605,1.069
54.572,11.5649,0.01934506,0.09152342,1.06883
55.172,11.64661,0.0215858,0.09867466,1.06866
55.772,11.72622,0.0220623,0.10365,1.06849
56.372,11.80381,0.02196297,0.10925,1.06833
56.972,11.87857,0.02054572,0.11293,1.06816
57.572,11.95094,0.02165007,0.11848,1.06799
58.172,12.02298,0.02212902,0.12079,1.06782
58.772,12.09415,0.02176003,0.12658,1.06765
59.372,12.1649,0.02174073,0.13232,1.06748
59.972,12.23374,0.02037907,0.13388,1.06731
60.572,12.30208,0.02042286,0.13725,1.06713
61.172,12.36978,0.02041528,0.14083,1.06696
61.772,12.43713,0.01840722,0.14699,1.06679
62.372,12.50431,0.01741898,0.14989,1.06662
62.972,12.57085,0.01602008,0.15565,1.06645
63.572,12.6369,0.01486163,0.15923,1.06627
64.172,12.7027,0.01506927,0.16023,1.0661
64.772,12.76833,0.01373033,0.16037,1.06593
65.372,12.8337,0.01248394,0.15969,1.06575
65.972,12.89862,0.01372479,0.15587,1.06558
66.572,12.96348,0.0133529,0.15003,1.0654
67.172,13.02845,0.01351262,0.14596,1.06523
67.772,13.09335,0.01247212,0.14351,1.06505
68.372,13.1582,0.01240809,0.14137,1.06488
68.972,13.22248,0.01109067,0.13954,1.0647
69.572,13.2864,0.009775082,0.13993,1.06452
70.172,13.3502,0.009780357,0.13829,1.06435
70.772,13.41395,0.01006933,0.137,1.06417
71.372,13.4774,0.01133269,0.13737,1.06399
71.972,13.5403,0.01417982,0.1375,1.06381
72.572,13.60343,0.01387642,0.13705,1.06363
73.172,13.66675,0.01256202,0.13706,1.06345
73.772,13.73008,0.01240001,0.13827,1.06327
74.372,13.7934,0.01239127,0.13875,1.06309
74.972,13.85614,0.01244652,0.13817,1.06291
75.572,13.9188,0.01265003,0.13813,1.06273
76.172,13.9817,0.01237202,0.14061,1.06255
76.772,14.04449,0.01368428,0.13846,1.06237
77.372,14.1067,0.01231473,0.14059,1.06219
77.972,14.16886,0.01499834,0.14056,1.06201
78.572,14.2307,0.0137373,0.14121,1.06183
79.172,14.2929,0.01351186,0.14158,1.06164
79.772,14.35472,0.01351,0.14125,1.06146
80.372,14.41639,0.01351,0.14381,1.06128
80.972,14.4782,0.01351143,0.14654,1.06109
81.572,14.5391,0.01483118,0.14741,1.06091
82.172,14.60004,0.0148306,0.15074,1.06072
82.772,14.66134,0.01305511,0.15396,1.06054
83.372,14.7225,0.01349846,0.15818,1.06035
83.972,14.7843,0.01349958,0.16023,1.06017
84.572,14.8452,0.0147619,0.16326,1.05998
85.172,14.90611,0.0161129,0.16941,1.05979
85.772,14.96695,0.01482985,0.17463,1.05961
86.372,15.02788,0.01562078,0.17749,1.05942
86.972,15.08867,0.01396306,0.18103,1.05923
87.572,15.1493,0.01351,0.18383,1.05904
88.172,15.2098,0.01351,0.18458,1.05885
88.772,15.2699,0.01351024,0.18697,1.05867
89.372,15.32951,0.0135194,0.18907,1.05848
89.972,15.38975,0.0135023,0.18853,1.05829
90.572,15.45,0.0141601,0.18725,1.0581
91.172,15.51034,0.01416024,0.18874,1.05791
91.772,15.57037,0.01318092,0.18639,1.05772
92.372,15.63016,0.01318253,0.18626,1.05752
92.972,15.69002,0.01186003,0.18612,1.05733
93.572,15.7501,0.01087106,0.1827,1.05714
94.172,15.8099,0.009886862,0.18255,1.05695
94.772,15.8696,0.01087043,0.18402,1.05676
95.372,15.92914,0.01088109,0.18363,1.05656
95.972,15.9886,0.01350281,0.18415,1.05637
96.572,16.04778,0.01480444,0.18209,1.05618
97.172,16.107,0.01482144,0.18158,1.05598
97.772,16.16631,0.01487807,0.18255,1.05579
98.372,16.22546,0.01452897,0.18391,1.05559
98.972,16.28462,0.01350233,0.18385,1.0554
99.572,16.3435,0.01420598,0.18517,1.0552
100.172,16.4025,0.01351045,0.18536,1.055
100.772,16.4616,0.01351,0.18753,1.05481
101.372,16.52064,0.01351,0.18804,1.05461
101.972,16.57991,0.01351,0.19082,1.05441
102.572,16.6388,0.01294896,0.19216,1.05422
103.172,16.69762,0.01218987,0.19449,1.05402
103.772,16.75657,0.01219,0.19478,1.05382
104.372,16.81561,0.01218993,0.19805,1.05362
104.972,16.8746,0.0119548,0.19819,1.05342
105.572,16.9336,0.01087473,0.20036,1.05322
106.172,16.99269,0.009561709,0.20276,1.05302
106.772,17.05173,0.01005364,0.20275,1.05282
107.372,17.11061,0.01087996,0.20231,1.05262
107.972,17.16923,0.01088,0.20635,1.05242
108.572,17.2278,0.01088,0.20781,1.05222
109.172,17.28668,0.01087465,0.20764,1.05202
109.772,17.34526,0.01153469,0.21015,1.05181
110.372,17.4039,0.01158601,0.21357,1.05161
110.972,17.46239,0.01223661,0.21485,1.05141
111.572,17.52075,0.01219001,0.21551,1.0512
112.172,17.5798,0.01219,0.21704,1.051
112.772,17.6382,0.01219534,0.21941,1.0508
113.372,17.6969,0.01086444,0.21879,1.05059
113.972,17.75565,0.01218829,0.22038,1.05039
114.572,17.81414,0.01078549,0.22261,1.05018
115.172,17.87313,0.01227788,0.2249,1.04997
115.772,17.93179,0.01094885,0.22535,1.04977
116.372,17.99025,0.01219004,0.22668,1.04956
116.972,18.0487,0.01219001,0.22889,1.04936
117.572,18.1069,0.01221524,0.22695,1.04915
118.172,18.16525,0.01480687,0.23101,1.04894
118.772,18.22364,0.01483135,0.23098,1.04873
119.372,18.28204,0.01417574,0.23189,1.04852
119.972,18.34047,0.01417,0.23229,1.04831
120.572,18.3987,0.01417114,0.2308,1.0481
121.172,18.4569,0.01365142,0.23448,1.0479
121.772,18.51515,0.01352336,0.23577,1.04769
122.372,18.57345,0.0135458,0.23578,1.04747
122.972,18.63178,0.01330689,0.23467,1.04726
123.572,18.68993,0.0135,0.23695,1.04705
124.172,18.7481,0.0135,0.23702,1.04684
124.772,18.8064,0.01350121,0.24021,1.04663
125.372,18.86456,0.01270809,0.24006,1.04642
125.972,18.92274,0.01318013,0.24014,1.0462
126.572,18.98079,0.01318,0.24179,1.04599
127.172,19.0387,0.01317005,0.24111,1.04578
127.772,19.0967,0.01218923,0.24425,1.04556
128.372,19.1547,0.01219228,0.24351,1.04535
128.972,19.21282,0.01186191,0.24462,1.04513
129.572,19.2711,0.01086788,0.24493,1.04492
130.172,19.3293,0.01120102,0.24562,1.0447
130.772,19.38747,0.01216946,0.24504,1.04449
131.372,19.44556,0.01350836,0.24697,1.04427
131.972,19.50356,0.01350507,0.24795,1.04405
132.572,19.5613,0.01482882,0.24759,1.04384
133.172,19.61935,0.01486298,0.24988,1.04362
133.772,19.6775,0.0135118,0.24883,1.0434
134.372,19.7353,0.01483632,0.24941,1.04318
134.972,19.7932,0.01483033,0.25085,1.04296
135.572,19.85119,0.0137507,0.25175,1.04274
136.172,19.9091,0.01347471,0.25094,1.04252
136.772,19.9672,0.01349861,0.24913,1.0423
137.372,20.02521,0.01448236,0.25086,1.04208
137.972,20.08323,0.01350973,0.25276,1.04186
138.572,20.14115,0.01351,0.25133,1.04164
139.172,20.1993,0.01350745,0.2517,1.04142
139.772,20.2572,0.01482894,0.25382,1.0412
140.372,20.31503,0.01483002,0.25281,1.04098
140.972,20.37301,0.01486188,0.25605,1.04075
141.572,20.4309,0.01347921,0.25336,1.04053
142.172,20.48881,0.01219022,0.25482,1.04031
142.772,20.54678,0.0121837,0.25488,1.04008
143.372,20.6047,0.01226308,0.25537,1.03986
143.972,20.66264,0.01219001,0.25735,1.03963
144.572,20.72033,0.01218909,0.25553,1.03941
145.172,20.77795,0.01315629,0.25435,1.03918
145.772,20.83557,0.01255846,0.25568,1.03896
146.372,20.89326,0.01218983,0.2578,1.03873
146.972,20.95101,0.01219532,0.25865,1.0385
147.572,21.00875,0.01090512,0.25875,1.03828
148.172,21.06638,0.009560034,0.25831,1.03805
148.772,21.12419,0.009550005,0.25776,1.03782
149.372,21.18215,0.00955,0.26032,1.03759
149.972,21.24011,0.009550002,0.26066,1.03736
150.572,21.29809,0.009474066,0.26062,1.03714
151.172,21.35578,0.01086989,0.26013,1.03691
151.772,21.41335,0.01086991,0.26176,1.03668
152.372,21.47093,0.00950492,0.26238,1.03645
152.972,21.52824,0.009554895,0.26264,1.03621
153.572,21.5858,0.007560095,0.26177,1.03598
154.172,21.64302,0.00626093,0.26225,1.03575
154.772,21.70046,0.007577613,0.26373,1.03552
155.372,21.75835,0.008901159,0.2629,1.03529
155.972,21.816,0.008901952,0.26586,1.03506
156.572,21.87402,0.0102273,0.26432,1.03482
157.172,21.93141,0.0112488,0.26541,1.03459
157.772,21.98883,0.0109196,0.26604,1.03435
158.372,22.0463,0.01053922,0.26405,1.03412
158.972,22.1037,0.01021978,0.26448,1.03389
159.572,22.16155,0.009409104,0.26473,1.03365
160.172,22.21927,0.008770045,0.26661,1.03341
160.772,22.27683,0.01083918,0.26536,1.03318
161.372,22.33451,0.01213127,0.26631,1.03294
161.972,22.39177,0.01207999,0.2663,1.03271
162.572,22.44945,0.01209515,0.26581,1.03247
163.172,22.5069,0.01211302,0.26578,1.03223
163.772,22.56423,0.0120799,0.26588,1.03199
164.372,22.62171,0.01068945,0.26669,1.03175
164.972,22.67875,0.01076004,0.26651,1.03152
165.572,22.736,0.01078806,0.26707,1.03128
166.172,22.79339,0.01107299,0.26726,1.03104
166.772,22.85078,0.0111,0.26732,1.0308
167.372,22.9085,0.0111,0.26673,1.03056
167.972,22.96596,0.0111,0.26503,1.03032
168.572,23.02357,0.0111,0.26539,1.03007
169.172,23.0812,0.0111,0.2663,1.02983
169.772,23.1388,0.01110007,0.26672,1.02959
170.372,23.1963,0.01170643,0.26802,1.02935
170.972,23.25375,0.01132759,0.26466,1.0291
171.572,23.31128,0.01042711,0.26486,1.02886
172.172,23.36881,0.01065999,0.26567,1.02862
172.772,23.4264,0.01056532,0.26522,1.02837
173.372,23.48389,0.01196986,0.26534,1.02813
173.972,23.54151,0.01197053,0.26571,1.02788
174.572,23.59899,0.01328389,0.26547,1.02764
175.172,23.65656,0.0119661,0.26472,1.02739
175.772,23.71355,0.01334188,0.26547,1.02715
176.372,23.77069,0.01328999,0.26538,1.0269
176.972,23.82796,0.01212409,0.26554,1.02665
177.572,23.8853,0.01298081,0.26436,1.02641
178.172,23.9433,0.01328982,0.26447,1.02616
178.772,24.00084,0.01300377,0.2644,1.02591
179.372,24.0583,0.0132832,0.26474,1.02566
179.972,24.11585,0.01327997,0.26462,1.02541
180.572,24.17324,0.01393761,0.26653,1.02516
181.172,24.23056,0.01460014,0.26529,1.02491
181.772,24.288,0.01592023,0.26466,1.02466
182.372,24.3452,0.01493106,0.26589,1.02441
182.972,24.40244,0.01492999,0.26523,1.02416
183.572,24.45966,0.01493411,0.2641,1.02391
184.172,24.5168,0.01327749,0.26572,1.02366
184.772,24.574,0.01328,0.26622,1.02341
185.372,24.6313,0.01328,0.26589,1.02315
185.972,24.6886,0.0132829,0.26536,1.0229
186.572,24.74595,0.0119449,0.26729,1.02265
187.172,24.80301,0.01196035,0.26525,1.02239
187.772,24.86027,0.01295983,0.26679,1.02214
188.372,24.91747,0.01279945,0.2669,1.02188
188.972,24.9749,0.01163833,0.26547,1.02163
189.572,25.0321,0.009188521,0.26514,1.02137
190.172,25.08907,0.009009996,0.26697,1.02112
190.772,25.14629,0.00901,0.26764,1.02086
191.372,25.20326,0.00900998,0.2683,1.0206
191.972,25.26033,0.009368513,0.26666,1.02035
192.572,25.3174,0.01032854,0.26793,1.02009
193.172,25.37436,0.009003212,0.26712,1.01983
193.772,25.43154,0.009009998,0.2668,1.01957
194.372,25.4885,0.00901,0.26946,1.01931
194.972,25.54549,0.00901,0.26805,1.01905
195.572,25.60218,0.00901,0.26895,1.01879
196.172,25.65917,0.009010001,0.26727,1.01853
196.772,25.71634,0.009015679,0.26718,1.01827
197.372,25.77361,0.00902096,0.26633,1.01801
197.972,25.831,0.009000009,0.2679,1.01775
198.572,25.88792,0.008980874,0.26713,1.01749
199.172,25.945,0.00932714,0.26936,1.01723
199.772,26.00186,0.009329999,0.26681,1.01696
200.372,26.05884,0.009329997,0.26709,1.0167
200.972,26.116,0.009315963,0.26753,1.01644
201.572,26.17284,0.008012559,0.26623,1.01617
202.172,26.22995,0.009340052,0.26672,1.01591
202.772,26.2869,0.009739678,0.26539,1.01564
203.372,26.34406,0.01065049,0.26645,1.01538
203.972,26.40105,0.009902529,0.26634,1.01511
204.572,26.45813,0.009329894,0.26615,1.01485
205.172,26.5151,0.009305454,0.26631,1.01458
205.772,26.5722,0.008019688,0.26728,1.01431
206.372,26.6292,0.00742902,0.26607,1.01405
206.972,26.6862,0.006709808,0.26579,1.01378
207.572,26.7432,0.006727029,0.26615,1.01351
208.172,26.80038,0.006999209,0.26578,1.01324
208.772,26.8575,0.0066999,0.2671,1.01297
209.372,26.9146,0.007360482,0.26728,1.0127
209.972,26.97147,0.00768602,0.26697,1.01243
210.572,27.0284,0.00638421,0.266,1.01216
211.172,27.08532,0.006379935,0.26406,1.01189
211.772,27.14242,0.00627666,0.26647,1.01162
212.372,27.1993,0.005060128,0.26599,1.01135
212.972,27.2559,0.00506,0.26579,1.01108
213.572,27.31322,0.00506,0.26485,1.01081
214.172,27.37045,0.005060001,0.26453,1.01053
214.772,27.42795,0.00505235,0.26422,1.01026
215.372,27.48525,0.004730616,0.26523,1.00999
215.972,27.54219,0.00473,0.26455,1.00971
216.572,27.59915,0.00473,0.26632,1.00944
217.172,27.6561,0.00473,0.26653,1.00916
217.772,27.71302,0.0047303,0.2652,1.00889
218.372,27.77007,0.003411027,0.26561,1.00861
218.972,27.8272,0.00294724,0.26643,1.00834
219.572,27.8843,0.0028394,0.26585,1.00806
220.172,27.94132,0.00209101,0.26625,1.00778
220.772,27.9984,0.002110432,0.26784,1.00751
221.372,28.0554,0.00307816,0.26941,1.00723
221.972,28.1123,0.00308323,0.27085,1.00695
222.572,28.1691,0.001758725,0.27091,1.00667
223.172,28.226,-0.000874978,0.27272,1.00639
223.772,28.2831,-0.0008462316,0.2741,1.00611
224.372,28.3401,0.0004411023,0.27266,1.00583
224.972,28.3971,0.002416791,0.27197,1.00555
225.572,28.45422,0.002420214,0.27284,1.00527
226.172,28.5113,0.00164517,0.27293,1.00499
226.772,28.56843,-0.000214848,0.27203,1.00471
227.372,28.6255,-0.002046782,0.27224,1.00443
227.972,28.68266,-0.002850103,0.27278,1.00414
228.572,28.73988,-0.00415312,0.27317,1.00386
229.172,28.79707,-0.004604189,0.27421,1.00358
229.772,28.85428,-0.00680081,0.27429,1.00329
230.372,28.9114,-0.0068003,0.27298,1.00301
230.972,28.96858,-0.005802476,0.27364,1.00273
231.572,29.02569,-0.00715892,0.27537,1.00244
232.172,29.0829,-0.00845106,0.2749,1.00216
232.772,29.13993,-0.009767903,0.27718,1.00187
233.372,29.1972,-0.01095343,0.27819,1.00158
233.972,29.25442,-0.01187236,0.27758,1.0013
234.572,29.31165,-0.01240817,0.27795,1.00101
235.172,29.3689,-0.01371969,0.27943,1.00072
235.772,29.42602,-0.01511629,0.27962,1.00043
236.372,29.48309,-0.01594234,0.27967,1.00014
236.972,29.5403,-0.01635003,0.27853,0.99986
237.572,29.59742,-0.01755864,0.28219,0.99957
238.172,29.65475,-0.01862094,0.28147,0.99928
238.772,29.7122,-0.02028559,0.28159,0.99899
239.372,29.76965,-0.0206312,0.28153,0.9987
239.972,29.8269,-0.02064645,0.28074,0.99841
240.572,29.88399,-0.02181662,0.27955,0.99811
241.172,29.9412,-0.02294564,0.28141,0.99782
241.772,29.9983,-0.02425903,0.28327,0.99753
242.372,30.05573,-0.02552793,0.28365,0.99724
242.972,30.11314,-0.02823054,0.28241,0.99694
243.572,30.17022,-0.02953661,0.284,0.99665
244.172,30.2273,-0.02954288,0.2838,0.99636
244.772,30.2844,-0.03090366,0.28361,0.99606
245.372,30.3415,-0.03221924,0.28601,0.99577
245.972,30.39899,-0.03347643,0.28668,0.99547
246.572,30.45634,-0.03516276,0.28887,0.99518
247.172,30.5135,-0.03744709,0.2881,0.99488
247.772,30.57065,-0.03783149,0.29001,0.99458
248.372,30.6279,-0.04149807,0.28931,0.99429
248.972,30.6851,-0.04283882,0.29008,0.99399
249.572,30.7424,-0.04336617,0.29454,0.99369
250.172,30.79915,-0.04546921,0.293,0.99339
250.772,30.8562,-0.04678455,0.29449,0.99309
251.372,30.91365,-0.04809347,0.29645,0.99279
251.972,30.971,-0.04938747,0.29668,0.9925
252.572,31.0288,-0.05071466,0.29849,0.9922
253.172,31.086,-0.05205279,0.29936,0.99189
253.772,31.14305,-0.05407636,0.30134,0.99159
254.372,31.2003,-0.05608166,0.30227,0.99129
254.972,31.25743,-0.05767996,0.30493,0.99099
255.572,31.3146,-0.05925248,0.30539,0.99069
256.172,31.37187,-0.06067333,0.30781,0.99039
256.772,31.42891,-0.06291021,0.30892,0.99008
257.372,31.48579,-0.06469117,0.31106,0.98978
257.972,31.543,-0.06590797,0.31327,0.98948
258.572,31.60009,-0.06905375,0.31338,0.98917
259.172,31.6573,-0.06907681,0.31449,0.98887
259.772,31.7145,-0.07211546,0.31882,0.98856
260.372,31.7716,-0.07509058,0.31935,0.98826
260.972,31.8287,-0.07740503,0.32003,0.98795
261.572,31.886,-0.07998132,0.32365,0.98764
262.172,31.94333,-0.0820641,0.32591,0.98734
262.772,32.00076,-0.08450436,0.32584,0.98703
263.372,32.05826,-0.08697367,0.32776,0.98672
263.972,32.11534,-0.0889987,0.3308,0.98641
264.572,32.17257,-0.09158856,0.33259,0.9861
265.172,32.2299,-0.09616043,0.33375,0.9858
265.772,32.28715,-0.09744393,0.33563,0.98549
266.372,32.34465,-0.10031,0.33792,0.98518
266.972,32.40214,-0.10435,0.34102,0.98487
267.572,32.45961,-0.10711,0.3435,0.98455
268.172,32.51692,-0.10802,0.34607,0.98424
268.772,32.57395,-0.111,0.3488,0.98393
269.372,32.6312,-0.11462,0.35257,0.98362
269.972,32.68864,-0.11932,0.35583,0.98331
270.572,32.74615,-0.12096,0.35545,0.98299
271.172,32.8037,-0.12514,0.36352,0.98268
271.772,32.86108,-0.12964,0.36546,0.98237
272.372,32.91854,-0.13364,0.3694,0.98205
272.972,32.97579,-0.13714,0.3726,0.98174
273.572,33.03289,-0.14084,0.37772,0.98142
274.172,33.09022,-0.14569,0.38297,0.98111
274.772,33.14765,-0.14944,0.38653,0.98079
275.372,33.20536,-0.15381,0.39192,0.98047
275.972,33.2629,-0.15843,0.39727,0.98016
276.572,33.31998,-0.16303,0.40108,0.97984
277.172,33.3773,-0.16786,0.40563,0.97952
277.772,33.43479,-0.17251,0.41052,0.9792
278.372,33.4918,-0.17929,0.41595,0.97889
278.972,33.5495,-0.18462,0.42277,0.97857
279.572,33.60683,-0.18963,0.4294,0.97825
280.172,33.66441,-0.19714,0.43627,0.97793
280.772,33.72255,-0.20222,0.44203,0.97761
281.372,33.78009,-0.21134,0.44973,0.97729
281.972,33.83753,-0.21612,0.45741,0.97696
282.572,33.89501,-0.22374,0.4658,0.97664
283.172,33.95262,-0.23271,0.47461,0.97632
283.772,34.01027,-0.23959,0.48287,0.976
284.372,34.06766,-0.24865,0.48987,0.97567
284.972,34.12519,-0.25721,0.49757,0.97535
285.572,34.18273,-0.26605,0.50803,0.97503
286.172,34.24049,-0.27467,0.51538,0.9747
286.772,34.29802,-0.28456,0.52655,0.97438
287.372,34.35557,-0.29465,0.53953,0.97405
287.972,34.4128,-0.30598,0.54981,0.97373
288.572,34.46994,-0.31891,0.56404,0.9734
289.172,34.52751,-0.33129,0.5788,0.97307
289.772,34.58504,-0.34391,0.60043,0.97275
290.372,34.6431,-0.35872,0.62205,0.97242
290.972,34.7012,-0.37285,0.64319,0.97209
291.572,34.75887,-0.39009,0.66813,0.97176
292.172,34.81653,-0.40933,0.70092,0.97144
292.772,34.8743,-0.42933,0.74257,0.97111
293.372,34.93212,-0.45387,0.79116,0.97078
293.972,34.99005,-0.48032,0.84225,0.97045
294.572,35.04803,-0.51322,0.89147,0.97012
295.172,35.10585,-0.54753,0.94478,0.96979
295.772,35.16359,-0.58493,0.99671,0.96945
296.372,35.22168,-0.62374,1.03913,0.96912
296.972,35.2798,-0.66402,1.07293,0.96879
297.572,35.3376,-0.70633,1.09466,0.96846
298.172,35.39526,-0.74618,1.10682,0.96812
298.772,35.45322,-0.78893,1.11201,0.96779
299.372,35.51117,-0.8296,1.11858,0.96746
299.972,35.5696,-0.87453,1.11721,0.96712
300.572,35.62743,-0.91495,1.1087,0.96679
301.172,35.68515,-0.95869,1.09697,0.96645
301.772,35.74286,-0.99795,1.06899,0.96612
302.372,35.80057,-1.03843,1.02992,0.96578
302.972,35.85795,-1.07423,0.9766,0.96544
303.572,35.9154,-1.10612,0.91331,0.96511
304.172,35.97263,-1.13316,0.84851,0.96477
304.772,36.02989,-1.15695,0.7878,0.96443
305.372,36.08718,-1.18027,0.73483,0.96409
305.972,36.14443,-1.20055,0.69575,0.96375
306.572,36.2016,-1.22121,0.66471,0.96341
307.172,36.25895,-1.24002,0.64174,0.96307
307.772,36.31619,-1.25914,0.6221,0.96273
308.372,36.37327,-1.27893,0.61026,0.96239
308.972,36.43046,-1.29668,0.60242,0.96205
309.572,36.4878,-1.31616,0.59618,0.96171
310.172,36.54524,-1.33417,0.5918,0.96137
310.772,36.6027,-1.35267,0.58763,0.96103
311.372,36.6596,-1.37078,0.5853,0.96068
311.972,36.71703,-1.38817,0.5829,0.96034
312.572,36.77453,-1.40737,0.57972,0.96
313.172,36.8322,-1.42602,0.5769,0.95965
313.772,36.89,-1.44507,0.57454,0.95931
314.372,36.9476,-1.46245,0.56964,0.95896
314.972,37.00509,-1.48158,0.56668,0.95862
315.572,37.06252,-1.49895,0.56492,0.95827
316.172,37.11988,-1.51791,0.56014,0.95793
316.772,37.17734,-1.53687,0.55585,0.95758
317.372,37.23478,-1.55347,0.5528,0.95723
317.972,37.29233,-1.57189,0.54655,0.95689
318.572,37.3499,-1.59007,0.54185,0.95654
319.172,37.4075,-1.60793,0.53896,0.95619
319.772,37.46479,-1.62444,0.5343,0.95584
320.372,37.52245,-1.64184,0.52732,0.95549
320.972,37.57993,-1.65979,0.52252,0.95514
321.572,37.63763,-1.67648,0.51593,0.95479
322.172,37.6959,-1.69317,0.51007,0.95444
322.772,37.75349,-1.70957,0.50267,0.95409
323.372,37.8114,-1.72778,0.49269,0.95374
323.972,37.869,-1.74232,0.48876,0.95339
324.572,37.92649,-1.75927,0.48033,0.95303
325.172,37.98403,-1.77406,0.47467,0.95268
325.772,38.0413,-1.79068,0.46662,0.95233
326.372,38.09885,-1.80448,0.46125,0.95197
326.972,38.15635,-1.81968,0.45516,0.95162
327.572,38.21425,-1.83548,0.44667,0.95126
328.172,38.27248,-1.85031,0.43742,0.95091
328.772,38.3303,-1.86572,0.43055,0.95055
329.372,38.388,-1.88018,0.42461,0.9502
329.972,38.44512,-1.89468,0.41437,0.94984
330.572,38.50292,-1.90993,0.40829,0.94948
331.172,38.56074,-1.92316,0.40158,0.94913
331.772,38.61861,-1.93707,0.3939,0.94877
332.372,38.6768,-1.95052,0.38485,0.94841
332.972,38.7345,-1.964,0.37993,0.94805
333.572,38.7922,-1.97663,0.37373,0.94769
334.172,38.84985,-1.98813,0.36477,0.94733
334.772,38.90756,-2.00157,0.35471,0.94697
335.372,38.96528,-2.01328,0.34755,0.94661
335.972,39.02313,-2.02572,0.34003,0.94625
336.572,39.0809,-2.03654,0.33185,0.94589
337.172,39.13844,-2.04771,0.32418,0.94553
337.772,39.19618,-2.0591,0.31608,0.94517
338.372,39.25385,-2.07036,0.30711,0.94481
338.972,39.3114,-2.08225,0.29814,0.94444
339.572,39.3693,-2.09288,0.29235,0.94408
340.172,39.427,-2.10418,0.2815,0.94372
340.772,39.48478,-2.1143,0.27386,0.94335
341.372,39.54278,-2.12395,0.26608,0.94299
341.972,39.60046,-2.13362,0.258,0.94262
342.572,39.65825,-2.14293,0.24738,0.94226
343.172,39.71621,-2.15163,0.2384,0.94189
343.772,39.774,-2.16123,0.22828,0.94152
344.372,39.832,-2.17051,0.21959,0.94116
344.972,39.88943,-2.17882,0.21125,0.94079
345.572,39.9467,-2.18667,0.20087,0.94042
346.172,40.00421,-2.19487,0.19265,0.94005
346.772,40.0619,-2.2022,0.18479,0.93968
347.372,40.12022,-2.20996,0.17306,0.93931
347.972,40.17852,-2.21763,0.16598,0.93894
348.572,40.23664,-2.22339,0.15498,0.93857
349.172,40.29468,-2.23084,0.14889,0.9382
349.772,40.35255,-2.2368,0.13698,0.93783
350.372,40.41041,-2.24379,0.12744,0.93746
350.972,40.46812,-2.24988,0.11448,0.93709
351.572,40.5257,-2.25565,0.10506,0.93672
352.172,40.58341,-2.26203,0.09467489,0.93635
352.772,40.641,-2.26636,0.08415877,0.93597
353.372,40.6989,-2.2725,0.07625908,0.9356
353.972,40.75691,-2.27703,0.06887644,0.93522
354.572,40.81463,-2.28179,0.05603926,0.93485
355.172,40.87243,-2.28608,0.04992796,0.93448
355.772,40.9302,-2.2913,0.03944796,0.9341
356.372,40.98813,-2.29445,0.03319134,0.93372
356.972,41.04633,-2.29938,0.02555509,0.93335
357.572,41.1044,-2.30292,0.01651826,0.93297
358.172,41.16213,-2.30617,0.00893978,0.93259
358.772,41.22011,-2.31039,0.00330473,0.93222
359.372,41.27803,-2.31336,-0.005273779,0.93184
359.972,41.33593,-2.31671,-0.008407703,0.93146
360.572,41.39395,-2.3181,-0.01618376,0.93108
361.172,41.45178,-2.32112,-0.01861848,0.9307
361.772,41.5097,-2.32279,-0.02453942,0.93032
362.372,41.56755,-2.32546,-0.0271321,0.92994
362.972,41.62547,-2.32842,-0.0305827,0.92956
363.572,41.68351,-2.32844,-0.03286195,0.92918
364.172,41.74152,-2.32993,-0.03584299,0.9288
364.772,41.7993,-2.33245,-0.0370156,0.92842
365.372,41.8572,-2.33236,-0.03720226,0.92804
365.972,41.91495,-2.33405,-0.03825779,0.92765
366.572,41.9731,-2.33666,-0.0364702,0.92727
367.172,42.0312,-2.3378,-0.03640704,0.92689
367.772,42.08944,-2.33904,-0.03774571,0.9265
368.372,42.14756,-2.33932,-0.03640238,0.92612
368.972,42.20572,-2.33927,-0.03505026,0.92573
369.572,42.2639,-2.34072,-0.03241015,0.92535
370.172,42.3222,-2.342,-0.03228866,0.92496
370.772,42.38033,-2.342,-0.0303249,0.92458
371.372,42.43855,-2.34332,-0.02700123,0.92419
371.972,42.4967,-2.34467,-0.02558393,0.9238
372.572,42.5548,-2.34464,-0.02450097,0.92341
373.172,42.61289,-2.34731,-0.02156334,0.92303
373.772,42.6711,-2.34727,-0.02350496,0.92264
374.372,42.72912,-2.34668,-0.02113294,0.92225
374.972,42.7875,-2.34669,-0.01851384,0.92186
375.572,42.8461,-2.34727,-0.01682287,0.92147
376.172,42.90436,-2.34727,-0.01509543,0.92108
376.772,42.9628,-2.34858,-0.014872,0.92069
377.372,43.0212,-2.34859,-0.01262344,0.9203
377.972,43.07948,-2.34991,-0.01185315,0.91991
378.572,43.13787,-2.34993,-0.01167075,0.91951
379.172,43.19594,-2.35122,-0.00918893,0.91912
379.772,43.25441,-2.35122,-0.009985188,0.91873
380.372,43.31261,-2.35122,-0.007865074,0.91834
380.972,43.37102,-2.35122,-0.00732739,0.91794
381.572,43.4294,-2.35254,-0.004794624,0.91755
382.172,43.48769,-2.35253,-0.00584723,0.91715
382.772,43.54605,-2.35254,-0.004050475,0.91676
383.372,43.60389,-2.35376,-0.003804681,0.91636
383.972,43.66199,-2.3539,-0.004576198,0.91597
384.572,43.72013,-2.35254,-0.005666123,0.91557
385.172,43.7784,-2.35472,-0.004925672,0.91517
385.772,43.83697,-2.35649,-0.007045841,0.91478
386.372,43.89515,-2.35649,-0.00664359,0.91438
386.972,43.95343,-2.35649,-0.006031625,0.91398
387.572,44.0116,-2.35649,-0.00757945,0.91358
388.172,44.06969,-2.35616,-0.00735529,0.91318
388.772,44.1279,-2.35684,-0.01088503,0.91279
389.372,44.18603,-2.35677,-0.01105492,0.91239
389.972,44.24419,-2.35814,-0.01256799,0.91199
390.572,44.3024,-2.35814,-0.01229531,0.91158
391.172,44.3604,-2.35914,-0.01457054,0.91118
391.772,44.4188,-2.35937,-0.0151036,0.91078
392.372,44.4771,-2.36045,-0.01557099,0.91038
392.972,44.53557,-2.36171,-0.01714636,0.90998
393.572,44.59415,-2.36039,-0.01728715,0.90958
394.172,44.65207,-2.3606,-0.01995188,0.90917
394.772,44.71043,-2.36176,-0.0211316,0.90877
395.372,44.7687,-2.3643,-0.02294009,0.90836
395.972,44.827,-2.3644,-0.02369092,0.90796
396.572,44.88588,-2.36428,-0.0277982,0.90756
397.172,44.9444,-2.36433,-0.02718355,0.90715
397.772,45.00285,-2.3644,-0.02719507,0.90674
398.372,45.06138,-2.3644,-0.02812629,0.90634
398.972,45.12003,-2.36571,-0.03245019,0.90593
399.572,45.17844,-2.36835,-0.03151045,0.90552
400.172,45.23707,-2.36774,-0.03473673,0.90512
400.772,45.29554,-2.36834,-0.03673784,0.90471
401.372,45.3538,-2.36967,-0.037898,0.9043
401.972,45.41199,-2.36967,-0.03704831,0.90389
402.572,45.47055,-2.371,-0.03995104,0.90348
403.172,45.52915,-2.37329,-0.04268203,0.90307
403.772,45.58808,-2.37453,-0.04200999,0.90266
404.372,45.64666,-2.37452,-0.04499269,0.90225
404.972,45.70514,-2.3746,-0.04629022,0.90184
405.572,45.7637,-2.37597,-0.04743819,0.90143
406.172,45.82233,-2.37592,-0.04756487,0.90102
406.772,45.88092,-2.37765,-0.04920429,0.90061
407.372,45.93962,-2.37856,-0.04866565,0.90019
407.972,45.99825,-2.37918,-0.05084703,0.89978
408.572,46.05686,-2.38003,-0.05113714,0.89937
409.172,46.11533,-2.38359,-0.05324123,0.89895
409.772,46.17395,-2.3832,-0.05174207,0.89854
410.372,46.23257,-2.38394,-0.05610653,0.89812
410.972,46.29121,-2.38514,-0.05611777,0.89771
411.572,46.3498,-2.38646,-0.05717277,0.89729
412.172,46.40825,-2.38777,-0.05885332,0.89688
412.772,46.467,-2.38915,-0.06015797,0.89646
413.372,46.5257,-2.39095,-0.06172223,0.89604
413.972,46.58397,-2.39238,-0.06232628,0.89563
414.572,46.64253,-2.39366,-0.06271433,0.89521
415.172,46.7008,-2.39531,-0.06509441,0.89479
415.772,46.75932,-2.39657,-0.06588836,0.89437
416.372,46.8181,-2.40014,-0.06742348,0.89395
416.972,46.8767,-2.40201,-0.0689769,0.89353
417.572,46.9356,-2.40242,-0.06985614,0.89311
418.172,46.99431,-2.40473,-0.06908404,0.89269
418.772,47.0529,-2.40612,-0.07137348,0.89227
419.372,47.11162,-2.40854,-0.07253366,0.89185
419.972,47.17041,-2.41171,-0.07376379,0.89143
420.572,47.2292,-2.41296,-0.07384645,0.89101
421.172,47.28802,-2.41496,-0.07267114,0.89058
421.772,47.34669,-2.41798,-0.07643855,0.89016
422.372,47.40538,-2.42175,-0.07572876,0.88974
422.972,47.46391,-2.42337,-0.07575696,0.88931
423.572,47.52251,-2.42649,-0.07792572,0.88889
424.172,47.58097,-2.42938,-0.07586284,0.88847
424.772,47.6395,-2.43247,-0.07418984,0.88804
425.372,47.698,-2.43549,-0.07523068,0.88761
425.972,47.75672,-2.43848,-0.07544002,0.88719
426.572,47.8155,-2.44203,-0.07399924,0.88676
427.172,47.87429,-2.44575,-0.07508158,0.88634
427.772,47.9332,-2.44989,-0.07504528,0.88591
428.372,47.99192,-2.45355,-0.07276188,0.88548
428.972,48.05055,-2.45686,-0.07226174,0.88505
429.572,48.10906,-2.4618,-0.07041937,0.88462
430.172,48.16775,-2.46612,-0.06864594,0.8842
430.772,48.2262,-2.47,-0.0693051,0.88377
431.372,48.28483,-2.47336,-0.06701209,0.88334
431.972,48.34343,-2.47734,-0.06400883,0.88291
432.572,48.402,-2.48254,-0.06246056,0.88248
433.172,48.46053,-2.48705,-0.06188536,0.88205
433.772,48.5191,-2.49174,-0.05696299,0.88161
434.372,48.57772,-2.49682,-0.05647994,0.88118
434.972,48.63626,-2.50184,-0.05372566,0.88075
435.572,48.69465,-2.50722,-0.05051712,0.88032
436.172,48.75362,-2.5152,-0.04761561,0.87989
436.772,48.8125,-2.51927,-0.04494091,0.87945
437.372,48.8718,-2.52483,-0.04193536,0.87902
437.972,48.93078,-2.53199,-0.03907404,0.87858
438.572,48.98956,-2.53977,-0.03575476,0.87815
439.172,49.0481,-2.54588,-0.03263092,0.87771
439.772,49.10683,-2.55094,-0.02824781,0.87728
440.372,49.16567,-2.55744,-0.02376672,0.87684
440.972,49.22453,-2.56408,-0.01998141,0.87641
441.572,49.28345,-2.57087,-0.01876731,0.87597
442.172,49.34227,-2.576,-0.01123592,0.87553
442.772,49.40097,-2.58329,-0.0107364,0.87509
443.372,49.45995,-2.59175,-0.005060328,0.87466
443.972,49.5188,-2.59964,0.002216566,0.87422
444.572,49.5777,-2.60718,0.004093381,0.87378
445.172,49.6366,-2.61446,0.00947087,0.87334
445.772,49.6955,-2.62174,0.01537062,0.8729
446.372,49.75411,-2.63014,0.01917028,0.87246
446.972,49.81329,-2.63714,0.0231694,0.87202
447.572,49.8724,-2.64555,0.02889311,0.87158
448.172,49.93143,-2.65292,0.03171536,0.87114
448.772,49.99049,-2.66125,0.03554369,0.8707
449.372,50.04936,-2.66887,0.04154441,0.87025
449.972,50.10833,-2.67829,0.04328576,0.86981
450.572,50.16748,-2.68554,0.04817656,0.86937
451.172,50.2268,-2.69345,0.05177005,0.86893
451.772,50.2858,-2.70005,0.05586816,0.86848
452.372,50.34479,-2.70862,0.05630653,0.86804
452.972,50.40392,-2.71881,0.0608887,0.86759
453.572,50.46302,-2.72716,0.06685718,0.86715
454.172,50.5225,-2.73486,0.06778939,0.8667
454.772,50.58167,-2.74256,0.06914083,0.86626
455.372,50.64095,-2.75146,0.07341203,0.86581
455.972,50.70006,-2.75886,0.07728705,0.86536
456.572,50.75932,-2.76708,0.08107867,0.86492
457.172,50.8183,-2.77564,0.08413268,0.86447
457.772,50.87742,-2.7844,0.0904063,0.86402
458.372,50.9367,-2.79315,0.0938546,0.86357
458.972,50.9958,-2.80243,0.09705645,0.86313
459.572,51.05495,-2.81245,0.09934946,0.86268
460.172,51.11368,-2.82081,0.10213,0.86223
460.772,51.17253,-2.82964,0.10319,0.86178
461.372,51.2317,-2.83843,0.10545,0.86133
461.972,51.29055,-2.84722,0.1074,0.86088
462.572,51.3497,-2.85641,0.10898,0.86042
463.172,51.40872,-2.86451,0.10855,0.85997
463.772,51.4681,-2.87257,0.10979,0.85952
464.372,51.52735,-2.88165,0.10996,0.85907
464.972,51.58637,-2.89077,0.10963,0.85862
465.572,51.64545,-2.89847,0.11096,0.85816
466.172,51.70459,-2.90644,0.10857,0.85771
466.772,51.76385,-2.91521,0.10995,0.85726
467.372,51.82284,-2.92231,0.10809,0.8568
467.972,51.8818,-2.93097,0.10778,0.85635
468.572,51.94064,-2.93874,0.10735,0.85589
469.172,51.9996,-2.94705,0.10425,0.85544
469.772,52.0587,-2.95573,0.10353,0.85498
470.372,52.1178,-2.96336,0.10401,0.85452
470.972,52.17711,-2.97162,0.10165,0.85407
471.572,52.23638,-2.97918,0.10048,0.85361
472.172,52.29548,-2.98682,0.09747355,0.85315
472.772,52.35477,-2.99294,0.09649464,0.85269
473.372,52.414,-3.0009,0.09612462,0.85224
473.972,52.47342,-3.00925,0.0943574,0.85178
474.572,52.53258,-3.01582,0.09184168,0.85132
475.172,52.5916,-3.02357,0.08941886,0.85086
475.772,52.6508,-3.03143,0.08875484,0.8504
476.372,52.7098,-3.03737,0.08798484,0.84994
476.972,52.7689,-3.04339,0.08447973,0.84948
477.572,52.82799,-3.05046,0.08318736,0.84902
478.172,52.88704,-3.0573,0.08144372,0.84856
478.772,52.9461,-3.06455,0.07944839,0.84809
479.372,53.00518,-3.07127,0.07741336,0.84763
479.972,53.0643,-3.07742,0.07507934,0.84717
480.572,53.123,-3.08456,0.07232763,0.84671
481.172,53.18199,-3.09115,0.07164308,0.84624
481.772,53.241,-3.09519,0.06828319,0.84578
482.372,53.3001,-3.10138,0.06525509,0.84531
482.972,53.3597,-3.10771,0.06124846,0.84485
483.572,53.4189,-3.11312,0.06099649,0.84439
484.172,53.47811,-3.11987,0.0574489,0.84392
484.772,53.5372,-3.1263,0.05690895,0.84345
485.372,53.59629,-3.13093,0.05580977,0.84299
485.972,53.6555,-3.13597,0.05313609,0.84252
486.572,53.71464,-3.14029,0.04992233,0.84205
487.172,53.77385,-3.14638,0.04662393,0.84159
487.772,53.83299,-3.15046,0.0461987,0.84112
488.372,53.89232,-3.15557,0.04464082,0.84065
488.972,53.95163,-3.16031,0.04139766,0.84018
489.572,54.0107,-3.16464,0.04001903,0.83971
490.172,54.0703,-3.16838,0.03915153,0.83924
490.772,54.1298,-3.1736,0.03665794,0.83877
491.372,54.18919,-3.1778,0.03125327,0.8383
491.972,54.24847,-3.18176,0.02833726,0.83783
492.572,54.3075,-3.1859,0.02698061,0.83736
493.172,54.36675,-3.18958,0.0269274,0.83689
493.772,54.42595,-3.19283,0.02327495,0.83642
494.372,54.48528,-3.19759,0.02183082,0.83595
494.972,54.5445,-3.20075,0.02144917,0.83548
495.572,54.60386,-3.20492,0.02123586,0.835
496.172,54.6633,-3.20753,0.01920501,0.83453
496.772,54.7226,-3.21105,0.01576915,0.83406
497.372,54.7821,-3.21458,0.01438692,0.83358
497.972,54.8414,-3.21847,0.01256456,0.83311
498.572,54.9009,-3.22119,0.008955855,0.83263
499.172,54.96037,-3.22293,0.009243276,0.83216
499.772,55.01995,-3.22412,0.007164465,0.83168
500.372,55.0792,-3.22743,0.005814859,0.83121
500.972,55.13835,-3.23118,0.004233252,0.83073
501.572,55.19766,-3.2339,0.00272229,0.83025
502.172,55.2569,-3.2371,0.001192822,0.82978
502.772,55.31625,-3.23852,0.0002461388,0.8293
503.372,55.3761,-3.24049,-0.002152877,0.82882
503.972,55.4355,-3.24173,-0.001993309,0.82834
504.572,55.4949,-3.24431,-0.00537399,0.82787
505.172,55.55438,-3.24618,-0.006065399,0.82739
505.772,55.61395,-3.25046,-0.00777884,0.82691
506.372,55.6734,-3.25248,-0.008743058,0.82643
506.972,55.7329,-3.25461,-0.01075679,0.82595
507.572,55.79234,-3.25592,-0.01095356,0.82547
508.172,55.85179,-3.25688,-0.009417884,0.82499
508.772,55.9113,-3.25835,-0.01313995,0.82451
509.372,55.9707,-3.26093,-0.01682879,0.82402
509.972,56.0301,-3.26221,-0.01470879,0.82354
510.572,56.0896,-3.26354,-0.01425316,0.82306
511.172,56.14921,-3.26634,-0.0163475,0.82258
511.772,56.2087,-3.2677,-0.01846476,0.8221
512.372,56.2681,-3.26766,-0.01987388,0.82161
512.972,56.32744,-3.27014,-0.02002494,0.82113
513.572,56.3866,-3.27048,-0.0204006,0.82064
514.172,56.446,-3.27066,-0.01952116,0.82016
514.772,56.5053,-3.27197,-0.02138088,0.81967
515.372,56.5649,-3.27331,-0.02387276,0.81919
515.972,56.62441,-3.27462,-0.02340326,0.8187
516.572,56.6839,-3.27593,-0.02471615,0.81822
517.172,56.7435,-3.2773,-0.02507455,0.81773
517.772,56.8029,-3.27787,-0.02475909,0.81725
518.372,56.86201,-3.27853,-0.02570589,0.81676
518.972,56.92151,-3.27989,-0.02615136,0.81627
519.572,56.98095,-3.28054,-0.02622602,0.81578
520.172,57.04068,-3.28186,-0.02749024,0.8153
520.772,57.1006,-3.28185,-0.02645513,0.81481
521.372,57.16013,-3.2822,-0.02997511,0.81432
521.972,57.22,-3.28318,-0.03093405,0.81383
522.572,57.2796,-3.2845,-0.02999996,0.81334
523.172,57.3392,-3.2845,-0.02882485,0.81285
523.772,57.399,-3.28581,-0.03261764,0.81236
524.372,57.45867,-3.28582,-0.0303311,0.81187
524.972,57.5184,-3.28713,-0.03243163,0.81138
525.572,57.57825,-3.28847,-0.03137825,0.81089
526.172,57.6381,-3.28779,-0.03044976,0.81039
526.772,57.6978,-3.28779,-0.03088706,0.8099
527.372,57.7575,-3.28909,-0.030201,0.80941
527.972,57.817,-3.2891,-0.02918935,0.80892
528.572,57.8766,-3.28922,-0.03062679,0.80842
529.172,57.93619,-3.29042,-0.02976795,0.80793
529.772,57.99576,-3.29074,-0.02980196,0.80744
530.372,58.05529,-3.29174,-0.03008175,0.80694
530.972,58.1148,-3.29263,-0.02817478,0.80645
531.572,58.1742,-3.29438,-0.02880476,0.80595
532.172,58.23384,-3.29438,-0.02873777,0.80546
532.772,58.29359,-3.29434,-0.02851253,0.80496
533.372,58.35325,-3.29711,-0.02821775,0.80447
533.972,58.4129,-3.2983,-0.02471243,0.80397
534.572,58.47255,-3.29701,-0.02659752,0.80347
535.172,58.53207,-3.29569,-0.02624892,0.80298
535.772,58.5917,-3.29569,-0.02775792,0.80248
536.372,58.6511,-3.29701,-0.02581121,0.80198
536.972,58.7107,-3.29701,-0.02401186,0.80148
537.572,58.77058,-3.298,-0.0249988,0.80098
538.172,58.8303,-3.29801,-0.02519199,0.80048
538.772,58.8904,-3.29668,-0.02694204,0.79999
539.372,58.94987,-3.29701,-0.02500091,0.79949
539.972,59.00942,-3.29898,-0.02487035,0.79899
540.572,59.06898,-3.29923,-0.02510481,0.79849
541.172,59.1286,-3.3003,-0.02306393,0.79799
541.772,59.18838,-3.3003,-0.02165556,0.79748
542.372,59.24801,-3.30049,-0.01860683,0.79698
542.972,59.3074,-3.30162,-0.0161323,0.79648
543.572,59.36687,-3.30162,-0.01377493,0.79598
544.172,59.42618,-3.30172,-0.01173869,0.79548
544.772,59.48582,-3.30294,-0.00953796,0.79498
545.372,59.54544,-3.30294,-0.007248868,0.79447
545.972,59.6051,-3.30296,-0.006133678,0.79397
546.572,59.6646,-3.30489,-0.00313637,0.79347
547.172,59.7241,-3.30624,-0.00218642,0.79296
547.772,59.78376,-3.30623,0.0002724553,0.79246
548.372,59.8435,-3.30623,-0.001410319,0.79195
548.972,59.90315,-3.30622,0.001736111,0.79145
549.572,59.96291,-3.30626,0.004340537,0.79094
550.172,60.0224,-3.30623,0.00438911,0.79044
550.772,60.08174,-3.30623,0.005381797,0.78993
551.372,60.14135,-3.30624,0.006824271,0.78942
551.972,60.201,-3.30755,0.006732143,0.78892
552.572,60.2608,-3.30887,0.005278741,0.78841
553.172,60.3205,-3.30887,0.00633194,0.7879
553.772,60.37996,-3.30788,0.008785984,0.7874
554.372,60.43943,-3.30755,0.008604512,0.78689
554.972,60.49899,-3.30887,0.008250039,0.78638
555.572,60.55849,-3.30887,0.01043428,0.78587
556.172,60.61829,-3.30943,0.007558648,0.78536
556.772,60.67799,-3.31008,0.008421055,0.78485
557.372,60.73785,-3.31304,0.009910544,0.78434
557.972,60.79756,-3.31397,0.008940758,0.78383
558.572,60.8572,-3.31141,0.00781788,0.78332
559.172,60.9169,-3.31007,0.00736561,0.78281
559.772,60.9765,-3.31007,0.00619901,0.7823
560.372,61.0362,-3.31011,0.007754571,0.78179
560.972,61.09601,-3.30977,0.006877173,0.78128
561.572,61.15574,-3.31106,0.008453135,0.78076
562.172,61.2154,-3.31106,0.006494845,0.78025
562.772,61.27499,-3.31289,0.005160708,0.77974
563.372,61.33461,-3.31221,0.003031057,0.77923
563.972,61.39447,-3.30994,0.00296404,0.77871
564.572,61.4543,-3.3096,0.000810713,0.7782
565.172,61.51416,-3.31132,0.0003518059,0.77769
565.772,61.57394,-3.31227,-0.0024308,0.77717
566.372,61.63384,-3.31262,-0.00568319,0.77666
566.972,61.6937,-3.31343,-0.004773669,0.77614
567.572,61.7532,-3.31358,-0.009437785,0.77563
568.172,61.81292,-3.31358,-0.009697796,0.77511
568.772,61.8729,-3.3136,-0.01079339,0.7746
569.372,61.933,-3.31491,-0.01299198,0.77408
569.972,61.99335,-3.31392,-0.01421728,0.77356
570.572,62.05325,-3.31392,-0.0182442,0.77305
571.172,62.1131,-3.31528,-0.01869064,0.77253
571.772,62.17305,-3.3152,-0.01780569,0.77201
572.372,62.23299,-3.31424,-0.02137024,0.77149
572.972,62.29291,-3.31426,-0.02323917,0.77098
573.572,62.3528,-3.31633,-0.02537765,0.77046
574.172,62.41268,-3.31524,-0.02668813,0.76994
574.772,62.4724,-3.31519,-0.033596,0.76942
575.372,62.53227,-3.31656,-0.03297832,0.7689
575.972,62.5922,-3.31656,-0.03639947,0.76838
576.572,62.652,-3.31648,-0.04036897,0.76786
577.172,62.71205,-3.31524,-0.04399645,0.76734
577.772,62.77199,-3.3172,-0.04597865,0.76682
578.372,62.83186,-3.31721,-0.04837657,0.7663
578.972,62.8919,-3.31787,-0.04902723,0.76578
579.572,62.9518,-3.31794,-0.05286979,0.76526
580.172,63.0118,-3.31922,-0.05561707,0.76473
580.772,63.07176,-3.31851,-0.05953392,0.76421
581.372,63.13148,-3.31765,-0.06130642,0.76369
581.972,63.1913,-3.31765,-0.06426062,0.76317
582.572,63.2512,-3.31765,-0.06522605,0.76264
583.172,63.3112,-3.31897,-0.06479065,0.76212
583.772,63.3711,-3.31896,-0.06496719,0.7616
584.372,63.431,-3.31897,-0.06632508,0.76107
584.972,63.4908,-3.32029,-0.06945388,0.76055
585.572,63.55052,-3.32029,-0.07049513,0.76002
586.172,63.6102,-3.32029,-0.0721501,0.7595
586.772,63.67,-3.32029,-0.0729234,0.75897
587.372,63.73,-3.32028,-0.07728086,0.75845
587.972,63.7902,-3.32028,-0.07884924,0.75792
588.572,63.85034,-3.32028,-0.08098207,0.7574
589.172,63.91021,-3.31995,-0.08377599,0.75687
589.772,63.97016,-3.31996,-0.08563583,0.75634
590.372,64.03022,-3.32127,-0.08824876,0.75582
590.972,64.0904,-3.32028,-0.08603467,0.75529
591.572,64.15041,-3.32027,-0.08962686,0.75476
592.172,64.2103,-3.3216,-0.09068785,0.75423
592.772,64.27037,-3.3216,-0.08920661,0.75371
593.372,64.3304,-3.32159,-0.09132611,0.75318
593.972,64.39066,-3.32292,-0.09218221,0.75265
594.572,64.4507,-3.32292,-0.09352177,0.75212
595.172,64.51077,-3.32292,-0.09414743,0.75159
595.772,64.57092,-3.32193,-0.09640268,0.75106
596.372,64.6309,-3.32086,-0.09627219,0.75053
596.972,64.6914,-3.32195,-0.0932299,0.75
597.572,64.75155,-3.32193,-0.09613154,0.74947
598.172,64.81174,-3.32244,-0.09396466,0.74894
598.772,64.87172,-3.32553,-0.09784902,0.74841
599.372,64.93177,-3.32435,-0.09928941,0.74788
599.972,64.99154,-3.32433,-0.0994028,0.74735
600.572,65.05198,-3.32302,-0.09976676,0.74681
601.172,65.11199,-3.32302,-0.10064,0.74628
601.772,65.1722,-3.32302,-0.10263,0.74575
602.372,65.2324,-3.32302,-0.1039,0.74522
602.972,65.29241,-3.32302,-0.10356,0.74468
603.572,65.3524,-3.32309,-0.10286,0.74415
604.172,65.41226,-3.32407,-0.10692,0.74362
604.772,65.47206,-3.32599,-0.1071,0.74308
605.372,65.532,-3.32599,-0.10803,0.74255
605.972,65.59212,-3.32605,-0.11052,0.74201
606.572,65.65275,-3.32684,-0.1089,0.74148
607.172,65.7127,-3.32731,-0.10863,0.74094
607.772,65.7729,-3.32731,-0.11054,0.74041
608.372,65.83296,-3.32731,-0.11166,0.73987
608.972,65.89299,-3.32731,-0.11268,0.73934
609.572,65.9533,-3.32694,-0.1158,0.7388
610.172,66.0134,-3.32731,-0.11267,0.73827
610.772,66.07345,-3.32729,-0.11362,0.73773
611.372,66.1335,-3.32794,-0.11295,0.73719
611.972,66.19376,-3.32666,-0.11479,0.73666
612.572,66.2539,-3.32665,-0.11559,0.73612
613.172,66.3135,-3.32665,-0.11592,0.73558
613.772,66.37357,-3.32665,-0.11728,0.73504
614.372,66.43343,-3.32666,-0.11694,0.7345
614.972,66.49375,-3.32731,-0.11593,0.73397
615.572,66.55417,-3.32864,-0.11666,0.73343
616.172,66.61437,-3.32726,-0.11783,0.73289
616.772,66.6746,-3.32733,-0.11679,0.73235
617.372,66.735,-3.32863,-0.11809,0.73181
617.972,66.79527,-3.32972,-0.11859,0.73127
618.572,66.85551,-3.32962,-0.11677,0.73073
619.172,66.91578,-3.33056,-0.11566,0.73019
619.772,66.97589,-3.33094,-0.11637,0.72965
620.372,67.03571,-3.32962,-0.1166,0.72911
620.972,67.09602,-3.32959,-0.11649,0.72857
621.572,67.15594,-3.32866,-0.11795,0.72802
622.172,67.2161,-3.32904,-0.11437,0.72748
622.772,67.2762,-3.32871,-0.11381,0.72694
623.372,67.33626,-3.32896,-0.11435,0.7264
623.972,67.3963,-3.32896,-0.11316,0.72586
624.572,67.4564,-3.32899,-0.11107,0.72531
625.172,67.51657,-3.3283,-0.11398,0.72477
625.772,67.57669,-3.3283,-0.1143,0.72423
626.372,67.63696,-3.3283,-0.11406,0.72368
626.972,67.69699,-3.32938,-0.11383,0.72314
627.572,67.75685,-3.33093,-0.11364,0.7226
628.172,67.81688,-3.33093,-0.11464,0.72205
628.772,67.877,-3.33109,-0.11216,0.72151
629.372,67.9371,-3.33093,-0.10949,0.72096
629.972,67.99758,-3.33093,-0.11107,0.72042
630.572,68.05761,-3.33093,-0.11217,0.71987
631.172,68.11751,-3.33091,-0.10958,0.71933
631.772,68.17774,-3.32961,-0.1097,0.71878
632.372,68.2377,-3.32978,-0.10743,0.71824
632.972,68.29812,-3.33093,-0.10591,0.71769
633.572,68.35791,-3.33093,-0.10579,0.71714
634.172,68.41804,-3.33093,-0.10672,0.7166
634.772,68.4781,-3.33183,-0.10449,0.71605
635.372,68.53843,-3.33192,-0.10131,0.7155
635.972,68.59874,-3.33192,-0.10231,0.71495
636.572,68.65885,-3.33056,-0.1028,0.71441
637.172,68.71921,-3.33126,-0.1003,0.71386
637.772,68.77924,-3.33192,-0.10311,0.71331
638.372,68.8392,-3.33325,-0.10421,0.71276
638.972,68.89921,-3.33195,-0.1026,0.71221
639.572,68.9591,-3.33192,-0.10133,0.71167
640.172,69.0191,-3.33324,-0.09948456,0.71112
640.772,69.0792,-3.33181,-0.0982572,0.71057
641.372,69.13954,-3.3305,-0.09644729,0.71002
641.972,69.1998,-3.3305,-0.09724933,0.70947
642.572,69.26011,-3.33083,-0.09732366,0.70892
643.172,69.3202,-3.33116,-0.09573728,0.70837
643.772,69.38011,-3.33181,-0.09284832,0.70782
644.372,69.43991,-3.33181,-0.09265774,0.70727
644.972,69.4999,-3.33247,-0.0894675,0.70672
645.572,69.56021,-3.33346,-0.08763484,0.70616
646.172,69.62054,-3.33346,-0.08720921,0.70561
646.772,69.68079,-3.33346,-0.08481834,0.70506
647.372,69.74079,-3.33444,-0.08340002,0.70451
647.972,69.8009,-3.33444,-0.08380247,0.70396
648.572,69.86117,-3.33444,-0.08515975,0.70341
649.172,69.92124,-3.33442,-0.08389489,0.70285
649.772,69.98124,-3.3351,-0.08094222,0.7023
649.872,69.99106,-3.3351,-0.08075276,0.70221