File: 01_Data/PVC_Pipe/STA/N2/10K_min/PVC_Pipe_STA_N2_10KData_22071_R1.csv
##Temp./Â°C,Time/min,Mass loss(subtr.2)/mg,DSC(subtr.2)/(mW/mg),Sensit./(uV/mW)
49.688,10.00917,-0.03974,0.002138725,1.07018
50.288,10.73431,-0.0419921,0.02704753,1.07002
50.888,10.92296,-0.04475092,0.04180146,1.06985
51.488,11.06585,-0.04336383,0.05408844,1.06969
52.088,11.18591,-0.0438173,0.06450432,1.06952
52.688,11.29153,-0.04253093,0.07173408,1.06935
53.288,11.388,-0.04318948,0.07992211,1.06919
53.888,11.47872,-0.04146706,0.08628158,1.06902
54.488,11.5643,-0.04297902,0.08953818,1.06885
55.088,11.6461,-0.04332464,0.09569829,1.06869
55.688,11.72546,-0.04368126,0.10151,1.06852
56.288,11.80231,-0.044082,0.10504,1.06835
56.888,11.87704,-0.04353389,0.10963,1.06818
57.488,11.95004,-0.0455543,0.11195,1.06801
58.088,12.02168,-0.04743141,0.11606,1.06784
58.688,12.09235,-0.04750425,0.1171,1.06767
59.288,12.16208,-0.04602987,0.12207,1.0675
59.888,12.2312,-0.04442559,0.12277,1.06733
60.488,12.2994,-0.04479985,0.12477,1.06716
61.088,12.36754,-0.04532729,0.12888,1.06699
61.688,12.43487,-0.04538215,0.13122,1.06682
62.288,12.5015,-0.04466062,0.13301,1.06664
62.888,12.56783,-0.04664322,0.13757,1.06647
63.488,12.63386,-0.04737675,0.13719,1.0663
64.088,12.69998,-0.05006114,0.13753,1.06612
64.688,12.7656,-0.05137314,0.13714,1.06595
65.288,12.8309,-0.05088145,0.13563,1.06578
65.888,12.8958,-0.05134665,0.13359,1.0656
66.488,12.96049,-0.05028836,0.13126,1.06543
67.088,13.02505,-0.05042481,0.12983,1.06525
67.688,13.08956,-0.04762947,0.12463,1.06508
68.288,13.15404,-0.04764809,0.12455,1.0649
68.888,13.2184,-0.04632651,0.12227,1.06472
69.488,13.28231,-0.04624615,0.12308,1.06455
70.088,13.34615,-0.04634242,0.12152,1.06437
70.688,13.4098,-0.04632086,0.12079,1.06419
71.288,13.47357,-0.04728969,0.12302,1.06401
71.888,13.5367,-0.04673932,0.1236,1.06384
72.488,13.59973,-0.04764953,0.12157,1.06366
73.088,13.66295,-0.04759541,0.12366,1.06348
73.688,13.72615,-0.0491611,0.12248,1.0633
74.288,13.78911,-0.04853494,0.12272,1.06312
74.888,13.85198,-0.04885997,0.12396,1.06294
75.488,13.9146,-0.04832972,0.12302,1.06276
76.088,13.97773,-0.04930763,0.12343,1.06258
76.688,14.0402,-0.05060916,0.12401,1.0624
77.288,14.1023,-0.04922186,0.12664,1.06222
77.888,14.16415,-0.05060992,0.12493,1.06203
78.488,14.22618,-0.05157123,0.12576,1.06185
79.088,14.288,-0.05061996,0.12688,1.06167
79.688,14.35011,-0.05060372,0.12842,1.06148
80.288,14.4107,-0.05055445,0.12991,1.0613
80.888,14.47205,-0.05000227,0.13091,1.06112
81.488,14.53374,-0.05032107,0.132,1.06093
82.088,14.59564,-0.05060982,0.13372,1.06075
82.688,14.6572,-0.04980483,0.13528,1.06056
83.288,14.7183,-0.05062533,0.13827,1.06038
83.888,14.77904,-0.05060996,0.14283,1.06019
84.488,14.8401,-0.05193285,0.14587,1.06001
85.088,14.9008,-0.05191632,0.15038,1.05982
85.688,14.96185,-0.05193319,0.15102,1.05963
86.288,15.0228,-0.05197697,0.15367,1.05945
86.888,15.08368,-0.05195124,0.15756,1.05926
87.488,15.14391,-0.0518332,0.16053,1.05907
88.088,15.204,-0.05192648,0.16171,1.05888
88.688,15.26433,-0.05323536,0.16111,1.05869
89.288,15.3243,-0.05219829,0.1605,1.0585
89.888,15.38442,-0.05325024,0.16202,1.05831
90.488,15.44455,-0.0532501,0.16334,1.05812
91.088,15.50441,-0.05362469,0.16085,1.05793
91.688,15.5644,-0.05325033,0.15963,1.05774
92.288,15.6241,-0.05410122,0.15849,1.05755
92.888,15.6839,-0.05481105,0.15776,1.05736
93.488,15.74341,-0.05456353,0.15734,1.05717
94.088,15.8031,-0.05457,0.15489,1.05698
94.688,15.8628,-0.0545701,0.15585,1.05678
95.288,15.92245,-0.05484836,0.15385,1.05659
95.888,15.98223,-0.05485977,0.15398,1.0564
96.488,16.04124,-0.05491461,0.15351,1.0562
97.088,16.1002,-0.0545687,0.15434,1.05601
97.688,16.1585,-0.0558806,0.15785,1.05581
98.288,16.21771,-0.05689669,0.15583,1.05562
98.888,16.2769,-0.05586985,0.15885,1.05542
99.488,16.33641,-0.05555061,0.15838,1.05523
100.088,16.39574,-0.05440076,0.15934,1.05503
100.688,16.45487,-0.05443274,0.16069,1.05484
101.288,16.5142,-0.05598294,0.16295,1.05464
101.888,16.57319,-0.05438545,0.16584,1.05444
102.488,16.63221,-0.05500898,0.16636,1.05424
103.088,16.6909,-0.05568982,0.16709,1.05405
103.688,16.7497,-0.05435705,0.16854,1.05385
104.288,16.8084,-0.05562788,0.16982,1.05365
104.888,16.8671,-0.05698147,0.1714,1.05345
105.488,16.92561,-0.05698053,0.1727,1.05325
106.088,16.9844,-0.0556833,0.17519,1.05305
106.688,17.04293,-0.05571885,0.17559,1.05285
107.288,17.10193,-0.05506716,0.17852,1.05265
107.888,17.16075,-0.05432035,0.17926,1.05245
108.488,17.21953,-0.05565998,0.18071,1.05225
109.088,17.2782,-0.05566013,0.18208,1.05204
109.688,17.3367,-0.05445667,0.18311,1.05184
110.288,17.39546,-0.05434819,0.18309,1.05164
110.888,17.45404,-0.05697594,0.18468,1.05144
111.488,17.5123,-0.05713061,0.18782,1.05123
112.088,17.57067,-0.05830664,0.1882,1.05103
112.688,17.629,-0.05697981,0.19035,1.05082
113.288,17.6875,-0.05698,0.19185,1.05062
113.888,17.7459,-0.05698252,0.19342,1.05041
114.488,17.8045,-0.05664771,0.19267,1.05021
115.088,17.86281,-0.05665,0.19387,1.05
115.688,17.9212,-0.05665002,0.1956,1.0498
116.288,17.9793,-0.0566536,0.19719,1.04959
116.888,18.0378,-0.05827186,0.19748,1.04938
117.488,18.09626,-0.05730962,0.19772,1.04918
118.088,18.15486,-0.057431,0.19744,1.04897
118.688,18.21341,-0.0582563,0.19994,1.04876
119.288,18.2718,-0.05962267,0.19952,1.04855
119.888,18.33023,-0.05830596,0.20058,1.04834
120.488,18.38841,-0.05961976,0.20117,1.04813
121.088,18.44664,-0.05962002,0.20267,1.04792
121.688,18.50505,-0.059672,0.20355,1.04771
122.288,18.56334,-0.058301,0.20481,1.0475
122.888,18.62171,-0.0583,0.2037,1.04729
123.488,18.6798,-0.05830001,0.20517,1.04708
124.088,18.73794,-0.05953612,0.20402,1.04687
124.688,18.7965,-0.05962658,0.20599,1.04666
125.288,18.855,-0.05988838,0.20629,1.04645
125.888,18.91321,-0.0599415,0.20788,1.04623
126.488,18.97152,-0.06126535,0.20857,1.04602
127.088,19.02926,-0.06126053,0.20717,1.04581
127.688,19.08747,-0.0607214,0.20825,1.04559
128.288,19.14563,-0.05950452,0.2088,1.04538
128.888,19.204,-0.05829909,0.20882,1.04516
129.488,19.26216,-0.05959466,0.20998,1.04495
130.088,19.3203,-0.05962001,0.21099,1.04473
130.688,19.37831,-0.05959323,0.21171,1.04452
131.288,19.43685,-0.06060979,0.2114,1.0443
131.888,19.4951,-0.06027818,0.21251,1.04408
132.488,19.55315,-0.05962229,0.21246,1.04387
133.088,19.61145,-0.05965147,0.21181,1.04365
133.688,19.66969,-0.06060986,0.21299,1.04343
134.288,19.72768,-0.0609361,0.21392,1.04321
134.888,19.78594,-0.05961542,0.21494,1.04299
135.488,19.84386,-0.05961584,0.21611,1.04277
136.088,19.90178,-0.06095892,0.21561,1.04256
136.688,19.9597,-0.06093,0.21525,1.04234
137.288,20.01741,-0.06093011,0.21618,1.04211
137.888,20.07537,-0.05916375,0.21646,1.04189
138.488,20.13325,-0.05886528,0.21785,1.04167
139.088,20.19109,-0.05895999,0.21987,1.04145
139.688,20.24912,-0.05896001,0.21909,1.04123
140.288,20.3067,-0.06073052,0.21887,1.04101
140.888,20.36466,-0.06122529,0.22207,1.04078
141.488,20.4227,-0.06159019,0.22263,1.04056
142.088,20.48075,-0.061599,0.22157,1.04034
142.688,20.5384,-0.06292907,0.22461,1.04011
143.288,20.59593,-0.06159812,0.22224,1.03989
143.888,20.6535,-0.06193249,0.22258,1.03967
144.488,20.7112,-0.06193,0.22349,1.03944
145.088,20.76889,-0.06193,0.22446,1.03921
145.688,20.8265,-0.061923,0.22425,1.03899
146.288,20.88405,-0.06291715,0.2235,1.03876
146.888,20.9417,-0.06291,0.22274,1.03854
147.488,20.99936,-0.06291,0.22576,1.03831
148.088,21.0569,-0.06290893,0.22432,1.03808
148.688,21.1147,-0.06385114,0.22636,1.03785
149.288,21.17229,-0.06421372,0.2243,1.03763
149.888,21.22993,-0.0629098,0.22557,1.0374
150.488,21.2875,-0.06291001,0.22568,1.03717
151.088,21.34464,-0.0629353,0.22754,1.03694
151.688,21.40211,-0.06423471,0.22754,1.03671
152.288,21.45971,-0.06291053,0.22725,1.03648
152.888,21.5171,-0.06291,0.22872,1.03625
153.488,21.57483,-0.06291013,0.22747,1.03602
154.088,21.63235,-0.06317325,0.2277,1.03578
154.688,21.6898,-0.06423001,0.22794,1.03555
155.288,21.74737,-0.06423,0.22906,1.03532
155.888,21.80474,-0.06423,0.22796,1.03509
156.488,21.86221,-0.06423,0.22883,1.03485
157.088,21.91946,-0.06423,0.22968,1.03462
157.688,21.97716,-0.06423011,0.22849,1.03439
158.288,22.0349,-0.06476321,0.22882,1.03415
158.888,22.0922,-0.06554004,0.22946,1.03392
159.488,22.1499,-0.06554,0.22815,1.03368
160.088,22.20737,-0.06553995,0.22804,1.03345
160.688,22.265,-0.06521504,0.22718,1.03321
161.288,22.32255,-0.06422431,0.22887,1.03298
161.888,22.38,-0.06420705,0.22957,1.03274
162.488,22.4375,-0.06423003,0.22871,1.0325
163.088,22.49488,-0.06423186,0.23097,1.03226
163.688,22.55216,-0.0655543,0.22836,1.03203
164.288,22.6096,-0.06649869,0.22865,1.03179
164.888,22.667,-0.06554979,0.23022,1.03155
165.488,22.72468,-0.06555,0.2293,1.03131
166.088,22.78226,-0.06555,0.22947,1.03107
166.688,22.83987,-0.06554851,0.23155,1.03083
167.288,22.8974,-0.06554583,0.22997,1.03059
167.888,22.9546,-0.06555047,0.22841,1.03035
168.488,23.0117,-0.06622391,0.22995,1.03011
169.088,23.06917,-0.0662,0.2304,1.02987
169.688,23.12676,-0.06619912,0.23077,1.02962
170.288,23.18465,-0.06482918,0.23084,1.02938
170.888,23.24234,-0.06554496,0.2327,1.02914
171.488,23.29962,-0.06554001,0.23192,1.0289
172.088,23.35697,-0.06549549,0.23185,1.02865
172.688,23.41431,-0.06686574,0.23247,1.02841
173.288,23.47169,-0.06551525,0.23026,1.02816
173.888,23.52918,-0.06685961,0.23176,1.02792
174.488,23.5866,-0.06619982,0.23236,1.02767
175.088,23.64376,-0.0662,0.23402,1.02743
175.688,23.70125,-0.0662,0.23283,1.02718
176.288,23.75841,-0.0662,0.23125,1.02694
176.888,23.8158,-0.0662,0.23157,1.02669
177.488,23.87331,-0.0662,0.23291,1.02644
178.088,23.93083,-0.06619999,0.23313,1.02619
178.688,23.9884,-0.06621042,0.23203,1.02595
179.288,24.0457,-0.06742216,0.23368,1.0257
179.888,24.10268,-0.06851055,0.23344,1.02545
180.488,24.1595,-0.06851,0.23308,1.0252
181.088,24.21679,-0.06851,0.23254,1.02495
181.688,24.2742,-0.06851,0.23331,1.0247
182.288,24.3317,-0.06851009,0.23365,1.02445
182.888,24.38905,-0.06818252,0.23558,1.0242
183.488,24.44608,-0.06818003,0.2343,1.02395
184.088,24.50333,-0.06817421,0.23476,1.02369
184.688,24.5607,-0.06752267,0.23545,1.02344
185.288,24.61799,-0.06883695,0.23521,1.02319
185.888,24.675,-0.06883999,0.23632,1.02294
186.488,24.732,-0.06884,0.23508,1.02268
187.088,24.78901,-0.06884,0.23882,1.02243
187.688,24.84637,-0.06884,0.2375,1.02217
188.288,24.90381,-0.06884,0.23517,1.02192
188.888,24.96109,-0.06884,0.23546,1.02166
189.488,25.01825,-0.06883614,0.23495,1.02141
190.088,25.0752,-0.0695134,0.23698,1.02115
190.688,25.1323,-0.0694897,0.23597,1.0209
191.288,25.1894,-0.06850985,0.23586,1.02064
191.888,25.24667,-0.06850386,0.23686,1.02038
192.488,25.30402,-0.06982818,0.2375,1.02012
193.088,25.3608,-0.06983218,0.23693,1.01987
193.688,25.4176,-0.06971608,0.2376,1.01961
194.288,25.4745,-0.06982988,0.23835,1.01935
194.888,25.53148,-0.06983,0.23795,1.01909
195.488,25.58854,-0.06983059,0.23696,1.01883
196.088,25.6455,-0.07193971,0.23699,1.01857
196.688,25.70243,-0.07305599,0.23733,1.01831
197.288,25.7592,-0.07345001,0.24056,1.01805
197.888,25.81618,-0.07212465,0.23687,1.01779
198.488,25.8732,-0.07111612,0.24094,1.01753
199.088,25.9301,-0.07081898,0.23888,1.01726
199.688,25.98711,-0.07004622,0.23833,1.017
200.288,26.04414,-0.07016003,0.23951,1.01674
200.888,26.1011,-0.07030354,0.23811,1.01647
201.488,26.1582,-0.07146998,0.23598,1.01621
202.088,26.21521,-0.0714719,0.23705,1.01595
202.688,26.27223,-0.07279673,0.2332,1.01568
203.288,26.32933,-0.07279022,0.23685,1.01542
203.888,26.3862,-0.0747416,0.2375,1.01515
204.488,26.4432,-0.07476998,0.23701,1.01488
205.088,26.5001,-0.07476564,0.23755,1.01462
205.688,26.5573,-0.07543068,0.23765,1.01435
206.288,26.61409,-0.0754283,0.23737,1.01408
206.888,26.67104,-0.07410323,0.23694,1.01382
207.488,26.72825,-0.07543851,0.23678,1.01355
208.088,26.7854,-0.07543258,0.23537,1.01328
208.688,26.84245,-0.07509648,0.23575,1.01301
209.288,26.8995,-0.07444392,0.23542,1.01274
209.888,26.9567,-0.07443999,0.23355,1.01247
210.488,27.0138,-0.0744397,0.23462,1.0122
211.088,27.0714,-0.07697314,0.23534,1.01193
211.688,27.12862,-0.07706999,0.23491,1.01166
212.288,27.18587,-0.07707,0.2363,1.01139
212.888,27.24297,-0.07707,0.23463,1.01112
213.488,27.2998,-0.07707042,0.23562,1.01084
214.088,27.3568,-0.07573544,0.23578,1.01057
214.688,27.414,-0.0757859,0.23547,1.0103
215.288,27.47123,-0.07673835,0.23677,1.01003
215.888,27.5286,-0.07674059,0.23605,1.00975
216.488,27.5858,-0.07806222,0.23692,1.00948
217.088,27.64285,-0.07839762,0.23683,1.0092
217.688,27.69995,-0.07706981,0.2373,1.00893
218.288,27.75674,-0.0783952,0.23621,1.00865
218.888,27.81389,-0.07935283,0.23801,1.00838
219.488,27.8712,-0.07937998,0.23906,1.0081
220.088,27.9281,-0.07938513,0.2391,1.00782
220.688,27.9852,-0.07971046,0.23909,1.00754
221.288,28.04216,-0.08106892,0.24112,1.00727
221.888,28.0992,-0.08102,0.24169,1.00699
222.488,28.1566,-0.08101969,0.23958,1.00671
223.088,28.21388,-0.08185495,0.23988,1.00643
223.688,28.2713,-0.08333314,0.24353,1.00615
224.288,28.3285,-0.08365717,0.24025,1.00587
224.888,28.3856,-0.08333062,0.24048,1.00559
225.488,28.44247,-0.08474318,0.24147,1.00531
226.088,28.4991,-0.08597056,0.24197,1.00503
226.688,28.5561,-0.08591546,0.24232,1.00475
227.288,28.61331,-0.08858997,0.24247,1.00447
227.888,28.6704,-0.08729109,0.2442,1.00418
228.488,28.7275,-0.08729959,0.24213,1.0039
229.088,28.78458,-0.08860538,0.24429,1.00362
229.688,28.84155,-0.0900172,0.24384,1.00333
230.288,28.89879,-0.09122994,0.24395,1.00305
230.888,28.95575,-0.09122748,0.24522,1.00277
231.488,29.01271,-0.09353991,0.24546,1.00248
232.088,29.0693,-0.09485884,0.24588,1.00219
232.688,29.1263,-0.09486008,0.24603,1.00191
233.288,29.18334,-0.09506204,0.24542,1.00162
233.888,29.24053,-0.09617098,0.24664,1.00134
234.488,29.29816,-0.09574822,0.24868,1.00105
235.088,29.3551,-0.09619389,0.24889,1.00076
235.688,29.4127,-0.09766049,0.24835,1.00047
236.288,29.47007,-0.10017,0.24948,1.00019
236.888,29.5273,-0.10013,0.24978,0.9999
237.488,29.58448,-0.10275,0.25165,0.99961
238.088,29.64146,-0.10137,0.25138,0.99932
238.688,29.69813,-0.10276,0.25275,0.99903
239.288,29.7553,-0.10337,0.2534,0.99874
239.888,29.8126,-0.10478,0.25157,0.99845
240.488,29.8702,-0.10653,0.25141,0.99815
241.088,29.92776,-0.10737,0.25164,0.99786
241.688,29.98498,-0.10732,0.25253,0.99757
242.288,30.04209,-0.10866,0.25264,0.99728
242.888,30.09899,-0.11001,0.25426,0.99699
243.488,30.1561,-0.10996,0.25576,0.99669
244.088,30.21347,-0.11153,0.25666,0.9964
244.688,30.27096,-0.11396,0.25599,0.9961
245.288,30.3284,-0.11528,0.25701,0.99581
245.888,30.3859,-0.11531,0.25726,0.99551
246.488,30.4432,-0.1166,0.25912,0.99522
247.088,30.5005,-0.11752,0.26002,0.99492
247.688,30.55787,-0.11852,0.26122,0.99462
248.288,30.6151,-0.11997,0.26222,0.99433
248.888,30.6724,-0.11992,0.26128,0.99403
249.488,30.7296,-0.12121,0.26412,0.99373
250.088,30.7866,-0.12253,0.26433,0.99343
250.688,30.84382,-0.12358,0.26386,0.99314
251.288,30.90085,-0.12383,0.26626,0.99284
251.888,30.9581,-0.12516,0.2666,0.99254
252.488,31.01533,-0.12652,0.26709,0.99224
253.088,31.07275,-0.1278,0.26918,0.99194
253.688,31.13007,-0.12778,0.26941,0.99164
254.288,31.18763,-0.13045,0.27011,0.99133
254.888,31.2445,-0.13176,0.27127,0.99103
255.488,31.30166,-0.13303,0.27363,0.99073
256.088,31.359,-0.13503,0.27366,0.99043
256.688,31.4164,-0.13668,0.27449,0.99013
257.288,31.47421,-0.13797,0.27773,0.98982
257.888,31.5314,-0.13963,0.27937,0.98952
258.488,31.5886,-0.14104,0.28,0.98921
259.088,31.6458,-0.14248,0.28096,0.98891
259.688,31.70305,-0.14387,0.28348,0.9886
260.288,31.7603,-0.14481,0.28425,0.9883
260.888,31.8176,-0.14607,0.28504,0.98799
261.488,31.87472,-0.14883,0.28626,0.98769
262.088,31.93191,-0.15028,0.29047,0.98738
262.688,31.98923,-0.15293,0.29043,0.98707
263.288,32.04637,-0.15467,0.29298,0.98676
263.888,32.10357,-0.15681,0.29632,0.98646
264.488,32.1608,-0.15868,0.29727,0.98615
265.088,32.2181,-0.16063,0.29913,0.98584
265.688,32.27532,-0.16326,0.30247,0.98553
266.288,32.3328,-0.165,0.30369,0.98522
266.888,32.39025,-0.16741,0.30663,0.98491
267.488,32.4478,-0.17028,0.30864,0.9846
268.088,32.50528,-0.17168,0.31024,0.98429
268.688,32.56265,-0.17401,0.31262,0.98398
269.288,32.6199,-0.17683,0.31555,0.98366
269.888,32.67732,-0.17901,0.31905,0.98335
270.488,32.73468,-0.18224,0.32128,0.98304
271.088,32.79228,-0.18424,0.32382,0.98272
271.688,32.84998,-0.187,0.32807,0.98241
272.288,32.90746,-0.1911,0.3296,0.9821
272.888,32.96488,-0.19403,0.33341,0.98178
273.488,33.02202,-0.19595,0.33728,0.98147
274.088,33.07925,-0.19894,0.34041,0.98115
274.688,33.13655,-0.20203,0.34207,0.98083
275.288,33.1941,-0.20615,0.34679,0.98052
275.888,33.25161,-0.20988,0.34916,0.9802
276.488,33.30899,-0.21351,0.35427,0.97988
277.088,33.36643,-0.21994,0.3597,0.97957
277.688,33.4238,-0.22358,0.36575,0.97925
278.288,33.48131,-0.22745,0.36888,0.97893
278.888,33.53883,-0.23196,0.37457,0.97861
279.488,33.59608,-0.23634,0.37924,0.97829
280.088,33.6534,-0.24173,0.38373,0.97797
280.688,33.71066,-0.24648,0.38889,0.97765
281.288,33.76805,-0.24975,0.39555,0.97733
281.888,33.82555,-0.25598,0.40001,0.97701
282.488,33.88297,-0.26146,0.40477,0.97669
283.088,33.94037,-0.26714,0.41028,0.97637
283.688,33.99776,-0.27274,0.41446,0.97604
284.288,34.05503,-0.27893,0.42195,0.97572
284.888,34.11267,-0.28586,0.42857,0.9754
285.488,34.1701,-0.29317,0.43462,0.97507
286.088,34.22712,-0.29989,0.4414,0.97475
286.688,34.28475,-0.30846,0.44938,0.97442
287.288,34.34218,-0.31532,0.45512,0.9741
287.888,34.40012,-0.32407,0.46584,0.97377
288.488,34.45807,-0.33362,0.47134,0.97345
289.088,34.51556,-0.34092,0.48,0.97312
289.688,34.57327,-0.34938,0.48838,0.97279
290.288,34.63028,-0.35852,0.49703,0.97247
290.888,34.6878,-0.36771,0.50892,0.97214
291.488,34.74522,-0.37994,0.51812,0.97181
292.088,34.80284,-0.39164,0.5278,0.97148
292.688,34.86075,-0.40346,0.54124,0.97115
293.288,34.9182,-0.41497,0.5567,0.97082
293.888,34.97572,-0.42746,0.57282,0.97049
294.488,35.0332,-0.44404,0.59675,0.97016
295.088,35.09089,-0.45963,0.62124,0.96983
295.688,35.14873,-0.47873,0.65894,0.9695
296.288,35.2063,-0.49929,0.69664,0.96917
296.888,35.26393,-0.52321,0.73962,0.96884
297.488,35.32159,-0.55043,0.78395,0.9685
298.088,35.37936,-0.57989,0.83331,0.96817
298.688,35.43744,-0.61278,0.87713,0.96784
299.288,35.49524,-0.64707,0.90292,0.9675
299.888,35.55328,-0.68088,0.91503,0.96717
300.488,35.61115,-0.7139,0.91414,0.96683
301.088,35.6685,-0.74594,0.89809,0.9665
301.688,35.7263,-0.77586,0.86966,0.96616
302.288,35.78371,-0.8051,0.84011,0.96583
302.888,35.84163,-0.83073,0.80151,0.96549
303.488,35.89966,-0.8559,0.76368,0.96515
304.088,35.95735,-0.87992,0.72075,0.96482
304.688,36.01533,-0.90058,0.68241,0.96448
305.288,36.07268,-0.9208,0.64908,0.96414
305.888,36.12999,-0.93879,0.6182,0.9638
306.488,36.1873,-0.95636,0.59803,0.96346
307.088,36.2446,-0.97193,0.58024,0.96312
307.688,36.3022,-0.98897,0.56604,0.96278
308.288,36.35962,-1.00528,0.55621,0.96244
308.888,36.4167,-1.01992,0.54857,0.9621
309.488,36.47403,-1.03756,0.54346,0.96176
310.088,36.53141,-1.05289,0.5379,0.96142
310.688,36.58876,-1.06961,0.53228,0.96108
311.288,36.6464,-1.08549,0.53062,0.96073
311.888,36.7039,-1.10133,0.5258,0.96039
312.488,36.7613,-1.11654,0.52291,0.96005
313.088,36.8188,-1.1322,0.51794,0.9597
313.688,36.87622,-1.14792,0.51878,0.95936
314.288,36.93359,-1.16317,0.51399,0.95901
314.888,36.99107,-1.17891,0.51061,0.95867
315.488,37.0486,-1.19374,0.50677,0.95832
316.088,37.10603,-1.20852,0.50378,0.95798
316.688,37.16365,-1.22381,0.50103,0.95763
317.288,37.2213,-1.23893,0.49609,0.95728
317.888,37.27883,-1.25365,0.49134,0.95693
318.488,37.33641,-1.26924,0.48884,0.95659
319.088,37.39403,-1.28406,0.48344,0.95624
319.688,37.45172,-1.29779,0.47841,0.95589
320.288,37.5094,-1.31296,0.47306,0.95554
320.888,37.56714,-1.32636,0.46907,0.95519
321.488,37.62475,-1.34159,0.46398,0.95484
322.088,37.6823,-1.35608,0.45926,0.95449
322.688,37.73985,-1.36908,0.45532,0.95414
323.288,37.79736,-1.38349,0.45098,0.95379
323.888,37.85478,-1.3963,0.4429,0.95343
324.488,37.91256,-1.41015,0.43951,0.95308
325.088,37.97033,-1.42247,0.43176,0.95273
325.688,38.02819,-1.43547,0.42764,0.95238
326.288,38.08594,-1.44958,0.42078,0.95202
326.888,38.14356,-1.46323,0.41463,0.95167
327.488,38.20118,-1.4767,0.41118,0.95131
328.088,38.25892,-1.48806,0.40459,0.95096
328.688,38.3166,-1.50215,0.39902,0.9506
329.288,38.37441,-1.51307,0.3923,0.95025
329.888,38.4322,-1.52483,0.38585,0.94989
330.488,38.48984,-1.53484,0.37974,0.94953
331.088,38.54753,-1.5471,0.37256,0.94918
331.688,38.60519,-1.55697,0.36857,0.94882
332.288,38.66279,-1.56755,0.3623,0.94846
332.888,38.72038,-1.58056,0.35503,0.9481
333.488,38.77805,-1.59064,0.34971,0.94774
334.088,38.83587,-1.60067,0.3438,0.94738
334.688,38.89378,-1.61062,0.33604,0.94702
335.288,38.95166,-1.62167,0.32811,0.94666
335.888,39.00946,-1.63056,0.32204,0.9463
336.488,39.06725,-1.64024,0.31598,0.94594
337.088,39.12475,-1.64984,0.31063,0.94558
337.688,39.18243,-1.65814,0.30381,0.94522
338.288,39.2403,-1.66675,0.29454,0.94486
338.888,39.29826,-1.67564,0.28899,0.94449
339.488,39.35617,-1.68429,0.2826,0.94413
340.088,39.41407,-1.69143,0.27536,0.94377
340.688,39.47217,-1.70049,0.26668,0.9434
341.288,39.5303,-1.70902,0.26009,0.94304
341.888,39.58845,-1.7167,0.25295,0.94267
342.488,39.6464,-1.72546,0.24546,0.94231
343.088,39.70433,-1.7328,0.23815,0.94194
343.688,39.76214,-1.73991,0.23088,0.94157
344.288,39.82,-1.7464,0.22436,0.94121
344.888,39.87774,-1.75135,0.21669,0.94084
345.488,39.93545,-1.75701,0.20859,0.94047
346.088,39.99325,-1.76358,0.20069,0.9401
346.688,40.05118,-1.77011,0.19208,0.93974
347.288,40.10931,-1.7762,0.18354,0.93937
347.888,40.1674,-1.78159,0.17701,0.939
348.488,40.2254,-1.78658,0.16882,0.93863
349.088,40.2832,-1.79282,0.16087,0.93826
349.688,40.34091,-1.79901,0.1548,0.93789
350.288,40.3985,-1.80364,0.1453,0.93751
350.888,40.45645,-1.80867,0.14148,0.93714
351.488,40.51442,-1.81241,0.13524,0.93677
352.088,40.57228,-1.81587,0.12807,0.9364
352.688,40.63033,-1.82218,0.12347,0.93602
353.288,40.6883,-1.82717,0.1151,0.93565
353.888,40.74643,-1.83033,0.1089,0.93528
354.488,40.80401,-1.83443,0.10287,0.9349
355.088,40.8618,-1.83803,0.09676636,0.93453
355.688,40.9195,-1.84133,0.08878102,0.93415
356.288,40.97696,-1.84423,0.08549009,0.93378
356.888,41.035,-1.84612,0.08009431,0.9334
357.488,41.09292,-1.85041,0.07538433,0.93302
358.088,41.1512,-1.85308,0.07037499,0.93265
358.688,41.20936,-1.85446,0.06505978,0.93227
359.288,41.26697,-1.85637,0.06293726,0.93189
359.888,41.32501,-1.85847,0.05870617,0.93151
360.488,41.38297,-1.86122,0.05649907,0.93114
361.088,41.4409,-1.8627,0.05304544,0.93076
361.688,41.49938,-1.8648,0.05082395,0.93038
362.288,41.55727,-1.8681,0.04750271,0.93
362.888,41.6152,-1.86847,0.04570125,0.92962
363.488,41.6733,-1.86947,0.0441039,0.92923
364.088,41.73134,-1.87034,0.04581945,0.92885
364.688,41.78955,-1.87118,0.04455454,0.92847
365.288,41.8474,-1.87282,0.04624792,0.92809
365.888,41.90528,-1.87279,0.04581199,0.92771
366.488,41.9632,-1.87408,0.04792195,0.92732
367.088,42.0214,-1.87525,0.04706395,0.92694
367.688,42.0798,-1.87543,0.04838262,0.92656
368.288,42.13796,-1.87643,0.05070718,0.92617
368.888,42.196,-1.87675,0.05192045,0.92579
369.488,42.25405,-1.87807,0.05306782,0.9254
370.088,42.31198,-1.87996,0.05338853,0.92502
370.688,42.3697,-1.88004,0.05468182,0.92463
371.288,42.4274,-1.88004,0.05741881,0.92424
371.888,42.4856,-1.88025,0.05789391,0.92386
372.488,42.54432,-1.88005,0.05805954,0.92347
373.088,42.60288,-1.88005,0.06012325,0.92308
373.688,42.6613,-1.88137,0.06450391,0.92269
374.288,42.71963,-1.88267,0.06431803,0.9223
374.888,42.77786,-1.88405,0.06322262,0.92191
375.488,42.83599,-1.88257,0.06412459,0.92152
376.088,42.89441,-1.88257,0.0654535,0.92113
376.688,42.9527,-1.88403,0.06827836,0.92074
377.288,43.01104,-1.88322,0.06697317,0.92035
377.888,43.069,-1.88465,0.06654935,0.91996
378.488,43.12706,-1.88456,0.06835841,0.91957
379.088,43.18531,-1.88465,0.06668012,0.91918
379.688,43.24361,-1.88465,0.06777855,0.91878
380.288,43.3024,-1.88465,0.06753705,0.91839
380.888,43.36067,-1.88603,0.0674034,0.918
381.488,43.419,-1.88695,0.06567602,0.9176
382.088,43.47715,-1.88727,0.06534702,0.91721
382.688,43.5353,-1.88597,0.06459904,0.91681
383.288,43.59355,-1.88597,0.06363763,0.91642
383.888,43.65195,-1.88732,0.06103228,0.91602
384.488,43.71015,-1.88596,0.06119166,0.91563
385.088,43.76846,-1.88532,0.06149146,0.91523
385.688,43.82663,-1.88792,0.06039085,0.91483
386.288,43.88487,-1.88924,0.05711726,0.91444
386.888,43.9433,-1.88926,0.05903597,0.91404
387.488,44.00163,-1.88926,0.05740978,0.91364
388.088,44.05988,-1.8896,0.05768063,0.91324
388.688,44.11822,-1.88959,0.05629008,0.91284
389.288,44.1765,-1.89003,0.05529736,0.91244
389.888,44.23472,-1.89199,0.05661136,0.91204
390.488,44.293,-1.8919,0.05379028,0.91164
391.088,44.35133,-1.89304,0.05245561,0.91124
391.688,44.40968,-1.89321,0.05211129,0.91084
392.288,44.46824,-1.89321,0.05256207,0.91044
392.888,44.52667,-1.89321,0.05127375,0.91003
393.488,44.58506,-1.89321,0.04753464,0.90963
394.088,44.6434,-1.89321,0.04717125,0.90923
394.688,44.70187,-1.89223,0.04730472,0.90883
395.288,44.76021,-1.89224,0.04598047,0.90842
395.888,44.8187,-1.89355,0.04511746,0.90802
396.488,44.8772,-1.89487,0.04586422,0.90761
397.088,44.9356,-1.89487,0.04259217,0.90721
397.688,44.99418,-1.89487,0.04225337,0.9068
398.288,45.05278,-1.89487,0.04139028,0.90639
398.888,45.1112,-1.89618,0.03741094,0.90599
399.488,45.16966,-1.89881,0.03579627,0.90558
400.088,45.2281,-1.89881,0.03517051,0.90517
400.688,45.28613,-1.8995,0.03109736,0.90477
401.288,45.34449,-1.90004,0.03263651,0.90436
401.888,45.40272,-1.90015,0.03056229,0.90395
402.488,45.4614,-1.90099,0.0287461,0.90354
403.088,45.52049,-1.90146,0.02788436,0.90313
403.688,45.57917,-1.90211,0.02746751,0.90272
404.288,45.63793,-1.90277,0.02526991,0.90231
404.888,45.69659,-1.90293,0.02257156,0.9019
405.488,45.75506,-1.90409,0.02144143,0.90149
406.088,45.81361,-1.90431,0.01936923,0.90108
406.688,45.87212,-1.90538,0.01778794,0.90066
407.288,45.93055,-1.90673,0.01734093,0.90025
407.888,45.98898,-1.90672,0.01505678,0.89984
408.488,46.04741,-1.90804,0.01381321,0.89942
409.088,46.10584,-1.90804,0.01319767,0.89901
409.688,46.16442,-1.90935,0.01152964,0.8986
410.288,46.2229,-1.91078,0.0100731,0.89818
410.888,46.28168,-1.91065,0.007401935,0.89777
411.488,46.3403,-1.912,0.007171497,0.89735
412.088,46.39893,-1.91461,0.003826253,0.89693
412.688,46.45751,-1.9172,0.003772839,0.89652
413.288,46.5159,-1.91842,0.0008726553,0.8961
413.888,46.57428,-1.91857,-0.00120888,0.89568
414.488,46.63283,-1.91953,-0.00222445,0.89527
415.088,46.69128,-1.91973,-0.00184034,0.89485
415.688,46.74987,-1.92121,-0.0023495,0.89443
416.288,46.8084,-1.92454,-0.004042974,0.89401
416.888,46.86698,-1.92661,-0.005557802,0.89359
417.488,46.92553,-1.92726,-0.007244745,0.89317
418.088,46.9842,-1.92856,-0.005375615,0.89275
418.688,47.04262,-1.92989,-0.006996721,0.89233
419.288,47.10122,-1.93118,-0.00680622,0.89191
419.888,47.1599,-1.93324,-0.00769009,0.89149
420.488,47.21856,-1.93516,-0.008354022,0.89107
421.088,47.27728,-1.93676,-0.007995468,0.89064
421.688,47.33596,-1.93959,-0.007242473,0.89022
422.288,47.39461,-1.94233,-0.00733692,0.8898
422.888,47.45335,-1.9439,-0.008068206,0.88937
423.488,47.51207,-1.94538,-0.0095616,0.88895
424.088,47.5706,-1.9481,-0.01081508,0.88852
424.688,47.62941,-1.95109,-0.0102702,0.8881
425.288,47.68835,-1.95398,-0.0093887,0.88767
425.888,47.74731,-1.9555,-0.009808009,0.88725
426.488,47.80627,-1.95775,-0.01025924,0.88682
427.088,47.86485,-1.9615,-0.00711944,0.8864
427.688,47.92323,-1.96494,-0.006748984,0.88597
428.288,47.9816,-1.96716,-0.005149643,0.88554
428.888,48.04033,-1.97135,-0.005328235,0.88511
429.488,48.09936,-1.97435,-0.004105385,0.88469
430.088,48.15822,-1.97767,-0.00225182,0.88426
430.688,48.21717,-1.98068,-0.001991521,0.88383
431.288,48.27577,-1.98547,0.001043371,0.8834
431.888,48.33461,-1.98743,0.003623361,0.88297
432.488,48.3934,-1.99067,0.004457237,0.88254
433.088,48.45227,-1.99456,0.004596278,0.88211
433.688,48.51106,-1.99874,0.007110302,0.88168
434.288,48.56969,-2.00241,0.008674305,0.88124
434.888,48.6284,-2.00722,0.01379762,0.88081
435.488,48.68716,-2.01245,0.01497897,0.88038
436.088,48.7462,-2.0171,0.01731175,0.87995
436.688,48.8052,-2.02088,0.02102867,0.87951
437.288,48.8639,-2.02567,0.02557484,0.87908
437.888,48.92262,-2.03127,0.02589316,0.87864
438.488,48.98138,-2.03625,0.03030077,0.87821
439.088,49.04027,-2.04231,0.03445854,0.87778
439.688,49.09929,-2.04649,0.03631682,0.87734
440.288,49.1582,-2.05341,0.04089009,0.8769
440.888,49.21682,-2.05816,0.04369544,0.87647
441.488,49.27525,-2.06399,0.04679496,0.87603
442.088,49.33419,-2.06795,0.04923374,0.87559
442.688,49.39298,-2.07348,0.05513549,0.87516
443.288,49.45245,-2.07969,0.05980756,0.87472
443.888,49.5115,-2.08501,0.06309025,0.87428
444.488,49.57066,-2.0922,0.06829694,0.87384
445.088,49.62932,-2.0993,0.06922484,0.8734
445.688,49.68815,-2.10542,0.0730416,0.87296
446.288,49.74628,-2.10936,0.07657386,0.87252
446.888,49.80505,-2.11541,0.08226829,0.87208
447.488,49.86421,-2.12218,0.08508869,0.87164
448.088,49.92357,-2.1285,0.0905696,0.8712
448.688,49.9833,-2.13564,0.09284216,0.87076
449.288,50.0423,-2.14084,0.09725457,0.87032
449.888,50.1012,-2.14803,0.09885097,0.86987
450.488,50.15983,-2.15503,0.10312,0.86943
451.088,50.21832,-2.16157,0.10445,0.86899
451.688,50.2771,-2.16834,0.10748,0.86854
452.288,50.3359,-2.17489,0.11058,0.8681
452.888,50.39522,-2.18153,0.11468,0.86766
453.488,50.45418,-2.18937,0.1194,0.86721
454.088,50.51316,-2.19559,0.11875,0.86677
454.688,50.57221,-2.20195,0.12146,0.86632
455.288,50.6312,-2.20955,0.12632,0.86587
455.888,50.69017,-2.21663,0.12689,0.86543
456.488,50.7492,-2.22312,0.13077,0.86498
457.088,50.80806,-2.22916,0.1363,0.86453
457.688,50.86707,-2.23553,0.1373,0.86408
458.288,50.92607,-2.24308,0.14015,0.86364
458.888,50.98506,-2.25067,0.1435,0.86319
459.488,51.04417,-2.25846,0.14585,0.86274
460.088,51.10308,-2.2666,0.1477,0.86229
460.688,51.16231,-2.27385,0.14922,0.86184
461.288,51.22143,-2.27988,0.14901,0.86139
461.888,51.28055,-2.28571,0.14675,0.86094
462.488,51.3396,-2.28936,0.14962,0.86049
463.088,51.39842,-2.29797,0.14931,0.86004
463.688,51.45738,-2.3032,0.14805,0.85958
464.288,51.5164,-2.31193,0.14948,0.85913
464.888,51.57567,-2.31775,0.14868,0.85868
465.488,51.63511,-2.32461,0.15109,0.85823
466.088,51.69422,-2.33238,0.15117,0.85777
466.688,51.75347,-2.3395,0.15392,0.85732
467.288,51.81268,-2.34584,0.15328,0.85687
467.888,51.87195,-2.35312,0.15287,0.85641
468.488,51.9313,-2.35846,0.15136,0.85596
469.088,51.99055,-2.36574,0.15289,0.8555
469.688,52.04959,-2.37289,0.1515,0.85504
470.288,52.10869,-2.37776,0.15041,0.85459
470.888,52.1676,-2.38388,0.15231,0.85413
471.488,52.22688,-2.38899,0.15055,0.85367
472.088,52.28598,-2.39485,0.14832,0.85322
472.688,52.34503,-2.39965,0.14855,0.85276
473.288,52.40419,-2.40646,0.14957,0.8523
473.888,52.46345,-2.41464,0.14796,0.85184
474.488,52.52251,-2.42006,0.14411,0.85138
475.088,52.5817,-2.42765,0.14274,0.85092
475.688,52.64063,-2.43348,0.14238,0.85046
476.288,52.70004,-2.43664,0.14158,0.85
476.888,52.759,-2.44114,0.14169,0.84954
477.488,52.81811,-2.4461,0.14048,0.84908
478.088,52.8774,-2.45207,0.13711,0.84862
478.688,52.9366,-2.45557,0.13728,0.84816
479.288,52.9965,-2.46129,0.137,0.8477
479.888,53.05581,-2.46431,0.13676,0.84723
480.488,53.1152,-2.47048,0.13682,0.84677
481.088,53.17436,-2.47722,0.13592,0.84631
481.688,53.23339,-2.48078,0.1357,0.84584
482.288,53.2925,-2.48373,0.13654,0.84538
482.888,53.3515,-2.48924,0.13569,0.84492
483.488,53.41075,-2.49331,0.13391,0.84445
484.088,53.46977,-2.49671,0.1327,0.84398
484.688,53.5294,-2.50231,0.13111,0.84352
485.288,53.58879,-2.50622,0.13216,0.84305
485.888,53.64821,-2.50913,0.13132,0.84259
486.488,53.7079,-2.51446,0.13003,0.84212
487.088,53.7672,-2.51747,0.12894,0.84165
487.688,53.82663,-2.52089,0.12801,0.84118
488.288,53.88573,-2.52297,0.12724,0.84072
488.888,53.94515,-2.52731,0.1261,0.84025
489.488,54.00436,-2.53176,0.12554,0.83978
490.088,54.06371,-2.536,0.12719,0.83931
490.688,54.1231,-2.53952,0.12461,0.83884
491.288,54.1822,-2.54228,0.12412,0.83837
491.888,54.24151,-2.54459,0.12222,0.8379
492.488,54.301,-2.54782,0.12396,0.83743
493.088,54.36045,-2.54934,0.12003,0.83696
493.688,54.4197,-2.55307,0.12108,0.83649
494.288,54.479,-2.55478,0.11977,0.83601
494.888,54.5383,-2.5577,0.11804,0.83554
495.488,54.59775,-2.56143,0.11844,0.83507
496.088,54.6571,-2.56384,0.11807,0.8346
496.688,54.7165,-2.56518,0.11709,0.83412
497.288,54.7758,-2.56954,0.1163,0.83365
497.888,54.83497,-2.57081,0.11562,0.83317
498.488,54.8941,-2.57337,0.11495,0.8327
499.088,54.95332,-2.57474,0.11596,0.83223
499.688,55.01266,-2.57716,0.11439,0.83175
500.288,55.0719,-2.5785,0.11261,0.83127
500.888,55.1312,-2.58098,0.11329,0.8308
501.488,55.1906,-2.58389,0.11407,0.83032
502.088,55.2499,-2.58624,0.11126,0.82984
502.688,55.3094,-2.58837,0.11312,0.82937
503.288,55.3687,-2.58968,0.11139,0.82889
503.888,55.42795,-2.59094,0.11161,0.82841
504.488,55.48726,-2.591,0.11397,0.82793
505.088,55.54659,-2.59223,0.11306,0.82745
505.688,55.6061,-2.59522,0.11011,0.82698
506.288,55.66573,-2.59647,0.11167,0.8265
506.888,55.7253,-2.5965,0.11463,0.82602
507.488,55.78479,-2.59942,0.1143,0.82554
508.088,55.84425,-2.60352,0.11384,0.82505
508.688,55.90355,-2.60479,0.11381,0.82457
509.288,55.96304,-2.60473,0.11287,0.82409
509.888,56.02242,-2.60515,0.11432,0.82361
510.488,56.08174,-2.60481,0.11224,0.82313
511.088,56.14125,-2.60489,0.11362,0.82265
511.688,56.2006,-2.60742,0.11385,0.82216
512.288,56.25999,-2.60747,0.11501,0.82168
512.888,56.3195,-2.60844,0.11402,0.8212
513.488,56.3788,-2.60879,0.1153,0.82071
514.088,56.43825,-2.61011,0.11375,0.82023
514.688,56.4979,-2.61097,0.11568,0.81974
515.288,56.5571,-2.61301,0.11709,0.81926
515.888,56.61676,-2.61407,0.11589,0.81877
516.488,56.67629,-2.61274,0.11955,0.81829
517.088,56.73574,-2.61312,0.11912,0.8178
517.688,56.7955,-2.61521,0.11743,0.81731
518.288,56.8552,-2.61665,0.11913,0.81683
518.888,56.91502,-2.61669,0.11896,0.81634
519.488,56.9747,-2.61669,0.12051,0.81585
520.088,57.0344,-2.61766,0.11985,0.81536
520.688,57.09394,-2.61933,0.1197,0.81488
521.288,57.15368,-2.61729,0.12024,0.81439
521.888,57.2136,-2.618,0.11925,0.8139
522.488,57.27339,-2.62032,0.12033,0.81341
523.088,57.3331,-2.62219,0.11987,0.81292
523.688,57.39285,-2.62314,0.12114,0.81243
524.288,57.45241,-2.62317,0.12379,0.81194
524.888,57.5119,-2.62449,0.12191,0.81145
525.488,57.5714,-2.62431,0.12298,0.81095
526.088,57.6308,-2.62449,0.12416,0.81046
526.688,57.6904,-2.62515,0.12413,0.80997
527.288,57.75,-2.62514,0.12456,0.80948
527.888,57.8098,-2.62581,0.12645,0.80899
528.488,57.86943,-2.62712,0.12738,0.80849
529.088,57.929,-2.6258,0.12936,0.808
529.688,57.98865,-2.6258,0.12942,0.80751
530.288,58.04806,-2.62605,0.1313,0.80701
530.888,58.10781,-2.62846,0.13115,0.80652
531.488,58.1675,-2.62844,0.13303,0.80602
532.088,58.22671,-2.62976,0.13231,0.80553
532.688,58.2862,-2.62857,0.13317,0.80503
533.288,58.34567,-2.62844,0.13467,0.80453
533.888,58.40551,-2.62855,0.13327,0.80404
534.488,58.465,-2.62976,0.13382,0.80354
535.088,58.5245,-2.62976,0.13124,0.80304
535.688,58.5839,-2.62975,0.13293,0.80255
536.288,58.6433,-2.63107,0.13538,0.80205
536.888,58.70287,-2.63101,0.13688,0.80155
537.488,58.7622,-2.63009,0.13765,0.80105
538.088,58.82186,-2.63175,0.13778,0.80055
538.688,58.88123,-2.63239,0.13624,0.80006
539.288,58.94081,-2.63168,0.13698,0.79956
539.888,59.00022,-2.63174,0.13813,0.79906
540.488,59.05959,-2.63305,0.13803,0.79856
541.088,59.11906,-2.63305,0.13765,0.79806
541.688,59.1784,-2.63305,0.1382,0.79755
542.288,59.23805,-2.63305,0.13502,0.79705
542.888,59.29769,-2.63437,0.13638,0.79655
543.488,59.35765,-2.63437,0.13667,0.79605
544.088,59.41735,-2.63437,0.13623,0.79555
544.688,59.4769,-2.63464,0.13541,0.79505
545.288,59.53643,-2.63461,0.13388,0.79454
545.888,59.596,-2.63601,0.13082,0.79404
546.488,59.6555,-2.63601,0.13474,0.79354
547.088,59.7152,-2.63607,0.13195,0.79303
547.688,59.775,-2.63502,0.12758,0.79253
548.288,59.8347,-2.63502,0.12967,0.79202
548.888,59.8944,-2.63502,0.13022,0.79152
549.488,59.95415,-2.63497,0.12777,0.79101
550.088,60.01367,-2.63634,0.12579,0.79051
550.688,60.07334,-2.63684,0.1256,0.79
551.288,60.13306,-2.637,0.1252,0.78949
551.888,60.1928,-2.63701,0.12441,0.78899
552.488,60.25238,-2.63571,0.12173,0.78848
553.088,60.31162,-2.63757,0.12067,0.78797
553.688,60.3713,-2.63832,0.1203,0.78747
554.288,60.43082,-2.63832,0.11742,0.78696
554.888,60.49074,-2.63837,0.11974,0.78645
555.488,60.55049,-2.63832,0.11992,0.78594
556.088,60.61019,-2.63832,0.11903,0.78543
556.688,60.66984,-2.63832,0.11852,0.78492
557.288,60.7296,-2.63832,0.11865,0.78441
557.888,60.78906,-2.63832,0.11947,0.7839
558.488,60.8488,-2.637,0.11906,0.78339
559.088,60.9086,-2.637,0.1203,0.78288
559.688,60.9685,-2.63733,0.11723,0.78237
560.288,61.02841,-2.63733,0.12043,0.78186
560.888,61.0881,-2.63831,0.12167,0.78135
561.488,61.14796,-2.63963,0.12031,0.78084
562.088,61.20775,-2.63907,0.11808,0.78032
562.688,61.26733,-2.63996,0.12037,0.77981
563.288,61.32695,-2.63996,0.11641,0.7793
563.888,61.3866,-2.64041,0.11661,0.77879
564.488,61.44624,-2.64128,0.11462,0.77827
565.088,61.5059,-2.64133,0.11517,0.77776
565.688,61.56545,-2.63996,0.11594,0.77724
566.288,61.6253,-2.63997,0.11637,0.77673
566.888,61.68509,-2.64128,0.11685,0.77621
567.488,61.7452,-2.64225,0.11787,0.7757
568.088,61.80503,-2.6426,0.11454,0.77518
568.688,61.8647,-2.64204,0.1177,0.77467
569.288,61.92456,-2.64125,0.11495,0.77415
569.888,61.9843,-2.64128,0.11588,0.77364
570.488,62.04424,-2.64259,0.11568,0.77312
571.088,62.10416,-2.6426,0.1168,0.7726
571.688,62.16411,-2.6426,0.11826,0.77208
572.288,62.22416,-2.64287,0.11642,0.77157
572.888,62.28419,-2.64293,0.11561,0.77105
573.488,62.3442,-2.64293,0.11867,0.77053
574.088,62.4042,-2.6429,0.11632,0.77001
574.688,62.4641,-2.64326,0.1182,0.76949
575.288,62.52426,-2.64329,0.11811,0.76897
575.888,62.58429,-2.6459,0.12036,0.76845
576.488,62.64441,-2.64479,0.11582,0.76793
577.088,62.70459,-2.64557,0.12027,0.76741
577.688,62.7646,-2.64557,0.12179,0.76689
578.288,62.8246,-2.64557,0.11989,0.76637
578.888,62.88469,-2.64557,0.12019,0.76585
579.488,62.94452,-2.64558,0.12149,0.76533
580.088,63.0046,-2.64462,0.12141,0.76481
580.688,63.0646,-2.64326,0.12136,0.76429
581.288,63.1249,-2.64326,0.12191,0.76376
581.888,63.18505,-2.64552,0.12301,0.76324
582.488,63.24502,-2.64589,0.12321,0.76272
583.088,63.305,-2.647,0.1263,0.76219
583.688,63.36495,-2.64721,0.12643,0.76167
584.288,63.42482,-2.64721,0.12898,0.76115
584.888,63.485,-2.64754,0.12728,0.76062
585.488,63.54492,-2.64754,0.13052,0.7601
586.088,63.60465,-2.64757,0.13151,0.75957
586.688,63.6646,-2.64771,0.13144,0.75905
587.288,63.7244,-2.64862,0.13224,0.75852
587.888,63.78454,-2.64732,0.13415,0.758
588.488,63.8443,-2.64833,0.13544,0.75747
589.088,63.904,-2.64831,0.13738,0.75694
589.688,63.9638,-2.64831,0.1382,0.75642
590.288,64.02382,-2.64831,0.13943,0.75589
590.888,64.08399,-2.64831,0.13991,0.75536
591.488,64.14395,-2.64832,0.14208,0.75484
592.088,64.20388,-2.64864,0.142,0.75431
592.688,64.26391,-2.64864,0.1404,0.75378
593.288,64.32377,-2.64863,0.14517,0.75325
593.888,64.3836,-2.64996,0.14498,0.75272
594.488,64.44338,-2.64996,0.14698,0.75219
595.088,64.50339,-2.64963,0.1498,0.75166
595.688,64.56341,-2.65028,0.14972,0.75114
596.288,64.6234,-2.65028,0.15118,0.75061
596.888,64.6835,-2.65028,0.15392,0.75008
597.488,64.74348,-2.65028,0.15508,0.74954
598.088,64.80349,-2.65028,0.1574,0.74901
598.688,64.8635,-2.65028,0.15626,0.74848
599.288,64.92348,-2.6505,0.15734,0.74795
599.888,64.9835,-2.65238,0.15849,0.74742
600.488,65.04346,-2.65292,0.15978,0.74689
601.088,65.10338,-2.65292,0.15917,0.74636
601.688,65.16324,-2.65292,0.15942,0.74582
602.288,65.22331,-2.65292,0.16054,0.74529
602.888,65.28324,-2.65272,0.16009,0.74476
603.488,65.34344,-2.6516,0.16185,0.74423
604.088,65.40361,-2.65262,0.16403,0.74369
604.688,65.46391,-2.65293,0.16216,0.74316
605.288,65.524,-2.65424,0.16137,0.74262
605.888,65.58413,-2.65486,0.16407,0.74209
606.488,65.64409,-2.65358,0.16451,0.74155
607.088,65.7041,-2.65358,0.16266,0.74102
607.688,65.7641,-2.65358,0.16421,0.74048
608.288,65.82422,-2.65358,0.16303,0.73995
608.888,65.88428,-2.65351,0.16704,0.73941
609.488,65.94461,-2.65422,0.16646,0.73888
610.088,66.00475,-2.65358,0.1664,0.73834
610.688,66.06477,-2.65358,0.16775,0.7378
611.288,66.12488,-2.65485,0.16721,0.73727
611.888,66.18506,-2.65588,0.16721,0.73673
612.488,66.24526,-2.65589,0.16983,0.73619
613.088,66.3051,-2.65456,0.16845,0.73566
613.688,66.36506,-2.65456,0.1693,0.73512
614.288,66.42495,-2.65457,0.17095,0.73458
614.888,66.48512,-2.65324,0.17123,0.73404
615.488,66.54524,-2.65422,0.17124,0.7335
616.088,66.60529,-2.65457,0.17214,0.73296
616.688,66.6653,-2.6539,0.17438,0.73242
617.288,66.7252,-2.65424,0.17585,0.73188
617.888,66.7854,-2.65622,0.17585,0.73134
618.488,66.8455,-2.65786,0.17518,0.7308
619.088,66.9054,-2.65786,0.1801,0.73026
619.688,66.96536,-2.65646,0.18023,0.72972
620.288,67.02543,-2.65521,0.18312,0.72918
620.888,67.0856,-2.65521,0.17998,0.72864
621.488,67.14594,-2.65654,0.18066,0.7281
622.088,67.20597,-2.65654,0.18139,0.72756
622.688,67.26602,-2.65654,0.17984,0.72702
623.288,67.32608,-2.65654,0.17883,0.72647
623.888,67.3861,-2.6552,0.17941,0.72593
624.488,67.44636,-2.65523,0.18005,0.72539
625.088,67.50646,-2.65425,0.18141,0.72485
625.688,67.5666,-2.65424,0.1814,0.7243
626.288,67.62685,-2.655,0.18134,0.72376
626.888,67.6872,-2.65687,0.18322,0.72322
627.488,67.74753,-2.65688,0.18375,0.72267
628.088,67.80781,-2.65688,0.18557,0.72213
628.688,67.86814,-2.65688,0.18565,0.72158
629.288,67.92804,-2.65688,0.18618,0.72104
629.888,67.98815,-2.65762,0.18914,0.72049
630.488,68.04836,-2.65687,0.1893,0.71995
631.088,68.1091,-2.65687,0.18824,0.7194
631.688,68.16943,-2.65819,0.19026,0.71886
632.288,68.22994,-2.65687,0.19095,0.71831
632.888,68.29019,-2.65687,0.19038,0.71777
633.488,68.35048,-2.65789,0.18848,0.71722
634.088,68.41076,-2.65819,0.19235,0.71667
634.688,68.47108,-2.65819,0.19197,0.71613
635.288,68.5313,-2.65819,0.19352,0.71558
635.888,68.59156,-2.65952,0.19248,0.71503
636.488,68.65179,-2.65951,0.19444,0.71448
637.088,68.712,-2.65938,0.19518,0.71394
637.688,68.77237,-2.65819,0.19507,0.71339
638.288,68.83274,-2.65819,0.19429,0.71284
638.888,68.89309,-2.65819,0.19603,0.71229
639.488,68.95335,-2.65696,0.1961,0.71174
640.088,69.01337,-2.65687,0.19943,0.71119
640.688,69.07361,-2.65687,0.19614,0.71064
641.288,69.13371,-2.65678,0.19707,0.71009
641.888,69.19402,-2.65863,0.19912,0.70954
642.488,69.25417,-2.6595,0.19943,0.70899
643.088,69.31437,-2.6581,0.19864,0.70844
643.688,69.37446,-2.65819,0.19886,0.70789
644.288,69.43449,-2.65847,0.19892,0.70734
644.888,69.4944,-2.6595,0.19888,0.70679
645.488,69.55457,-2.6595,0.19936,0.70624
646.088,69.6146,-2.65948,0.20394,0.70569
646.688,69.6746,-2.65884,0.20345,0.70514
647.288,69.73464,-2.65884,0.20454,0.70459
647.888,69.79456,-2.65884,0.20417,0.70403
648.488,69.85483,-2.65884,0.20609,0.70348
649.088,69.91456,-2.6601,0.20661,0.70293
649.688,69.974,-2.66016,0.20882,0.70238
649.888,69.99347,-2.66016,0.21093,0.70219