File: 01_Data/Straw/STA/N2/3K_min/Straw_STA_N2_3KData_22052_R1.csv
##Temp./Â°C,Time/min,Mass loss(subtr.2)/mg,DSC(subtr.2)/(mW/mg),Sensit./(uV/mW)
50.265,10.01667,-0.02743,0.02319437,1.05031
50.965,11.15664,-0.02997897,0.04883068,1.05018
51.665,11.54262,-0.03009379,0.05946057,1.05006
52.365,11.86387,-0.03025583,0.06846822,1.04993
53.065,12.15905,-0.03294852,0.07395482,1.04981
53.765,12.43815,-0.03292964,0.07801634,1.04968
54.465,12.7099,-0.03138086,0.07891566,1.04955
55.165,12.97591,-0.03226835,0.08200586,1.04942
55.865,13.2372,-0.03282628,0.08602946,1.04929
56.565,13.49446,-0.03427444,0.08843977,1.04916
57.265,13.7496,-0.03421994,0.0903529,1.04903
57.965,14.0014,-0.03554008,0.09065019,1.0489
58.665,14.2507,-0.03688292,0.09273466,1.04877
59.365,14.49709,-0.0362117,0.09503127,1.04864
60.065,14.7422,-0.03750865,0.09508836,1.0485
60.765,14.98611,-0.0368447,0.09632829,1.04837
61.465,15.22899,-0.03685746,0.09607173,1.04823
62.165,15.4718,-0.03983002,0.09939671,1.0481
62.865,15.7128,-0.03948703,0.10048,1.04796
63.565,15.9528,-0.04087539,0.10174,1.04782
64.265,16.19156,-0.04248699,0.10224,1.04768
64.965,16.42833,-0.0408026,0.10355,1.04754
65.665,16.66519,-0.04209151,0.10531,1.0474
66.365,16.9009,-0.04344,0.10597,1.04726
67.065,17.13842,-0.04337859,0.10416,1.04712
67.765,17.37479,-0.04556399,0.10778,1.04698
68.465,17.61093,-0.0458481,0.11046,1.04684
69.165,17.84735,-0.04574746,0.11083,1.04669
69.865,18.08381,-0.04738781,0.1097,1.04655
70.565,18.3201,-0.04806535,0.10914,1.0464
71.265,18.55484,-0.04873644,0.10999,1.04626
71.965,18.78893,-0.05002023,0.11075,1.04611
72.665,19.02232,-0.05115334,0.111,1.04596
73.365,19.25619,-0.05067,0.11227,1.04581
74.065,19.4899,-0.05224365,0.11028,1.04566
74.765,19.72446,-0.05099085,0.11192,1.04551
75.465,19.95894,-0.05329756,0.11005,1.04536
76.165,20.19353,-0.05405723,0.10867,1.04521
76.865,20.4283,-0.05564478,0.10958,1.04506
77.565,20.66328,-0.05692923,0.10826,1.0449
78.265,20.89866,-0.05891857,0.10927,1.04475
78.965,21.13319,-0.0589,0.10701,1.04459
79.665,21.36816,-0.05888446,0.10678,1.04444
80.365,21.60268,-0.05890001,0.10643,1.04428
81.065,21.83751,-0.05926172,0.10566,1.04413
81.765,22.0719,-0.06199563,0.10547,1.04397
82.465,22.30559,-0.06186998,0.10555,1.04381
83.165,22.53969,-0.06205533,0.10122,1.04365
83.865,22.77238,-0.06351394,0.10081,1.04349
84.565,23.00585,-0.06365872,0.10086,1.04333
85.265,23.2376,-0.06383297,0.10123,1.04317
85.965,23.47074,-0.06368149,0.09899839,1.043
86.665,23.7034,-0.06613994,0.09629468,1.04284
87.365,23.93626,-0.06624443,0.0948621,1.04268
88.065,24.16861,-0.06614021,0.0980429,1.04251
88.765,24.40011,-0.06844999,0.09493528,1.04234
89.465,24.6326,-0.06646811,0.09540817,1.04218
90.165,24.8652,-0.0679,0.09100012,1.04201
90.865,25.09861,-0.0701555,0.09228416,1.04184
91.565,25.33178,-0.06914469,0.09139592,1.04167
92.265,25.56511,-0.07110084,0.0911906,1.0415
92.965,25.79795,-0.06987007,0.09250776,1.04133
93.665,26.03102,-0.07020071,0.09198324,1.04116
94.365,26.26333,-0.0701999,0.08957554,1.04099
95.065,26.4956,-0.07119525,0.09070011,1.04082
95.765,26.72662,-0.06975623,0.09271681,1.04064
96.465,26.95825,-0.07216997,0.09015946,1.04047
97.165,27.1898,-0.07218102,0.0905204,1.0403
97.865,27.42118,-0.07219512,0.09038023,1.04012
98.565,27.65278,-0.07098188,0.08873594,1.03994
99.265,27.88338,-0.07227913,0.0882705,1.03977
99.965,28.1151,-0.07228493,0.08548818,1.03959
100.665,28.34648,-0.07484674,0.08679304,1.03941
101.365,28.57797,-0.07322916,0.08609881,1.03923
102.065,28.80893,-0.0745904,0.08750512,1.03905
102.765,29.03949,-0.07590316,0.08725869,1.03887
103.465,29.27178,-0.07548218,0.08603246,1.03868
104.165,29.50367,-0.07556999,0.08682762,1.0385
104.865,29.7354,-0.07483824,0.08639016,1.03832
105.565,29.9664,-0.07688477,0.08549517,1.03813
106.265,30.1974,-0.07689862,0.08819129,1.03795
106.965,30.4284,-0.07660237,0.08842473,1.03776
107.665,30.65987,-0.07648869,0.08871255,1.03758
108.365,30.89053,-0.07653412,0.08760617,1.03739
109.065,31.12084,-0.07747852,0.0887154,1.0372
109.765,31.35042,-0.0775484,0.09013699,1.03701
110.465,31.5807,-0.07776655,0.09092048,1.03682
111.165,31.8113,-0.07821104,0.09022348,1.03663
111.865,32.0428,-0.07746151,0.08884005,1.03644
112.565,32.27432,-0.07988453,0.08963292,1.03625
113.265,32.50636,-0.07985206,0.08704312,1.03605
113.965,32.7367,-0.0798211,0.08867672,1.03586
114.665,32.9676,-0.07809629,0.08866327,1.03567
115.365,33.1984,-0.08072967,0.09069176,1.03547
116.065,33.42908,-0.08006282,0.08951536,1.03527
116.765,33.65918,-0.08031763,0.0915546,1.03508
117.465,33.88955,-0.07944876,0.08914489,1.03488
118.165,34.11967,-0.07949258,0.08754279,1.03468
118.865,34.3499,-0.08008022,0.08908882,1.03448
119.565,34.57958,-0.08091733,0.08748071,1.03428
120.265,34.81008,-0.08205119,0.08903425,1.03408
120.965,35.03965,-0.08095226,0.08896906,1.03388
121.665,35.26936,-0.08240686,0.08808151,1.03368
122.365,35.49857,-0.0834246,0.08890149,1.03348
123.065,35.72847,-0.08302981,0.09036879,1.03327
123.765,35.95877,-0.08335938,0.08975612,1.03307
124.465,36.18873,-0.08208669,0.09013716,1.03286
125.165,36.41936,-0.08205,0.08873985,1.03266
125.865,36.64953,-0.08236858,0.08672286,1.03245
126.565,36.88069,-0.08254578,0.08980422,1.03224
127.265,37.11042,-0.08369003,0.08625002,1.03203
127.965,37.3414,-0.08369335,0.08656255,1.03182
128.665,37.5713,-0.08236439,0.08807029,1.03161
129.365,37.80222,-0.08369001,0.08677617,1.0314
130.065,38.03216,-0.08493134,0.088527,1.03119
130.765,38.262,-0.08368891,0.08690489,1.03098
131.465,38.49151,-0.08369172,0.08582639,1.03077
132.165,38.7215,-0.08644611,0.08550259,1.03055
132.865,38.95225,-0.08456875,0.0860942,1.03034
133.565,39.18241,-0.08589187,0.08485692,1.03012
134.265,39.4127,-0.08490049,0.08578628,1.02991
134.965,39.6408,-0.0852367,0.08634329,1.02969
135.665,39.8699,-0.08526899,0.08745887,1.02947
136.365,40.0984,-0.08727005,0.08814606,1.02925
137.065,40.3288,-0.08581577,0.08662537,1.02903
137.765,40.5576,-0.08710171,0.08678519,1.02881
138.465,40.78668,-0.08578,0.08658556,1.02859
139.165,41.01617,-0.08708296,0.08721861,1.02837
139.865,41.24558,-0.08676108,0.08573537,1.02815
140.565,41.47457,-0.08676017,0.08582601,1.02793
141.265,41.70275,-0.08775735,0.08634067,1.0277
141.965,41.93164,-0.08676,0.08524151,1.02748
142.665,42.16124,-0.08746655,0.08761748,1.02725
143.365,42.39123,-0.08709816,0.08630718,1.02703
144.065,42.62083,-0.08908158,0.08974412,1.0268
144.765,42.8502,-0.08741999,0.09105764,1.02657
145.465,43.0794,-0.0885699,0.09131141,1.02634
146.165,43.30842,-0.08742,0.09025029,1.02611
146.865,43.53676,-0.08742,0.0886524,1.02588
147.565,43.76607,-0.08643413,0.09240619,1.02565
148.265,43.99457,-0.08686345,0.09381464,1.02542
148.965,44.22401,-0.08833225,0.08968516,1.02519
149.665,44.4523,-0.0870102,0.09087393,1.02495
150.365,44.68187,-0.08786,0.09055151,1.02472
151.065,44.91114,-0.08906835,0.09253678,1.02449
151.765,45.1401,-0.0904877,0.0915,1.02425
152.465,45.36911,-0.09085496,0.09104559,1.02401
153.165,45.59852,-0.09081991,0.0922966,1.02378
153.865,45.8282,-0.09086139,0.09140394,1.02354
154.565,46.05784,-0.09083012,0.091154,1.0233
155.265,46.28723,-0.09214001,0.09541215,1.02306
155.965,46.51575,-0.09181795,0.09298474,1.02282
156.665,46.7447,-0.09181,0.09386441,1.02258
157.365,46.97313,-0.0911449,0.09334119,1.02234
158.065,47.20197,-0.09247566,0.09363341,1.0221
158.765,47.43098,-0.09246968,0.09470046,1.02185
159.465,47.66003,-0.09181,0.09499895,1.02161
160.165,47.88981,-0.0937573,0.09506598,1.02137
160.865,48.11772,-0.09114997,0.09479786,1.02112
161.565,48.34578,-0.09198477,0.09706304,1.02087
162.265,48.5728,-0.09280554,0.09564392,1.02063
162.965,48.80061,-0.09484441,0.09777745,1.02038
163.665,49.0284,-0.09334,0.09646922,1.02013
164.365,49.25623,-0.0932335,0.09576475,1.01988
165.065,49.48361,-0.09465503,0.09669674,1.01963
165.765,49.7103,-0.09478277,0.09989251,1.01938
166.465,49.93717,-0.09466001,0.0979946,1.01913
167.165,50.1642,-0.09333336,0.09844984,1.01888
167.865,50.39229,-0.09490426,0.09646752,1.01862
168.565,50.6195,-0.09476997,0.09447528,1.01837
169.265,50.84774,-0.09706537,0.09606801,1.01812
169.965,51.07498,-0.09673999,0.09546133,1.01786
170.665,51.30328,-0.0980604,0.09633968,1.0176
171.365,51.53163,-0.09806,0.09626865,1.01735
172.065,51.76092,-0.09806,0.09560573,1.01709
172.765,51.99098,-0.09838841,0.09219289,1.01683
173.465,52.22085,-0.10037,0.09243488,1.01657
174.165,52.4505,-0.10168,0.09441978,1.01631
174.865,52.67945,-0.09972793,0.09530753,1.01605
175.565,52.90664,-0.10102,0.09601678,1.01579
176.265,53.13318,-0.10168,0.09761674,1.01553
176.965,53.35977,-0.10314,0.09836058,1.01526
177.665,53.5878,-0.10379,0.09780949,1.015
178.365,53.81524,-0.10386,0.0994264,1.01474
179.065,54.04326,-0.10309,0.10037,1.01447
179.765,54.27117,-0.10387,0.0968894,1.0142
180.465,54.5006,-0.10355,0.09792383,1.01394
181.165,54.72926,-0.10552,0.09837599,1.01367
181.865,54.95759,-0.10552,0.09786015,1.0134
182.565,55.1859,-0.10818,0.09777473,1.01313
183.265,55.4142,-0.10716,0.09734025,1.01286
183.965,55.64278,-0.10716,0.09954004,1.01259
184.665,55.87085,-0.10808,0.10034,1.01232
185.365,56.09891,-0.11078,0.10105,1.01205
186.065,56.32676,-0.11163,0.09991773,1.01178
186.765,56.55457,-0.11067,0.10106,1.0115
187.465,56.782,-0.1133,0.1017,1.01123
188.165,57.00871,-0.11401,0.10405,1.01095
188.865,57.23576,-0.1138,0.103,1.01068
189.565,57.46294,-0.11626,0.10332,1.0104
190.265,57.6897,-0.11758,0.10342,1.01012
190.965,57.9158,-0.11989,0.1038,1.00984
191.665,58.14142,-0.11876,0.10354,1.00957
192.365,58.3682,-0.11988,0.10572,1.00929
193.065,58.595,-0.12393,0.1076,1.00901
193.765,58.8218,-0.1238,0.1033,1.00872
194.465,59.04909,-0.12774,0.10689,1.00844
195.165,59.2763,-0.12949,0.10753,1.00816
195.865,59.5038,-0.12923,0.10795,1.00788
196.565,59.73105,-0.13108,0.10685,1.00759
197.265,59.95821,-0.13385,0.10661,1.00731
197.965,60.18617,-0.13437,0.10857,1.00702
198.665,60.41451,-0.13677,0.10761,1.00673
199.365,60.64356,-0.13794,0.10724,1.00645
200.065,60.87206,-0.14061,0.10842,1.00616
200.765,61.0993,-0.14293,0.11232,1.00587
201.465,61.3256,-0.14456,0.11211,1.00558
202.165,61.5514,-0.14688,0.11267,1.00529
202.865,61.7776,-0.14805,0.11039,1.005
203.565,62.00382,-0.15101,0.112,1.00471
204.265,62.23056,-0.15367,0.11068,1.00442
204.965,62.458,-0.15672,0.11292,1.00412
205.665,62.6852,-0.1597,0.11355,1.00383
206.365,62.9125,-0.16109,0.10939,1.00353
207.065,63.1402,-0.16539,0.10915,1.00324
207.765,63.3687,-0.16767,0.1077,1.00294
208.465,63.59701,-0.17204,0.1079,1.00264
209.165,63.82445,-0.17419,0.1094,1.00235
209.865,64.05184,-0.17716,0.10834,1.00205
210.565,64.27971,-0.18118,0.10737,1.00175
211.265,64.50805,-0.185,0.10719,1.00145
211.965,64.7366,-0.18887,0.10483,1.00115
212.665,64.9654,-0.19265,0.10793,1.00085
213.365,65.19346,-0.19653,0.10864,1.00054
214.065,65.42105,-0.19807,0.10854,1.00024
214.765,65.64806,-0.20427,0.10878,0.99994
215.465,65.87532,-0.20758,0.10953,0.99963
216.165,66.10287,-0.21273,0.10974,0.99933
216.865,66.32996,-0.21616,0.11009,0.99902
217.565,66.5565,-0.22094,0.11157,0.99871
218.265,66.7824,-0.22365,0.11155,0.99841
218.965,67.0085,-0.22939,0.11185,0.9981
219.665,67.2346,-0.23377,0.1111,0.99779
220.365,67.4603,-0.23927,0.11157,0.99748
221.065,67.68589,-0.24318,0.11212,0.99717
221.765,67.9112,-0.24803,0.11328,0.99686
222.465,68.13694,-0.25048,0.11217,0.99655
223.165,68.36278,-0.25553,0.11175,0.99623
223.865,68.5892,-0.26034,0.11103,0.99592
224.565,68.81652,-0.26555,0.11211,0.99561
225.265,69.04428,-0.26987,0.11151,0.99529
225.965,69.27248,-0.27546,0.11026,0.99497
226.665,69.50018,-0.27938,0.10994,0.99466
227.365,69.72891,-0.28488,0.10862,0.99434
228.065,69.9578,-0.29062,0.10931,0.99402
228.765,70.1871,-0.29604,0.10807,0.9937
229.465,70.41575,-0.30053,0.1065,0.99338
230.165,70.6442,-0.30722,0.10567,0.99306
230.865,70.8719,-0.31095,0.10736,0.99274
231.565,71.09939,-0.31645,0.10519,0.99242
232.265,71.32636,-0.32186,0.10597,0.9921
232.965,71.55346,-0.32604,0.10541,0.99178
233.665,71.78044,-0.33218,0.10626,0.99145
234.365,72.00788,-0.33754,0.10636,0.99113
235.065,72.23552,-0.34285,0.10379,0.9908
235.765,72.46271,-0.35,0.10232,0.99048
236.465,72.6896,-0.35456,0.10412,0.99015
237.165,72.91646,-0.35944,0.10381,0.98982
237.865,73.14373,-0.36649,0.10312,0.98949
238.565,73.3722,-0.37193,0.10506,0.98916
239.265,73.60076,-0.3792,0.10428,0.98883
239.965,73.82983,-0.38576,0.10374,0.9885
240.665,74.0573,-0.39085,0.10339,0.98817
241.365,74.28434,-0.39777,0.10232,0.98784
242.065,74.50986,-0.40409,0.10152,0.98751
242.765,74.73465,-0.41073,0.10011,0.98717
243.465,74.9588,-0.417,0.10216,0.98684
244.165,75.1827,-0.42326,0.10051,0.98651
244.865,75.40868,-0.43096,0.09906064,0.98617
245.565,75.63517,-0.43837,0.10166,0.98583
246.265,75.86293,-0.44535,0.10182,0.9855
246.965,76.0907,-0.4519,0.10013,0.98516
247.665,76.31866,-0.46032,0.10014,0.98482
248.365,76.54706,-0.46736,0.0972465,0.98448
249.065,76.7752,-0.47724,0.09765474,0.98414
249.765,77.00406,-0.48583,0.09785959,0.9838
250.465,77.2317,-0.49255,0.09951584,0.98346
251.165,77.45812,-0.50291,0.0986771,0.98312
251.865,77.68387,-0.51169,0.10007,0.98277
252.565,77.9101,-0.52117,0.09808772,0.98243
253.265,78.1364,-0.53142,0.09957686,0.98208
253.965,78.36278,-0.53939,0.09870409,0.98174
254.665,78.58991,-0.54898,0.09642995,0.98139
255.365,78.81766,-0.56033,0.09691646,0.98105
256.065,79.04549,-0.56965,0.09480495,0.9807
256.765,79.27309,-0.58096,0.0932137,0.98035
257.465,79.50059,-0.59101,0.09477587,0.98
258.165,79.72761,-0.60489,0.0950596,0.97965
258.865,79.955,-0.61674,0.09295809,0.9793
259.565,80.18199,-0.62862,0.09470711,0.97895
260.265,80.40901,-0.64013,0.09261846,0.9786
260.965,80.63503,-0.65264,0.09505227,0.97825
261.665,80.86023,-0.66502,0.09376027,0.97789
262.365,81.08579,-0.67901,0.0926302,0.97754
263.065,81.31139,-0.69255,0.09198448,0.97719
263.765,81.5383,-0.70506,0.09192754,0.97683
264.465,81.7658,-0.72267,0.09105106,0.97647
265.165,81.99381,-0.73528,0.09150448,0.97612
265.865,82.22204,-0.7518,0.09239455,0.97576
266.565,82.44954,-0.76701,0.09138693,0.9754
267.265,82.67661,-0.78282,0.09164689,0.97504
267.965,82.90313,-0.79928,0.08934764,0.97468
268.665,83.13095,-0.81554,0.09268924,0.97432
269.365,83.3586,-0.83325,0.09184688,0.97396
270.065,83.58673,-0.84917,0.0907215,0.9736
270.765,83.81406,-0.86897,0.08716869,0.97324
271.465,84.04125,-0.88508,0.09159629,0.97287
272.165,84.2689,-0.90458,0.08767428,0.97251
272.865,84.49677,-0.9219,0.08934785,0.97214
273.565,84.72496,-0.94297,0.08889735,0.97178
274.265,84.95211,-0.96121,0.09100475,0.97141
274.965,85.17867,-0.9809,0.09124674,0.97105
275.665,85.4049,-1.00227,0.09249325,0.97068
276.365,85.6322,-1.02114,0.0900374,0.97031
277.065,85.85901,-1.04276,0.09019971,0.96994
277.765,86.08598,-1.06561,0.08909177,0.96957
278.465,86.31326,-1.08658,0.08649906,0.9692
279.165,86.5412,-1.10768,0.08586376,0.96883
279.865,86.77005,-1.13067,0.08443122,0.96846
280.565,86.99791,-1.15284,0.08445208,0.96809
281.265,87.226,-1.17607,0.08420589,0.96771
281.965,87.4523,-1.19996,0.08347843,0.96734
282.665,87.6793,-1.22313,0.08257112,0.96696
283.365,87.90625,-1.24686,0.08296263,0.96659
284.065,88.13455,-1.27044,0.08624654,0.96621
284.765,88.3619,-1.296,0.08434193,0.96583
285.465,88.58959,-1.31962,0.08539634,0.96546
286.165,88.81639,-1.3433,0.08745757,0.96508
286.865,89.0433,-1.37046,0.08536804,0.9647
287.565,89.26963,-1.39361,0.08399989,0.96432
288.265,89.49589,-1.41924,0.08429427,0.96394
288.965,89.72221,-1.44547,0.08199162,0.96356
289.665,89.94827,-1.47014,0.08218265,0.96318
290.365,90.17456,-1.49807,0.07925408,0.96279
291.065,90.40177,-1.52238,0.07676676,0.96241
291.765,90.62942,-1.55113,0.07625056,0.96203
292.465,90.85758,-1.57683,0.07301413,0.96164
293.165,91.08612,-1.60283,0.07219619,0.96126
293.865,91.31491,-1.63038,0.06938169,0.96087
294.565,91.54353,-1.65845,0.06778222,0.96048
295.265,91.7722,-1.68585,0.06601721,0.9601
295.965,92.00098,-1.71276,0.06428793,0.95971
296.665,92.23001,-1.74012,0.06424366,0.95932
297.365,92.4578,-1.7678,0.05899197,0.95893
298.065,92.68504,-1.7922,0.05721777,0.95854
298.765,92.91171,-1.8193,0.05425234,0.95815
299.465,93.13813,-1.84586,0.05294972,0.95776
300.165,93.36477,-1.87181,0.04897404,0.95737
300.865,93.59141,-1.89784,0.04580373,0.95697
301.565,93.81818,-1.92408,0.04244457,0.95658
302.265,94.04598,-1.94835,0.03874337,0.95618
302.965,94.27427,-1.97386,0.03537973,0.95579
303.665,94.5027,-1.99784,0.03359509,0.95539
304.365,94.72978,-2.02245,0.02784978,0.955
305.065,94.95674,-2.04491,0.02662992,0.9546
305.765,95.18378,-2.06454,0.02229955,0.9542
306.465,95.41122,-2.0865,0.02052538,0.9538
307.165,95.63807,-2.10668,0.01829334,0.9534
307.865,95.8656,-2.12513,0.01481884,0.953
308.565,96.09275,-2.14439,0.01356412,0.9526
309.265,96.3211,-2.16105,0.01064038,0.9522
309.965,96.54892,-2.17809,0.01068148,0.9518
310.665,96.77806,-2.19278,0.008465716,0.9514
311.365,97.00701,-2.20742,0.008422879,0.95099
312.065,97.236,-2.22105,0.01072145,0.95059
312.765,97.46376,-2.2344,0.008446086,0.95018
313.465,97.69185,-2.24518,0.009220942,0.94978
314.165,97.92024,-2.25671,0.009431554,0.94937
314.865,98.14832,-2.26555,0.01217005,0.94897
315.565,98.37607,-2.27242,0.0130992,0.94856
316.265,98.60405,-2.28257,0.01193115,0.94815
316.965,98.83234,-2.29244,0.01473235,0.94774
317.665,99.05981,-2.29869,0.01617779,0.94733
318.365,99.2865,-2.305,0.01604486,0.94692
319.065,99.51303,-2.31415,0.01694271,0.94651
319.765,99.7402,-2.31858,0.01659737,0.9461
320.465,99.96775,-2.32563,0.01651873,0.94569
321.165,100.196,-2.33139,0.01565033,0.94527
321.865,100.4243,-2.33758,0.01260184,0.94486
322.565,100.654,-2.34227,0.01683455,0.94444
323.265,100.883,-2.34664,0.01539834,0.94403
323.965,101.113,-2.35244,0.0186855,0.94361
324.665,101.343,-2.35981,0.01354073,0.9432
325.365,101.573,-2.36303,0.01272984,0.94278
326.065,101.803,-2.36819,0.01295303,0.94236
326.765,102.031,-2.37218,0.01312698,0.94194
327.465,102.26,-2.37605,0.0142785,0.94153
328.165,102.489,-2.3814,0.01396249,0.94111
328.865,102.7183,-2.38543,0.01419759,0.94068
329.565,102.946,-2.38967,0.01572987,0.94026
330.265,103.174,-2.39159,0.01281432,0.93984
330.965,103.402,-2.39664,0.01405922,0.93942
331.665,103.63,-2.40079,0.01235863,0.939
332.365,103.858,-2.40508,0.00920061,0.93857
333.065,104.087,-2.40848,0.009784875,0.93815
333.765,104.315,-2.41246,0.01099267,0.93772
334.465,104.545,-2.41648,0.009202117,0.9373
335.165,104.772,-2.41904,0.0114403,0.93687
335.865,105.001,-2.42268,0.01095118,0.93644
336.565,105.229,-2.42556,0.01211389,0.93601
337.265,105.457,-2.43226,0.01131294,0.93559
337.965,105.685,-2.43199,0.01236336,0.93516
338.665,105.9125,-2.43592,0.01196291,0.93473
339.365,106.141,-2.43855,0.01289593,0.9343
340.065,106.37,-2.4425,0.01195204,0.93387
340.765,106.598,-2.44469,0.01124837,0.93343
341.465,106.825,-2.44925,0.01199289,0.933
342.165,107.054,-2.44908,0.0109948,0.93257
342.865,107.283,-2.45202,0.01062875,0.93213
343.565,107.513,-2.45571,0.008538007,0.9317
344.265,107.743,-2.45868,0.01041384,0.93126
344.965,107.972,-2.46189,0.00862092,0.93083
345.665,108.201,-2.46493,0.01034488,0.93039
346.365,108.429,-2.46763,0.01174443,0.92995
347.065,108.658,-2.46979,0.01133643,0.92952
347.765,108.886,-2.4738,0.0120088,0.92908
348.465,109.1145,-2.47626,0.01252039,0.92864
349.165,109.342,-2.47907,0.007946087,0.9282
349.865,109.57,-2.48062,0.009540305,0.92776
350.565,109.798,-2.4834,0.01091969,0.92732
351.265,110.026,-2.4852,0.008980899,0.92688
351.965,110.255,-2.48824,0.0097893,0.92643
352.665,110.4838,-2.48956,0.00910185,0.92599
353.365,110.713,-2.49089,0.007096133,0.92555
354.065,110.943,-2.49424,0.006511844,0.9251
354.765,111.173,-2.4971,0.006345665,0.92466
355.465,111.404,-2.50006,0.008270671,0.92421
356.165,111.635,-2.50154,0.005619359,0.92377
356.865,111.866,-2.50404,0.005827098,0.92332
357.565,112.095,-2.50522,0.00340926,0.92287
358.265,112.325,-2.50798,0.00303336,0.92242
358.965,112.554,-2.50969,0.003856338,0.92197
359.665,112.783,-2.51388,0.00534049,0.92152
360.365,113.011,-2.51625,0.00562153,0.92107
361.065,113.239,-2.51683,0.005371428,0.92062
361.765,113.467,-2.5195,0.006355425,0.92017
362.465,113.696,-2.52209,0.004466726,0.91972
363.165,113.926,-2.52377,0.006356606,0.91927
363.865,114.157,-2.52616,0.004464442,0.91881
364.565,114.388,-2.52801,0.003081542,0.91836
365.265,114.619,-2.52892,0.003870399,0.9179
365.965,114.848,-2.53268,0.00426888,0.91745
366.665,115.077,-2.53251,0.004062435,0.91699
367.365,115.306,-2.53664,0.00386843,0.91654
368.065,115.5351,-2.53717,0.005674477,0.91608
368.765,115.764,-2.53923,0.002682944,0.91562
369.465,115.992,-2.54319,0.007611906,0.91516
370.165,116.221,-2.54352,0.005060215,0.9147
370.865,116.45,-2.54646,0.00619987,0.91424
371.565,116.679,-2.54646,0.00388252,0.91378
372.265,116.908,-2.54942,0.00770024,0.91332
372.965,117.138,-2.55086,0.00517705,0.91286
373.665,117.367,-2.55338,0.006420632,0.9124
374.365,117.595,-2.55579,0.006981028,0.91193
375.065,117.825,-2.55677,0.004747454,0.91147
375.765,118.055,-2.56005,0.005491763,0.91101
376.465,118.285,-2.56128,0.006187977,0.91054
377.165,118.516,-2.56326,0.002479397,0.91008
377.865,118.748,-2.56458,0.004713225,0.90961
378.565,118.98,-2.56726,0.007014824,0.90914
379.265,119.2114,-2.56983,0.005897212,0.90868
379.965,119.442,-2.5699,0.007215976,0.90821
380.665,119.672,-2.57273,0.004517839,0.90774
381.365,119.902,-2.57379,0.005700065,0.90727
382.065,120.132,-2.57642,0.00626005,0.9068
382.765,120.361,-2.57867,0.0062028,0.90633
383.465,120.592,-2.58037,0.00784575,0.90586
384.165,120.822,-2.58277,0.008165008,0.90539
384.865,121.051,-2.58401,0.01032255,0.90491
385.565,121.28,-2.5853,0.01124095,0.90444
386.265,121.509,-2.58806,0.01032487,0.90397
386.965,121.738,-2.58791,0.01188335,0.90349
387.665,121.966,-2.59058,0.0133901,0.90302
388.365,122.195,-2.59188,0.01287251,0.90254
389.065,122.424,-2.59385,0.01341807,0.90207
389.765,122.654,-2.59517,0.01032676,0.90159
390.465,122.885,-2.59748,0.01140633,0.90111
391.165,123.116,-2.59879,0.01202678,0.90064
391.865,123.347,-2.60143,0.0110365,0.90016
392.565,123.578,-2.60283,0.01065446,0.89968
393.265,123.809,-2.6034,0.01384949,0.8992
393.965,124.039,-2.60597,0.01393827,0.89872
394.665,124.27,-2.60867,0.01314402,0.89824
395.365,124.5,-2.60998,0.01113807,0.89775
396.065,124.73,-2.61043,0.0132737,0.89727
396.765,124.9605,-2.61262,0.01186977,0.89679
397.465,125.192,-2.6127,0.01369294,0.89631
398.165,125.423,-2.61686,0.01399886,0.89582
398.865,125.653,-2.61854,0.01240242,0.89534
399.565,125.884,-2.61987,0.01351099,0.89485
400.265,126.113,-2.61888,0.01298225,0.89437
400.965,126.343,-2.6225,0.01784453,0.89388
401.665,126.573,-2.6241,0.01333923,0.89339
402.365,126.8031,-2.62545,0.01516202,0.89291
403.065,127.033,-2.62665,0.01645953,0.89242
403.765,127.2626,-2.628,0.0143174,0.89193
404.465,127.493,-2.63056,0.01555087,0.89144
405.165,127.724,-2.63258,0.0127898,0.89095
405.865,127.955,-2.6339,0.0125128,0.89046
406.565,128.1861,-2.63522,0.01685622,0.88997
407.265,128.4173,-2.63685,0.01567763,0.88948
407.965,128.649,-2.6395,0.01376077,0.88898
408.665,128.88,-2.64081,0.01596564,0.88849
409.365,129.11,-2.64487,0.013863,0.888
410.065,129.339,-2.64377,0.01582282,0.8875
410.765,129.569,-2.64638,0.0190692,0.88701
411.465,129.798,-2.64541,0.01737055,0.88651
412.165,130.028,-2.6491,0.01499716,0.88602
412.865,130.258,-2.6487,0.0198196,0.88552
413.565,130.488,-2.652,0.01638613,0.88502
414.265,130.719,-2.65331,0.0160516,0.88452
414.965,130.95,-2.65463,0.01794664,0.88403
415.665,131.18,-2.65563,0.01633056,0.88353
416.365,131.411,-2.65725,0.01453548,0.88303
417.065,131.642,-2.65845,0.01858439,0.88253
417.765,131.873,-2.65981,0.0168376,0.88203
418.465,132.104,-2.66192,0.01708437,0.88153
419.165,132.335,-2.66351,0.01501858,0.88102
419.865,132.567,-2.66414,0.0163217,0.88052
420.565,132.798,-2.66549,0.01637725,0.88002
421.265,133.03,-2.66779,0.01686875,0.87952
421.965,133.261,-2.66877,0.01709506,0.87901
422.665,133.492,-2.66997,0.01752971,0.87851
423.365,133.721,-2.67072,0.01817948,0.878
424.065,133.952,-2.67207,0.01991417,0.8775
424.765,134.182,-2.67339,0.01846785,0.87699
425.465,134.413,-2.67469,0.02076411,0.87648
426.165,134.643,-2.67744,0.02117055,0.87597
426.865,134.873,-2.67897,0.02070366,0.87547
427.565,135.105,-2.6806,0.01873135,0.87496
428.265,135.336,-2.68225,0.01798135,0.87445
428.965,135.569,-2.68229,0.01899522,0.87394
429.665,135.8007,-2.68281,0.01488814,0.87343
430.365,136.032,-2.68545,0.01656021,0.87292
431.065,136.263,-2.68595,0.01940751,0.87241
431.765,136.493,-2.68909,0.02098117,0.87189
432.465,136.723,-2.68904,0.02097086,0.87138
433.165,136.953,-2.68907,0.02511543,0.87087
433.865,137.183,-2.69268,0.02689292,0.87035
434.565,137.414,-2.69415,0.02994575,0.86984
435.265,137.645,-2.69428,0.03102485,0.86932
435.965,137.876,-2.69695,0.03145802,0.86881
436.665,138.107,-2.69763,0.02942776,0.86829
437.365,138.339,-2.69828,0.03140058,0.86778
438.065,138.571,-2.70088,0.02960063,0.86726
438.765,138.804,-2.70091,0.03283511,0.86674
439.465,139.037,-2.70223,0.03133749,0.86622
440.165,139.27,-2.70321,0.03324573,0.86571
440.865,139.502,-2.70625,0.03079816,0.86519
441.565,139.734,-2.70585,0.033407,0.86467
442.265,139.966,-2.70754,0.03096164,0.86415
442.965,140.197,-2.70749,0.0290712,0.86362
443.665,140.427,-2.70813,0.031314,0.8631
444.365,140.658,-2.70946,0.03004284,0.86258
445.065,140.89,-2.71079,0.03053908,0.86206
445.765,141.122,-2.71268,0.0297459,0.86153
446.465,141.3525,-2.71317,0.0305922,0.86101
447.165,141.5841,-2.71379,0.02823746,0.86049
447.865,141.815,-2.71473,0.02984169,0.85996
448.565,142.046,-2.71507,0.03063718,0.85944
449.265,142.276,-2.71628,0.03260075,0.85891
449.965,142.507,-2.71901,0.02905785,0.85838
450.665,142.738,-2.72033,0.02882958,0.85786
451.365,142.968,-2.72098,0.0289445,0.85733
452.065,143.199,-2.72231,0.02846694,0.8568
452.765,143.429,-2.72263,0.02464148,0.85627
453.465,143.66,-2.72395,0.02481709,0.85574
454.165,143.891,-2.72526,0.02374977,0.85521
454.865,144.123,-2.72672,0.02378869,0.85468
455.565,144.355,-2.72691,0.02056568,0.85415
456.265,144.5888,-2.72689,0.01388015,0.85362
456.965,144.821,-2.72828,0.01337298,0.85309
457.665,145.055,-2.7302,0.01116342,0.85256
458.365,145.288,-2.73086,0.0105449,0.85203
459.065,145.522,-2.73217,0.00640216,0.85149
459.765,145.756,-2.73449,0.00385219,0.85096
460.465,145.989,-2.7358,0.003577983,0.85042
461.165,146.221,-2.73711,0.001005277,0.84989
461.865,146.4541,-2.73797,-1.71463e-05,0.84935
462.565,146.687,-2.73711,-0.0002833518,0.84882
463.265,146.918,-2.73676,0.001364937,0.84828
463.965,147.15,-2.73907,-0.000876158,0.84774
464.665,147.381,-2.74062,-0.00264258,0.84721
465.365,147.613,-2.74073,-0.007974986,0.84667
466.065,147.845,-2.74237,-0.004546667,0.84613
466.765,148.078,-2.7427,-0.004214376,0.84559
467.465,148.312,-2.74535,-0.00432191,0.84505
468.165,148.546,-2.74501,-0.00685807,0.84451
468.865,148.779,-2.74705,-0.0109255,0.84397
469.565,149.012,-2.74698,-0.01102274,0.84343
470.265,149.244,-2.74797,-0.01277014,0.84289
470.965,149.478,-2.75054,-0.01563626,0.84234
471.665,149.7117,-2.74932,-0.02191467,0.8418
472.365,149.944,-2.75191,-0.02110755,0.84126
473.065,150.176,-2.75291,-0.02422488,0.84071
473.765,150.407,-2.75151,-0.02426593,0.84017
474.465,150.638,-2.7529,-0.02359072,0.83963
475.165,150.869,-2.75388,-0.02342758,0.83908
475.865,151.1,-2.75554,-0.02544216,0.83853
476.565,151.3307,-2.75621,-0.02847981,0.83799
477.265,151.562,-2.75751,-0.02498497,0.83744
477.965,151.794,-2.75751,-0.02781751,0.83689
478.665,152.026,-2.75883,-0.02919346,0.83635
479.365,152.259,-2.75905,-0.03234222,0.8358
480.065,152.493,-2.75981,-0.03408463,0.83525
480.765,152.727,-2.76017,-0.03518333,0.8347
481.465,152.9609,-2.76193,-0.03714031,0.83415
482.165,153.194,-2.76198,-0.0386056,0.8336
482.865,153.427,-2.7642,-0.036582,0.83305
483.565,153.659,-2.76489,-0.03897701,0.8325
484.265,153.892,-2.76475,-0.03752631,0.83195
484.965,154.124,-2.76475,-0.03807497,0.83139
485.665,154.355,-2.76574,-0.04220478,0.83084
486.365,154.587,-2.76634,-0.039445,0.83029
487.065,154.819,-2.76738,-0.04147364,0.82973
487.765,155.0513,-2.7687,-0.04048793,0.82918
488.465,155.283,-2.7687,-0.04221307,0.82863
489.165,155.515,-2.77068,-0.04139308,0.82807
489.865,155.748,-2.76936,-0.04081378,0.82751
490.565,155.982,-2.77067,-0.04347079,0.82696
491.265,156.215,-2.77166,-0.04276707,0.8264
491.965,156.449,-2.77194,-0.04520777,0.82584
492.665,156.682,-2.77399,-0.04221674,0.82529
493.365,156.916,-2.77396,-0.04605138,0.82473
494.065,157.15,-2.77462,-0.04608478,0.82417
494.765,157.384,-2.77528,-0.04535986,0.82361
495.465,157.617,-2.7766,-0.04431377,0.82305
496.165,157.85,-2.77791,-0.04637951,0.82249
496.865,158.082,-2.77791,-0.0439426,0.82193
497.565,158.313,-2.77725,-0.04531237,0.82137
498.265,158.543,-2.77956,-0.0429191,0.82081
498.965,158.775,-2.78085,-0.04233419,0.82025
499.665,159.006,-2.78005,-0.04470674,0.81969
500.365,159.239,-2.78101,-0.04390142,0.81912
501.065,159.472,-2.78054,-0.04578995,0.81856
501.765,159.705,-2.78318,-0.04358677,0.818
502.465,159.938,-2.78318,-0.04653647,0.81743
503.165,160.171,-2.78417,-0.04338057,0.81687
503.865,160.4064,-2.78413,-0.04487112,0.8163
504.565,160.6417,-2.78453,-0.04310079,0.81574
505.265,160.8759,-2.78581,-0.04477068,0.81517
505.965,161.11,-2.78617,-0.04166726,0.8146
506.665,161.342,-2.78746,-0.03997437,0.81404
507.365,161.574,-2.78746,-0.0382422,0.81347
508.065,161.805,-2.78664,-0.03954689,0.8129
508.765,162.0368,-2.78913,-0.03499962,0.81233
509.465,162.2692,-2.79042,-0.03622936,0.81176
510.165,162.502,-2.78943,-0.03080325,0.8112
510.865,162.7347,-2.79075,-0.03434366,0.81063
511.565,162.969,-2.79315,-0.03568447,0.81006
512.265,163.203,-2.7913,-0.03713085,0.80948
512.965,163.437,-2.79239,-0.03390379,0.80891
513.665,163.669,-2.79492,-0.03618354,0.80834
514.365,163.9014,-2.79469,-0.03609122,0.80777
515.065,164.134,-2.79437,-0.03344801,0.8072
515.765,164.367,-2.79569,-0.03000293,0.80663
516.465,164.601,-2.79667,-0.03390881,0.80605
517.165,164.836,-2.79667,-0.03282375,0.80548
517.865,165.069,-2.79733,-0.03233264,0.8049
518.565,165.303,-2.79733,-0.02999368,0.80433
519.265,165.537,-2.79865,-0.03037501,0.80375
519.965,165.771,-2.79934,-0.02968751,0.80318
520.665,166.005,-2.79925,-0.02958995,0.8026
521.365,166.238,-2.79932,-0.02913414,0.80203
522.065,166.47,-2.80062,-0.02897875,0.80145
522.765,166.701,-2.8016,-0.0297576,0.80087
523.465,166.933,-2.80161,-0.02782794,0.8003
524.165,167.165,-2.80161,-0.02713085,0.79972
524.865,167.398,-2.80358,-0.03132349,0.79914
525.565,167.631,-2.80259,-0.03182189,0.79856
526.265,167.865,-2.80391,-0.02863105,0.79798
526.965,168.099,-2.80426,-0.02697776,0.7974
527.665,168.3321,-2.80549,-0.02888653,0.79682
528.365,168.565,-2.80629,-0.02939218,0.79624
529.065,168.797,-2.80524,-0.03052475,0.79566
529.765,169.029,-2.80523,-0.02996122,0.79508
530.465,169.263,-2.80654,-0.03197946,0.7945
531.165,169.4974,-2.80736,-0.03104655,0.79391
531.865,169.7321,-2.80819,-0.0288002,0.79333
532.565,169.966,-2.80819,-0.02934128,0.79275
533.265,170.201,-2.80918,-0.0267665,0.79216
533.965,170.4359,-2.80852,-0.03112611,0.79158
534.665,170.67,-2.80885,-0.02869673,0.791
535.365,170.905,-2.80983,-0.02601395,0.79041
536.065,171.138,-2.80983,-0.02935852,0.78983
536.765,171.371,-2.80983,-0.02824189,0.78924
537.465,171.604,-2.80983,-0.02849869,0.78865
538.165,171.838,-2.81201,-0.02720985,0.78807
538.865,172.072,-2.81181,-0.02731958,0.78748
539.565,172.307,-2.8117,-0.02761312,0.78689
540.265,172.542,-2.81168,-0.03208521,0.78631
540.965,172.775,-2.81239,-0.02866396,0.78572
541.665,173.009,-2.8127,-0.02590297,0.78513
542.365,173.242,-2.8141,-0.02809965,0.78454
543.065,173.475,-2.81543,-0.029853,0.78395
543.765,173.7087,-2.81399,-0.02900704,0.78336
544.465,173.943,-2.8154,-0.02753529,0.78277
545.165,174.177,-2.81641,-0.02929153,0.78218
545.865,174.412,-2.81542,-0.02804665,0.78159
546.565,174.646,-2.81674,-0.03274502,0.781
547.265,174.88,-2.81607,-0.03011957,0.78041
547.965,175.114,-2.81641,-0.02864884,0.77982
548.665,175.347,-2.81861,-0.02824115,0.77922
549.365,175.581,-2.81872,-0.03151064,0.77863
550.065,175.815,-2.81872,-0.03027657,0.77804
550.765,176.048,-2.81805,-0.02727268,0.77744
551.465,176.281,-2.81935,-0.03075292,0.77685
552.165,176.514,-2.82036,-0.0316046,0.77626
552.865,176.747,-2.82036,-0.02987231,0.77566
553.565,176.982,-2.82036,-0.03414434,0.77507
554.265,177.216,-2.82036,-0.03110105,0.77447
554.965,177.449,-2.82036,-0.02840547,0.77387
555.665,177.684,-2.82102,-0.02717886,0.77328
556.365,177.918,-2.82171,-0.03404514,0.77268
557.065,178.152,-2.82233,-0.03011741,0.77208
557.765,178.386,-2.82135,-0.0283303,0.77149
558.465,178.621,-2.82266,-0.03023199,0.77089
559.165,178.855,-2.82304,-0.02969053,0.77029
559.865,179.09,-2.82263,-0.02793414,0.76969
560.565,179.3248,-2.82391,-0.0344702,0.76909
561.265,179.559,-2.82365,-0.03539065,0.7685
561.965,179.793,-2.82497,-0.03541164,0.7679
562.665,180.026,-2.82431,-0.03360111,0.7673
563.365,180.259,-2.82562,-0.03189771,0.7667
564.065,180.492,-2.82497,-0.03456615,0.76609
564.765,180.725,-2.82625,-0.03775039,0.76549
565.465,180.96,-2.82628,-0.03670097,0.76489
566.165,181.194,-2.82628,-0.03353912,0.76429
566.865,181.43,-2.82727,-0.03478916,0.76369
567.565,181.666,-2.82727,-0.0374857,0.76309
568.265,181.901,-2.82828,-0.04347514,0.76248
568.965,182.136,-2.82826,-0.04285534,0.76188
569.665,182.371,-2.82753,-0.0439544,0.76128
570.365,182.604,-2.83142,-0.04354207,0.76067
571.065,182.837,-2.82924,-0.04561439,0.76007
571.765,183.071,-2.82977,-0.04444032,0.75946
572.465,183.304,-2.82937,-0.04291013,0.75886
573.165,183.537,-2.82977,-0.04328306,0.75825
573.865,183.771,-2.831,-0.04078295,0.75765
574.565,184.0059,-2.83147,-0.04471545,0.75704
575.265,184.24,-2.83067,-0.04669767,0.75644
575.965,184.474,-2.83331,-0.04433884,0.75583
576.665,184.708,-2.83333,-0.04829456,0.75522
577.365,184.942,-2.83297,-0.04608041,0.75461
578.065,185.175,-2.83297,-0.04512562,0.75401
578.765,185.409,-2.83438,-0.04513662,0.7534
579.465,185.642,-2.83429,-0.04586215,0.75279
580.165,185.876,-2.83523,-0.04832985,0.75218
580.865,186.1112,-2.83495,-0.04798504,0.75157
581.565,186.347,-2.83429,-0.04857447,0.75096
582.265,186.584,-2.83524,-0.04734323,0.75035
582.965,186.821,-2.83561,-0.04723046,0.74974
583.665,187.058,-2.83495,-0.04872392,0.74913
584.365,187.294,-2.83495,-0.0523588,0.74852
585.065,187.5291,-2.83626,-0.05204632,0.74791
585.765,187.764,-2.83692,-0.05077363,0.7473
586.465,187.998,-2.83793,-0.04987488,0.74669
587.165,188.233,-2.83755,-0.05212237,0.74608
587.865,188.466,-2.83725,-0.05572162,0.74546
588.565,188.7,-2.83756,-0.05087934,0.74485
589.265,188.934,-2.83923,-0.05022756,0.74424
589.965,189.169,-2.83857,-0.0511491,0.74362
590.665,189.404,-2.83857,-0.05099253,0.74301
591.365,189.64,-2.83855,-0.05184358,0.7424
592.065,189.874,-2.8389,-0.04909046,0.74178
592.765,190.108,-2.8389,-0.049099,0.74117
593.465,190.341,-2.8412,-0.05011986,0.74055
594.165,190.576,-2.83991,-0.04624671,0.73994
594.865,190.81,-2.84087,-0.0498122,0.73932
595.565,191.045,-2.84087,-0.05037776,0.73871
596.265,191.281,-2.8412,-0.05114092,0.73809
596.965,191.518,-2.84153,-0.05293645,0.73747
597.665,191.756,-2.84252,-0.05139927,0.73686
598.365,191.9924,-2.84219,-0.05076449,0.73624
599.065,192.228,-2.84125,-0.05437847,0.73562
599.765,192.462,-2.84318,-0.05634217,0.735
600.465,192.695,-2.84219,-0.05410152,0.73439
601.165,192.928,-2.84284,-0.0550359,0.73377
601.865,193.162,-2.84139,-0.05476992,0.73315
602.565,193.396,-2.84284,-0.05156321,0.73253
603.265,193.631,-2.8435,-0.0551797,0.73191
603.965,193.866,-2.84476,-0.05173331,0.73129
604.665,194.101,-2.84317,-0.05173974,0.73067
605.365,194.336,-2.84318,-0.0540267,0.73005
606.065,194.571,-2.84482,-0.05215882,0.72943
606.765,194.806,-2.84547,-0.05181279,0.72881
607.465,195.041,-2.84548,-0.05156407,0.72819
608.165,195.275,-2.84548,-0.05114696,0.72757
608.865,195.5102,-2.84643,-0.05420922,0.72695
609.565,195.746,-2.84571,-0.05072015,0.72633
610.265,195.982,-2.84646,-0.05086749,0.7257
610.965,196.219,-2.84646,-0.05214219,0.72508
611.665,196.456,-2.84679,-0.05066217,0.72446
612.365,196.692,-2.84712,-0.05333332,0.72384
613.065,196.928,-2.84712,-0.05387797,0.72321
613.765,197.163,-2.84774,-0.05390294,0.72259
614.465,197.398,-2.84877,-0.05084137,0.72197
615.165,197.633,-2.84877,-0.05341696,0.72134
615.865,197.868,-2.85008,-0.0521401,0.72072
616.565,198.104,-2.84877,-0.05398794,0.72009
617.265,198.339,-2.84845,-0.05317392,0.71947
617.965,198.574,-2.84943,-0.05249453,0.71884
618.665,198.809,-2.85074,-0.05179953,0.71822
619.365,199.043,-2.84944,-0.04988119,0.71759
620.065,199.277,-2.85074,-0.05520655,0.71697
620.765,199.512,-2.85074,-0.05062124,0.71634
621.465,199.747,-2.85077,-0.05091606,0.71572
622.165,199.983,-2.85108,-0.05137718,0.71509
622.865,200.218,-2.85239,-0.05056354,0.71446
623.565,200.454,-2.85109,-0.05101653,0.71383
624.265,200.69,-2.85107,-0.0480387,0.71321
624.965,200.925,-2.85177,-0.05293626,0.71258
625.665,201.159,-2.85347,-0.04955215,0.71195
626.365,201.394,-2.85369,-0.05234153,0.71132
627.065,201.63,-2.85468,-0.05518517,0.71069
627.765,201.866,-2.85469,-0.05694535,0.71007
628.465,202.102,-2.85469,-0.05626326,0.70944
629.165,202.338,-2.85502,-0.05968024,0.70881
629.865,202.575,-2.85502,-0.05753041,0.70818
630.565,202.811,-2.85617,-0.05701423,0.70755
631.265,203.045,-2.85634,-0.05512675,0.70692
631.965,203.28,-2.85634,-0.05461445,0.70629
632.665,203.514,-2.85683,-0.05667725,0.70566
633.365,203.749,-2.85639,-0.05723418,0.70503
634.065,203.984,-2.85765,-0.05015607,0.7044
634.765,204.221,-2.85765,-0.05734905,0.70377
635.465,204.458,-2.85699,-0.05789569,0.70313
636.165,204.695,-2.85831,-0.05621218,0.7025
636.865,204.9304,-2.8582,-0.05486461,0.70187
637.565,205.166,-2.85867,-0.05545965,0.70124
638.265,205.402,-2.8606,-0.05410245,0.70061
638.965,205.638,-2.85897,-0.05523729,0.69997
639.665,205.874,-2.86029,-0.05766719,0.69934
640.365,206.1096,-2.85963,-0.05729326,0.69871
641.065,206.345,-2.85963,-0.05445967,0.69808
641.765,206.578,-2.85963,-0.05344513,0.69744
642.465,206.811,-2.86031,-0.05348158,0.69681
643.165,207.045,-2.86174,-0.05241515,0.69617
643.865,207.279,-2.86127,-0.04857329,0.69554
644.565,207.514,-2.86127,-0.05255759,0.69491
645.265,207.749,-2.86157,-0.05340098,0.69427
645.965,207.985,-2.86172,-0.0494582,0.69364
646.665,208.221,-2.86137,-0.0531975,0.693
647.365,208.456,-2.86281,-0.0511249,0.69237
648.065,208.69,-2.86215,-0.0496592,0.69173
648.765,208.925,-2.86347,-0.04868787,0.6911
649.465,209.16,-2.86347,-0.05433835,0.69046
650.165,209.394,-2.86347,-0.05041132,0.68982
650.865,209.629,-2.86332,-0.04951421,0.68919
651.565,209.8641,-2.86325,-0.04865732,0.68855
652.265,210.101,-2.86392,-0.04996389,0.68791
652.965,210.338,-2.86416,-0.04540112,0.68728
653.665,210.576,-2.86423,-0.0485237,0.68664
654.365,210.813,-2.86693,-0.04653227,0.686
655.065,211.05,-2.86555,-0.05096047,0.68537
655.765,211.286,-2.86555,-0.04955184,0.68473
656.465,211.5232,-2.86588,-0.04860198,0.68409
657.165,211.759,-2.86663,-0.04904031,0.68345
657.865,211.996,-2.86525,-0.04624144,0.68281
658.565,212.233,-2.86522,-0.04418897,0.68218
659.265,212.469,-2.86687,-0.04572526,0.68154
659.965,212.704,-2.86556,-0.04560275,0.6809
660.665,212.939,-2.86687,-0.04383914,0.68026
661.365,213.174,-2.86666,-0.04463768,0.67962
662.065,213.4083,-2.86719,-0.04397349,0.67898
662.765,213.642,-2.86721,-0.04592816,0.67834
663.465,213.876,-2.86621,-0.04786664,0.6777
664.165,214.109,-2.86517,-0.04217268,0.67706
664.865,214.344,-2.86784,-0.04371221,0.67642
665.565,214.5793,-2.86786,-0.04429924,0.67578
666.265,214.816,-2.86786,-0.04397415,0.67514
666.965,215.052,-2.86688,-0.04405687,0.6745
667.665,215.289,-2.86653,-0.04206832,0.67386
668.365,215.5257,-2.86786,-0.04263141,0.67322
669.065,215.762,-2.86918,-0.04654662,0.67258
669.765,215.998,-2.86809,-0.04804826,0.67194
670.465,216.233,-2.86885,-0.04446125,0.67129
671.165,216.467,-2.86819,-0.04389961,0.67065
671.865,216.702,-2.86992,-0.04525744,0.67001
672.565,216.939,-2.86884,-0.04032873,0.66937
673.265,217.174,-2.86917,-0.04206964,0.66873
673.965,217.411,-2.86983,-0.04160717,0.66808
674.665,217.647,-2.86983,-0.04142252,0.66744
675.365,217.883,-2.8695,-0.03779665,0.6668
676.065,218.118,-2.86948,-0.03784734,0.66616
676.765,218.354,-2.87177,-0.03617698,0.66551
677.465,218.589,-2.87181,-0.04173342,0.66487
678.165,218.826,-2.87049,-0.03726745,0.66423
678.865,219.063,-2.87147,-0.04078817,0.66358
679.565,219.301,-2.87049,-0.03667103,0.66294
680.265,219.537,-2.8718,-0.03815073,0.6623
680.965,219.772,-2.8716,-0.03466128,0.66165
681.665,220.007,-2.87291,-0.0360632,0.66101
682.365,220.243,-2.87147,-0.0327838,0.66036
683.065,220.4786,-2.87201,-0.03406882,0.65972
683.765,220.714,-2.87213,-0.0342271,0.65908
684.465,220.95,-2.87345,-0.03353929,0.65843
685.165,221.184,-2.86458,-0.03651099,0.65779
685.865,221.42,-2.87149,-0.03165131,0.65714
686.565,221.656,-2.87847,-0.02677323,0.6565
687.265,221.894,-2.8771,-0.02856818,0.65585
687.965,222.132,-2.87195,-0.03328308,0.65521
688.665,222.37,-2.87093,-0.03240998,0.65456
689.365,222.607,-2.87651,-0.02834841,0.65391
690.065,222.843,-2.88173,-0.02558542,0.65327
690.765,223.079,-2.88432,-0.0288672,0.65262
691.465,223.314,-2.87714,-0.02689262,0.65198
692.165,223.549,-2.87597,-0.02845955,0.65133
692.865,223.785,-2.87634,-0.02745411,0.65068
693.565,224.021,-2.87594,-0.02847084,0.65004
694.265,224.257,-2.87664,-0.02803509,0.64939
694.965,224.493,-2.87529,-0.02932176,0.64874
695.665,224.728,-2.87598,-0.02974741,0.6481
696.365,224.965,-2.87686,-0.02715009,0.64745
697.065,225.201,-2.87627,-0.02680591,0.6468
697.765,225.438,-2.87718,-0.02465152,0.64616
698.465,225.675,-2.87762,-0.02322526,0.64551
699.165,225.911,-2.87629,-0.02849533,0.64486
699.865,226.148,-2.8763,-0.02397451,0.64422
700.565,226.384,-2.87729,-0.02284534,0.64357
701.265,226.619,-2.87729,-0.02600258,0.64292
701.965,226.855,-2.87729,-0.0224965,0.64227
702.665,227.09,-2.87726,-0.0243421,0.64162
703.365,227.326,-2.87837,-0.01913501,0.64098
704.065,227.5623,-2.87827,-0.02021113,0.64033
704.765,227.798,-2.87893,-0.02229767,0.63968
705.465,228.034,-2.87893,-0.02449218,0.63903
706.165,228.269,-2.87959,-0.02605768,0.63838
706.865,228.506,-2.87901,-0.02578644,0.63773
707.565,228.742,-2.87926,-0.02447381,0.63709
708.265,228.978,-2.88059,-0.02749708,0.63644
708.965,229.214,-2.87925,-0.02736787,0.63579
709.665,229.45,-2.87959,-0.02261877,0.63514
710.365,229.687,-2.88192,-0.01958433,0.63449
711.065,229.925,-2.88058,-0.01837965,0.63384
711.765,230.164,-2.88158,-0.02203308,0.63319
712.465,230.401,-2.88056,-0.02459071,0.63254
713.165,230.639,-2.88222,-0.02582935,0.63189
713.865,230.877,-2.8809,-0.0273948,0.63124
714.565,231.1135,-2.88222,-0.02585403,0.63059
715.265,231.35,-2.88221,-0.02726539,0.62994
715.965,231.586,-2.88151,-0.02570359,0.62929
716.665,231.8218,-2.88288,-0.02863993,0.62865
717.365,232.058,-2.88288,-0.02405104,0.628
718.065,232.293,-2.88288,-0.03170344,0.62735
718.765,232.53,-2.88289,-0.03003453,0.6267
719.465,232.767,-2.88387,-0.03137246,0.62605
720.165,233.0042,-2.88274,-0.02970158,0.62539
720.865,233.242,-2.88275,-0.02769149,0.62474
721.565,233.48,-2.88483,-0.03154698,0.62409
722.265,233.716,-2.88387,-0.03483625,0.62344
722.965,233.954,-2.88457,-0.03713616,0.62279
723.665,234.191,-2.88518,-0.03468246,0.62214
724.365,234.428,-2.88617,-0.03410241,0.62149
725.065,234.665,-2.88617,-0.03363448,0.62084
725.765,234.902,-2.88652,-0.03750458,0.62019
726.465,235.138,-2.88387,-0.03597003,0.61954
727.165,235.373,-2.88653,-0.03153467,0.61889
727.865,235.609,-2.88488,-0.02825213,0.61824
728.565,235.845,-2.88554,-0.0280888,0.61759
729.265,236.08,-2.8852,-0.03007822,0.61694
729.965,236.315,-2.88617,-0.02954315,0.61628
730.665,236.55,-2.88748,-0.03128823,0.61563
731.365,236.785,-2.8865,-0.03379129,0.61498
732.065,237.022,-2.88642,-0.03330305,0.61433
732.765,237.259,-2.88751,-0.03795656,0.61368
733.465,237.497,-2.88815,-0.0379414,0.61303
734.165,237.736,-2.88958,-0.03735612,0.61238
734.865,237.974,-2.88844,-0.03306876,0.61173
735.565,238.211,-2.88749,-0.03787898,0.61107
736.265,238.448,-2.89014,-0.03614768,0.61042
736.965,238.685,-2.88882,-0.03889716,0.60977
737.665,238.922,-2.88879,-0.03399725,0.60912
738.365,239.159,-2.8898,-0.03665857,0.60847
739.065,239.396,-2.88979,-0.03466582,0.60782
739.765,239.6336,-2.89045,-0.03449553,0.60716
740.465,239.8697,-2.89111,-0.03514523,0.60651
741.165,240.106,-2.89111,-0.03368518,0.60586
741.865,240.341,-2.89257,-0.03494313,0.60521
742.565,240.577,-2.89011,-0.03149023,0.60456
743.265,240.814,-2.89144,-0.03676975,0.6039
743.965,241.051,-2.89143,-0.03211873,0.60325
744.665,241.288,-2.89276,-0.02987038,0.6026
745.365,241.525,-2.89379,-0.03226943,0.60195
746.065,241.76,-2.89275,-0.03057336,0.6013
746.765,241.997,-2.89374,-0.02992776,0.60064
747.465,242.234,-2.89473,-0.02901449,0.59999
748.165,242.471,-2.89506,-0.02642762,0.59934
748.865,242.709,-2.89286,-0.02731446,0.59869
749.565,242.946,-2.89482,-0.02455029,0.59803
750.265,243.183,-2.89506,-0.02464976,0.59738
750.665,243.318,-2.89635,-0.02403568,0.59701