File: 01_Data/Overstuffed_Chair_Polyester_Batting/FTIR/ATR/Overstuffed_Chair_Polyester_Batting_ATR_210608_R1.tst
4497.79,-0.00622
4493.93,-0.00647
4490.07,-0.00640
4486.22,-0.00607
4482.36,-0.00635
4478.5,-0.00594
4474.64,-0.00601
4470.79,-0.00607
4466.93,-0.00595
4463.07,-0.00576
4459.21,-0.00591
4455.36,-0.00592
4451.5,-0.00576
4447.64,-0.00590
4443.79,-0.00577
4439.93,-0.00556
4436.07,-0.00563
4432.21,-0.00565
4428.36,-0.00541
4424.5,-0.00559
4420.64,-0.00579
4416.78,-0.00574
4412.93,-0.00578
4409.07,-0.00571
4405.21,-0.00573
4401.35,-0.00566
4397.5,-0.00560
4393.64,-0.00543
4389.78,-0.00537
4385.92,-0.00547
4382.07,-0.00529
4378.21,-0.00516
4374.35,-0.00547
4370.49,-0.00554
4366.64,-0.00553
4362.78,-0.00546
4358.92,-0.00545
4355.06,-0.00546
4351.21,-0.00565
4347.35,-0.00524
4343.49,-0.00530
4339.63,-0.00525
4335.78,-0.00514
4331.92,-0.00511
4328.06,-0.00498
4324.2,-0.00510
4320.35,-0.00515
4316.49,-0.00519
4312.63,-0.00535
4308.77,-0.00528
4304.92,-0.00516
4301.06,-0.00530
4297.2,-0.00521
4293.34,-0.00501
4289.49,-0.00489
4285.63,-0.00499
4281.77,-0.00502
4277.91,-0.00515
4274.06,-0.00509
4270.2,-0.00499
4266.34,-0.00516
4262.48,-0.00501
4258.63,-0.00498
4254.77,-0.00498
4250.91,-0.00493
4247.06,-0.00515
4243.2,-0.00512
4239.34,-0.00498
4235.48,-0.00499
4231.63,-0.00500
4227.77,-0.00480
4223.91,-0.00484
4220.05,-0.00475
4216.2,-0.00486
4212.34,-0.00468
4208.48,-0.00476
4204.62,-0.00479
4200.77,-0.00475
4196.91,-0.00473
4193.05,-0.00453
4189.19,-0.00461
4185.34,-0.00473
4181.48,-0.00456
4177.62,-0.00454
4173.76,-0.00436
4169.91,-0.00449
4166.05,-0.00453
4162.19,-0.00465
4158.33,-0.00447
4154.48,-0.00449
4150.62,-0.00460
4146.76,-0.00471
4142.9,-0.00455
4139.05,-0.00424
4135.19,-0.00427
4131.33,-0.00447
4127.47,-0.00455
4123.62,-0.00438
4119.76,-0.00415
4115.9,-0.00407
4112.04,-0.00430
4108.19,-0.00403
4104.33,-0.00395
4100.47,-0.00421
4096.61,-0.00422
4092.76,-0.00397
4088.9,-0.00369
4085.04,-0.00369
4081.18,-0.00377
4077.33,-0.00407
4073.47,-0.00395
4069.61,-0.00418
4065.75,-0.00426
4061.9,-0.00396
4058.04,-0.00396
4054.18,-0.00415
4050.33,-0.00412
4046.47,-0.00373
4042.61,-0.00363
4038.75,-0.00386
4034.9,-0.00380
4031.04,-0.00391
4027.18,-0.00369
4023.32,-0.00346
4019.47,-0.00349
4015.61,-0.00368
4011.75,-0.00365
4007.89,-0.00348
4004.04,-0.00388
4000.18,-0.00390
3996.32,-0.00336
3992.46,-0.00290
3988.61,-0.00342
3984.75,-0.00337
3980.89,-0.00316
3977.03,-0.00258
3973.18,-0.00231
3969.32,-0.00295
3965.46,-0.00310
3961.6,-0.00208
3957.75,-0.00238
3953.89,-0.00251
3950.03,-0.00104
3946.17,-0.00121
3942.32,-0.00149
3938.46,-0.00272
3934.6,-0.00137
3930.74,0.00001
3926.89,-0.00085
3923.03,-0.00038
3919.17,-0.00041
3915.31,-0.00149
3911.46,-0.00300
3907.6,-0.00109
3903.74,0.00403
3899.88,0.00226
3896.03,-0.00061
3892.17,0.00076
3888.31,-0.00030
3884.45,0.00173
3880.6,0.00031
3876.74,-0.00098
3872.88,0.00190
3869.02,0.00249
3865.17,0.00301
3861.31,0.00094
3857.45,0.00137
3853.59,0.00485
3849.74,0.00077
3845.88,-0.00005
3842.02,0.00323
3838.17,0.00508
3834.31,0.00133
3830.45,0.00004
3826.59,0.00103
3822.74,0.00253
3818.88,0.00297
3815.02,-0.00018
3811.16,-0.00160
3807.31,0.00022
3803.45,0.00219
3799.59,0.00265
3795.73,-0.00059
3791.88,-0.00253
3788.02,-0.00154
3784.16,-0.00060
3780.3,-0.00072
3776.45,-0.00190
3772.59,-0.00110
3768.73,0.00099
3764.87,0.00036
3761.02,0.00085
3757.16,0.00244
3753.3,0.00515
3749.44,0.00883
3745.59,0.00648
3741.73,0.00387
3737.87,0.00555
3734.01,0.00539
3730.16,0.00144
3726.3,0.00316
3722.44,0.00250
3718.58,0.00019
3714.73,0.00117
3710.87,0.00324
3707.01,-0.00011
3703.15,-0.00031
3699.3,-0.00078
3695.44,-0.00028
3691.58,0.00315
3687.72,0.00188
3683.87,-0.00079
3680.01,0.00102
3676.15,0.00421
3672.29,0.00403
3668.44,0.00160
3664.58,-0.00137
3660.72,-0.00093
3656.86,0.00065
3653.01,0.00195
3649.15,0.00736
3645.29,0.00171
3641.44,0.00023
3637.58,-0.00021
3633.72,0.00138
3629.86,0.00442
3626.01,0.00132
3622.15,0.00137
3618.29,0.00464
3614.43,0.00421
3610.58,0.00339
3606.72,0.00111
3602.86,0.00050
3599,0.00236
3595.15,0.00175
3591.29,0.00099
3587.43,0.00397
3583.57,0.00057
3579.72,-0.00022
3575.86,-0.00041
3572,-0.00007
3568.14,0.00456
3564.29,0.00300
3560.43,0.00029
3556.57,-0.00072
3552.71,0.00040
3548.86,0.00081
3545,0.00209
3541.14,-0.00114
3537.28,-0.00093
3533.43,-0.00100
3529.57,0.00105
3525.71,0.00211
3521.85,0.00013
3518,-0.00149
3514.14,-0.00179
3510.28,-0.00069
3506.42,-0.00070
3502.57,0.00082
3498.71,-0.00116
3494.85,-0.00182
3490.99,-0.00205
3487.14,-0.00142
3483.28,-0.00103
3479.42,-0.00160
3475.56,-0.00213
3471.71,-0.00230
3467.85,-0.00212
3463.99,-0.00184
3460.13,-0.00179
3456.28,-0.00222
3452.42,-0.00253
3448.56,-0.00119
3444.7,-0.00096
3440.85,-0.00172
3436.99,-0.00214
3433.13,-0.00194
3429.28,-0.00179
3425.42,-0.00185
3421.56,-0.00109
3417.7,-0.00200
3413.85,-0.00244
3409.99,-0.00250
3406.13,-0.00259
3402.27,-0.00245
3398.42,-0.00218
3394.56,-0.00201
3390.7,-0.00230
3386.84,-0.00249
3382.99,-0.00241
3379.13,-0.00257
3375.27,-0.00264
3371.41,-0.00252
3367.56,-0.00204
3363.7,-0.00210
3359.84,-0.00222
3355.98,-0.00225
3352.13,-0.00266
3348.27,-0.00264
3344.41,-0.00239
3340.55,-0.00225
3336.7,-0.00194
3332.84,-0.00228
3328.98,-0.00223
3325.12,-0.00216
3321.27,-0.00238
3317.41,-0.00233
3313.55,-0.00197
3309.69,-0.00176
3305.84,-0.00206
3301.98,-0.00214
3298.12,-0.00203
3294.26,-0.00201
3290.41,-0.00180
3286.55,-0.00189
3282.69,-0.00172
3278.83,-0.00187
3274.98,-0.00164
3271.12,-0.00187
3267.26,-0.00188
3263.4,-0.00179
3259.55,-0.00180
3255.69,-0.00157
3251.83,-0.00181
3247.97,-0.00167
3244.12,-0.00151
3240.26,-0.00147
3236.4,-0.00150
3232.55,-0.00147
3228.69,-0.00138
3224.83,-0.00163
3220.97,-0.00139
3217.12,-0.00134
3213.26,-0.00136
3209.4,-0.00141
3205.54,-0.00134
3201.69,-0.00114
3197.83,-0.00090
3193.97,-0.00119
3190.11,-0.00124
3186.26,-0.00107
3182.4,-0.00108
3178.54,-0.00100
3174.68,-0.00107
3170.83,-0.00113
3166.97,-0.00126
3163.11,-0.00125
3159.25,-0.00113
3155.4,-0.00091
3151.54,-0.00085
3147.68,-0.00085
3143.82,-0.00086
3139.97,-0.00078
3136.11,-0.00060
3132.25,-0.00054
3128.39,-0.00046
3124.54,-0.00022
3120.68,-0.00010
3116.82,-0.00011
3112.96,-0.00018
3109.11,-0.00014
3105.25,-0.00005
3101.39,0.00028
3097.53,0.00014
3093.68,-0.00004
3089.82,-0.00014
3085.96,-0.00005
3082.1,0.00031
3078.25,0.00028
3074.39,0.00012
3070.53,0.00020
3066.67,0.00051
3062.82,0.00046
3058.96,0.00048
3055.1,0.00062
3051.24,0.00044
3047.39,0.00040
3043.53,0.00014
3039.67,0.00006
3035.82,0.00032
3031.96,0.00066
3028.1,0.00031
3024.24,0.00045
3020.39,0.00037
3016.53,0.00053
3012.67,0.00113
3008.81,0.00108
3004.96,0.00114
3001.1,0.00113
2997.24,0.00128
2993.38,0.00146
2989.53,0.00160
2985.67,0.00182
2981.81,0.00221
2977.95,0.00268
2974.1,0.00320
2970.24,0.00349
2966.38,0.00360
2962.52,0.00358
2958.67,0.00337
2954.81,0.00315
2950.95,0.00285
2947.09,0.00243
2943.24,0.00210
2939.38,0.00194
2935.52,0.00206
2931.66,0.00204
2927.81,0.00212
2923.95,0.00221
2920.09,0.00228
2916.23,0.00236
2912.38,0.00248
2908.52,0.00258
2904.66,0.00255
2900.8,0.00245
2896.95,0.00223
2893.09,0.00215
2889.23,0.00207
2885.37,0.00199
2881.52,0.00195
2877.66,0.00192
2873.8,0.00200
2869.94,0.00192
2866.09,0.00189
2862.23,0.00193
2858.37,0.00203
2854.51,0.00209
2850.66,0.00201
2846.8,0.00183
2842.94,0.00168
2839.08,0.00149
2835.23,0.00143
2831.37,0.00134
2827.51,0.00134
2823.66,0.00128
2819.8,0.00126
2815.94,0.00129
2812.08,0.00132
2808.23,0.00129
2804.37,0.00130
2800.51,0.00135
2796.65,0.00129
2792.8,0.00134
2788.94,0.00139
2785.08,0.00134
2781.22,0.00142
2777.37,0.00138
2773.51,0.00134
2769.65,0.00137
2765.79,0.00133
2761.94,0.00132
2758.08,0.00137
2754.22,0.00141
2750.36,0.00143
2746.51,0.00150
2742.65,0.00143
2738.79,0.00136
2734.93,0.00141
2731.08,0.00144
2727.22,0.00143
2723.36,0.00149
2719.5,0.00152
2715.65,0.00148
2711.79,0.00149
2707.93,0.00148
2704.07,0.00150
2700.22,0.00151
2696.36,0.00154
2692.5,0.00148
2688.64,0.00150
2684.79,0.00157
2680.93,0.00155
2677.07,0.00160
2673.21,0.00151
2669.36,0.00154
2665.5,0.00161
2661.64,0.00163
2657.78,0.00163
2653.93,0.00162
2650.07,0.00162
2646.21,0.00157
2642.35,0.00148
2638.5,0.00151
2634.64,0.00148
2630.78,0.00152
2626.93,0.00157
2623.07,0.00147
2619.21,0.00139
2615.35,0.00145
2611.5,0.00141
2607.64,0.00132
2603.78,0.00141
2599.92,0.00143
2596.07,0.00149
2592.21,0.00163
2588.35,0.00156
2584.49,0.00161
2580.64,0.00175
2576.78,0.00166
2572.92,0.00160
2569.06,0.00164
2565.21,0.00161
2561.35,0.00156
2557.49,0.00154
2553.63,0.00148
2549.78,0.00147
2545.92,0.00146
2542.06,0.00166
2538.2,0.00179
2534.35,0.00181
2530.49,0.00170
2526.63,0.00156
2522.77,0.00163
2518.92,0.00164
2515.06,0.00156
2511.2,0.00167
2507.34,0.00180
2503.49,0.00187
2499.63,0.00158
2495.77,0.00151
2491.91,0.00165
2488.06,0.00178
2484.2,0.00169
2480.34,0.00161
2476.48,0.00168
2472.63,0.00176
2468.77,0.00185
2464.91,0.00170
2461.05,0.00166
2457.2,0.00170
2453.34,0.00164
2449.48,0.00161
2445.62,0.00159
2441.77,0.00171
2437.91,0.00177
2434.05,0.00193
2430.2,0.00202
2426.34,0.00196
2422.48,0.00201
2418.62,0.00194
2414.77,0.00187
2410.91,0.00205
2407.05,0.00209
2403.19,0.00217
2399.34,0.00224
2395.48,0.00228
2391.62,0.00225
2387.76,0.00244
2383.91,0.00295
2380.05,0.00300
2376.19,0.00214
2372.33,0.00051
2368.48,-0.00199
2364.62,-0.00350
2360.76,-0.00418
2356.9,-0.00395
2353.05,-0.00111
2349.19,0.00117
2345.33,-0.00062
2341.47,-0.00250
2337.62,-0.00252
2333.76,-0.00186
2329.9,-0.00075
2326.04,0.00016
2322.19,0.00138
2318.33,0.00229
2314.47,0.00268
2310.61,0.00339
2306.76,0.00329
2302.9,0.00297
2299.04,0.00276
2295.18,0.00271
2291.33,0.00283
2287.47,0.00275
2283.61,0.00253
2279.75,0.00211
2275.9,0.00212
2272.04,0.00194
2268.18,0.00193
2264.32,0.00199
2260.47,0.00211
2256.61,0.00226
2252.75,0.00238
2248.89,0.00227
2245.04,0.00233
2241.18,0.00200
2237.32,0.00192
2233.46,0.00202
2229.61,0.00203
2225.75,0.00202
2221.89,0.00171
2218.04,0.00192
2214.18,0.00159
2210.32,0.00120
2206.46,0.00125
2202.61,0.00134
2198.75,0.00120
2194.89,0.00100
2191.03,0.00110
2187.18,0.00103
2183.32,0.00057
2179.46,0.00062
2175.6,0.00081
2171.75,0.00064
2167.89,0.00032
2164.03,0.00018
2160.17,0.00056
2156.32,0.00122
2152.46,0.00158
2148.6,0.00155
2144.74,0.00181
2140.89,0.00201
2137.03,0.00210
2133.17,0.00201
2129.31,0.00185
2125.46,0.00186
2121.6,0.00176
2117.74,0.00188
2113.88,0.00193
2110.03,0.00176
2106.17,0.00188
2102.31,0.00205
2098.45,0.00228
2094.6,0.00245
2090.74,0.00276
2086.88,0.00262
2083.02,0.00245
2079.17,0.00240
2075.31,0.00219
2071.45,0.00233
2067.59,0.00287
2063.74,0.00289
2059.88,0.00244
2056.02,0.00222
2052.16,0.00231
2048.31,0.00204
2044.45,0.00238
2040.59,0.00258
2036.73,0.00211
2032.88,0.00203
2029.02,0.00198
2025.16,0.00268
2021.31,0.00266
2017.45,0.00340
2013.59,0.00278
2009.73,0.00272
2005.88,0.00306
2002.02,0.00288
1998.16,0.00294
1994.3,0.00363
1990.45,0.00421
1986.59,0.00359
1982.73,0.00320
1978.87,0.00287
1975.02,0.00279
1971.16,0.00349
1967.3,0.00453
1963.44,0.00361
1959.59,0.00350
1955.73,0.00383
1951.87,0.00389
1948.01,0.00414
1944.16,0.00530
1940.3,0.00441
1936.44,0.00365
1932.58,0.00353
1928.73,0.00334
1924.87,0.00449
1921.01,0.00514
1917.15,0.00427
1913.3,0.00369
1909.44,0.00468
1905.58,0.00369
1901.72,0.00343
1897.87,0.00383
1894.01,0.00403
1890.15,0.00440
1886.29,0.00401
1882.44,0.00345
1878.58,0.00325
1874.72,0.00341
1870.86,0.00577
1867.01,0.00635
1863.15,0.00408
1859.29,0.00405
1855.43,0.00350
1851.58,0.00384
1847.72,0.00617
1843.86,0.00763
1840,0.00505
1836.15,0.00493
1832.29,0.00548
1828.43,0.00661
1824.57,0.00624
1820.72,0.00474
1816.86,0.00465
1813,0.00559
1809.15,0.00597
1805.29,0.00545
1801.43,0.00726
1797.57,0.00730
1793.72,0.00849
1789.86,0.00666
1786,0.00547
1782.14,0.00633
1778.29,0.00636
1774.43,0.00767
1770.57,0.00880
1766.71,0.00635
1762.86,0.00674
1759,0.00773
1755.14,0.00781
1751.28,0.01181
1747.43,0.01655
1743.57,0.01819
1739.71,0.02331
1735.85,0.02992
1732,0.04075
1728.14,0.04316
1724.28,0.04901
1720.42,0.05636
1716.57,0.07083
1712.71,0.06947
1708.85,0.06647
1704.99,0.06307
1701.14,0.05751
1697.28,0.04890
1693.42,0.03735
1689.56,0.03491
1685.71,0.03435
1681.85,0.03170
1677.99,0.02706
1674.13,0.02529
1670.28,0.02435
1666.42,0.01936
1662.56,0.01828
1658.7,0.01634
1654.85,0.01845
1650.99,0.01830
1647.13,0.01866
1643.27,0.01438
1639.42,0.01450
1635.56,0.01527
1631.7,0.01179
1627.84,0.01221
1623.99,0.01340
1620.13,0.01274
1616.27,0.01313
1612.42,0.01145
1608.56,0.01158
1604.7,0.01056
1600.84,0.00945
1596.99,0.00889
1593.13,0.00904
1589.27,0.00861
1585.41,0.00863
1581.56,0.01025
1577.7,0.01330
1573.84,0.01223
1569.98,0.01185
1566.13,0.01116
1562.27,0.01202
1558.41,0.01658
1554.55,0.01459
1550.7,0.01268
1546.84,0.01314
1542.98,0.02098
1539.12,0.01582
1535.27,0.01454
1531.41,0.01338
1527.55,0.01527
1523.69,0.01894
1519.84,0.01772
1515.98,0.01599
1512.12,0.01609
1508.26,0.02318
1504.41,0.01859
1500.55,0.01601
1496.69,0.01353
1492.83,0.01121
1488.98,0.01496
1485.12,0.01085
1481.26,0.01079
1477.4,0.01315
1473.55,0.01918
1469.69,0.01526
1465.83,0.01433
1461.97,0.01405
1458.12,0.01927
1454.26,0.01731
1450.4,0.01485
1446.54,0.01392
1442.69,0.01224
1438.83,0.01335
1434.97,0.01400
1431.11,0.01209
1427.26,0.01031
1423.4,0.01095
1419.54,0.01463
1415.69,0.01848
1411.83,0.02445
1407.97,0.02742
1404.11,0.02316
1400.26,0.01981
1396.4,0.01930
1392.54,0.01541
1388.68,0.01552
1384.83,0.01447
1380.97,0.01370
1377.11,0.01501
1373.25,0.01617
1369.4,0.01455
1365.54,0.01349
1361.68,0.01326
1357.82,0.01054
1353.97,0.01062
1350.11,0.01237
1346.25,0.01731
1342.39,0.02525
1338.54,0.02975
1334.68,0.02057
1330.82,0.01395
1326.96,0.01128
1323.11,0.01159
1319.25,0.01375
1315.39,0.01473
1311.53,0.01547
1307.68,0.01625
1303.82,0.01772
1299.96,0.02022
1296.1,0.02384
1292.25,0.02743
1288.39,0.03152
1284.53,0.03451
1280.67,0.03798
1276.82,0.04150
1272.96,0.04571
1269.1,0.05024
1265.24,0.05418
1261.39,0.05775
1257.53,0.05975
1253.67,0.06149
1249.81,0.06418
1245.96,0.06724
1242.1,0.06940
1238.24,0.06922
1234.38,0.06626
1230.53,0.06178
1226.67,0.05770
1222.81,0.05388
1218.95,0.04965
1215.1,0.04521
1211.24,0.04134
1207.38,0.03796
1203.53,0.03494
1199.67,0.03201
1195.81,0.02905
1191.95,0.02653
1188.1,0.02462
1184.24,0.02340
1180.38,0.02289
1176.52,0.02291
1172.67,0.02222
1168.81,0.02034
1164.95,0.01880
1161.09,0.01805
1157.24,0.01805
1153.38,0.01861
1149.52,0.01992
1145.66,0.02215
1141.81,0.02557
1137.95,0.03051
1134.09,0.03672
1130.23,0.04298
1126.38,0.04834
1122.52,0.05239
1118.66,0.05444
1114.8,0.05494
1110.95,0.05580
1107.09,0.05840
1103.23,0.06264
1099.37,0.06654
1095.52,0.06867
1091.66,0.06873
1087.8,0.06706
1083.94,0.06468
1080.09,0.06094
1076.23,0.05641
1072.37,0.05169
1068.51,0.04736
1064.66,0.04385
1060.8,0.04108
1056.94,0.03917
1053.08,0.03825
1049.23,0.03818
1045.37,0.03816
1041.51,0.03779
1037.65,0.03633
1033.8,0.03441
1029.94,0.03278
1026.08,0.03600
1022.22,0.04534
1018.37,0.05333
1014.51,0.05270
1010.65,0.04510
1006.8,0.03997
1002.94,0.03691
999.08,0.03508
995.223,0.03380
991.365,0.03340
987.508,0.03291
983.65,0.03272
979.793,0.03319
975.935,0.03451
972.078,0.03671
968.221,0.03704
964.363,0.03566
960.506,0.03386
956.648,0.03212
952.791,0.03082
948.933,0.02982
945.076,0.02938
941.218,0.02900
937.361,0.02865
933.503,0.02824
929.646,0.02768
925.789,0.02703
921.931,0.02648
918.074,0.02585
914.216,0.02542
910.359,0.02551
906.501,0.02616
902.644,0.02697
898.786,0.02761
894.929,0.02750
891.072,0.02687
887.214,0.02674
883.357,0.02815
879.499,0.03131
875.642,0.03740
871.784,0.04483
867.927,0.04013
864.069,0.03469
860.212,0.03318
856.354,0.03363
852.497,0.03470
848.64,0.03672
844.782,0.03698
840.925,0.03489
837.067,0.03278
833.21,0.03118
829.352,0.02999
825.495,0.02929
821.637,0.02876
817.78,0.02813
813.922,0.02749
810.065,0.02760
806.208,0.02786
802.35,0.02734
798.493,0.02729
794.635,0.02919
790.778,0.02943
786.92,0.02723
783.063,0.02536
779.205,0.02439
775.348,0.02384
771.49,0.02295
767.633,0.02174
763.776,0.02113
759.918,0.01963
756.061,0.01799
752.203,0.01728
748.346,0.01611
744.488,0.01616
740.631,0.02010
736.773,0.03038
732.916,0.04615
729.058,0.06417
725.201,0.08133
721.344,0.08696
717.486,0.07982
713.629,0.07099
709.771,0.06348
705.914,0.05828
702.056,0.05399
698.199,0.04991
694.341,0.04609
690.484,0.04329
686.627,0.04146
682.769,0.04024
678.912,0.03933
675.054,0.03835
671.197,0.03773
667.339,0.03613
663.482,0.03572
659.624,0.03522
655.767,0.03404
651.909,0.03377
648.052,0.03353
644.195,0.03374
640.337,0.03403
636.48,0.03363
632.622,0.03409
628.765,0.03319
624.907,0.03169
621.05,0.02863
617.192,0.03103
613.335,0.02754
609.477,0.02441
605.62,0.02548
601.763,0.02936
599.834,0.03163