File: 01_Data/Overstuffed_Chair_Polyester_Batting/FTIR/ATR/Overstuffed_Chair_Polyester_Batting_ATR_210608_R4.tst
4497.79,-0.00583
4493.93,-0.00588
4490.07,-0.00578
4486.22,-0.00558
4482.36,-0.00578
4478.5,-0.00555
4474.64,-0.00569
4470.79,-0.00561
4466.93,-0.00560
4463.07,-0.00534
4459.21,-0.00556
4455.36,-0.00557
4451.5,-0.00541
4447.64,-0.00561
4443.79,-0.00537
4439.93,-0.00508
4436.07,-0.00507
4432.21,-0.00540
4428.36,-0.00541
4424.5,-0.00533
4420.64,-0.00543
4416.78,-0.00537
4412.93,-0.00516
4409.07,-0.00507
4405.21,-0.00509
4401.35,-0.00512
4397.5,-0.00507
4393.64,-0.00517
4389.78,-0.00517
4385.92,-0.00520
4382.07,-0.00517
4378.21,-0.00499
4374.35,-0.00518
4370.49,-0.00526
4366.64,-0.00512
4362.78,-0.00493
4358.92,-0.00494
4355.06,-0.00514
4351.21,-0.00510
4347.35,-0.00494
4343.49,-0.00499
4339.63,-0.00480
4335.78,-0.00472
4331.92,-0.00491
4328.06,-0.00485
4324.2,-0.00459
4320.35,-0.00453
4316.49,-0.00472
4312.63,-0.00490
4308.77,-0.00493
4304.92,-0.00473
4301.06,-0.00484
4297.2,-0.00489
4293.34,-0.00453
4289.49,-0.00436
4285.63,-0.00461
4281.77,-0.00468
4277.91,-0.00475
4274.06,-0.00468
4270.2,-0.00463
4266.34,-0.00458
4262.48,-0.00451
4258.63,-0.00482
4254.77,-0.00487
4250.91,-0.00457
4247.06,-0.00465
4243.2,-0.00459
4239.34,-0.00445
4235.48,-0.00467
4231.63,-0.00456
4227.77,-0.00445
4223.91,-0.00440
4220.05,-0.00429
4216.2,-0.00439
4212.34,-0.00440
4208.48,-0.00447
4204.62,-0.00433
4200.77,-0.00428
4196.91,-0.00438
4193.05,-0.00423
4189.19,-0.00435
4185.34,-0.00429
4181.48,-0.00426
4177.62,-0.00448
4173.76,-0.00409
4169.91,-0.00408
4166.05,-0.00400
4162.19,-0.00405
4158.33,-0.00418
4154.48,-0.00422
4150.62,-0.00421
4146.76,-0.00406
4142.9,-0.00406
4139.05,-0.00403
4135.19,-0.00388
4131.33,-0.00402
4127.47,-0.00423
4123.62,-0.00408
4119.76,-0.00393
4115.9,-0.00382
4112.04,-0.00391
4108.19,-0.00383
4104.33,-0.00350
4100.47,-0.00377
4096.61,-0.00370
4092.76,-0.00391
4088.9,-0.00352
4085.04,-0.00332
4081.18,-0.00331
4077.33,-0.00359
4073.47,-0.00356
4069.61,-0.00361
4065.75,-0.00373
4061.9,-0.00354
4058.04,-0.00353
4054.18,-0.00363
4050.33,-0.00361
4046.47,-0.00311
4042.61,-0.00318
4038.75,-0.00360
4034.9,-0.00338
4031.04,-0.00354
4027.18,-0.00348
4023.32,-0.00325
4019.47,-0.00302
4015.61,-0.00318
4011.75,-0.00305
4007.89,-0.00291
4004.04,-0.00334
4000.18,-0.00340
3996.32,-0.00285
3992.46,-0.00250
3988.61,-0.00290
3984.75,-0.00292
3980.89,-0.00267
3977.03,-0.00211
3973.18,-0.00177
3969.32,-0.00238
3965.46,-0.00285
3961.6,-0.00187
3957.75,-0.00186
3953.89,-0.00178
3950.03,-0.00020
3946.17,-0.00050
3942.32,-0.00090
3938.46,-0.00210
3934.6,-0.00070
3930.74,0.00063
3926.89,-0.00027
3923.03,0.00046
3919.17,0.00051
3915.31,-0.00093
3911.46,-0.00254
3907.6,-0.00067
3903.74,0.00502
3899.88,0.00354
3896.03,0.00024
3892.17,0.00147
3888.31,0.00031
3884.45,0.00251
3880.6,0.00109
3876.74,-0.00049
3872.88,0.00287
3869.02,0.00348
3865.17,0.00425
3861.31,0.00190
3857.45,0.00229
3853.59,0.00707
3849.74,0.00170
3845.88,0.00059
3842.02,0.00435
3838.17,0.00622
3834.31,0.00231
3830.45,0.00089
3826.59,0.00178
3822.74,0.00328
3818.88,0.00383
3815.02,0.00051
3811.16,-0.00116
3807.31,0.00120
3803.45,0.00359
3799.59,0.00367
3795.73,0.00024
3791.88,-0.00186
3788.02,-0.00094
3784.16,-0.00003
3780.3,-0.00011
3776.45,-0.00139
3772.59,-0.00048
3768.73,0.00163
3764.87,0.00100
3761.02,0.00182
3757.16,0.00342
3753.3,0.00631
3749.44,0.01055
3745.59,0.00808
3741.73,0.00544
3737.87,0.00754
3734.01,0.00819
3730.16,0.00276
3726.3,0.00434
3722.44,0.00339
3718.58,0.00076
3714.73,0.00177
3710.87,0.00462
3707.01,0.00069
3703.15,0.00054
3699.3,-0.00014
3695.44,0.00045
3691.58,0.00419
3687.72,0.00307
3683.87,-0.00008
3680.01,0.00186
3676.15,0.00573
3672.29,0.00522
3668.44,0.00250
3664.58,-0.00074
3660.72,-0.00041
3656.86,0.00148
3653.01,0.00290
3649.15,0.00979
3645.29,0.00271
3641.44,0.00063
3637.58,0.00004
3633.72,0.00168
3629.86,0.00516
3626.01,0.00203
3622.15,0.00216
3618.29,0.00593
3614.43,0.00531
3610.58,0.00426
3606.72,0.00214
3602.86,0.00142
3599,0.00307
3595.15,0.00242
3591.29,0.00164
3587.43,0.00484
3583.57,0.00115
3579.72,0.00032
3575.86,-0.00001
3572,0.00042
3568.14,0.00539
3564.29,0.00392
3560.43,0.00085
3556.57,-0.00019
3552.71,0.00101
3548.86,0.00159
3545,0.00300
3541.14,-0.00053
3537.28,-0.00042
3533.43,-0.00059
3529.57,0.00150
3525.71,0.00275
3521.85,0.00067
3518,-0.00110
3514.14,-0.00131
3510.28,-0.00006
3506.42,-0.00014
3502.57,0.00136
3498.71,-0.00065
3494.85,-0.00122
3490.99,-0.00145
3487.14,-0.00084
3483.28,-0.00049
3479.42,-0.00110
3475.56,-0.00154
3471.71,-0.00175
3467.85,-0.00162
3463.99,-0.00112
3460.13,-0.00109
3456.28,-0.00162
3452.42,-0.00189
3448.56,-0.00066
3444.7,-0.00048
3440.85,-0.00117
3436.99,-0.00161
3433.13,-0.00133
3429.28,-0.00133
3425.42,-0.00124
3421.56,-0.00037
3417.7,-0.00148
3413.85,-0.00187
3409.99,-0.00204
3406.13,-0.00213
3402.27,-0.00206
3398.42,-0.00157
3394.56,-0.00125
3390.7,-0.00167
3386.84,-0.00181
3382.99,-0.00170
3379.13,-0.00192
3375.27,-0.00200
3371.41,-0.00194
3367.56,-0.00149
3363.7,-0.00149
3359.84,-0.00158
3355.98,-0.00162
3352.13,-0.00206
3348.27,-0.00211
3344.41,-0.00191
3340.55,-0.00169
3336.7,-0.00132
3332.84,-0.00152
3328.98,-0.00145
3325.12,-0.00153
3321.27,-0.00178
3317.41,-0.00170
3313.55,-0.00135
3309.69,-0.00109
3305.84,-0.00137
3301.98,-0.00144
3298.12,-0.00148
3294.26,-0.00141
3290.41,-0.00113
3286.55,-0.00121
3282.69,-0.00121
3278.83,-0.00115
3274.98,-0.00091
3271.12,-0.00108
3267.26,-0.00116
3263.4,-0.00112
3259.55,-0.00116
3255.69,-0.00104
3251.83,-0.00121
3247.97,-0.00104
3244.12,-0.00079
3240.26,-0.00100
3236.4,-0.00099
3232.55,-0.00082
3228.69,-0.00075
3224.83,-0.00106
3220.97,-0.00087
3217.12,-0.00087
3213.26,-0.00083
3209.4,-0.00081
3205.54,-0.00085
3201.69,-0.00058
3197.83,-0.00050
3193.97,-0.00080
3190.11,-0.00081
3186.26,-0.00064
3182.4,-0.00065
3178.54,-0.00048
3174.68,-0.00058
3170.83,-0.00062
3166.97,-0.00067
3163.11,-0.00068
3159.25,-0.00068
3155.4,-0.00055
3151.54,-0.00050
3147.68,-0.00044
3143.82,-0.00042
3139.97,-0.00049
3136.11,-0.00029
3132.25,-0.00016
3128.39,-0.00011
3124.54,0.00010
3120.68,0.00031
3116.82,0.00027
3112.96,0.00023
3109.11,0.00024
3105.25,0.00037
3101.39,0.00072
3097.53,0.00052
3093.68,0.00036
3089.82,0.00030
3085.96,0.00045
3082.1,0.00082
3078.25,0.00085
3074.39,0.00065
3070.53,0.00066
3066.67,0.00101
3062.82,0.00086
3058.96,0.00083
3055.1,0.00094
3051.24,0.00086
3047.39,0.00084
3043.53,0.00065
3039.67,0.00055
3035.82,0.00082
3031.96,0.00122
3028.1,0.00085
3024.24,0.00089
3020.39,0.00076
3016.53,0.00091
3012.67,0.00157
3008.81,0.00153
3004.96,0.00158
3001.1,0.00152
2997.24,0.00168
2993.38,0.00184
2989.53,0.00190
2985.67,0.00207
2981.81,0.00239
2977.95,0.00277
2974.1,0.00331
2970.24,0.00370
2966.38,0.00386
2962.52,0.00393
2958.67,0.00392
2954.81,0.00376
2950.95,0.00344
2947.09,0.00313
2943.24,0.00285
2939.38,0.00285
2935.52,0.00296
2931.66,0.00327
2927.81,0.00351
2923.95,0.00367
2920.09,0.00362
2916.23,0.00358
2912.38,0.00352
2908.52,0.00342
2904.66,0.00340
2900.8,0.00323
2896.95,0.00294
2893.09,0.00281
2889.23,0.00267
2885.37,0.00262
2881.52,0.00255
2877.66,0.00254
2873.8,0.00256
2869.94,0.00262
2866.09,0.00267
2862.23,0.00282
2858.37,0.00311
2854.51,0.00333
2850.66,0.00318
2846.8,0.00283
2842.94,0.00244
2839.08,0.00221
2835.23,0.00207
2831.37,0.00199
2827.51,0.00194
2823.66,0.00178
2819.8,0.00175
2815.94,0.00185
2812.08,0.00180
2808.23,0.00179
2804.37,0.00177
2800.51,0.00182
2796.65,0.00172
2792.8,0.00178
2788.94,0.00187
2785.08,0.00186
2781.22,0.00185
2777.37,0.00180
2773.51,0.00180
2769.65,0.00178
2765.79,0.00178
2761.94,0.00180
2758.08,0.00187
2754.22,0.00183
2750.36,0.00182
2746.51,0.00189
2742.65,0.00190
2738.79,0.00190
2734.93,0.00183
2731.08,0.00181
2727.22,0.00184
2723.36,0.00188
2719.5,0.00196
2715.65,0.00194
2711.79,0.00194
2707.93,0.00192
2704.07,0.00196
2700.22,0.00197
2696.36,0.00194
2692.5,0.00190
2688.64,0.00196
2684.79,0.00201
2680.93,0.00203
2677.07,0.00205
2673.21,0.00200
2669.36,0.00207
2665.5,0.00213
2661.64,0.00214
2657.78,0.00211
2653.93,0.00211
2650.07,0.00210
2646.21,0.00196
2642.35,0.00194
2638.5,0.00203
2634.64,0.00200
2630.78,0.00199
2626.93,0.00196
2623.07,0.00194
2619.21,0.00190
2615.35,0.00194
2611.5,0.00188
2607.64,0.00188
2603.78,0.00191
2599.92,0.00194
2596.07,0.00198
2592.21,0.00210
2588.35,0.00205
2584.49,0.00204
2580.64,0.00208
2576.78,0.00201
2572.92,0.00202
2569.06,0.00207
2565.21,0.00203
2561.35,0.00198
2557.49,0.00195
2553.63,0.00204
2549.78,0.00212
2545.92,0.00216
2542.06,0.00218
2538.2,0.00228
2534.35,0.00229
2530.49,0.00223
2526.63,0.00218
2522.77,0.00217
2518.92,0.00225
2515.06,0.00217
2511.2,0.00213
2507.34,0.00221
2503.49,0.00227
2499.63,0.00215
2495.77,0.00216
2491.91,0.00225
2488.06,0.00228
2484.2,0.00217
2480.34,0.00221
2476.48,0.00224
2472.63,0.00238
2468.77,0.00233
2464.91,0.00225
2461.05,0.00227
2457.2,0.00228
2453.34,0.00225
2449.48,0.00218
2445.62,0.00218
2441.77,0.00214
2437.91,0.00241
2434.05,0.00273
2430.2,0.00256
2426.34,0.00248
2422.48,0.00256
2418.62,0.00258
2414.77,0.00260
2410.91,0.00266
2407.05,0.00277
2403.19,0.00279
2399.34,0.00282
2395.48,0.00280
2391.62,0.00281
2387.76,0.00310
2383.91,0.00356
2380.05,0.00370
2376.19,0.00294
2372.33,0.00159
2368.48,-0.00019
2364.62,-0.00187
2360.76,-0.00207
2356.9,-0.00180
2353.05,0.00042
2349.19,0.00200
2345.33,0.00056
2341.47,-0.00101
2337.62,-0.00152
2333.76,-0.00086
2329.9,0.00057
2326.04,0.00153
2322.19,0.00266
2318.33,0.00319
2314.47,0.00355
2310.61,0.00422
2306.76,0.00417
2302.9,0.00386
2299.04,0.00367
2295.18,0.00350
2291.33,0.00349
2287.47,0.00349
2283.61,0.00333
2279.75,0.00319
2275.9,0.00321
2272.04,0.00273
2268.18,0.00301
2264.32,0.00309
2260.47,0.00318
2256.61,0.00314
2252.75,0.00336
2248.89,0.00321
2245.04,0.00338
2241.18,0.00324
2237.32,0.00308
2233.46,0.00328
2229.61,0.00313
2225.75,0.00312
2221.89,0.00308
2218.04,0.00322
2214.18,0.00281
2210.32,0.00263
2206.46,0.00314
2202.61,0.00325
2198.75,0.00295
2194.89,0.00281
2191.03,0.00276
2187.18,0.00258
2183.32,0.00243
2179.46,0.00231
2175.6,0.00251
2171.75,0.00266
2167.89,0.00238
2164.03,0.00217
2160.17,0.00295
2156.32,0.00289
2152.46,0.00312
2148.6,0.00331
2144.74,0.00307
2140.89,0.00318
2137.03,0.00330
2133.17,0.00327
2129.31,0.00306
2125.46,0.00301
2121.6,0.00289
2117.74,0.00305
2113.88,0.00318
2110.03,0.00299
2106.17,0.00307
2102.31,0.00333
2098.45,0.00322
2094.6,0.00346
2090.74,0.00379
2086.88,0.00344
2083.02,0.00347
2079.17,0.00344
2075.31,0.00334
2071.45,0.00365
2067.59,0.00421
2063.74,0.00433
2059.88,0.00364
2056.02,0.00361
2052.16,0.00356
2048.31,0.00355
2044.45,0.00446
2040.59,0.00450
2036.73,0.00378
2032.88,0.00380
2029.02,0.00392
2025.16,0.00454
2021.31,0.00438
2017.45,0.00529
2013.59,0.00453
2009.73,0.00474
2005.88,0.00464
2002.02,0.00445
1998.16,0.00439
1994.3,0.00503
1990.45,0.00582
1986.59,0.00483
1982.73,0.00474
1978.87,0.00474
1975.02,0.00455
1971.16,0.00505
1967.3,0.00605
1963.44,0.00499
1959.59,0.00492
1955.73,0.00536
1951.87,0.00513
1948.01,0.00536
1944.16,0.00635
1940.3,0.00549
1936.44,0.00486
1932.58,0.00479
1928.73,0.00428
1924.87,0.00568
1921.01,0.00655
1917.15,0.00564
1913.3,0.00468
1909.44,0.00577
1905.58,0.00463
1901.72,0.00439
1897.87,0.00477
1894.01,0.00520
1890.15,0.00548
1886.29,0.00496
1882.44,0.00441
1878.58,0.00422
1874.72,0.00441
1870.86,0.00687
1867.01,0.00755
1863.15,0.00501
1859.29,0.00494
1855.43,0.00438
1851.58,0.00465
1847.72,0.00708
1843.86,0.00851
1840,0.00575
1836.15,0.00565
1832.29,0.00627
1828.43,0.00754
1824.57,0.00691
1820.72,0.00541
1816.86,0.00528
1813,0.00618
1809.15,0.00665
1805.29,0.00602
1801.43,0.00809
1797.57,0.00815
1793.72,0.00950
1789.86,0.00751
1786,0.00610
1782.14,0.00704
1778.29,0.00699
1774.43,0.00835
1770.57,0.00952
1766.71,0.00696
1762.86,0.00728
1759,0.00831
1755.14,0.00836
1751.28,0.01251
1747.43,0.01720
1743.57,0.01863
1739.71,0.02358
1735.85,0.02989
1732,0.04024
1728.14,0.04229
1724.28,0.04790
1720.42,0.05509
1716.57,0.06976
1712.71,0.06765
1708.85,0.06453
1704.99,0.06135
1701.14,0.05605
1697.28,0.04799
1693.42,0.03646
1689.56,0.03441
1685.71,0.03424
1681.85,0.03167
1677.99,0.02706
1674.13,0.02557
1670.28,0.02508
1666.42,0.01987
1662.56,0.01902
1658.7,0.01727
1654.85,0.01955
1650.99,0.01971
1647.13,0.02014
1643.27,0.01549
1639.42,0.01554
1635.56,0.01653
1631.7,0.01279
1627.84,0.01327
1623.99,0.01451
1620.13,0.01377
1616.27,0.01443
1612.42,0.01287
1608.56,0.01319
1604.7,0.01209
1600.84,0.01083
1596.99,0.01018
1593.13,0.01028
1589.27,0.00988
1585.41,0.00982
1581.56,0.01120
1577.7,0.01438
1573.84,0.01332
1569.98,0.01289
1566.13,0.01227
1562.27,0.01314
1558.41,0.01826
1554.55,0.01598
1550.7,0.01395
1546.84,0.01438
1542.98,0.02300
1539.12,0.01746
1535.27,0.01582
1531.41,0.01463
1527.55,0.01663
1523.69,0.02046
1519.84,0.01923
1515.98,0.01739
1512.12,0.01716
1508.26,0.02401
1504.41,0.01863
1500.55,0.01652
1496.69,0.01443
1492.83,0.01201
1488.98,0.01592
1485.12,0.01154
1481.26,0.01124
1477.4,0.01329
1473.55,0.01933
1469.69,0.01521
1465.83,0.01459
1461.97,0.01461
1458.12,0.02031
1454.26,0.01842
1450.4,0.01592
1446.54,0.01510
1442.69,0.01349
1438.83,0.01487
1434.97,0.01557
1431.11,0.01335
1427.26,0.01137
1423.4,0.01186
1419.54,0.01521
1415.69,0.01822
1411.83,0.02338
1407.97,0.02604
1404.11,0.02248
1400.26,0.01982
1396.4,0.01974
1392.54,0.01566
1388.68,0.01567
1384.83,0.01448
1380.97,0.01385
1377.11,0.01552
1373.25,0.01694
1369.4,0.01537
1365.54,0.01426
1361.68,0.01392
1357.82,0.01095
1353.97,0.01087
1350.11,0.01218
1346.25,0.01625
1342.39,0.02307
1338.54,0.02708
1334.68,0.01855
1330.82,0.01319
1326.96,0.01132
1323.11,0.01205
1319.25,0.01478
1315.39,0.01617
1311.53,0.01711
1307.68,0.01805
1303.82,0.01947
1299.96,0.02159
1296.1,0.02476
1292.25,0.02811
1288.39,0.03194
1284.53,0.03460
1280.67,0.03786
1276.82,0.04124
1272.96,0.04546
1269.1,0.04990
1265.24,0.05356
1261.39,0.05673
1257.53,0.05817
1253.67,0.05954
1249.81,0.06202
1245.96,0.06503
1242.1,0.06726
1238.24,0.06750
1234.38,0.06563
1230.53,0.06265
1226.67,0.06001
1222.81,0.05726
1218.95,0.05344
1215.1,0.04857
1211.24,0.04379
1207.38,0.03960
1203.53,0.03595
1199.67,0.03268
1195.81,0.02968
1191.95,0.02716
1188.1,0.02521
1184.24,0.02385
1180.38,0.02342
1176.52,0.02356
1172.67,0.02311
1168.81,0.02181
1164.95,0.02046
1161.09,0.01948
1157.24,0.01935
1153.38,0.01983
1149.52,0.02129
1145.66,0.02354
1141.81,0.02680
1137.95,0.03120
1134.09,0.03658
1130.23,0.04195
1126.38,0.04686
1122.52,0.05078
1118.66,0.05273
1114.8,0.05316
1110.95,0.05374
1107.09,0.05645
1103.23,0.06087
1099.37,0.06519
1095.52,0.06799
1091.66,0.06848
1087.8,0.06694
1083.94,0.06437
1080.09,0.06110
1076.23,0.05766
1072.37,0.05336
1068.51,0.04862
1064.66,0.04448
1060.8,0.04134
1056.94,0.03937
1053.08,0.03857
1049.23,0.03884
1045.37,0.03931
1041.51,0.03902
1037.65,0.03786
1033.8,0.03642
1029.94,0.03500
1026.08,0.03726
1022.22,0.04483
1018.37,0.05252
1014.51,0.05245
1010.65,0.04513
1006.8,0.03991
1002.94,0.03718
999.08,0.03518
995.223,0.03370
991.365,0.03322
987.508,0.03258
983.65,0.03229
979.793,0.03263
975.935,0.03367
972.078,0.03534
968.221,0.03563
964.363,0.03422
960.506,0.03239
956.648,0.03098
952.791,0.03023
948.933,0.02941
945.076,0.02928
941.218,0.02913
937.361,0.02900
933.503,0.02889
929.646,0.02858
925.789,0.02806
921.931,0.02730
918.074,0.02676
914.216,0.02660
910.359,0.02629
906.501,0.02669
902.644,0.02738
898.786,0.02811
894.929,0.02826
891.072,0.02791
887.214,0.02808
883.357,0.02920
879.499,0.03146
875.642,0.03760
871.784,0.04374
867.927,0.03967
864.069,0.03517
860.212,0.03372
856.354,0.03374
852.497,0.03430
848.64,0.03564
844.782,0.03578
840.925,0.03466
837.067,0.03326
833.21,0.03204
829.352,0.03111
825.495,0.03037
821.637,0.02991
817.78,0.02952
813.922,0.02887
810.065,0.02892
806.208,0.02865
802.35,0.02816
798.493,0.02846
794.635,0.03006
790.778,0.03047
786.92,0.02844
783.063,0.02632
779.205,0.02536
775.348,0.02534
771.49,0.02479
767.633,0.02203
763.776,0.02067
759.918,0.02035
756.061,0.01881
752.203,0.01797
748.346,0.01655
744.488,0.01694
740.631,0.02166
736.773,0.03157
732.916,0.04723
729.058,0.06488
725.201,0.08251
721.344,0.08738
717.486,0.07949
713.629,0.07040
709.771,0.06351
705.914,0.05883
702.056,0.05479
698.199,0.05070
694.341,0.04708
690.484,0.04449
686.627,0.04233
682.769,0.04090
678.912,0.04029
675.054,0.03936
671.197,0.03896
667.339,0.03691
663.482,0.03667
659.624,0.03695
655.767,0.03614
651.909,0.03569
648.052,0.03503
644.195,0.03518
640.337,0.03539
636.48,0.03551
632.622,0.03592
628.765,0.03407
624.907,0.03441
621.05,0.03605
617.192,0.03824
613.335,0.03725
609.477,0.03659
605.62,0.03673
601.763,0.03710
599.834,0.03604