File: 01_Data/Overstuffed_Chair_Polyester_Batting/FTIR/ATR/Overstuffed_Chair_Polyester_Batting_ATR_210608_R2.tst
4497.79,-0.00534
4493.93,-0.00547
4490.07,-0.00534
4486.22,-0.00515
4482.36,-0.00514
4478.5,-0.00497
4474.64,-0.00503
4470.79,-0.00492
4466.93,-0.00504
4463.07,-0.00490
4459.21,-0.00508
4455.36,-0.00479
4451.5,-0.00463
4447.64,-0.00498
4443.79,-0.00476
4439.93,-0.00466
4436.07,-0.00473
4432.21,-0.00503
4428.36,-0.00500
4424.5,-0.00457
4420.64,-0.00482
4416.78,-0.00475
4412.93,-0.00445
4409.07,-0.00440
4405.21,-0.00453
4401.35,-0.00465
4397.5,-0.00478
4393.64,-0.00465
4389.78,-0.00438
4385.92,-0.00458
4382.07,-0.00454
4378.21,-0.00447
4374.35,-0.00458
4370.49,-0.00463
4366.64,-0.00456
4362.78,-0.00450
4358.92,-0.00458
4355.06,-0.00479
4351.21,-0.00456
4347.35,-0.00433
4343.49,-0.00429
4339.63,-0.00426
4335.78,-0.00421
4331.92,-0.00416
4328.06,-0.00415
4324.2,-0.00426
4320.35,-0.00399
4316.49,-0.00400
4312.63,-0.00422
4308.77,-0.00429
4304.92,-0.00422
4301.06,-0.00429
4297.2,-0.00435
4293.34,-0.00422
4289.49,-0.00399
4285.63,-0.00422
4281.77,-0.00404
4277.91,-0.00410
4274.06,-0.00413
4270.2,-0.00380
4266.34,-0.00389
4262.48,-0.00396
4258.63,-0.00395
4254.77,-0.00391
4250.91,-0.00398
4247.06,-0.00412
4243.2,-0.00405
4239.34,-0.00390
4235.48,-0.00400
4231.63,-0.00402
4227.77,-0.00396
4223.91,-0.00380
4220.05,-0.00389
4216.2,-0.00386
4212.34,-0.00365
4208.48,-0.00366
4204.62,-0.00357
4200.77,-0.00365
4196.91,-0.00385
4193.05,-0.00357
4189.19,-0.00369
4185.34,-0.00377
4181.48,-0.00373
4177.62,-0.00369
4173.76,-0.00343
4169.91,-0.00345
4166.05,-0.00358
4162.19,-0.00362
4158.33,-0.00354
4154.48,-0.00354
4150.62,-0.00359
4146.76,-0.00358
4142.9,-0.00346
4139.05,-0.00328
4135.19,-0.00320
4131.33,-0.00346
4127.47,-0.00358
4123.62,-0.00357
4119.76,-0.00340
4115.9,-0.00335
4112.04,-0.00337
4108.19,-0.00320
4104.33,-0.00289
4100.47,-0.00327
4096.61,-0.00347
4092.76,-0.00325
4088.9,-0.00286
4085.04,-0.00280
4081.18,-0.00283
4077.33,-0.00310
4073.47,-0.00313
4069.61,-0.00309
4065.75,-0.00309
4061.9,-0.00297
4058.04,-0.00297
4054.18,-0.00314
4050.33,-0.00320
4046.47,-0.00273
4042.61,-0.00267
4038.75,-0.00305
4034.9,-0.00300
4031.04,-0.00301
4027.18,-0.00282
4023.32,-0.00258
4019.47,-0.00244
4015.61,-0.00277
4011.75,-0.00281
4007.89,-0.00251
4004.04,-0.00273
4000.18,-0.00274
3996.32,-0.00229
3992.46,-0.00186
3988.61,-0.00237
3984.75,-0.00244
3980.89,-0.00223
3977.03,-0.00173
3973.18,-0.00143
3969.32,-0.00193
3965.46,-0.00211
3961.6,-0.00108
3957.75,-0.00123
3953.89,-0.00137
3950.03,0.00005
3946.17,-0.00033
3942.32,-0.00035
3938.46,-0.00160
3934.6,-0.00034
3930.74,0.00085
3926.89,0.00011
3923.03,0.00070
3919.17,0.00087
3915.31,-0.00047
3911.46,-0.00196
3907.6,-0.00018
3903.74,0.00508
3899.88,0.00342
3896.03,0.00064
3892.17,0.00206
3888.31,0.00085
3884.45,0.00267
3880.6,0.00137
3876.74,0.00006
3872.88,0.00298
3869.02,0.00353
3865.17,0.00451
3861.31,0.00193
3857.45,0.00229
3853.59,0.00627
3849.74,0.00166
3845.88,0.00088
3842.02,0.00441
3838.17,0.00606
3834.31,0.00234
3830.45,0.00097
3826.59,0.00208
3822.74,0.00357
3818.88,0.00404
3815.02,0.00084
3811.16,-0.00072
3807.31,0.00122
3803.45,0.00316
3799.59,0.00357
3795.73,0.00051
3791.88,-0.00136
3788.02,-0.00056
3784.16,0.00030
3780.3,0.00022
3776.45,-0.00094
3772.59,-0.00022
3768.73,0.00189
3764.87,0.00124
3761.02,0.00169
3757.16,0.00357
3753.3,0.00621
3749.44,0.00945
3745.59,0.00724
3741.73,0.00539
3737.87,0.00728
3734.01,0.00669
3730.16,0.00287
3726.3,0.00434
3722.44,0.00332
3718.58,0.00088
3714.73,0.00227
3710.87,0.00475
3707.01,0.00089
3703.15,0.00072
3699.3,0.00027
3695.44,0.00057
3691.58,0.00381
3687.72,0.00286
3683.87,0.00013
3680.01,0.00194
3676.15,0.00536
3672.29,0.00512
3668.44,0.00278
3664.58,-0.00040
3660.72,-0.00013
3656.86,0.00158
3653.01,0.00289
3649.15,0.00838
3645.29,0.00290
3641.44,0.00098
3637.58,0.00044
3633.72,0.00194
3629.86,0.00492
3626.01,0.00230
3622.15,0.00222
3618.29,0.00536
3614.43,0.00514
3610.58,0.00424
3606.72,0.00215
3602.86,0.00160
3599,0.00317
3595.15,0.00234
3591.29,0.00167
3587.43,0.00454
3583.57,0.00127
3579.72,0.00058
3575.86,0.00048
3572,0.00088
3568.14,0.00536
3564.29,0.00405
3560.43,0.00116
3556.57,0.00016
3552.71,0.00122
3548.86,0.00175
3545,0.00299
3541.14,-0.00022
3537.28,-0.00003
3533.43,-0.00012
3529.57,0.00174
3525.71,0.00294
3521.85,0.00096
3518,-0.00082
3514.14,-0.00107
3510.28,0.00028
3506.42,0.00020
3502.57,0.00147
3498.71,-0.00042
3494.85,-0.00085
3490.99,-0.00109
3487.14,-0.00059
3483.28,-0.00018
3479.42,-0.00070
3475.56,-0.00124
3471.71,-0.00150
3467.85,-0.00133
3463.99,-0.00088
3460.13,-0.00085
3456.28,-0.00129
3452.42,-0.00146
3448.56,-0.00016
3444.7,-0.00011
3440.85,-0.00090
3436.99,-0.00122
3433.13,-0.00107
3429.28,-0.00098
3425.42,-0.00096
3421.56,-0.00022
3417.7,-0.00112
3413.85,-0.00140
3409.99,-0.00147
3406.13,-0.00175
3402.27,-0.00157
3398.42,-0.00119
3394.56,-0.00096
3390.7,-0.00138
3386.84,-0.00142
3382.99,-0.00129
3379.13,-0.00159
3375.27,-0.00163
3371.41,-0.00158
3367.56,-0.00111
3363.7,-0.00114
3359.84,-0.00118
3355.98,-0.00121
3352.13,-0.00164
3348.27,-0.00168
3344.41,-0.00134
3340.55,-0.00115
3336.7,-0.00089
3332.84,-0.00124
3328.98,-0.00119
3325.12,-0.00107
3321.27,-0.00131
3317.41,-0.00136
3313.55,-0.00102
3309.69,-0.00076
3305.84,-0.00106
3301.98,-0.00118
3298.12,-0.00098
3294.26,-0.00102
3290.41,-0.00086
3286.55,-0.00090
3282.69,-0.00084
3278.83,-0.00084
3274.98,-0.00068
3271.12,-0.00083
3267.26,-0.00082
3263.4,-0.00083
3259.55,-0.00075
3255.69,-0.00055
3251.83,-0.00085
3247.97,-0.00062
3244.12,-0.00032
3240.26,-0.00048
3236.4,-0.00049
3232.55,-0.00033
3228.69,-0.00038
3224.83,-0.00070
3220.97,-0.00043
3217.12,-0.00041
3213.26,-0.00035
3209.4,-0.00043
3205.54,-0.00045
3201.69,-0.00021
3197.83,-0.00008
3193.97,-0.00029
3190.11,-0.00039
3186.26,-0.00017
3182.4,-0.00005
3178.54,0.00008
3174.68,-0.00012
3170.83,-0.00011
3166.97,-0.00015
3163.11,-0.00019
3159.25,-0.00016
3155.4,-0.00006
3151.54,0.00006
3147.68,0.00013
3143.82,0.00005
3139.97,0.00010
3136.11,0.00033
3132.25,0.00046
3128.39,0.00052
3124.54,0.00064
3120.68,0.00085
3116.82,0.00094
3112.96,0.00080
3109.11,0.00085
3105.25,0.00083
3101.39,0.00123
3097.53,0.00108
3093.68,0.00088
3089.82,0.00077
3085.96,0.00096
3082.1,0.00134
3078.25,0.00133
3074.39,0.00114
3070.53,0.00125
3066.67,0.00149
3062.82,0.00139
3058.96,0.00148
3055.1,0.00163
3051.24,0.00144
3047.39,0.00130
3043.53,0.00107
3039.67,0.00101
3035.82,0.00131
3031.96,0.00170
3028.1,0.00128
3024.24,0.00132
3020.39,0.00135
3016.53,0.00151
3012.67,0.00215
3008.81,0.00201
3004.96,0.00207
3001.1,0.00206
2997.24,0.00209
2993.38,0.00226
2989.53,0.00239
2985.67,0.00266
2981.81,0.00294
2977.95,0.00334
2974.1,0.00375
2970.24,0.00408
2966.38,0.00428
2962.52,0.00416
2958.67,0.00397
2954.81,0.00392
2950.95,0.00363
2947.09,0.00334
2943.24,0.00301
2939.38,0.00286
2935.52,0.00287
2931.66,0.00300
2927.81,0.00307
2923.95,0.00316
2920.09,0.00325
2916.23,0.00325
2912.38,0.00341
2908.52,0.00355
2904.66,0.00348
2900.8,0.00333
2896.95,0.00310
2893.09,0.00298
2889.23,0.00295
2885.37,0.00292
2881.52,0.00281
2877.66,0.00282
2873.8,0.00287
2869.94,0.00291
2866.09,0.00288
2862.23,0.00291
2858.37,0.00305
2854.51,0.00318
2850.66,0.00312
2846.8,0.00294
2842.94,0.00274
2839.08,0.00260
2835.23,0.00248
2831.37,0.00246
2827.51,0.00240
2823.66,0.00228
2819.8,0.00230
2815.94,0.00238
2812.08,0.00240
2808.23,0.00238
2804.37,0.00240
2800.51,0.00243
2796.65,0.00236
2792.8,0.00239
2788.94,0.00237
2785.08,0.00243
2781.22,0.00249
2777.37,0.00245
2773.51,0.00249
2769.65,0.00254
2765.79,0.00248
2761.94,0.00248
2758.08,0.00250
2754.22,0.00249
2750.36,0.00249
2746.51,0.00260
2742.65,0.00258
2738.79,0.00256
2734.93,0.00246
2731.08,0.00252
2727.22,0.00254
2723.36,0.00251
2719.5,0.00255
2715.65,0.00255
2711.79,0.00253
2707.93,0.00258
2704.07,0.00260
2700.22,0.00265
2696.36,0.00273
2692.5,0.00268
2688.64,0.00266
2684.79,0.00268
2680.93,0.00267
2677.07,0.00269
2673.21,0.00271
2669.36,0.00270
2665.5,0.00272
2661.64,0.00280
2657.78,0.00280
2653.93,0.00277
2650.07,0.00274
2646.21,0.00257
2642.35,0.00262
2638.5,0.00268
2634.64,0.00267
2630.78,0.00262
2626.93,0.00265
2623.07,0.00263
2619.21,0.00260
2615.35,0.00261
2611.5,0.00252
2607.64,0.00248
2603.78,0.00248
2599.92,0.00247
2596.07,0.00256
2592.21,0.00268
2588.35,0.00265
2584.49,0.00269
2580.64,0.00270
2576.78,0.00261
2572.92,0.00262
2569.06,0.00269
2565.21,0.00262
2561.35,0.00246
2557.49,0.00252
2553.63,0.00268
2549.78,0.00259
2545.92,0.00257
2542.06,0.00265
2538.2,0.00285
2534.35,0.00282
2530.49,0.00270
2526.63,0.00265
2522.77,0.00270
2518.92,0.00274
2515.06,0.00268
2511.2,0.00265
2507.34,0.00271
2503.49,0.00280
2499.63,0.00269
2495.77,0.00275
2491.91,0.00276
2488.06,0.00284
2484.2,0.00278
2480.34,0.00268
2476.48,0.00269
2472.63,0.00284
2468.77,0.00296
2464.91,0.00290
2461.05,0.00292
2457.2,0.00276
2453.34,0.00272
2449.48,0.00270
2445.62,0.00272
2441.77,0.00275
2437.91,0.00282
2434.05,0.00298
2430.2,0.00311
2426.34,0.00301
2422.48,0.00308
2418.62,0.00314
2414.77,0.00305
2410.91,0.00308
2407.05,0.00318
2403.19,0.00325
2399.34,0.00341
2395.48,0.00340
2391.62,0.00341
2387.76,0.00357
2383.91,0.00399
2380.05,0.00399
2376.19,0.00312
2372.33,0.00160
2368.48,-0.00099
2364.62,-0.00276
2360.76,-0.00300
2356.9,-0.00259
2353.05,-0.00003
2349.19,0.00198
2345.33,0.00019
2341.47,-0.00169
2337.62,-0.00188
2333.76,-0.00103
2329.9,0.00040
2326.04,0.00125
2322.19,0.00265
2318.33,0.00334
2314.47,0.00373
2310.61,0.00438
2306.76,0.00433
2302.9,0.00403
2299.04,0.00387
2295.18,0.00390
2291.33,0.00376
2287.47,0.00366
2283.61,0.00347
2279.75,0.00328
2275.9,0.00332
2272.04,0.00306
2268.18,0.00307
2264.32,0.00315
2260.47,0.00327
2256.61,0.00303
2252.75,0.00320
2248.89,0.00312
2245.04,0.00326
2241.18,0.00306
2237.32,0.00291
2233.46,0.00312
2229.61,0.00307
2225.75,0.00286
2221.89,0.00269
2218.04,0.00303
2214.18,0.00267
2210.32,0.00223
2206.46,0.00240
2202.61,0.00236
2198.75,0.00210
2194.89,0.00214
2191.03,0.00201
2187.18,0.00207
2183.32,0.00152
2179.46,0.00141
2175.6,0.00190
2171.75,0.00191
2167.89,0.00153
2164.03,0.00102
2160.17,0.00114
2156.32,0.00177
2152.46,0.00241
2148.6,0.00292
2144.74,0.00275
2140.89,0.00254
2137.03,0.00288
2133.17,0.00291
2129.31,0.00296
2125.46,0.00309
2121.6,0.00292
2117.74,0.00282
2113.88,0.00293
2110.03,0.00269
2106.17,0.00277
2102.31,0.00304
2098.45,0.00335
2094.6,0.00345
2090.74,0.00352
2086.88,0.00340
2083.02,0.00340
2079.17,0.00328
2075.31,0.00318
2071.45,0.00330
2067.59,0.00393
2063.74,0.00421
2059.88,0.00341
2056.02,0.00331
2052.16,0.00331
2048.31,0.00311
2044.45,0.00382
2040.59,0.00413
2036.73,0.00326
2032.88,0.00289
2029.02,0.00284
2025.16,0.00316
2021.31,0.00326
2017.45,0.00447
2013.59,0.00370
2009.73,0.00347
2005.88,0.00390
2002.02,0.00368
1998.16,0.00368
1994.3,0.00419
1990.45,0.00495
1986.59,0.00433
1982.73,0.00414
1978.87,0.00401
1975.02,0.00379
1971.16,0.00419
1967.3,0.00551
1963.44,0.00471
1959.59,0.00478
1955.73,0.00523
1951.87,0.00479
1948.01,0.00493
1944.16,0.00611
1940.3,0.00538
1936.44,0.00443
1932.58,0.00464
1928.73,0.00435
1924.87,0.00539
1921.01,0.00619
1917.15,0.00543
1913.3,0.00473
1909.44,0.00571
1905.58,0.00479
1901.72,0.00439
1897.87,0.00479
1894.01,0.00520
1890.15,0.00547
1886.29,0.00484
1882.44,0.00435
1878.58,0.00416
1874.72,0.00446
1870.86,0.00686
1867.01,0.00736
1863.15,0.00508
1859.29,0.00507
1855.43,0.00449
1851.58,0.00482
1847.72,0.00710
1843.86,0.00818
1840,0.00588
1836.15,0.00579
1832.29,0.00640
1828.43,0.00750
1824.57,0.00695
1820.72,0.00548
1816.86,0.00543
1813,0.00627
1809.15,0.00677
1805.29,0.00615
1801.43,0.00791
1797.57,0.00811
1793.72,0.00938
1789.86,0.00749
1786,0.00613
1782.14,0.00693
1778.29,0.00694
1774.43,0.00821
1770.57,0.00909
1766.71,0.00670
1762.86,0.00710
1759,0.00811
1755.14,0.00802
1751.28,0.01181
1747.43,0.01623
1743.57,0.01767
1739.71,0.02240
1735.85,0.02856
1732,0.03871
1728.14,0.04090
1724.28,0.04657
1720.42,0.05380
1716.57,0.06799
1712.71,0.06638
1708.85,0.06364
1704.99,0.06072
1701.14,0.05606
1697.28,0.04845
1693.42,0.03735
1689.56,0.03519
1685.71,0.03493
1681.85,0.03233
1677.99,0.02788
1674.13,0.02628
1670.28,0.02559
1666.42,0.02067
1662.56,0.01970
1658.7,0.01785
1654.85,0.02004
1650.99,0.02005
1647.13,0.02031
1643.27,0.01590
1639.42,0.01604
1635.56,0.01696
1631.7,0.01335
1627.84,0.01381
1623.99,0.01496
1620.13,0.01420
1616.27,0.01464
1612.42,0.01297
1608.56,0.01308
1604.7,0.01207
1600.84,0.01104
1596.99,0.01051
1593.13,0.01063
1589.27,0.01019
1585.41,0.01011
1581.56,0.01153
1577.7,0.01458
1573.84,0.01361
1569.98,0.01326
1566.13,0.01258
1562.27,0.01339
1558.41,0.01804
1554.55,0.01607
1550.7,0.01414
1546.84,0.01450
1542.98,0.02245
1539.12,0.01728
1535.27,0.01594
1531.41,0.01472
1527.55,0.01648
1523.69,0.02020
1519.84,0.01899
1515.98,0.01725
1512.12,0.01721
1508.26,0.02441
1504.41,0.01934
1500.55,0.01707
1496.69,0.01483
1492.83,0.01231
1488.98,0.01603
1485.12,0.01182
1481.26,0.01159
1477.4,0.01373
1473.55,0.01962
1469.69,0.01572
1465.83,0.01488
1461.97,0.01464
1458.12,0.02002
1454.26,0.01796
1450.4,0.01549
1446.54,0.01470
1442.69,0.01303
1438.83,0.01413
1434.97,0.01492
1431.11,0.01297
1427.26,0.01123
1423.4,0.01179
1419.54,0.01516
1415.69,0.01834
1411.83,0.02385
1407.97,0.02686
1404.11,0.02317
1400.26,0.02018
1396.4,0.01993
1392.54,0.01591
1388.68,0.01605
1384.83,0.01494
1380.97,0.01415
1377.11,0.01543
1373.25,0.01642
1369.4,0.01498
1365.54,0.01404
1361.68,0.01385
1357.82,0.01112
1353.97,0.01099
1350.11,0.01254
1346.25,0.01705
1342.39,0.02469
1338.54,0.02938
1334.68,0.02055
1330.82,0.01419
1326.96,0.01156
1323.11,0.01178
1319.25,0.01393
1315.39,0.01478
1311.53,0.01537
1307.68,0.01609
1303.82,0.01738
1299.96,0.01964
1296.1,0.02290
1292.25,0.02634
1288.39,0.03015
1284.53,0.03290
1280.67,0.03619
1276.82,0.03965
1272.96,0.04385
1269.1,0.04836
1265.24,0.05225
1261.39,0.05574
1257.53,0.05779
1253.67,0.05960
1249.81,0.06241
1245.96,0.06571
1242.1,0.06812
1238.24,0.06844
1234.38,0.06612
1230.53,0.06228
1226.67,0.05870
1222.81,0.05534
1218.95,0.05155
1215.1,0.04731
1211.24,0.04349
1207.38,0.04007
1203.53,0.03702
1199.67,0.03407
1195.81,0.03118
1191.95,0.02861
1188.1,0.02661
1184.24,0.02515
1180.38,0.02437
1176.52,0.02433
1172.67,0.02364
1168.81,0.02182
1164.95,0.02018
1161.09,0.01921
1157.24,0.01900
1153.38,0.01928
1149.52,0.02025
1145.66,0.02216
1141.81,0.02528
1137.95,0.02983
1134.09,0.03577
1130.23,0.04179
1126.38,0.04707
1122.52,0.05115
1118.66,0.05325
1114.8,0.05370
1110.95,0.05456
1107.09,0.05709
1103.23,0.06099
1099.37,0.06513
1095.52,0.06778
1091.66,0.06808
1087.8,0.06689
1083.94,0.06480
1080.09,0.06166
1076.23,0.05767
1072.37,0.05353
1068.51,0.04948
1064.66,0.04598
1060.8,0.04314
1056.94,0.04125
1053.08,0.04024
1049.23,0.04009
1045.37,0.04017
1041.51,0.03961
1037.65,0.03823
1033.8,0.03640
1029.94,0.03448
1026.08,0.03701
1022.22,0.04588
1018.37,0.05388
1014.51,0.05426
1010.65,0.04750
1006.8,0.04243
1002.94,0.03941
999.08,0.03744
995.223,0.03613
991.365,0.03563
987.508,0.03502
983.65,0.03465
979.793,0.03487
975.935,0.03596
972.078,0.03809
968.221,0.03839
964.363,0.03726
960.506,0.03588
956.648,0.03434
952.791,0.03305
948.933,0.03198
945.076,0.03176
941.218,0.03133
937.361,0.03105
933.503,0.03052
929.646,0.03010
925.789,0.02960
921.931,0.02892
918.074,0.02805
914.216,0.02773
910.359,0.02762
906.501,0.02810
902.644,0.02889
898.786,0.02930
894.929,0.02934
891.072,0.02907
887.214,0.02853
883.357,0.02972
879.499,0.03232
875.642,0.03814
871.784,0.04528
867.927,0.04179
864.069,0.03666
860.212,0.03531
856.354,0.03553
852.497,0.03639
848.64,0.03808
844.782,0.03859
840.925,0.03748
837.067,0.03535
833.21,0.03341
829.352,0.03240
825.495,0.03155
821.637,0.03139
817.78,0.03076
813.922,0.02978
810.065,0.03006
806.208,0.02995
802.35,0.02953
798.493,0.02956
794.635,0.03100
790.778,0.03145
786.92,0.02936
783.063,0.02752
779.205,0.02669
775.348,0.02663
771.49,0.02552
767.633,0.02350
763.776,0.02247
759.918,0.02142
756.061,0.01972
752.203,0.01876
748.346,0.01758
744.488,0.01778
740.631,0.02096
736.773,0.03030
732.916,0.04576
729.058,0.06404
725.201,0.08160
721.344,0.08738
717.486,0.08009
713.629,0.07114
709.771,0.06418
705.914,0.05962
702.056,0.05578
698.199,0.05230
694.341,0.04862
690.484,0.04591
686.627,0.04362
682.769,0.04194
678.912,0.04087
675.054,0.04019
671.197,0.03984
667.339,0.03859
663.482,0.03783
659.624,0.03795
655.767,0.03720
651.909,0.03677
648.052,0.03612
644.195,0.03607
640.337,0.03612
636.48,0.03614
632.622,0.03646
628.765,0.03523
624.907,0.03286
621.05,0.02900
617.192,0.03289
613.335,0.03527
609.477,0.03178
605.62,0.03324
601.763,0.03329
599.834,0.03405