File: 01_Data/Overstuffed_Chair_Polyester_Batting/FTIR/ATR/Overstuffed_Chair_Polyester_Batting_ATR_210608_R3.tst
4497.79,-0.00641
4493.93,-0.00640
4490.07,-0.00636
4486.22,-0.00608
4482.36,-0.00637
4478.5,-0.00621
4474.64,-0.00608
4470.79,-0.00606
4466.93,-0.00620
4463.07,-0.00626
4459.21,-0.00617
4455.36,-0.00606
4451.5,-0.00605
4447.64,-0.00624
4443.79,-0.00581
4439.93,-0.00559
4436.07,-0.00606
4432.21,-0.00610
4428.36,-0.00595
4424.5,-0.00604
4420.64,-0.00593
4416.78,-0.00581
4412.93,-0.00562
4409.07,-0.00560
4405.21,-0.00549
4401.35,-0.00547
4397.5,-0.00547
4393.64,-0.00558
4389.78,-0.00546
4385.92,-0.00574
4382.07,-0.00558
4378.21,-0.00538
4374.35,-0.00561
4370.49,-0.00574
4366.64,-0.00562
4362.78,-0.00542
4358.92,-0.00538
4355.06,-0.00565
4351.21,-0.00570
4347.35,-0.00556
4343.49,-0.00553
4339.63,-0.00549
4335.78,-0.00546
4331.92,-0.00548
4328.06,-0.00536
4324.2,-0.00516
4320.35,-0.00516
4316.49,-0.00506
4312.63,-0.00529
4308.77,-0.00520
4304.92,-0.00509
4301.06,-0.00523
4297.2,-0.00535
4293.34,-0.00526
4289.49,-0.00495
4285.63,-0.00507
4281.77,-0.00525
4277.91,-0.00517
4274.06,-0.00513
4270.2,-0.00509
4266.34,-0.00510
4262.48,-0.00501
4258.63,-0.00488
4254.77,-0.00493
4250.91,-0.00503
4247.06,-0.00519
4243.2,-0.00511
4239.34,-0.00501
4235.48,-0.00514
4231.63,-0.00498
4227.77,-0.00485
4223.91,-0.00480
4220.05,-0.00482
4216.2,-0.00499
4212.34,-0.00477
4208.48,-0.00483
4204.62,-0.00477
4200.77,-0.00479
4196.91,-0.00484
4193.05,-0.00472
4189.19,-0.00477
4185.34,-0.00481
4181.48,-0.00471
4177.62,-0.00471
4173.76,-0.00456
4169.91,-0.00463
4166.05,-0.00453
4162.19,-0.00457
4158.33,-0.00436
4154.48,-0.00442
4150.62,-0.00459
4146.76,-0.00455
4142.9,-0.00447
4139.05,-0.00436
4135.19,-0.00439
4131.33,-0.00456
4127.47,-0.00463
4123.62,-0.00440
4119.76,-0.00439
4115.9,-0.00428
4112.04,-0.00441
4108.19,-0.00406
4104.33,-0.00395
4100.47,-0.00413
4096.61,-0.00410
4092.76,-0.00413
4088.9,-0.00384
4085.04,-0.00371
4081.18,-0.00371
4077.33,-0.00391
4073.47,-0.00401
4069.61,-0.00421
4065.75,-0.00406
4061.9,-0.00379
4058.04,-0.00392
4054.18,-0.00385
4050.33,-0.00393
4046.47,-0.00371
4042.61,-0.00359
4038.75,-0.00392
4034.9,-0.00382
4031.04,-0.00378
4027.18,-0.00359
4023.32,-0.00357
4019.47,-0.00346
4015.61,-0.00342
4011.75,-0.00350
4007.89,-0.00324
4004.04,-0.00364
4000.18,-0.00374
3996.32,-0.00327
3992.46,-0.00296
3988.61,-0.00326
3984.75,-0.00331
3980.89,-0.00312
3977.03,-0.00263
3973.18,-0.00222
3969.32,-0.00282
3965.46,-0.00318
3961.6,-0.00216
3957.75,-0.00225
3953.89,-0.00239
3950.03,-0.00083
3946.17,-0.00115
3942.32,-0.00137
3938.46,-0.00257
3934.6,-0.00124
3930.74,0.00000
3926.89,-0.00094
3923.03,-0.00011
3919.17,-0.00001
3915.31,-0.00147
3911.46,-0.00288
3907.6,-0.00105
3903.74,0.00442
3899.88,0.00288
3896.03,-0.00017
3892.17,0.00099
3888.31,-0.00016
3884.45,0.00219
3880.6,0.00071
3876.74,-0.00072
3872.88,0.00239
3869.02,0.00286
3865.17,0.00332
3861.31,0.00130
3857.45,0.00166
3853.59,0.00531
3849.74,0.00122
3845.88,0.00009
3842.02,0.00360
3838.17,0.00575
3834.31,0.00175
3830.45,0.00030
3826.59,0.00133
3822.74,0.00292
3818.88,0.00366
3815.02,0.00029
3811.16,-0.00151
3807.31,0.00042
3803.45,0.00244
3799.59,0.00274
3795.73,-0.00055
3791.88,-0.00234
3788.02,-0.00132
3784.16,-0.00051
3780.3,-0.00061
3776.45,-0.00172
3772.59,-0.00105
3768.73,0.00102
3764.87,0.00037
3761.02,0.00099
3757.16,0.00281
3753.3,0.00527
3749.44,0.00889
3745.59,0.00702
3741.73,0.00465
3737.87,0.00672
3734.01,0.00621
3730.16,0.00195
3726.3,0.00384
3722.44,0.00282
3718.58,0.00044
3714.73,0.00138
3710.87,0.00378
3707.01,-0.00002
3703.15,-0.00015
3699.3,-0.00068
3695.44,-0.00023
3691.58,0.00329
3687.72,0.00233
3683.87,-0.00049
3680.01,0.00143
3676.15,0.00492
3672.29,0.00464
3668.44,0.00183
3664.58,-0.00119
3660.72,-0.00093
3656.86,0.00076
3653.01,0.00199
3649.15,0.00826
3645.29,0.00206
3641.44,0.00015
3637.58,-0.00034
3633.72,0.00121
3629.86,0.00439
3626.01,0.00161
3622.15,0.00166
3618.29,0.00503
3614.43,0.00424
3610.58,0.00339
3606.72,0.00141
3602.86,0.00085
3599,0.00228
3595.15,0.00177
3591.29,0.00105
3587.43,0.00406
3583.57,0.00062
3579.72,-0.00014
3575.86,-0.00048
3572,-0.00012
3568.14,0.00467
3564.29,0.00313
3560.43,0.00034
3556.57,-0.00069
3552.71,0.00038
3548.86,0.00091
3545,0.00237
3541.14,-0.00100
3537.28,-0.00093
3533.43,-0.00104
3529.57,0.00100
3525.71,0.00230
3521.85,0.00015
3518,-0.00159
3514.14,-0.00189
3510.28,-0.00057
3506.42,-0.00061
3502.57,0.00090
3498.71,-0.00118
3494.85,-0.00173
3490.99,-0.00185
3487.14,-0.00117
3483.28,-0.00085
3479.42,-0.00146
3475.56,-0.00195
3471.71,-0.00222
3467.85,-0.00214
3463.99,-0.00160
3460.13,-0.00152
3456.28,-0.00208
3452.42,-0.00227
3448.56,-0.00099
3444.7,-0.00092
3440.85,-0.00157
3436.99,-0.00201
3433.13,-0.00179
3429.28,-0.00170
3425.42,-0.00163
3421.56,-0.00093
3417.7,-0.00193
3413.85,-0.00232
3409.99,-0.00250
3406.13,-0.00250
3402.27,-0.00241
3398.42,-0.00213
3394.56,-0.00181
3390.7,-0.00219
3386.84,-0.00234
3382.99,-0.00218
3379.13,-0.00233
3375.27,-0.00251
3371.41,-0.00251
3367.56,-0.00202
3363.7,-0.00196
3359.84,-0.00206
3355.98,-0.00214
3352.13,-0.00245
3348.27,-0.00240
3344.41,-0.00224
3340.55,-0.00203
3336.7,-0.00174
3332.84,-0.00210
3328.98,-0.00199
3325.12,-0.00197
3321.27,-0.00225
3317.41,-0.00221
3313.55,-0.00186
3309.69,-0.00160
3305.84,-0.00198
3301.98,-0.00199
3298.12,-0.00192
3294.26,-0.00192
3290.41,-0.00175
3286.55,-0.00185
3282.69,-0.00164
3278.83,-0.00163
3274.98,-0.00138
3271.12,-0.00153
3267.26,-0.00161
3263.4,-0.00166
3259.55,-0.00163
3255.69,-0.00144
3251.83,-0.00174
3247.97,-0.00149
3244.12,-0.00124
3240.26,-0.00136
3236.4,-0.00141
3232.55,-0.00139
3228.69,-0.00134
3224.83,-0.00163
3220.97,-0.00121
3217.12,-0.00130
3213.26,-0.00128
3209.4,-0.00127
3205.54,-0.00127
3201.69,-0.00113
3197.83,-0.00090
3193.97,-0.00110
3190.11,-0.00108
3186.26,-0.00090
3182.4,-0.00087
3178.54,-0.00072
3174.68,-0.00092
3170.83,-0.00097
3166.97,-0.00104
3163.11,-0.00107
3159.25,-0.00097
3155.4,-0.00083
3151.54,-0.00086
3147.68,-0.00080
3143.82,-0.00072
3139.97,-0.00066
3136.11,-0.00061
3132.25,-0.00060
3128.39,-0.00046
3124.54,-0.00016
3120.68,-0.00004
3116.82,-0.00004
3112.96,-0.00009
3109.11,0.00001
3105.25,0.00007
3101.39,0.00033
3097.53,0.00020
3093.68,0.00001
3089.82,-0.00008
3085.96,0.00010
3082.1,0.00059
3078.25,0.00051
3074.39,0.00025
3070.53,0.00034
3066.67,0.00068
3062.82,0.00059
3058.96,0.00063
3055.1,0.00077
3051.24,0.00056
3047.39,0.00049
3043.53,0.00020
3039.67,0.00022
3035.82,0.00052
3031.96,0.00091
3028.1,0.00056
3024.24,0.00052
3020.39,0.00053
3016.53,0.00074
3012.67,0.00127
3008.81,0.00123
3004.96,0.00129
3001.1,0.00121
2997.24,0.00139
2993.38,0.00154
2989.53,0.00161
2985.67,0.00181
2981.81,0.00217
2977.95,0.00260
2974.1,0.00302
2970.24,0.00339
2966.38,0.00353
2962.52,0.00349
2958.67,0.00337
2954.81,0.00320
2950.95,0.00287
2947.09,0.00257
2943.24,0.00227
2939.38,0.00211
2935.52,0.00217
2931.66,0.00234
2927.81,0.00246
2923.95,0.00265
2920.09,0.00274
2916.23,0.00272
2912.38,0.00275
2908.52,0.00277
2904.66,0.00266
2900.8,0.00255
2896.95,0.00231
2893.09,0.00225
2889.23,0.00220
2885.37,0.00211
2881.52,0.00208
2877.66,0.00209
2873.8,0.00204
2869.94,0.00210
2866.09,0.00206
2862.23,0.00216
2858.37,0.00231
2854.51,0.00243
2850.66,0.00238
2846.8,0.00213
2842.94,0.00187
2839.08,0.00173
2835.23,0.00163
2831.37,0.00164
2827.51,0.00163
2823.66,0.00147
2819.8,0.00138
2815.94,0.00149
2812.08,0.00160
2808.23,0.00151
2804.37,0.00150
2800.51,0.00155
2796.65,0.00154
2792.8,0.00156
2788.94,0.00149
2785.08,0.00152
2781.22,0.00161
2777.37,0.00159
2773.51,0.00152
2769.65,0.00158
2765.79,0.00153
2761.94,0.00153
2758.08,0.00161
2754.22,0.00163
2750.36,0.00162
2746.51,0.00171
2742.65,0.00166
2738.79,0.00167
2734.93,0.00168
2731.08,0.00170
2727.22,0.00174
2723.36,0.00173
2719.5,0.00171
2715.65,0.00166
2711.79,0.00169
2707.93,0.00173
2704.07,0.00174
2700.22,0.00175
2696.36,0.00178
2692.5,0.00175
2688.64,0.00183
2684.79,0.00185
2680.93,0.00180
2677.07,0.00183
2673.21,0.00180
2669.36,0.00186
2665.5,0.00194
2661.64,0.00197
2657.78,0.00194
2653.93,0.00192
2650.07,0.00193
2646.21,0.00173
2642.35,0.00176
2638.5,0.00186
2634.64,0.00184
2630.78,0.00178
2626.93,0.00181
2623.07,0.00169
2619.21,0.00164
2615.35,0.00176
2611.5,0.00167
2607.64,0.00162
2603.78,0.00164
2599.92,0.00173
2596.07,0.00174
2592.21,0.00182
2588.35,0.00184
2584.49,0.00180
2580.64,0.00185
2576.78,0.00181
2572.92,0.00181
2569.06,0.00191
2565.21,0.00184
2561.35,0.00178
2557.49,0.00174
2553.63,0.00173
2549.78,0.00173
2545.92,0.00179
2542.06,0.00184
2538.2,0.00187
2534.35,0.00198
2530.49,0.00198
2526.63,0.00187
2522.77,0.00179
2518.92,0.00186
2515.06,0.00182
2511.2,0.00185
2507.34,0.00193
2503.49,0.00198
2499.63,0.00181
2495.77,0.00184
2491.91,0.00196
2488.06,0.00191
2484.2,0.00188
2480.34,0.00193
2476.48,0.00193
2472.63,0.00202
2468.77,0.00207
2464.91,0.00203
2461.05,0.00212
2457.2,0.00195
2453.34,0.00190
2449.48,0.00194
2445.62,0.00194
2441.77,0.00187
2437.91,0.00213
2434.05,0.00235
2430.2,0.00235
2426.34,0.00225
2422.48,0.00235
2418.62,0.00236
2414.77,0.00225
2410.91,0.00237
2407.05,0.00243
2403.19,0.00249
2399.34,0.00260
2395.48,0.00262
2391.62,0.00259
2387.76,0.00272
2383.91,0.00323
2380.05,0.00332
2376.19,0.00246
2372.33,0.00075
2368.48,-0.00187
2364.62,-0.00380
2360.76,-0.00358
2356.9,-0.00303
2353.05,-0.00072
2349.19,0.00136
2345.33,-0.00053
2341.47,-0.00259
2337.62,-0.00247
2333.76,-0.00160
2329.9,-0.00022
2326.04,0.00055
2322.19,0.00178
2318.33,0.00263
2314.47,0.00299
2310.61,0.00368
2306.76,0.00363
2302.9,0.00331
2299.04,0.00320
2295.18,0.00311
2291.33,0.00304
2287.47,0.00308
2283.61,0.00295
2279.75,0.00265
2275.9,0.00250
2272.04,0.00237
2268.18,0.00243
2264.32,0.00246
2260.47,0.00242
2256.61,0.00254
2252.75,0.00263
2248.89,0.00264
2245.04,0.00269
2241.18,0.00249
2237.32,0.00226
2233.46,0.00242
2229.61,0.00235
2225.75,0.00247
2221.89,0.00224
2218.04,0.00232
2214.18,0.00224
2210.32,0.00186
2206.46,0.00189
2202.61,0.00199
2198.75,0.00176
2194.89,0.00159
2191.03,0.00152
2187.18,0.00142
2183.32,0.00085
2179.46,0.00085
2175.6,0.00113
2171.75,0.00127
2167.89,0.00084
2164.03,0.00086
2160.17,0.00072
2156.32,0.00143
2152.46,0.00212
2148.6,0.00218
2144.74,0.00235
2140.89,0.00259
2137.03,0.00247
2133.17,0.00249
2129.31,0.00252
2125.46,0.00249
2121.6,0.00250
2117.74,0.00247
2113.88,0.00245
2110.03,0.00238
2106.17,0.00242
2102.31,0.00252
2098.45,0.00277
2094.6,0.00292
2090.74,0.00324
2086.88,0.00299
2083.02,0.00274
2079.17,0.00285
2075.31,0.00274
2071.45,0.00280
2067.59,0.00330
2063.74,0.00361
2059.88,0.00325
2056.02,0.00300
2052.16,0.00281
2048.31,0.00265
2044.45,0.00302
2040.59,0.00352
2036.73,0.00286
2032.88,0.00269
2029.02,0.00279
2025.16,0.00309
2021.31,0.00321
2017.45,0.00424
2013.59,0.00334
2009.73,0.00340
2005.88,0.00346
2002.02,0.00315
1998.16,0.00311
1994.3,0.00385
1990.45,0.00460
1986.59,0.00400
1982.73,0.00347
1978.87,0.00331
1975.02,0.00329
1971.16,0.00424
1967.3,0.00549
1963.44,0.00462
1959.59,0.00445
1955.73,0.00470
1951.87,0.00477
1948.01,0.00498
1944.16,0.00589
1940.3,0.00492
1936.44,0.00423
1932.58,0.00414
1928.73,0.00378
1924.87,0.00518
1921.01,0.00587
1917.15,0.00497
1913.3,0.00411
1909.44,0.00529
1905.58,0.00416
1901.72,0.00389
1897.87,0.00427
1894.01,0.00473
1890.15,0.00523
1886.29,0.00449
1882.44,0.00396
1878.58,0.00382
1874.72,0.00395
1870.86,0.00633
1867.01,0.00702
1863.15,0.00457
1859.29,0.00462
1855.43,0.00394
1851.58,0.00420
1847.72,0.00671
1843.86,0.00818
1840,0.00547
1836.15,0.00530
1832.29,0.00600
1828.43,0.00724
1824.57,0.00664
1820.72,0.00513
1816.86,0.00500
1813,0.00592
1809.15,0.00640
1805.29,0.00582
1801.43,0.00769
1797.57,0.00774
1793.72,0.00902
1789.86,0.00696
1786,0.00573
1782.14,0.00663
1778.29,0.00670
1774.43,0.00797
1770.57,0.00905
1766.71,0.00661
1762.86,0.00698
1759,0.00800
1755.14,0.00803
1751.28,0.01201
1747.43,0.01676
1743.57,0.01839
1739.71,0.02335
1735.85,0.02966
1732,0.04028
1728.14,0.04253
1724.28,0.04815
1720.42,0.05522
1716.57,0.06936
1712.71,0.06785
1708.85,0.06454
1704.99,0.06107
1701.14,0.05555
1697.28,0.04734
1693.42,0.03592
1689.56,0.03381
1685.71,0.03349
1681.85,0.03085
1677.99,0.02638
1674.13,0.02491
1670.28,0.02409
1666.42,0.01916
1662.56,0.01821
1658.7,0.01642
1654.85,0.01853
1650.99,0.01883
1647.13,0.01912
1643.27,0.01462
1639.42,0.01476
1635.56,0.01576
1631.7,0.01215
1627.84,0.01252
1623.99,0.01373
1620.13,0.01318
1616.27,0.01366
1612.42,0.01207
1608.56,0.01238
1604.7,0.01134
1600.84,0.01022
1596.99,0.00960
1593.13,0.00974
1589.27,0.00928
1585.41,0.00922
1581.56,0.01061
1577.7,0.01368
1573.84,0.01271
1569.98,0.01226
1566.13,0.01165
1562.27,0.01250
1558.41,0.01750
1554.55,0.01535
1550.7,0.01327
1546.84,0.01372
1542.98,0.02198
1539.12,0.01657
1535.27,0.01511
1531.41,0.01391
1527.55,0.01580
1523.69,0.01958
1519.84,0.01834
1515.98,0.01653
1512.12,0.01646
1508.26,0.02346
1504.41,0.01846
1500.55,0.01613
1496.69,0.01396
1492.83,0.01157
1488.98,0.01554
1485.12,0.01130
1481.26,0.01103
1477.4,0.01314
1473.55,0.01895
1469.69,0.01484
1465.83,0.01402
1461.97,0.01393
1458.12,0.01943
1454.26,0.01756
1450.4,0.01500
1446.54,0.01425
1442.69,0.01274
1438.83,0.01405
1434.97,0.01482
1431.11,0.01265
1427.26,0.01078
1423.4,0.01124
1419.54,0.01464
1415.69,0.01794
1411.83,0.02338
1407.97,0.02606
1404.11,0.02226
1400.26,0.01944
1396.4,0.01928
1392.54,0.01528
1388.68,0.01533
1384.83,0.01414
1380.97,0.01349
1377.11,0.01498
1373.25,0.01616
1369.4,0.01469
1365.54,0.01372
1361.68,0.01344
1357.82,0.01064
1353.97,0.01062
1350.11,0.01209
1346.25,0.01651
1342.39,0.02389
1338.54,0.02840
1334.68,0.01961
1330.82,0.01351
1326.96,0.01113
1323.11,0.01168
1319.25,0.01409
1315.39,0.01523
1311.53,0.01613
1307.68,0.01696
1303.82,0.01829
1299.96,0.02046
1296.1,0.02361
1292.25,0.02684
1288.39,0.03068
1284.53,0.03335
1280.67,0.03657
1276.82,0.03996
1272.96,0.04412
1269.1,0.04868
1265.24,0.05247
1261.39,0.05582
1257.53,0.05755
1253.67,0.05913
1249.81,0.06180
1245.96,0.06483
1242.1,0.06698
1238.24,0.06699
1234.38,0.06469
1230.53,0.06141
1226.67,0.05846
1222.81,0.05552
1218.95,0.05172
1215.1,0.04702
1211.24,0.04257
1207.38,0.03864
1203.53,0.03533
1199.67,0.03233
1195.81,0.02948
1191.95,0.02698
1188.1,0.02507
1184.24,0.02368
1180.38,0.02311
1176.52,0.02321
1172.67,0.02261
1168.81,0.02116
1164.95,0.01971
1161.09,0.01880
1157.24,0.01869
1153.38,0.01923
1149.52,0.02047
1145.66,0.02263
1141.81,0.02580
1137.95,0.03015
1134.09,0.03578
1130.23,0.04164
1126.38,0.04687
1122.52,0.05064
1118.66,0.05255
1114.8,0.05291
1110.95,0.05334
1107.09,0.05599
1103.23,0.06025
1099.37,0.06432
1095.52,0.06676
1091.66,0.06700
1087.8,0.06545
1083.94,0.06304
1080.09,0.05979
1076.23,0.05597
1072.37,0.05173
1068.51,0.04728
1064.66,0.04358
1060.8,0.04076
1056.94,0.03892
1053.08,0.03809
1049.23,0.03820
1045.37,0.03834
1041.51,0.03791
1037.65,0.03674
1033.8,0.03504
1029.94,0.03347
1026.08,0.03628
1022.22,0.04455
1018.37,0.05209
1014.51,0.05178
1010.65,0.04480
1006.8,0.03965
1002.94,0.03669
999.08,0.03490
995.223,0.03360
991.365,0.03292
987.508,0.03230
983.65,0.03193
979.793,0.03242
975.935,0.03330
972.078,0.03520
968.221,0.03583
964.363,0.03435
960.506,0.03282
956.648,0.03131
952.791,0.03014
948.933,0.02940
945.076,0.02919
941.218,0.02876
937.361,0.02831
933.503,0.02821
929.646,0.02781
925.789,0.02747
921.931,0.02695
918.074,0.02632
914.216,0.02587
910.359,0.02577
906.501,0.02661
902.644,0.02713
898.786,0.02728
894.929,0.02719
891.072,0.02713
887.214,0.02726
883.357,0.02833
879.499,0.03100
875.642,0.03670
871.784,0.04317
867.927,0.03896
864.069,0.03428
860.212,0.03329
856.354,0.03361
852.497,0.03417
848.64,0.03559
844.782,0.03646
840.925,0.03492
837.067,0.03286
833.21,0.03135
829.352,0.03033
825.495,0.02946
821.637,0.02874
817.78,0.02826
813.922,0.02792
810.065,0.02781
806.208,0.02793
802.35,0.02779
798.493,0.02791
794.635,0.02908
790.778,0.02988
786.92,0.02761
783.063,0.02533
779.205,0.02488
775.348,0.02507
771.49,0.02427
767.633,0.02211
763.776,0.02110
759.918,0.01975
756.061,0.01852
752.203,0.01766
748.346,0.01655
744.488,0.01579
740.631,0.02004
736.773,0.03024
732.916,0.04537
729.058,0.06300
725.201,0.07982
721.344,0.08489
717.486,0.07682
713.629,0.06748
709.771,0.06069
705.914,0.05617
702.056,0.05197
698.199,0.04823
694.341,0.04475
690.484,0.04218
686.627,0.04039
682.769,0.03896
678.912,0.03786
675.054,0.03713
671.197,0.03631
667.339,0.03451
663.482,0.03457
659.624,0.03439
655.767,0.03410
651.909,0.03385
648.052,0.03317
644.195,0.03304
640.337,0.03312
636.48,0.03328
632.622,0.03382
628.765,0.03214
624.907,0.02961
621.05,0.02832
617.192,0.03160
613.335,0.03150
609.477,0.02640
605.62,0.02688
601.763,0.03004
599.834,0.03142