File: 01_Data/Pine_Lap_Siding_Paint/STA/N2/10K_min/Pine_Lap_Siding_Paint_STA_N2_10KData_220317_R3.csv
##Temp./Â°C,Time/min,Mass loss(subtr.2)/mg,DSC(subtr.2)/(mW/mg),Sensit./(uV/mW)
49.635,10.00917,0.0215,0.002729218,1.07519
50.335,10.76021,0.02241031,0.03032321,1.07482
51.035,10.96042,0.02289322,0.05058487,1.07446
51.735,11.1119,0.02386417,0.06709112,1.07409
52.435,11.2401,0.0227969,0.07996752,1.07373
53.135,11.3546,0.02275338,0.09123999,1.07337
53.835,11.4602,0.02368059,0.10296,1.073
54.535,11.5593,0.02357435,0.11146,1.07264
55.235,11.6534,0.02390759,0.11934,1.07227
55.935,11.7446,0.02505141,0.12413,1.07191
56.635,11.83264,0.02433627,0.1322,1.07154
57.335,11.91891,0.02413512,0.13367,1.07118
58.035,12.0032,0.02535586,0.13951,1.07082
58.735,12.08601,0.02574426,0.14362,1.07045
59.435,12.16715,0.02448101,0.14702,1.07009
60.135,12.24743,0.0258976,0.15068,1.06972
60.835,12.32675,0.02501515,0.15478,1.06936
61.535,12.40568,0.02486612,0.15541,1.069
62.235,12.48376,0.02444271,0.15687,1.06863
62.935,12.56173,0.02451861,0.16115,1.06827
63.635,12.6387,0.02588057,0.16335,1.06791
64.335,12.71565,0.02587771,0.16452,1.06754
65.035,12.79217,0.02585196,0.16595,1.06718
65.735,12.86868,0.02587958,0.1687,1.06682
66.435,12.94465,0.02486805,0.16948,1.06645
67.135,13.02011,0.02588014,0.16901,1.06609
67.835,13.09545,0.02588814,0.17217,1.06573
68.535,13.17087,0.02589407,0.17308,1.06536
69.235,13.2464,0.02565662,0.1735,1.065
69.935,13.3217,0.02729054,0.17662,1.06464
70.635,13.3963,0.02587302,0.1752,1.06428
71.335,13.4708,0.0258526,0.17481,1.06391
72.035,13.5449,0.02708841,0.178,1.06355
72.735,13.6189,0.02588006,0.17662,1.06319
73.435,13.69266,0.02594593,0.17981,1.06283
74.135,13.7664,0.025874,0.17745,1.06246
74.835,13.83986,0.02589081,0.18072,1.0621
75.535,13.91361,0.02581509,0.18185,1.06174
76.235,13.9873,0.02588,0.18367,1.06138
76.935,14.06076,0.02590999,0.18211,1.06102
77.635,14.1338,0.02475939,0.18346,1.06065
78.335,14.20659,0.02452914,0.18469,1.06029
79.035,14.27915,0.02456,0.18733,1.05993
79.735,14.3513,0.0258858,0.18826,1.05957
80.435,14.4235,0.02523248,0.18839,1.05921
81.135,14.49567,0.02588935,0.18945,1.05885
81.835,14.5675,0.02639838,0.19014,1.05848
82.535,14.6393,0.02587997,0.19079,1.05812
83.235,14.71016,0.02563281,0.1921,1.05776
83.935,14.7816,0.02590378,0.1935,1.0574
84.635,14.85278,0.02686565,0.19209,1.05704
85.335,14.9247,0.02787685,0.19404,1.05668
86.035,14.996,0.02687321,0.19604,1.05632
86.735,15.06727,0.02689677,0.1953,1.05596
87.435,15.1382,0.02686988,0.19623,1.0556
88.135,15.2089,0.02686996,0.19728,1.05523
88.835,15.27946,0.02817765,0.19866,1.05487
89.535,15.3498,0.02687061,0.20007,1.05451
90.235,15.4199,0.02684347,0.19907,1.05415
90.935,15.49001,0.02554947,0.19825,1.05379
91.635,15.5597,0.0268698,0.19978,1.05343
92.335,15.62936,0.02555092,0.2027,1.05307
93.035,15.6989,0.02687002,0.20086,1.05271
93.735,15.7688,0.02686996,0.20341,1.05235
94.435,15.8387,0.02755103,0.20472,1.05199
95.135,15.90816,0.02687041,0.20592,1.05163
95.835,15.97747,0.02825588,0.20583,1.05127
96.535,16.04665,0.02686998,0.20741,1.05091
97.235,16.11587,0.02687007,0.20486,1.05055
97.935,16.18506,0.02798038,0.20643,1.05019
98.635,16.2542,0.02815586,0.20755,1.04983
99.335,16.32339,0.02816453,0.20808,1.04947
100.035,16.39227,0.02811986,0.20621,1.04912
100.735,16.46119,0.02681283,0.20566,1.04876
101.435,16.53,0.02687001,0.20661,1.0484
102.135,16.5989,0.02718857,0.2081,1.04804
102.835,16.66767,0.02621086,0.20906,1.04768
103.535,16.73643,0.02686618,0.20669,1.04732
104.235,16.8052,0.02674751,0.20839,1.04696
104.935,16.874,0.0268638,0.20927,1.0466
105.635,16.94265,0.02789627,0.21059,1.04624
106.335,17.01122,0.02687001,0.20968,1.04588
107.035,17.0798,0.02687021,0.21071,1.04553
107.735,17.14854,0.02819078,0.21291,1.04517
108.435,17.21712,0.02767107,0.21121,1.04481
109.135,17.28571,0.02719072,0.21159,1.04445
109.835,17.35434,0.02686936,0.21231,1.04409
110.535,17.42299,0.02822568,0.21486,1.04373
111.235,17.49145,0.02686975,0.21471,1.04338
111.935,17.55968,0.02688691,0.21717,1.04302
112.635,17.62817,0.0281903,0.21389,1.04266
113.335,17.69657,0.02686641,0.21555,1.0423
114.035,17.76513,0.02687136,0.21635,1.04194
114.735,17.8332,0.0274855,0.21817,1.04159
115.435,17.90117,0.02686952,0.21618,1.04123
116.135,17.96942,0.02686779,0.21784,1.04087
116.835,18.038,0.02818869,0.21758,1.04051
117.535,18.10664,0.02696477,0.2179,1.04015
118.235,18.1746,0.02588014,0.21833,1.0398
118.935,18.2428,0.0257954,0.2183,1.03944
119.635,18.311,0.02614702,0.21818,1.03908
120.335,18.37945,0.02753001,0.22076,1.03873
121.035,18.44762,0.02752952,0.22015,1.03837
121.735,18.5158,0.02719825,0.22072,1.03801
122.435,18.5839,0.02719911,0.22195,1.03765
123.135,18.65213,0.02590443,0.22105,1.0373
123.835,18.72014,0.02719911,0.22041,1.03694
124.535,18.78826,0.02720001,0.22238,1.03658
125.235,18.85647,0.02667294,0.22349,1.03623
125.935,18.9243,0.02721333,0.22237,1.03587
126.635,18.99241,0.0285305,0.22257,1.03551
127.335,19.0603,0.02850744,0.22249,1.03516
128.035,19.12846,0.02850999,0.22114,1.0348
128.735,19.1964,0.02923252,0.22347,1.03444
129.435,19.2643,0.02821318,0.2207,1.03409
130.135,19.33212,0.02753002,0.22254,1.03373
130.835,19.39996,0.02753,0.22498,1.03337
131.535,19.46811,0.02753006,0.22497,1.03302
132.235,19.53614,0.02891674,0.22288,1.03266
132.935,19.60426,0.02753011,0.22461,1.03231
133.635,19.67207,0.02862125,0.22163,1.03195
134.335,19.74,0.02852004,0.2233,1.03159
135.035,19.80781,0.02754626,0.22354,1.03124
135.735,19.87574,0.02731373,0.22167,1.03088
136.435,19.94368,0.02753017,0.22435,1.03053
137.135,20.0114,0.0275267,0.22196,1.03017
137.835,20.07907,0.02752846,0.2251,1.02982
138.535,20.1469,0.02886655,0.22439,1.02946
139.235,20.21463,0.02752678,0.22402,1.0291
139.935,20.28216,0.02753002,0.22426,1.02875
140.635,20.34949,0.02751066,0.22557,1.02839
141.335,20.41698,0.02620996,0.22665,1.02804
142.035,20.48434,0.02669283,0.22804,1.02768
142.735,20.55183,0.02752997,0.22893,1.02733
143.435,20.61921,0.02753236,0.23049,1.02697
144.135,20.68655,0.02885002,0.22959,1.02662
144.835,20.75375,0.02885638,0.23097,1.02626
145.535,20.8208,0.02753546,0.23041,1.02591
146.235,20.88789,0.02845662,0.23202,1.02555
146.935,20.95516,0.02883997,0.2297,1.0252
147.635,21.02242,0.02884296,0.23022,1.02484
148.335,21.08959,0.02885691,0.23106,1.02449
149.035,21.15669,0.02753085,0.2318,1.02413
149.735,21.22399,0.02754152,0.23311,1.02378
150.435,21.29124,0.02753,0.23199,1.02342
151.135,21.35869,0.02753004,0.23138,1.02307
151.835,21.42589,0.02882303,0.23322,1.02271
152.535,21.49301,0.02884038,0.23423,1.02236
153.235,21.56004,0.02752684,0.23426,1.02201
153.935,21.6271,0.02752427,0.23279,1.02165
154.635,21.6944,0.02883857,0.23411,1.0213
155.335,21.76164,0.02753164,0.23265,1.02094
156.035,21.8292,0.02753,0.23481,1.02059
156.735,21.89667,0.02874321,0.23496,1.02023
157.435,21.96392,0.02796721,0.23499,1.01988
158.135,22.03105,0.02753742,0.23813,1.01953
158.835,22.09806,0.02753,0.23691,1.01917
159.535,22.16531,0.02753,0.23717,1.01882
160.235,22.23227,0.02752998,0.23648,1.01846
160.935,22.29934,0.02754063,0.23749,1.01811
161.635,22.3668,0.02885612,0.23811,1.01776
162.335,22.43432,0.02752955,0.23781,1.0174
163.035,22.50187,0.02753037,0.23858,1.01705
163.735,22.5689,0.02785961,0.23705,1.01669
164.435,22.63608,0.02890373,0.2382,1.01634
165.135,22.7032,0.02753205,0.23878,1.01599
165.835,22.77039,0.02753,0.24151,1.01563
166.535,22.83744,0.02752887,0.24087,1.01528
167.235,22.9046,0.02747728,0.24223,1.01493
167.935,22.9719,0.02753002,0.24135,1.01457
168.635,23.03911,0.02753338,0.24381,1.01422
169.335,23.1064,0.02670558,0.24305,1.01387
170.035,23.17349,0.02765111,0.24354,1.01351
170.735,23.24059,0.02818952,0.24364,1.01316
171.435,23.3076,0.02686797,0.24465,1.01281
172.135,23.37477,0.02687,0.24639,1.01245
172.835,23.44171,0.02687,0.24614,1.0121
173.535,23.50854,0.02686998,0.24717,1.01175
174.235,23.5751,0.02575687,0.24424,1.01139
174.935,23.64179,0.02567447,0.24741,1.01104
175.635,23.70861,0.02687002,0.24428,1.01069
176.335,23.7754,0.02687032,0.24676,1.01033
177.035,23.84216,0.02784413,0.24685,1.00998
177.735,23.9089,0.02786,0.24806,1.00963
178.435,23.97575,0.02785932,0.24799,1.00927
179.135,24.0424,0.02753198,0.24947,1.00892
179.835,24.10918,0.02621,0.2475,1.00857
180.535,24.17557,0.02621,0.24984,1.00821
181.235,24.24194,0.02620985,0.24955,1.00786
181.935,24.30858,0.02751019,0.24882,1.00751
182.635,24.3753,0.02753006,0.24881,1.00716
183.335,24.44239,0.02718889,0.24949,1.0068
184.035,24.50917,0.02555,0.24899,1.00645
184.735,24.57609,0.02555,0.25154,1.0061
185.435,24.64293,0.02555135,0.25151,1.00574
186.135,24.70937,0.02686934,0.25062,1.00539
186.835,24.77584,0.02555752,0.25121,1.00504
187.535,24.8425,0.02622529,0.24938,1.00469
188.235,24.90932,0.02687,0.25147,1.00433
188.935,24.9761,0.02686943,0.25337,1.00398
189.635,25.0427,0.02726608,0.25434,1.00363
190.335,25.10942,0.02653928,0.25504,1.00327
191.035,25.176,0.02654,0.25549,1.00292
191.735,25.24259,0.02654,0.25336,1.00257
192.435,25.30921,0.02654,0.25628,1.00222
193.135,25.3754,0.02653987,0.25535,1.00186
193.835,25.44197,0.02536734,0.25345,1.00151
194.535,25.50864,0.02522,0.25469,1.00116
195.235,25.57535,0.02521999,0.25357,1.00081
195.935,25.6412,0.02527429,0.25549,1.00045
196.635,25.70796,0.02555289,0.2556,1.0001
197.335,25.77469,0.02489118,0.25411,0.99975
198.035,25.84215,0.02489,0.25458,0.99939
198.735,25.90858,0.02488984,0.2547,0.99904
199.435,25.97537,0.02423538,0.25546,0.99869
200.135,26.04232,0.02423,0.25743,0.99834
200.835,26.1093,0.02423,0.25934,0.99798
201.535,26.17569,0.02561827,0.25706,0.99763
202.235,26.24222,0.02555,0.2597,0.99728
202.935,26.3088,0.02357998,0.25742,0.99693
203.635,26.37572,0.02358001,0.2599,0.99657
204.335,26.4428,0.02351042,0.26119,0.99622
205.035,26.5096,0.0249005,0.26057,0.99587
205.735,26.5762,0.02357422,0.26203,0.99552
206.435,26.643,0.02489476,0.26258,0.99516
207.135,26.7096,0.02357988,0.26182,0.99481
207.835,26.77631,0.02372608,0.26228,0.99446
208.535,26.8428,0.02489289,0.26211,0.9941
209.235,26.9093,0.02456998,0.26199,0.99375
209.935,26.97573,0.02457697,0.26199,0.9934
210.635,27.04233,0.02324951,0.26328,0.99305
211.335,27.10912,0.02325,0.2619,0.99269
212.035,27.1761,0.02324544,0.264,0.99234
212.735,27.2428,0.02318378,0.26296,0.99199
213.435,27.30943,0.02260001,0.26631,0.99164
214.135,27.37593,0.0226,0.26571,0.99128
214.835,27.44235,0.0226,0.26564,0.99093
215.535,27.50902,0.0225988,0.2652,0.99058
216.235,27.5757,0.02128043,0.26753,0.99022
216.935,27.64258,0.02265189,0.26696,0.98987
217.635,27.70925,0.02259965,0.26927,0.98952
218.335,27.77575,0.02127964,0.26799,0.98917
219.035,27.84233,0.02128,0.26782,0.98881
219.735,27.9089,0.02128,0.26931,0.98846
220.435,27.9756,0.02127998,0.26945,0.98811
221.135,28.04249,0.02071372,0.27066,0.98775
221.835,28.10913,0.02029,0.26964,0.9874
222.535,28.17595,0.01903598,0.27107,0.98705
223.235,28.24267,0.02028988,0.27044,0.9867
223.935,28.30953,0.02029,0.26893,0.98634
224.635,28.3761,0.02029,0.2699,0.98599
225.335,28.44267,0.02029,0.26967,0.98564
226.035,28.5092,0.02029,0.27022,0.98528
226.735,28.576,0.02016032,0.27129,0.98493
227.435,28.64279,0.01896994,0.26886,0.98458
228.135,28.70965,0.0203036,0.27031,0.98422
228.835,28.77621,0.02028953,0.27152,0.98387
229.535,28.84303,0.01964857,0.26719,0.98352
230.235,28.90973,0.01765736,0.26718,0.98316
230.935,28.9766,0.01761277,0.26818,0.98281
231.635,29.04334,0.01897869,0.26993,0.98246
232.335,29.11035,0.01765802,0.26761,0.9821
233.035,29.17734,0.01633867,0.26906,0.98175
233.735,29.2443,0.01634013,0.26818,0.9814
234.435,29.31111,0.01763938,0.26761,0.98104
235.135,29.37753,0.01766,0.26816,0.98069
235.835,29.44428,0.01766196,0.26917,0.98033
236.535,29.511,0.01662619,0.26998,0.97998
237.235,29.5781,0.01634001,0.26986,0.97963
237.935,29.6448,0.01634,0.27169,0.97927
238.635,29.71155,0.01633994,0.27143,0.97892
239.335,29.7785,0.01541199,0.2754,0.97857
240.035,29.8453,0.01502001,0.27414,0.97821
240.735,29.91224,0.01501152,0.2743,0.97786
241.435,29.9787,0.01436169,0.27465,0.9775
242.135,30.04543,0.01436,0.28001,0.97715
242.835,30.112,0.01436,0.27942,0.9768
243.535,30.17908,0.01436,0.28008,0.97644
244.235,30.246,0.01435969,0.28125,0.97609
244.935,30.3128,0.01338655,0.28272,0.97573
245.635,30.37947,0.01337,0.28157,0.97538
246.335,30.44629,0.01313011,0.28515,0.97502
247.035,30.51329,0.01174197,0.28525,0.97467
247.735,30.58018,0.01174,0.28513,0.97432
248.435,30.64685,0.01174002,0.2855,0.97396
249.135,30.7135,0.01147562,0.28854,0.97361
249.835,30.78023,0.01169257,0.2902,0.97325
250.535,30.84732,0.01042015,0.29121,0.9729
251.235,30.91439,0.009415059,0.29231,0.97254
251.935,30.98149,0.009429778,0.29196,0.97219
252.635,31.04823,0.01075272,0.29368,0.97183
253.335,31.1149,0.01041687,0.29653,0.97148
254.035,31.1817,0.008990561,0.29632,0.97112
254.735,31.24864,0.00779,0.2994,0.97077
255.435,31.31512,0.006741647,0.29904,0.97041
256.135,31.3821,0.006469831,0.29699,0.97006
256.835,31.4493,0.006469814,0.30201,0.9697
257.535,31.51663,0.006140353,0.30455,0.96934
258.235,31.58346,0.006139991,0.30468,0.96899
258.935,31.65005,0.006158276,0.30461,0.96863
259.635,31.7169,0.00383057,0.30632,0.96828
260.335,31.7838,0.003830376,0.30692,0.96792
261.035,31.8507,0.002515293,0.30669,0.96757
261.735,31.91752,0.002519906,0.30899,0.96721
262.435,31.98449,0.00122361,0.30895,0.96685
263.135,32.05142,0.001200118,0.30946,0.9665
263.835,32.1186,-9.08528e-05,0.30917,0.96614
264.535,32.18553,-4.5672e-05,0.31005,0.96579
265.235,32.2527,-0.001429404,0.31153,0.96543
265.935,32.3196,-0.00143,0.3089,0.96507
266.635,32.38645,-0.001426108,0.30985,0.96472
267.335,32.4534,-0.004071242,0.31358,0.96436
268.035,32.5201,-0.005415695,0.30949,0.964
268.735,32.5873,-0.005372546,0.30984,0.96365
269.435,32.65418,-0.002970005,0.31022,0.96329
270.135,32.72116,-0.004404132,0.30939,0.96293
270.835,32.78779,-0.007187234,0.30973,0.96257
271.535,32.85452,-0.00723335,0.30876,0.96222
272.235,32.9214,-0.00856046,0.31236,0.96186
272.935,32.98825,-0.009134492,0.30919,0.9615
273.635,33.05519,-0.009883069,0.30791,0.96115
274.335,33.12216,-0.009892205,0.30759,0.96079
275.035,33.189,-0.01020412,0.30714,0.96043
275.735,33.25595,-0.0121797,0.3068,0.96007
276.435,33.32274,-0.01218003,0.30544,0.95971
277.135,33.38968,-0.01250922,0.30487,0.95936
277.835,33.4566,-0.01374808,0.30491,0.959
278.535,33.52355,-0.01439792,0.30338,0.95864
279.235,33.59053,-0.01646321,0.30183,0.95828
279.935,33.65755,-0.01646036,0.29783,0.95792
280.635,33.72455,-0.01513354,0.29922,0.95756
281.335,33.79145,-0.01650326,0.29791,0.95721
282.035,33.8585,-0.01787566,0.29697,0.95685
282.735,33.9255,-0.0205913,0.2986,0.95649
283.435,33.9925,-0.02057003,0.29822,0.95613
284.135,34.05932,-0.02149999,0.30005,0.95577
284.835,34.1261,-0.02187573,0.29546,0.95541
285.535,34.19298,-0.02374464,0.2972,0.95505
286.235,34.26008,-0.02446115,0.29614,0.95469
286.935,34.32708,-0.02392241,0.29848,0.95433
287.635,34.39414,-0.02516785,0.29775,0.95397
288.335,34.4611,-0.02512,0.29632,0.95361
289.035,34.52819,-0.02512669,0.29803,0.95325
289.735,34.59523,-0.02643921,0.29733,0.95289
290.435,34.66234,-0.02661346,0.29737,0.95253
291.135,34.72931,-0.02873992,0.29382,0.95217
291.835,34.79638,-0.02982759,0.29536,0.95181
292.535,34.8635,-0.030072,0.29631,0.95145
293.235,34.93058,-0.03137006,0.29455,0.95109
293.935,34.9977,-0.03032525,0.29518,0.95073
294.635,35.06478,-0.03171024,0.29407,0.95037
295.335,35.13211,-0.031653,0.29559,0.95001
296.035,35.19948,-0.03432563,0.29606,0.94965
296.735,35.26684,-0.0356532,0.29493,0.94929
297.435,35.33402,-0.035904,0.29265,0.94892
298.135,35.40122,-0.03695999,0.2952,0.94856
298.835,35.4687,-0.03791007,0.29533,0.9482
299.535,35.536,-0.03841136,0.29314,0.94784
300.235,35.60346,-0.04059458,0.29499,0.94748
300.935,35.67071,-0.04091059,0.29495,0.94712
301.635,35.73807,-0.04223137,0.29295,0.94675
302.335,35.80532,-0.04222931,0.29737,0.94639
303.035,35.87276,-0.043877,0.29653,0.94603
303.735,35.9402,-0.04551869,0.29647,0.94566
304.435,36.00778,-0.0455364,0.29673,0.9453
305.135,36.07513,-0.04686546,0.29575,0.94494
305.835,36.1425,-0.04815111,0.29605,0.94458
306.535,36.20949,-0.04946978,0.29787,0.94421
307.235,36.2769,-0.05079274,0.2987,0.94385
307.935,36.34409,-0.05210828,0.29588,0.94349
308.635,36.41147,-0.05341829,0.29796,0.94312
309.335,36.47874,-0.05471625,0.29934,0.94276
310.035,36.54619,-0.05601638,0.30193,0.94239
310.735,36.61383,-0.05786473,0.3043,0.94203
311.435,36.68099,-0.06014519,0.30487,0.94166
312.135,36.74817,-0.06059268,0.30402,0.9413
312.835,36.81528,-0.06333515,0.30476,0.94094
313.535,36.88243,-0.06457428,0.30629,0.94057
314.235,36.9497,-0.06592182,0.30671,0.94021
314.935,37.0169,-0.0664251,0.30734,0.93984
315.635,37.0839,-0.06754535,0.3078,0.93947
316.335,37.15105,-0.06770845,0.30791,0.93911
317.035,37.21818,-0.07017136,0.30944,0.93874
317.735,37.2855,-0.07282869,0.31013,0.93838
318.435,37.35272,-0.07356031,0.30755,0.93801
319.135,37.41997,-0.0758194,0.30589,0.93765
319.835,37.48695,-0.0786346,0.30646,0.93728
320.535,37.55448,-0.07986779,0.30737,0.93691
321.235,37.62192,-0.08278275,0.30827,0.93655
321.935,37.68949,-0.08414465,0.30867,0.93618
322.635,37.7567,-0.08674674,0.30909,0.93581
323.335,37.82369,-0.08844215,0.30949,0.93544
324.035,37.89092,-0.09002278,0.31013,0.93508
324.735,37.9583,-0.0927517,0.30861,0.93471
325.435,38.02576,-0.09552452,0.31194,0.93434
326.135,38.09324,-0.0963625,0.31166,0.93397
326.835,38.16055,-0.09852648,0.31233,0.9336
327.535,38.22784,-0.10052,0.30808,0.93324
328.235,38.29528,-0.10323,0.3116,0.93287
328.935,38.3626,-0.10659,0.31142,0.9325
329.635,38.43,-0.11045,0.30879,0.93213
330.335,38.4974,-0.11202,0.3128,0.93176
331.035,38.5649,-0.11604,0.31018,0.93139
331.735,38.63227,-0.11882,0.30718,0.93102
332.435,38.69963,-0.12092,0.30788,0.93065
333.135,38.76702,-0.12339,0.30749,0.93028
333.835,38.8343,-0.12367,0.30682,0.92991
334.535,38.9017,-0.12902,0.30482,0.92954
335.235,38.96909,-0.13195,0.30613,0.92917
335.935,39.0366,-0.13499,0.30386,0.9288
336.635,39.104,-0.13843,0.30373,0.92843
337.335,39.1716,-0.14112,0.3025,0.92806
338.035,39.23904,-0.14456,0.30235,0.92769
338.735,39.30656,-0.14734,0.30184,0.92732
339.435,39.3739,-0.14998,0.30232,0.92694
340.135,39.4413,-0.153,0.30171,0.92657
340.835,39.50875,-0.15608,0.29915,0.9262
341.535,39.5762,-0.15894,0.30133,0.92583
342.235,39.64355,-0.16196,0.29827,0.92546
342.935,39.71112,-0.16503,0.29803,0.92508
343.635,39.7786,-0.16805,0.30087,0.92471
344.335,39.84618,-0.16936,0.29961,0.92434
345.035,39.9135,-0.17267,0.29729,0.92396
345.735,39.9811,-0.17649,0.29258,0.92359
346.435,40.0488,-0.18053,0.29563,0.92322
347.135,40.11657,-0.18258,0.2926,0.92284
347.835,40.1844,-0.18468,0.29201,0.92247
348.535,40.2522,-0.18716,0.29001,0.92209
349.235,40.32015,-0.1903,0.28839,0.92172
349.935,40.38799,-0.19317,0.29074,0.92134
350.635,40.45572,-0.19622,0.29116,0.92097
351.335,40.5235,-0.19912,0.28811,0.92059
352.035,40.59138,-0.20218,0.29005,0.92022
352.735,40.6594,-0.20269,0.28794,0.91984
353.435,40.72761,-0.20679,0.28744,0.91947
354.135,40.7956,-0.20879,0.2858,0.91909
354.835,40.86339,-0.21099,0.28625,0.91871
355.535,40.93112,-0.21248,0.28454,0.91834
356.235,40.99893,-0.21542,0.28064,0.91796
356.935,41.06681,-0.21822,0.28387,0.91758
357.635,41.13473,-0.22109,0.28191,0.91721
358.335,41.20256,-0.22377,0.28316,0.91683
359.035,41.27028,-0.2267,0.28092,0.91645
359.735,41.33812,-0.22982,0.28152,0.91607
360.435,41.40605,-0.23085,0.28254,0.91569
361.135,41.47419,-0.23244,0.28261,0.91532
361.835,41.542,-0.2336,0.28483,0.91494
362.535,41.60975,-0.23616,0.28545,0.91456
363.235,41.67759,-0.2381,0.28088,0.91418
363.935,41.7454,-0.23998,0.28203,0.9138
364.635,41.81323,-0.24296,0.28346,0.91342
365.335,41.88098,-0.24572,0.2816,0.91304
366.035,41.9488,-0.24754,0.28269,0.91266
366.735,42.0167,-0.24736,0.28278,0.91228
367.435,42.08452,-0.24948,0.28046,0.9119
368.135,42.15225,-0.25229,0.28068,0.91152
368.835,42.22005,-0.25428,0.27931,0.91114
369.535,42.28791,-0.25557,0.27715,0.91075
370.235,42.356,-0.25691,0.27619,0.91037
370.935,42.4238,-0.25825,0.27544,0.90999
371.635,42.49158,-0.26009,0.27475,0.90961
372.335,42.55945,-0.26217,0.2752,0.90922
373.035,42.6276,-0.26215,0.27409,0.90884
373.735,42.6956,-0.26471,0.27339,0.90846
374.435,42.76364,-0.26773,0.27362,0.90808
375.135,42.8317,-0.26895,0.27292,0.90769
375.835,42.9,-0.27027,0.27326,0.90731
376.535,42.96803,-0.2716,0.27544,0.90692
377.235,43.03615,-0.27281,0.27483,0.90654
377.935,43.10411,-0.27547,0.27307,0.90616
378.635,43.17241,-0.27556,0.27333,0.90577
379.335,43.24042,-0.2769,0.27622,0.90539
380.035,43.30849,-0.27817,0.27638,0.905
380.735,43.3766,-0.28076,0.2764,0.90461
381.435,43.44463,-0.28304,0.27608,0.90423
382.135,43.51278,-0.28348,0.27805,0.90384
382.835,43.5809,-0.28392,0.27731,0.90346
383.535,43.64911,-0.28475,0.27641,0.90307
384.235,43.71727,-0.28626,0.27816,0.90268
384.935,43.7855,-0.2887,0.27895,0.90229
385.635,43.85355,-0.29018,0.28056,0.90191
386.335,43.9217,-0.29141,0.28336,0.90152
387.035,43.98958,-0.29344,0.285,0.90113
387.735,44.0575,-0.29459,0.28684,0.90074
388.435,44.12554,-0.29676,0.28763,0.90035
389.135,44.1937,-0.2992,0.28978,0.89997
389.835,44.26184,-0.29946,0.28775,0.89958
390.535,44.3301,-0.30065,0.2924,0.89919
391.235,44.3982,-0.30322,0.29032,0.8988
391.935,44.46654,-0.30401,0.29426,0.89841
392.635,44.53457,-0.30593,0.29588,0.89802
393.335,44.6027,-0.30888,0.29676,0.89763
394.035,44.6709,-0.31089,0.29882,0.89723
394.735,44.7393,-0.31217,0.30013,0.89684
395.435,44.80749,-0.31627,0.30348,0.89645
396.135,44.87574,-0.31903,0.30643,0.89606
396.835,44.94399,-0.32034,0.30782,0.89567
397.535,45.0124,-0.3229,0.30814,0.89528
398.235,45.08082,-0.32409,0.30647,0.89488
398.935,45.14932,-0.32622,0.30901,0.89449
399.635,45.21783,-0.32933,0.30882,0.8941
400.335,45.2864,-0.33308,0.31515,0.8937
401.035,45.35496,-0.33486,0.31437,0.89331
401.735,45.4236,-0.33721,0.31405,0.89291
402.435,45.49168,-0.33942,0.31634,0.89252
403.135,45.56028,-0.34212,0.32228,0.89213
403.835,45.62875,-0.34516,0.31814,0.89173
404.535,45.69771,-0.34821,0.3196,0.89133
405.235,45.76617,-0.35161,0.31848,0.89094
405.935,45.8348,-0.35433,0.3195,0.89054
406.635,45.90337,-0.35624,0.31905,0.89015
407.335,45.97186,-0.35975,0.31976,0.88975
408.035,46.04032,-0.36187,0.31971,0.88935
408.735,46.10855,-0.36461,0.32122,0.88896
409.435,46.17708,-0.36772,0.31979,0.88856
410.135,46.24536,-0.3705,0.31875,0.88816
410.835,46.31374,-0.3724,0.31593,0.88776
411.535,46.38172,-0.37536,0.31397,0.88736
412.235,46.4503,-0.37663,0.30981,0.88696
412.935,46.5189,-0.38004,0.31247,0.88657
413.635,46.58784,-0.38224,0.30552,0.88617
414.335,46.65641,-0.38515,0.30518,0.88577
415.035,46.7248,-0.38696,0.30164,0.88537
415.735,46.79336,-0.38952,0.30127,0.88497
416.435,46.86192,-0.39188,0.29796,0.88456
417.135,46.93056,-0.39402,0.29582,0.88416
417.835,46.99899,-0.39782,0.28996,0.88376
418.535,47.06692,-0.39834,0.29183,0.88336
419.235,47.13507,-0.40084,0.28765,0.88296
419.935,47.20326,-0.40182,0.2844,0.88256
420.635,47.27193,-0.40493,0.28442,0.88215
421.335,47.34053,-0.40867,0.28214,0.88175
422.035,47.40905,-0.40848,0.27901,0.88135
422.735,47.47769,-0.40847,0.27793,0.88094
423.435,47.5467,-0.40977,0.27615,0.88054
424.135,47.61578,-0.4125,0.27447,0.88014
424.835,47.68483,-0.41308,0.27195,0.87973
425.535,47.75349,-0.41466,0.27212,0.87933
426.235,47.82208,-0.41897,0.27016,0.87892
426.935,47.89067,-0.41901,0.2696,0.87851
427.635,47.9593,-0.41933,0.27179,0.87811
428.335,48.02792,-0.41935,0.26983,0.8777
429.035,48.0964,-0.42065,0.26696,0.8773
429.735,48.16476,-0.42195,0.26594,0.87689
430.435,48.23316,-0.42451,0.26489,0.87648
431.135,48.3016,-0.42597,0.26528,0.87607
431.835,48.36988,-0.42663,0.26446,0.87567
432.535,48.43838,-0.42721,0.2634,0.87526
433.235,48.5069,-0.42855,0.26286,0.87485
433.935,48.5756,-0.4297,0.26176,0.87444
434.635,48.64418,-0.43117,0.26078,0.87403
435.335,48.71267,-0.4325,0.26316,0.87362
436.035,48.78086,-0.43257,0.2638,0.87321
436.735,48.84926,-0.43381,0.26022,0.8728
437.435,48.9177,-0.43381,0.25654,0.87239
438.135,48.98604,-0.43581,0.25837,0.87198
438.835,49.0541,-0.43671,0.2624,0.87157
439.535,49.12216,-0.4377,0.25838,0.87115
440.235,49.19042,-0.43908,0.26141,0.87074
440.935,49.25897,-0.44038,0.25962,0.87033
441.635,49.32751,-0.44039,0.26089,0.86992
442.335,49.39628,-0.44171,0.26132,0.8695
443.035,49.465,-0.44266,0.26014,0.86909
443.735,49.53427,-0.44439,0.26141,0.86868
444.435,49.6036,-0.44457,0.2594,0.86826
445.135,49.67268,-0.44568,0.26125,0.86785
445.835,49.74125,-0.44699,0.26042,0.86743
446.535,49.81008,-0.44829,0.25992,0.86702
447.235,49.87918,-0.44961,0.26005,0.8666
447.935,49.94838,-0.44961,0.26041,0.86618
448.635,50.0173,-0.45092,0.25986,0.86577
449.335,50.0863,-0.45083,0.26248,0.86535
450.035,50.15527,-0.45327,0.26245,0.86493
450.735,50.2243,-0.45311,0.26321,0.86452
451.435,50.2932,-0.45486,0.26308,0.8641
452.135,50.36205,-0.45619,0.26205,0.86368
452.835,50.43084,-0.45619,0.26205,0.86326
453.535,50.49962,-0.45689,0.26618,0.86284
454.235,50.56864,-0.45883,0.26613,0.86242
454.935,50.63755,-0.46016,0.26496,0.862
455.635,50.7063,-0.46009,0.26678,0.86158
456.335,50.77515,-0.46145,0.26695,0.86116
457.035,50.84414,-0.46279,0.26521,0.86074
457.735,50.9131,-0.46286,0.2673,0.86032
458.435,50.98178,-0.46524,0.26805,0.8599
459.135,51.05056,-0.46414,0.26893,0.85948
459.835,51.1194,-0.4654,0.26991,0.85905
460.535,51.18847,-0.46674,0.27153,0.85863
461.235,51.25743,-0.46764,0.27458,0.85821
461.935,51.32659,-0.46893,0.27118,0.85778
462.635,51.39571,-0.47046,0.27007,0.85736
463.335,51.46482,-0.47165,0.27035,0.85693
464.035,51.53373,-0.47298,0.27197,0.85651
464.735,51.60272,-0.47428,0.27273,0.85608
465.435,51.67168,-0.47429,0.27256,0.85566
466.135,51.74074,-0.47612,0.274,0.85523
466.835,51.80973,-0.47705,0.27168,0.85481
467.535,51.87858,-0.47702,0.2709,0.85438
468.235,51.94742,-0.47827,0.27424,0.85395
468.935,52.01566,-0.48067,0.27105,0.85353
469.635,52.08409,-0.481,0.27464,0.8531
470.335,52.1531,-0.48097,0.27024,0.85267
471.035,52.22246,-0.48226,0.2695,0.85224
471.735,52.2919,-0.4837,0.27231,0.85181
472.435,52.3606,-0.48361,0.26917,0.85138
473.135,52.4295,-0.48492,0.27202,0.85095
473.835,52.4982,-0.48492,0.27135,0.85052
474.535,52.567,-0.48624,0.27101,0.85009
475.235,52.63567,-0.48754,0.27176,0.84966
475.935,52.70455,-0.48896,0.27172,0.84923
476.635,52.7735,-0.4889,0.26905,0.8488
477.335,52.8426,-0.48884,0.27032,0.84837
478.035,52.9116,-0.4915,0.26717,0.84793
478.735,52.98052,-0.49117,0.26845,0.8475
479.435,53.0495,-0.49151,0.26742,0.84707
480.135,53.11831,-0.49283,0.26577,0.84663
480.835,53.1874,-0.49414,0.26697,0.8462
481.535,53.25651,-0.49414,0.26442,0.84577
482.235,53.32581,-0.4955,0.26897,0.84533
482.935,53.395,-0.49546,0.26529,0.8449
483.635,53.46416,-0.49545,0.26501,0.84446
484.335,53.53326,-0.49697,0.26471,0.84402
485.035,53.6022,-0.49809,0.26321,0.84359
485.735,53.67105,-0.49921,0.26193,0.84315
486.435,53.74035,-0.49941,0.25953,0.84271
487.135,53.80989,-0.50045,0.26338,0.84228
487.835,53.8795,-0.49919,0.26094,0.84184
488.535,53.9486,-0.50061,0.2622,0.8414
489.235,54.01784,-0.50316,0.26092,0.84096
489.935,54.087,-0.50326,0.26293,0.84052
490.635,54.1564,-0.50357,0.25895,0.84008
491.335,54.2257,-0.50489,0.26279,0.83964
492.035,54.2951,-0.50489,0.25803,0.8392
492.735,54.36446,-0.50364,0.25976,0.83876
493.435,54.4339,-0.50495,0.2595,0.83832
494.135,54.50323,-0.50616,0.26017,0.83788
494.835,54.57266,-0.50698,0.25911,0.83743
495.535,54.642,-0.50751,0.25854,0.83699
496.235,54.71144,-0.50884,0.25924,0.83655
496.935,54.78091,-0.50746,0.25733,0.8361
497.635,54.85026,-0.50884,0.25517,0.83566
498.335,54.9197,-0.50884,0.25942,0.83522
499.035,54.989,-0.50884,0.2573,0.83477
499.735,55.0586,-0.51015,0.25983,0.83433
500.435,55.12805,-0.51147,0.25785,0.83388
501.135,55.1975,-0.51147,0.26568,0.83344
501.835,55.2667,-0.51149,0.26596,0.83299
502.535,55.33591,-0.51259,0.26803,0.83254
503.235,55.40504,-0.51351,0.26981,0.8321
503.935,55.47433,-0.51212,0.26809,0.83165
504.635,55.54345,-0.51354,0.27142,0.8312
505.335,55.6128,-0.51346,0.2728,0.83075
506.035,55.6815,-0.51499,0.27149,0.8303
506.735,55.7509,-0.51575,0.27106,0.82985
507.435,55.82014,-0.51708,0.27111,0.8294
508.135,55.8901,-0.51706,0.27177,0.82895
508.835,55.9594,-0.51706,0.27202,0.8285
509.535,56.02874,-0.51644,0.27362,0.82805
510.235,56.0981,-0.51706,0.27057,0.8276
510.935,56.16769,-0.51707,0.27114,0.82715
511.635,56.2373,-0.51839,0.27438,0.8267
512.335,56.3065,-0.5197,0.27029,0.82624
513.035,56.37591,-0.5197,0.27192,0.82579
513.735,56.44525,-0.51857,0.27334,0.82534
514.435,56.51511,-0.51973,0.27338,0.82488
515.135,56.5846,-0.51968,0.27691,0.82443
515.835,56.6542,-0.52035,0.27525,0.82397
516.535,56.72365,-0.52035,0.27709,0.82352
517.235,56.7929,-0.52035,0.27535,0.82306
517.935,56.86231,-0.52234,0.27506,0.82261
518.635,56.93181,-0.52364,0.27958,0.82215
519.335,57.0014,-0.52478,0.28288,0.82169
520.035,57.0706,-0.52364,0.28316,0.82124
520.735,57.1397,-0.52367,0.28718,0.82078
521.435,57.20865,-0.5243,0.28496,0.82032
522.135,57.2778,-0.5243,0.28714,0.81986
522.835,57.34706,-0.52495,0.28661,0.8194
523.535,57.4166,-0.52494,0.28571,0.81894
524.235,57.48584,-0.52595,0.28546,0.81848
524.935,57.55505,-0.52614,0.28802,0.81802
525.635,57.62438,-0.52627,0.28732,0.81756
526.335,57.6939,-0.52627,0.28868,0.8171
527.035,57.7636,-0.52734,0.28463,0.81664
527.735,57.83331,-0.52697,0.28647,0.81618
528.435,57.9028,-0.52628,0.2859,0.81571
529.135,57.97238,-0.52628,0.28746,0.81525
529.835,58.04179,-0.52892,0.28708,0.81479
530.535,58.1112,-0.52887,0.28494,0.81432
531.235,58.1809,-0.53022,0.28612,0.81386
531.935,58.25059,-0.53068,0.28553,0.81339
532.635,58.3204,-0.53154,0.28565,0.81293
533.335,58.38984,-0.53154,0.2866,0.81246
534.035,58.45961,-0.53191,0.28202,0.812
534.735,58.5295,-0.53287,0.27507,0.81153
535.435,58.59961,-0.53187,0.27154,0.81106
536.135,58.66952,-0.53187,0.26999,0.8106
536.835,58.7394,-0.53286,0.2675,0.81013
537.535,58.80928,-0.53286,0.266,0.80966
538.235,58.8791,-0.53286,0.26232,0.80919
538.935,58.949,-0.53418,0.2613,0.80872
539.635,59.019,-0.53418,0.2602,0.80825
540.335,59.089,-0.53516,0.25618,0.80778
541.035,59.15889,-0.53549,0.25561,0.80731
541.735,59.22863,-0.53519,0.25299,0.80684
542.435,59.29866,-0.53484,0.25119,0.80637
543.135,59.3686,-0.53483,0.24999,0.8059
543.835,59.43832,-0.53378,0.24713,0.80542
544.535,59.508,-0.53483,0.24418,0.80495
545.235,59.5779,-0.53538,0.23915,0.80448
545.935,59.6479,-0.53748,0.23909,0.804
546.635,59.71779,-0.53747,0.23781,0.80353
547.335,59.78731,-0.53879,0.23605,0.80306
548.035,59.85691,-0.53879,0.23531,0.80258
548.735,59.92654,-0.53938,0.23831,0.80211
549.435,59.99626,-0.5401,0.2371,0.80163
550.135,60.06587,-0.53906,0.2351,0.80115
550.835,60.1354,-0.53878,0.23537,0.80068
551.535,60.20459,-0.53878,0.23962,0.8002
552.235,60.2739,-0.5401,0.23556,0.79972
552.935,60.34329,-0.5401,0.23608,0.79924
553.635,60.4135,-0.54184,0.23519,0.79876
554.335,60.48381,-0.54174,0.23642,0.79829
555.035,60.5541,-0.54174,0.23478,0.79781
555.735,60.6239,-0.54308,0.23311,0.79733
556.435,60.6937,-0.54174,0.23741,0.79685
557.135,60.7635,-0.54307,0.23457,0.79637
557.835,60.83336,-0.544,0.23249,0.79588
558.535,60.90334,-0.54273,0.23146,0.7954
559.235,60.9733,-0.54273,0.23114,0.79492
559.935,61.0433,-0.54286,0.22966,0.79444
560.635,61.113,-0.54438,0.23333,0.79395
561.335,61.18277,-0.54437,0.23293,0.79347
562.035,61.25245,-0.54569,0.23042,0.79299
562.735,61.3224,-0.54569,0.23013,0.7925
563.435,61.39219,-0.54569,0.22913,0.79202
564.135,61.46209,-0.54669,0.22858,0.79153
564.835,61.532,-0.54668,0.22721,0.79105
565.535,61.60196,-0.54668,0.22828,0.79056
566.235,61.672,-0.54703,0.2255,0.79007
566.935,61.74194,-0.5483,0.22378,0.78959
567.635,61.81176,-0.54696,0.22481,0.7891
568.335,61.88159,-0.54701,0.22461,0.78861
569.035,61.95137,-0.54965,0.22518,0.78812
569.735,62.02114,-0.54968,0.22624,0.78763
570.435,62.091,-0.54863,0.2209,0.78714
571.135,62.1609,-0.54996,0.22164,0.78665
571.835,62.23104,-0.54996,0.22338,0.78616
572.535,62.301,-0.54996,0.22122,0.78567
573.235,62.37105,-0.55128,0.22157,0.78518
573.935,62.44089,-0.55128,0.22076,0.78469
574.635,62.5108,-0.55128,0.21687,0.7842
575.335,62.5808,-0.55128,0.21745,0.7837
576.035,62.65084,-0.55239,0.21377,0.78321
576.735,62.72093,-0.5526,0.21045,0.78272
577.435,62.7909,-0.55194,0.21049,0.78222
578.135,62.86121,-0.55277,0.21041,0.78173
578.835,62.9315,-0.55457,0.21245,0.78123
579.535,63.0017,-0.55425,0.20668,0.78074
580.235,63.07185,-0.55387,0.20632,0.78024
580.935,63.1419,-0.55458,0.20593,0.77975
581.635,63.21212,-0.55458,0.20684,0.77925
582.335,63.28227,-0.55455,0.20431,0.77875
583.035,63.35241,-0.5559,0.20413,0.77826
583.735,63.4224,-0.55717,0.20519,0.77776
584.435,63.49235,-0.55589,0.2042,0.77726
585.135,63.56253,-0.55592,0.2003,0.77676
585.835,63.63292,-0.55721,0.19844,0.77626
586.535,63.70309,-0.55721,0.19947,0.77576
587.235,63.7732,-0.55721,0.1994,0.77526
587.935,63.84307,-0.55755,0.19693,0.77476
588.635,63.91339,-0.55853,0.19949,0.77426
589.335,63.98358,-0.55849,0.19815,0.77376
590.035,64.05402,-0.55984,0.19906,0.77325
590.735,64.12419,-0.55984,0.20015,0.77275
591.435,64.19444,-0.55984,0.19985,0.77225
592.135,64.26448,-0.56116,0.19922,0.77174
592.835,64.33447,-0.56111,0.19943,0.77124
593.535,64.4044,-0.56247,0.19936,0.77074
594.235,64.47448,-0.56247,0.19935,0.77023
594.935,64.5445,-0.56181,0.20199,0.76973
595.635,64.61447,-0.5639,0.20345,0.76922
596.335,64.68462,-0.56384,0.20056,0.76871
597.035,64.75477,-0.56379,0.20233,0.76821
597.735,64.82513,-0.56372,0.20206,0.7677
598.435,64.89536,-0.56412,0.20538,0.76719
599.135,64.96544,-0.56412,0.20534,0.76668
599.835,65.03517,-0.5662,0.20395,0.76618
600.535,65.10509,-0.56595,0.2056,0.76567
601.235,65.1751,-0.56455,0.20752,0.76516
601.935,65.24547,-0.56585,0.20794,0.76465
602.635,65.31604,-0.56587,0.20796,0.76414
603.335,65.38687,-0.56587,0.20787,0.76363
604.035,65.45776,-0.56587,0.20598,0.76311
604.735,65.5284,-0.5662,0.21131,0.7626
605.435,65.5989,-0.56621,0.21054,0.76209
606.135,65.66929,-0.56752,0.21266,0.76158
606.835,65.73962,-0.56883,0.21493,0.76106
607.535,65.80991,-0.56923,0.21672,0.76055
608.235,65.8801,-0.57117,0.2185,0.76004
608.935,65.95034,-0.5708,0.21845,0.75952
609.635,66.02056,-0.5708,0.22143,0.75901
610.335,66.09098,-0.57093,0.22627,0.75849
611.035,66.16112,-0.57213,0.22828,0.75798
611.735,66.23132,-0.5716,0.23089,0.75746
612.435,66.30164,-0.57283,0.23388,0.75694
613.135,66.37199,-0.57213,0.23383,0.75643
613.835,66.44246,-0.57213,0.23692,0.75591
614.535,66.5128,-0.57343,0.23572,0.75539
615.235,66.58325,-0.57344,0.23919,0.75487
615.935,66.65365,-0.57473,0.23871,0.75435
616.635,66.724,-0.57617,0.2436,0.75383
617.335,66.79442,-0.57608,0.2458,0.75331
618.035,66.86468,-0.57737,0.25015,0.75279
618.735,66.9351,-0.57746,0.25077,0.75227
619.435,67.00562,-0.57673,0.25166,0.75175
620.135,67.07619,-0.57756,0.25514,0.75123
620.835,67.14689,-0.57861,0.25517,0.75071
621.535,67.2174,-0.5787,0.25602,0.75018
622.235,67.28784,-0.58001,0.26015,0.74966
622.935,67.3584,-0.58002,0.26163,0.74914
623.635,67.42914,-0.58134,0.26995,0.74861
624.335,67.4999,-0.58134,0.27082,0.74809
625.035,67.5703,-0.58265,0.27434,0.74756
625.735,67.6406,-0.58375,0.2801,0.74704
626.435,67.71089,-0.58404,0.28349,0.74651
627.135,67.78137,-0.58642,0.28561,0.74598
627.835,67.85168,-0.58646,0.28787,0.74546
628.535,67.92197,-0.58594,0.29603,0.74493
629.235,67.9923,-0.58735,0.29837,0.7444
629.935,68.06275,-0.58821,0.3014,0.74387
630.635,68.13327,-0.58857,0.30499,0.74335
631.335,68.2033,-0.58858,0.30919,0.74282
632.035,68.27376,-0.58938,0.30863,0.74229
632.735,68.34413,-0.59121,0.31686,0.74176
633.435,68.41498,-0.59256,0.32161,0.74123
634.135,68.4854,-0.59192,0.32244,0.7407
634.835,68.556,-0.59251,0.3251,0.74017
635.535,68.62652,-0.59506,0.33039,0.73963
636.235,68.69714,-0.59519,0.33089,0.7391
636.935,68.76772,-0.59659,0.33482,0.73857
637.635,68.8382,-0.59657,0.33998,0.73804
638.335,68.9087,-0.59934,0.34257,0.7375
639.035,68.9794,-0.59934,0.34221,0.73697
639.735,69.05014,-0.60063,0.34944,0.73643
640.435,69.12079,-0.60244,0.35098,0.7359
641.135,69.1915,-0.60328,0.35317,0.73536
641.835,69.26195,-0.6047,0.35394,0.73483
642.535,69.33267,-0.60539,0.36454,0.73429
643.235,69.40324,-0.60638,0.36443,0.73376
643.935,69.4739,-0.60733,0.36759,0.73322
644.635,69.54437,-0.6074,0.37285,0.73268
645.335,69.61499,-0.6086,0.37689,0.73214
646.035,69.68568,-0.60997,0.38157,0.7316
646.735,69.75649,-0.61129,0.38559,0.73107
647.435,69.827,-0.6126,0.39903,0.73053
648.135,69.89753,-0.61511,0.40134,0.72999
648.835,69.9679,-0.61527,0.40597,0.72945
649.535,70.03828,-0.61523,0.41317,0.72891
650.235,70.10861,-0.61841,0.41597,0.72836
650.935,70.17902,-0.61973,0.42145,0.72782
651.635,70.24939,-0.62104,0.42797,0.72728
652.335,70.31971,-0.62236,0.43744,0.72674
653.035,70.38979,-0.62367,0.44198,0.7262
653.735,70.46025,-0.62499,0.45181,0.72565
654.435,70.5308,-0.62631,0.45502,0.72511
655.135,70.60164,-0.62762,0.46598,0.72457
655.835,70.6721,-0.63025,0.47238,0.72402
656.535,70.7426,-0.63189,0.47677,0.72348
657.235,70.81312,-0.63312,0.48172,0.72293
657.935,70.88379,-0.63583,0.48926,0.72238
658.635,70.95444,-0.63691,0.49789,0.72184
659.335,71.02505,-0.63718,0.50145,0.72129
660.035,71.09551,-0.63963,0.51297,0.72074
660.735,71.16589,-0.64146,0.51728,0.7202
661.435,71.23634,-0.64277,0.52558,0.71965
662.135,71.307,-0.64466,0.53377,0.7191
662.835,71.3775,-0.64693,0.54309,0.71855
663.535,71.4479,-0.64822,0.551,0.718
664.235,71.5183,-0.64971,0.55678,0.71745
664.935,71.5891,-0.6523,0.5646,0.7169
665.635,71.65964,-0.65362,0.57477,0.71635
666.335,71.7303,-0.65772,0.58203,0.7158
667.035,71.80059,-0.66059,0.58593,0.71525
667.735,71.87101,-0.66066,0.59374,0.7147
668.435,71.94128,-0.66341,0.60632,0.71414
669.135,72.01182,-0.66609,0.61403,0.71359
669.835,72.08229,-0.6673,0.62615,0.71304
670.535,72.1527,-0.6687,0.63349,0.71248
671.235,72.2231,-0.67164,0.6444,0.71193
671.935,72.2936,-0.6743,0.65335,0.71138
672.635,72.3642,-0.67593,0.6637,0.71082
673.335,72.4345,-0.67822,0.67302,0.71027
674.035,72.50514,-0.68117,0.6821,0.70971
674.735,72.57579,-0.68411,0.69699,0.70915
675.435,72.64604,-0.68404,0.70335,0.7086
676.135,72.7166,-0.68709,0.71157,0.70804
676.835,72.78716,-0.68984,0.7261,0.70748
677.535,72.8583,-0.69257,0.73675,0.70692
678.235,72.92854,-0.69684,0.74792,0.70637
678.935,72.99876,-0.70031,0.7624,0.70581
679.635,73.069,-0.70296,0.77272,0.70525
680.335,73.13961,-0.70648,0.78386,0.70469
681.035,73.2102,-0.70874,0.7964,0.70413
681.735,73.28108,-0.71152,0.80808,0.70357
682.435,73.3519,-0.71458,0.82237,0.70301
683.135,73.42275,-0.7178,0.83431,0.70245
683.835,73.49345,-0.72064,0.84824,0.70188
684.535,73.56435,-0.72341,0.86332,0.70132
685.235,73.63551,-0.72743,0.87568,0.70076
685.935,73.70659,-0.72911,0.89188,0.7002
686.635,73.77756,-0.73316,0.90389,0.69963
687.335,73.84818,-0.73609,0.91887,0.69907
688.035,73.91891,-0.74113,0.93312,0.69851
688.735,73.98958,-0.74503,0.94695,0.69794
689.435,74.0603,-0.74942,0.95777,0.69738
690.135,74.13139,-0.75243,0.9757,0.69681
690.835,74.20232,-0.75553,0.99213,0.69624
691.535,74.27326,-0.76019,1.0064,0.69568
692.235,74.34406,-0.76298,1.02468,0.69511
692.935,74.4148,-0.76728,1.04042,0.69455
693.635,74.48566,-0.7695,1.05594,0.69398
694.335,74.55626,-0.77427,1.07461,0.69341
695.035,74.62701,-0.77823,1.09074,0.69284
695.735,74.6978,-0.78166,1.10902,0.69227
696.435,74.76836,-0.78688,1.1289,0.6917
697.135,74.8391,-0.79204,1.14463,0.69113
697.835,74.90975,-0.79856,1.1645,0.69056
698.535,74.98075,-0.80386,1.17986,0.68999
699.235,75.05155,-0.80661,1.19659,0.68942
699.935,75.12239,-0.81031,1.22095,0.68885
700.635,75.19325,-0.81406,1.23926,0.68828
701.335,75.2641,-0.81925,1.25988,0.68771
702.035,75.3349,-0.82398,1.28258,0.68714
702.735,75.40603,-0.83015,1.3016,0.68656
703.435,75.4774,-0.8353,1.32406,0.68599
704.135,75.5487,-0.84135,1.34234,0.68542
704.835,75.61978,-0.84574,1.36753,0.68484
705.535,75.69073,-0.85082,1.38546,0.68427
706.235,75.76159,-0.85668,1.40988,0.68369
706.935,75.83259,-0.863,1.43474,0.68312
707.635,75.90354,-0.87036,1.45903,0.68254
708.335,75.97479,-0.87375,1.48116,0.68197
709.035,76.0458,-0.87955,1.50419,0.68139
709.735,76.11685,-0.88568,1.52846,0.68082
710.435,76.18778,-0.89185,1.55292,0.68024
711.135,76.25905,-0.89788,1.57582,0.67966
711.835,76.33018,-0.90325,1.60262,0.67908
712.535,76.40138,-0.90993,1.6259,0.6785
713.235,76.47221,-0.91715,1.64991,0.67793
713.935,76.54325,-0.92395,1.67442,0.67735
714.635,76.6143,-0.93108,1.69891,0.67677
715.335,76.6852,-0.93676,1.7229,0.67619
716.035,76.756,-0.94181,1.7509,0.67561
716.735,76.82664,-0.95218,1.77742,0.67503
717.435,76.89726,-0.96085,1.804,0.67445
718.135,76.96807,-0.96643,1.82574,0.67387
718.835,77.03896,-0.97159,1.85487,0.67328
719.535,77.10946,-0.97975,1.88104,0.6727
720.235,77.17989,-0.98648,1.90901,0.67212
720.935,77.25041,-0.99419,1.93626,0.67154
721.635,77.32135,-1.00161,1.96669,0.67095
722.335,77.39211,-1.00959,1.99679,0.67037
723.035,77.4627,-1.01787,2.02152,0.66979
723.735,77.53294,-1.02677,2.05204,0.6692
724.435,77.60321,-1.03455,2.07847,0.66862
725.135,77.67356,-1.04319,2.10469,0.66803
725.835,77.74438,-1.05214,2.13408,0.66745
726.535,77.81514,-1.0605,2.16149,0.66686
727.235,77.88601,-1.06984,2.1899,0.66627
727.935,77.9569,-1.07822,2.21499,0.66569
728.635,78.02826,-1.08619,2.24363,0.6651
729.335,78.09955,-1.09758,2.27164,0.66451
730.035,78.1707,-1.10463,2.30175,0.66393
730.735,78.2415,-1.11447,2.32147,0.66334
731.435,78.31245,-1.12342,2.34852,0.66275
732.135,78.38346,-1.13124,2.3722,0.66216
732.835,78.45441,-1.14267,2.40051,0.66157
733.535,78.5254,-1.15533,2.42594,0.66098
734.235,78.59652,-1.16499,2.4508,0.66039
734.935,78.6674,-1.17522,2.47534,0.6598
735.635,78.7388,-1.18556,2.49958,0.65921
736.335,78.81023,-1.19371,2.52431,0.65862
737.035,78.88181,-1.20464,2.54989,0.65803
737.735,78.95299,-1.21534,2.56522,0.65744
738.435,79.0243,-1.22659,2.591,0.65685
739.135,79.09575,-1.23781,2.60833,0.65625
739.835,79.16712,-1.24843,2.6273,0.65566
740.535,79.23854,-1.2582,2.64732,0.65507
741.235,79.30986,-1.27011,2.66239,0.65447
741.935,79.38119,-1.27921,2.67637,0.65388
742.635,79.4519,-1.2899,2.69131,0.65329
743.335,79.523,-1.30083,2.69819,0.65269
744.035,79.59397,-1.31359,2.71234,0.6521
744.735,79.66542,-1.32311,2.71892,0.6515
745.435,79.73676,-1.33691,2.72557,0.65091
746.135,79.8082,-1.34798,2.72855,0.65031
746.835,79.87951,-1.35854,2.72426,0.64971
747.535,79.95071,-1.36825,2.71962,0.64912
748.235,80.02189,-1.38181,2.70922,0.64852
748.935,80.09294,-1.39231,2.69112,0.64792
749.635,80.16378,-1.40416,2.66604,0.64733
750.335,80.2346,-1.41523,2.63858,0.64673
751.035,80.30544,-1.42567,2.59483,0.64613
751.735,80.37613,-1.43605,2.54031,0.64553
752.435,80.4468,-1.44766,2.47522,0.64493
753.135,80.5175,-1.45794,2.38758,0.64433
753.835,80.58802,-1.46747,2.28252,0.64373
754.535,80.65844,-1.47676,2.15095,0.64313
755.235,80.72892,-1.4839,1.9842,0.64253
755.935,80.79936,-1.49208,1.7536,0.64193
756.635,80.8694,-1.50009,1.43454,0.64133
757.335,80.93952,-1.50538,0.98607,0.64073
758.035,81.0101,-1.50682,0.6098,0.64013
758.735,81.08103,-1.50838,0.38039,0.63953
759.435,81.15208,-1.50773,0.2448,0.63893
760.135,81.22323,-1.50906,0.16467,0.63832
760.835,81.29457,-1.51038,0.11366,0.63772
761.535,81.36574,-1.51169,0.08401735,0.63712
762.235,81.43674,-1.51169,0.06393954,0.63651
762.935,81.50785,-1.51169,0.05099877,0.63591
763.635,81.5791,-1.51169,0.04496043,0.63531
764.335,81.65041,-1.51169,0.04445235,0.6347
765.035,81.7218,-1.51266,0.04112302,0.6341
765.735,81.79332,-1.51268,0.04152032,0.63349
766.435,81.8647,-1.51205,0.04319473,0.63289
767.135,81.93598,-1.51238,0.0403969,0.63228
767.835,82.00713,-1.51242,0.04087382,0.63167
768.535,82.07826,-1.51235,0.03655415,0.63107
769.235,82.1493,-1.51499,0.0400812,0.63046
769.935,82.2204,-1.51499,0.03472606,0.62985
770.635,82.2913,-1.51434,0.03575032,0.62925
771.335,82.36219,-1.51433,0.03021476,0.62864
772.035,82.4329,-1.51433,0.03054912,0.62803
772.735,82.50391,-1.51532,0.03050349,0.62742
773.435,82.57485,-1.51532,0.02967966,0.62681
774.135,82.646,-1.515,0.02848624,0.62621
774.835,82.71684,-1.51516,0.0283038,0.6256
775.535,82.78786,-1.516,0.02741399,0.62499
776.235,82.85868,-1.51597,0.02618592,0.62438
776.935,82.9294,-1.51597,0.02475701,0.62377
777.635,83.00025,-1.51597,0.02002444,0.62316
778.335,83.0714,-1.51597,0.02093668,0.62255
779.035,83.14275,-1.51597,0.01996501,0.62194
779.735,83.21387,-1.51599,0.02059105,0.62132
780.435,83.28479,-1.51729,0.01866617,0.62071
781.135,83.3559,-1.51727,0.01790805,0.6201
781.835,83.42695,-1.51828,0.01926379,0.61949
782.535,83.49816,-1.51733,0.0142538,0.61888
783.235,83.56939,-1.51696,0.01388443,0.61826
783.935,83.64055,-1.51631,0.01279417,0.61765
784.635,83.7118,-1.5176,0.008089829,0.61704
785.335,83.78311,-1.51786,0.00868261,0.61642
786.035,83.85462,-1.51827,0.007606265,0.61581
786.735,83.9259,-1.51827,0.008158993,0.6152
787.435,83.99706,-1.51893,0.00466543,0.61458
788.135,84.06818,-1.5196,0.005161305,0.61397
788.835,84.13935,-1.51762,0.00349586,0.61335
789.535,84.21056,-1.51759,0.00304187,0.61274
790.235,84.2817,-1.51894,0.001513322,0.61212
790.935,84.35291,-1.51894,-0.002033835,0.61151
791.635,84.4242,-1.51894,0.001562825,0.61089
792.335,84.49557,-1.51894,-0.000620265,0.61027
793.035,84.56681,-1.51893,-0.004375227,0.60966
793.735,84.63806,-1.52025,-0.00872031,0.60904
794.435,84.70922,-1.51893,-0.009962437,0.60842
795.135,84.78067,-1.51893,-0.008135042,0.6078
795.835,84.85191,-1.51893,-0.00732899,0.60719
796.535,84.92323,-1.51893,-0.009182596,0.60657
797.235,84.99455,-1.52025,-0.01339738,0.60595
797.935,85.0659,-1.52025,-0.01339605,0.60533
798.635,85.13715,-1.52053,-0.02091086,0.60471
799.335,85.20829,-1.52058,-0.020921,0.60409
800.035,85.27941,-1.52026,-0.02142303,0.60348
800.735,85.35051,-1.52124,-0.02031782,0.60286
801.435,85.4216,-1.52255,-0.02246696,0.60224
802.135,85.4928,-1.52255,-0.02557489,0.60162
802.835,85.56384,-1.52253,-0.02262285,0.601
803.535,85.63461,-1.52124,-0.02497416,0.60038
804.235,85.7054,-1.52124,-0.02870083,0.59975
804.935,85.77616,-1.52124,-0.02318547,0.59913
805.635,85.8471,-1.52124,-0.02267658,0.59851
806.335,85.9179,-1.52251,-0.02530595,0.59789
807.035,85.98881,-1.52256,-0.02485349,0.59727
807.735,86.05973,-1.52256,-0.02850265,0.59665
808.435,86.13073,-1.52389,-0.02950876,0.59602
809.135,86.20143,-1.52389,-0.02862916,0.5954
809.835,86.27257,-1.52255,-0.0345823,0.59478
810.535,86.3437,-1.52255,-0.0364201,0.59416
811.235,86.4153,-1.52255,-0.03660254,0.59353
811.935,86.48635,-1.52246,-0.04102361,0.59291
812.635,86.55748,-1.52387,-0.03738525,0.59229
813.335,86.62863,-1.52519,-0.04510274,0.59166
814.035,86.69981,-1.52519,-0.04413484,0.59104
814.735,86.7706,-1.5248,-0.0433792,0.59041
815.435,86.84174,-1.52458,-0.04742293,0.58979
816.135,86.9131,-1.52321,-0.04961129,0.58916
816.835,86.98501,-1.52449,-0.04980588,0.58854
817.535,87.05617,-1.52453,-0.04743008,0.58791
818.235,87.12751,-1.52453,-0.05086915,0.58729
818.935,87.19873,-1.52453,-0.05168395,0.58666
819.635,87.27039,-1.52496,-0.05934328,0.58604
820.335,87.34193,-1.52584,-0.06568392,0.58541
821.035,87.41338,-1.52446,-0.06023963,0.58478
821.735,87.48474,-1.52453,-0.06185378,0.58416
822.435,87.5561,-1.5256,-0.06401622,0.58353
823.135,87.62769,-1.52585,-0.06400427,0.5829
823.835,87.69949,-1.52717,-0.0655348,0.58228
824.535,87.77104,-1.52651,-0.07258201,0.58165
825.235,87.84262,-1.52651,-0.07075041,0.58102
825.935,87.91425,-1.52519,-0.0686357,0.58039
826.635,87.9859,-1.52519,-0.06962312,0.57976
827.335,88.0575,-1.5265,-0.07298063,0.57914
828.035,88.12905,-1.52651,-0.07502055,0.57851
828.735,88.20061,-1.52782,-0.07391458,0.57788
829.435,88.2722,-1.52679,-0.07342142,0.57725
830.135,88.3437,-1.52782,-0.078645,0.57662
830.835,88.4152,-1.52782,-0.08077864,0.57599
831.535,88.48663,-1.52782,-0.07932375,0.57536
832.235,88.55785,-1.52749,-0.07870828,0.57473
832.935,88.62885,-1.52618,-0.08534049,0.5741
833.635,88.69989,-1.52749,-0.08355644,0.57347
834.335,88.77083,-1.52749,-0.08765965,0.57284
835.035,88.84214,-1.52618,-0.09123884,0.57221
835.735,88.91306,-1.52618,-0.09045941,0.57158
836.435,88.98406,-1.52619,-0.09477002,0.57095
837.135,89.05461,-1.52659,-0.09288948,0.57032
837.835,89.12584,-1.52782,-0.10009,0.56969
838.535,89.19722,-1.52782,-0.10058,0.56905
839.235,89.26876,-1.52782,-0.10678,0.56842
839.935,89.33978,-1.52781,-0.10217,0.56779
840.635,89.41074,-1.52914,-0.10672,0.56716
841.335,89.48204,-1.52914,-0.10648,0.56653
842.035,89.55357,-1.52914,-0.10612,0.56589
842.735,89.62518,-1.52802,-0.11231,0.56526
843.435,89.69668,-1.52914,-0.11148,0.56463
844.135,89.76805,-1.52915,-0.11603,0.56399
844.835,89.8395,-1.53046,-0.11698,0.56336
845.535,89.9109,-1.53045,-0.12077,0.56273
846.235,89.98238,-1.53045,-0.12159,0.56209
846.335,89.9924,-1.53045,-0.12357,0.562