File: 01_Data/Pine_Lap_Siding_Paint/STA/N2/10K_min/Pine_Lap_Siding_Paint_STA_N2_10KData_220316_R2.csv
##Temp./Â°C,Time/min,Mass loss(subtr.2)/mg,DSC(subtr.2)/(mW/mg),Sensit./(uV/mW)
49.707,10.01,-0.03576,0.01506836,1.07515
50.407,10.76455,-0.03843118,0.04207761,1.07479
51.107,10.96468,-0.03886992,0.06015511,1.07442
51.807,11.1153,-0.03774548,0.07573566,1.07406
52.507,11.24275,-0.03863996,0.09078777,1.07369
53.207,11.35665,-0.03939495,0.10131,1.07333
53.907,11.46187,-0.03826273,0.10997,1.07296
54.607,11.56085,-0.04049985,0.11887,1.0726
55.307,11.65499,-0.04100338,0.12495,1.07223
56.007,11.74596,-0.04144919,0.13039,1.07187
56.707,11.83363,-0.04071885,0.13726,1.07151
57.407,11.91935,-0.04000325,0.13995,1.07114
58.107,12.0032,-0.04129696,0.14616,1.07078
58.807,12.0853,-0.04022067,0.14955,1.07041
59.507,12.16624,-0.04073197,0.15253,1.07005
60.207,12.24658,-0.04103998,0.15296,1.06969
60.907,12.32685,-0.04140427,0.15779,1.06932
61.607,12.4055,-0.04255416,0.15902,1.06896
62.307,12.48371,-0.04263916,0.1591,1.0686
63.007,12.56136,-0.04253918,0.1632,1.06823
63.707,12.63899,-0.04125308,0.16477,1.06787
64.407,12.71613,-0.04275912,0.16638,1.06751
65.107,12.79301,-0.04124936,0.16506,1.06714
65.807,12.86991,-0.04255713,0.16811,1.06678
66.507,12.946,-0.04251341,0.17126,1.06642
67.207,13.02181,-0.04337843,0.17211,1.06605
67.907,13.09727,-0.043758,0.17349,1.06569
68.607,13.1727,-0.04386936,0.17462,1.06533
69.307,13.24785,-0.04247988,0.1791,1.06496
70.007,13.32275,-0.04522751,0.17867,1.0646
70.707,13.39732,-0.04379091,0.17763,1.06424
71.407,13.4716,-0.04386401,0.18024,1.06388
72.107,13.54579,-0.04444893,0.17852,1.06351
72.807,13.62005,-0.04552987,0.17985,1.06315
73.507,13.69396,-0.04520108,0.18092,1.06279
74.207,13.76775,-0.04536114,0.18214,1.06243
74.907,13.8411,-0.04650412,0.18434,1.06206
75.607,13.9148,-0.04683848,0.18541,1.0617
76.307,13.98792,-0.04683096,0.18559,1.06134
77.007,14.0614,-0.04783069,0.1871,1.06098
77.707,14.1341,-0.04774082,0.18913,1.06062
78.407,14.20689,-0.04782282,0.19045,1.06025
79.107,14.27914,-0.04782087,0.19114,1.05989
79.807,14.35161,-0.04846413,0.19456,1.05953
80.507,14.4242,-0.04882411,0.19298,1.05917
81.207,14.49661,-0.04783126,0.19289,1.05881
81.907,14.56865,-0.04836816,0.19451,1.05845
82.607,14.6403,-0.0491554,0.1934,1.05809
83.307,14.7118,-0.04914017,0.19463,1.05772
84.007,14.7836,-0.04783258,0.19609,1.05736
84.707,14.8553,-0.04913865,0.19679,1.057
85.407,14.9267,-0.05046291,0.19911,1.05664
86.107,14.9975,-0.04914093,0.19658,1.05628
86.807,15.06831,-0.04911275,0.19882,1.05592
87.507,15.1392,-0.05045887,0.20146,1.05556
88.207,15.20925,-0.05043964,0.19939,1.0552
88.907,15.27945,-0.05047523,0.20121,1.05484
89.607,15.3493,-0.05046606,0.20349,1.05448
90.307,15.41995,-0.04913953,0.2014,1.05412
91.007,15.4901,-0.04946992,0.20324,1.05376
91.707,15.56024,-0.05046394,0.20256,1.0534
92.407,15.6301,-0.04915,0.20286,1.05304
93.107,15.69982,-0.04915138,0.20457,1.05268
93.807,15.7693,-0.05046044,0.20543,1.05232
94.507,15.83864,-0.05276359,0.2057,1.05196
95.207,15.90814,-0.05256521,0.20684,1.0516
95.907,15.9779,-0.05276602,0.20797,1.05124
96.607,16.04756,-0.05143362,0.20764,1.05088
97.307,16.11703,-0.05276029,0.20926,1.05052
98.007,16.18629,-0.05275977,0.20751,1.05016
98.707,16.2556,-0.05273198,0.20734,1.0498
99.407,16.32465,-0.05276994,0.20848,1.04944
100.107,16.3937,-0.05180299,0.21137,1.04908
100.807,16.4626,-0.05275816,0.21094,1.04872
101.507,16.53162,-0.0517714,0.20828,1.04836
102.207,16.60037,-0.05308969,0.21035,1.048
102.907,16.66916,-0.05441111,0.21245,1.04764
103.607,16.73784,-0.05441216,0.21221,1.04728
104.307,16.8066,-0.05408096,0.21296,1.04692
105.007,16.87527,-0.05275669,0.21456,1.04656
105.707,16.94426,-0.05266524,0.21663,1.04621
106.407,17.01321,-0.05277248,0.21406,1.04585
107.107,17.08219,-0.05346574,0.21565,1.04549
107.807,17.1509,-0.05407967,0.21537,1.04513
108.507,17.21956,-0.05275938,0.21502,1.04477
109.207,17.28827,-0.05407353,0.21897,1.04441
109.907,17.35678,-0.05538961,0.21668,1.04405
110.607,17.42501,-0.05540125,0.2179,1.0437
111.307,17.49363,-0.05539005,0.21661,1.04334
112.007,17.5623,-0.05624166,0.21772,1.04298
112.707,17.63126,-0.05539973,0.2171,1.04262
113.407,17.69953,-0.05539647,0.2178,1.04226
114.107,17.76785,-0.05458132,0.21878,1.04191
114.807,17.83644,-0.05538962,0.21652,1.04155
115.507,17.90514,-0.05668634,0.21742,1.04119
116.207,17.9738,-0.05670617,0.21891,1.04083
116.907,18.0423,-0.05736883,0.21902,1.04048
117.607,18.11099,-0.05736506,0.22069,1.04012
118.307,18.1795,-0.05605995,0.21904,1.03976
119.007,18.24796,-0.05659974,0.22154,1.0394
119.707,18.3163,-0.05671016,0.2205,1.03905
120.407,18.3841,-0.0579364,0.2223,1.03869
121.107,18.4524,-0.05800547,0.22096,1.03833
121.807,18.52074,-0.05935059,0.22067,1.03797
122.507,18.58948,-0.05803127,0.21994,1.03762
123.207,18.6571,-0.05803,0.22334,1.03726
123.907,18.72539,-0.05802974,0.22515,1.0369
124.607,18.79385,-0.05939082,0.22525,1.03655
125.307,18.86281,-0.05911421,0.22556,1.03619
126.007,18.93101,-0.05802068,0.2237,1.03583
126.707,18.999,-0.05671247,0.22499,1.03548
127.407,19.06682,-0.05683914,0.22505,1.03512
128.107,19.13485,-0.05805376,0.22615,1.03476
128.807,19.20296,-0.05934986,0.22696,1.03441
129.507,19.2712,-0.05934999,0.22588,1.03405
130.207,19.33951,-0.05904994,0.22488,1.03369
130.907,19.40762,-0.05836004,0.2251,1.03334
131.607,19.47564,-0.05835323,0.22649,1.03298
132.307,19.54346,-0.05930547,0.22893,1.03263
133.007,19.61133,-0.05857591,0.22537,1.03227
133.707,19.6793,-0.05934261,0.22872,1.03191
134.407,19.74726,-0.05802065,0.22741,1.03156
135.107,19.81502,-0.05932698,0.22514,1.0312
135.807,19.8829,-0.05933914,0.22711,1.03085
136.507,19.95062,-0.05874219,0.22716,1.03049
137.207,20.01856,-0.05904674,0.22971,1.03013
137.907,20.08634,-0.05821516,0.22873,1.02978
138.607,20.15436,-0.05835009,0.22933,1.02942
139.307,20.22202,-0.05912264,0.22944,1.02907
140.007,20.2896,-0.05967278,0.22877,1.02871
140.707,20.3571,-0.05935038,0.23034,1.02836
141.407,20.42473,-0.05935,0.22799,1.028
142.107,20.4924,-0.05935208,0.23098,1.02765
142.807,20.56004,-0.05835997,0.22831,1.02729
143.507,20.6276,-0.05827444,0.23021,1.02694
144.207,20.69507,-0.05969295,0.2314,1.02658
144.907,20.76233,-0.06098913,0.2324,1.02623
145.607,20.82987,-0.06099,0.23285,1.02587
146.307,20.8973,-0.06098953,0.23272,1.02552
147.007,20.96475,-0.06231695,0.23212,1.02516
147.707,21.0323,-0.06175507,0.23033,1.02481
148.407,21.09954,-0.0609769,0.2322,1.02445
149.107,21.16681,-0.06220577,0.23614,1.0241
149.807,21.234,-0.06329985,0.23772,1.02374
150.507,21.30119,-0.0633,0.23586,1.02339
151.207,21.36844,-0.06329932,0.23615,1.02303
151.907,21.4357,-0.0620703,0.23813,1.02268
152.607,21.5031,-0.06328987,0.23847,1.02232
153.307,21.5704,-0.06328952,0.23878,1.02197
154.007,21.6374,-0.06460774,0.23708,1.02161
154.707,21.7045,-0.06393884,0.2393,1.02126
155.407,21.7716,-0.06329036,0.23973,1.02091
156.107,21.83888,-0.06329195,0.23915,1.02055
156.807,21.90614,-0.06197707,0.24026,1.0202
157.507,21.97342,-0.06198069,0.24111,1.01984
158.207,22.04056,-0.06328328,0.24096,1.01949
158.907,22.1078,-0.06196946,0.24144,1.01914
159.607,22.17495,-0.06262957,0.23885,1.01878
160.307,22.2422,-0.06469257,0.23992,1.01843
161.007,22.3094,-0.06397724,0.24101,1.01807
161.707,22.3765,-0.06392494,0.24138,1.01772
162.407,22.44352,-0.0639363,0.24337,1.01737
163.107,22.51043,-0.0639495,0.2415,1.01701
163.807,22.5776,-0.06525919,0.24294,1.01666
164.507,22.64481,-0.06526,0.24294,1.0163
165.207,22.7121,-0.06526157,0.24194,1.01595
165.907,22.77923,-0.06395184,0.24264,1.0156
166.607,22.8463,-0.06534487,0.2419,1.01524
167.307,22.9135,-0.06661438,0.24346,1.01489
168.007,22.9807,-0.06657987,0.24215,1.01454
168.707,23.04797,-0.0652498,0.24543,1.01418
169.407,23.11508,-0.06517837,0.24677,1.01383
170.107,23.18235,-0.06659004,0.24692,1.01348
170.807,23.2495,-0.06659,0.24766,1.01312
171.507,23.3167,-0.06659,0.24539,1.01277
172.207,23.38395,-0.06659,0.24625,1.01242
172.907,23.45113,-0.0665899,0.24761,1.01206
173.607,23.51844,-0.06789222,0.24835,1.01171
174.307,23.5855,-0.06660267,0.24975,1.01136
175.007,23.65268,-0.06657627,0.24895,1.011
175.707,23.71985,-0.0679,0.24925,1.01065
176.407,23.787,-0.06656901,0.24922,1.0103
177.107,23.85409,-0.0679005,0.24847,1.00994
177.807,23.92106,-0.0679,0.25025,1.00959
178.507,23.98797,-0.06790001,0.25164,1.00924
179.207,24.0546,-0.06786476,0.25163,1.00888
179.907,24.12165,-0.06763967,0.2548,1.00853
180.607,24.18864,-0.06791781,0.25318,1.00818
181.307,24.25585,-0.06886557,0.25311,1.00782
182.007,24.32285,-0.06954412,0.25241,1.00747
182.707,24.38971,-0.06822009,0.25384,1.00712
183.407,24.45641,-0.06814711,0.25291,1.00677
184.107,24.52321,-0.06954174,0.25386,1.00641
184.807,24.58997,-0.06954,0.25335,1.00606
185.507,24.65675,-0.07024664,0.25465,1.00571
186.207,24.72319,-0.0702,0.25603,1.00535
186.907,24.78969,-0.0702,0.25615,1.005
187.607,24.8562,-0.0702,0.25814,1.00465
188.307,24.92274,-0.07019651,0.25602,1.0043
189.007,24.9895,-0.06987662,0.25925,1.00394
189.707,25.056,-0.07089972,0.26037,1.00359
190.407,25.12279,-0.07085999,0.26096,1.00324
191.107,25.18919,-0.07086006,0.25908,1.00288
191.807,25.2559,-0.07214918,0.26048,1.00253
192.507,25.3222,-0.07216999,0.25953,1.00218
193.207,25.3887,-0.07215438,0.26083,1.00183
193.907,25.45514,-0.07086012,0.26013,1.00147
194.607,25.5217,-0.07085773,0.25763,1.00112
195.307,25.58834,-0.07217939,0.25799,1.00077
196.007,25.65491,-0.07218661,0.2587,1.00042
196.707,25.72147,-0.07085966,0.26087,1.00006
197.407,25.78807,-0.07085716,0.25699,0.99971
198.107,25.85458,-0.07327737,0.25907,0.99936
198.807,25.921,-0.07316951,0.26,0.99901
199.507,25.98755,-0.07350121,0.26034,0.99865
200.207,26.05414,-0.07386197,0.26031,0.9983
200.907,26.1209,-0.07349634,0.26017,0.99795
201.607,26.18759,-0.07349162,0.26211,0.99759
202.307,26.25453,-0.07480654,0.26188,0.99724
203.007,26.3211,-0.07349097,0.26286,0.99689
203.707,26.3879,-0.07349007,0.26334,0.99654
204.407,26.45465,-0.07244094,0.26364,0.99618
205.107,26.5215,-0.07249802,0.26146,0.99583
205.807,26.58817,-0.07381934,0.26086,0.99548
206.507,26.65464,-0.07381955,0.26218,0.99513
207.207,26.7215,-0.07514463,0.26392,0.99477
207.907,26.78851,-0.07514012,0.26417,0.99442
208.607,26.8554,-0.07482086,0.26382,0.99407
209.307,26.92199,-0.07448057,0.26417,0.99372
210.007,26.98863,-0.07504822,0.26156,0.99336
210.707,27.0551,-0.07546998,0.26437,0.99301
211.407,27.12173,-0.07547,0.26237,0.99266
212.107,27.18836,-0.07546515,0.26631,0.9923
212.807,27.255,-0.07679072,0.26677,0.99195
213.507,27.3217,-0.0754322,0.26349,0.9916
214.207,27.38826,-0.07581173,0.26365,0.99125
214.907,27.455,-0.07626364,0.26496,0.99089
215.607,27.52158,-0.07781868,0.2664,0.99054
216.307,27.58829,-0.07778947,0.26733,0.99019
217.007,27.65485,-0.07776326,0.26595,0.98984
217.707,27.7216,-0.07776985,0.26777,0.98948
218.407,27.7882,-0.07908175,0.26639,0.98913
219.107,27.85485,-0.07942242,0.26686,0.98878
219.807,27.92148,-0.07942,0.26443,0.98842
220.507,27.988,-0.07942,0.26749,0.98807
221.207,28.0547,-0.07942,0.26605,0.98772
221.907,28.1214,-0.07942198,0.26515,0.98736
222.607,28.1883,-0.0784274,0.26626,0.98701
223.307,28.2549,-0.07842949,0.26852,0.98666
224.007,28.32187,-0.07974509,0.26616,0.98631
224.707,28.3886,-0.08105359,0.26755,0.98595
225.407,28.4555,-0.07967854,0.26756,0.9856
226.107,28.5223,-0.08073027,0.26775,0.98525
226.807,28.58907,-0.08072347,0.26738,0.98489
227.507,28.65595,-0.07942079,0.26843,0.98454
228.207,28.72285,-0.07941791,0.26751,0.98419
228.907,28.78973,-0.08072937,0.26841,0.98383
229.607,28.85652,-0.08073,0.26892,0.98348
230.307,28.9233,-0.08072541,0.26788,0.98313
231.007,28.9899,-0.08204998,0.26854,0.98277
231.707,29.05653,-0.0820595,0.27119,0.98242
232.407,29.12313,-0.08238018,0.26857,0.98207
233.107,29.18998,-0.08238,0.2696,0.98171
233.807,29.2568,-0.08238,0.26935,0.98136
234.507,29.32355,-0.0823792,0.27179,0.98101
235.207,29.39009,-0.08337023,0.27219,0.98065
235.907,29.45702,-0.08337005,0.2709,0.9803
236.607,29.5238,-0.08374268,0.27182,0.97994
237.307,29.5911,-0.0840301,0.26997,0.97959
238.007,29.65785,-0.08403,0.27103,0.97924
238.707,29.72458,-0.08403,0.27048,0.97888
239.407,29.7915,-0.08403006,0.27219,0.97853
240.107,29.8582,-0.08592745,0.27327,0.97818
240.807,29.925,-0.08598589,0.27445,0.97782
241.507,29.9915,-0.08698079,0.27601,0.97747
242.207,30.05803,-0.08698019,0.27712,0.97711
242.907,30.12476,-0.08588986,0.27651,0.97676
243.607,30.19159,-0.08664999,0.27772,0.97641
244.307,30.2582,-0.08664998,0.27673,0.97605
245.007,30.32481,-0.08690037,0.27874,0.9757
245.707,30.39105,-0.08796997,0.28144,0.97534
246.407,30.4579,-0.08797,0.27937,0.97499
247.107,30.52458,-0.08796984,0.27969,0.97463
247.807,30.5916,-0.0882933,0.28017,0.97428
248.507,30.65837,-0.08913152,0.27999,0.97392
249.207,30.72529,-0.09060815,0.28196,0.97357
249.907,30.79215,-0.09061,0.28384,0.97321
250.607,30.859,-0.09061,0.28413,0.97286
251.307,30.9257,-0.09061935,0.28498,0.9725
252.007,30.9924,-0.09093666,0.28658,0.97215
252.707,31.0593,-0.0922496,0.2867,0.97179
253.407,31.1265,-0.0935651,0.28677,0.97144
254.107,31.1938,-0.09202149,0.28701,0.97108
254.807,31.26065,-0.09306292,0.2904,0.97073
255.507,31.32743,-0.09347824,0.29169,0.97037
256.207,31.39422,-0.09368004,0.29082,0.97002
256.907,31.4611,-0.09367991,0.29128,0.96966
257.607,31.52758,-0.09498731,0.29486,0.96931
258.307,31.59435,-0.09526718,0.29856,0.96895
259.007,31.6613,-0.09663033,0.29809,0.9686
259.707,31.7287,-0.09695658,0.29801,0.96824
260.407,31.7955,-0.09762347,0.29739,0.96789
261.107,31.86246,-0.09893829,0.2987,0.96753
261.807,31.92923,-0.09894007,0.29893,0.96717
262.507,31.9962,-0.09861724,0.30154,0.96682
263.207,32.06301,-0.09855016,0.30395,0.96646
263.907,32.12986,-0.09993,0.30419,0.96611
264.607,32.19693,-0.10033,0.30603,0.96575
265.307,32.26396,-0.10124,0.30726,0.96539
266.007,32.33109,-0.10123,0.30685,0.96504
266.707,32.39819,-0.10256,0.30711,0.96468
267.407,32.46503,-0.10385,0.30834,0.96432
268.107,32.53202,-0.10495,0.30838,0.96397
268.807,32.59891,-0.10483,0.30805,0.96361
269.507,32.66583,-0.10619,0.3099,0.96325
270.207,32.73291,-0.10684,0.30793,0.9629
270.907,32.7998,-0.1075,0.30868,0.96254
271.607,32.86691,-0.1075,0.3063,0.96218
272.307,32.93392,-0.10891,0.3055,0.96182
273.007,33.0011,-0.10881,0.30785,0.96147
273.707,33.06795,-0.1091,0.30523,0.96111
274.407,33.13479,-0.11046,0.30217,0.96075
275.107,33.20172,-0.11043,0.30239,0.96039
275.807,33.26905,-0.11178,0.30523,0.96004
276.507,33.33631,-0.11341,0.30028,0.95968
277.207,33.40345,-0.1144,0.29824,0.95932
277.907,33.47039,-0.1144,0.29922,0.95896
278.607,33.53736,-0.11572,0.29716,0.9586
279.307,33.6044,-0.11572,0.29896,0.95824
280.007,33.6715,-0.11573,0.29725,0.95789
280.707,33.7385,-0.11703,0.29686,0.95753
281.407,33.80525,-0.11702,0.29498,0.95717
282.107,33.87171,-0.11835,0.29278,0.95681
282.807,33.93884,-0.11966,0.29171,0.95645
283.507,34.00612,-0.11967,0.29136,0.95609
284.207,34.07387,-0.11967,0.292,0.95573
284.907,34.14103,-0.1204,0.29198,0.95537
285.607,34.20818,-0.11925,0.29016,0.95502
286.307,34.2751,-0.12019,0.29126,0.95466
287.007,34.3422,-0.12316,0.28882,0.9543
287.707,34.4094,-0.12449,0.29022,0.95394
288.407,34.47676,-0.12449,0.29162,0.95358
289.107,34.5439,-0.12449,0.28894,0.95322
289.807,34.61111,-0.1245,0.29006,0.95286
290.507,34.67822,-0.12581,0.2879,0.9525
291.207,34.74544,-0.12581,0.28965,0.95214
291.907,34.8124,-0.12581,0.29109,0.95178
292.607,34.87947,-0.12581,0.28642,0.95142
293.307,34.94648,-0.12797,0.28807,0.95105
294.007,35.01334,-0.12922,0.28703,0.95069
294.707,35.0803,-0.13088,0.28922,0.95033
295.407,35.1471,-0.13185,0.28813,0.94997
296.107,35.21435,-0.13177,0.29106,0.94961
296.807,35.2813,-0.13217,0.29225,0.94925
297.507,35.34852,-0.13218,0.29206,0.94889
298.207,35.4153,-0.13225,0.29037,0.94853
298.907,35.4825,-0.13349,0.29202,0.94816
299.607,35.54952,-0.13511,0.29028,0.9478
300.307,35.61691,-0.13615,0.29082,0.94744
301.007,35.68403,-0.13744,0.29376,0.94708
301.707,35.75123,-0.13744,0.29255,0.94672
302.407,35.8185,-0.13746,0.29549,0.94635
303.107,35.88583,-0.13892,0.29482,0.94599
303.807,35.95303,-0.13888,0.29527,0.94563
304.507,36.0201,-0.1415,0.29274,0.94526
305.207,36.0871,-0.1415,0.29518,0.9449
305.907,36.1543,-0.14285,0.29501,0.94454
306.607,36.22173,-0.1423,0.29699,0.94418
307.307,36.2892,-0.14414,0.29717,0.94381
308.007,36.35649,-0.14414,0.29609,0.94345
308.707,36.42346,-0.14545,0.29789,0.94308
309.407,36.49075,-0.14677,0.29988,0.94272
310.107,36.55831,-0.14932,0.29974,0.94236
310.807,36.6261,-0.14939,0.29934,0.94199
311.507,36.6935,-0.14938,0.29964,0.94163
312.207,36.76078,-0.14959,0.30153,0.94126
312.907,36.82822,-0.15202,0.30448,0.9409
313.607,36.89571,-0.15333,0.30205,0.94053
314.307,36.96335,-0.15469,0.30341,0.94017
315.007,37.03069,-0.15731,0.30313,0.9398
315.707,37.09812,-0.15597,0.30395,0.93944
316.407,37.1655,-0.15729,0.30376,0.93907
317.107,37.23299,-0.1585,0.30548,0.93871
317.807,37.3004,-0.16006,0.30724,0.93834
318.507,37.368,-0.16267,0.30409,0.93797
319.207,37.43549,-0.16343,0.30685,0.93761
319.907,37.50292,-0.16464,0.30825,0.93724
320.607,37.5702,-0.16596,0.30748,0.93687
321.307,37.63758,-0.16726,0.30762,0.93651
322.007,37.705,-0.16859,0.30991,0.93614
322.707,37.77233,-0.16987,0.30861,0.93577
323.407,37.83963,-0.17254,0.31114,0.93541
324.107,37.907,-0.17619,0.30944,0.93504
324.807,37.9746,-0.17806,0.3095,0.93467
325.507,38.04225,-0.17934,0.30852,0.9343
326.207,38.10991,-0.18066,0.3088,0.93394
326.907,38.17739,-0.18204,0.31026,0.93357
327.607,38.24481,-0.1834,0.30735,0.9332
328.307,38.31211,-0.18467,0.30549,0.93283
329.007,38.3793,-0.18838,0.30474,0.93246
329.707,38.44664,-0.19151,0.3082,0.93209
330.407,38.5139,-0.19482,0.30733,0.93172
331.107,38.5815,-0.19906,0.30496,0.93135
331.807,38.64891,-0.19836,0.30605,0.93098
332.507,38.7164,-0.19971,0.30437,0.93061
333.207,38.78395,-0.2011,0.30359,0.93024
333.907,38.85154,-0.20236,0.30217,0.92987
334.607,38.91901,-0.20572,0.30043,0.9295
335.307,38.98653,-0.20872,0.29986,0.92913
336.007,39.05406,-0.21065,0.29838,0.92876
336.707,39.12173,-0.21345,0.29859,0.92839
337.407,39.18935,-0.21548,0.29741,0.92802
338.107,39.25703,-0.21836,0.29844,0.92765
338.807,39.3247,-0.22068,0.29558,0.92728
339.507,39.39247,-0.22384,0.29779,0.92691
340.207,39.46018,-0.22673,0.29585,0.92653
340.907,39.5281,-0.22885,0.29262,0.92616
341.607,39.5959,-0.23199,0.29442,0.92579
342.307,39.6636,-0.23376,0.29512,0.92542
343.007,39.73129,-0.23605,0.29021,0.92504
343.707,39.79892,-0.23804,0.29402,0.92467
344.407,39.86673,-0.24164,0.29268,0.9243
345.107,39.9347,-0.2433,0.2909,0.92393
345.807,40.00248,-0.24557,0.28953,0.92355
346.507,40.07031,-0.24757,0.29098,0.92318
347.207,40.13814,-0.24919,0.2897,0.9228
347.907,40.20592,-0.25182,0.28908,0.92243
348.607,40.27383,-0.2547,0.28867,0.92205
349.307,40.34162,-0.25587,0.28952,0.92168
350.007,40.4094,-0.2572,0.28728,0.92131
350.707,40.47726,-0.25993,0.28637,0.92093
351.407,40.545,-0.26235,0.28763,0.92055
352.107,40.6126,-0.26447,0.2875,0.92018
352.807,40.68034,-0.26578,0.28422,0.9198
353.507,40.74812,-0.2677,0.28683,0.91943
354.207,40.81596,-0.26993,0.28438,0.91905
354.907,40.88362,-0.27126,0.28157,0.91867
355.607,40.95135,-0.27258,0.28381,0.9183
356.307,41.0188,-0.27383,0.28319,0.91792
357.007,41.08664,-0.27637,0.28215,0.91754
357.707,41.15437,-0.27834,0.27995,0.91717
358.407,41.22244,-0.28066,0.2808,0.91679
359.107,41.29022,-0.28333,0.27715,0.91641
359.807,41.3579,-0.28483,0.27532,0.91603
360.507,41.42572,-0.28595,0.27509,0.91565
361.207,41.4936,-0.28724,0.27341,0.91528
361.907,41.56171,-0.28858,0.27527,0.9149
362.607,41.62956,-0.2899,0.27348,0.91452
363.307,41.69744,-0.28987,0.2725,0.91414
364.007,41.76536,-0.29127,0.27162,0.91376
364.707,41.83328,-0.29331,0.26998,0.91338
365.407,41.90136,-0.29461,0.27088,0.913
366.107,41.96927,-0.29591,0.27156,0.91262
366.807,42.037,-0.29863,0.27108,0.91224
367.507,42.10483,-0.29866,0.26845,0.91186
368.207,42.17272,-0.30114,0.27105,0.91148
368.907,42.24088,-0.30158,0.27007,0.9111
369.607,42.30888,-0.30164,0.27175,0.91071
370.307,42.3767,-0.30296,0.26918,0.91033
371.007,42.4446,-0.30296,0.26844,0.90995
371.707,42.51235,-0.30432,0.26828,0.90957
372.407,42.58028,-0.30559,0.27021,0.90919
373.107,42.64816,-0.308,0.26884,0.9088
373.807,42.71618,-0.30931,0.27106,0.90842
374.507,42.78393,-0.31062,0.27087,0.90804
375.207,42.85167,-0.31173,0.27313,0.90765
375.907,42.91941,-0.31239,0.27343,0.90727
376.607,42.98726,-0.31311,0.27391,0.90688
377.307,43.05525,-0.31399,0.27569,0.9065
378.007,43.1233,-0.31713,0.2774,0.90612
378.707,43.1912,-0.31764,0.274,0.90573
379.407,43.259,-0.31799,0.27416,0.90535
380.107,43.32677,-0.32066,0.27953,0.90496
380.807,43.39457,-0.32204,0.27837,0.90457
381.507,43.4624,-0.32334,0.27785,0.90419
382.207,43.53034,-0.32468,0.2803,0.9038
382.907,43.59823,-0.32579,0.28099,0.90342
383.607,43.6661,-0.32856,0.2827,0.90303
384.307,43.73405,-0.32867,0.2847,0.90264
385.007,43.8022,-0.32997,0.28545,0.90225
385.707,43.87048,-0.33125,0.28657,0.90187
386.407,43.9386,-0.33257,0.28532,0.90148
387.107,44.0066,-0.33491,0.28853,0.90109
387.807,44.0747,-0.33648,0.2884,0.9007
388.507,44.1429,-0.33915,0.28979,0.90031
389.207,44.21099,-0.33915,0.29002,0.89993
389.907,44.2791,-0.34137,0.2901,0.89954
390.607,44.347,-0.34311,0.29278,0.89915
391.307,44.4152,-0.34587,0.29583,0.89876
392.007,44.48333,-0.34834,0.29666,0.89837
392.707,44.55149,-0.34978,0.29997,0.89798
393.407,44.61965,-0.35173,0.29844,0.89759
394.107,44.68768,-0.35529,0.3032,0.89719
394.807,44.7558,-0.35676,0.30578,0.8968
395.507,44.82407,-0.3598,0.30759,0.89641
396.207,44.89221,-0.36136,0.31255,0.89602
396.907,44.96045,-0.36405,0.31462,0.89563
397.607,45.02848,-0.36677,0.31536,0.89523
398.307,45.0968,-0.36949,0.31307,0.89484
399.007,45.1649,-0.37121,0.31676,0.89445
399.707,45.23316,-0.37369,0.3182,0.89406
400.407,45.3016,-0.3767,0.32015,0.89366
401.107,45.36996,-0.37951,0.31928,0.89327
401.807,45.4383,-0.38103,0.32466,0.89287
402.507,45.5065,-0.3844,0.32263,0.89248
403.207,45.57458,-0.38799,0.3273,0.89208
403.907,45.64281,-0.39126,0.32539,0.89169
404.607,45.71113,-0.39423,0.32786,0.89129
405.307,45.77948,-0.39769,0.33148,0.8909
406.007,45.8478,-0.40067,0.33163,0.8905
406.707,45.91612,-0.40337,0.32992,0.89011
407.407,45.98429,-0.40612,0.32931,0.88971
408.107,46.05237,-0.40768,0.32978,0.88931
408.807,46.12032,-0.41236,0.3279,0.88891
409.507,46.1885,-0.41635,0.32974,0.88852
410.207,46.25691,-0.41939,0.32847,0.88812
410.907,46.32508,-0.41988,0.32821,0.88772
411.607,46.3932,-0.42521,0.32588,0.88732
412.307,46.46148,-0.42825,0.32401,0.88692
413.007,46.52977,-0.43128,0.32168,0.88652
413.707,46.59811,-0.43246,0.31678,0.88612
414.407,46.6664,-0.4326,0.31483,0.88572
415.107,46.7348,-0.43554,0.31277,0.88532
415.807,46.80328,-0.43838,0.30737,0.88492
416.507,46.87169,-0.44189,0.30344,0.88452
417.207,46.9403,-0.44544,0.30034,0.88412
417.907,47.0088,-0.44509,0.2983,0.88372
418.607,47.0774,-0.44709,0.29371,0.88332
419.307,47.14601,-0.44988,0.29072,0.88292
420.007,47.2143,-0.45149,0.28912,0.88251
420.707,47.28277,-0.45276,0.28805,0.88211
421.407,47.3511,-0.45517,0.28505,0.88171
422.107,47.41981,-0.45674,0.27902,0.88131
422.807,47.48826,-0.45805,0.27617,0.8809
423.507,47.55663,-0.4615,0.27504,0.8805
424.207,47.62473,-0.46293,0.27354,0.88009
424.907,47.69298,-0.46586,0.27295,0.87969
425.607,47.76157,-0.46459,0.27007,0.87928
426.307,47.83052,-0.46586,0.26728,0.87888
427.007,47.89951,-0.46845,0.26596,0.87847
427.707,47.96816,-0.46964,0.26507,0.87807
428.407,48.0368,-0.4715,0.26451,0.87766
429.107,48.1053,-0.47306,0.26664,0.87725
429.807,48.1739,-0.47439,0.26224,0.87685
430.507,48.24259,-0.47572,0.26358,0.87644
431.207,48.31125,-0.47706,0.26162,0.87603
431.907,48.37995,-0.47769,0.26096,0.87562
432.607,48.44866,-0.47966,0.25839,0.87521
433.307,48.5176,-0.47998,0.25958,0.87481
434.007,48.5865,-0.47999,0.2629,0.8744
434.707,48.6554,-0.48129,0.25965,0.87399
435.407,48.7241,-0.48262,0.26005,0.87358
436.107,48.7928,-0.48389,0.25889,0.87317
436.807,48.8613,-0.48537,0.26058,0.87276
437.507,48.92971,-0.4859,0.25762,0.87235
438.207,48.99858,-0.48858,0.25787,0.87193
438.907,49.06739,-0.48855,0.25974,0.87152
439.607,49.13667,-0.48986,0.25889,0.87111
440.307,49.20556,-0.49186,0.25994,0.8707
441.007,49.2746,-0.4918,0.26037,0.87029
441.707,49.34361,-0.49048,0.26151,0.86987
442.407,49.4123,-0.49183,0.262,0.86946
443.107,49.48104,-0.49392,0.26059,0.86905
443.807,49.5499,-0.49447,0.25829,0.86863
444.507,49.6188,-0.49546,0.25953,0.86822
445.207,49.6877,-0.49701,0.26306,0.8678
445.907,49.75665,-0.49842,0.26373,0.86739
446.607,49.82581,-0.49982,0.2631,0.86697
447.307,49.8947,-0.50105,0.26484,0.86656
448.007,49.9636,-0.50105,0.26428,0.86614
448.707,50.03246,-0.50097,0.26504,0.86572
449.407,50.1014,-0.50236,0.26681,0.86531
450.107,50.17035,-0.50369,0.26524,0.86489
450.807,50.23918,-0.50632,0.26615,0.86447
451.507,50.308,-0.50632,0.26513,0.86405
452.207,50.37675,-0.50664,0.26854,0.86364
452.907,50.44562,-0.50753,0.26692,0.86322
453.607,50.51468,-0.50895,0.26716,0.8628
454.307,50.58365,-0.51026,0.26858,0.86238
455.007,50.65255,-0.51158,0.26968,0.86196
455.707,50.7215,-0.51292,0.26835,0.86154
456.407,50.79045,-0.51289,0.27256,0.86112
457.107,50.85944,-0.51421,0.27007,0.8607
457.807,50.92832,-0.51626,0.27061,0.86028
458.507,50.9973,-0.51706,0.26893,0.85985
459.207,51.0664,-0.51703,0.26975,0.85943
459.907,51.13568,-0.51926,0.27163,0.85901
460.607,51.20497,-0.51996,0.27278,0.85859
461.307,51.27415,-0.51971,0.26987,0.85816
462.007,51.34337,-0.52102,0.27172,0.85774
462.707,51.4126,-0.52246,0.27093,0.85732
463.407,51.482,-0.52496,0.27209,0.85689
464.107,51.55151,-0.52503,0.27126,0.85647
464.807,51.6212,-0.52572,0.26963,0.85604
465.507,51.6905,-0.52792,0.26819,0.85562
466.207,51.7601,-0.52891,0.26853,0.85519
466.907,51.82943,-0.52985,0.26885,0.85476
467.607,51.89906,-0.53056,0.26676,0.85434
468.307,51.96824,-0.53188,0.26794,0.85391
469.007,52.03781,-0.53205,0.26803,0.85348
469.707,52.10726,-0.53449,0.26741,0.85305
470.407,52.17688,-0.5345,0.26691,0.85263
471.107,52.2462,-0.53577,0.26545,0.8522
471.807,52.31542,-0.53714,0.26662,0.85177
472.507,52.38467,-0.53863,0.26627,0.85134
473.207,52.45398,-0.53939,0.26587,0.85091
473.907,52.52338,-0.53892,0.26588,0.85048
474.607,52.59267,-0.54033,0.26702,0.85005
475.307,52.66179,-0.5415,0.26782,0.84962
476.007,52.73086,-0.54284,0.2662,0.84919
476.707,52.8,-0.54416,0.26434,0.84875
477.407,52.8691,-0.54416,0.26476,0.84832
478.107,52.9382,-0.54547,0.26531,0.84789
478.807,53.00731,-0.54547,0.26161,0.84746
479.507,53.07655,-0.54669,0.26277,0.84702
480.207,53.1456,-0.54778,0.26079,0.84659
480.907,53.21475,-0.54779,0.26282,0.84616
481.607,53.28383,-0.54843,0.25963,0.84572
482.307,53.3532,-0.54849,0.25929,0.84529
483.007,53.4223,-0.54911,0.25896,0.84485
483.707,53.49142,-0.55042,0.2582,0.84442
484.407,53.5605,-0.55304,0.25847,0.84398
485.107,53.6296,-0.55304,0.25512,0.84354
485.807,53.6986,-0.5544,0.25815,0.84311
486.507,53.7677,-0.5537,0.25622,0.84267
487.207,53.837,-0.55432,0.25674,0.84223
487.907,53.90622,-0.55435,0.25622,0.84179
488.607,53.97557,-0.556,0.25728,0.84135
489.307,54.04473,-0.55732,0.25197,0.84091
490.007,54.11402,-0.55732,0.25468,0.84048
490.707,54.1833,-0.55732,0.25344,0.84004
491.407,54.25266,-0.55868,0.25318,0.8396
492.107,54.32195,-0.55863,0.25408,0.83916
492.807,54.39121,-0.55868,0.24957,0.83871
493.507,54.46049,-0.56126,0.25123,0.83827
494.207,54.52995,-0.56126,0.25205,0.83783
494.907,54.59935,-0.56027,0.25406,0.83739
495.607,54.66855,-0.56024,0.25146,0.83695
496.307,54.7378,-0.56159,0.25022,0.8365
497.007,54.8072,-0.5629,0.2519,0.83606
497.707,54.8766,-0.56291,0.25074,0.83562
498.407,54.94591,-0.56293,0.25089,0.83517
499.107,55.0152,-0.5639,0.24966,0.83473
499.807,55.0846,-0.56422,0.25139,0.83428
500.507,55.15406,-0.56559,0.25702,0.83384
501.207,55.2232,-0.56522,0.25686,0.83339
501.907,55.2925,-0.56652,0.26177,0.83294
502.607,55.36164,-0.56522,0.26259,0.8325
503.307,55.43091,-0.56653,0.26178,0.83205
504.007,55.50039,-0.56653,0.26489,0.8316
504.707,55.56975,-0.56653,0.26319,0.83115
505.407,55.63932,-0.56785,0.26754,0.83071
506.107,55.7085,-0.56785,0.2631,0.83026
506.807,55.77794,-0.56915,0.26469,0.82981
507.507,55.8472,-0.56916,0.26594,0.82936
508.207,55.91675,-0.56915,0.26841,0.82891
508.907,55.98625,-0.56918,0.2652,0.82846
509.607,56.05582,-0.57027,0.26731,0.82801
510.307,56.12536,-0.57048,0.26457,0.82755
511.007,56.1949,-0.57057,0.26812,0.8271
511.707,56.2644,-0.57049,0.26729,0.82665
512.407,56.334,-0.5704,0.26905,0.8262
513.107,56.4035,-0.57278,0.26982,0.82574
513.807,56.4731,-0.57415,0.27055,0.82529
514.507,56.54254,-0.5741,0.26778,0.82484
515.207,56.612,-0.57364,0.27277,0.82438
515.907,56.68124,-0.57443,0.27545,0.82393
516.607,56.7507,-0.57443,0.28061,0.82347
517.307,56.82,-0.57443,0.28222,0.82302
518.007,56.88958,-0.57541,0.2831,0.82256
518.707,56.95885,-0.57541,0.28524,0.8221
519.407,57.02822,-0.57541,0.28625,0.82165
520.107,57.09774,-0.57602,0.28673,0.82119
520.807,57.16724,-0.57522,0.2875,0.82073
521.507,57.2369,-0.57542,0.28778,0.82027
522.207,57.3065,-0.57673,0.28535,0.81981
522.907,57.376,-0.57673,0.28549,0.81935
523.607,57.44555,-0.57673,0.28819,0.81889
524.307,57.51511,-0.57672,0.28628,0.81843
525.007,57.58478,-0.57807,0.28745,0.81797
525.707,57.65413,-0.58006,0.2901,0.81751
526.407,57.7238,-0.58131,0.2879,0.81705
527.107,57.79354,-0.58134,0.28529,0.81659
527.807,57.8636,-0.58134,0.28404,0.81613
528.507,57.93331,-0.58199,0.28315,0.81567
529.207,58.003,-0.58134,0.28608,0.8152
529.907,58.0728,-0.58134,0.28345,0.81474
530.607,58.14264,-0.58135,0.27795,0.81427
531.307,58.21233,-0.58233,0.2749,0.81381
532.007,58.282,-0.58233,0.27179,0.81335
532.707,58.3518,-0.58269,0.26523,0.81288
533.407,58.42175,-0.58361,0.2603,0.81241
534.107,58.49154,-0.58496,0.25986,0.81195
534.807,58.56126,-0.58494,0.25837,0.81148
535.507,58.63103,-0.58628,0.25163,0.81101
536.207,58.70078,-0.58666,0.24899,0.81055
536.907,58.7704,-0.58727,0.24681,0.81008
537.607,58.8398,-0.58628,0.24637,0.80961
538.307,58.90919,-0.58629,0.24376,0.80914
539.007,58.97866,-0.58627,0.24478,0.80867
539.707,59.0483,-0.58762,0.24144,0.8082
540.407,59.1181,-0.58759,0.24192,0.80773
541.107,59.18776,-0.58759,0.23943,0.80726
541.807,59.2575,-0.58759,0.23784,0.80679
542.507,59.3272,-0.58698,0.23461,0.80632
543.207,59.39686,-0.58825,0.23144,0.80585
543.907,59.46654,-0.58825,0.2322,0.80538
544.607,59.5362,-0.58825,0.22608,0.8049
545.307,59.60601,-0.58825,0.22576,0.80443
546.007,59.67572,-0.58956,0.22339,0.80396
546.707,59.7455,-0.58956,0.22073,0.80348
547.407,59.81521,-0.58951,0.21734,0.80301
548.107,59.88505,-0.59088,0.21847,0.80253
548.807,59.9549,-0.59114,0.21957,0.80206
549.507,60.02479,-0.5922,0.21762,0.80158
550.207,60.09465,-0.59091,0.21828,0.8011
550.907,60.16454,-0.59089,0.2201,0.80063
551.607,60.23432,-0.59089,0.22157,0.80015
552.307,60.30424,-0.59089,0.22131,0.79967
553.007,60.37412,-0.59089,0.21969,0.79919
553.707,60.44424,-0.5922,0.22096,0.79872
554.407,60.51421,-0.5922,0.21704,0.79824
555.107,60.58421,-0.59353,0.21849,0.79776
555.807,60.654,-0.59352,0.21598,0.79728
556.507,60.724,-0.59352,0.21713,0.7968
557.207,60.7937,-0.59353,0.21811,0.79632
557.907,60.86348,-0.5934,0.21886,0.79583
558.607,60.93316,-0.59602,0.21788,0.79535
559.307,61.003,-0.59615,0.21719,0.79487
560.007,61.0729,-0.59483,0.21482,0.79439
560.707,61.14271,-0.59483,0.21409,0.7939
561.407,61.2125,-0.5948,0.21815,0.79342
562.107,61.2822,-0.59669,0.21676,0.79294
562.807,61.352,-0.59913,0.21936,0.79245
563.507,61.42174,-0.59635,0.21506,0.79197
564.207,61.4916,-0.59757,0.21941,0.79148
564.907,61.56114,-0.59757,0.21664,0.791
565.607,61.63057,-0.59756,0.21194,0.79051
566.307,61.7003,-0.59889,0.21533,0.79002
567.007,61.7704,-0.5989,0.21513,0.78954
567.707,61.8407,-0.59889,0.21883,0.78905
568.407,61.9106,-0.59889,0.21556,0.78856
569.107,61.9807,-0.60157,0.21191,0.78807
569.807,62.05036,-0.6015,0.21295,0.78758
570.507,62.1202,-0.6002,0.21472,0.78709
571.207,62.1899,-0.6002,0.21292,0.7866
571.907,62.2601,-0.60053,0.21306,0.78611
572.607,62.3303,-0.60064,0.2136,0.78562
573.307,62.4006,-0.60267,0.21273,0.78513
574.007,62.4707,-0.60327,0.20692,0.78464
574.707,62.54094,-0.60327,0.20797,0.78415
575.407,62.6112,-0.60328,0.20357,0.78365
576.107,62.68147,-0.60459,0.20373,0.78316
576.807,62.75161,-0.60459,0.1991,0.78267
577.507,62.82181,-0.60361,0.2025,0.78217
578.207,62.89221,-0.60361,0.20001,0.78168
578.907,62.9619,-0.60423,0.19989,0.78118
579.607,63.03233,-0.60493,0.20173,0.78069
580.307,63.1024,-0.60493,0.19805,0.78019
581.007,63.17337,-0.60457,0.19734,0.7797
581.707,63.24354,-0.60591,0.19696,0.7792
582.407,63.31391,-0.60595,0.19523,0.7787
583.107,63.38405,-0.60033,0.19712,0.7782
583.807,63.4543,-0.59845,0.19606,0.77771
584.507,63.52443,-0.5982,0.19413,0.77721
585.207,63.5946,-0.59911,0.19055,0.77671
585.907,63.66471,-0.60136,0.19254,0.77621
586.607,63.73463,-0.60318,0.19316,0.77571
587.307,63.80471,-0.60464,0.19334,0.77521
588.007,63.87464,-0.6074,0.19408,0.77471
588.707,63.94477,-0.61008,0.1942,0.77421
589.407,64.01478,-0.61269,0.19424,0.7737
590.107,64.0847,-0.61815,0.19353,0.7732
590.807,64.155,-0.61583,0.19413,0.7727
591.507,64.22534,-0.61238,0.19362,0.7722
592.207,64.29576,-0.61259,0.19441,0.77169
592.907,64.36616,-0.61714,0.19612,0.77119
593.607,64.43632,-0.61917,0.19663,0.77068
594.307,64.5067,-0.61906,0.1966,0.77018
595.007,64.5771,-0.61772,0.19605,0.76967
595.707,64.6476,-0.61646,0.19593,0.76917
596.407,64.71774,-0.61626,0.19707,0.76866
597.107,64.7882,-0.61513,0.19681,0.76815
597.807,64.85861,-0.61414,0.19633,0.76765
598.507,64.9293,-0.61381,0.20013,0.76714
599.207,64.99955,-0.61512,0.19801,0.76663
599.907,65.07,-0.61413,0.19646,0.76612
600.607,65.14041,-0.61546,0.19988,0.76561
601.307,65.2109,-0.61545,0.19791,0.7651
602.007,65.28125,-0.61621,0.20197,0.76459
602.707,65.35166,-0.61677,0.20395,0.76408
603.407,65.42203,-0.61645,0.20581,0.76357
604.107,65.49245,-0.61776,0.20787,0.76306
604.807,65.56272,-0.61677,0.20882,0.76255
605.507,65.6332,-0.61677,0.2103,0.76204
606.207,65.70376,-0.61773,0.21109,0.76152
606.907,65.77441,-0.61809,0.21083,0.76101
607.607,65.84495,-0.61907,0.21208,0.7605
608.307,65.91542,-0.61907,0.2137,0.75998
609.007,65.98585,-0.61907,0.21641,0.75947
609.707,66.05638,-0.61907,0.2175,0.75895
610.407,66.12701,-0.61966,0.21748,0.75844
611.107,66.19757,-0.62039,0.22283,0.75792
611.807,66.268,-0.62039,0.22305,0.75741
612.507,66.3382,-0.62039,0.22312,0.75689
613.207,66.40841,-0.62171,0.2209,0.75637
613.907,66.47878,-0.62168,0.22699,0.75585
614.607,66.54909,-0.62302,0.2326,0.75534
615.307,66.6195,-0.62302,0.23154,0.75482
616.007,66.68958,-0.62302,0.23424,0.7543
616.707,66.75978,-0.62433,0.23934,0.75378
617.407,66.82985,-0.62565,0.23608,0.75326
618.107,66.90009,-0.62564,0.23927,0.75274
618.807,66.97025,-0.62535,0.24296,0.75222
619.507,67.0405,-0.62741,0.24244,0.7517
620.207,67.11075,-0.62744,0.243,0.75117
620.907,67.18104,-0.628,0.24635,0.75065
621.607,67.25114,-0.62905,0.24875,0.75013
622.307,67.32135,-0.62905,0.24887,0.74961
623.007,67.39169,-0.63036,0.25326,0.74908
623.707,67.46203,-0.6317,0.25786,0.74856
624.407,67.53239,-0.63192,0.26091,0.74803
625.107,67.6025,-0.63221,0.26357,0.74751
625.807,67.67274,-0.63333,0.26279,0.74698
626.507,67.74305,-0.63424,0.26694,0.74646
627.207,67.81351,-0.63464,0.26928,0.74593
627.907,67.8841,-0.6346,0.27056,0.7454
628.607,67.95452,-0.63595,0.27245,0.74488
629.307,68.0249,-0.63692,0.2737,0.74435
630.007,68.09528,-0.63827,0.27535,0.74382
630.707,68.16579,-0.63828,0.28102,0.74329
631.407,68.23629,-0.63827,0.28489,0.74276
632.107,68.30665,-0.64035,0.28867,0.74223
632.807,68.37689,-0.64156,0.29057,0.7417
633.507,68.44731,-0.64156,0.29218,0.74117
634.207,68.5179,-0.64351,0.29684,0.74064
634.907,68.58853,-0.64347,0.2992,0.74011
635.607,68.65915,-0.64515,0.30276,0.73958
636.307,68.7296,-0.64518,0.30582,0.73905
637.007,68.8001,-0.6465,0.30355,0.73851
637.707,68.8706,-0.6478,0.30899,0.73798
638.407,68.94117,-0.64785,0.31376,0.73745
639.107,69.0116,-0.65044,0.3121,0.73691
639.807,69.0822,-0.64969,0.31708,0.73638
640.507,69.1527,-0.65104,0.31882,0.73584
641.207,69.2235,-0.65296,0.324,0.73531
641.907,69.29433,-0.65444,0.32853,0.73477
642.607,69.36479,-0.65463,0.33335,0.73424
643.307,69.43517,-0.65471,0.33338,0.7337
644.007,69.5057,-0.65595,0.33855,0.73316
644.707,69.57651,-0.65735,0.33978,0.73263
645.407,69.64702,-0.65862,0.34171,0.73209
646.107,69.71759,-0.66095,0.34742,0.73155
646.807,69.78836,-0.66149,0.35228,0.73101
647.507,69.8595,-0.66229,0.35855,0.73047
648.207,69.9303,-0.66229,0.35736,0.72993
648.907,70.00095,-0.66512,0.3648,0.72939
649.607,70.07141,-0.66655,0.36459,0.72885
650.307,70.14194,-0.66907,0.37298,0.72831
651.007,70.21246,-0.66774,0.3779,0.72777
651.707,70.2831,-0.67037,0.37982,0.72723
652.407,70.3537,-0.67168,0.38229,0.72668
653.107,70.42411,-0.67238,0.38925,0.72614
653.807,70.4945,-0.67563,0.39533,0.7256
654.507,70.5646,-0.68099,0.40192,0.72505
655.207,70.63486,-0.68531,0.41119,0.72451
655.907,70.70481,-0.68168,0.41114,0.72396
656.607,70.77493,-0.68707,0.41192,0.72342
657.307,70.8451,-0.68708,0.41961,0.72287
658.007,70.9152,-0.68565,0.424,0.72233
658.707,70.98532,-0.68335,0.42777,0.72178
659.407,71.05566,-0.68206,0.43355,0.72123
660.107,71.12624,-0.683,0.4364,0.72069
660.807,71.19669,-0.68434,0.44618,0.72014
661.507,71.2671,-0.6857,0.44849,0.71959
662.207,71.33751,-0.68688,0.45706,0.71904
662.907,71.40795,-0.69086,0.46434,0.71849
663.607,71.47815,-0.69225,0.46966,0.71795
664.307,71.54828,-0.69478,0.47599,0.7174
665.007,71.61846,-0.69752,0.48305,0.71684
665.707,71.6888,-0.70008,0.49055,0.71629
666.407,71.75924,-0.70143,0.49767,0.71574
667.107,71.82964,-0.70418,0.50472,0.71519
667.807,71.89993,-0.70682,0.51138,0.71464
668.507,71.97024,-0.70946,0.52131,0.71409
669.207,72.04079,-0.71182,0.5281,0.71353
669.907,72.1113,-0.71472,0.53676,0.71298
670.607,72.18178,-0.71494,0.54179,0.71243
671.307,72.2522,-0.71367,0.55475,0.71187
672.007,72.32258,-0.72049,0.56006,0.71132
672.707,72.39305,-0.72208,0.5685,0.71076
673.407,72.46359,-0.72354,0.57891,0.71021
674.107,72.53415,-0.72617,0.58641,0.70965
674.807,72.60477,-0.72904,0.59558,0.7091
675.507,72.67526,-0.73024,0.60322,0.70854
676.207,72.74587,-0.7313,0.61258,0.70798
676.907,72.81644,-0.73315,0.62,0.70742
677.607,72.88714,-0.73564,0.62745,0.70687
678.307,72.95786,-0.73921,0.63599,0.70631
679.007,73.0286,-0.74199,0.64689,0.70575
679.707,73.09942,-0.74475,0.65329,0.70519
680.407,73.17014,-0.74762,0.66516,0.70463
681.107,73.241,-0.74901,0.6746,0.70407
681.807,73.31178,-0.75234,0.68547,0.70351
682.507,73.3824,-0.75629,0.69384,0.70295
683.207,73.45303,-0.75481,0.70677,0.70239
683.907,73.52383,-0.75986,0.71635,0.70183
684.607,73.59486,-0.7633,0.7291,0.70126
685.307,73.66574,-0.76648,0.74107,0.7007
686.007,73.73649,-0.7696,0.74896,0.70014
686.707,73.80728,-0.77146,0.76,0.69958
687.407,73.8783,-0.77388,0.77018,0.69901
688.107,73.94917,-0.77814,0.78485,0.69845
688.807,74.01996,-0.78141,0.79629,0.69788
689.507,74.09062,-0.78519,0.80994,0.69732
690.207,74.16156,-0.78819,0.81971,0.69675
690.907,74.23246,-0.79281,0.83539,0.69619
691.607,74.3032,-0.79711,0.84663,0.69562
692.307,74.3736,-0.80028,0.86059,0.69505
693.007,74.4441,-0.8035,0.87557,0.69449
693.707,74.51471,-0.80717,0.89012,0.69392
694.407,74.58577,-0.80945,0.90413,0.69335
695.107,74.6568,-0.8131,0.91791,0.69278
695.807,74.728,-0.81743,0.93236,0.69221
696.507,74.79897,-0.82207,0.94699,0.69165
697.207,74.87007,-0.82583,0.96335,0.69108
697.907,74.94112,-0.83033,0.97758,0.69051
698.607,75.0123,-0.83425,0.99051,0.68994
699.307,75.08333,-0.83896,1.00972,0.68936
700.007,75.15443,-0.84382,1.02561,0.68879
700.707,75.22533,-0.8485,1.03634,0.68822
701.407,75.2962,-0.85209,1.05472,0.68765
702.107,75.36709,-0.85644,1.07238,0.68708
702.807,75.43783,-0.86056,1.09,0.68651
703.507,75.509,-0.86553,1.10753,0.68593
704.207,75.58,-0.86982,1.12829,0.68536
704.907,75.65127,-0.87493,1.14805,0.68478
705.607,75.72198,-0.88055,1.16646,0.68421
706.307,75.79276,-0.88559,1.18319,0.68364
707.007,75.86335,-0.89134,1.20404,0.68306
707.707,75.93419,-0.89671,1.22319,0.68248
708.407,76.00497,-0.90209,1.24333,0.68191
709.107,76.07585,-0.90711,1.26241,0.68133
709.807,76.14664,-0.91201,1.28593,0.68076
710.507,76.21736,-0.91702,1.30721,0.68018
711.207,76.28827,-0.92295,1.33114,0.6796
711.907,76.3591,-0.92863,1.34922,0.67902
712.607,76.42993,-0.93441,1.37078,0.67845
713.307,76.50076,-0.94065,1.39417,0.67787
714.007,76.57143,-0.94756,1.41622,0.67729
714.707,76.64208,-0.95313,1.4372,0.67671
715.407,76.71262,-0.95883,1.46033,0.67613
716.107,76.7833,-0.96384,1.47915,0.67555
716.807,76.85396,-0.97183,1.50359,0.67497
717.507,76.92455,-0.97816,1.52795,0.67439
718.207,76.99521,-0.98352,1.55072,0.67381
718.907,77.066,-0.99126,1.57079,0.67322
719.607,77.1369,-0.99748,1.59712,0.67264
720.307,77.20783,-1.00485,1.61907,0.67206
721.007,77.2787,-1.01207,1.64861,0.67148
721.707,77.34951,-1.01992,1.67251,0.67089
722.407,77.42023,-1.02715,1.69881,0.67031
723.107,77.49118,-1.03452,1.71908,0.66973
723.807,77.56235,-1.0418,1.74832,0.66914
724.507,77.63364,-1.04916,1.77601,0.66856
725.207,77.7048,-1.05782,1.80295,0.66797
725.907,77.77565,-1.06499,1.83085,0.66739
726.607,77.84634,-1.07359,1.85545,0.6668
727.307,77.91728,-1.08232,1.88254,0.66621
728.007,77.98821,-1.08998,1.90775,0.66563
728.707,78.05957,-1.09879,1.93821,0.66504
729.407,78.13088,-1.10574,1.96495,0.66445
730.107,78.20218,-1.11544,1.98857,0.66387
730.807,78.2732,-1.12383,2.01599,0.66328
731.507,78.34406,-1.13241,2.04595,0.66269
732.207,78.41499,-1.14205,2.07604,0.6621
732.907,78.48601,-1.15049,2.10585,0.66151
733.607,78.55722,-1.15929,2.13528,0.66092
734.307,78.6284,-1.16911,2.15897,0.66033
735.007,78.6996,-1.17865,2.18787,0.65974
735.707,78.77071,-1.18827,2.21362,0.65915
736.407,78.8416,-1.19803,2.24361,0.65856
737.107,78.91279,-1.20834,2.26936,0.65797
737.807,78.9841,-1.21848,2.29404,0.65738
738.507,79.05578,-1.22673,2.32224,0.65679
739.207,79.127,-1.23705,2.34961,0.65619
739.907,79.19807,-1.24846,2.37595,0.6556
740.607,79.2692,-1.25996,2.39994,0.65501
741.307,79.34039,-1.26554,2.42628,0.65441
742.007,79.41144,-1.27764,2.4529,0.65382
742.707,79.48255,-1.29049,2.47676,0.65323
743.407,79.55366,-1.3013,2.50159,0.65263
744.107,79.62496,-1.31169,2.52636,0.65204
744.807,79.69619,-1.32319,2.54883,0.65144
745.507,79.76729,-1.33394,2.5694,0.65085
746.207,79.83836,-1.34513,2.59029,0.65025
746.907,79.90908,-1.35631,2.60978,0.64965
747.607,79.97997,-1.36713,2.62725,0.64906
748.307,80.05095,-1.37933,2.63904,0.64846
749.007,80.12215,-1.39102,2.65512,0.64786
749.707,80.19317,-1.40273,2.66785,0.64727
750.407,80.2641,-1.41416,2.67488,0.64667
751.107,80.33496,-1.42632,2.68045,0.64607
751.807,80.40581,-1.4366,2.68203,0.64547
752.507,80.4764,-1.44951,2.67909,0.64487
753.207,80.5471,-1.45813,2.67901,0.64427
753.907,80.6177,-1.47463,2.6621,0.64367
754.607,80.6883,-1.48597,2.64119,0.64307
755.307,80.75893,-1.49756,2.60752,0.64247
756.007,80.82967,-1.50879,2.56706,0.64187
756.707,80.90053,-1.52088,2.5161,0.64127
757.407,80.97142,-1.53,2.44213,0.64067
758.107,81.0424,-1.54016,2.3529,0.64007
758.807,81.11325,-1.5496,2.23938,0.63947
759.507,81.18429,-1.55843,2.10024,0.63886
760.207,81.2549,-1.56809,1.91831,0.63826
760.907,81.32568,-1.5755,1.65327,0.63766
761.607,81.39622,-1.58295,1.24619,0.63705
762.307,81.46709,-1.5861,0.78548,0.63645
763.007,81.53785,-1.58953,0.44547,0.63585
763.707,81.60882,-1.59123,0.23534,0.63524
764.407,81.67999,-1.59133,0.11726,0.63464
765.107,81.75137,-1.59133,0.0465502,0.63403
765.807,81.8222,-1.5915,0.01344391,0.63343
766.507,81.89327,-1.59265,-0.007665762,0.63282
767.207,81.96435,-1.59266,-0.01550848,0.63222
767.907,82.0356,-1.59396,-0.02203567,0.63161
768.607,82.10672,-1.59396,-0.02382878,0.63101
769.307,82.178,-1.59337,-0.02402025,0.6304
770.007,82.24967,-1.59462,-0.02723644,0.62979
770.707,82.32121,-1.59462,-0.02713487,0.62918
771.407,82.39276,-1.59462,-0.03317976,0.62858
772.107,82.4643,-1.59608,-0.0320685,0.62797
772.807,82.5359,-1.59659,-0.03423929,0.62736
773.507,82.60723,-1.5966,-0.03114561,0.62675
774.207,82.67867,-1.59527,-0.03440324,0.62614
774.907,82.74996,-1.59374,-0.03524421,0.62553
775.607,82.82146,-1.59518,-0.03739927,0.62492
776.307,82.8926,-1.59549,-0.03723922,0.62431
777.007,82.96406,-1.59587,-0.03617578,0.6237
777.707,83.03529,-1.59648,-0.03631932,0.62309
778.407,83.10654,-1.59683,-0.03561096,0.62248
779.107,83.17781,-1.59759,-0.03743499,0.62187
779.807,83.24915,-1.59684,-0.03882341,0.62126
780.507,83.32032,-1.59682,-0.0396653,0.62065
781.207,83.39125,-1.59585,-0.03924889,0.62004
781.907,83.4619,-1.59616,-0.03625576,0.61943
782.607,83.53276,-1.59617,-0.03886407,0.61881
783.307,83.60361,-1.59682,-0.03855154,0.6182
784.007,83.67452,-1.59682,-0.04172337,0.61759
784.707,83.74551,-1.59682,-0.04075898,0.61697
785.407,83.81636,-1.59682,-0.04578426,0.61636
786.107,83.8874,-1.59682,-0.04456177,0.61575
786.807,83.95806,-1.59682,-0.04716633,0.61513
787.507,84.02898,-1.59682,-0.04875372,0.61452
788.207,84.09994,-1.59649,-0.04909232,0.6139
788.907,84.17115,-1.59681,-0.04948788,0.61329
789.607,84.2424,-1.59681,-0.05119448,0.61267
790.307,84.31348,-1.59681,-0.05218844,0.61206
791.007,84.38458,-1.59746,-0.05459888,0.61144
791.707,84.45563,-1.59747,-0.05607404,0.61083
792.407,84.52675,-1.59747,-0.05197756,0.61021
793.107,84.59778,-1.5961,-0.05564854,0.60959
793.807,84.6687,-1.59439,-0.05241979,0.60898
794.507,84.73966,-1.58727,-0.05703006,0.60836
795.207,84.81081,-1.59004,-0.05493105,0.60774
795.907,84.88209,-1.59265,-0.05510134,0.60712
796.607,84.95344,-1.59399,-0.05424001,0.60651
797.307,85.02481,-1.59464,-0.05631784,0.60589
798.007,85.09578,-1.59592,-0.05749633,0.60527
798.707,85.16699,-1.5987,-0.05743866,0.60465
799.407,85.23823,-1.60455,-0.06010442,0.60403
800.107,85.30979,-1.60504,-0.05711559,0.60341
800.807,85.381,-1.60505,-0.05742456,0.60279
801.507,85.4522,-1.6022,-0.0629298,0.60217
802.207,85.52296,-1.59999,-0.06191539,0.60155
802.907,85.59424,-1.59998,-0.06216817,0.60093
803.607,85.6656,-1.59868,-0.06396801,0.60031
804.307,85.73765,-1.59868,-0.06358497,0.59969
805.007,85.80886,-1.60001,-0.06248379,0.59907
805.707,85.8802,-1.59968,-0.06424751,0.59845
806.407,85.95143,-1.59864,-0.06591788,0.59783
807.107,86.02284,-1.59806,-0.06528683,0.59721
807.807,86.0938,-1.59736,-0.07169118,0.59658
808.507,86.16504,-1.59736,-0.07090919,0.59596
809.207,86.23639,-1.59737,-0.06700138,0.59534
809.907,86.3079,-1.60119,-0.06660989,0.59472
810.607,86.37908,-1.60372,-0.06406186,0.59409
811.307,86.45022,-1.60473,-0.06760394,0.59347
812.007,86.52104,-1.60743,-0.0668491,0.59285
812.707,86.59236,-1.60984,-0.06859547,0.59222
813.407,86.66359,-1.61067,-0.06789425,0.5916
814.107,86.73521,-1.60788,-0.07108467,0.59097
814.807,86.8063,-1.60659,-0.0694207,0.59035
815.507,86.87754,-1.60413,-0.0738674,0.58972
816.207,86.94885,-1.60262,-0.0761034,0.5891
816.907,87.02011,-1.60263,-0.07619617,0.58847
817.607,87.09132,-1.60263,-0.07783236,0.58785
818.307,87.16247,-1.60313,-0.0782065,0.58722
819.007,87.23384,-1.60248,-0.08114439,0.5866
819.707,87.30521,-1.60128,-0.08006376,0.58597
820.407,87.37687,-1.60131,-0.08264593,0.58535
821.107,87.44834,-1.60261,-0.08493991,0.58472
821.807,87.51983,-1.60131,-0.08677139,0.58409
822.507,87.59115,-1.60131,-0.08766262,0.58347
823.207,87.6625,-1.60131,-0.08843979,0.58284
823.907,87.73384,-1.60133,-0.08753838,0.58221
824.607,87.80493,-1.60263,-0.08793057,0.58158
825.307,87.87617,-1.60264,-0.08494823,0.58096
826.007,87.94722,-1.60197,-0.08702163,0.58033
826.707,88.01846,-1.60197,-0.08582942,0.5797
827.407,88.08963,-1.60197,-0.09138901,0.57907
828.107,88.1609,-1.60197,-0.09142007,0.57844
828.807,88.23206,-1.6033,-0.09340527,0.57781
829.507,88.3032,-1.60263,-0.09260913,0.57718
830.207,88.37416,-1.60265,-0.09645631,0.57656
830.907,88.4451,-1.60397,-0.09634681,0.57593
831.607,88.51612,-1.60296,-0.09825645,0.5753
832.307,88.5873,-1.60275,-0.09754034,0.57467
833.007,88.65861,-1.60295,-0.09924295,0.57404
833.707,88.7296,-1.60164,-0.10207,0.57341
834.407,88.80075,-1.60164,-0.10784,0.57278
835.107,88.872,-1.6018,-0.10451,0.57214
835.807,88.94366,-1.60131,-0.10438,0.57151
836.507,89.0151,-1.60131,-0.10612,0.57088
837.207,89.0863,-1.59998,-0.10792,0.57025
837.907,89.1576,-1.59999,-0.11447,0.56962
838.607,89.22874,-1.60033,-0.11876,0.56899
839.307,89.30015,-1.60164,-0.12206,0.56836
840.007,89.37151,-1.60296,-0.11982,0.56772
840.707,89.443,-1.60296,-0.11941,0.56709
841.407,89.5144,-1.60424,-0.12669,0.56646
842.107,89.58573,-1.60493,-0.12693,0.56583
842.807,89.6571,-1.60625,-0.1297,0.5652
843.507,89.72831,-1.60625,-0.12968,0.56456
844.207,89.79966,-1.60624,-0.13182,0.56393
844.907,89.87098,-1.60523,-0.1355,0.5633
845.607,89.9425,-1.60394,-0.1366,0.56266
846.107,89.9939,-1.60394,-0.13974,0.56221