File: 01_Data/Pine_Lap_Siding_Paint/STA/N2/10K_min/Pine_Lap_Siding_Paint_STA_N2_10KData_220316_R1.csv
##Temp./Â°C,Time/min,Mass loss(subtr.2)/mg,DSC(subtr.2)/(mW/mg),Sensit./(uV/mW)
49.655,10.00917,0.02929,-0.005792667,1.07518
50.255,10.71975,0.03175681,0.02229395,1.07487
50.855,10.90801,0.03257556,0.04105966,1.07455
51.455,11.04871,0.03202148,0.0564453,1.07424
52.055,11.1667,0.03240726,0.06964791,1.07393
52.655,11.27137,0.03192092,0.08180893,1.07362
53.255,11.36791,0.03382661,0.09027153,1.0733
53.855,11.45775,0.03411311,0.09838805,1.07299
54.455,11.54305,0.03359702,0.10542,1.07268
55.055,11.62461,0.03291841,0.11402,1.07237
55.655,11.7036,0.03474091,0.11874,1.07205
56.255,11.77972,0.03465248,0.12657,1.07174
56.855,11.85399,0.03567228,0.12864,1.07143
57.455,11.92704,0.03444082,0.13018,1.07112
58.055,11.99882,0.03397775,0.13687,1.07081
58.655,12.0697,0.03370338,0.13954,1.07049
59.255,12.13922,0.03445004,0.14295,1.07018
59.855,12.2082,0.03444543,0.14374,1.06987
60.455,12.27662,0.03581984,0.14849,1.06956
61.055,12.34445,0.03589696,0.14892,1.06925
61.655,12.41132,0.03568225,0.15256,1.06893
62.255,12.478,0.03433112,0.15326,1.06862
62.855,12.5448,0.03297859,0.15417,1.06831
63.455,12.6115,0.03441653,0.15532,1.068
64.055,12.67805,0.03666555,0.15795,1.06769
64.655,12.7437,0.03451132,0.16127,1.06738
65.255,12.80919,0.03575933,0.16178,1.06706
65.855,12.87458,0.0357438,0.16416,1.06675
66.455,12.93956,0.03705789,0.16702,1.06644
67.055,13.0044,0.03711034,0.16747,1.06613
67.655,13.06878,0.03838456,0.16687,1.06582
68.255,13.13292,0.03705233,0.16919,1.06551
68.855,13.1972,0.03708244,0.17204,1.0652
69.455,13.26123,0.03624887,0.1705,1.06489
70.055,13.32545,0.03676056,0.17139,1.06458
70.655,13.3894,0.03706129,0.17282,1.06427
71.255,13.4528,0.03737002,0.17643,1.06395
71.855,13.51596,0.03712655,0.17661,1.06364
72.455,13.57906,0.03575823,0.17974,1.06333
73.055,13.6421,0.03507738,0.18067,1.06302
73.655,13.7052,0.03575237,0.18165,1.06271
74.255,13.7683,0.03607434,0.18196,1.0624
74.855,13.83115,0.03609638,0.18477,1.06209
75.455,13.89401,0.0370811,0.18426,1.06178
76.055,13.95675,0.03707225,0.18597,1.06147
76.655,14.0192,0.03706997,0.18579,1.06116
77.255,14.0815,0.03575944,0.18698,1.06085
77.855,14.14391,0.03679754,0.18893,1.06054
78.455,14.206,0.03704725,0.18933,1.06023
79.055,14.26789,0.03707944,0.19092,1.05992
79.655,14.32956,0.03708129,0.18965,1.05961
80.255,14.39112,0.03740266,0.19028,1.0593
80.855,14.45263,0.0383695,0.19163,1.05899
81.455,14.5142,0.037082,0.19169,1.05868
82.055,14.5756,0.03592734,0.1939,1.05837
82.655,14.63715,0.03575959,0.19255,1.05806
83.255,14.6986,0.03706761,0.19345,1.05775
83.855,14.76012,0.03701176,0.19361,1.05744
84.455,14.82125,0.03706967,0.19355,1.05713
85.055,14.8822,0.03577793,0.19395,1.05682
85.655,14.943,0.0370805,0.19559,1.05651
86.255,15.0037,0.03705703,0.19678,1.0562
86.855,15.0648,0.03575266,0.19661,1.05589
87.455,15.12549,0.03706848,0.19599,1.05559
88.055,15.18617,0.03570265,0.1964,1.05528
88.655,15.24665,0.03710625,0.19399,1.05497
89.255,15.3071,0.03572084,0.19728,1.05466
89.855,15.3674,0.03575646,0.19676,1.05435
90.455,15.42777,0.03574262,0.19693,1.05404
91.055,15.488,0.03575972,0.19907,1.05373
91.655,15.548,0.03706717,0.19865,1.05342
92.255,15.6082,0.03576033,0.19842,1.05311
92.855,15.66833,0.03576003,0.19902,1.0528
93.455,15.72814,0.03633406,0.19968,1.0525
94.055,15.7881,0.03651135,0.20068,1.05219
94.655,15.8476,0.03575982,0.20131,1.05188
95.255,15.90734,0.03490281,0.20251,1.05157
95.855,15.96698,0.03575355,0.203,1.05126
96.455,16.02666,0.03708243,0.20402,1.05095
97.055,16.08636,0.03576784,0.20329,1.05065
97.655,16.1459,0.0357564,0.20358,1.05034
98.255,16.2054,0.03707596,0.2057,1.05003
98.855,16.26478,0.03576161,0.2044,1.04972
99.455,16.32404,0.03576,0.20434,1.04941
100.055,16.3833,0.03576,0.20615,1.0491
100.655,16.44266,0.03576,0.20861,1.0488
101.255,16.5017,0.03576002,0.20707,1.04849
101.855,16.56072,0.0357845,0.20594,1.04818
102.455,16.61969,0.03576043,0.21108,1.04787
103.055,16.67857,0.03576052,0.20783,1.04757
103.655,16.7377,0.03578494,0.20959,1.04726
104.255,16.79662,0.03701783,0.20999,1.04695
104.855,16.85551,0.03586595,0.20955,1.04664
105.455,16.91435,0.03716687,0.20923,1.04634
106.055,16.973,0.03684722,0.2109,1.04603
106.655,17.03184,0.03571535,0.20962,1.04572
107.255,17.09045,0.03521006,0.20979,1.04541
107.855,17.14903,0.03521001,0.21096,1.04511
108.455,17.20748,0.03536298,0.21146,1.0448
109.055,17.26586,0.03651255,0.2119,1.04449
109.655,17.32445,0.03652803,0.21377,1.04418
110.255,17.383,0.03513909,0.21402,1.04388
110.855,17.44163,0.03652988,0.21451,1.04357
111.455,17.50028,0.03654461,0.21538,1.04326
112.055,17.55885,0.03520597,0.21507,1.04296
112.655,17.61756,0.03652971,0.21664,1.04265
113.255,17.6762,0.03653026,0.21532,1.04234
113.855,17.73488,0.03543887,0.21536,1.04204
114.455,17.79363,0.03652365,0.21383,1.04173
115.055,17.85228,0.03651992,0.21543,1.04142
115.655,17.9109,0.03639498,0.21509,1.04112
116.255,17.9694,0.03520999,0.21562,1.04081
116.855,18.0278,0.03522317,0.2162,1.0405
117.455,18.0863,0.0371832,0.21828,1.0402
118.055,18.1447,0.03717819,0.21808,1.03989
118.655,18.2031,0.03586272,0.21679,1.03958
119.255,18.26153,0.03587,0.21891,1.03928
119.855,18.31999,0.03587002,0.21929,1.03897
120.455,18.37846,0.03583405,0.21832,1.03866
121.055,18.4368,0.03582413,0.21922,1.03836
121.655,18.49529,0.03586994,0.21968,1.03805
122.255,18.5537,0.03667389,0.2197,1.03775
122.855,18.61202,0.03588293,0.22139,1.03744
123.455,18.67042,0.03587001,0.22184,1.03713
124.055,18.7287,0.03557915,0.22062,1.03683
124.655,18.78698,0.03587283,0.22396,1.03652
125.255,18.84518,0.03586883,0.22518,1.03622
125.855,18.90326,0.03684354,0.2214,1.03591
126.455,18.9613,0.03686,0.22469,1.03561
127.055,19.01944,0.03686074,0.22525,1.0353
127.655,19.0777,0.03609216,0.22479,1.03499
128.255,19.13556,0.03718079,0.22477,1.03469
128.855,19.19379,0.03686409,0.22531,1.03438
129.455,19.25196,0.03695603,0.22658,1.03408
130.055,19.3099,0.03685001,0.22607,1.03377
130.655,19.36842,0.03686957,0.22464,1.03347
131.255,19.4265,0.03554054,0.2255,1.03316
131.855,19.48457,0.03554,0.22659,1.03286
132.455,19.543,0.0355399,0.22728,1.03255
133.055,19.60105,0.0353988,0.22672,1.03225
133.655,19.65936,0.03553977,0.229,1.03194
134.255,19.71725,0.03554,0.2294,1.03164
134.855,19.77518,0.0355405,0.22849,1.03133
135.455,19.83313,0.03433296,0.22902,1.03103
136.055,19.89086,0.03554206,0.23133,1.03072
136.655,19.9487,0.03620207,0.22944,1.03042
137.255,20.0065,0.03620001,0.22973,1.03011
137.855,20.06423,0.0362,0.23206,1.02981
138.455,20.12206,0.0362,0.23228,1.0295
139.055,20.18003,0.03619562,0.23217,1.0292
139.655,20.23773,0.03521245,0.23301,1.02889
140.255,20.2956,0.03587067,0.23294,1.02859
140.855,20.3533,0.03554931,0.23386,1.02828
141.455,20.41094,0.03411448,0.23462,1.02798
142.055,20.46871,0.03554005,0.23211,1.02767
142.655,20.5264,0.03553998,0.2313,1.02737
143.255,20.58434,0.03547174,0.2351,1.02706
143.855,20.6421,0.0362005,0.23657,1.02676
144.455,20.69995,0.03548478,0.23516,1.02646
145.055,20.75786,0.03488689,0.23525,1.02615
145.655,20.81586,0.03554332,0.23561,1.02585
146.255,20.87359,0.03553841,0.23633,1.02554
146.855,20.93122,0.03421407,0.23465,1.02524
147.455,20.9889,0.03554328,0.23566,1.02493
148.055,21.04663,0.03683531,0.23455,1.02463
148.655,21.1045,0.03553845,0.23828,1.02433
149.255,21.16224,0.03657435,0.2376,1.02402
149.855,21.22008,0.03521575,0.23803,1.02372
150.455,21.27778,0.03773599,0.23656,1.02341
151.055,21.33555,0.03718356,0.23636,1.02311
151.655,21.39347,0.0364014,0.23684,1.02281
152.255,21.45125,0.03619005,0.23823,1.0225
152.855,21.509,0.03619,0.23644,1.0222
153.455,21.5668,0.03619043,0.23966,1.02189
154.055,21.62455,0.03493683,0.23844,1.02159
154.655,21.68245,0.03488012,0.24125,1.02129
155.255,21.74035,0.03451859,0.24023,1.02098
155.855,21.79799,0.03587082,0.24227,1.02068
156.455,21.8557,0.03587,0.23901,1.02038
157.055,21.91348,0.03586956,0.2382,1.02007
157.655,21.9711,0.03697134,0.23853,1.01977
158.255,22.02895,0.03620004,0.24416,1.01947
158.855,22.08675,0.03620003,0.24193,1.01916
159.455,22.14445,0.03531275,0.24316,1.01886
160.055,22.20232,0.0348899,0.24446,1.01855
160.655,22.2602,0.03557441,0.24439,1.01825
161.255,22.31756,0.03553997,0.24512,1.01795
161.855,22.37525,0.03553997,0.24584,1.01764
162.455,22.43296,0.03548548,0.24554,1.01734
163.055,22.4905,0.03620023,0.24707,1.01704
163.655,22.5483,0.03620023,0.25007,1.01673
164.255,22.60581,0.03491005,0.24838,1.01643
164.855,22.6633,0.03489705,0.24894,1.01613
165.455,22.72087,0.03686409,0.25059,1.01583
166.055,22.77851,0.03686,0.24839,1.01552
166.655,22.836,0.03685993,0.25076,1.01522
167.255,22.89366,0.03663048,0.25067,1.01492
167.855,22.95125,0.03553978,0.24955,1.01461
168.455,23.00875,0.03554172,0.24962,1.01431
169.055,23.06636,0.03423104,0.25283,1.01401
169.655,23.12379,0.03422968,0.25225,1.0137
170.255,23.18133,0.03494968,0.25279,1.0134
170.855,23.23876,0.03488954,0.25227,1.0131
171.455,23.2962,0.03391687,0.25146,1.0128
172.055,23.35391,0.03390122,0.25469,1.01249
172.655,23.4113,0.03453462,0.25231,1.01219
173.255,23.46891,0.03455027,0.25543,1.01189
173.855,23.5264,0.03587398,0.2533,1.01158
174.455,23.58383,0.03587229,0.25608,1.01128
175.055,23.64134,0.03556803,0.25358,1.01098
175.655,23.6987,0.03488106,0.2537,1.01068
176.255,23.75633,0.03356798,0.25622,1.01037
176.855,23.8138,0.03356005,0.25647,1.01007
177.455,23.8707,0.0335998,0.25608,1.00977
178.055,23.92805,0.03488332,0.25825,1.00946
178.655,23.98532,0.03349706,0.25674,1.00916
179.255,24.043,0.03356985,0.25818,1.00886
179.855,24.10075,0.03344747,0.25795,1.00856
180.455,24.15806,0.03257989,0.25679,1.00825
181.055,24.21535,0.03257952,0.25686,1.00795
181.655,24.27273,0.03387433,0.25845,1.00765
182.255,24.33033,0.0328219,0.25766,1.00735
182.855,24.38801,0.03257999,0.25811,1.00704
183.455,24.4455,0.03258,0.25779,1.00674
184.055,24.50313,0.03258161,0.25763,1.00644
184.655,24.56053,0.03355205,0.26131,1.00614
185.255,24.61797,0.03356923,0.26007,1.00583
185.855,24.67525,0.03292488,0.25942,1.00553
186.455,24.73259,0.03291001,0.26157,1.00523
187.055,24.7901,0.03290973,0.26085,1.00493
187.655,24.84763,0.03251071,0.2619,1.00462
188.255,24.90521,0.03256994,0.26376,1.00432
188.855,24.96278,0.03257,0.26166,1.00402
189.455,25.0202,0.03257,0.26102,1.00372
190.055,25.07774,0.03256937,0.26453,1.00342
190.655,25.1353,0.03121978,0.26444,1.00311
191.255,25.19277,0.03125998,0.26337,1.00281
191.855,25.25029,0.03125989,0.26154,1.00251
192.455,25.3076,0.03260935,0.26371,1.00221
193.055,25.36487,0.03258002,0.26424,1.0019
193.655,25.42214,0.03257162,0.26404,1.0016
194.255,25.47936,0.03125958,0.26633,1.0013
194.855,25.53649,0.03126,0.26568,1.001
195.455,25.59382,0.03126,0.26802,1.00069
196.055,25.65119,0.03125899,0.2663,1.00039
196.655,25.70854,0.03158896,0.26817,1.00009
197.255,25.76585,0.03159,0.26875,0.99979
197.855,25.82309,0.03159,0.26964,0.99949
198.455,25.88028,0.03159,0.26953,0.99918
199.055,25.9374,0.03159,0.26865,0.99888
199.655,25.9946,0.03158901,0.26988,0.99858
200.255,26.05188,0.03023252,0.27104,0.99828
200.855,26.1092,0.03028,0.27148,0.99797
201.455,26.16669,0.03026756,0.27288,0.99767
202.055,26.22405,0.02897154,0.27202,0.99737
202.655,26.28132,0.02996524,0.2713,0.99707
203.255,26.33861,0.03126982,0.26938,0.99676
203.855,26.39589,0.03126129,0.27196,0.99646
204.455,26.4532,0.03125151,0.27079,0.99616
205.055,26.5105,0.03021292,0.27179,0.99586
205.655,26.5677,0.03028004,0.27342,0.99556
206.255,26.62473,0.03028,0.27123,0.99525
206.855,26.6818,0.03027995,0.27058,0.99495
207.455,26.739,0.03028497,0.27413,0.99465
208.055,26.7964,0.02994295,0.27316,0.99435
208.655,26.8536,0.03127267,0.27378,0.99404
209.255,26.9107,0.02995135,0.27117,0.99374
209.855,26.96795,0.02997576,0.27233,0.99344
210.455,27.025,0.02993919,0.27358,0.99314
211.055,27.08209,0.02994,0.2741,0.99283
211.655,27.13934,0.02994,0.27513,0.99253
212.255,27.19649,0.02993821,0.27515,0.99223
212.855,27.25368,0.02862339,0.27635,0.99193
213.455,27.31111,0.02863,0.27521,0.99163
214.055,27.3684,0.02863,0.27367,0.99132
214.655,27.42554,0.02863,0.27661,0.99102
215.255,27.4828,0.02863,0.27526,0.99072
215.855,27.5398,0.02862999,0.27922,0.99042
216.455,27.59696,0.02871176,0.28,0.99011
217.055,27.6542,0.02732013,0.27975,0.98981
217.655,27.71125,0.02732,0.28129,0.98951
218.255,27.76858,0.02732005,0.27998,0.98921
218.855,27.8257,0.02800466,0.28299,0.9889
219.455,27.8829,0.02731104,0.28262,0.9886
220.055,27.94,0.02730615,0.28461,0.9883
220.655,27.997,0.02600079,0.28502,0.988
221.255,28.054,0.026,0.28331,0.98769
221.855,28.11107,0.026,0.2853,0.98739
222.455,28.16822,0.02600333,0.28513,0.98709
223.055,28.22537,0.0246814,0.28308,0.98679
223.655,28.2823,0.02468,0.28313,0.98648
224.255,28.33932,0.02468,0.28516,0.98618
224.855,28.39645,0.02468001,0.28272,0.98588
225.455,28.45368,0.02469654,0.28612,0.98558
226.055,28.51097,0.02533897,0.28595,0.98527
226.655,28.56815,0.02534,0.2849,0.98497
227.255,28.6254,0.02534,0.28684,0.98467
227.855,28.68282,0.02533327,0.28623,0.98436
228.455,28.7401,0.0250203,0.28613,0.98406
229.055,28.79735,0.02502003,0.28727,0.98376
229.655,28.8542,0.0251216,0.28506,0.98346
230.255,28.9116,0.02402951,0.28586,0.98315
230.855,28.96888,0.0240297,0.28422,0.98285
231.455,29.0264,0.02270623,0.28615,0.98255
232.055,29.0835,0.0227057,0.2836,0.98224
232.655,29.14068,0.02337342,0.28931,0.98194
233.255,29.19795,0.02337002,0.2879,0.98164
233.855,29.25522,0.02346683,0.28963,0.98134
234.455,29.31257,0.02205014,0.29153,0.98103
235.055,29.36972,0.02205003,0.28978,0.98073
235.655,29.42701,0.02156858,0.29114,0.98043
236.255,29.48428,0.02072555,0.29039,0.98012
236.855,29.5415,0.02171616,0.29089,0.97982
237.455,29.59879,0.02172,0.29083,0.97952
238.055,29.6559,0.02172,0.29019,0.97921
238.655,29.7131,0.02172542,0.29423,0.97891
239.255,29.77045,0.02040113,0.29268,0.97861
239.855,29.8278,0.02039685,0.29315,0.9783
240.455,29.8847,0.02106439,0.2945,0.978
241.055,29.942,0.02106,0.29504,0.9777
241.655,29.9991,0.02106,0.29251,0.97739
242.255,30.05643,0.02062339,0.29347,0.97709
242.855,30.11393,0.01974975,0.29401,0.97679
243.455,30.17118,0.01975,0.29557,0.97648
244.055,30.2284,0.01975002,0.29379,0.97618
244.655,30.2857,0.01985561,0.29608,0.97587
245.255,30.3431,0.01875945,0.2963,0.97557
245.855,30.4004,0.01876,0.29869,0.97527
246.455,30.4577,0.01876,0.29953,0.97496
247.055,30.5148,0.01876,0.29958,0.97466
247.655,30.57181,0.01876026,0.29973,0.97436
248.255,30.6289,0.01778898,0.29951,0.97405
248.855,30.6862,0.01743073,0.30247,0.97375
249.455,30.74359,0.01711066,0.30097,0.97344
250.055,30.80081,0.01710191,0.30287,0.97314
250.655,30.85817,0.01580034,0.30521,0.97284
251.255,30.9154,0.0158,0.30762,0.97253
251.855,30.97271,0.0158,0.30891,0.97223
252.455,31.03,0.01580116,0.30883,0.97192
253.055,31.08717,0.01482118,0.30805,0.97162
253.655,31.1444,0.0148136,0.31004,0.97131
254.255,31.2016,0.01350253,0.30977,0.97101
254.855,31.2588,0.01349409,0.30822,0.97071
255.455,31.3161,0.0141482,0.31087,0.9704
256.055,31.37323,0.01277847,0.31076,0.9701
256.655,31.43052,0.01280537,0.31128,0.96979
257.255,31.48763,0.01415083,0.31133,0.96949
257.855,31.5448,0.01158331,0.31607,0.96918
258.455,31.6021,0.01151002,0.3136,0.96888
259.055,31.6594,0.01151,0.31688,0.96857
259.655,31.71664,0.01151,0.31468,0.96827
260.255,31.77382,0.01151,0.31811,0.96796
260.855,31.83095,0.01151,0.31713,0.96766
261.455,31.88816,0.01150806,0.31662,0.96735
262.055,31.94538,0.01017015,0.32109,0.96705
262.655,32.0029,0.01020464,0.3208,0.96674
263.255,32.06022,0.0085559,0.32395,0.96644
263.855,32.11756,0.00855,0.321,0.96613
264.455,32.17484,0.00855,0.32542,0.96583
265.055,32.23217,0.00855,0.32452,0.96552
265.655,32.28945,0.008549954,0.32347,0.96522
266.255,32.34666,0.00734525,0.32533,0.96491
266.855,32.4039,0.00723763,0.32534,0.9646
267.455,32.46097,0.005955349,0.32683,0.9643
268.055,32.5182,0.00559955,0.32585,0.96399
268.655,32.57545,0.005598615,0.32554,0.96369
269.255,32.63278,0.004959329,0.32623,0.96338
269.855,32.68999,0.003630946,0.32514,0.96307
270.455,32.7473,0.00361999,0.32892,0.96277
271.055,32.80455,0.003620482,0.32639,0.96246
271.655,32.86188,0.002463431,0.32995,0.96216
272.255,32.91902,0.002309999,0.32742,0.96185
272.855,32.97625,0.002316726,0.32916,0.96154
273.455,33.03334,0.0009949393,0.32724,0.96124
274.055,33.0904,-0.0003220198,0.32688,0.96093
274.655,33.14768,-0.0003300037,0.32976,0.96062
275.255,33.2048,-0.0003233025,0.32716,0.96032
275.855,33.2618,-0.00163829,0.32751,0.96001
276.455,33.31888,-0.00164001,0.32955,0.9597
277.055,33.376,-0.002041316,0.3282,0.9594
277.655,33.43345,-0.002960274,0.32837,0.95909
278.255,33.49071,-0.002969245,0.32879,0.95878
278.855,33.54803,-0.00426053,0.328,0.95848
279.455,33.6055,-0.005258474,0.32961,0.95817
280.055,33.66288,-0.004949309,0.32698,0.95786
280.655,33.72017,-0.004940345,0.32642,0.95755
281.255,33.77706,-0.006239665,0.3281,0.95725
281.855,33.8342,-0.0076496,0.32687,0.95694
282.455,33.89137,-0.00756002,0.32499,0.95663
283.055,33.94855,-0.0075662,0.32385,0.95632
283.655,34.00611,-0.007905,0.3262,0.95602
284.255,34.06344,-0.007899574,0.3258,0.95571
284.855,34.12096,-0.009018638,0.32446,0.9554
285.455,34.1783,-0.01054504,0.32413,0.95509
286.055,34.23575,-0.01053009,0.3255,0.95479
286.655,34.29312,-0.01072023,0.32382,0.95448
287.255,34.35071,-0.01184018,0.32407,0.95417
287.855,34.40826,-0.01183977,0.32388,0.95386
288.455,34.4657,-0.0131421,0.3222,0.95355
289.055,34.52326,-0.01316108,0.32772,0.95324
289.655,34.58064,-0.01380751,0.3247,0.95293
290.255,34.63811,-0.01411354,0.32471,0.95263
290.855,34.6956,-0.01579275,0.3258,0.95232
291.455,34.7532,-0.01574876,0.3249,0.95201
292.055,34.8108,-0.01662647,0.32441,0.9517
292.655,34.86831,-0.01579815,0.3237,0.95139
293.255,34.92585,-0.01644872,0.32444,0.95108
293.855,34.98324,-0.01718209,0.32362,0.95077
294.455,35.0406,-0.01843261,0.3263,0.95046
295.055,35.09795,-0.01975106,0.3278,0.95015
295.655,35.15552,-0.01869914,0.32463,0.94984
296.255,35.213,-0.02006899,0.32715,0.94953
296.855,35.27064,-0.02007004,0.32801,0.94922
297.455,35.3283,-0.02133434,0.32588,0.94891
298.055,35.38596,-0.02208185,0.32654,0.9486
298.655,35.4436,-0.02302295,0.32865,0.94829
299.255,35.5011,-0.02303368,0.32819,0.94798
299.855,35.55878,-0.02336057,0.32824,0.94767
300.455,35.6164,-0.02468386,0.32863,0.94736
301.055,35.67408,-0.02468151,0.32849,0.94705
301.655,35.7318,-0.02672217,0.32913,0.94674
302.255,35.7894,-0.02700233,0.33071,0.94643
302.855,35.84727,-0.02797018,0.33366,0.94612
303.455,35.90521,-0.02796996,0.33088,0.94581
304.055,35.963,-0.02788939,0.33355,0.9455
304.655,36.02065,-0.03028209,0.33484,0.94519
305.255,36.07822,-0.03082654,0.33397,0.94488
305.855,36.13582,-0.03203902,0.33349,0.94457
306.455,36.19352,-0.03312222,0.33545,0.94425
307.055,36.25138,-0.03444586,0.33338,0.94394
307.655,36.3093,-0.03444004,0.33333,0.94363
308.255,36.3671,-0.03572435,0.33603,0.94332
308.855,36.425,-0.03509414,0.33234,0.94301
309.455,36.48274,-0.03641323,0.33335,0.9427
310.055,36.54038,-0.03772888,0.33191,0.94238
310.655,36.59806,-0.03773001,0.3353,0.94207
311.255,36.65548,-0.03775619,0.33699,0.94176
311.855,36.71327,-0.03897351,0.33557,0.94145
312.455,36.771,-0.04069249,0.33562,0.94113
313.055,36.8289,-0.0420142,0.33643,0.94082
313.655,36.88698,-0.04202171,0.33825,0.94051
314.255,36.94475,-0.04333395,0.33936,0.94019
314.855,37.00224,-0.04562083,0.33789,0.93988
315.455,37.05996,-0.0456573,0.34153,0.93957
316.055,37.11782,-0.04695577,0.33977,0.93926
316.655,37.17556,-0.04826033,0.34274,0.93894
317.255,37.23336,-0.04902292,0.34236,0.93863
317.855,37.2911,-0.04956793,0.34201,0.93831
318.455,37.3489,-0.05022781,0.34295,0.938
319.055,37.40653,-0.05154902,0.34386,0.93769
319.655,37.46395,-0.05161154,0.34449,0.93737
320.255,37.5214,-0.05302779,0.34334,0.93706
320.855,37.57886,-0.0554719,0.34721,0.93674
321.455,37.63658,-0.05622463,0.34398,0.93643
322.055,37.69427,-0.05821257,0.34642,0.93612
322.655,37.75186,-0.06060383,0.34668,0.9358
323.255,37.8095,-0.06077091,0.34498,0.93549
323.855,37.8671,-0.06198831,0.34803,0.93517
324.455,37.92467,-0.06209032,0.34764,0.93486
325.055,37.9825,-0.06343207,0.34793,0.93454
325.655,38.0401,-0.06644306,0.34912,0.93423
326.255,38.0977,-0.06860493,0.34787,0.93391
326.855,38.1554,-0.06926101,0.34807,0.93359
327.455,38.213,-0.07118675,0.34843,0.93328
328.055,38.2708,-0.07261918,0.34667,0.93296
328.655,38.3285,-0.07393299,0.34742,0.93265
329.255,38.38617,-0.07519232,0.34705,0.93233
329.855,38.4438,-0.07658225,0.34956,0.93201
330.455,38.5015,-0.07796635,0.34686,0.9317
331.055,38.55925,-0.08051494,0.34751,0.93138
331.655,38.61699,-0.0818303,0.34889,0.93106
332.255,38.6749,-0.0837963,0.34881,0.93075
332.855,38.73274,-0.08453369,0.34651,0.93043
333.455,38.79048,-0.08667012,0.34614,0.93011
334.055,38.8483,-0.08782338,0.34561,0.9298
334.655,38.90602,-0.09032712,0.34651,0.92948
335.255,38.96368,-0.09309944,0.34249,0.92916
335.855,39.02126,-0.09430661,0.34627,0.92884
336.455,39.07898,-0.0959549,0.34502,0.92853
337.055,39.137,-0.09818723,0.34504,0.92821
337.655,39.19491,-0.0995777,0.34591,0.92789
338.255,39.25302,-0.10085,0.34657,0.92757
338.855,39.31091,-0.10293,0.34751,0.92725
339.455,39.3686,-0.10515,0.34667,0.92693
340.055,39.42666,-0.10654,0.34695,0.92662
340.655,39.48449,-0.10905,0.346,0.9263
341.255,39.54234,-0.10966,0.3472,0.92598
341.855,39.60044,-0.11109,0.34702,0.92566
342.455,39.65831,-0.113,0.3467,0.92534
343.055,39.71614,-0.1153,0.34827,0.92502
343.655,39.774,-0.11767,0.34527,0.9247
344.255,39.83186,-0.11901,0.34461,0.92438
344.855,39.88966,-0.12113,0.3481,0.92406
345.455,39.9475,-0.1232,0.34387,0.92374
346.055,40.00555,-0.12429,0.34561,0.92342
346.655,40.06345,-0.12586,0.34393,0.9231
347.255,40.12144,-0.12799,0.34498,0.92278
347.855,40.1794,-0.13063,0.34622,0.92246
348.455,40.2371,-0.13187,0.3452,0.92214
349.055,40.2949,-0.13288,0.34527,0.92182
349.655,40.3527,-0.13477,0.3448,0.92149
350.255,40.4104,-0.13609,0.34426,0.92117
350.855,40.468,-0.1391,0.34272,0.92085
351.455,40.5259,-0.14067,0.34399,0.92053
352.055,40.58378,-0.14194,0.344,0.92021
352.655,40.64186,-0.14306,0.34347,0.91989
353.255,40.6998,-0.14363,0.34447,0.91956
353.855,40.75763,-0.14596,0.34288,0.91924
354.455,40.81558,-0.14741,0.34126,0.91892
355.055,40.87359,-0.14874,0.34204,0.9186
355.655,40.93158,-0.15001,0.34447,0.91827
356.255,40.98948,-0.15136,0.34393,0.91795
356.855,41.04739,-0.1527,0.33937,0.91763
357.455,41.10536,-0.15389,0.33972,0.9173
358.055,41.16341,-0.15569,0.34102,0.91698
358.655,41.22142,-0.15663,0.34045,0.91666
359.255,41.27952,-0.15795,0.3412,0.91633
359.855,41.33757,-0.15976,0.33997,0.91601
360.455,41.39552,-0.16159,0.34083,0.91568
361.055,41.45341,-0.16286,0.34221,0.91536
361.655,41.51132,-0.16448,0.34297,0.91503
362.255,41.56922,-0.16584,0.34234,0.91471
362.855,41.6272,-0.16711,0.34536,0.91438
363.455,41.6851,-0.16843,0.3432,0.91406
364.055,41.74305,-0.16977,0.34199,0.91373
364.655,41.80097,-0.17108,0.34327,0.91341
365.255,41.859,-0.17242,0.34066,0.91308
365.855,41.917,-0.17224,0.34177,0.91276
366.455,41.97506,-0.17233,0.34131,0.91243
367.055,42.03318,-0.17448,0.33991,0.9121
367.655,42.09126,-0.17506,0.34166,0.91178
368.255,42.14959,-0.17694,0.34298,0.91145
368.855,42.20785,-0.18063,0.34262,0.91112
369.455,42.26624,-0.18183,0.34078,0.9108
370.055,42.32447,-0.18203,0.34361,0.91047
370.655,42.3825,-0.18325,0.34331,0.91014
371.255,42.44072,-0.18378,0.34399,0.90981
371.855,42.4989,-0.1859,0.34494,0.90949
372.455,42.55722,-0.18772,0.34542,0.90916
373.055,42.61557,-0.18863,0.34493,0.90883
373.655,42.674,-0.18959,0.34371,0.9085
374.255,42.73253,-0.18981,0.34425,0.90817
374.855,42.79094,-0.19229,0.34273,0.90785
375.455,42.84945,-0.19448,0.34234,0.90752
376.055,42.90795,-0.19575,0.34458,0.90719
376.655,42.96647,-0.19714,0.34388,0.90686
377.255,43.0251,-0.19883,0.34258,0.90653
377.855,43.08357,-0.20037,0.34315,0.9062
378.455,43.14223,-0.20171,0.3465,0.90587
379.055,43.20082,-0.20302,0.33925,0.90554
379.655,43.25925,-0.20434,0.34444,0.90521
380.255,43.3178,-0.20566,0.34497,0.90488
380.855,43.3764,-0.20567,0.34641,0.90455
381.455,43.4351,-0.20696,0.34646,0.90422
382.055,43.49393,-0.20827,0.34713,0.90389
382.655,43.5523,-0.21168,0.34735,0.90356
383.255,43.61085,-0.21386,0.34609,0.90322
383.855,43.66942,-0.2152,0.34702,0.90289
384.455,43.72788,-0.21607,0.34754,0.90256
385.055,43.78654,-0.21798,0.35136,0.90223
385.655,43.84499,-0.21943,0.35077,0.9019
386.255,43.90351,-0.22049,0.35069,0.90156
386.855,43.96197,-0.22249,0.3543,0.90123
387.455,44.0203,-0.22393,0.35418,0.9009
388.055,44.07875,-0.22571,0.35423,0.90057
388.655,44.1374,-0.22725,0.35758,0.90023
389.255,44.1958,-0.22882,0.35862,0.8999
389.855,44.25442,-0.23014,0.36163,0.89956
390.455,44.31285,-0.23281,0.36157,0.89923
391.055,44.3713,-0.23558,0.3639,0.8989
391.655,44.42968,-0.2355,0.36584,0.89856
392.255,44.48802,-0.23837,0.37085,0.89823
392.855,44.5463,-0.23972,0.3707,0.89789
393.455,44.60465,-0.24275,0.37335,0.89756
394.055,44.6631,-0.24546,0.37575,0.89722
394.655,44.7215,-0.24566,0.37664,0.89689
395.255,44.77997,-0.24836,0.37791,0.89655
395.855,44.83838,-0.24983,0.37978,0.89622
396.455,44.89663,-0.2523,0.38349,0.89588
397.055,44.95503,-0.25397,0.38455,0.89554
397.655,45.01334,-0.25679,0.38623,0.89521
398.255,45.0717,-0.25997,0.38633,0.89487
398.855,45.13015,-0.26203,0.39269,0.89453
399.455,45.18846,-0.26423,0.39142,0.8942
400.055,45.2468,-0.26793,0.39361,0.89386
400.655,45.30512,-0.27014,0.39434,0.89352
401.255,45.3634,-0.27195,0.39386,0.89318
401.855,45.4218,-0.27508,0.39534,0.89285
402.455,45.48035,-0.27784,0.3965,0.89251
403.055,45.53862,-0.27954,0.39833,0.89217
403.655,45.59686,-0.28171,0.39999,0.89183
404.255,45.65534,-0.28532,0.39921,0.89149
404.855,45.7138,-0.28793,0.40002,0.89115
405.455,45.77304,-0.29085,0.40118,0.89081
406.055,45.83187,-0.2916,0.39967,0.89047
406.655,45.89085,-0.29486,0.40092,0.89014
407.255,45.94957,-0.29781,0.39859,0.8898
407.855,46.0083,-0.30024,0.39993,0.88945
408.455,46.06698,-0.3038,0.39828,0.88911
409.055,46.12557,-0.30784,0.39871,0.88877
409.655,46.18438,-0.30907,0.395,0.88843
410.255,46.24309,-0.31402,0.39505,0.88809
410.855,46.30144,-0.31577,0.39594,0.88775
411.455,46.36029,-0.31856,0.39526,0.88741
412.055,46.41907,-0.31853,0.39055,0.88707
412.655,46.478,-0.32137,0.38799,0.88672
413.255,46.5368,-0.32442,0.38884,0.88638
413.855,46.59555,-0.32729,0.38417,0.88604
414.455,46.65424,-0.33013,0.381,0.8857
415.055,46.71287,-0.33057,0.37878,0.88535
415.655,46.77159,-0.333,0.37739,0.88501
416.255,46.83025,-0.33587,0.37589,0.88467
416.855,46.889,-0.33816,0.37263,0.88432
417.455,46.94763,-0.34078,0.3716,0.88398
418.055,47.00649,-0.34232,0.36651,0.88364
418.655,47.06548,-0.34425,0.36335,0.88329
419.255,47.12457,-0.34549,0.36183,0.88295
419.855,47.18357,-0.3467,0.3586,0.8826
420.455,47.2425,-0.34899,0.35589,0.88226
421.055,47.30127,-0.35115,0.3545,0.88191
421.655,47.35995,-0.35315,0.35038,0.88157
422.255,47.4189,-0.35637,0.34712,0.88122
422.855,47.4777,-0.35647,0.34767,0.88087
423.455,47.53647,-0.35769,0.3431,0.88053
424.055,47.59533,-0.35896,0.34373,0.88018
424.655,47.6541,-0.3603,0.33958,0.87983
425.255,47.71277,-0.36127,0.33745,0.87949
425.855,47.77151,-0.363,0.33815,0.87914
426.455,47.83015,-0.36425,0.33867,0.87879
427.055,47.88888,-0.36558,0.33723,0.87844
427.655,47.94764,-0.3658,0.33318,0.8781
428.255,48.00649,-0.36681,0.33543,0.87775
428.855,48.0652,-0.36821,0.33216,0.8774
429.455,48.12399,-0.3695,0.33045,0.87705
430.055,48.18269,-0.36953,0.33182,0.8767
430.655,48.2414,-0.37082,0.32952,0.87635
431.255,48.30017,-0.37322,0.32888,0.876
431.855,48.3591,-0.37348,0.32717,0.87565
432.455,48.41805,-0.3748,0.32542,0.8753
433.055,48.47694,-0.37494,0.32562,0.87495
433.655,48.53572,-0.37517,0.32531,0.8746
434.255,48.5944,-0.37613,0.32584,0.87425
434.855,48.65305,-0.3781,0.32557,0.8739
435.455,48.71185,-0.37841,0.32555,0.87355
436.055,48.77066,-0.37973,0.32712,0.8732
436.655,48.82943,-0.37972,0.32401,0.87285
437.255,48.8883,-0.38164,0.32659,0.87249
437.855,48.9469,-0.38269,0.32323,0.87214
438.455,49.00582,-0.38398,0.32837,0.87179
439.055,49.0645,-0.38461,0.32506,0.87144
439.655,49.1235,-0.38434,0.32323,0.87108
440.255,49.18235,-0.38564,0.32239,0.87073
440.855,49.24138,-0.38565,0.32376,0.87038
441.455,49.30048,-0.38674,0.32042,0.87002
442.055,49.35967,-0.38767,0.32267,0.86967
442.655,49.4189,-0.38926,0.32084,0.86931
443.255,49.47795,-0.39092,0.32171,0.86896
443.855,49.5369,-0.39012,0.32004,0.8686
444.455,49.59608,-0.39124,0.32131,0.86825
445.055,49.65518,-0.39255,0.31889,0.86789
445.655,49.71458,-0.39388,0.32194,0.86754
446.255,49.77393,-0.39386,0.32281,0.86718
446.855,49.83337,-0.39298,0.32367,0.86683
447.455,49.89275,-0.39663,0.3222,0.86647
448.055,49.95211,-0.39815,0.32536,0.86611
448.655,50.0117,-0.39816,0.3265,0.86576
449.255,50.0713,-0.39817,0.32737,0.8654
449.855,50.131,-0.39805,0.32379,0.86504
450.455,50.1907,-0.39948,0.32668,0.86468
451.055,50.2505,-0.39992,0.32381,0.86432
451.655,50.31013,-0.40112,0.32391,0.86397
452.255,50.3701,-0.40242,0.32296,0.86361
452.855,50.42994,-0.40342,0.32328,0.86325
453.455,50.49005,-0.40406,0.32521,0.86289
454.055,50.55021,-0.40516,0.32536,0.86253
454.655,50.61005,-0.40606,0.32506,0.86217
455.255,50.66973,-0.40741,0.3241,0.86181
455.855,50.7295,-0.40738,0.32557,0.86145
456.455,50.78925,-0.40901,0.32571,0.86109
457.055,50.8491,-0.41033,0.32946,0.86073
457.655,50.90902,-0.41165,0.33027,0.86037
458.255,50.96859,-0.41165,0.33182,0.86001
458.855,51.02831,-0.41296,0.33096,0.85964
459.455,51.08791,-0.4129,0.33168,0.85928
460.055,51.1474,-0.41511,0.33449,0.85892
460.655,51.20704,-0.41675,0.3331,0.85856
461.255,51.2665,-0.41694,0.33599,0.85819
461.855,51.32591,-0.41825,0.33743,0.85783
462.455,51.38544,-0.41961,0.3381,0.85747
463.055,51.4447,-0.41984,0.33806,0.8571
463.655,51.50414,-0.42085,0.33978,0.85674
464.255,51.56344,-0.42026,0.33841,0.85638
464.855,51.62265,-0.42153,0.34075,0.85601
465.455,51.68195,-0.42284,0.34282,0.85565
466.055,51.7412,-0.42337,0.34024,0.85528
466.655,51.8005,-0.42524,0.34096,0.85492
467.255,51.85969,-0.4255,0.34239,0.85455
467.855,51.9189,-0.42679,0.34249,0.85419
468.455,51.9782,-0.42737,0.34059,0.85382
469.055,52.0374,-0.42832,0.33866,0.85345
469.655,52.0969,-0.42877,0.33662,0.85309
470.255,52.1562,-0.43008,0.33448,0.85272
470.855,52.2155,-0.43147,0.33589,0.85235
471.455,52.27478,-0.4327,0.33329,0.85198
472.055,52.33412,-0.43402,0.33088,0.85162
472.655,52.39331,-0.43395,0.33252,0.85125
473.255,52.45259,-0.43405,0.33116,0.85088
473.855,52.51175,-0.43545,0.33259,0.85051
474.455,52.57094,-0.43681,0.33436,0.85014
475.055,52.63024,-0.43786,0.33529,0.84977
475.655,52.6895,-0.43875,0.33278,0.8494
476.255,52.7486,-0.43968,0.32943,0.84903
476.855,52.8077,-0.4403,0.33046,0.84866
477.455,52.8667,-0.44018,0.33347,0.84829
478.055,52.92598,-0.44005,0.33209,0.84792
478.655,52.98536,-0.44138,0.33129,0.84755
479.255,53.04473,-0.44269,0.33416,0.84718
479.855,53.1038,-0.44133,0.33168,0.84681
480.455,53.16304,-0.4427,0.32957,0.84644
481.055,53.222,-0.44401,0.33099,0.84606
481.655,53.28136,-0.44402,0.32807,0.84569
482.255,53.34081,-0.44632,0.32838,0.84532
482.855,53.40022,-0.44631,0.33029,0.84495
483.455,53.4596,-0.44763,0.3289,0.84457
484.055,53.51883,-0.44664,0.32696,0.8442
484.655,53.5781,-0.44795,0.32698,0.84382
485.255,53.63734,-0.44926,0.32594,0.84345
485.855,53.69673,-0.45002,0.32633,0.84308
486.455,53.7561,-0.45189,0.32538,0.8427
487.055,53.8155,-0.45329,0.3256,0.84233
487.655,53.8748,-0.45322,0.32529,0.84195
488.255,53.9339,-0.45322,0.32258,0.84157
488.855,53.99321,-0.45339,0.3229,0.8412
489.455,54.05236,-0.45354,0.32567,0.84082
490.055,54.11165,-0.45322,0.32661,0.84045
490.655,54.1709,-0.45453,0.32668,0.84007
491.255,54.23025,-0.45454,0.32432,0.83969
491.855,54.28979,-0.45584,0.32435,0.83931
492.455,54.34904,-0.45585,0.32362,0.83894
493.055,54.4084,-0.45585,0.32376,0.83856
493.655,54.4678,-0.45717,0.32183,0.83818
494.255,54.52715,-0.45716,0.32337,0.8378
494.855,54.58675,-0.45849,0.32522,0.83742
495.455,54.646,-0.45714,0.32295,0.83704
496.055,54.70548,-0.45717,0.32446,0.83666
496.655,54.76498,-0.45715,0.32154,0.83628
497.255,54.8244,-0.45846,0.32395,0.8359
497.855,54.884,-0.45848,0.32503,0.83552
498.455,54.9435,-0.45972,0.32735,0.83514
499.055,55.00294,-0.4598,0.33002,0.83476
499.655,55.0625,-0.46099,0.33327,0.83438
500.255,55.1219,-0.46177,0.33302,0.834
500.855,55.1812,-0.46177,0.33249,0.83361
501.455,55.2407,-0.46309,0.33136,0.83323
502.055,55.29995,-0.46205,0.33192,0.83285
502.655,55.3594,-0.46178,0.33338,0.83247
503.255,55.4187,-0.4631,0.33384,0.83208
503.855,55.4781,-0.4631,0.33724,0.8317
504.455,55.5377,-0.46394,0.3368,0.83131
505.055,55.5971,-0.46441,0.33903,0.83093
505.655,55.6565,-0.46441,0.33768,0.83055
506.255,55.71603,-0.46431,0.33856,0.83016
506.855,55.7755,-0.46573,0.33676,0.82978
507.455,55.83494,-0.46573,0.3369,0.82939
508.055,55.89439,-0.46568,0.33722,0.829
508.655,55.95383,-0.46711,0.33895,0.82862
509.255,56.01339,-0.46847,0.34044,0.82823
509.855,56.0731,-0.46715,0.34089,0.82785
510.455,56.1328,-0.46715,0.34217,0.82746
511.055,56.1923,-0.46857,0.34466,0.82707
511.655,56.2517,-0.46847,0.34136,0.82668
512.255,56.31111,-0.46981,0.34401,0.8263
512.855,56.37061,-0.47078,0.34863,0.82591
513.455,56.4301,-0.47044,0.35564,0.82552
514.055,56.48969,-0.47044,0.35849,0.82513
514.655,56.5491,-0.47044,0.35917,0.82474
515.255,56.6084,-0.47176,0.36121,0.82435
515.855,56.6678,-0.47176,0.36477,0.82396
516.455,56.7274,-0.47175,0.36603,0.82357
517.055,56.78691,-0.47242,0.36581,0.82318
517.655,56.8464,-0.47252,0.36783,0.82279
518.255,56.906,-0.47248,0.36879,0.8224
518.855,56.96572,-0.47274,0.36842,0.82201
519.455,57.02528,-0.47274,0.36798,0.82161
520.055,57.08501,-0.47276,0.36939,0.82122
520.655,57.1445,-0.4734,0.36999,0.82083
521.255,57.20423,-0.47408,0.36912,0.82044
521.855,57.26384,-0.47405,0.36757,0.82004
522.455,57.3235,-0.47538,0.3721,0.81965
523.055,57.3831,-0.47537,0.37542,0.81926
523.655,57.4427,-0.47637,0.37374,0.81886
524.255,57.5022,-0.47636,0.37451,0.81847
524.855,57.56171,-0.47636,0.37555,0.81807
525.455,57.6213,-0.47672,0.37526,0.81768
526.055,57.6808,-0.47776,0.37688,0.81728
526.655,57.7403,-0.47768,0.37209,0.81689
527.255,57.7996,-0.47801,0.37026,0.81649
527.855,57.85909,-0.47932,0.36824,0.8161
528.455,57.9188,-0.47932,0.36775,0.8157
529.055,57.97863,-0.48031,0.36957,0.8153
529.655,58.0383,-0.48031,0.3655,0.81491
530.255,58.0979,-0.47944,0.36457,0.81451
530.855,58.15736,-0.479,0.36091,0.81411
531.455,58.21682,-0.48166,0.35724,0.81371
532.055,58.27636,-0.48121,0.35257,0.81331
532.655,58.336,-0.48029,0.34575,0.81291
533.255,58.39544,-0.48096,0.34248,0.81252
533.855,58.45516,-0.48163,0.33814,0.81212
534.455,58.51494,-0.48294,0.33487,0.81172
535.055,58.57473,-0.48439,0.33701,0.81132
535.655,58.63455,-0.48295,0.33354,0.81092
536.255,58.69412,-0.48295,0.33243,0.81052
536.855,58.7538,-0.48295,0.33035,0.81011
537.455,58.81358,-0.48425,0.32977,0.80971
538.055,58.8734,-0.48426,0.32889,0.80931
538.655,58.9332,-0.48426,0.32254,0.80891
539.255,58.9929,-0.48531,0.31653,0.80851
539.855,59.05255,-0.48525,0.31178,0.8081
540.455,59.1123,-0.48557,0.30752,0.8077
541.055,59.17208,-0.48691,0.30558,0.8073
541.655,59.2318,-0.48689,0.30514,0.80689
542.255,59.29166,-0.48608,0.30627,0.80649
542.855,59.35154,-0.48662,0.30269,0.80609
543.455,59.41134,-0.48755,0.30304,0.80568
544.055,59.47127,-0.48791,0.3026,0.80528
544.655,59.5312,-0.48789,0.30066,0.80487
545.255,59.59115,-0.4892,0.30124,0.80446
545.855,59.651,-0.4892,0.30065,0.80406
546.455,59.71085,-0.4892,0.30195,0.80365
547.055,59.7705,-0.49051,0.30088,0.80325
547.655,59.83034,-0.49014,0.30101,0.80284
548.255,59.89,-0.48986,0.30567,0.80243
548.855,59.9497,-0.48988,0.30455,0.80202
549.455,60.00957,-0.49117,0.30307,0.80162
550.055,60.06919,-0.49117,0.30413,0.80121
550.655,60.12904,-0.49248,0.30478,0.8008
551.255,60.18869,-0.49249,0.30271,0.80039
551.855,60.24836,-0.49183,0.30736,0.79998
552.455,60.30809,-0.49114,0.30397,0.79957
553.055,60.3679,-0.49249,0.3047,0.79916
553.655,60.4278,-0.49248,0.30366,0.79875
554.255,60.48775,-0.49413,0.30275,0.79834
554.855,60.54758,-0.49414,0.30632,0.79793
555.455,60.6074,-0.49511,0.30503,0.79752
556.055,60.66731,-0.49512,0.30263,0.79711
556.655,60.7271,-0.49512,0.30328,0.79669
557.255,60.78711,-0.49512,0.30613,0.79628
557.855,60.8471,-0.49445,0.3038,0.79587
558.455,60.90704,-0.49578,0.30579,0.79546
559.055,60.96711,-0.49708,0.30602,0.79504
559.655,61.0271,-0.49709,0.3013,0.79463
560.255,61.08712,-0.49709,0.30283,0.79422
560.855,61.14716,-0.49709,0.30481,0.7938
561.455,61.2072,-0.49709,0.30258,0.79339
562.055,61.26719,-0.49779,0.30101,0.79297
562.655,61.3274,-0.49776,0.30591,0.79256
563.255,61.3875,-0.49776,0.29842,0.79214
563.855,61.44766,-0.49907,0.29555,0.79173
564.455,61.5078,-0.49775,0.30123,0.79131
565.055,61.56794,-0.49902,0.298,0.79089
565.655,61.62809,-0.49907,0.29436,0.79048
566.255,61.6883,-0.49903,0.29766,0.79006
566.855,61.74844,-0.49906,0.29882,0.78964
567.455,61.8085,-0.49907,0.29302,0.78922
568.055,61.8686,-0.49968,0.29534,0.78881
568.655,61.92875,-0.50039,0.29041,0.78839
569.255,61.9889,-0.50039,0.29247,0.78797
569.855,62.04902,-0.50039,0.28988,0.78755
570.455,62.109,-0.50137,0.29275,0.78713
571.055,62.1689,-0.50302,0.28971,0.78671
571.655,62.22894,-0.50238,0.29133,0.78629
572.255,62.289,-0.5017,0.29323,0.78587
572.855,62.3492,-0.50302,0.29042,0.78545
573.455,62.40956,-0.50302,0.29044,0.78503
574.055,62.4698,-0.50302,0.2892,0.7846
574.655,62.53,-0.50434,0.28452,0.78418
575.255,62.58995,-0.50434,0.28512,0.78376
575.855,62.64979,-0.50434,0.28495,0.78334
576.455,62.70975,-0.50434,0.28489,0.78292
577.055,62.76975,-0.50504,0.28125,0.78249
577.655,62.8297,-0.50565,0.28144,0.78207
578.255,62.88984,-0.50565,0.27771,0.78164
578.855,62.94973,-0.50494,0.28148,0.78122
579.455,63.0097,-0.50501,0.27813,0.7808
580.055,63.0696,-0.50697,0.27636,0.78037
580.655,63.1296,-0.50697,0.27546,0.77995
581.255,63.18954,-0.50696,0.27467,0.77952
581.855,63.24946,-0.50828,0.27655,0.77909
582.455,63.30975,-0.50697,0.27009,0.77867
583.055,63.36985,-0.50696,0.27526,0.77824
583.655,63.42983,-0.50761,0.27024,0.77781
584.255,63.48984,-0.5083,0.27189,0.77739
584.855,63.54985,-0.50828,0.26904,0.77696
585.455,63.6101,-0.50828,0.27195,0.77653
586.055,63.67032,-0.50962,0.27036,0.7761
586.655,63.7305,-0.5096,0.26643,0.77567
587.255,63.7906,-0.5096,0.26465,0.77525
587.855,63.8507,-0.5096,0.26437,0.77482
588.455,63.91072,-0.5096,0.2652,0.77439
589.055,63.9708,-0.50966,0.26667,0.77396
589.655,64.0308,-0.51091,0.26685,0.77353
590.255,64.0909,-0.51091,0.26593,0.7731
590.855,64.1508,-0.51092,0.26452,0.77267
591.455,64.21074,-0.51092,0.26406,0.77223
592.055,64.27075,-0.51125,0.26599,0.7718
592.655,64.33097,-0.51124,0.26302,0.77137
593.255,64.3912,-0.51237,0.26034,0.77094
593.855,64.45142,-0.51315,0.26118,0.77051
594.455,64.51172,-0.51256,0.26202,0.77007
595.055,64.57212,-0.514,0.26723,0.76964
595.655,64.6323,-0.51519,0.26747,0.76921
596.255,64.69265,-0.51451,0.26778,0.76877
596.855,64.75287,-0.51388,0.26744,0.76834
597.455,64.81302,-0.51388,0.27001,0.7679
598.055,64.87324,-0.51384,0.26521,0.76747
598.655,64.93327,-0.51325,0.27033,0.76703
599.255,64.99347,-0.51474,0.27021,0.7666
599.855,65.05377,-0.51519,0.27077,0.76616
600.455,65.11409,-0.51651,0.27074,0.76572
601.055,65.17449,-0.51644,0.27282,0.76529
601.655,65.23488,-0.51519,0.27437,0.76485
602.255,65.29525,-0.51519,0.27228,0.76441
602.855,65.3557,-0.51522,0.27547,0.76398
603.455,65.4162,-0.51651,0.2741,0.76354
604.055,65.47652,-0.51789,0.27726,0.7631
604.655,65.5368,-0.51849,0.27881,0.76266
605.255,65.59702,-0.51849,0.27768,0.76222
605.855,65.6572,-0.51853,0.28121,0.76178
606.455,65.71749,-0.51848,0.28391,0.76134
607.055,65.7778,-0.51848,0.28412,0.7609
607.655,65.838,-0.51942,0.2847,0.76046
608.255,65.898,-0.5198,0.28565,0.76002
608.855,65.95804,-0.52103,0.28656,0.75958
609.455,66.01827,-0.52111,0.29021,0.75914
610.055,66.0784,-0.52111,0.28842,0.7587
610.655,66.13869,-0.52111,0.29333,0.75826
611.255,66.19891,-0.52111,0.29558,0.75781
611.855,66.2591,-0.52111,0.29629,0.75737
612.455,66.31942,-0.52243,0.2977,0.75693
613.055,66.37979,-0.52377,0.29869,0.75648
613.655,66.43994,-0.52375,0.2985,0.75604
614.255,66.50026,-0.52244,0.3032,0.7556
614.855,66.56051,-0.5229,0.3046,0.75515
615.455,66.62069,-0.52506,0.30213,0.75471
616.055,66.6809,-0.52639,0.30495,0.75426
616.655,66.74107,-0.52638,0.30832,0.75382
617.255,66.8012,-0.5251,0.30915,0.75337
617.855,66.8614,-0.52639,0.31365,0.75293
618.455,66.92153,-0.52694,0.31611,0.75248
619.055,66.98181,-0.5277,0.31718,0.75203
619.655,67.04212,-0.5277,0.31868,0.75159
620.255,67.10242,-0.5277,0.32013,0.75114
620.855,67.1626,-0.5277,0.31928,0.75069
621.455,67.22276,-0.52771,0.32259,0.75024
622.055,67.28311,-0.52901,0.32486,0.74979
622.655,67.34335,-0.53058,0.32796,0.74935
623.255,67.40381,-0.53165,0.33019,0.7489
623.855,67.46392,-0.53175,0.33218,0.74845
624.455,67.52418,-0.53162,0.33599,0.748
625.055,67.5847,-0.53164,0.3364,0.74755
625.655,67.6452,-0.53296,0.34018,0.7471
626.255,67.70566,-0.53428,0.34416,0.74665
626.855,67.76601,-0.53361,0.34487,0.7462
627.455,67.82632,-0.53434,0.34741,0.74574
628.055,67.8867,-0.53564,0.34907,0.74529
628.655,67.9472,-0.53559,0.34928,0.74484
629.255,68.0077,-0.53559,0.35399,0.74439
629.855,68.0681,-0.53691,0.35538,0.74394
630.455,68.12854,-0.53689,0.35695,0.74348
631.055,68.18871,-0.53822,0.36167,0.74303
631.655,68.24931,-0.53954,0.3612,0.74258
632.255,68.30964,-0.54057,0.36241,0.74212
632.855,68.3701,-0.54086,0.36744,0.74167
633.455,68.43038,-0.54217,0.36896,0.74121
634.055,68.49085,-0.54328,0.37434,0.74076
634.655,68.55134,-0.54349,0.37413,0.7403
635.255,68.61185,-0.54489,0.37551,0.73985
635.855,68.6724,-0.5435,0.37707,0.73939
636.455,68.73307,-0.5448,0.38227,0.73893
637.055,68.7937,-0.54613,0.38325,0.73848
637.655,68.8544,-0.54877,0.38562,0.73802
638.255,68.91504,-0.54819,0.38742,0.73756
638.855,68.97545,-0.54874,0.38726,0.73711
639.455,69.0359,-0.55011,0.39017,0.73665
640.055,69.0965,-0.55009,0.39056,0.73619
640.655,69.15703,-0.55135,0.39704,0.73573
641.255,69.218,-0.55204,0.39957,0.73527
641.855,69.27884,-0.55172,0.40125,0.73481
642.455,69.3395,-0.55304,0.40415,0.73435
643.055,69.40025,-0.55574,0.40756,0.73389
643.655,69.46083,-0.55699,0.40804,0.73343
644.255,69.52124,-0.55715,0.41017,0.73297
644.855,69.58188,-0.55765,0.41576,0.73251
645.455,69.64259,-0.55896,0.41673,0.73205
646.055,69.7034,-0.55901,0.41932,0.73159
646.655,69.76399,-0.56027,0.42121,0.73113
647.255,69.82441,-0.56131,0.42525,0.73067
647.855,69.8849,-0.56228,0.42783,0.7302
648.455,69.94519,-0.56356,0.43314,0.72974
649.055,70.00555,-0.56492,0.43589,0.72928
649.655,70.06573,-0.56604,0.44158,0.72881
650.255,70.12612,-0.56726,0.44744,0.72835
650.855,70.18632,-0.56882,0.44729,0.72789
651.455,70.24661,-0.56878,0.45092,0.72742
652.055,70.3069,-0.57066,0.45772,0.72696
652.655,70.36712,-0.57138,0.46212,0.72649
653.255,70.4273,-0.57166,0.46628,0.72603
653.855,70.4875,-0.57233,0.47216,0.72556
654.455,70.54777,-0.57344,0.47693,0.72509
655.055,70.60798,-0.57596,0.47916,0.72463
655.655,70.66826,-0.57829,0.48477,0.72416
656.255,70.72859,-0.57736,0.48817,0.72369
656.855,70.78905,-0.57871,0.49033,0.72323
657.455,70.84934,-0.58002,0.49901,0.72276
658.055,70.90982,-0.58238,0.50389,0.72229
658.655,70.97026,-0.58395,0.51103,0.72182
659.255,71.03087,-0.58526,0.51572,0.72135
659.855,71.0912,-0.58603,0.51895,0.72088
660.455,71.1515,-0.58862,0.52554,0.72042
661.055,71.21202,-0.58828,0.52741,0.71995
661.655,71.27252,-0.59075,0.5349,0.71948
662.255,71.33304,-0.59217,0.53844,0.71901
662.855,71.3937,-0.5935,0.54766,0.71854
663.455,71.4542,-0.59508,0.54935,0.71806
664.055,71.51468,-0.59616,0.5578,0.71759
664.655,71.57506,-0.59757,0.56126,0.71712
665.255,71.63529,-0.60024,0.56577,0.71665
665.855,71.6957,-0.60154,0.57591,0.71618
666.455,71.7561,-0.60359,0.5811,0.71571
667.055,71.81658,-0.60424,0.58825,0.71523
667.655,71.87708,-0.60558,0.59432,0.71476
668.255,71.9376,-0.60741,0.60098,0.71429
668.855,71.99801,-0.60984,0.61182,0.71381
669.455,72.05851,-0.61241,0.61163,0.71334
670.055,72.11885,-0.61446,0.61971,0.71286
670.655,72.1793,-0.61588,0.62863,0.71239
671.255,72.23988,-0.61725,0.63743,0.71191
671.855,72.30035,-0.61854,0.64585,0.71144
672.455,72.3609,-0.62004,0.64923,0.71096
673.055,72.42152,-0.62244,0.65765,0.71049
673.655,72.48191,-0.62431,0.66385,0.71001
674.255,72.54239,-0.62701,0.67212,0.70953
674.855,72.60295,-0.62783,0.67828,0.70906
675.455,72.66324,-0.62918,0.68937,0.70858
676.055,72.72376,-0.63231,0.69755,0.7081
676.655,72.78402,-0.63539,0.7012,0.70763
677.255,72.8447,-0.637,0.71278,0.70715
677.855,72.90539,-0.64045,0.7198,0.70667
678.455,72.9661,-0.6427,0.72662,0.70619
679.055,73.0271,-0.64334,0.73574,0.70571
679.655,73.0877,-0.64525,0.74711,0.70523
680.255,73.1485,-0.64839,0.75661,0.70475
680.855,73.2091,-0.65066,0.76439,0.70427
681.455,73.26971,-0.65322,0.7732,0.70379
682.055,73.33041,-0.65502,0.78293,0.70331
682.655,73.39097,-0.6579,0.79253,0.70283
683.255,73.45165,-0.66099,0.802,0.70235
683.855,73.51252,-0.66384,0.80914,0.70187
684.455,73.57335,-0.66496,0.81978,0.70139
685.055,73.63422,-0.66659,0.82643,0.7009
685.655,73.69489,-0.66945,0.8403,0.70042
686.255,73.7556,-0.6729,0.84766,0.69994
686.855,73.8163,-0.67571,0.85695,0.69946
687.455,73.87703,-0.67866,0.86907,0.69897
688.055,73.93779,-0.68102,0.87946,0.69849
688.655,73.99835,-0.68437,0.88765,0.69801
689.255,74.059,-0.68652,0.90375,0.69752
689.855,74.1195,-0.68875,0.90918,0.69704
690.455,74.18,-0.69214,0.92288,0.69655
691.055,74.2406,-0.69567,0.93472,0.69607
691.655,74.30142,-0.69914,0.94469,0.69558
692.255,74.36208,-0.70255,0.95515,0.6951
692.855,74.42308,-0.70686,0.96392,0.69461
693.455,74.484,-0.70847,0.97976,0.69412
694.055,74.54482,-0.71189,0.99517,0.69364
694.655,74.60565,-0.71499,1.00543,0.69315
695.255,74.66627,-0.71836,1.01807,0.69266
695.855,74.72694,-0.72196,1.02943,0.69218
696.455,74.78751,-0.72528,1.03985,0.69169
697.055,74.84804,-0.72852,1.05213,0.6912
697.655,74.9084,-0.73247,1.0674,0.69071
698.255,74.96893,-0.73567,1.07983,0.69022
698.855,75.02932,-0.73908,1.09426,0.68973
699.455,75.0899,-0.74351,1.10773,0.68924
700.055,75.15021,-0.74714,1.11601,0.68875
700.655,75.21065,-0.75029,1.13482,0.68826
701.255,75.27121,-0.75427,1.14795,0.68777
701.855,75.33176,-0.75802,1.16029,0.68728
702.455,75.3924,-0.76157,1.17708,0.68679
703.055,75.4529,-0.76639,1.19206,0.6863
703.655,75.51345,-0.76889,1.20519,0.68581
704.255,75.57409,-0.77207,1.22424,0.68532
704.855,75.63471,-0.77913,1.23685,0.68483
705.455,75.69543,-0.78413,1.25716,0.68433
706.055,75.756,-0.78884,1.27166,0.68384
706.655,75.81671,-0.79162,1.28747,0.68335
707.255,75.8772,-0.79591,1.30888,0.68286
707.855,75.93808,-0.80212,1.32343,0.68236
708.455,75.99875,-0.80626,1.3408,0.68187
709.055,76.05968,-0.80974,1.35785,0.68138
709.655,76.1207,-0.81372,1.37681,0.68088
710.255,76.1814,-0.81894,1.39264,0.68039
710.855,76.2423,-0.82451,1.40717,0.67989
711.455,76.30272,-0.82937,1.423,0.6794
712.055,76.3636,-0.83395,1.44075,0.6789
712.655,76.42434,-0.83889,1.46083,0.67841
713.255,76.48519,-0.84464,1.47932,0.67791
713.855,76.54625,-0.84929,1.49635,0.67741
714.455,76.6071,-0.85443,1.51222,0.67692
715.055,76.66807,-0.86064,1.53524,0.67642
715.655,76.72898,-0.8653,1.55222,0.67592
716.255,76.78992,-0.87143,1.57398,0.67543
716.855,76.85047,-0.87595,1.59392,0.67493
717.455,76.91133,-0.88231,1.61286,0.67443
718.055,76.9721,-0.88817,1.63265,0.67393
718.655,77.03308,-0.89435,1.65177,0.67343
719.255,77.09395,-0.90028,1.6726,0.67293
719.855,77.1549,-0.90629,1.69635,0.67244
720.455,77.21584,-0.91081,1.71292,0.67194
721.055,77.27675,-0.91707,1.7352,0.67144
721.655,77.3376,-0.92282,1.76251,0.67094
722.255,77.39855,-0.92899,1.78035,0.67044
722.855,77.45956,-0.93579,1.80083,0.66994
723.455,77.5206,-0.94218,1.81766,0.66944
724.055,77.5817,-0.94886,1.84127,0.66893
724.655,77.6427,-0.9563,1.86425,0.66843
725.255,77.70389,-0.96429,1.8845,0.66793
725.855,77.76484,-0.97062,1.90673,0.66743
726.455,77.82565,-0.97804,1.92868,0.66693
727.055,77.88641,-0.98413,1.94797,0.66643
727.655,77.94704,-0.99035,1.96981,0.66592
728.255,78.00799,-0.99674,1.99148,0.66542
728.855,78.0688,-1.0036,2.01485,0.66492
729.455,78.12977,-1.01225,2.03365,0.66441
730.055,78.19066,-1.01911,2.05935,0.66391
730.655,78.2513,-1.02626,2.07621,0.66341
731.255,78.31194,-1.03429,2.1023,0.6629
731.855,78.37263,-1.04192,2.12104,0.6624
732.455,78.4334,-1.04852,2.14344,0.66189
733.055,78.49413,-1.05615,2.16495,0.66139
733.655,78.55494,-1.06332,2.19011,0.66088
734.255,78.6156,-1.07217,2.20651,0.66038
734.855,78.6765,-1.07977,2.22976,0.65987
735.455,78.73738,-1.08787,2.24857,0.65936
736.055,78.79842,-1.09604,2.26941,0.65886
736.655,78.85934,-1.10412,2.29384,0.65835
737.255,78.9204,-1.11313,2.31155,0.65784
737.855,78.98124,-1.12212,2.3299,0.65734
738.455,79.0421,-1.12859,2.35147,0.65683
739.055,79.10298,-1.13676,2.36906,0.65632
739.655,79.16386,-1.14512,2.38605,0.65581
740.255,79.22474,-1.15394,2.40595,0.65531
740.855,79.28577,-1.163,2.42161,0.6548
741.455,79.34675,-1.17187,2.43584,0.65429
742.055,79.4078,-1.17921,2.45066,0.65378
742.655,79.4689,-1.18798,2.46084,0.65327
743.255,79.53,-1.19705,2.47483,0.65276
743.855,79.5908,-1.20667,2.48721,0.65225
744.455,79.65154,-1.21465,2.49661,0.65174
745.055,79.71231,-1.22484,2.50406,0.65123
745.655,79.77311,-1.23324,2.51489,0.65072
746.255,79.834,-1.24273,2.51957,0.65021
746.855,79.89489,-1.25143,2.52482,0.6497
747.455,79.95597,-1.25902,2.53004,0.64919
747.855,79.99653,-1.26497,2.53028,0.64885