File: 01_Data/Rayon_Bamboo_Pillowcase/STA/N2/10K_min/Rayon_Bamboo_Pillowcase_STA_N2_10KData_220520_R3.csv
##Temp./Â°C,Time/min,Mass loss(subtr.2)/mg,DSC(subtr.2)/(mW/mg),Sensit./(uV/mW)
49.558,10.00917,-0.00702,0.00556662,1.07022
50.158,10.73969,-0.006738059,0.03813507,1.07005
50.758,10.92955,-0.008694826,0.05933371,1.06989
51.358,11.07143,-0.007405645,0.080899,1.06972
51.958,11.19008,-0.00913196,0.09469959,1.06956
52.558,11.2963,-0.007936344,0.11024,1.06939
53.158,11.3935,-0.01082577,0.12402,1.06922
53.758,11.48415,-0.009217995,0.13332,1.06906
54.358,11.56995,-0.01065146,0.1412,1.06889
54.958,11.6523,-0.01027338,0.1512,1.06872
55.558,11.7317,-0.01093516,0.15838,1.06855
56.158,11.809,-0.009547648,0.1671,1.06839
56.758,11.88429,-0.00934805,0.17295,1.06822
57.358,11.95818,-0.009241331,0.17949,1.06805
57.958,12.0307,-0.00923067,0.183,1.06788
58.558,12.10183,-0.01072415,0.18864,1.06771
59.158,12.17203,-0.01089761,0.19353,1.06754
59.758,12.24137,-0.009514607,0.19987,1.06737
60.358,12.31007,-0.01075271,0.20233,1.0672
60.958,12.3779,-0.01072747,0.20737,1.06702
61.558,12.44533,-0.01112904,0.21123,1.06685
62.158,12.51269,-0.01145064,0.215,1.06668
62.758,12.57958,-0.01207458,0.21821,1.06651
63.358,12.64547,-0.01203396,0.22135,1.06634
63.958,12.7118,-0.01266203,0.22483,1.06616
64.558,12.77709,-0.01206676,0.22654,1.06599
65.158,12.84304,-0.01223467,0.23172,1.06581
65.758,12.9084,-0.01267524,0.23299,1.06564
66.358,12.9741,-0.01345054,0.24057,1.06546
66.958,13.0393,-0.0147152,0.24064,1.06529
67.558,13.10409,-0.01339097,0.2466,1.06511
68.158,13.1684,-0.01339005,0.24751,1.06494
68.758,13.2326,-0.01338998,0.25314,1.06476
69.358,13.2967,-0.01330911,0.25472,1.06459
69.958,13.36055,-0.01339995,0.258,1.06441
70.558,13.42375,-0.01476157,0.26098,1.06423
71.158,13.48661,-0.01582807,0.2659,1.06405
71.758,13.54943,-0.01470671,0.26862,1.06387
72.358,13.61254,-0.01599806,0.26987,1.0637
72.958,13.6764,-0.01542683,0.27551,1.06352
73.558,13.74,-0.01602992,0.27816,1.06334
74.158,13.80313,-0.01724566,0.2839,1.06316
74.758,13.86629,-0.01710741,0.28727,1.06298
75.358,13.9291,-0.01865968,0.28931,1.0628
75.958,13.99211,-0.01866408,0.2932,1.06262
76.558,14.0539,-0.01735187,0.29578,1.06244
77.158,14.1164,-0.0177815,0.30037,1.06225
77.758,14.17854,-0.01867002,0.30433,1.06207
78.358,14.24164,-0.02006786,0.31,1.06189
78.958,14.3036,-0.01969909,0.31119,1.06171
79.558,14.3658,-0.01987725,0.31656,1.06152
80.158,14.42789,-0.02132284,0.31816,1.06134
80.758,14.48974,-0.02129061,0.32072,1.06116
81.358,14.55134,-0.02356044,0.32429,1.06097
81.958,14.61268,-0.02403993,0.32676,1.06079
82.558,14.67399,-0.02404011,0.33095,1.0606
83.158,14.7356,-0.0254293,0.33403,1.06042
83.758,14.7972,-0.02536001,0.33666,1.06023
84.358,14.85835,-0.02536003,0.34072,1.06005
84.958,14.91935,-0.02603542,0.34398,1.05986
85.558,14.98049,-0.02667999,0.34386,1.05967
86.158,15.0413,-0.02807228,0.34743,1.05949
86.758,15.10222,-0.02666747,0.35018,1.0593
87.358,15.1627,-0.02798818,0.35299,1.05911
87.958,15.2229,-0.02831518,0.35518,1.05892
88.558,15.28326,-0.02935276,0.35699,1.05873
89.158,15.3439,-0.03063048,0.35707,1.05854
89.758,15.4041,-0.03062955,0.36033,1.05835
90.358,15.4639,-0.03193407,0.36216,1.05816
90.958,15.524,-0.03096029,0.36346,1.05797
91.558,15.5839,-0.03096006,0.36581,1.05778
92.158,15.64414,-0.03119602,0.36689,1.05759
92.758,15.7039,-0.03358326,0.3676,1.0574
93.358,15.7636,-0.03381398,0.3712,1.05721
93.958,15.82349,-0.03491028,0.37027,1.05702
94.558,15.88323,-0.03493077,0.37282,1.05682
95.158,15.9427,-0.03623049,0.37425,1.05663
95.758,16.00208,-0.03622778,0.37335,1.05644
96.358,16.0614,-0.03753809,0.37408,1.05624
96.958,16.12069,-0.03755,0.37512,1.05605
97.558,16.1801,-0.03755002,0.37347,1.05586
98.158,16.23938,-0.03887146,0.37448,1.05566
98.758,16.2986,-0.03884403,0.37422,1.05547
99.358,16.35754,-0.04020489,0.37277,1.05527
99.958,16.4162,-0.03985087,0.37701,1.05507
100.558,16.47486,-0.04121225,0.37406,1.05488
101.158,16.53356,-0.04117002,0.3732,1.05468
101.758,16.59241,-0.04116999,0.3735,1.05448
102.358,16.65128,-0.04114907,0.37334,1.05429
102.958,16.70995,-0.0424896,0.37111,1.05409
103.558,16.76837,-0.04245115,0.36977,1.05389
104.158,16.8264,-0.04514892,0.36876,1.05369
104.758,16.885,-0.04511998,0.36756,1.05349
105.358,16.94373,-0.04503465,0.36715,1.05329
105.958,17.00285,-0.04643986,0.36385,1.05309
106.558,17.06164,-0.04644,0.36256,1.05289
107.158,17.12032,-0.04643852,0.36174,1.05269
107.758,17.17889,-0.04776024,0.35846,1.05249
108.358,17.23745,-0.04906962,0.35848,1.05229
108.958,17.29628,-0.04907968,0.35514,1.05209
109.558,17.35468,-0.04803837,0.35306,1.05189
110.158,17.41336,-0.0480915,0.35216,1.05168
110.758,17.4719,-0.04940697,0.34904,1.05148
111.358,17.53022,-0.04939775,0.34686,1.05128
111.958,17.5889,-0.05137947,0.34431,1.05107
112.558,17.6475,-0.05172173,0.34285,1.05087
113.158,17.70575,-0.05067724,0.3406,1.05066
113.758,17.76445,-0.05147557,0.3375,1.05046
114.358,17.8226,-0.05135538,0.3356,1.05025
114.958,17.88087,-0.05171046,0.33375,1.05005
115.558,17.93899,-0.05301454,0.3328,1.04984
116.158,17.9971,-0.05302581,0.32946,1.04964
116.758,18.05559,-0.05368133,0.32793,1.04943
117.358,18.11417,-0.05368,0.32683,1.04922
117.958,18.17297,-0.05368077,0.32641,1.04901
118.558,18.23112,-0.05506048,0.32252,1.04881
119.158,18.28986,-0.05368037,0.32286,1.0486
119.758,18.3481,-0.05368,0.31954,1.04839
120.358,18.40626,-0.05367997,0.31798,1.04818
120.958,18.46452,-0.05457831,0.3162,1.04797
121.558,18.52261,-0.05499986,0.31434,1.04776
122.158,18.581,-0.05499752,0.3124,1.04755
122.758,18.63924,-0.05631993,0.31303,1.04734
123.358,18.6974,-0.05632074,0.31142,1.04713
123.958,18.75552,-0.05766747,0.30859,1.04692
124.558,18.8136,-0.05757869,0.30786,1.0467
125.158,18.8715,-0.05631003,0.30689,1.04649
125.758,18.92953,-0.05764041,0.30635,1.04628
126.358,18.98753,-0.05764758,0.30524,1.04607
126.958,19.04566,-0.05794873,0.30519,1.04585
127.558,19.1037,-0.05759517,0.3038,1.04564
128.158,19.16157,-0.05762994,0.30394,1.04542
128.758,19.21924,-0.05762674,0.30227,1.04521
129.358,19.27724,-0.05699467,0.30157,1.04499
129.958,19.3352,-0.05763703,0.3,1.04478
130.558,19.39323,-0.05829301,0.30093,1.04456
131.158,19.45126,-0.0583,0.30076,1.04435
131.758,19.50903,-0.05830015,0.29983,1.04413
132.358,19.56697,-0.05962322,0.30041,1.04391
132.958,19.62487,-0.05961319,0.29879,1.0437
133.558,19.6828,-0.05896312,0.29971,1.04348
134.158,19.7406,-0.05761261,0.29989,1.04326
134.758,19.79811,-0.05728082,0.29812,1.04304
135.358,19.8552,-0.05842706,0.29786,1.04282
135.958,19.9129,-0.05862043,0.29756,1.0426
136.558,19.9708,-0.05894334,0.29873,1.04238
137.158,20.02913,-0.05895015,0.29799,1.04216
137.758,20.08755,-0.060239,0.2975,1.04194
138.358,20.14508,-0.06026997,0.29658,1.04172
138.958,20.20288,-0.06027004,0.2956,1.0415
139.558,20.2606,-0.06030594,0.29697,1.04128
140.158,20.3184,-0.06060003,0.29947,1.04106
140.758,20.3763,-0.06060549,0.29779,1.04083
141.358,20.43405,-0.06025625,0.2986,1.04061
141.958,20.4915,-0.06026758,0.29953,1.04039
142.558,20.54917,-0.06093,0.29986,1.04016
143.158,20.60666,-0.06093,0.30039,1.03994
143.758,20.66402,-0.06093001,0.29971,1.03971
144.358,20.7221,-0.06094113,0.3011,1.03949
144.958,20.7799,-0.06159259,0.30053,1.03926
145.558,20.83718,-0.06289915,0.29945,1.03904
146.158,20.89471,-0.06237605,0.30016,1.03881
146.758,20.95228,-0.06164624,0.30289,1.03859
147.358,21.0098,-0.06059982,0.30057,1.03836
147.958,21.06837,-0.0606,0.30094,1.03813
148.558,21.12602,-0.06060026,0.30091,1.0379
149.158,21.18364,-0.05959362,0.29959,1.03767
149.758,21.24109,-0.06064132,0.3011,1.03745
150.358,21.29855,-0.06060839,0.30052,1.03722
150.958,21.35603,-0.06192029,0.29954,1.03699
151.558,21.4136,-0.06191972,0.29942,1.03676
152.158,21.47135,-0.06087491,0.30154,1.03653
152.758,21.52884,-0.06225042,0.30133,1.0363
153.358,21.58642,-0.06100173,0.30132,1.03607
153.958,21.64389,-0.062249,0.29917,1.03583
154.558,21.70135,-0.06211825,0.30159,1.0356
155.158,21.7588,-0.0622501,0.30015,1.03537
155.758,21.81642,-0.06224992,0.29903,1.03514
156.358,21.87386,-0.06292006,0.29993,1.03491
156.958,21.93124,-0.06323993,0.29983,1.03467
157.558,21.9886,-0.06324,0.29964,1.03444
158.158,22.04593,-0.06323815,0.30059,1.0342
158.758,22.1035,-0.06191302,0.3014,1.03397
159.358,22.16122,-0.06192002,0.3013,1.03373
159.958,22.21874,-0.06191168,0.30144,1.0335
160.558,22.27611,-0.06156663,0.30085,1.03326
161.158,22.33349,-0.06093823,0.29963,1.03303
161.758,22.3907,-0.06155223,0.30124,1.03279
162.358,22.448,-0.06217892,0.29905,1.03255
162.958,22.50528,-0.06323042,0.30111,1.03232
163.558,22.56249,-0.06322999,0.30205,1.03208
164.158,22.61981,-0.06322407,0.30128,1.03184
164.758,22.67727,-0.06455157,0.30016,1.0316
165.358,22.73463,-0.06346119,0.30212,1.03136
165.958,22.79213,-0.06323007,0.30183,1.03112
166.558,22.84927,-0.06323,0.30032,1.03088
167.158,22.90653,-0.06321256,0.30228,1.03064
167.758,22.96388,-0.06258128,0.30057,1.0304
168.358,23.021,-0.06256168,0.30112,1.03016
168.958,23.07826,-0.06390062,0.29968,1.02992
169.558,23.13537,-0.06390189,0.29926,1.02968
170.158,23.1925,-0.06324557,0.29984,1.02943
170.758,23.24985,-0.06191751,0.29894,1.02919
171.358,23.30671,-0.06183187,0.29952,1.02895
171.958,23.36395,-0.06457285,0.29948,1.0287
172.558,23.42128,-0.0632308,0.30101,1.02846
173.158,23.47853,-0.0632387,0.29939,1.02822
173.758,23.5362,-0.06419895,0.29955,1.02797
174.358,23.59347,-0.06421998,0.2991,1.02773
174.958,23.6506,-0.06422123,0.29756,1.02748
175.558,23.708,-0.06294527,0.30013,1.02724
176.158,23.76531,-0.06256633,0.30127,1.02699
176.758,23.82236,-0.06341568,0.29943,1.02674
177.358,23.87965,-0.06323001,0.29798,1.02649
177.958,23.93682,-0.06323009,0.30079,1.02625
178.558,23.99389,-0.06354113,0.30069,1.026
179.158,24.05124,-0.06355782,0.29901,1.02575
179.758,24.10859,-0.06356041,0.30206,1.0255
180.358,24.16619,-0.06396679,0.30044,1.02525
180.958,24.22356,-0.06389004,0.30107,1.025
181.558,24.2808,-0.06389,0.30157,1.02475
182.158,24.33812,-0.06388997,0.30019,1.0245
182.758,24.39539,-0.06354283,0.30023,1.02425
183.358,24.45275,-0.06257973,0.30037,1.024
183.958,24.50989,-0.06257996,0.30017,1.02375
184.558,24.56701,-0.06309092,0.30122,1.0235
185.158,24.62396,-0.06357008,0.30054,1.02324
185.758,24.68115,-0.06357,0.30055,1.02299
186.358,24.7384,-0.06357,0.3018,1.02274
186.958,24.79533,-0.06357,0.30175,1.02248
187.558,24.8525,-0.06357466,0.30206,1.02223
188.158,24.90961,-0.06225022,0.30127,1.02197
188.758,24.96645,-0.06257005,0.30084,1.02172
189.358,25.02391,-0.06321179,0.30251,1.02146
189.958,25.081,-0.06420208,0.30225,1.02121
190.558,25.13826,-0.06455014,0.30285,1.02095
191.158,25.19589,-0.06349007,0.30371,1.02069
191.758,25.25311,-0.06355996,0.30303,1.02044
192.358,25.31026,-0.06356,0.30406,1.02018
192.958,25.36744,-0.0635545,0.30306,1.01992
193.558,25.4244,-0.0648735,0.30461,1.01966
194.158,25.48131,-0.06554427,0.30411,1.0194
194.758,25.53835,-0.06554,0.30379,1.01915
195.358,25.59529,-0.06554,0.30461,1.01889
195.958,25.65247,-0.06553085,0.30345,1.01863
196.558,25.70961,-0.06421906,0.30403,1.01837
197.158,25.7668,-0.06497912,0.30349,1.0181
197.758,25.82422,-0.06554003,0.30561,1.01784
198.358,25.88155,-0.06554,0.30507,1.01758
198.958,25.93844,-0.06553956,0.30583,1.01732
199.558,25.99543,-0.06457346,0.3057,1.01706
200.158,26.05225,-0.06421987,0.30648,1.01679
200.758,26.10914,-0.06421904,0.30607,1.01653
201.358,26.16643,-0.0648134,0.30499,1.01627
201.958,26.22365,-0.06554036,0.30565,1.016
202.558,26.2808,-0.06554,0.30796,1.01574
203.158,26.3377,-0.06554,0.30572,1.01547
203.758,26.3948,-0.06554,0.30825,1.01521
204.358,26.4518,-0.06553802,0.30634,1.01494
204.958,26.5092,-0.06684973,0.30607,1.01468
205.558,26.5661,-0.06685001,0.30749,1.01441
206.158,26.62306,-0.06685,0.30889,1.01414
206.758,26.6801,-0.06684936,0.30841,1.01387
207.358,26.73716,-0.0681898,0.30812,1.01361
207.958,26.79372,-0.06825575,0.30956,1.01334
208.558,26.8505,-0.06685008,0.30791,1.01307
209.158,26.907,-0.06685038,0.30837,1.0128
209.758,26.96387,-0.06556479,0.30823,1.01253
210.358,27.02157,-0.06554001,0.30818,1.01226
210.958,27.07897,-0.06554,0.30687,1.01199
211.558,27.13635,-0.06553645,0.3072,1.01172
212.158,27.19342,-0.06685795,0.30754,1.01145
212.758,27.25047,-0.06817193,0.30943,1.01118
213.358,27.3076,-0.06698562,0.31008,1.0109
213.958,27.3646,-0.06638426,0.30946,1.01063
214.558,27.42163,-0.06719003,0.30911,1.01036
215.158,27.47865,-0.06719,0.30882,1.01008
215.758,27.53565,-0.06719007,0.30864,1.00981
216.358,27.59275,-0.06735937,0.31012,1.00954
216.958,27.64988,-0.0685101,0.30907,1.00926
217.558,27.7068,-0.0685101,0.30894,1.00899
218.158,27.7638,-0.06982771,0.31029,1.00871
218.758,27.82023,-0.07112995,0.30876,1.00844
219.358,27.8769,-0.07112182,0.308,1.00816
219.958,27.93399,-0.07078353,0.30916,1.00788
220.558,27.99103,-0.07015104,0.31086,1.0076
221.158,28.048,-0.07015,0.30881,1.00733
221.758,28.1044,-0.07015,0.30961,1.00705
222.358,28.1615,-0.07014632,0.30979,1.00677
222.958,28.2187,-0.07245592,0.30874,1.00649
223.558,28.27635,-0.07245001,0.30847,1.00621
224.158,28.3339,-0.07245631,0.3101,1.00593
224.758,28.39092,-0.07113138,0.30769,1.00565
225.358,28.44799,-0.07113,0.31001,1.00537
225.958,28.50517,-0.07113,0.30847,1.00509
226.558,28.5623,-0.07113003,0.30873,1.00481
227.158,28.6192,-0.07113143,0.30763,1.00453
227.758,28.67629,-0.07146011,0.30963,1.00425
228.358,28.7332,-0.07146,0.30648,1.00396
228.958,28.7903,-0.07146,0.30737,1.00368
229.558,28.84729,-0.07145712,0.30732,1.0034
230.158,28.90425,-0.07276891,0.30806,1.00311
230.758,28.96108,-0.07410544,0.30744,1.00283
231.358,29.01805,-0.07406673,0.30856,1.00254
231.958,29.0749,-0.07508282,0.30806,1.00226
232.558,29.1319,-0.07640824,0.30814,1.00197
233.158,29.18887,-0.07641,0.30792,1.00168
233.758,29.24587,-0.07635897,0.30945,1.0014
234.358,29.303,-0.077729,0.30913,1.00111
234.958,29.36004,-0.07773808,0.30774,1.00082
235.558,29.41713,-0.07636916,0.30793,1.00054
236.158,29.4741,-0.07828652,0.30793,1.00025
236.758,29.53104,-0.07915039,0.30806,0.99996
237.358,29.5881,-0.08043192,0.3065,0.99967
237.958,29.6451,-0.08180486,0.30913,0.99938
238.558,29.7016,-0.08222155,0.30607,0.99909
239.158,29.75845,-0.08343987,0.3069,0.9988
239.758,29.8154,-0.08343951,0.3058,0.99851
240.358,29.8725,-0.08473555,0.30506,0.99822
240.958,29.9301,-0.08607336,0.30584,0.99793
241.558,29.9872,-0.08607077,0.30429,0.99763
242.158,30.04412,-0.08743857,0.30416,0.99734
242.758,30.10121,-0.08754258,0.30306,0.99705
243.358,30.15803,-0.08872028,0.303,0.99676
243.958,30.2149,-0.08936896,0.3017,0.99646
244.558,30.272,-0.08953244,0.30266,0.99617
245.158,30.329,-0.09156088,0.302,0.99587
245.758,30.386,-0.09419117,0.30183,0.99558
246.358,30.44303,-0.0955277,0.30106,0.99528
246.958,30.49976,-0.09681091,0.30403,0.99499
247.558,30.55667,-0.09751706,0.30453,0.99469
248.158,30.6138,-0.09883274,0.30639,0.99439
248.758,30.6709,-0.10021,0.30755,0.9941
249.358,30.7286,-0.10287,0.31315,0.9938
249.958,30.78565,-0.10421,0.31828,0.9935
250.558,30.84263,-0.10552,0.32685,0.9932
251.158,30.89953,-0.10837,0.33101,0.9929
251.758,30.95631,-0.10979,0.33397,0.9926
252.358,31.01356,-0.11256,0.33629,0.9923
252.958,31.07077,-0.11582,0.34138,0.992
253.558,31.1279,-0.11873,0.34853,0.9917
254.158,31.18494,-0.12112,0.35629,0.9914
254.758,31.24199,-0.12398,0.36515,0.9911
255.358,31.29907,-0.12592,0.37686,0.9908
255.958,31.35622,-0.1302,0.38654,0.99049
256.558,31.41331,-0.13376,0.40217,0.99019
257.158,31.4702,-0.13788,0.41685,0.98989
257.758,31.52729,-0.14248,0.4299,0.98958
258.358,31.5845,-0.14747,0.44712,0.98928
258.958,31.6418,-0.15221,0.46568,0.98898
259.558,31.69915,-0.15743,0.48361,0.98867
260.158,31.7564,-0.1625,0.50038,0.98836
260.758,31.8137,-0.16813,0.5184,0.98806
261.358,31.8706,-0.17334,0.53252,0.98775
261.958,31.92755,-0.18223,0.54959,0.98745
262.558,31.98443,-0.18917,0.56251,0.98714
263.158,32.04136,-0.19537,0.57711,0.98683
263.758,32.0985,-0.2032,0.58795,0.98652
264.358,32.15569,-0.21084,0.59975,0.98621
264.958,32.213,-0.21858,0.6081,0.98591
265.558,32.27021,-0.22684,0.61534,0.9856
266.158,32.32757,-0.23703,0.62244,0.98529
266.758,32.38463,-0.24578,0.62594,0.98498
267.358,32.44229,-0.25534,0.63058,0.98467
267.958,32.4999,-0.26591,0.63125,0.98435
268.558,32.5575,-0.27657,0.63434,0.98404
269.158,32.615,-0.28525,0.63558,0.98373
269.758,32.67203,-0.2959,0.63558,0.98342
270.358,32.72902,-0.30551,0.63608,0.98311
270.958,32.78607,-0.31603,0.63513,0.98279
271.558,32.8433,-0.32716,0.63535,0.98248
272.158,32.9007,-0.33828,0.63487,0.98216
272.758,32.95786,-0.34893,0.63308,0.98185
273.358,33.01509,-0.36141,0.63249,0.98153
273.958,33.07206,-0.37336,0.62982,0.98122
274.558,33.1291,-0.38478,0.62733,0.9809
275.158,33.1864,-0.39638,0.62935,0.98059
275.758,33.24365,-0.40909,0.6247,0.98027
276.358,33.301,-0.42059,0.62299,0.97995
276.958,33.35823,-0.43251,0.62191,0.97964
277.558,33.41519,-0.44389,0.62149,0.97932
278.158,33.47201,-0.45657,0.61805,0.979
278.758,33.52899,-0.4684,0.61796,0.97868
279.358,33.5861,-0.48144,0.61714,0.97836
279.958,33.64309,-0.49469,0.61471,0.97804
280.558,33.69981,-0.50746,0.61282,0.97772
281.158,33.75697,-0.5201,0.6116,0.9774
281.758,33.81412,-0.53205,0.61236,0.97708
282.358,33.87188,-0.54482,0.61012,0.97676
282.958,33.92934,-0.55838,0.60953,0.97643
283.558,33.9863,-0.57172,0.60828,0.97611
284.158,34.04359,-0.5856,0.6085,0.97579
284.758,34.10082,-0.59764,0.60886,0.97547
285.358,34.15807,-0.61142,0.60742,0.97514
285.958,34.21553,-0.62552,0.60743,0.97482
286.558,34.27254,-0.63866,0.60747,0.97449
287.158,34.32966,-0.65399,0.60682,0.97417
287.758,34.387,-0.66708,0.607,0.97384
288.358,34.44426,-0.6817,0.60738,0.97352
288.958,34.50163,-0.69739,0.6092,0.97319
289.558,34.55892,-0.7108,0.60957,0.97286
290.158,34.6162,-0.72308,0.60999,0.97254
290.758,34.67368,-0.73661,0.60914,0.97221
291.358,34.7309,-0.75462,0.61148,0.97188
291.958,34.7883,-0.76978,0.61095,0.97155
292.558,34.84564,-0.78454,0.61092,0.97122
293.158,34.9027,-0.80003,0.61233,0.97089
293.758,34.95994,-0.81638,0.61403,0.97056
294.358,35.01706,-0.83084,0.61405,0.97023
294.958,35.07439,-0.84664,0.61464,0.9699
295.558,35.13176,-0.8631,0.61801,0.96957
296.158,35.1892,-0.87883,0.61723,0.96924
296.758,35.2466,-0.89655,0.6195,0.96891
297.358,35.3039,-0.91349,0.61957,0.96858
297.958,35.3611,-0.92977,0.62019,0.96824
298.558,35.41847,-0.94636,0.62183,0.96791
299.158,35.47535,-0.96449,0.62357,0.96758
299.758,35.53235,-0.98271,0.62589,0.96724
300.358,35.58984,-0.99955,0.62885,0.96691
300.958,35.6471,-1.01784,0.62866,0.96657
301.558,35.70486,-1.03584,0.6301,0.96624
302.158,35.76254,-1.05337,0.6304,0.9659
302.758,35.8199,-1.07256,0.63128,0.96556
303.358,35.87729,-1.09225,0.63307,0.96523
303.958,35.9347,-1.1124,0.63531,0.96489
304.558,35.99216,-1.12889,0.63426,0.96455
305.158,36.04942,-1.1493,0.63737,0.96421
305.758,36.10693,-1.16728,0.6392,0.96387
306.358,36.16426,-1.18731,0.63997,0.96354
306.958,36.2217,-1.20757,0.64268,0.9632
307.558,36.2791,-1.22779,0.64447,0.96286
308.158,36.33656,-1.24843,0.64478,0.96252
308.758,36.39399,-1.26888,0.64537,0.96217
309.358,36.4514,-1.28938,0.64572,0.96183
309.958,36.50908,-1.31002,0.64738,0.96149
310.558,36.5665,-1.33199,0.64728,0.96115
311.158,36.6239,-1.35448,0.64657,0.96081
311.758,36.68122,-1.37687,0.64989,0.96046
312.358,36.73878,-1.39862,0.65131,0.96012
312.958,36.79615,-1.42066,0.65252,0.95978
313.558,36.85369,-1.44444,0.653,0.95943
314.158,36.91122,-1.46618,0.65323,0.95909
314.758,36.96856,-1.48961,0.65257,0.95874
315.358,37.02616,-1.51192,0.65304,0.9584
315.958,37.08367,-1.53566,0.653,0.95805
316.558,37.14105,-1.55908,0.65333,0.9577
317.158,37.19865,-1.58275,0.65102,0.95736
317.758,37.256,-1.60578,0.64829,0.95701
318.358,37.31357,-1.62854,0.64892,0.95666
318.958,37.3712,-1.65366,0.6493,0.95631
319.558,37.42884,-1.6781,0.64449,0.95596
320.158,37.48665,-1.70358,0.64219,0.95562
320.758,37.54436,-1.72743,0.6398,0.95527
321.358,37.6019,-1.75276,0.63744,0.95492
321.958,37.65963,-1.77722,0.63578,0.95457
322.558,37.71732,-1.80127,0.63305,0.95421
323.158,37.77495,-1.82676,0.62941,0.95386
323.758,37.83279,-1.85115,0.62835,0.95351
324.358,37.89049,-1.87686,0.62261,0.95316
324.958,37.94828,-1.90096,0.62047,0.95281
325.558,38.00607,-1.92622,0.61712,0.95245
326.158,38.0636,-1.94996,0.61212,0.9521
326.758,38.12104,-1.97525,0.60772,0.95175
327.358,38.17861,-2.00116,0.60061,0.95139
327.958,38.23636,-2.02629,0.59673,0.95104
328.558,38.29417,-2.05352,0.59106,0.95068
329.158,38.35154,-2.07751,0.58555,0.95032
329.758,38.4091,-2.10176,0.58162,0.94997
330.358,38.46656,-2.12508,0.57416,0.94961
330.958,38.52405,-2.15204,0.56651,0.94925
331.558,38.58201,-2.17513,0.55811,0.9489
332.158,38.63961,-2.19962,0.55156,0.94854
332.758,38.6972,-2.22259,0.54041,0.94818
333.358,38.75478,-2.2465,0.53545,0.94782
333.958,38.8121,-2.27108,0.5217,0.94746
334.558,38.86978,-2.29338,0.51225,0.9471
335.158,38.92738,-2.31643,0.50189,0.94674
335.758,38.9852,-2.34085,0.48791,0.94638
336.358,39.043,-2.36083,0.47559,0.94602
336.958,39.1006,-2.37968,0.46157,0.94566
337.558,39.15814,-2.40164,0.44582,0.9453
338.158,39.2155,-2.42281,0.43099,0.94493
338.758,39.27299,-2.44186,0.41321,0.94457
339.358,39.3307,-2.46284,0.39725,0.94421
339.958,39.38814,-2.48114,0.3774,0.94385
340.558,39.44552,-2.49851,0.35875,0.94348
341.158,39.50298,-2.51716,0.34046,0.94312
341.758,39.5604,-2.53256,0.32262,0.94275
342.358,39.61788,-2.54934,0.30068,0.94239
342.958,39.6748,-2.56417,0.2839,0.94202
343.558,39.7318,-2.57904,0.26214,0.94165
344.158,39.78902,-2.59219,0.24362,0.94129
344.758,39.84653,-2.60548,0.22534,0.94092
345.358,39.90467,-2.61682,0.20808,0.94055
345.958,39.9628,-2.62882,0.18944,0.94018
346.558,40.02021,-2.639,0.17775,0.93982
347.158,40.07772,-2.64846,0.15804,0.93945
347.758,40.13507,-2.6576,0.14653,0.93908
348.358,40.1924,-2.66649,0.13456,0.93871
348.958,40.25,-2.67413,0.12097,0.93834
349.558,40.30768,-2.68136,0.10949,0.93797
350.158,40.3656,-2.68932,0.09692761,0.93759
350.758,40.4232,-2.69675,0.09056872,0.93722
351.358,40.48083,-2.70287,0.08352639,0.93685
351.958,40.53837,-2.70775,0.07421244,0.93648
352.558,40.5959,-2.71251,0.06674575,0.93611
353.158,40.6534,-2.71917,0.06000036,0.93573
353.758,40.7109,-2.72379,0.05418622,0.93536
354.358,40.76866,-2.72756,0.04834216,0.93498
354.958,40.8264,-2.73075,0.04312227,0.93461
355.558,40.88418,-2.73554,0.03825982,0.93423
356.158,40.94198,-2.7416,0.03439359,0.93386
356.758,40.99969,-2.74475,0.0304471,0.93348
357.358,41.05746,-2.74919,0.02756357,0.93311
357.958,41.1151,-2.75235,0.02477388,0.93273
358.558,41.173,-2.75351,0.02134647,0.93235
359.158,41.2306,-2.75707,0.01971108,0.93197
359.758,41.28841,-2.76085,0.01840431,0.9316
360.358,41.34636,-2.76407,0.01722535,0.93122
360.958,41.40436,-2.76688,0.01360925,0.93084
361.558,41.46235,-2.76968,0.01224559,0.93046
362.158,41.52022,-2.77199,0.009697815,0.93008
362.758,41.5781,-2.77535,0.00933464,0.9297
363.358,41.63599,-2.77836,0.008230609,0.92932
363.958,41.69384,-2.78065,0.006451204,0.92894
364.558,41.75172,-2.78138,0.0065673,0.92855
365.158,41.80941,-2.78336,0.004749388,0.92817
365.758,41.86725,-2.78592,0.00480215,0.92779
366.358,41.92538,-2.78982,0.00120622,0.92741
366.958,41.98343,-2.79154,0.000567502,0.92702
367.558,42.042,-2.79311,0.0001179304,0.92664
368.158,42.10003,-2.79494,-0.00110261,0.92625
368.758,42.15807,-2.79708,-0.001797739,0.92587
369.358,42.21613,-2.79994,-0.00363775,0.92548
369.958,42.27426,-2.80147,-0.00302181,0.9251
370.558,42.33234,-2.80367,-0.005052121,0.92471
371.158,42.39035,-2.80474,-0.00545446,0.92433
371.758,42.4484,-2.80606,-0.005838033,0.92394
372.358,42.5065,-2.80876,-0.007098851,0.92355
372.958,42.56423,-2.81034,-0.007662814,0.92316
373.558,42.62231,-2.81182,-0.008262085,0.92278
374.158,42.68051,-2.8145,-0.00893345,0.92239
374.758,42.73859,-2.81666,-0.01000816,0.922
375.358,42.79705,-2.81903,-0.0113502,0.92161
375.958,42.85541,-2.82155,-0.01099505,0.92122
376.558,42.91362,-2.82175,-0.01147777,0.92083
377.158,42.97188,-2.82314,-0.01397441,0.92044
377.758,43.03009,-2.82452,-0.01312271,0.92005
378.358,43.08824,-2.82721,-0.01386934,0.91965
378.958,43.1462,-2.82949,-0.01441868,0.91926
379.558,43.20432,-2.8301,-0.01466228,0.91887
380.158,43.2622,-2.83136,-0.01550956,0.91848
380.758,43.32035,-2.83318,-0.01906938,0.91808
381.358,43.37865,-2.83668,-0.01428632,0.91769
381.958,43.43697,-2.83812,-0.01426591,0.91729
382.558,43.4951,-2.83997,-0.01479394,0.9169
383.158,43.55318,-2.8424,-0.01615747,0.9165
383.758,43.6111,-2.84397,-0.0161243,0.91611
384.358,43.66938,-2.84545,-0.01654885,0.91571
384.958,43.7278,-2.84539,-0.01568922,0.91532
385.558,43.78618,-2.84754,-0.01855703,0.91492
386.158,43.84479,-2.84896,-0.01727342,0.91452
386.758,43.90309,-2.85128,-0.01839667,0.91412
387.358,43.96132,-2.85435,-0.0186561,0.91373
387.958,44.0195,-2.85567,-0.01830061,0.91333
388.558,44.07757,-2.85709,-0.02064783,0.91293
389.158,44.13584,-2.85826,-0.01745772,0.91253
389.758,44.19405,-2.86024,-0.01881751,0.91213
390.358,44.25217,-2.86053,-0.01757641,0.91173
390.958,44.31038,-2.86188,-0.01769954,0.91133
391.558,44.36849,-2.86314,-0.01835381,0.91093
392.158,44.42655,-2.86445,-0.01731708,0.91052
392.758,44.48489,-2.86578,-0.01937426,0.91012
393.358,44.54311,-2.86729,-0.02143673,0.90972
393.958,44.6017,-2.86853,-0.02033618,0.90932
394.558,44.66005,-2.86908,-0.0215277,0.90891
395.158,44.71836,-2.8704,-0.02074145,0.90851
395.758,44.77669,-2.87174,-0.02189194,0.9081
396.358,44.83489,-2.87298,-0.02286964,0.9077
396.958,44.89314,-2.87561,-0.02257913,0.90729
397.558,44.95133,-2.87709,-0.02310224,0.90689
398.158,45.00939,-2.87775,-0.02180792,0.90648
398.758,45.06763,-2.87927,-0.02106451,0.90608
399.358,45.1258,-2.88153,-0.02245593,0.90567
399.958,45.1841,-2.88083,-0.02510666,0.90526
400.558,45.24238,-2.88181,-0.0231774,0.90485
401.158,45.30079,-2.88313,-0.02197851,0.90445
401.758,45.3591,-2.88576,-0.02211318,0.90404
402.358,45.41762,-2.88714,-0.02250106,0.90363
402.958,45.4758,-2.88719,-0.02229956,0.90322
403.558,45.53375,-2.8885,-0.0228588,0.90281
404.158,45.59199,-2.89114,-0.02285912,0.9024
404.758,45.6501,-2.89147,-0.02392519,0.90199
405.358,45.70855,-2.89115,-0.02365445,0.90158
405.958,45.76697,-2.8936,-0.0244829,0.90116
406.558,45.82535,-2.8951,-0.02421273,0.90075
407.158,45.88389,-2.89501,-0.02553092,0.90034
407.758,45.9423,-2.89733,-0.02391277,0.89993
408.358,46.00065,-2.89774,-0.02591294,0.89951
408.958,46.05903,-2.8997,-0.0245879,0.8991
409.558,46.1174,-2.90156,-0.02621371,0.89869
410.158,46.17548,-2.90166,-0.02594201,0.89827
410.758,46.23356,-2.90433,-0.02686801,0.89786
411.358,46.29159,-2.90562,-0.02704163,0.89744
411.958,46.34956,-2.9063,-0.02828388,0.89702
412.558,46.4077,-2.90508,-0.02759077,0.89661
413.158,46.4662,-2.90801,-0.02667977,0.89619
413.758,46.52446,-2.91008,-0.02904345,0.89577
414.358,46.58251,-2.91134,-0.02750201,0.89536
414.958,46.64099,-2.91144,-0.02801676,0.89494
415.558,46.699,-2.91277,-0.02919776,0.89452
416.158,46.75758,-2.9141,-0.02797554,0.8941
416.758,46.8159,-2.91678,-0.02551957,0.89368
417.358,46.87453,-2.91702,-0.02866436,0.89326
417.958,46.93403,-2.91676,-0.02821003,0.89284
418.558,46.99325,-2.91804,-0.02706933,0.89242
419.158,47.05223,-2.91922,-0.02769429,0.892
419.758,47.11095,-2.91943,-0.02783478,0.89158
420.358,47.16944,-2.92068,-0.02650811,0.89116
420.958,47.2282,-2.92202,-0.02842537,0.89073
421.558,47.28678,-2.92329,-0.02898621,0.89031
422.158,47.3453,-2.92365,-0.03013033,0.88989
422.758,47.4038,-2.92463,-0.02986517,0.88947
423.358,47.46243,-2.926,-0.03044596,0.88904
423.958,47.52086,-2.92724,-0.02604984,0.88862
424.558,47.57947,-2.92858,-0.02832608,0.88819
425.158,47.6381,-2.9299,-0.03044416,0.88777
425.758,47.69628,-2.93253,-0.02965213,0.88734
426.358,47.7551,-2.93376,-0.03020634,0.88691
426.958,47.81373,-2.93318,-0.02886489,0.88649
427.558,47.87243,-2.93415,-0.02725192,0.88606
428.158,47.93141,-2.93546,-0.02870726,0.88563
428.758,47.9901,-2.93841,-0.02932497,0.88521
429.358,48.04858,-2.93902,-0.02915837,0.88478
429.958,48.10699,-2.93948,-0.02935615,0.88435
430.558,48.1656,-2.93952,-0.02893537,0.88392
431.158,48.22402,-2.93945,-0.02638568,0.88349
431.758,48.28264,-2.94036,-0.02879887,0.88306
432.358,48.34124,-2.94209,-0.02699484,0.88263
432.958,48.3997,-2.94341,-0.02855452,0.8822
433.558,48.4585,-2.94368,-0.02895147,0.88177
434.158,48.51699,-2.9455,-0.02839208,0.88134
434.758,48.57561,-2.94641,-0.02702501,0.8809
435.358,48.63414,-2.94738,-0.02820784,0.88047
435.958,48.6928,-2.94773,-0.02673465,0.88004
436.558,48.7515,-2.949,-0.02888427,0.87961
437.158,48.8101,-2.94906,-0.02898749,0.87917
437.758,48.8688,-2.95032,-0.02781805,0.87874
438.358,48.9274,-2.95262,-0.02900965,0.8783
438.958,48.98605,-2.95276,-0.02692393,0.87787
439.558,49.04465,-2.95402,-0.02659544,0.87743
440.158,49.10314,-2.95526,-0.02722277,0.877
440.758,49.16174,-2.95658,-0.02875372,0.87656
441.358,49.2205,-2.9579,-0.0274034,0.87613
441.958,49.2793,-2.95821,-0.02611266,0.87569
442.558,49.3382,-2.95956,-0.02745513,0.87525
443.158,49.39703,-2.95927,-0.02984721,0.87481
443.758,49.45579,-2.95959,-0.02793653,0.87438
444.358,49.5145,-2.9616,-0.02826358,0.87394
444.958,49.5732,-2.96196,-0.02738224,0.8735
445.558,49.63203,-2.96449,-0.02618109,0.87306
446.158,49.6909,-2.9658,-0.02703626,0.87262
446.758,49.74935,-2.96581,-0.02819793,0.87218
447.358,49.80829,-2.9671,-0.0276862,0.87174
447.958,49.86712,-2.9679,-0.02962302,0.8713
448.558,49.92595,-2.96978,-0.03037907,0.87085
449.158,49.985,-2.97115,-0.02932175,0.87041
449.758,50.04396,-2.97187,-0.02889596,0.86997
450.358,50.1027,-2.97368,-0.02780091,0.86953
450.958,50.16166,-2.97446,-0.03021412,0.86908
451.558,50.2206,-2.97433,-0.02820486,0.86864
452.158,50.27946,-2.97568,-0.028321,0.8682
452.758,50.33852,-2.977,-0.02992824,0.86775
453.358,50.39751,-2.97831,-0.02922402,0.86731
453.958,50.45647,-2.97941,-0.02784188,0.86686
454.558,50.5156,-2.97927,-0.02951066,0.86642
455.158,50.57461,-2.97987,-0.02944408,0.86597
455.758,50.63375,-2.98123,-0.02935665,0.86552
456.358,50.69257,-2.98226,-0.02825175,0.86508
456.958,50.7515,-2.98226,-0.02785993,0.86463
457.558,50.81041,-2.98357,-0.02901212,0.86418
458.158,50.86927,-2.98622,-0.02825336,0.86373
458.758,50.9283,-2.98618,-0.02871452,0.86329
459.358,50.98737,-2.98754,-0.02801967,0.86284
459.958,51.04634,-2.98884,-0.02666374,0.86239
460.558,51.1053,-2.99021,-0.02840114,0.86194
461.158,51.16426,-2.99017,-0.02775933,0.86149
461.758,51.22316,-2.99147,-0.02589506,0.86104
462.358,51.2821,-2.99433,-0.02623795,0.86059
462.958,51.34088,-2.9939,-0.02648454,0.86013
463.558,51.3994,-2.9928,-0.02862281,0.85968
464.158,51.45778,-2.99412,-0.02751423,0.85923
464.758,51.51623,-2.99411,-0.02691096,0.85878
465.358,51.57476,-2.99544,-0.02621164,0.85833
465.958,51.6338,-2.99646,-0.02583168,0.85787
466.558,51.69299,-2.99749,-0.02663182,0.85742
467.158,51.75224,-2.99873,-0.02780357,0.85696
467.758,51.81116,-2.99873,-0.02731552,0.85651
468.358,51.86971,-3.00005,-0.02679962,0.85605
468.958,51.92843,-3.00137,-0.02576835,0.8556
469.558,51.9873,-3.0027,-0.02715442,0.85514
470.158,52.04623,-3.0024,-0.0263142,0.85469
470.758,52.10525,-3.00268,-0.02612123,0.85423
471.358,52.16402,-3.00393,-0.02688847,0.85377
471.958,52.22238,-3.00394,-0.02646172,0.85332
472.558,52.28069,-3.00532,-0.02659507,0.85286
473.158,52.33932,-3.00533,-0.02729475,0.8524
473.758,52.39819,-3.00663,-0.02708555,0.85194
474.358,52.45705,-3.0086,-0.02837504,0.85148
474.958,52.51642,-3.00992,-0.02678454,0.85102
475.558,52.57572,-3.00993,-0.0250063,0.85056
476.158,52.63527,-3.00862,-0.02638992,0.8501
476.758,52.6949,-3.00993,-0.02564496,0.84964
477.358,52.7538,-3.01095,-0.02683298,0.84918
477.958,52.81279,-3.01366,-0.02432762,0.84872
478.558,52.87151,-3.01389,-0.02557654,0.84826
479.158,52.93036,-3.0152,-0.02387323,0.8478
479.758,52.98927,-3.01554,-0.024278,0.84733
480.358,53.04832,-3.01679,-0.02262143,0.84687
480.958,53.1074,-3.01783,-0.02258226,0.84641
481.558,53.16641,-3.01673,-0.02075603,0.84594
482.158,53.22557,-3.01646,-0.02313279,0.84548
482.758,53.2849,-3.01783,-0.02094927,0.84502
483.358,53.34392,-3.02025,-0.01721158,0.84455
483.958,53.40277,-3.02013,-0.01933872,0.84409
484.558,53.46181,-3.02146,-0.02065126,0.84362
485.158,53.52086,-3.02284,-0.02029839,0.84315
485.758,53.5799,-3.02414,-0.01955855,0.84269
486.358,53.639,-3.02341,-0.02007321,0.84222
486.958,53.6978,-3.02409,-0.01915169,0.84175
487.558,53.7569,-3.02478,-0.01999993,0.84129
488.158,53.8161,-3.0247,-0.01805794,0.84082
488.758,53.87526,-3.02606,-0.01679865,0.84035
489.358,53.93441,-3.02739,-0.01723119,0.83988
489.958,53.9934,-3.02738,-0.01694088,0.83941
490.558,54.05234,-3.02738,-0.01753482,0.83894
491.158,54.11153,-3.02871,-0.01959085,0.83847
491.758,54.17041,-3.02978,-0.01908836,0.838
492.358,54.2296,-3.02871,-0.01924959,0.83753
492.958,54.28869,-3.0297,-0.0160666,0.83706
493.558,54.3476,-3.03003,-0.01782298,0.83659
494.158,54.40664,-3.03132,-0.02009847,0.83612
494.758,54.46549,-3.03134,-0.01801228,0.83564
495.358,54.52445,-3.03134,-0.01918685,0.83517
495.958,54.58407,-3.03267,-0.01874981,0.8347
496.558,54.643,-3.03399,-0.01516744,0.83423
497.158,54.702,-3.03529,-0.01223365,0.83375
497.758,54.76101,-3.03626,-0.008768969,0.83328
498.358,54.8202,-3.03529,-0.00717515,0.8328
498.958,54.87921,-3.03529,-0.00669472,0.83233
499.558,54.93784,-3.03661,-0.005751794,0.83185
500.158,54.9967,-3.03749,-0.002109651,0.83138
500.758,55.0557,-3.03793,-0.00318647,0.8309
501.358,55.115,-3.03793,-0.002827918,0.83042
501.958,55.17416,-3.0393,-0.00169929,0.82995
502.558,55.2333,-3.04065,0.0007421006,0.82947
503.158,55.2925,-3.03936,0.0004360143,0.82899
503.758,55.3517,-3.03919,0.001005238,0.82851
504.358,55.41075,-3.04056,-0.0001929019,0.82804
504.958,55.46995,-3.04122,0.001880272,0.82756
505.558,55.52933,-3.04122,-0.0004880585,0.82708
506.158,55.5887,-3.04254,0.0004696621,0.8266
506.758,55.6482,-3.04312,-0.001951257,0.82612
507.358,55.70737,-3.04386,-0.00198109,0.82564
507.958,55.7667,-3.04386,-0.00296307,0.82516
508.558,55.82609,-3.04385,-0.005583471,0.82468
509.158,55.88545,-3.04524,-0.003620806,0.8242
509.758,55.9449,-3.04627,-0.00582739,0.82371
510.358,56.00425,-3.04649,-0.005399226,0.82323
510.958,56.0636,-3.04649,-0.004521054,0.82275
511.558,56.1228,-3.0478,-0.00161025,0.82227
512.158,56.18221,-3.04744,-0.005108545,0.82178
512.758,56.24143,-3.0488,-0.004735492,0.8213
513.358,56.30079,-3.04881,-0.005426495,0.82082
513.958,56.3603,-3.05011,-0.008459499,0.82033
514.558,56.4198,-3.05011,-0.008887594,0.81985
515.158,56.47951,-3.04944,-0.01079112,0.81936
515.758,56.5391,-3.05044,-0.009851453,0.81888
516.358,56.5985,-3.05072,-0.0135591,0.81839
516.958,56.65814,-3.05176,-0.01381792,0.81791
517.558,56.71748,-3.05178,-0.01682899,0.81742
518.158,56.77712,-3.05354,-0.01778987,0.81693
518.758,56.837,-3.05407,-0.02127898,0.81644
519.358,56.89665,-3.05539,-0.01954947,0.81596
519.958,56.95612,-3.05439,-0.02032317,0.81547
520.558,57.0154,-3.05439,-0.0205609,0.81498
521.158,57.0748,-3.05439,-0.0220565,0.81449
521.758,57.1341,-3.05544,-0.02347435,0.814
522.358,57.19344,-3.05409,-0.02385795,0.81351
522.958,57.25303,-3.05538,-0.02426474,0.81302
523.558,57.3126,-3.05669,-0.02351656,0.81253
524.158,57.37206,-3.05667,-0.02560432,0.81204
524.758,57.4317,-3.05801,-0.0253247,0.81155
525.358,57.49111,-3.05802,-0.02578216,0.81106
525.958,57.5506,-3.05735,-0.02701903,0.81057
526.558,57.6101,-3.05734,-0.02772758,0.81008
527.158,57.6696,-3.05867,-0.02730313,0.80959
527.758,57.7291,-3.05867,-0.0282567,0.80909
528.358,57.7888,-3.05999,-0.02896893,0.8086
528.958,57.8481,-3.05999,-0.02732204,0.80811
529.558,57.90766,-3.06021,-0.02893746,0.80761
530.158,57.9672,-3.06131,-0.02841346,0.80712
530.758,58.0268,-3.06184,-0.02832145,0.80662
531.358,58.08644,-3.06196,-0.02972862,0.80613
531.958,58.14611,-3.06328,-0.0276761,0.80563
532.558,58.2057,-3.06231,-0.02697725,0.80514
533.158,58.2654,-3.06229,-0.02985905,0.80464
533.758,58.32495,-3.06299,-0.02936304,0.80415
534.358,58.38443,-3.06361,-0.03110996,0.80365
534.958,58.44396,-3.0636,-0.03019778,0.80315
535.558,58.50334,-3.06503,-0.03208361,0.80266
536.158,58.56293,-3.06563,-0.03391153,0.80216
536.758,58.6226,-3.06692,-0.03384743,0.80166
537.358,58.6822,-3.06758,-0.03347496,0.80116
537.958,58.74196,-3.06756,-0.03602984,0.80066
538.558,58.80146,-3.06756,-0.0353994,0.80016
539.158,58.86085,-3.06756,-0.03571263,0.79966
539.758,58.9203,-3.06888,-0.03569488,0.79916
540.358,58.97993,-3.06888,-0.0387809,0.79866
540.958,59.0394,-3.0702,-0.03661464,0.79816
541.558,59.099,-3.0702,-0.03925621,0.79766
542.158,59.1588,-3.07152,-0.0380975,0.79716
542.758,59.21849,-3.07152,-0.03804768,0.79666
543.358,59.2783,-3.07152,-0.03857952,0.79616
543.958,59.33786,-3.07152,-0.04059406,0.79566
544.558,59.3973,-3.07152,-0.03989067,0.79515
545.158,59.4569,-3.07154,-0.0394291,0.79465
545.758,59.51647,-3.07283,-0.03935221,0.79415
546.358,59.5761,-3.07415,-0.03995574,0.79364
546.958,59.6357,-3.07416,-0.03810333,0.79314
547.558,59.69536,-3.07349,-0.04044102,0.79264
548.158,59.7551,-3.07489,-0.03892157,0.79213
548.758,59.81471,-3.07481,-0.03926823,0.79163
549.358,59.87435,-3.07481,-0.03913945,0.79112
549.958,59.9336,-3.07513,-0.03927503,0.79062
550.558,59.9931,-3.07387,-0.04030514,0.79011
551.158,60.05274,-3.07482,-0.03902816,0.7896
551.758,60.1124,-3.07477,-0.03958064,0.7891
552.358,60.17235,-3.07593,-0.03933777,0.78859
552.958,60.2319,-3.07613,-0.0397302,0.78808
553.558,60.29141,-3.07745,-0.03927704,0.78758
554.158,60.351,-3.07745,-0.04006458,0.78707
554.758,60.41046,-3.07745,-0.0401502,0.78656
555.358,60.46995,-3.07875,-0.03744765,0.78605
555.958,60.52952,-3.07876,-0.03597445,0.78554
556.558,60.5891,-3.07877,-0.03696485,0.78503
557.158,60.6486,-3.08009,-0.03823633,0.78452
557.758,60.70808,-3.08033,-0.03715925,0.78401
558.358,60.7677,-3.0814,-0.03634587,0.7835
558.958,60.82727,-3.0814,-0.03602497,0.78299
559.558,60.88683,-3.08172,-0.0360201,0.78248
560.158,60.9464,-3.08172,-0.03294083,0.78197
560.758,61.006,-3.08304,-0.03239312,0.78146
561.358,61.0655,-3.08304,-0.03364692,0.78095
561.958,61.1251,-3.08304,-0.03532659,0.78044
562.558,61.18465,-3.08304,-0.03125531,0.77992
563.158,61.24415,-3.0831,-0.03244382,0.77941
563.758,61.30376,-3.08439,-0.03258046,0.7789
564.358,61.3633,-3.08404,-0.03266732,0.77838
564.958,61.4229,-3.08359,-0.03163759,0.77787
565.558,61.48276,-3.08411,-0.03124875,0.77736
566.158,61.54246,-3.08403,-0.03158866,0.77684
566.758,61.6022,-3.08403,-0.03092468,0.77633
567.358,61.66185,-3.08403,-0.02978116,0.77581
567.958,61.7215,-3.08536,-0.03012721,0.7753
568.558,61.78144,-3.08535,-0.02986455,0.77478
569.158,61.8411,-3.08536,-0.03116727,0.77426
569.758,61.90095,-3.08667,-0.03053138,0.77375
570.358,61.96074,-3.08667,-0.03053049,0.77323
570.958,62.0207,-3.08537,-0.02830041,0.77271
571.558,62.08061,-3.08537,-0.02855939,0.7722
572.158,62.1402,-3.08634,-0.02884594,0.77168
572.758,62.19989,-3.087,-0.02638907,0.77116
573.358,62.2598,-3.087,-0.02717823,0.77064
573.958,62.31977,-3.08701,-0.02547099,0.77012
574.558,62.3798,-3.08732,-0.02651638,0.7696
575.158,62.43968,-3.08864,-0.02834567,0.76909
575.758,62.49944,-3.08864,-0.02752333,0.76857
576.358,62.55919,-3.08864,-0.02777523,0.76805
576.958,62.61894,-3.08963,-0.02907298,0.76753
577.558,62.67867,-3.08996,-0.02850045,0.76701
578.158,62.73856,-3.08929,-0.02776856,0.76648
578.758,62.79857,-3.08996,-0.02817283,0.76596
579.358,62.8583,-3.08996,-0.02957444,0.76544
579.958,62.9176,-3.08996,-0.02647833,0.76492
580.558,62.9771,-3.08996,-0.02709696,0.7644
581.158,63.0366,-3.0913,-0.02728971,0.76388
581.758,63.09624,-3.09194,-0.02667175,0.76335
582.358,63.1562,-3.09194,-0.02508118,0.76283
582.958,63.2159,-3.09195,-0.02486974,0.76231
583.558,63.2756,-3.09193,-0.02357384,0.76178
584.158,63.33566,-3.09193,-0.02128246,0.76126
584.758,63.3956,-3.09343,-0.02164074,0.76074
585.358,63.45559,-3.09457,-0.0208204,0.76021
585.958,63.51555,-3.09457,-0.02076821,0.75969
586.558,63.57549,-3.09457,-0.01790185,0.75916
587.158,63.6355,-3.09614,-0.01439165,0.75864
587.758,63.69543,-3.09428,-0.01624505,0.75811
588.358,63.7553,-3.09293,-0.01732571,0.75758
588.958,63.8151,-3.09292,-0.01347736,0.75706
589.558,63.87523,-3.09424,-0.01442431,0.75653
590.158,63.9354,-3.09424,-0.01184677,0.756
590.758,63.99566,-3.0954,-0.01134486,0.75548
591.358,64.05566,-3.09556,-0.009090018,0.75495
591.958,64.11538,-3.09458,-0.01068241,0.75442
592.558,64.175,-3.09427,-0.00898917,0.75389
593.158,64.23465,-3.09523,-0.007616812,0.75337
593.758,64.29432,-3.09655,-0.00809561,0.75284
594.358,64.35404,-3.09655,-0.005965151,0.75231
594.958,64.4139,-3.09688,-0.0037271,0.75178
595.558,64.47376,-3.09637,-0.002983887,0.75125
596.158,64.53357,-3.09688,-0.004015612,0.75072
596.758,64.59351,-3.09766,-0.002044734,0.75019
597.358,64.65332,-3.0984,-0.0001259532,0.74966
597.958,64.7132,-3.09959,3.577664e-05,0.74913
598.558,64.7729,-3.09853,0.0008989853,0.7486
599.158,64.83277,-3.09858,0.00508535,0.74807
599.758,64.8927,-3.09787,0.006213965,0.74754
600.358,64.95272,-3.09787,0.006596074,0.747
600.958,65.01278,-3.09818,0.00599888,0.74647
601.558,65.07261,-3.09919,0.004245057,0.74594
602.158,65.13245,-3.09915,0.006940106,0.74541
602.758,65.19233,-3.10017,0.008149736,0.74487
603.358,65.25203,-3.10017,0.01069352,0.74434
603.958,65.3121,-3.10017,0.008444405,0.74381
604.558,65.372,-3.10017,0.01051662,0.74327
605.158,65.43183,-3.10038,0.01215099,0.74274
605.758,65.49207,-3.10087,0.01090552,0.74221
606.358,65.55201,-3.10017,0.01155666,0.74167
606.958,65.61253,-3.10019,0.01399934,0.74114
607.558,65.67263,-3.10149,0.01285367,0.7406
608.158,65.73285,-3.10222,0.01314794,0.74007
608.758,65.79308,-3.10215,0.01116246,0.73953
609.358,65.8532,-3.10215,0.01658169,0.73899
609.958,65.913,-3.10146,0.01602695,0.73846
610.558,65.97299,-3.10149,0.01686081,0.73792
611.158,66.03283,-3.10149,0.01641381,0.73738
611.758,66.09269,-3.10149,0.01819224,0.73685
612.358,66.15255,-3.10269,0.01787656,0.73631
612.958,66.21245,-3.10381,0.02009397,0.73577
613.558,66.27239,-3.10535,0.01873479,0.73523
614.158,66.3323,-3.1034,0.02097961,0.7347
614.758,66.39233,-3.10382,0.02151613,0.73416
615.358,66.45176,-3.10247,0.0202892,0.73362
615.958,66.51159,-3.10247,0.02099155,0.73308
616.558,66.57151,-3.10247,0.02464066,0.73254
617.158,66.6317,-3.10355,0.02309717,0.732
617.758,66.69184,-3.10478,0.02129164,0.73146
618.358,66.7517,-3.10478,0.02083177,0.73092
618.958,66.81175,-3.10478,0.01906483,0.73038
619.558,66.87183,-3.10478,0.02425511,0.72984
620.158,66.93185,-3.10475,0.02376012,0.7293
620.758,66.9918,-3.10587,0.0233111,0.72876
621.358,67.05152,-3.10511,0.02401351,0.72822
621.958,67.11106,-3.10511,0.02101519,0.72768
622.558,67.17067,-3.10714,0.02311848,0.72713
623.158,67.23054,-3.10775,0.021621,0.72659
623.758,67.29074,-3.1071,0.02135997,0.72605
624.358,67.3514,-3.10645,0.02358412,0.72551
624.958,67.41193,-3.10643,0.02310398,0.72496
625.558,67.47236,-3.10643,0.02629671,0.72442
626.158,67.53246,-3.10643,0.02485404,0.72388
626.758,67.5924,-3.10775,0.02480014,0.72333
627.358,67.65231,-3.10774,0.02233389,0.72279
627.958,67.71236,-3.10774,0.02270824,0.72225
628.558,67.77243,-3.10743,0.02411278,0.7217
629.158,67.83251,-3.10774,0.02360118,0.72116
629.758,67.89264,-3.10767,0.02281272,0.72061
630.358,67.9526,-3.10906,0.02419429,0.72007
630.958,68.01257,-3.10935,0.02329942,0.71952
631.558,68.07261,-3.10909,0.02380313,0.71898
632.158,68.1323,-3.10906,0.02507134,0.71843
632.758,68.19239,-3.10912,0.02683368,0.71788
633.358,68.25251,-3.10775,0.02608178,0.71734
633.958,68.31255,-3.10791,0.0280108,0.71679
634.558,68.3725,-3.109,0.02553111,0.71624
635.158,68.43253,-3.10942,0.02859094,0.7157
635.758,68.49245,-3.10811,0.02735872,0.71515
636.358,68.55272,-3.10808,0.02958334,0.7146
636.958,68.61273,-3.10936,0.030935,0.71405
637.558,68.67271,-3.11064,0.02908006,0.71351
638.158,68.73265,-3.11105,0.02930099,0.71296
638.758,68.7927,-3.11093,0.02934638,0.71241
639.358,68.8528,-3.10948,0.02981746,0.71186
639.958,68.9129,-3.10819,0.0276144,0.71131
640.558,68.9729,-3.10815,0.0323052,0.71076
641.158,69.03285,-3.10948,0.02991716,0.71021
641.758,69.09277,-3.11016,0.03548819,0.70966
642.358,69.1524,-3.11016,0.03240414,0.70911
642.958,69.21191,-3.11016,0.03291339,0.70856
643.558,69.27136,-3.11016,0.03260974,0.70801
644.158,69.3316,-3.11147,0.03599041,0.70746
644.758,69.39227,-3.11148,0.03590573,0.70691
645.358,69.45294,-3.11148,0.03389717,0.70636
645.958,69.51331,-3.11157,0.03399238,0.70581
646.558,69.57325,-3.11049,0.03551817,0.70526
647.158,69.63336,-3.11049,0.03548796,0.70471
647.758,69.6934,-3.11148,0.03511006,0.70415
648.358,69.7535,-3.11145,0.03550224,0.7036
648.958,69.81368,-3.11181,0.03494748,0.70305
649.558,69.87396,-3.11181,0.03372829,0.7025
650.158,69.9342,-3.11177,0.03270944,0.70194
650.758,69.99376,-3.11247,0.03375607,0.70139