File: 01_Data/Rayon_Bamboo_Pillowcase/STA/N2/10K_min/Rayon_Bamboo_Pillowcase_STA_N2_10KData_220519_R1.csv
##Temp./Â°C,Time/min,Mass loss(subtr.2)/mg,DSC(subtr.2)/(mW/mg),Sensit./(uV/mW)
49.786,10.00917,-0.04424,0.03555822,1.07016
50.486,10.77402,-0.04512264,0.06885496,1.06996
51.186,10.97605,-0.0449572,0.09507717,1.06977
51.886,11.12717,-0.04362271,0.11649,1.06958
52.586,11.25601,-0.04600779,0.13501,1.06938
53.286,11.37058,-0.04521512,0.14951,1.06919
53.986,11.47611,-0.04469179,0.1639,1.06899
54.686,11.5757,-0.04647656,0.17437,1.0688
55.386,11.67005,-0.04646577,0.18693,1.0686
56.086,11.7608,-0.04717374,0.19606,1.06841
56.786,11.84887,-0.04722466,0.20614,1.06821
57.486,11.93486,-0.04669917,0.21311,1.06801
58.186,12.01892,-0.04743981,0.21891,1.06781
58.886,12.10121,-0.04630226,0.2263,1.06762
59.586,12.1824,-0.04705477,0.23121,1.06742
60.286,12.26282,-0.04829829,0.23698,1.06722
60.986,12.34259,-0.0485756,0.24225,1.06702
61.686,12.42147,-0.0497398,0.24894,1.06682
62.386,12.49962,-0.04974487,0.25332,1.06662
63.086,12.5769,-0.04968222,0.25732,1.06641
63.786,12.65363,-0.05102621,0.26368,1.06621
64.486,12.73042,-0.05105022,0.26757,1.06601
65.186,12.80684,-0.04982927,0.2729,1.06581
65.886,12.88303,-0.05105015,0.27844,1.0656
66.586,12.95856,-0.05264293,0.28282,1.0654
67.286,13.03373,-0.0523618,0.28578,1.06519
67.986,13.10927,-0.05235988,0.29062,1.06499
68.686,13.18471,-0.0536484,0.29384,1.06478
69.386,13.25958,-0.05367994,0.3003,1.06458
70.086,13.3342,-0.05503909,0.30523,1.06437
70.786,13.4087,-0.05499349,0.30975,1.06416
71.486,13.48305,-0.05641695,0.31553,1.06396
72.186,13.5572,-0.05861104,0.31944,1.06375
72.886,13.6305,-0.05862,0.32523,1.06354
73.586,13.7036,-0.05866483,0.32839,1.06333
74.286,13.7769,-0.05573738,0.33403,1.06312
74.986,13.8504,-0.0587367,0.33651,1.06291
75.686,13.92335,-0.06136951,0.34142,1.0627
76.386,13.9966,-0.06210556,0.34675,1.06249
77.086,14.06979,-0.06269,0.35011,1.06228
77.786,14.14315,-0.06269,0.35349,1.06206
78.486,14.2156,-0.06269107,0.35865,1.06185
79.186,14.28834,-0.06267708,0.36203,1.06164
79.886,14.36113,-0.0639973,0.36642,1.06142
80.586,14.4347,-0.0654091,0.36996,1.06121
81.286,14.50721,-0.06531934,0.37432,1.061
81.986,14.5796,-0.06732825,0.37862,1.06078
82.686,14.6515,-0.06795223,0.38103,1.06056
83.386,14.7232,-0.07046841,0.38576,1.06035
84.086,14.79473,-0.07057332,0.3849,1.06013
84.786,14.8656,-0.07254681,0.39033,1.05991
85.486,14.93658,-0.07390623,0.39235,1.0597
86.186,15.0076,-0.07321846,0.39472,1.05948
86.886,15.0784,-0.07322,0.39638,1.05926
87.586,15.1494,-0.07322004,0.39721,1.05904
88.286,15.21975,-0.07453223,0.39943,1.05882
88.986,15.2903,-0.07584972,0.40088,1.0586
89.686,15.36045,-0.07651756,0.40252,1.05838
90.386,15.43074,-0.07783092,0.40284,1.05816
91.086,15.50068,-0.07954185,0.40478,1.05793
91.786,15.57054,-0.07981001,0.40505,1.05771
92.486,15.6403,-0.07981,0.40531,1.05749
93.186,15.71023,-0.07981,0.40372,1.05726
93.886,15.7801,-0.07981032,0.40587,1.05704
94.586,15.8497,-0.08112874,0.40376,1.05682
95.286,15.91935,-0.08091041,0.40349,1.05659
95.986,15.9887,-0.08285176,0.40343,1.05636
96.686,16.05799,-0.08483018,0.40235,1.05614
97.386,16.12665,-0.08481369,0.40237,1.05591
98.086,16.1956,-0.08617019,0.40276,1.05568
98.786,16.2646,-0.08625024,0.39956,1.05546
99.486,16.33369,-0.0902248,0.40096,1.05523
100.186,16.40256,-0.09012999,0.39535,1.055
100.886,16.47126,-0.09013,0.3957,1.05477
101.586,16.54005,-0.09013,0.39503,1.05454
102.286,16.60901,-0.09013017,0.39291,1.05431
102.986,16.6778,-0.09146563,0.39059,1.05408
103.686,16.74652,-0.09276993,0.38812,1.05385
104.386,16.81515,-0.09277187,0.38491,1.05362
105.086,16.88366,-0.09213062,0.38305,1.05338
105.786,16.9521,-0.09336305,0.38187,1.05315
106.486,17.0204,-0.09473916,0.378,1.05292
107.186,17.08934,-0.09606037,0.37527,1.05268
107.886,17.15782,-0.09606,0.37393,1.05245
108.586,17.22646,-0.09605997,0.37007,1.05221
109.286,17.2946,-0.09746432,0.36708,1.05198
109.986,17.36307,-0.09737991,0.36403,1.05174
110.686,17.43126,-0.09666115,0.36082,1.0515
111.386,17.4995,-0.09672,0.35925,1.05127
112.086,17.56776,-0.09671825,0.35647,1.05103
112.786,17.636,-0.0976105,0.35372,1.05079
113.486,17.70402,-0.09901826,0.34897,1.05055
114.186,17.77201,-0.099028,0.3467,1.05031
114.886,17.84029,-0.10034,0.34531,1.05007
115.586,17.90869,-0.10166,0.34221,1.04983
116.286,17.97709,-0.10166,0.33947,1.04959
116.986,18.04509,-0.10166,0.33744,1.04935
117.686,18.11272,-0.10166,0.33407,1.04911
118.386,18.1808,-0.10298,0.33202,1.04887
119.086,18.24918,-0.10166,0.33001,1.04862
119.786,18.31775,-0.10166,0.32583,1.04838
120.486,18.3857,-0.10268,0.32484,1.04813
121.186,18.45383,-0.10429,0.32191,1.04789
121.886,18.5218,-0.10434,0.31945,1.04765
122.586,18.58975,-0.10297,0.31832,1.0474
123.286,18.65764,-0.10297,0.31746,1.04715
123.986,18.72578,-0.10297,0.31362,1.04691
124.686,18.79393,-0.1038,0.3129,1.04666
125.386,18.86218,-0.10428,0.3123,1.04641
126.086,18.93013,-0.10396,0.30976,1.04616
126.786,18.99795,-0.10396,0.30817,1.04591
127.486,19.0652,-0.10396,0.30966,1.04566
128.186,19.13222,-0.10407,0.30784,1.04541
128.886,19.1993,-0.10594,0.30696,1.04516
129.586,19.26663,-0.10321,0.30658,1.04491
130.286,19.3343,-0.1031,0.30428,1.04466
130.986,19.40223,-0.10515,0.3046,1.04441
131.686,19.47008,-0.10583,0.3029,1.04416
132.386,19.53831,-0.10738,0.30272,1.0439
133.086,19.60609,-0.1067,0.30244,1.04365
133.786,19.67376,-0.1054,0.30412,1.0434
134.486,19.7413,-0.10537,0.30248,1.04314
135.186,19.8089,-0.1067,0.30184,1.04288
135.886,19.877,-0.10604,0.3026,1.04263
136.586,19.94521,-0.10604,0.30321,1.04237
137.286,20.01334,-0.10554,0.30352,1.04212
137.986,20.0809,-0.10609,0.3063,1.04186
138.686,20.14849,-0.10605,0.30438,1.0416
139.386,20.21601,-0.10599,0.30541,1.04134
140.086,20.28361,-0.10704,0.30521,1.04108
140.786,20.35109,-0.10704,0.30671,1.04082
141.486,20.41839,-0.10704,0.30812,1.04056
142.186,20.4859,-0.10572,0.30666,1.0403
142.886,20.55347,-0.10572,0.30746,1.04004
143.586,20.62098,-0.10572,0.30764,1.03978
144.286,20.68795,-0.10572,0.30817,1.03952
144.986,20.75483,-0.10573,0.30821,1.03925
145.686,20.82183,-0.10476,0.30835,1.03899
146.386,20.88908,-0.10572,0.30994,1.03873
147.086,20.95634,-0.10605,0.30751,1.03846
147.786,21.0238,-0.10738,0.30933,1.0382
148.486,21.091,-0.10736,0.30936,1.03793
149.186,21.15849,-0.10733,0.31026,1.03766
149.886,21.22587,-0.10736,0.30843,1.0374
150.586,21.2932,-0.108,0.30757,1.03713
151.286,21.36044,-0.10802,0.30884,1.03686
151.986,21.42775,-0.10802,0.30598,1.03659
152.686,21.49492,-0.10802,0.30915,1.03632
153.386,21.56215,-0.10802,0.30655,1.03606
154.086,21.62933,-0.10802,0.30664,1.03579
154.786,21.69676,-0.10802,0.30835,1.03551
155.486,21.764,-0.10802,0.30818,1.03524
156.186,21.8312,-0.10868,0.30745,1.03497
156.886,21.8983,-0.11,0.3081,1.0347
157.586,21.96513,-0.11,0.30795,1.03443
158.286,22.03221,-0.11003,0.30943,1.03415
158.986,22.09921,-0.11132,0.30611,1.03388
159.686,22.16667,-0.11057,0.3083,1.03361
160.386,22.23389,-0.10965,0.3085,1.03333
161.086,22.30113,-0.10737,0.30854,1.03305
161.786,22.36811,-0.10794,0.3082,1.03278
162.486,22.43515,-0.10869,0.30915,1.0325
163.186,22.50215,-0.10869,0.3097,1.03223
163.886,22.5691,-0.10869,0.30978,1.03195
164.586,22.63608,-0.10869,0.30904,1.03167
165.286,22.70317,-0.10889,0.30872,1.03139
165.986,22.76997,-0.11131,0.30947,1.03111
166.686,22.8375,-0.11265,0.30862,1.03083
167.386,22.90471,-0.11355,0.31039,1.03055
168.086,22.97259,-0.11266,0.31067,1.03027
168.786,23.03959,-0.11162,0.30869,1.02999
169.486,23.10666,-0.10997,0.30944,1.02971
170.186,23.17375,-0.11132,0.30947,1.02942
170.886,23.24073,-0.11034,0.31072,1.02914
171.586,23.30771,-0.11168,0.3072,1.02886
172.286,23.3746,-0.11292,0.30917,1.02857
172.986,23.44162,-0.11297,0.3098,1.02829
173.686,23.50848,-0.11426,0.30808,1.028
174.386,23.57542,-0.11428,0.30871,1.02772
175.086,23.64224,-0.11403,0.31012,1.02743
175.786,23.70934,-0.11296,0.31068,1.02714
176.486,23.77636,-0.11296,0.30899,1.02685
177.186,23.84329,-0.11296,0.31058,1.02657
177.886,23.90965,-0.11296,0.31009,1.02628
178.586,23.976,-0.11296,0.31002,1.02599
179.286,24.04274,-0.11279,0.31172,1.0257
179.986,24.11011,-0.11163,0.31097,1.02541
180.686,24.17717,-0.11296,0.31422,1.02512
181.386,24.24413,-0.11296,0.31328,1.02482
182.086,24.311,-0.11297,0.31388,1.02453
182.786,24.37777,-0.11428,0.3142,1.02424
183.486,24.44445,-0.11295,0.31153,1.02395
184.186,24.5111,-0.11155,0.31388,1.02365
184.886,24.57781,-0.11013,0.31279,1.02336
185.586,24.64455,-0.10967,0.31468,1.02306
186.286,24.71124,-0.10967,0.31487,1.02277
186.986,24.77788,-0.11094,0.31363,1.02247
187.686,24.84451,-0.11099,0.31601,1.02217
188.386,24.91131,-0.11266,0.31688,1.02188
189.086,24.97814,-0.11362,0.31682,1.02158
189.786,25.0448,-0.11362,0.31881,1.02128
190.486,25.11134,-0.11475,0.31821,1.02098
191.186,25.17782,-0.11493,0.32041,1.02068
191.886,25.24448,-0.11493,0.31931,1.02038
192.586,25.3111,-0.11495,0.31901,1.02008
193.286,25.3778,-0.11231,0.32022,1.01978
193.986,25.44427,-0.11357,0.3201,1.01948
194.686,25.5111,-0.11493,0.31786,1.01918
195.386,25.57777,-0.11495,0.31961,1.01887
196.086,25.6444,-0.11229,0.31816,1.01857
196.786,25.711,-0.11163,0.31982,1.01827
197.486,25.7777,-0.11296,0.32124,1.01796
198.186,25.84454,-0.11296,0.32019,1.01766
198.886,25.91098,-0.11296,0.32067,1.01735
199.586,25.9777,-0.11295,0.32004,1.01704
200.286,26.04399,-0.11309,0.32308,1.01674
200.986,26.11091,-0.11362,0.32386,1.01643
201.686,26.1774,-0.11363,0.3247,1.01612
202.386,26.24445,-0.11499,0.32158,1.01581
203.086,26.3108,-0.11362,0.32264,1.01551
203.786,26.37738,-0.11366,0.32292,1.0152
204.486,26.44394,-0.11362,0.32331,1.01489
205.186,26.51057,-0.11227,0.32288,1.01457
205.886,26.57735,-0.11365,0.32371,1.01426
206.586,26.64413,-0.11494,0.32444,1.01395
207.286,26.71107,-0.11494,0.32523,1.01364
207.986,26.7779,-0.11494,0.32469,1.01333
208.686,26.8444,-0.11543,0.32634,1.01301
209.386,26.91103,-0.11493,0.32751,1.0127
210.086,26.97761,-0.11492,0.32578,1.01238
210.786,27.0443,-0.11362,0.32525,1.01207
211.486,27.1108,-0.11492,0.32608,1.01175
212.186,27.17727,-0.11494,0.32745,1.01143
212.886,27.24369,-0.11494,0.32593,1.01112
213.586,27.3103,-0.11494,0.32758,1.0108
214.286,27.37668,-0.11495,0.32772,1.01048
214.986,27.4433,-0.1156,0.32805,1.01016
215.686,27.50978,-0.11625,0.32725,1.00984
216.386,27.57664,-0.11491,0.32885,1.00952
217.086,27.6433,-0.11515,0.32586,1.0092
217.786,27.7097,-0.11626,0.32804,1.00888
218.486,27.7757,-0.11754,0.32909,1.00856
219.186,27.8418,-0.1189,0.3289,1.00824
219.886,27.90799,-0.11889,0.32876,1.00792
220.586,27.97461,-0.11889,0.32961,1.00759
221.286,28.041,-0.11889,0.3288,1.00727
221.986,28.10758,-0.11891,0.33059,1.00694
222.686,28.174,-0.11859,0.33014,1.00662
223.386,28.2403,-0.11791,0.32968,1.00629
224.086,28.3071,-0.1179,0.33056,1.00597
224.786,28.3741,-0.11887,0.33113,1.00564
225.486,28.4414,-0.11889,0.33144,1.00531
226.186,28.50804,-0.12021,0.33076,1.00498
226.886,28.5747,-0.12074,0.33036,1.00466
227.586,28.6411,-0.12317,0.33076,1.00433
228.286,28.70808,-0.1232,0.32982,1.004
228.986,28.7748,-0.1205,0.33176,1.00367
229.686,28.841,-0.12321,0.33143,1.00333
230.386,28.9075,-0.12317,0.33226,1.003
231.086,28.9736,-0.12322,0.3319,1.00267
231.786,29.0404,-0.12581,0.33095,1.00234
232.486,29.1073,-0.12581,0.3308,1.00201
233.186,29.1743,-0.12583,0.3317,1.00167
233.886,29.24072,-0.12713,0.33215,1.00134
234.586,29.30718,-0.12713,0.33261,1.001
235.286,29.3739,-0.12718,0.33185,1.00067
235.986,29.4405,-0.12847,0.33061,1.00033
236.686,29.5071,-0.12976,0.32986,0.99999
237.386,29.57371,-0.12976,0.33,0.99966
238.086,29.64015,-0.12974,0.33209,0.99932
238.786,29.70679,-0.13243,0.33188,0.99898
239.486,29.7735,-0.13108,0.3316,0.99864
240.186,29.8404,-0.12976,0.33034,0.9983
240.886,29.9068,-0.13009,0.33281,0.99796
241.586,29.9732,-0.13108,0.32934,0.99762
242.286,30.0398,-0.13373,0.33077,0.99728
242.986,30.1066,-0.13694,0.32936,0.99694
243.686,30.17343,-0.13944,0.33156,0.99659
244.386,30.24,-0.1394,0.33166,0.99625
245.086,30.30661,-0.14205,0.33185,0.99591
245.786,30.3731,-0.14338,0.3321,0.99556
246.486,30.43982,-0.14338,0.33107,0.99522
247.186,30.50672,-0.14471,0.33465,0.99487
247.886,30.5736,-0.14593,0.33365,0.99453
248.586,30.6403,-0.14763,0.33467,0.99418
249.286,30.707,-0.14922,0.33843,0.99383
249.986,30.7735,-0.1518,0.34663,0.99349
250.686,30.84008,-0.15675,0.35449,0.99314
251.386,30.9067,-0.159,0.3577,0.99279
252.086,30.9736,-0.16028,0.36238,0.99244
252.786,31.0403,-0.16166,0.36567,0.99209
253.486,31.1071,-0.16431,0.37007,0.99174
254.186,31.1737,-0.16707,0.37759,0.99139
254.886,31.24056,-0.17022,0.38633,0.99103
255.586,31.30745,-0.17464,0.39722,0.99068
256.286,31.37417,-0.18082,0.41148,0.99033
256.986,31.4409,-0.18822,0.42659,0.98997
257.686,31.50753,-0.19131,0.44076,0.98962
258.386,31.5745,-0.19474,0.4585,0.98927
259.086,31.6414,-0.20022,0.47667,0.98891
259.786,31.70836,-0.20613,0.49484,0.98855
260.486,31.77494,-0.20998,0.51454,0.9882
261.186,31.8417,-0.21885,0.53508,0.98784
261.886,31.9084,-0.22781,0.55258,0.98748
262.586,31.9755,-0.23569,0.57029,0.98712
263.286,32.04203,-0.2426,0.58523,0.98677
263.986,32.10902,-0.25455,0.60138,0.98641
264.686,32.17546,-0.26261,0.61364,0.98605
265.386,32.24262,-0.27098,0.62168,0.98568
266.086,32.3095,-0.28118,0.63058,0.98532
266.786,32.3767,-0.29182,0.63475,0.98496
267.486,32.44347,-0.3022,0.64098,0.9846
268.186,32.5104,-0.31181,0.64536,0.98424
268.886,32.57719,-0.32467,0.64771,0.98387
269.586,32.64412,-0.33619,0.65067,0.98351
270.286,32.71095,-0.34783,0.65143,0.98314
270.986,32.77762,-0.36117,0.65295,0.98278
271.686,32.8444,-0.3737,0.65484,0.98241
272.386,32.91134,-0.38488,0.65303,0.98204
273.086,32.9781,-0.39889,0.6523,0.98168
273.786,33.045,-0.41226,0.65271,0.98131
274.486,33.11181,-0.42598,0.65253,0.98094
275.186,33.1788,-0.43984,0.65187,0.98057
275.886,33.2455,-0.45342,0.65022,0.9802
276.586,33.31245,-0.4686,0.65002,0.97983
277.286,33.3793,-0.48197,0.64853,0.97946
277.986,33.44627,-0.49666,0.64797,0.97909
278.686,33.51303,-0.51063,0.64736,0.97872
279.386,33.57976,-0.52564,0.6448,0.97835
280.086,33.6462,-0.54055,0.64495,0.97797
280.786,33.71264,-0.55605,0.64569,0.9776
281.486,33.77968,-0.57074,0.64328,0.97722
282.186,33.84688,-0.58702,0.64445,0.97685
282.886,33.9138,-0.60241,0.64563,0.97647
283.586,33.98062,-0.6166,0.6431,0.9761
284.286,34.04725,-0.63467,0.64274,0.97572
284.986,34.1145,-0.65031,0.64294,0.97534
285.686,34.18141,-0.6674,0.64338,0.97497
286.386,34.2483,-0.68387,0.64172,0.97459
287.086,34.3151,-0.69839,0.64214,0.97421
287.786,34.38197,-0.71737,0.64322,0.97383
288.486,34.44859,-0.7335,0.64407,0.97345
289.186,34.5154,-0.75036,0.64624,0.97307
289.886,34.58235,-0.76718,0.64454,0.97269
290.586,34.6494,-0.78348,0.64864,0.9723
291.286,34.71627,-0.80166,0.64966,0.97192
291.986,34.78311,-0.82015,0.64872,0.97154
292.686,34.8497,-0.83693,0.65182,0.97115
293.386,34.9161,-0.85546,0.65255,0.97077
294.086,34.98275,-0.87437,0.65487,0.97038
294.786,35.04952,-0.89187,0.65199,0.97
295.486,35.1168,-0.90831,0.65534,0.96961
296.186,35.18396,-0.92709,0.65744,0.96922
296.886,35.25121,-0.94974,0.66042,0.96884
297.586,35.31796,-0.96917,0.65949,0.96845
298.286,35.38476,-0.9912,0.66082,0.96806
298.986,35.45159,-1.00971,0.66318,0.96767
299.686,35.51865,-1.02917,0.66554,0.96728
300.386,35.58598,-1.05164,0.6668,0.96689
301.086,35.65297,-1.07212,0.6713,0.9665
301.786,35.7201,-1.09473,0.67309,0.96611
302.486,35.78702,-1.1158,0.67283,0.96572
303.186,35.8541,-1.13735,0.6727,0.96532
303.886,35.921,-1.15887,0.67416,0.96493
304.586,35.98831,-1.1806,0.67799,0.96454
305.286,36.05529,-1.20482,0.67927,0.96414
305.986,36.1221,-1.22796,0.67972,0.96375
306.686,36.18855,-1.25146,0.68142,0.96335
307.386,36.2553,-1.27535,0.68394,0.96295
308.086,36.3221,-1.29955,0.6856,0.96256
308.786,36.38919,-1.32322,0.68761,0.96216
309.486,36.45613,-1.34862,0.68761,0.96176
310.186,36.52325,-1.37336,0.68966,0.96136
310.886,36.5907,-1.3988,0.69282,0.96096
311.586,36.6584,-1.42445,0.69287,0.96056
312.286,36.72575,-1.45014,0.69205,0.96016
312.986,36.79303,-1.47822,0.69347,0.95976
313.686,36.86019,-1.50378,0.69421,0.95936
314.386,36.9275,-1.53134,0.69489,0.95896
315.086,36.9946,-1.55745,0.69552,0.95855
315.786,37.0616,-1.58484,0.69615,0.95815
316.486,37.1287,-1.61249,0.69473,0.95775
317.186,37.19575,-1.63997,0.69423,0.95734
317.886,37.2628,-1.66881,0.69359,0.95694
318.586,37.32983,-1.70034,0.69295,0.95653
319.286,37.3967,-1.72747,0.69443,0.95612
319.986,37.46354,-1.75469,0.68975,0.95572
320.686,37.5306,-1.78423,0.68642,0.95531
321.386,37.5978,-1.81093,0.68452,0.9549
322.086,37.66503,-1.84205,0.68275,0.95449
322.786,37.732,-1.87277,0.68204,0.95408
323.486,37.7988,-1.90249,0.67952,0.95367
324.186,37.86567,-1.93031,0.67256,0.95326
324.886,37.93282,-1.96032,0.66981,0.95285
325.586,38,-1.98807,0.66474,0.95244
326.286,38.067,-2.01741,0.6615,0.95202
326.986,38.13405,-2.04521,0.65733,0.95161
327.686,38.2012,-2.07573,0.64994,0.9512
328.386,38.26848,-2.10671,0.64327,0.95078
329.086,38.3356,-2.13563,0.64154,0.95037
329.786,38.40276,-2.16291,0.63174,0.94995
330.486,38.47009,-2.19437,0.62646,0.94954
331.186,38.5374,-2.22604,0.61785,0.94912
331.886,38.60472,-2.25366,0.60872,0.9487
332.586,38.6719,-2.28183,0.59965,0.94828
333.286,38.73908,-2.31188,0.59066,0.94786
333.986,38.80653,-2.34036,0.58053,0.94745
334.686,38.8739,-2.3679,0.56777,0.94703
335.386,38.94121,-2.39536,0.55161,0.94661
336.086,39.00847,-2.42138,0.54086,0.94618
336.786,39.0758,-2.44504,0.52683,0.94576
337.486,39.14308,-2.47102,0.50952,0.94534
338.186,39.2102,-2.49711,0.49202,0.94492
338.886,39.27717,-2.5198,0.4759,0.94449
339.586,39.34425,-2.54942,0.45868,0.94407
340.286,39.4115,-2.57272,0.43816,0.94365
340.986,39.47878,-2.59218,0.41606,0.94322
341.686,39.54599,-2.61438,0.39573,0.9428
342.386,39.61313,-2.63344,0.37194,0.94237
343.086,39.68011,-2.65071,0.35104,0.94194
343.786,39.74734,-2.6679,0.32635,0.94151
344.486,39.81427,-2.68394,0.30402,0.94109
345.186,39.88146,-2.69787,0.28196,0.94066
345.886,39.94858,-2.71171,0.26128,0.94023
346.586,40.01569,-2.72477,0.23982,0.9398
347.286,40.0828,-2.73565,0.22293,0.93937
347.986,40.1499,-2.7488,0.20571,0.93894
348.686,40.21699,-2.76015,0.18674,0.9385
349.386,40.2843,-2.76973,0.17541,0.93807
350.086,40.35157,-2.77843,0.16271,0.93764
350.786,40.41856,-2.78731,0.14733,0.93721
351.486,40.4859,-2.79451,0.13761,0.93677
352.186,40.55315,-2.8027,0.12789,0.93634
352.886,40.62088,-2.80974,0.1207,0.9359
353.586,40.6882,-2.81441,0.11183,0.93547
354.286,40.75571,-2.82316,0.10623,0.93503
354.986,40.82306,-2.82922,0.09819359,0.93459
355.686,40.89054,-2.8321,0.09383891,0.93415
356.386,40.95787,-2.83619,0.08867401,0.93372
357.086,41.02534,-2.84059,0.0850508,0.93328
357.786,41.09284,-2.8429,0.07871462,0.93284
358.486,41.16044,-2.847,0.07672384,0.9324
359.186,41.228,-2.85248,0.07425353,0.93196
359.886,41.29553,-2.85606,0.071233,0.93152
360.586,41.3628,-2.86012,0.06763566,0.93107
361.286,41.43049,-2.86319,0.06656765,0.93063
361.986,41.49798,-2.86712,0.06481764,0.93019
362.686,41.56559,-2.86998,0.0630818,0.92974
363.386,41.63273,-2.87283,0.06325761,0.9293
364.086,41.70045,-2.87541,0.05978635,0.92885
364.786,41.7683,-2.87804,0.05792388,0.92841
365.486,41.83627,-2.88082,0.05681261,0.92796
366.186,41.90384,-2.88238,0.05423774,0.92752
366.886,41.97145,-2.885,0.05377707,0.92707
367.586,42.0392,-2.88708,0.05387101,0.92662
368.286,42.10689,-2.88918,0.0516527,0.92617
368.986,42.17457,-2.88908,0.04980591,0.92572
369.686,42.24214,-2.89415,0.05069947,0.92527
370.386,42.30976,-2.89971,0.04840736,0.92482
371.086,42.37722,-2.90122,0.04959565,0.92437
371.786,42.44489,-2.90224,0.04785744,0.92392
372.486,42.5124,-2.90488,0.0473193,0.92347
373.186,42.58038,-2.90712,0.04755917,0.92302
373.886,42.64804,-2.91041,0.04609286,0.92256
374.586,42.71595,-2.91183,0.04604241,0.92211
375.286,42.78333,-2.91316,0.04444881,0.92166
375.986,42.85109,-2.91638,0.04445658,0.9212
376.686,42.9189,-2.91879,0.04499986,0.92074
377.386,42.98689,-2.92044,0.04426945,0.92029
378.086,43.05464,-2.92218,0.04384938,0.91983
378.786,43.1222,-2.9232,0.04292164,0.91937
379.486,43.18992,-2.92474,0.04385522,0.91892
380.186,43.25765,-2.92794,0.04388159,0.91846
380.886,43.32553,-2.93093,0.04127099,0.918
381.586,43.3933,-2.9322,0.04203031,0.91754
382.286,43.46114,-2.93356,0.04328932,0.91708
382.986,43.5289,-2.9369,0.04544885,0.91662
383.686,43.59687,-2.94151,0.04209218,0.91616
384.386,43.66469,-2.94318,0.04437697,0.91569
385.086,43.73264,-2.94581,0.04479619,0.91523
385.786,43.80053,-2.94581,0.04171638,0.91477
386.486,43.8684,-2.94581,0.04200323,0.9143
387.186,43.93629,-2.94828,0.04183014,0.91384
387.886,44.00393,-2.95319,0.04205054,0.91337
388.586,44.07189,-2.95394,0.04313474,0.91291
389.286,44.13993,-2.95259,0.04103411,0.91244
389.986,44.208,-2.95131,0.04272868,0.91198
390.686,44.27597,-2.95523,0.04178104,0.91151
391.386,44.34388,-2.9585,0.04234369,0.91104
392.086,44.41191,-2.95976,0.04193023,0.91057
392.786,44.4799,-2.96112,0.0420479,0.9101
393.486,44.54793,-2.96372,0.04068933,0.90963
394.186,44.6158,-2.96501,0.04137196,0.90916
394.886,44.6838,-2.96635,0.041487,0.90869
395.586,44.75188,-2.96767,0.04218628,0.90822
396.286,44.8198,-2.96766,0.04081999,0.90775
396.986,44.8879,-2.97031,0.04062521,0.90728
397.686,44.95565,-2.97202,0.04233094,0.9068
398.386,45.02362,-2.97512,0.04365289,0.90633
399.086,45.0916,-2.97675,0.04217215,0.90585
399.786,45.15972,-2.97633,0.04202324,0.90538
400.486,45.2278,-2.97801,0.04177943,0.9049
401.186,45.2957,-2.97941,0.04168857,0.90443
401.886,45.36376,-2.9804,0.04182911,0.90395
402.586,45.4317,-2.98139,0.04136929,0.90347
403.286,45.5,-2.98344,0.04279462,0.90299
403.986,45.56799,-2.98655,0.04093021,0.90252
404.686,45.63612,-2.98783,0.04144643,0.90204
405.386,45.704,-2.9896,0.04142891,0.90156
406.086,45.772,-2.99083,0.04065749,0.90108
406.786,45.8403,-2.99343,0.04120487,0.9006
407.486,45.90842,-2.99368,0.03997696,0.90011
408.186,45.97679,-2.995,0.04030596,0.89963
408.886,46.04487,-2.9963,0.04102044,0.89915
409.586,46.11316,-2.99764,0.03849849,0.89867
410.286,46.18143,-2.99912,0.03949933,0.89818
410.986,46.24958,-3.00179,0.04156519,0.8977
411.686,46.3178,-3.00378,0.04122878,0.89721
412.386,46.38612,-3.0049,0.04218623,0.89673
413.086,46.4544,-3.00601,0.04195561,0.89624
413.786,46.52256,-3.00723,0.04123982,0.89575
414.486,46.5907,-3.00818,0.04215889,0.89527
415.186,46.659,-3.00817,0.04317707,0.89478
415.886,46.7273,-3.00948,0.04053214,0.89429
416.586,46.79574,-3.0108,0.04218506,0.8938
417.286,46.864,-3.01213,0.04025061,0.89331
417.986,46.9324,-3.01217,0.0390552,0.89282
418.686,47.00046,-3.01342,0.03997795,0.89233
419.386,47.0686,-3.01476,0.03973247,0.89184
420.086,47.13702,-3.0174,0.03905053,0.89135
420.786,47.2055,-3.0177,0.0415871,0.89086
421.486,47.27401,-3.01868,0.04029148,0.89036
422.186,47.3421,-3.02092,0.04261792,0.88987
422.886,47.41032,-3.02269,0.04068974,0.88937
423.586,47.47841,-3.02398,0.04411299,0.88888
424.286,47.5465,-3.02512,0.04063508,0.88838
424.986,47.61436,-3.02769,0.0450235,0.88789
425.686,47.6827,-3.02793,0.04296879,0.88739
426.386,47.75099,-3.02924,0.04289012,0.88689
427.086,47.81946,-3.03056,0.04400256,0.8864
427.786,47.8878,-3.03079,0.04338447,0.8859
428.486,47.95643,-3.0319,0.04256059,0.8854
429.186,48.02507,-3.03328,0.04613524,0.8849
429.886,48.09313,-3.03588,0.04382707,0.8844
430.586,48.1614,-3.03714,0.04463506,0.8839
431.286,48.2296,-3.0385,0.04542528,0.8834
431.986,48.29805,-3.03978,0.04536167,0.8829
432.686,48.36643,-3.04153,0.04469001,0.88239
433.386,48.43496,-3.04382,0.04449098,0.88189
434.086,48.50371,-3.04374,0.04499547,0.88139
434.786,48.57206,-3.04504,0.04345201,0.88088
435.486,48.64043,-3.04735,0.04353526,0.88038
436.186,48.70881,-3.04866,0.04133936,0.87988
436.886,48.7772,-3.05002,0.04250832,0.87937
437.586,48.8457,-3.05011,0.04297785,0.87886
438.286,48.91408,-3.05133,0.0434332,0.87836
438.986,48.98237,-3.05257,0.04318069,0.87785
439.686,49.05087,-3.05395,0.0440737,0.87734
440.386,49.11939,-3.05494,0.04189114,0.87683
441.086,49.18797,-3.05451,0.04222338,0.87632
441.786,49.25643,-3.05664,0.04265409,0.87581
442.486,49.32478,-3.05667,0.04273859,0.8753
443.186,49.3934,-3.05867,0.0443193,0.87479
443.886,49.46147,-3.06007,0.04381526,0.87428
444.586,49.53,-3.06054,0.04266219,0.87377
445.286,49.59791,-3.06308,0.04615905,0.87326
445.986,49.66657,-3.06452,0.04516243,0.87274
446.686,49.73491,-3.06581,0.04347459,0.87223
447.386,49.80369,-3.06713,0.04209253,0.87172
448.086,49.87209,-3.06849,0.04251596,0.8712
448.786,49.94064,-3.06854,0.04154466,0.87069
449.486,50.0092,-3.07108,0.0435142,0.87017
450.186,50.0779,-3.07239,0.04229318,0.86965
450.886,50.14648,-3.07284,0.0426745,0.86914
451.586,50.215,-3.0738,0.04131712,0.86862
452.286,50.28311,-3.07498,0.04409772,0.8681
452.986,50.35106,-3.07635,0.04267489,0.86758
453.686,50.4191,-3.07734,0.04301395,0.86706
454.386,50.48826,-3.07701,0.04333635,0.86654
455.086,50.5574,-3.07825,0.04352107,0.86602
455.786,50.62659,-3.08115,0.04378573,0.8655
456.486,50.6952,-3.08172,0.04279832,0.86498
457.186,50.76397,-3.08348,0.0410061,0.86446
457.886,50.83267,-3.08312,0.042811,0.86394
458.586,50.90153,-3.08436,0.03977533,0.86341
459.286,50.97027,-3.08611,0.04173063,0.86289
459.986,51.0389,-3.08992,0.04087649,0.86237
460.686,51.1076,-3.0913,0.04197241,0.86184
461.386,51.17635,-3.09119,0.0414005,0.86132
462.086,51.2453,-3.09109,0.04068793,0.86079
462.786,51.31405,-3.09116,0.04185152,0.86026
463.486,51.38259,-3.09116,0.03996424,0.85974
464.186,51.45128,-3.09114,0.04316046,0.85921
464.886,51.52005,-3.09246,0.04100078,0.85868
465.586,51.5891,-3.09512,0.04104761,0.85815
466.286,51.65795,-3.09668,0.04214481,0.85762
466.986,51.72678,-3.09912,0.04102884,0.85709
467.686,51.79551,-3.09894,0.039759,0.85656
468.386,51.864,-3.09946,0.04016024,0.85603
469.086,51.93266,-3.10073,0.04026877,0.8555
469.786,52.00132,-3.10203,0.03889415,0.85497
470.486,52.0702,-3.10244,0.03845284,0.85444
471.186,52.13899,-3.10431,0.03925807,0.8539
471.886,52.20756,-3.10586,0.03919193,0.85337
472.586,52.27637,-3.10565,0.03775663,0.85284
473.286,52.34505,-3.10697,0.03835233,0.8523
473.986,52.4138,-3.11121,0.0373042,0.85177
474.686,52.4825,-3.10672,0.03660845,0.85123
475.386,52.5511,-3.10675,0.03558179,0.8507
476.086,52.62,-3.10811,0.03858914,0.85016
476.786,52.68895,-3.11071,0.03791084,0.84962
477.486,52.7577,-3.11202,0.03787353,0.84908
478.186,52.82643,-3.11379,0.04029158,0.84855
478.886,52.89509,-3.11433,0.03985228,0.84801
479.586,52.96383,-3.11475,0.04387769,0.84747
480.286,53.03265,-3.11429,0.04596803,0.84693
480.986,53.1014,-3.11703,0.04665327,0.84639
481.686,53.1704,-3.11828,0.04732357,0.84585
482.386,53.239,-3.1196,0.04836585,0.8453
483.086,53.30769,-3.11861,0.04736622,0.84476
483.786,53.3765,-3.11991,0.04796537,0.84422
484.486,53.4456,-3.12125,0.04808384,0.84368
485.186,53.515,-3.12266,0.05063873,0.84313
485.886,53.58384,-3.12262,0.04987364,0.84259
486.586,53.65271,-3.12388,0.04987431,0.84204
487.286,53.7216,-3.12531,0.04923684,0.8415
487.986,53.7907,-3.12652,0.04966675,0.84095
488.686,53.8598,-3.12652,0.04948661,0.84041
489.386,53.9288,-3.12652,0.04999599,0.83986
490.086,53.99794,-3.12695,0.04853169,0.83931
490.786,54.0669,-3.12651,0.05156852,0.83876
491.486,54.13599,-3.12807,0.05055522,0.83822
492.186,54.20502,-3.12911,0.04981422,0.83767
492.886,54.27395,-3.12948,0.04992222,0.83712
493.586,54.3431,-3.1309,0.05180686,0.83657
494.286,54.4124,-3.13074,0.05221533,0.83602
494.986,54.4818,-3.13166,0.05365231,0.83546
495.686,54.551,-3.13211,0.05093079,0.83491
496.386,54.6202,-3.13211,0.05012571,0.83436
497.086,54.68935,-3.13312,0.05264269,0.83381
497.786,54.75841,-3.13435,0.05043471,0.83326
498.486,54.82753,-3.13606,0.05270395,0.8327
499.186,54.8966,-3.13622,0.05369193,0.83215
499.886,54.9659,-3.13738,0.05380731,0.83159
500.586,55.0349,-3.13738,0.05735471,0.83104
501.286,55.104,-3.13738,0.05776949,0.83048
501.986,55.17275,-3.13672,0.05823623,0.82993
502.686,55.2418,-3.13672,0.06031943,0.82937
503.386,55.3108,-3.13852,0.06065708,0.82881
504.086,55.3799,-3.14067,0.06294901,0.82825
504.786,55.44915,-3.141,0.06281615,0.8277
505.486,55.5184,-3.14464,0.06234791,0.82714
506.186,55.5877,-3.14331,0.06462906,0.82658
506.886,55.65693,-3.14378,0.06276435,0.82602
507.586,55.72609,-3.14595,0.06441063,0.82546
508.286,55.7952,-3.14589,0.06523191,0.8249
508.986,55.8643,-3.14701,0.06382578,0.82433
509.686,55.93346,-3.14852,0.06380508,0.82377
510.386,56.00258,-3.15127,0.06464729,0.82321
511.086,56.0717,-3.14985,0.06406947,0.82265
511.786,56.14099,-3.1499,0.06384828,0.82208
512.486,56.2102,-3.15057,0.06234894,0.82152
513.186,56.27949,-3.15188,0.06355736,0.82096
513.886,56.34868,-3.15188,0.06476184,0.82039
514.586,56.4176,-3.15188,0.06305349,0.81983
515.286,56.48666,-3.15188,0.06414775,0.81926
515.986,56.5558,-3.1532,0.06095874,0.81869
516.686,56.6251,-3.15449,0.061182,0.81813
517.386,56.6943,-3.1532,0.05811803,0.81756
518.086,56.76333,-3.15449,0.05923161,0.81699
518.786,56.8322,-3.15522,0.05896901,0.81642
519.486,56.9016,-3.15517,0.05752947,0.81585
520.186,56.97087,-3.15529,0.05599793,0.81528
520.886,57.04036,-3.15649,0.05661563,0.81471
521.586,57.1096,-3.15747,0.0534584,0.81414
522.286,57.179,-3.15782,0.05072288,0.81357
522.986,57.24835,-3.15781,0.05005571,0.813
523.686,57.31766,-3.15912,0.05275145,0.81243
524.386,57.3868,-3.1601,0.04885143,0.81186
525.086,57.456,-3.16011,0.04870728,0.81128
525.786,57.52534,-3.1601,0.04474182,0.81071
526.486,57.59477,-3.16143,0.04786095,0.81014
527.186,57.664,-3.1623,0.04729664,0.80956
527.886,57.7334,-3.16243,0.04458197,0.80899
528.586,57.8027,-3.16275,0.04301416,0.80841
529.286,57.87215,-3.16406,0.03929723,0.80784
529.986,57.94163,-3.16406,0.0398793,0.80726
530.686,58.01076,-3.16517,0.03890325,0.80668
531.386,58.08,-3.16538,0.03866023,0.80611
532.086,58.1493,-3.16439,0.03786929,0.80553
532.786,58.21924,-3.16439,0.03487183,0.80495
533.486,58.289,-3.1657,0.03653962,0.80437
534.186,58.35849,-3.16599,0.03512431,0.80379
534.886,58.428,-3.16835,0.03640992,0.80321
535.586,58.49759,-3.16748,0.03354406,0.80263
536.286,58.567,-3.16866,0.03459441,0.80205
536.986,58.63658,-3.16862,0.03250063,0.80147
537.686,58.70625,-3.16999,0.03343028,0.80089
538.386,58.77601,-3.17039,0.03224407,0.80031
539.086,58.8455,-3.17131,0.03358119,0.79972
539.786,58.91496,-3.17131,0.03422817,0.79914
540.486,58.9844,-3.17227,0.03122732,0.79856
541.186,59.05404,-3.17229,0.03172108,0.79797
541.886,59.1235,-3.17361,0.03200928,0.79739
542.586,59.1931,-3.1723,0.02982254,0.7968
543.286,59.2624,-3.17229,0.02772461,0.79622
543.986,59.332,-3.17346,0.027988,0.79563
544.686,59.40141,-3.17361,0.0283037,0.79505
545.386,59.47093,-3.17374,0.0281432,0.79446
546.086,59.5403,-3.17568,0.02746924,0.79387
546.786,59.6098,-3.17625,0.02948593,0.79329
547.486,59.67938,-3.17757,0.02992893,0.7927
548.186,59.7488,-3.17757,0.02831178,0.79211
548.886,59.8177,-3.17888,0.02625443,0.79152
549.586,59.8871,-3.17678,0.02652749,0.79093
550.286,59.95646,-3.17758,0.0256114,0.79034
550.986,60.0264,-3.17816,0.02471642,0.78975
551.686,60.0958,-3.17746,0.02620045,0.78916
552.386,60.16579,-3.1802,0.02703678,0.78857
553.086,60.2356,-3.1801,0.02549697,0.78798
553.786,60.30531,-3.18152,0.02633098,0.78738
554.486,60.3748,-3.18152,0.02740122,0.78679
555.186,60.44438,-3.18281,0.02795138,0.7862
555.886,60.514,-3.18282,0.0267338,0.7856
556.586,60.5836,-3.18173,0.02685882,0.78501
557.286,60.6533,-3.183,0.02795106,0.78441
557.986,60.7229,-3.18509,0.02739746,0.78382
558.686,60.7926,-3.18475,0.02575714,0.78322
559.386,60.8621,-3.18439,0.0271386,0.78263
560.086,60.9319,-3.18569,0.02687391,0.78203
560.786,61.00164,-3.18403,0.02607139,0.78144
561.486,61.07147,-3.185,0.02811643,0.78084
562.186,61.14102,-3.18715,0.02829438,0.78024
562.886,61.21063,-3.18776,0.0306124,0.77964
563.586,61.28024,-3.18767,0.02944871,0.77904
564.286,61.3498,-3.18767,0.02972559,0.77844
564.986,61.4196,-3.18635,0.02958564,0.77785
565.686,61.48924,-3.18569,0.02957619,0.77725
566.386,61.55916,-3.18569,0.03056118,0.77665
567.086,61.62874,-3.1847,0.0339466,0.77604
567.786,61.6984,-3.1847,0.03253625,0.77544
568.486,61.7681,-3.1847,0.03350728,0.77484
569.186,61.8381,-3.18602,0.03325896,0.77424
569.886,61.9079,-3.18728,0.0358729,0.77364
570.586,61.97746,-3.18887,0.03338782,0.77303
571.286,62.04688,-3.18998,0.0358995,0.77243
571.986,62.1166,-3.1903,0.03559068,0.77183
572.686,62.1864,-3.18942,0.03474452,0.77122
573.386,62.2563,-3.1903,0.03525788,0.77062
574.086,62.32604,-3.1903,0.03943477,0.77001
574.786,62.3958,-3.19099,0.03581991,0.76941
575.486,62.4656,-3.19228,0.03773086,0.7688
576.186,62.5353,-3.19228,0.0372943,0.7682
576.886,62.6051,-3.19322,0.03837386,0.76759
577.586,62.67487,-3.19294,0.03987106,0.76698
578.286,62.74468,-3.19294,0.03876725,0.76637
578.986,62.8144,-3.19285,0.03847943,0.76577
579.686,62.88426,-3.19392,0.04054592,0.76516
580.386,62.9542,-3.19392,0.04166049,0.76455
581.086,63.02426,-3.19392,0.04263419,0.76394
581.786,63.0938,-3.19392,0.04275135,0.76333
582.486,63.16339,-3.19435,0.04301223,0.76272
583.186,63.2328,-3.19425,0.04168838,0.76211
583.886,63.30256,-3.19578,0.04234772,0.7615
584.586,63.37215,-3.19623,0.0436107,0.76089
585.286,63.442,-3.19491,0.04683104,0.76027
585.986,63.51171,-3.19491,0.04445195,0.75966
586.686,63.5816,-3.19623,0.04594981,0.75905
587.386,63.6511,-3.19623,0.04677042,0.75844
588.086,63.7209,-3.19623,0.0467046,0.75782
588.786,63.79062,-3.19754,0.04756295,0.75721
589.486,63.86059,-3.19886,0.04780842,0.75659
590.186,63.9305,-3.19886,0.04933659,0.75598
590.886,64.00049,-3.19886,0.04812947,0.75537
591.586,64.07041,-3.19753,0.0519989,0.75475
592.286,64.1404,-3.19886,0.05268941,0.75413
592.986,64.21037,-3.20017,0.05380118,0.75352
593.686,64.2799,-3.20018,0.05387979,0.7529
594.386,64.3494,-3.19886,0.0535881,0.75228
595.086,64.41898,-3.19886,0.05286177,0.75167
595.786,64.48904,-3.19886,0.05017142,0.75105
596.486,64.5591,-3.20018,0.05122435,0.75043
597.186,64.6289,-3.20018,0.05122839,0.74981
597.886,64.69872,-3.20018,0.05029214,0.74919
598.586,64.76907,-3.20018,0.04831856,0.74857
599.286,64.83946,-3.2015,0.0490943,0.74795
599.986,64.90978,-3.20282,0.0502133,0.74733
600.686,64.97957,-3.20413,0.04889035,0.74671
601.386,65.04971,-3.20243,0.04816414,0.74609
602.086,65.11967,-3.2015,0.05035641,0.74547
602.786,65.18947,-3.2025,0.05008211,0.74485
603.486,65.2594,-3.20249,0.05113357,0.74423
604.186,65.32949,-3.20249,0.0514137,0.7436
604.886,65.39969,-3.20216,0.05073414,0.74298
605.586,65.4697,-3.20348,0.05298657,0.74236
606.286,65.53979,-3.20348,0.05662773,0.74173
606.986,65.60959,-3.20348,0.0599963,0.74111
607.686,65.67964,-3.20216,0.05720314,0.74049
608.386,65.7496,-3.20282,0.05755893,0.73986
609.086,65.82006,-3.2015,0.05832229,0.73924
609.786,65.88984,-3.20222,0.05973764,0.73861
610.486,65.95991,-3.20282,0.06111012,0.73799
611.186,66.02978,-3.20282,0.06467079,0.73736
611.886,66.10011,-3.20487,0.06190615,0.73673
612.586,66.1703,-3.20545,0.06243638,0.73611
613.286,66.2406,-3.20545,0.0626672,0.73548
613.986,66.3107,-3.20545,0.06302802,0.73485
614.686,66.38075,-3.20725,0.06768822,0.73422
615.386,66.4509,-3.20809,0.0656954,0.73359
616.086,66.52105,-3.20809,0.063196,0.73296
616.786,66.5913,-3.20808,0.06529569,0.73234
617.486,66.6613,-3.20677,0.06577913,0.73171
618.186,66.73137,-3.2081,0.06783527,0.73108
618.886,66.8014,-3.20809,0.06862374,0.73045
619.586,66.87127,-3.20777,0.07212443,0.72982
620.286,66.94115,-3.20775,0.07136105,0.72918
620.986,67.0111,-3.20776,0.07121157,0.72855
621.686,67.08128,-3.20906,0.07079519,0.72792
622.386,67.15126,-3.20677,0.06959909,0.72729
623.086,67.2213,-3.20805,0.07097744,0.72666
623.786,67.2912,-3.20809,0.06944623,0.72602
624.486,67.36111,-3.2094,0.07317674,0.72539
625.186,67.43095,-3.2094,0.07115664,0.72476
625.886,67.50116,-3.20927,0.0755862,0.72412
626.586,67.57144,-3.21234,0.07373225,0.72349
627.286,67.6416,-3.21105,0.07184156,0.72286
627.986,67.7114,-3.21105,0.07470345,0.72222
628.686,67.7816,-3.21238,0.07641575,0.72159
629.386,67.85167,-3.21236,0.07644012,0.72095
630.086,67.92195,-3.21308,0.07515841,0.72031
630.786,67.99181,-3.21236,0.07499927,0.71968
631.486,68.06185,-3.21236,0.07607539,0.71904
632.186,68.13178,-3.21236,0.07590078,0.71841
632.886,68.2017,-3.21106,0.07546457,0.71777
633.586,68.27104,-3.21241,0.07254266,0.71713
634.286,68.34094,-3.21233,0.0747197,0.71649
634.986,68.41108,-3.2124,0.07560251,0.71585
635.686,68.48181,-3.21236,0.07305247,0.71522
636.386,68.55216,-3.21236,0.07433595,0.71458
637.086,68.6221,-3.21233,0.07233735,0.71394
637.786,68.69227,-3.21368,0.0731639,0.7133
638.486,68.7624,-3.21368,0.07366055,0.71266
639.186,68.8327,-3.21304,0.07338126,0.71202
639.886,68.9029,-3.21302,0.07203871,0.71138
640.586,68.97319,-3.21433,0.07042618,0.71074
641.286,69.0433,-3.21438,0.07058718,0.7101
641.986,69.11349,-3.21555,0.07195139,0.70945
642.686,69.1837,-3.21398,0.07094989,0.70881
643.386,69.2542,-3.21368,0.06965204,0.70817
644.086,69.3246,-3.21368,0.06941316,0.70753
644.786,69.39499,-3.21497,0.06644992,0.70689
645.486,69.46525,-3.21369,0.06332461,0.70624
646.186,69.5351,-3.21369,0.0644117,0.7056
646.886,69.60516,-3.21313,0.06258127,0.70496
647.586,69.67527,-3.21303,0.0620113,0.70431
648.286,69.74543,-3.21237,0.06208244,0.70367
648.986,69.8156,-3.21299,0.05996262,0.70302
649.686,69.88563,-3.21501,0.0629622,0.70238
650.386,69.9559,-3.21632,0.06264048,0.70173
651.086,70.026,-3.21622,0.06037895,0.70109
651.786,70.09621,-3.21616,0.06057962,0.70044
652.486,70.16645,-3.21632,0.06120543,0.6998
653.186,70.23644,-3.21632,0.05864607,0.69915
653.886,70.3065,-3.21632,0.05864117,0.6985
654.586,70.3766,-3.215,0.05844264,0.69786
655.286,70.44675,-3.215,0.06092444,0.69721
655.986,70.51674,-3.215,0.05794111,0.69656
656.686,70.587,-3.21632,0.05609338,0.69591
657.386,70.65724,-3.21632,0.05711781,0.69527
658.086,70.72746,-3.21731,0.05450632,0.69462
658.786,70.79759,-3.21729,0.05168856,0.69397
659.486,70.86787,-3.21632,0.05492003,0.69332
660.186,70.93831,-3.2163,0.05141487,0.69267
660.886,71.00859,-3.21764,0.05564248,0.69202
661.586,71.07889,-3.2173,0.05558191,0.69137
662.286,71.1493,-3.21993,0.05646112,0.69072
662.986,71.21975,-3.22027,0.05733451,0.69007
663.686,71.29029,-3.22159,0.05695313,0.68942
664.386,71.3608,-3.22158,0.05798706,0.68877
665.086,71.4311,-3.22107,0.05365762,0.68812
665.786,71.5014,-3.22029,0.05683328,0.68747
666.486,71.5716,-3.21994,0.05538006,0.68682
667.186,71.64195,-3.22082,0.05671606,0.68616
667.886,71.71244,-3.21891,0.05445781,0.68551
668.586,71.7829,-3.21875,0.05418924,0.68486
669.286,71.85325,-3.2193,0.05471527,0.68421
669.986,71.92373,-3.2206,0.05449184,0.68355
670.686,71.99384,-3.2206,0.056237,0.6829
671.386,72.06424,-3.21927,0.05338128,0.68225
672.086,72.13444,-3.21632,0.05506859,0.68159
672.786,72.2051,-3.2212,0.05458227,0.68094
673.486,72.27547,-3.22278,0.05334296,0.68028
674.186,72.34575,-3.22247,0.05612801,0.67963
674.886,72.41583,-3.22378,0.05357736,0.67897
675.586,72.48648,-3.22379,0.05087606,0.67832
676.286,72.55719,-3.22379,0.05193187,0.67766
676.986,72.628,-3.22378,0.04923772,0.67701
677.686,72.6983,-3.22225,0.04984979,0.67635
678.386,72.76871,-3.22357,0.0529248,0.6757
679.086,72.83895,-3.22325,0.0508257,0.67504
679.786,72.90911,-3.22324,0.0491603,0.67438
680.486,72.97935,-3.22388,0.05089244,0.67373
681.186,73.04974,-3.22324,0.0515203,0.67307
681.886,73.12009,-3.22226,0.05036525,0.67241
682.586,73.19044,-3.22302,0.04960322,0.67175
683.286,73.26066,-3.22357,0.04877714,0.6711
683.986,73.33109,-3.22325,0.04835677,0.67044
684.686,73.4015,-3.22409,0.04626786,0.66978
685.386,73.47189,-3.2246,0.04744763,0.66912
686.086,73.5421,-3.22456,0.05016176,0.66846
686.786,73.61244,-3.22452,0.04908875,0.6678
687.486,73.6828,-3.22392,0.05156929,0.66714
688.186,73.75327,-3.22389,0.04726106,0.66648
688.886,73.8234,-3.22389,0.04742489,0.66582
689.586,73.89381,-3.22323,0.04984392,0.66516
690.286,73.96426,-3.22323,0.04887212,0.6645
690.986,74.03487,-3.22323,0.0475684,0.66384
691.686,74.10549,-3.22257,0.04730619,0.66318
692.386,74.17595,-3.22422,0.04964623,0.66252
693.086,74.2465,-3.22663,0.05504559,0.66186
693.786,74.317,-3.22664,0.04974557,0.6612
694.486,74.38775,-3.22532,0.04904131,0.66054
695.186,74.45833,-3.22665,0.04899313,0.65988
695.886,74.52883,-3.22794,0.04947921,0.65921
696.586,74.5993,-3.22796,0.04662815,0.65855
697.286,74.66991,-3.22697,0.0463385,0.65789
697.986,74.74047,-3.22828,0.04783347,0.65723
698.686,74.81079,-3.22926,0.04995009,0.65656
699.386,74.8811,-3.22934,0.04971527,0.6559
700.086,74.95143,-3.22927,0.05118491,0.65524
700.786,75.02194,-3.22927,0.052161,0.65457
701.486,75.09244,-3.22919,0.05065133,0.65391
702.186,75.163,-3.2279,0.05250637,0.65325
702.886,75.2334,-3.22607,0.05010069,0.65258
703.586,75.30368,-3.22638,0.05046823,0.65192
704.286,75.3741,-3.22834,0.05376343,0.65125
704.986,75.44434,-3.22697,0.04791872,0.65059
705.686,75.51467,-3.22697,0.04711056,0.64992
706.386,75.58503,-3.22739,0.04889348,0.64926
707.086,75.65567,-3.22862,0.04919118,0.64859
707.786,75.72604,-3.22862,0.05107169,0.64793
708.486,75.79642,-3.22861,0.05183483,0.64726
709.186,75.8668,-3.23003,0.05067083,0.6466
709.886,75.93754,-3.22862,0.04996473,0.64593
710.586,76.00803,-3.22862,0.05155797,0.64526
711.286,76.07874,-3.22993,0.0518189,0.6446
711.986,76.1493,-3.22993,0.05031712,0.64393
712.686,76.22005,-3.23166,0.05278813,0.64326
713.386,76.29061,-3.23127,0.0517859,0.6426
714.086,76.36094,-3.23026,0.05664207,0.64193
714.786,76.43133,-3.23125,0.05387891,0.64126
715.486,76.5018,-3.23157,0.05731157,0.6406
716.186,76.5724,-3.23289,0.0622296,0.63993
716.886,76.64304,-3.2341,0.05892865,0.63926
717.586,76.7136,-3.23349,0.05845796,0.63859
718.286,76.78438,-3.23229,0.0541372,0.63792
718.986,76.85481,-3.23126,0.05492663,0.63725
719.686,76.92543,-3.22894,0.05403071,0.63659
720.386,76.9958,-3.23026,0.05447475,0.63592
721.086,77.0664,-3.23026,0.05331025,0.63525
721.786,77.13688,-3.23026,0.05405543,0.63458
722.486,77.2077,-3.23026,0.0548879,0.63391
723.186,77.2783,-3.23026,0.05492273,0.63324
723.886,77.34877,-3.23089,0.05530435,0.63257
724.586,77.4192,-3.2329,0.05604637,0.6319
725.286,77.48983,-3.23256,0.05637714,0.63123
725.986,77.5603,-3.23299,0.0551494,0.63056
726.686,77.631,-3.23323,0.05509654,0.62989
727.386,77.70166,-3.23322,0.05593749,0.62922
728.086,77.7726,-3.23324,0.05324929,0.62855
728.786,77.8432,-3.23454,0.05235288,0.62788
729.486,77.9139,-3.23588,0.05241122,0.62721
730.186,77.98465,-3.2372,0.05013614,0.62654
730.886,78.05534,-3.23587,0.05357959,0.62587
731.586,78.12623,-3.23683,0.05116775,0.6252
732.286,78.19705,-3.23587,0.05016487,0.62452
732.986,78.26783,-3.23586,0.05254231,0.62385
733.686,78.33815,-3.23717,0.05041835,0.62318
734.386,78.40871,-3.2365,0.04750801,0.62251
735.086,78.4795,-3.23718,0.04756618,0.62184
735.786,78.5504,-3.23718,0.04832027,0.62117
736.486,78.62099,-3.23799,0.04850476,0.62049
737.186,78.69161,-3.23833,0.04938916,0.61982
737.886,78.76231,-3.23689,0.04780815,0.61915
738.586,78.833,-3.23619,0.04399334,0.61848
739.286,78.90361,-3.23619,0.04192369,0.6178
739.986,78.9744,-3.23619,0.04159641,0.61713
740.686,79.04522,-3.23621,0.03914148,0.61646
741.386,79.11588,-3.23849,0.03868158,0.61578
742.086,79.1861,-3.23956,0.04139886,0.61511
742.786,79.2567,-3.23946,0.04268014,0.61444
743.486,79.32746,-3.23977,0.03794943,0.61376
744.186,79.39829,-3.23846,0.04003456,0.61309
744.886,79.46903,-3.23981,0.04121617,0.61242
745.586,79.53966,-3.23981,0.0421596,0.61174
746.286,79.61025,-3.24017,0.04454617,0.61107
746.986,79.68075,-3.24077,0.04608047,0.6104
747.686,79.75118,-3.24079,0.04692438,0.60972
748.386,79.8218,-3.23953,0.04313331,0.60905
749.086,79.8926,-3.23816,0.04440649,0.60837
749.786,79.9634,-3.23894,0.0420457,0.6077
750.486,80.03424,-3.24047,0.04355899,0.60702
751.186,80.10461,-3.24047,0.04664646,0.60635
751.886,80.17527,-3.24079,0.04266041,0.60567
752.586,80.24609,-3.24053,0.04458571,0.605
753.286,80.31726,-3.24081,0.04535679,0.60432
753.986,80.38848,-3.23948,0.04575332,0.60365
754.686,80.45958,-3.24151,0.04464027,0.60297
755.386,80.53066,-3.24342,0.04303568,0.6023
756.086,80.60158,-3.24212,0.04339393,0.60162
756.786,80.67251,-3.2411,0.04328965,0.60095
757.486,80.74355,-3.23981,0.04416899,0.60027
758.186,80.8146,-3.2398,0.04236215,0.5996
758.886,80.8854,-3.24112,0.04145426,0.59892
759.586,80.9565,-3.24156,0.03949527,0.59825
760.286,81.0275,-3.24388,0.04136611,0.59757
760.986,81.09858,-3.24387,0.03856638,0.59689
761.686,81.1694,-3.24387,0.03790309,0.59622
762.386,81.2403,-3.24519,0.0407692,0.59554
763.086,81.31126,-3.24289,0.03747656,0.59486
763.786,81.38225,-3.24429,0.04277446,0.59419
764.486,81.45331,-3.24457,0.0403222,0.59351
765.186,81.52431,-3.24552,0.03822088,0.59284
765.886,81.59528,-3.24426,0.04093544,0.59216
766.586,81.66631,-3.24291,0.04201307,0.59148
767.286,81.7371,-3.2442,0.039886,0.59081
767.986,81.808,-3.2442,0.03974516,0.59013
768.686,81.87884,-3.24561,0.04187369,0.58945
769.386,81.94986,-3.2469,0.03907119,0.58878
770.086,82.02079,-3.24563,0.03825907,0.5881
770.786,82.0916,-3.24649,0.03693136,0.58742
771.486,82.16244,-3.24695,0.0347416,0.58674
772.186,82.2333,-3.24694,0.03548052,0.58607
772.886,82.30411,-3.24754,0.036266,0.58539
773.586,82.37477,-3.24791,0.03740696,0.58471
774.286,82.44513,-3.24992,0.03776349,0.58404
774.986,82.51584,-3.24992,0.04145213,0.58336
775.686,82.58658,-3.24976,0.0385053,0.58268
776.386,82.65734,-3.24893,0.03952093,0.582
777.086,82.72808,-3.2509,0.03428911,0.58133
777.786,82.7989,-3.2496,0.03244399,0.58065
778.486,82.86992,-3.24958,0.03434061,0.57997
779.186,82.9406,-3.24958,0.03273914,0.57929
779.886,83.0112,-3.24885,0.02766132,0.57861
780.586,83.08193,-3.24826,0.02608536,0.57794
781.286,83.1528,-3.24828,0.02751131,0.57726
781.986,83.22362,-3.24958,0.0261157,0.57658
782.686,83.29425,-3.25005,0.02495159,0.5759
783.386,83.36484,-3.24991,0.02821612,0.57523
784.086,83.43542,-3.25127,0.02589517,0.57455
784.786,83.5058,-3.25123,0.02455868,0.57387
785.486,83.57632,-3.25121,0.0278981,0.57319
786.186,83.64686,-3.25125,0.02798987,0.57251
786.886,83.71757,-3.25124,0.02584868,0.57184
787.586,83.78832,-3.25123,0.02895513,0.57116
788.286,83.8588,-3.25122,0.02802565,0.57048
788.986,83.92955,-3.25256,0.02792386,0.5698
789.686,83.99981,-3.25255,0.03045751,0.56912
790.386,84.07085,-3.25255,0.03271993,0.56845
791.086,84.14163,-3.25118,0.02780218,0.56777
791.786,84.2128,-3.25255,0.02571658,0.56709
792.486,84.28369,-3.25126,0.025738,0.56641
793.186,84.35476,-3.25153,0.02599862,0.56573
793.886,84.426,-3.25267,0.02176357,0.56505
794.586,84.49716,-3.25386,0.02476722,0.56438
795.286,84.5685,-3.25516,0.02452237,0.5637
795.986,84.63969,-3.25518,0.02652922,0.56302
796.686,84.71105,-3.25518,0.02160729,0.56234
797.386,84.7821,-3.25649,0.02354234,0.56166
798.086,84.85328,-3.25518,0.02244143,0.56098
798.786,84.92449,-3.25518,0.01995592,0.56031
799.486,84.99619,-3.2542,0.01847914,0.55963