File: 01_Data/Rayon_Bamboo_Pillowcase/STA/N2/10K_min/Rayon_Bamboo_Pillowcase_STA_N2_10KData_220520_R2.csv
##Temp./Â°C,Time/min,Mass loss(subtr.2)/mg,DSC(subtr.2)/(mW/mg),Sensit./(uV/mW)
49.695,10.01,-0.00341,0.02210022,1.07018
50.395,10.78112,-0.004110065,0.06109324,1.06999
51.095,10.98126,-0.004824059,0.09150341,1.0698
51.795,11.13342,-0.005011692,0.1144,1.0696
52.495,11.26222,-0.00456301,0.132,1.06941
53.195,11.377,-0.004101044,0.15341,1.06921
53.895,11.48281,-0.004104087,0.16781,1.06902
54.595,11.58254,-0.00429827,0.18203,1.06882
55.295,11.67718,-0.00425135,0.19458,1.06863
55.995,11.7683,-0.003011844,0.20319,1.06843
56.695,11.85652,-0.00565385,0.21386,1.06823
57.395,11.94174,-0.00558374,0.22275,1.06804
58.095,12.0253,-0.004975523,0.22954,1.06784
58.795,12.1084,-0.004440263,0.23631,1.06764
59.495,12.18999,-0.004950552,0.24355,1.06744
60.195,12.2706,-0.004298415,0.24878,1.06724
60.895,12.3501,-0.004289839,0.25633,1.06704
61.595,12.42886,-0.004833927,0.26445,1.06684
62.295,12.50705,-0.006100841,0.26978,1.06664
62.995,12.5845,-0.006605806,0.27241,1.06644
63.695,12.66164,-0.006987298,0.27932,1.06624
64.395,12.73833,-0.005669373,0.28401,1.06604
65.095,12.8147,-0.005549486,0.2899,1.06583
65.795,12.8909,-0.005611958,0.29525,1.06563
66.495,12.967,-0.00694624,0.29784,1.06542
67.195,13.04285,-0.006944029,0.30241,1.06522
67.895,13.11849,-0.007367695,0.30946,1.06502
68.595,13.19377,-0.00726977,0.31302,1.06481
69.295,13.2689,-0.008565096,0.31752,1.0646
69.995,13.3433,-0.009611517,0.32286,1.0644
70.695,13.4178,-0.01032998,0.32782,1.06419
71.395,13.49223,-0.009727777,0.33293,1.06398
72.095,13.56652,-0.0108922,0.33819,1.06377
72.795,13.6401,-0.00956001,0.34398,1.06357
73.495,13.7142,-0.009931133,0.3471,1.06336
74.195,13.78747,-0.01042798,0.35298,1.06315
74.895,13.86156,-0.01086945,0.36067,1.06294
75.595,13.9345,-0.01218818,0.36501,1.06273
76.295,14.0082,-0.01219,0.36904,1.06252
76.995,14.08061,-0.01219,0.3742,1.0623
77.695,14.15373,-0.01360849,0.37949,1.06209
78.395,14.2265,-0.01451125,0.38463,1.06188
79.095,14.29923,-0.01449999,0.38882,1.06167
79.795,14.37142,-0.01485256,0.39367,1.06145
80.495,14.4437,-0.01614901,0.39696,1.06124
81.195,14.5158,-0.01745631,0.40083,1.06102
81.895,14.5878,-0.01745862,0.40411,1.06081
82.595,14.65965,-0.01744142,0.40781,1.06059
83.295,14.73126,-0.0191974,0.41145,1.06038
83.995,14.8027,-0.02141847,0.4164,1.06016
84.695,14.8736,-0.02141734,0.421,1.05994
85.395,14.9441,-0.0227326,0.42279,1.05972
86.095,15.01414,-0.02206496,0.42765,1.05951
86.795,15.08501,-0.02206963,0.43012,1.05929
87.495,15.1565,-0.02468211,0.43202,1.05907
88.195,15.22773,-0.0247116,0.43603,1.05885
88.895,15.2984,-0.02602947,0.43857,1.05863
89.595,15.3687,-0.02603113,0.44146,1.05841
90.295,15.439,-0.02734942,0.44347,1.05818
90.995,15.5091,-0.02866093,0.44556,1.05796
91.695,15.5791,-0.02929107,0.44775,1.05774
92.395,15.64887,-0.02997029,0.44921,1.05752
93.095,15.7184,-0.03226193,0.4518,1.05729
93.795,15.7878,-0.03261118,0.45257,1.05707
94.495,15.8574,-0.03381695,0.45231,1.05684
95.195,15.9269,-0.03394571,0.45395,1.05662
95.895,15.99632,-0.03491927,0.45365,1.05639
96.595,16.0656,-0.03624626,0.45247,1.05617
97.295,16.13457,-0.03624,0.45341,1.05594
97.995,16.2037,-0.03624,0.45355,1.05571
98.695,16.27265,-0.03624003,0.45345,1.05549
99.395,16.34157,-0.03706153,0.45202,1.05526
100.095,16.4104,-0.03922262,0.452,1.05503
100.795,16.47936,-0.03919926,0.4524,1.0548
101.495,16.5485,-0.03921567,0.45197,1.05457
102.195,16.61739,-0.04050082,0.44891,1.05434
102.895,16.6863,-0.04052,0.44888,1.05411
103.595,16.75481,-0.04052,0.44758,1.05388
104.295,16.8234,-0.04051746,0.44549,1.05365
104.995,16.89199,-0.04184577,0.44264,1.05341
105.695,16.96076,-0.04248981,0.44187,1.05318
106.395,17.0292,-0.04376149,0.44045,1.05295
107.095,17.0979,-0.04447209,0.43906,1.05271
107.795,17.1664,-0.0444695,0.43479,1.05248
108.495,17.23522,-0.0457865,0.43332,1.05224
109.195,17.30367,-0.04579221,0.43068,1.05201
109.895,17.3723,-0.04674173,0.43056,1.05177
110.595,17.44083,-0.0477628,0.42817,1.05154
111.295,17.50933,-0.04842,0.42569,1.0513
111.995,17.57784,-0.04845853,0.42346,1.05106
112.695,17.64626,-0.04836769,0.42227,1.05082
113.395,17.71464,-0.04974026,0.42019,1.05058
114.095,17.78259,-0.04974004,0.41852,1.05034
114.795,17.85064,-0.05045343,0.41484,1.0501
115.495,17.9189,-0.05104999,0.41313,1.04986
116.195,17.98723,-0.05104951,0.41133,1.04962
116.895,18.05546,-0.05237596,0.40954,1.04938
117.595,18.12358,-0.05119813,0.4078,1.04914
118.295,18.19179,-0.0523699,0.40456,1.0489
118.995,18.2595,-0.05236999,0.40308,1.04865
119.695,18.32753,-0.05285764,0.40148,1.04841
120.395,18.39539,-0.05426139,0.39826,1.04817
121.095,18.46349,-0.05337383,0.39649,1.04792
121.795,18.53131,-0.05336046,0.39505,1.04768
122.495,18.5989,-0.05468139,0.39312,1.04743
123.195,18.6666,-0.05468,0.39175,1.04719
123.895,18.73398,-0.05468001,0.38961,1.04694
124.595,18.80194,-0.05464276,0.38931,1.04669
125.295,18.86968,-0.05598999,0.38823,1.04644
125.995,18.9376,-0.05599,0.38593,1.0462
126.695,19.00522,-0.05599,0.38578,1.04595
127.395,19.07268,-0.05599054,0.38421,1.0457
128.095,19.14031,-0.05730749,0.38405,1.04545
128.795,19.2076,-0.05655513,0.38091,1.0452
129.495,19.27519,-0.05599019,0.38327,1.04495
130.195,19.34293,-0.05894004,0.38071,1.04469
130.895,19.4105,-0.05738889,0.38058,1.04444
131.595,19.47814,-0.05610527,0.38113,1.04419
132.295,19.54563,-0.05478955,0.38072,1.04394
132.995,19.61358,-0.05495951,0.38175,1.04368
133.695,19.68117,-0.05742379,0.38289,1.04343
134.395,19.7489,-0.05711665,0.38228,1.04317
135.095,19.81662,-0.05702893,0.38243,1.04292
135.795,19.88438,-0.05742972,0.38309,1.04266
136.495,19.95186,-0.05743,0.38465,1.04241
137.195,20.01913,-0.05742691,0.38337,1.04215
137.895,20.08667,-0.05874033,0.38344,1.04189
138.595,20.15409,-0.05874006,0.38529,1.04163
139.295,20.2216,-0.05953473,0.38554,1.04138
139.995,20.28929,-0.06005999,0.3875,1.04112
140.695,20.3569,-0.06005999,0.38731,1.04086
141.395,20.42463,-0.06014601,0.38796,1.0406
142.095,20.49219,-0.05874009,0.38833,1.04034
142.795,20.55935,-0.05718372,0.38947,1.04007
143.495,20.6264,-0.05539453,0.39164,1.03981
144.195,20.69355,-0.06410041,0.3921,1.03955
144.895,20.76085,-0.06261572,0.3927,1.03929
145.595,20.82825,-0.05962537,0.39371,1.03902
146.295,20.89566,-0.05963386,0.39621,1.03876
146.995,20.96302,-0.06093905,0.39435,1.0385
147.695,21.03032,-0.06094,0.39574,1.03823
148.395,21.09757,-0.06094,0.39515,1.03796
149.095,21.1646,-0.06093836,0.39644,1.0377
149.795,21.23156,-0.05962134,0.39717,1.03743
150.495,21.2986,-0.05962001,0.39693,1.03716
151.195,21.36574,-0.05950373,0.39996,1.0369
151.895,21.43282,-0.06250091,0.39847,1.03663
152.595,21.49986,-0.05983359,0.39919,1.03636
153.295,21.5667,-0.06114101,0.40119,1.03609
153.995,21.63383,-0.06255509,0.40112,1.03582
154.695,21.70111,-0.06148017,0.40033,1.03555
155.395,21.76802,-0.06148,0.40129,1.03528
156.095,21.83503,-0.06148,0.40208,1.03501
156.795,21.90192,-0.06148,0.40316,1.03474
157.495,21.969,-0.06148,0.40278,1.03446
158.195,22.0361,-0.06147059,0.4048,1.03419
158.895,22.1032,-0.06117703,0.40568,1.03392
159.595,22.17013,-0.06246999,0.40502,1.03364
160.295,22.2371,-0.06247,0.40434,1.03337
160.995,22.30405,-0.06247011,0.40524,1.03309
161.695,22.37125,-0.06355374,0.40566,1.03281
162.395,22.4384,-0.06248257,0.40728,1.03254
163.095,22.50541,-0.06115252,0.40709,1.03226
163.795,22.57229,-0.06248044,0.40722,1.03198
164.495,22.63916,-0.06274501,0.4073,1.03171
165.195,22.70607,-0.06378799,0.40749,1.03143
165.895,22.77271,-0.06248146,0.40706,1.03115
166.595,22.8395,-0.06381492,0.40846,1.03087
167.295,22.90588,-0.06246298,0.40919,1.03059
167.995,22.97308,-0.06378934,0.40843,1.03031
168.695,23.0399,-0.06246992,0.40998,1.03002
169.395,23.1073,-0.06247,0.40893,1.02974
170.095,23.17418,-0.0625163,0.41003,1.02946
170.795,23.241,-0.06378993,0.41169,1.02918
171.495,23.3079,-0.06379,0.4125,1.02889
172.195,23.37475,-0.06377721,0.41135,1.02861
172.895,23.44161,-0.06247071,0.41274,1.02832
173.595,23.50855,-0.06247,0.41416,1.02804
174.295,23.57539,-0.06247013,0.41262,1.02775
174.995,23.64227,-0.06361571,0.41303,1.02747
175.695,23.7089,-0.06379,0.41499,1.02718
176.395,23.77582,-0.0637905,0.41472,1.02689
177.095,23.84272,-0.06247791,0.41748,1.0266
177.795,23.90955,-0.06379004,0.41606,1.02631
178.495,23.97627,-0.06379,0.41823,1.02602
179.195,24.04245,-0.06379002,0.41781,1.02573
179.895,24.10911,-0.06383386,0.41972,1.02544
180.595,24.1758,-0.06341807,0.41862,1.02515
181.295,24.24295,-0.0651601,0.4195,1.02486
181.995,24.3097,-0.0648032,0.42071,1.02457
182.695,24.3764,-0.06380786,0.42057,1.02428
183.395,24.44291,-0.06379555,0.42283,1.02398
184.095,24.50948,-0.06380628,0.4218,1.02369
184.795,24.57625,-0.06412959,0.42216,1.0234
185.495,24.64311,-0.06375772,0.42515,1.0231
186.195,24.7098,-0.06248051,0.42483,1.02281
186.895,24.77639,-0.06291085,0.42591,1.02251
187.595,24.8428,-0.06309064,0.42823,1.02221
188.295,24.9093,-0.06379004,0.425,1.02192
188.995,24.97566,-0.06379,0.42744,1.02162
189.695,25.04224,-0.06379,0.42478,1.02132
190.395,25.1088,-0.06378894,0.42707,1.02102
191.095,25.17557,-0.06252245,0.42897,1.02072
191.795,25.24226,-0.06133799,0.4296,1.02042
192.495,25.30878,-0.06400201,0.42949,1.02012
193.195,25.37461,-0.06432716,0.42917,1.01982
193.895,25.4412,-0.06302061,0.43062,1.01952
194.595,25.50776,-0.06438299,0.43218,1.01922
195.295,25.5749,-0.06442763,0.43143,1.01891
195.995,25.6413,-0.06301998,0.43326,1.01861
196.695,25.70758,-0.06302,0.4323,1.01831
197.395,25.77376,-0.06301809,0.43317,1.018
198.095,25.84059,-0.06335144,0.4348,1.0177
198.795,25.90736,-0.06434062,0.4354,1.01739
199.495,25.9744,-0.06433988,0.43744,1.01708
200.195,26.04085,-0.06316205,0.43656,1.01678
200.895,26.10734,-0.06352661,0.43803,1.01647
201.595,26.17387,-0.06412052,0.43738,1.01616
202.295,26.2404,-0.06445062,0.43952,1.01585
202.995,26.30691,-0.06445013,0.44061,1.01555
203.695,26.37364,-0.06574368,0.44175,1.01524
204.395,26.44026,-0.06577,0.44161,1.01493
205.095,26.5068,-0.06577,0.44322,1.01461
205.795,26.57343,-0.06576931,0.44268,1.0143
206.495,26.64009,-0.06642072,0.44562,1.01399
207.195,26.70676,-0.06627289,0.44539,1.01368
207.895,26.77327,-0.06444957,0.44473,1.01337
208.595,26.8394,-0.06542391,0.44637,1.01305
209.295,26.90585,-0.06683015,0.44845,1.01274
209.995,26.9723,-0.06674999,0.44986,1.01242
210.695,27.0391,-0.06675109,0.44891,1.01211
211.395,27.1057,-0.0664199,0.45017,1.01179
212.095,27.1722,-0.06607239,0.45076,1.01148
212.795,27.23863,-0.06642004,0.45103,1.01116
213.495,27.30534,-0.06642,0.45292,1.01084
214.195,27.37203,-0.06642,0.45276,1.01052
214.895,27.4386,-0.06641999,0.45455,1.0102
215.595,27.50494,-0.06648377,0.45446,1.00989
216.295,27.5714,-0.06773991,0.45598,1.00957
216.995,27.6379,-0.06774,0.45588,1.00924
217.695,27.7044,-0.06774,0.45569,1.00892
218.395,27.771,-0.06774,0.45806,1.0086
219.095,27.8373,-0.06774,0.45823,1.00828
219.795,27.9036,-0.06852814,0.4598,1.00796
220.495,27.9701,-0.07081236,0.45922,1.00763
221.195,28.0366,-0.06935511,0.46048,1.00731
221.895,28.10323,-0.06939,0.46094,1.00699
222.595,28.16975,-0.06939,0.45986,1.00666
223.295,28.2364,-0.06939,0.46256,1.00633
223.995,28.3033,-0.06939001,0.46204,1.00601
224.695,28.3699,-0.06971514,0.46314,1.00568
225.395,28.43621,-0.0707099,0.46521,1.00535
226.095,28.50218,-0.07072134,0.46458,1.00503
226.795,28.56847,-0.07203014,0.46522,1.0047
227.495,28.63525,-0.07213485,0.46468,1.00437
228.195,28.702,-0.07361894,0.46619,1.00404
228.895,28.76871,-0.07222614,0.46811,1.00371
229.595,28.8352,-0.07214002,0.46782,1.00338
230.295,28.9018,-0.07249753,0.46989,1.00305
230.995,28.96858,-0.07378161,0.4699,1.00271
231.695,29.03523,-0.07370945,0.47015,1.00238
232.395,29.10187,-0.07476942,0.47144,1.00205
233.095,29.16872,-0.07478549,0.47087,1.00172
233.795,29.23532,-0.07607988,0.47191,1.00138
234.495,29.30183,-0.07607933,0.47259,1.00105
235.195,29.36823,-0.07792863,0.47282,1.00071
235.895,29.4349,-0.0780601,0.47295,1.00037
236.595,29.5015,-0.07884218,0.47604,1.00004
237.295,29.56816,-0.08069212,0.47491,0.9997
237.995,29.63468,-0.08068375,0.47738,0.99936
238.695,29.7012,-0.08201032,0.47587,0.99902
239.395,29.76783,-0.08284461,0.47666,0.99869
240.095,29.8345,-0.08399145,0.47708,0.99835
240.795,29.90118,-0.0853021,0.47909,0.99801
241.495,29.9679,-0.08528858,0.4778,0.99766
242.195,30.03459,-0.08671417,0.47813,0.99732
242.895,30.1011,-0.08924634,0.47811,0.99698
243.595,30.1678,-0.09062302,0.47976,0.99664
244.295,30.23423,-0.09095445,0.48168,0.9963
244.995,30.3007,-0.09191858,0.48142,0.99595
245.695,30.36695,-0.09613011,0.483,0.99561
246.395,30.4337,-0.09706995,0.48552,0.99526
247.095,30.5005,-0.09740336,0.48407,0.99492
247.795,30.56748,-0.09871162,0.48771,0.99457
248.495,30.63407,-0.10005,0.48938,0.99423
249.195,30.70058,-0.10277,0.49403,0.99388
249.895,30.7666,-0.10411,0.50386,0.99353
250.595,30.83315,-0.10826,0.51164,0.99318
251.295,30.89965,-0.11064,0.51444,0.99283
251.995,30.9661,-0.11302,0.52027,0.99248
252.695,31.03244,-0.11579,0.52469,0.99213
253.395,31.0992,-0.1182,0.53036,0.99178
254.095,31.1662,-0.12115,0.53964,0.99143
254.795,31.23313,-0.12446,0.55037,0.99108
255.495,31.2997,-0.12923,0.56135,0.99073
256.195,31.36644,-0.13505,0.57773,0.99037
256.895,31.4327,-0.13857,0.5922,0.99002
257.595,31.4992,-0.14226,0.6113,0.98967
258.295,31.5658,-0.14773,0.62888,0.98931
258.995,31.63291,-0.15428,0.65112,0.98896
259.695,31.7001,-0.15975,0.66912,0.9886
260.395,31.76683,-0.16682,0.68968,0.98824
261.095,31.83366,-0.17435,0.71203,0.98789
261.795,31.9004,-0.18042,0.73078,0.98753
262.495,31.96755,-0.18897,0.75172,0.98717
263.195,32.03432,-0.19823,0.76737,0.98681
263.895,32.10137,-0.20639,0.78177,0.98645
264.595,32.16832,-0.21534,0.79453,0.98609
265.295,32.2354,-0.22595,0.80674,0.98573
265.995,32.30219,-0.2357,0.81488,0.98537
266.695,32.3689,-0.24703,0.82155,0.98501
267.395,32.43557,-0.25791,0.82724,0.98465
268.095,32.5024,-0.27003,0.83151,0.98428
268.795,32.56953,-0.28245,0.83222,0.98392
269.495,32.63655,-0.29371,0.83323,0.98356
270.195,32.7036,-0.30669,0.8319,0.98319
270.895,32.77037,-0.31813,0.83257,0.98283
271.595,32.8371,-0.33187,0.83108,0.98246
272.295,32.90405,-0.34418,0.8273,0.98209
272.995,32.97078,-0.35821,0.82682,0.98173
273.695,33.03752,-0.37225,0.82528,0.98136
274.395,33.10433,-0.38653,0.82191,0.98099
275.095,33.17116,-0.39903,0.81843,0.98062
275.795,33.23766,-0.41313,0.81497,0.98025
276.495,33.30438,-0.42651,0.81443,0.97988
277.195,33.371,-0.44005,0.81174,0.97951
277.895,33.43829,-0.45436,0.80914,0.97914
278.595,33.5051,-0.47044,0.80641,0.97877
279.295,33.57212,-0.4849,0.80622,0.97839
279.995,33.63897,-0.49849,0.80512,0.97802
280.695,33.70584,-0.51442,0.80268,0.97765
281.395,33.77258,-0.53102,0.80211,0.97727
282.095,33.83893,-0.54496,0.80268,0.9769
282.795,33.90568,-0.55916,0.80067,0.97652
283.495,33.9724,-0.57718,0.80218,0.97615
284.195,34.0395,-0.59294,0.80089,0.97577
284.895,34.1064,-0.6091,0.80071,0.97539
285.595,34.1734,-0.62434,0.80029,0.97501
286.295,34.2404,-0.64179,0.80118,0.97464
286.995,34.30713,-0.6581,0.80261,0.97426
287.695,34.3739,-0.67595,0.80235,0.97388
288.395,34.4407,-0.69238,0.80287,0.9735
289.095,34.50764,-0.70701,0.80246,0.97312
289.795,34.5743,-0.72502,0.80669,0.97273
290.495,34.64018,-0.74285,0.80757,0.97235
291.195,34.70613,-0.7618,0.807,0.97197
291.895,34.77232,-0.77821,0.80902,0.97159
292.595,34.83948,-0.79778,0.80988,0.9712
293.295,34.9063,-0.81479,0.81027,0.97082
293.995,34.97322,-0.83379,0.81203,0.97043
294.695,35.03992,-0.85334,0.81344,0.97005
295.395,35.10693,-0.87099,0.81728,0.96966
296.095,35.17402,-0.89128,0.81708,0.96928
296.795,35.24115,-0.91114,0.81858,0.96889
297.495,35.30836,-0.93152,0.82076,0.9685
298.195,35.37546,-0.95102,0.82455,0.96811
298.895,35.4425,-0.97266,0.82811,0.96772
299.595,35.5096,-0.99339,0.82756,0.96733
300.295,35.5766,-1.0136,0.83077,0.96694
300.995,35.64354,-1.03653,0.83336,0.96655
301.695,35.7104,-1.05757,0.83603,0.96616
302.395,35.77737,-1.07788,0.83662,0.96577
303.095,35.84438,-1.10203,0.83735,0.96537
303.795,35.91153,-1.12465,0.83953,0.96498
304.495,35.97841,-1.14669,0.84281,0.96459
305.195,36.04537,-1.17109,0.84492,0.96419
305.895,36.1123,-1.19391,0.84546,0.9638
306.595,36.17953,-1.21656,0.85028,0.9634
307.295,36.24654,-1.24239,0.8496,0.96301
307.995,36.3134,-1.26654,0.85194,0.96261
308.695,36.38033,-1.28985,0.85474,0.96221
309.395,36.44748,-1.31652,0.85579,0.96181
310.095,36.51487,-1.34273,0.85698,0.96141
310.795,36.58184,-1.36708,0.85872,0.96101
311.495,36.64885,-1.39324,0.8591,0.96061
312.195,36.71581,-1.41847,0.86042,0.96021
312.895,36.783,-1.44479,0.85985,0.95981
313.595,36.85029,-1.47285,0.86004,0.95941
314.295,36.9176,-1.50097,0.86009,0.95901
314.995,36.98494,-1.52798,0.86125,0.95861
315.695,37.05226,-1.55601,0.86053,0.9582
316.395,37.1195,-1.58483,0.85971,0.9578
317.095,37.1866,-1.60989,0.86211,0.95739
317.795,37.25357,-1.63872,0.86099,0.95699
318.495,37.3206,-1.66874,0.86329,0.95658
319.195,37.38759,-1.69586,0.86172,0.95618
319.895,37.45483,-1.72419,0.86006,0.95577
320.595,37.522,-1.75451,0.85897,0.95536
321.295,37.58937,-1.78192,0.85623,0.95495
321.995,37.6565,-1.81076,0.85127,0.95454
322.695,37.72359,-1.84198,0.84909,0.95413
323.395,37.7907,-1.87042,0.8465,0.95372
324.095,37.85792,-1.9001,0.84291,0.95331
324.795,37.92517,-1.92933,0.83957,0.9529
325.495,37.99187,-1.95725,0.83369,0.95249
326.195,38.059,-1.98633,0.82886,0.95208
326.895,38.12603,-2.01694,0.82305,0.95166
327.595,38.19343,-2.04677,0.81704,0.95125
328.295,38.26055,-2.07547,0.81165,0.95084
328.995,38.32772,-2.10564,0.80633,0.95042
329.695,38.3948,-2.13448,0.79755,0.95001
330.395,38.4619,-2.16156,0.78892,0.94959
331.095,38.52906,-2.19084,0.77881,0.94917
331.795,38.59641,-2.21873,0.7696,0.94876
332.495,38.66357,-2.24623,0.75886,0.94834
333.195,38.7309,-2.27374,0.74845,0.94792
333.895,38.79797,-2.30106,0.73408,0.9475
334.595,38.86499,-2.3271,0.71924,0.94708
335.295,38.9321,-2.35248,0.70463,0.94666
335.995,38.9994,-2.37791,0.68841,0.94624
336.695,39.0666,-2.40331,0.67236,0.94582
337.395,39.1337,-2.42773,0.65596,0.9454
338.095,39.20069,-2.45038,0.63651,0.94497
338.795,39.26787,-2.47185,0.61451,0.94455
339.495,39.33489,-2.49485,0.59633,0.94413
340.195,39.40197,-2.51586,0.57345,0.9437
340.895,39.46906,-2.53206,0.55174,0.94328
341.595,39.53602,-2.55007,0.53061,0.94285
342.295,39.60326,-2.56825,0.50776,0.94242
342.995,39.6704,-2.58461,0.48444,0.942
343.695,39.73765,-2.60067,0.46647,0.94157
344.395,39.80473,-2.61323,0.44753,0.94114
345.095,39.87202,-2.62639,0.43054,0.94071
345.795,39.93922,-2.63974,0.41273,0.94028
346.495,40.00656,-2.65106,0.39534,0.93985
347.195,40.07372,-2.65625,0.3822,0.93942
347.895,40.1409,-2.67075,0.37046,0.93899
348.595,40.20805,-2.67898,0.3569,0.93856
349.295,40.27515,-2.68694,0.34673,0.93813
349.995,40.34237,-2.69493,0.33898,0.9377
350.695,40.40905,-2.70309,0.32713,0.93726
351.395,40.4763,-2.70807,0.31993,0.93683
352.095,40.5436,-2.71546,0.31416,0.93639
352.795,40.61142,-2.72183,0.30606,0.93596
353.495,40.6791,-2.72783,0.29994,0.93552
354.195,40.74651,-2.73137,0.29282,0.93509
354.895,40.81365,-2.73709,0.28892,0.93465
355.595,40.88091,-2.74332,0.28642,0.93421
356.295,40.9482,-2.74795,0.28044,0.93377
356.995,41.01579,-2.75076,0.27958,0.93333
357.695,41.0831,-2.75399,0.27677,0.93289
358.395,41.15037,-2.75965,0.27347,0.93245
359.095,41.21765,-2.76182,0.27323,0.93201
359.795,41.28542,-2.76563,0.26973,0.93157
360.495,41.35283,-2.76919,0.26934,0.93113
361.195,41.42049,-2.77154,0.26686,0.93069
361.895,41.488,-2.77513,0.26657,0.93025
362.595,41.5556,-2.78004,0.26505,0.9298
363.295,41.62278,-2.78192,0.26411,0.92936
363.995,41.69039,-2.7848,0.263,0.92891
364.695,41.75813,-2.78657,0.26102,0.92847
365.395,41.82633,-2.78856,0.25888,0.92802
366.095,41.894,-2.79098,0.25606,0.92757
366.795,41.96156,-2.79481,0.25503,0.92713
367.495,42.0289,-2.79704,0.25425,0.92668
368.195,42.09625,-2.79864,0.25209,0.92623
368.895,42.16395,-2.80153,0.24905,0.92578
369.595,42.2317,-2.80564,0.2479,0.92533
370.295,42.2995,-2.80735,0.24765,0.92488
370.995,42.36703,-2.80849,0.24767,0.92443
371.695,42.4347,-2.81023,0.24558,0.92398
372.395,42.50226,-2.81239,0.24516,0.92353
373.095,42.57007,-2.81672,0.24381,0.92308
373.795,42.63811,-2.81932,0.24018,0.92262
374.495,42.706,-2.8208,0.24056,0.92217
375.195,42.77365,-2.82185,0.23922,0.92171
375.895,42.84145,-2.82474,0.23791,0.92126
376.595,42.90914,-2.82662,0.23727,0.9208
377.295,42.97696,-2.82931,0.23669,0.92035
377.995,43.04456,-2.83315,0.23809,0.91989
378.695,43.11233,-2.83459,0.23568,0.91943
379.395,43.18005,-2.83593,0.23267,0.91898
380.095,43.24797,-2.83585,0.23245,0.91852
380.795,43.3159,-2.84007,0.23234,0.91806
381.495,43.3841,-2.84178,0.23147,0.9176
382.195,43.45221,-2.84327,0.22758,0.91714
382.895,43.5204,-2.84548,0.22704,0.91668
383.595,43.58815,-2.84676,0.2281,0.91622
384.295,43.65598,-2.84908,0.22346,0.91575
384.995,43.72376,-2.85083,0.22485,0.91529
385.695,43.79159,-2.85332,0.22437,0.91483
386.395,43.8594,-2.85735,0.22327,0.91436
387.095,43.92743,-2.85865,0.22452,0.9139
387.795,43.99555,-2.85665,0.22485,0.91344
388.495,44.06391,-2.8592,0.22131,0.91297
389.195,44.1318,-2.86053,0.22273,0.9125
389.895,44.1997,-2.86412,0.22146,0.91204
390.595,44.2676,-2.86436,0.22129,0.91157
391.295,44.3354,-2.86531,0.22173,0.9111
391.995,44.4034,-2.86752,0.22002,0.91063
392.695,44.47112,-2.86994,0.22137,0.91016
393.395,44.53937,-2.87282,0.21863,0.90969
394.095,44.60712,-2.87414,0.21706,0.90922
394.795,44.67496,-2.87538,0.21668,0.90875
395.495,44.74261,-2.87678,0.21585,0.90828
396.195,44.8106,-2.87808,0.21629,0.90781
396.895,44.87865,-2.88073,0.21637,0.90734
397.595,44.94688,-2.88195,0.21698,0.90686
398.295,45.015,-2.88217,0.21885,0.90639
398.995,45.08334,-2.88435,0.2157,0.90592
399.695,45.15153,-2.88511,0.21511,0.90544
400.395,45.21983,-2.88894,0.21456,0.90496
401.095,45.28835,-2.89029,0.21383,0.90449
401.795,45.3568,-2.89248,0.2157,0.90401
402.495,45.4251,-2.89191,0.21633,0.90353
403.195,45.49309,-2.89349,0.21574,0.90306
403.895,45.56111,-2.89694,0.21338,0.90258
404.595,45.6291,-2.89853,0.21405,0.9021
405.295,45.69716,-2.89981,0.21405,0.90162
405.995,45.76506,-2.90114,0.21319,0.90114
406.695,45.83291,-2.90138,0.21393,0.90066
407.395,45.901,-2.90387,0.21455,0.90018
408.095,45.96927,-2.9052,0.21411,0.8997
408.795,46.03751,-2.90554,0.21454,0.89921
409.495,46.1057,-2.90738,0.21384,0.89873
410.195,46.1738,-2.90848,0.21512,0.89825
410.895,46.2419,-2.91102,0.21175,0.89776
411.595,46.31004,-2.91234,0.2147,0.89728
412.295,46.37822,-2.91447,0.21162,0.89679
412.995,46.44662,-2.91613,0.21037,0.8963
413.695,46.5148,-2.91654,0.21401,0.89582
414.395,46.58292,-2.91784,0.21275,0.89533
415.095,46.65084,-2.92038,0.21401,0.89484
415.795,46.71894,-2.92168,0.21472,0.89435
416.495,46.78709,-2.92299,0.21488,0.89387
417.195,46.85535,-2.92301,0.21513,0.89338
417.895,46.92345,-2.92431,0.21268,0.89289
418.595,46.9916,-2.92564,0.21464,0.8924
419.295,47.05959,-2.92695,0.2145,0.8919
419.995,47.12743,-2.92814,0.21244,0.89141
420.695,47.19526,-2.93092,0.21532,0.89092
421.395,47.26323,-2.93087,0.21545,0.89043
422.095,47.33121,-2.93221,0.21476,0.88993
422.795,47.39935,-2.93482,0.21633,0.88944
423.495,47.46764,-2.93616,0.21701,0.88894
424.195,47.5366,-2.9362,0.21635,0.88845
424.895,47.6053,-2.93749,0.21625,0.88795
425.595,47.674,-2.9388,0.21487,0.88746
426.295,47.7423,-2.94013,0.21668,0.88696
426.995,47.8106,-2.94244,0.21672,0.88646
427.695,47.87883,-2.94374,0.21443,0.88596
428.395,47.94696,-2.94633,0.21558,0.88546
429.095,48.0151,-2.94551,0.21747,0.88497
429.795,48.08338,-2.94685,0.21431,0.88447
430.495,48.1516,-2.94813,0.21642,0.88397
431.195,48.22005,-2.94945,0.2146,0.88346
431.895,48.28843,-2.95078,0.21664,0.88296
432.595,48.35689,-2.95249,0.21613,0.88246
433.295,48.4253,-2.9534,0.21742,0.88196
433.995,48.49364,-2.95436,0.21573,0.88145
434.695,48.562,-2.95585,0.21631,0.88095
435.395,48.63043,-2.95738,0.21448,0.88045
436.095,48.699,-2.95867,0.21545,0.87994
436.795,48.76763,-2.95998,0.21625,0.87944
437.495,48.83643,-2.96131,0.21705,0.87893
438.195,48.90495,-2.96256,0.21517,0.87842
438.895,48.97364,-2.96395,0.21666,0.87791
439.595,49.04221,-2.96534,0.21613,0.87741
440.295,49.11095,-2.96567,0.21423,0.8769
440.995,49.17946,-2.96625,0.21397,0.87639
441.695,49.24817,-2.96756,0.21454,0.87588
442.395,49.31687,-2.96894,0.2142,0.87537
443.095,49.3857,-2.97019,0.21537,0.87486
443.795,49.45425,-2.97153,0.21568,0.87435
444.495,49.52298,-2.97307,0.21716,0.87384
445.195,49.5914,-2.9742,0.2173,0.87332
445.895,49.65994,-2.97547,0.21351,0.87281
446.595,49.72838,-2.97679,0.21255,0.8723
447.295,49.79724,-2.9781,0.21444,0.87178
447.995,49.86619,-2.97909,0.21365,0.87127
448.695,49.93477,-2.98002,0.21503,0.87075
449.395,50.0034,-2.97942,0.21338,0.87024
450.095,50.0715,-2.98182,0.21174,0.86972
450.795,50.1402,-2.98348,0.21378,0.8692
451.495,50.2089,-2.98348,0.21254,0.86869
452.195,50.27789,-2.9848,0.21273,0.86817
452.895,50.34637,-2.9862,0.2132,0.86765
453.595,50.41503,-2.98755,0.21154,0.86713
454.295,50.4836,-2.98903,0.21076,0.86661
454.995,50.55237,-2.99019,0.21162,0.86609
455.695,50.62086,-2.99149,0.21182,0.86557
456.395,50.68929,-2.99281,0.20997,0.86505
457.095,50.75773,-2.99282,0.21152,0.86453
457.795,50.8258,-2.99413,0.20942,0.864
458.495,50.89431,-2.99545,0.20957,0.86348
459.195,50.96232,-2.99541,0.20976,0.86296
459.895,51.0313,-2.99688,0.2107,0.86243
460.595,51.09998,-2.99819,0.20912,0.86191
461.295,51.1691,-2.99951,0.21044,0.86138
461.995,51.23774,-3.00083,0.20949,0.86086
462.695,51.30628,-3.0025,0.20907,0.86033
463.395,51.3745,-3.00479,0.20934,0.85981
464.095,51.4427,-3.00566,0.20932,0.85928
464.795,51.51112,-3.00614,0.20955,0.85875
465.495,51.5801,-3.00609,0.21001,0.85822
466.195,51.64911,-3.00607,0.21041,0.85769
466.895,51.7181,-3.00822,0.20923,0.85716
467.595,51.787,-3.00914,0.21001,0.85663
468.295,51.85586,-3.01014,0.21281,0.8561
468.995,51.92465,-3.01249,0.21042,0.85557
469.695,51.99334,-3.01355,0.21063,0.85504
470.395,52.06204,-3.0143,0.21109,0.85451
471.095,52.13087,-3.01286,0.21238,0.85397
471.795,52.19989,-3.0142,0.21008,0.85344
472.495,52.2687,-3.01521,0.20987,0.85291
473.195,52.33763,-3.01652,0.20902,0.85237
473.895,52.40627,-3.01784,0.20988,0.85184
474.595,52.4752,-3.02036,0.21003,0.8513
475.295,52.54388,-3.01937,0.21163,0.85077
475.995,52.6128,-3.02043,0.20823,0.85023
476.695,52.6818,-3.0217,0.20674,0.84969
477.395,52.75071,-3.0219,0.207,0.84915
478.095,52.8195,-3.0219,0.20783,0.84862
478.795,52.8884,-3.02322,0.20755,0.84808
479.495,52.9573,-3.02453,0.21202,0.84754
480.195,53.02641,-3.02574,0.20754,0.847
480.895,53.0953,-3.02585,0.21114,0.84646
481.595,53.16432,-3.02716,0.2129,0.84592
482.295,53.23319,-3.02849,0.21458,0.84537
482.995,53.30196,-3.0298,0.21651,0.84483
483.695,53.37069,-3.0298,0.21708,0.84429
484.395,53.4396,-3.03112,0.21879,0.84375
485.095,53.50866,-3.02981,0.21757,0.8432
485.795,53.5777,-3.032,0.21862,0.84266
486.495,53.64688,-3.03202,0.22107,0.84211
487.195,53.716,-3.03333,0.22038,0.84157
487.895,53.78494,-3.03474,0.22126,0.84102
488.595,53.8537,-3.03475,0.22011,0.84048
489.295,53.92261,-3.03606,0.22095,0.83993
489.995,53.99155,-3.03603,0.2244,0.83938
490.695,54.06057,-3.03607,0.2246,0.83883
491.395,54.12955,-3.03739,0.22611,0.83829
492.095,54.19857,-3.04069,0.22722,0.83774
492.795,54.2676,-3.0375,0.22699,0.83719
493.495,54.3365,-3.03967,0.22592,0.83664
494.195,54.40543,-3.04168,0.22512,0.83609
494.895,54.4745,-3.03901,0.22539,0.83554
495.595,54.54368,-3.04003,0.22395,0.83498
496.295,54.61291,-3.04186,0.22539,0.83443
496.995,54.682,-3.04332,0.22772,0.83388
497.695,54.75108,-3.04397,0.22801,0.83333
498.395,54.82,-3.04529,0.22766,0.83277
499.095,54.88893,-3.04397,0.23032,0.83222
499.795,54.95782,-3.04533,0.22942,0.83166
500.495,55.02685,-3.04653,0.23033,0.83111
501.195,55.09587,-3.04726,0.23149,0.83055
501.895,55.16502,-3.04725,0.23246,0.83
502.595,55.23406,-3.04924,0.235,0.82944
503.295,55.3033,-3.05059,0.23829,0.82888
503.995,55.3724,-3.04924,0.23694,0.82833
504.695,55.4415,-3.05056,0.23921,0.82777
505.395,55.5107,-3.05056,0.24168,0.82721
506.095,55.5798,-3.05187,0.2409,0.82665
506.795,55.64884,-3.05319,0.24292,0.82609
507.495,55.71765,-3.05319,0.2425,0.82553
508.195,55.7866,-3.05319,0.23932,0.82497
508.895,55.85576,-3.05459,0.23575,0.82441
509.595,55.925,-3.0545,0.23214,0.82385
510.295,55.99405,-3.05583,0.22855,0.82328
510.995,56.0631,-3.05719,0.2238,0.82272
511.695,56.1321,-3.05582,0.21717,0.82216
512.395,56.2011,-3.05713,0.21349,0.82159
513.095,56.2703,-3.05812,0.21158,0.82103
513.795,56.3397,-3.05945,0.21342,0.82046
514.495,56.40911,-3.05881,0.21124,0.8199
515.195,56.47826,-3.05813,0.21229,0.81933
515.895,56.54736,-3.05814,0.21504,0.81877
516.595,56.61659,-3.06007,0.2128,0.8182
517.295,56.686,-3.0609,0.21161,0.81763
517.995,56.7553,-3.06088,0.2123,0.81706
518.695,56.8245,-3.06117,0.21456,0.8165
519.395,56.8937,-3.06282,0.21175,0.81593
520.095,56.96295,-3.06285,0.21148,0.81536
520.795,57.0323,-3.06287,0.21123,0.81479
521.495,57.1016,-3.06417,0.20982,0.81422
522.195,57.17074,-3.06417,0.21222,0.81365
522.895,57.2401,-3.06548,0.21088,0.81308
523.595,57.3095,-3.06548,0.2094,0.8125
524.295,57.37896,-3.06553,0.21068,0.81193
524.995,57.4481,-3.06549,0.21134,0.81136
525.695,57.5174,-3.06813,0.21204,0.81079
526.395,57.58647,-3.06812,0.21058,0.81021
527.095,57.6558,-3.0682,0.21071,0.80964
527.795,57.7249,-3.0691,0.20869,0.80906
528.495,57.79419,-3.06911,0.21046,0.80849
529.195,57.8635,-3.07046,0.20975,0.80791
529.895,57.93269,-3.06944,0.20928,0.80733
530.595,58.0017,-3.07076,0.20754,0.80676
531.295,58.07065,-3.07206,0.20866,0.80618
531.995,58.14004,-3.07207,0.2067,0.8056
532.695,58.20944,-3.07337,0.20833,0.80503
533.395,58.2789,-3.07208,0.20816,0.80445
534.095,58.3483,-3.07208,0.20756,0.80387
534.795,58.4177,-3.07339,0.20491,0.80329
535.495,58.4868,-3.07339,0.20643,0.80271
536.195,58.55602,-3.0754,0.20467,0.80213
536.895,58.6253,-3.07669,0.20569,0.80155
537.595,58.695,-3.07669,0.20427,0.80096
538.295,58.76432,-3.07667,0.20599,0.80038
538.995,58.8337,-3.07669,0.20808,0.7998
539.695,58.9032,-3.07801,0.20661,0.79922
540.395,58.97229,-3.07928,0.20602,0.79863
541.095,59.0417,-3.08064,0.20715,0.79805
541.795,59.1109,-3.08066,0.20728,0.79747
542.495,59.1805,-3.07932,0.2098,0.79688
543.195,59.2499,-3.08064,0.20552,0.7963
543.895,59.31954,-3.08064,0.20566,0.79571
544.595,59.38921,-3.08064,0.2065,0.79512
545.295,59.4587,-3.0813,0.2058,0.79454
545.995,59.52795,-3.08261,0.20594,0.79395
546.695,59.5973,-3.08448,0.20524,0.79336
547.395,59.6666,-3.08325,0.20632,0.79277
548.095,59.7363,-3.08595,0.20335,0.79219
548.795,59.80594,-3.08467,0.20252,0.7916
549.495,59.8758,-3.08338,0.20377,0.79101
550.195,59.94535,-3.08274,0.20164,0.79042
550.895,60.01471,-3.08404,0.20316,0.78983
551.595,60.08404,-3.08683,0.2042,0.78924
552.295,60.1537,-3.087,0.20222,0.78864
552.995,60.22371,-3.08567,0.20147,0.78805
553.695,60.2936,-3.08437,0.20247,0.78746
554.395,60.36331,-3.08529,0.20195,0.78687
555.095,60.43246,-3.08569,0.2034,0.78627
555.795,60.5019,-3.087,0.20325,0.78568
556.495,60.5712,-3.08832,0.20377,0.78509
557.195,60.64128,-3.08832,0.20493,0.78449
557.895,60.7114,-3.08838,0.20398,0.7839
558.595,60.7816,-3.08832,0.20199,0.7833
559.295,60.85136,-3.08829,0.20234,0.78271
559.995,60.92117,-3.08964,0.20319,0.78211
560.695,60.99095,-3.09095,0.20418,0.78151
561.395,61.06077,-3.09095,0.20275,0.78092
562.095,61.13052,-3.08996,0.20237,0.78032
562.795,61.20024,-3.09194,0.20621,0.77972
563.495,61.27012,-3.09326,0.20686,0.77912
564.195,61.3399,-3.09194,0.20751,0.77852
564.895,61.40941,-3.0909,0.20692,0.77792
565.595,61.4786,-3.09194,0.20619,0.77732
566.295,61.54834,-3.09259,0.20779,0.77672
566.995,61.61812,-3.09359,0.21011,0.77612
567.695,61.6884,-3.09392,0.21,0.77552
568.395,61.7581,-3.09523,0.21352,0.77492
569.095,61.82804,-3.09523,0.21402,0.77432
569.795,61.89755,-3.09392,0.2147,0.77372
570.495,61.9674,-3.09632,0.21425,0.77311
571.195,62.037,-3.09655,0.21445,0.77251
571.895,62.1069,-3.09655,0.21341,0.77191
572.595,62.17645,-3.0954,0.21565,0.7713
573.295,62.24609,-3.09656,0.21634,0.7707
573.995,62.3157,-3.09783,0.21485,0.77009
574.695,62.38534,-3.09788,0.21892,0.76949
575.395,62.45525,-3.09788,0.21819,0.76888
576.095,62.525,-3.09788,0.21884,0.76827
576.795,62.5947,-3.09779,0.21887,0.76767
577.495,62.66431,-3.09919,0.2191,0.76706
578.195,62.7341,-3.09855,0.22176,0.76645
578.895,62.8039,-3.09852,0.2214,0.76584
579.595,62.87364,-3.09786,0.22318,0.76524
580.295,62.94321,-3.09919,0.22505,0.76463
580.995,63.0129,-3.09919,0.2259,0.76402
581.695,63.08279,-3.10019,0.22548,0.76341
582.395,63.1527,-3.10013,0.22683,0.7628
583.095,63.22275,-3.1015,0.22918,0.76219
583.795,63.2925,-3.10197,0.22832,0.76158
584.495,63.36241,-3.1015,0.22912,0.76097
585.195,63.43212,-3.1015,0.22825,0.76035
585.895,63.50161,-3.1015,0.23129,0.75974
586.595,63.57145,-3.1015,0.22935,0.75913
587.295,63.64135,-3.1015,0.22935,0.75852
587.995,63.7115,-3.10281,0.23374,0.7579
588.695,63.7814,-3.1029,0.23072,0.75729
589.395,63.85102,-3.10281,0.23127,0.75667
590.095,63.92102,-3.10545,0.23383,0.75606
590.795,63.9906,-3.10545,0.23548,0.75545
591.495,64.0605,-3.10545,0.23629,0.75483
592.195,64.13039,-3.10676,0.23599,0.75421
592.895,64.2003,-3.10677,0.23838,0.7536
593.595,64.27011,-3.10677,0.23762,0.75298
594.295,64.3399,-3.10545,0.23502,0.75236
594.995,64.40987,-3.10545,0.2342,0.75175
595.695,64.4798,-3.10413,0.23463,0.75113
596.395,64.5493,-3.10545,0.23687,0.75051
597.095,64.61891,-3.10488,0.23999,0.74989
597.795,64.68884,-3.10545,0.2386,0.74927
598.495,64.75909,-3.1054,0.23926,0.74865
599.195,64.82925,-3.10676,0.23946,0.74803
599.895,64.89909,-3.10808,0.23866,0.74741
600.595,64.96892,-3.10808,0.24104,0.74679
601.295,65.03873,-3.10808,0.24305,0.74617
601.995,65.1087,-3.10776,0.24586,0.74555
602.695,65.17846,-3.10775,0.24589,0.74493
603.395,65.2483,-3.10775,0.24891,0.74431
604.095,65.31822,-3.10891,0.2508,0.74369
604.795,65.38785,-3.1094,0.25019,0.74306
605.495,65.4581,-3.1094,0.25079,0.74244
606.195,65.5281,-3.1094,0.25307,0.74182
606.895,65.59873,-3.10934,0.25162,0.74119
607.595,65.6686,-3.11071,0.25489,0.74057
608.295,65.7386,-3.11071,0.25479,0.73994
608.995,65.80847,-3.11071,0.25548,0.73932
609.695,65.87854,-3.11166,0.25743,0.73869
610.395,65.9484,-3.11103,0.26021,0.73807
611.095,66.01845,-3.11105,0.26367,0.73744
611.795,66.08835,-3.11101,0.26515,0.73681
612.495,66.15825,-3.11237,0.26623,0.73619
613.195,66.2283,-3.11237,0.26653,0.73556
613.895,66.2983,-3.11237,0.269,0.73493
614.595,66.36846,-3.11338,0.27178,0.7343
615.295,66.43828,-3.11336,0.2729,0.73368
615.995,66.50806,-3.11308,0.2726,0.73305
616.695,66.5781,-3.11303,0.27381,0.73242
617.395,66.64829,-3.11303,0.27376,0.73179
618.095,66.7183,-3.11253,0.27612,0.73116
618.795,66.78837,-3.11287,0.27778,0.73053
619.495,66.8582,-3.11335,0.28093,0.7299
620.195,66.92804,-3.11452,0.28408,0.72927
620.895,66.9977,-3.11548,0.28309,0.72864
621.595,67.06734,-3.11467,0.28468,0.728
622.295,67.13736,-3.11346,0.28677,0.72737
622.995,67.20727,-3.11338,0.28676,0.72674
623.695,67.2773,-3.11434,0.2877,0.72611
624.395,67.3472,-3.1159,0.29014,0.72547
625.095,67.41716,-3.11439,0.28982,0.72484
625.795,67.48735,-3.11544,0.2891,0.72421
626.495,67.55747,-3.11544,0.28805,0.72357
627.195,67.62741,-3.11544,0.28761,0.72294
627.895,67.69744,-3.11544,0.29269,0.7223
628.595,67.76746,-3.11544,0.2894,0.72167
629.295,67.83761,-3.11674,0.29092,0.72103
629.995,67.9078,-3.11675,0.28984,0.7204
630.695,67.97793,-3.11544,0.2898,0.71976
631.395,68.04825,-3.11606,0.29241,0.71912
632.095,68.11844,-3.11609,0.2933,0.71849
632.795,68.18892,-3.11609,0.29066,0.71785
633.495,68.25926,-3.11609,0.29557,0.71721
634.195,68.32967,-3.11643,0.29328,0.71658
634.895,68.39984,-3.11642,0.29359,0.71594
635.595,68.4702,-3.11774,0.29545,0.7153
636.295,68.54044,-3.11774,0.29711,0.71466
636.995,68.61107,-3.11774,0.29906,0.71402
637.695,68.68146,-3.11776,0.29716,0.71338
638.395,68.75174,-3.11873,0.29958,0.71274
639.095,68.8219,-3.11873,0.29977,0.7121
639.795,68.89232,-3.11873,0.29877,0.71146
640.495,68.9627,-3.11838,0.30017,0.71082
641.195,69.03311,-3.1174,0.29937,0.71018
641.895,69.10332,-3.11742,0.30212,0.70954
642.595,69.17354,-3.11743,0.30272,0.7089
643.295,69.24376,-3.11775,0.30254,0.70825
643.995,69.3139,-3.11821,0.30239,0.70761
644.695,69.38409,-3.11906,0.30449,0.70697
645.395,69.45419,-3.11908,0.30468,0.70633
646.095,69.5244,-3.12038,0.30628,0.70568
646.795,69.5945,-3.12005,0.30447,0.70504
647.495,69.6647,-3.11851,0.30387,0.7044
648.195,69.7349,-3.11867,0.30596,0.70375
648.895,69.80498,-3.11883,0.3077,0.70311
649.595,69.8751,-3.12016,0.30364,0.70246
650.295,69.94541,-3.12016,0.30836,0.70182
650.995,70.01579,-3.12016,0.30546,0.70117
651.695,70.08592,-3.12016,0.30558,0.70053
652.395,70.15608,-3.12016,0.3043,0.69988
653.095,70.22613,-3.12148,0.30599,0.69923
653.795,70.29615,-3.12148,0.30589,0.69859
654.495,70.36631,-3.12148,0.30889,0.69794
655.195,70.4366,-3.12148,0.30868,0.69729
655.895,70.5068,-3.12148,0.30971,0.69665
656.595,70.57693,-3.12282,0.30841,0.696
657.295,70.64695,-3.12279,0.31035,0.69535
657.995,70.71726,-3.12279,0.31427,0.6947
658.695,70.78755,-3.12253,0.31206,0.69405
659.395,70.85773,-3.12246,0.31228,0.6934
660.095,70.92801,-3.12245,0.31461,0.69276
660.795,70.99818,-3.12246,0.31406,0.69211
661.495,71.06815,-3.12377,0.31668,0.69146
662.195,71.13817,-3.12411,0.31541,0.69081
662.895,71.20829,-3.12411,0.31879,0.69016
663.595,71.2787,-3.12345,0.32151,0.68951
664.295,71.34864,-3.12341,0.32154,0.68885
664.995,71.41858,-3.12444,0.32338,0.6882
665.695,71.48892,-3.12411,0.32766,0.68755
666.395,71.55957,-3.12506,0.32734,0.6869
667.095,71.6302,-3.12543,0.33075,0.68625
667.795,71.7003,-3.12543,0.33024,0.6856
668.495,71.77026,-3.12543,0.33053,0.68494
669.195,71.84037,-3.12543,0.32973,0.68429
669.895,71.91062,-3.12543,0.3306,0.68364
670.595,71.98082,-3.12543,0.33208,0.68298
671.295,72.05102,-3.12676,0.33513,0.68233
671.995,72.12125,-3.12674,0.33764,0.68168
672.695,72.1918,-3.12674,0.33459,0.68102
673.395,72.26204,-3.12575,0.33486,0.68037
674.095,72.33244,-3.12575,0.33696,0.67971
674.795,72.4027,-3.12575,0.33914,0.67906
675.495,72.47309,-3.12694,0.34021,0.6784
676.195,72.54341,-3.12707,0.33808,0.67775
676.895,72.6138,-3.12707,0.33698,0.67709
677.595,72.68414,-3.1284,0.3368,0.67644
678.295,72.75429,-3.12912,0.33729,0.67578
678.995,72.82421,-3.12906,0.33502,0.67512
679.695,72.89446,-3.12971,0.33792,0.67447
680.395,72.96466,-3.1294,0.34115,0.67381
681.095,73.03527,-3.12939,0.33897,0.67315
681.795,73.10552,-3.1307,0.33966,0.6725
682.495,73.17596,-3.12941,0.34043,0.67184
683.195,73.24609,-3.12821,0.34412,0.67118
683.895,73.3165,-3.12938,0.34326,0.67052
684.595,73.38695,-3.12938,0.3416,0.66986
685.295,73.45764,-3.12921,0.34033,0.66921
685.995,73.52813,-3.12938,0.34089,0.66855
686.695,73.59852,-3.12938,0.34051,0.66789
687.395,73.66898,-3.13072,0.33887,0.66723
688.095,73.73949,-3.1307,0.33943,0.66657
688.795,73.81012,-3.1307,0.33941,0.66591
689.495,73.88055,-3.13101,0.33803,0.66525
690.195,73.95088,-3.13103,0.34226,0.66459
690.895,74.02128,-3.13103,0.34159,0.66393
691.595,74.09177,-3.13071,0.34257,0.66327
692.295,74.1623,-3.13076,0.3405,0.66261
692.995,74.2329,-3.13103,0.34083,0.66195
693.695,74.3034,-3.13134,0.34006,0.66129
694.395,74.37384,-3.13202,0.33849,0.66062
695.095,74.44389,-3.13087,0.33458,0.65996
695.795,74.5142,-3.1307,0.33821,0.6593
696.495,74.58412,-3.13203,0.33788,0.65864
697.195,74.65449,-3.13196,0.33629,0.65798
697.895,74.7248,-3.13201,0.33823,0.65731
698.595,74.79553,-3.13201,0.34018,0.65665
699.295,74.86583,-3.13201,0.33925,0.65599
699.995,74.9361,-3.13341,0.34065,0.65532
700.695,75.00626,-3.1305,0.33926,0.65466
701.395,75.07661,-3.13305,0.34007,0.654
702.095,75.14693,-3.13333,0.34383,0.65333
702.795,75.2175,-3.1329,0.34376,0.65267
703.495,75.28806,-3.13334,0.34479,0.652
704.195,75.35837,-3.13334,0.34424,0.65134
704.895,75.4287,-3.13399,0.34256,0.65067
705.595,75.49919,-3.13498,0.34273,0.65001
706.295,75.56985,-3.13498,0.34189,0.64935
706.995,75.6404,-3.13498,0.34166,0.64868
707.695,75.71086,-3.135,0.33843,0.64801
708.395,75.78141,-3.13665,0.33807,0.64735
709.095,75.85195,-3.13556,0.33959,0.64668
709.795,75.9225,-3.13564,0.34064,0.64602
710.495,75.9927,-3.13432,0.34262,0.64535
711.195,76.06302,-3.13564,0.34049,0.64468
711.895,76.1335,-3.13564,0.34301,0.64402
712.595,76.2041,-3.13563,0.34281,0.64335
713.295,76.27472,-3.13663,0.34052,0.64268
713.995,76.3451,-3.13663,0.34135,0.64202
714.695,76.4157,-3.13663,0.33931,0.64135
715.395,76.48606,-3.13663,0.34049,0.64068
716.095,76.55679,-3.13662,0.33905,0.64001
716.795,76.62727,-3.13795,0.34035,0.63935
717.495,76.69781,-3.13795,0.33932,0.63868
718.195,76.7684,-3.13794,0.33718,0.63801
718.895,76.8391,-3.13789,0.33821,0.63734
719.595,76.90975,-3.13761,0.33728,0.63667
720.295,76.98037,-3.13761,0.33893,0.636
720.995,77.05085,-3.13707,0.34116,0.63534
721.695,77.12156,-3.13999,0.3401,0.63467
722.395,77.19199,-3.13992,0.3381,0.634
723.095,77.26262,-3.14013,0.33776,0.63333
723.795,77.33323,-3.14128,0.33673,0.63266
724.495,77.404,-3.14025,0.33431,0.63199
725.195,77.47446,-3.14025,0.33181,0.63132
725.895,77.54467,-3.14025,0.33688,0.63065
726.595,77.615,-3.14166,0.33184,0.62998
727.295,77.68574,-3.14138,0.33153,0.62931
727.995,77.7565,-3.13854,0.33516,0.62864
728.695,77.82712,-3.14046,0.33816,0.62797
729.395,77.89763,-3.14256,0.33729,0.6273
730.095,77.96822,-3.14267,0.33633,0.62663
730.795,78.0388,-3.14135,0.33732,0.62595
731.495,78.10964,-3.14266,0.33773,0.62528
732.195,78.18032,-3.14266,0.33837,0.62461
732.895,78.25105,-3.14308,0.34172,0.62394
733.595,78.3214,-3.14266,0.34171,0.62327
734.295,78.39214,-3.14266,0.34035,0.6226
734.995,78.4629,-3.14397,0.33938,0.62193
735.695,78.53371,-3.14336,0.33838,0.62125
736.395,78.60427,-3.14359,0.33611,0.62058
737.095,78.67488,-3.14398,0.33791,0.61991
737.795,78.74563,-3.14398,0.33592,0.61924
738.495,78.81647,-3.14435,0.33587,0.61856
739.195,78.88722,-3.1453,0.33364,0.61789
739.895,78.9581,-3.1453,0.33676,0.61722
740.595,79.02901,-3.1453,0.33296,0.61655
741.295,79.09985,-3.1453,0.33295,0.61587
741.995,79.17054,-3.14564,0.33665,0.6152
742.695,79.24115,-3.14562,0.33358,0.61453
743.395,79.31185,-3.14562,0.33421,0.61385
744.095,79.38237,-3.14563,0.3337,0.61318
744.795,79.4528,-3.14694,0.33357,0.6125
745.495,79.52325,-3.14833,0.33418,0.61183
746.195,79.59401,-3.14694,0.33285,0.61116
746.895,79.66487,-3.14624,0.33275,0.61048
747.595,79.73566,-3.14596,0.32982,0.60981
748.295,79.8062,-3.14728,0.33179,0.60913
748.995,79.87716,-3.1473,0.32897,0.60846
749.695,79.94803,-3.1486,0.33085,0.60779
750.395,80.01907,-3.14951,0.33269,0.60711
751.095,80.08989,-3.14925,0.33024,0.60644
751.795,80.16095,-3.14925,0.33146,0.60576
752.495,80.23192,-3.14929,0.33005,0.60509
753.195,80.3029,-3.14827,0.32985,0.60441
753.895,80.37374,-3.14799,0.3316,0.60374
754.595,80.44445,-3.14862,0.33084,0.60306
755.295,80.51512,-3.14859,0.3312,0.60239
755.995,80.58586,-3.14861,0.32767,0.60171
756.695,80.65677,-3.14923,0.32894,0.60104
757.395,80.72752,-3.14922,0.32874,0.60036
758.095,80.79816,-3.14958,0.32663,0.59968
758.795,80.86882,-3.14958,0.3264,0.59901
759.495,80.9396,-3.15024,0.32673,0.59833
760.195,81.0106,-3.15058,0.32617,0.59766
760.895,81.08158,-3.15059,0.32205,0.59698
761.595,81.15257,-3.15004,0.32478,0.5963
762.295,81.22325,-3.15123,0.32148,0.59563
762.995,81.29401,-3.15123,0.32202,0.59495
763.695,81.36492,-3.15118,0.32203,0.59428
764.395,81.4357,-3.15254,0.32296,0.5936
765.095,81.5064,-3.15257,0.31978,0.59292
765.795,81.5771,-3.15189,0.32313,0.59225
766.495,81.6481,-3.15125,0.32236,0.59157
767.195,81.7192,-3.15254,0.32737,0.59089
767.895,81.79006,-3.15254,0.3251,0.59022
768.595,81.86084,-3.15257,0.32566,0.58954
769.295,81.93154,-3.15489,0.32399,0.58886
769.995,82.0022,-3.15485,0.32488,0.58819
770.695,82.0728,-3.15484,0.32659,0.58751
771.395,82.1434,-3.15353,0.3261,0.58683
772.095,82.21405,-3.15352,0.32802,0.58616
772.795,82.28466,-3.15485,0.32682,0.58548
773.495,82.3552,-3.15557,0.32614,0.5848
774.195,82.4256,-3.15551,0.32304,0.58412
774.895,82.49614,-3.15551,0.32496,0.58345
775.595,82.56688,-3.15551,0.3268,0.58277
776.295,82.63778,-3.15607,0.33022,0.58209
776.995,82.70854,-3.1555,0.33216,0.58141
777.695,82.7791,-3.1555,0.33459,0.58074
778.395,82.84996,-3.15682,0.3344,0.58006
779.095,82.92076,-3.15682,0.33677,0.57938
779.795,82.99175,-3.15551,0.33599,0.5787
780.495,83.06254,-3.15556,0.33964,0.57803
781.195,83.13341,-3.15782,0.33929,0.57735
781.895,83.20416,-3.15782,0.34096,0.57667
782.595,83.2753,-3.15782,0.3402,0.57599
783.295,83.34639,-3.15782,0.33976,0.57531
783.995,83.4174,-3.15913,0.33889,0.57464
784.695,83.48836,-3.15914,0.3388,0.57396
785.395,83.55946,-3.15916,0.33867,0.57328
786.095,83.63091,-3.15913,0.34038,0.5726
786.795,83.70204,-3.15913,0.33873,0.57192
787.495,83.7733,-3.16045,0.34121,0.57125
788.195,83.8445,-3.16191,0.33799,0.57057
788.895,83.9157,-3.16045,0.3421,0.56989
789.595,83.9867,-3.16045,0.34667,0.56921
790.295,84.05747,-3.16045,0.34377,0.56853
790.995,84.12829,-3.16177,0.34197,0.56786
791.695,84.19895,-3.16177,0.34145,0.56718
792.395,84.26984,-3.16177,0.3441,0.5665
793.095,84.34061,-3.16045,0.34416,0.56582
793.795,84.41162,-3.16178,0.34188,0.56514
794.495,84.48238,-3.16308,0.3432,0.56446
795.195,84.55354,-3.16309,0.34203,0.56379
795.895,84.62431,-3.16176,0.33938,0.56311
796.595,84.69549,-3.16177,0.33921,0.56243
797.295,84.76635,-3.16167,0.33946,0.56175
797.995,84.83744,-3.16308,0.33678,0.56107
798.695,84.90835,-3.16308,0.33949,0.56039
799.395,84.9795,-3.16308,0.33773,0.55972
799.495,84.98979,-3.16308,0.33709,0.55962