File: 01_Data/Polyester_Bed_Skirt/STA/N2/30K_min/Polyester_Bed_Skirt_STA_N2_30KData_220524_R1.csv
##Temp./Â°C,Time/min,Mass loss(subtr.2)/mg,DSC(subtr.2)/(mW/mg),Sensit./(uV/mW)
48.569,10.00667,-0.00823,-0.0007184639,1.054
49.169,10.53555,-0.005942389,0.02935903,1.05388
49.769,10.65594,-0.007503074,0.06111011,1.05376
50.369,10.74194,-0.008938359,0.08656084,1.05364
50.969,10.81046,-0.00769771,0.10983,1.05351
51.569,10.87021,-0.007851528,0.13232,1.05339
52.169,10.92325,-0.00855285,0.15361,1.05326
52.769,10.97101,-0.008493251,0.17196,1.05314
53.369,11.0158,-0.00910853,0.18928,1.05301
53.969,11.0581,-0.008938674,0.20713,1.05288
54.569,11.09782,-0.00816673,0.22362,1.05276
55.169,11.13524,-0.00657796,0.2406,1.05263
55.769,11.17033,-0.006532248,0.2548,1.0525
56.369,11.2049,-0.007232191,0.26803,1.05237
56.969,11.23915,-0.007439477,0.28287,1.05224
57.569,11.27148,-0.007860719,0.29464,1.05211
58.169,11.3027,-0.00767571,0.30734,1.05198
58.769,11.33331,-0.008668946,0.3191,1.05185
59.369,11.3632,-0.009169948,0.33104,1.05171
59.969,11.392,-0.00979876,0.34204,1.05158
60.569,11.4202,-0.0088947,0.35332,1.05145
61.169,11.44806,-0.00885504,0.36147,1.05131
61.769,11.47604,-0.00875786,0.37302,1.05118
62.369,11.50303,-0.009252455,0.38303,1.05104
62.969,11.52968,-0.00892961,0.39196,1.0509
63.569,11.55593,-0.007349281,0.40258,1.05077
64.169,11.58168,-0.00763561,0.41205,1.05063
64.769,11.60714,-0.008667881,0.42106,1.05049
65.369,11.63241,-0.007927736,0.42972,1.05035
65.969,11.65731,-0.00735111,0.43706,1.05021
66.569,11.68192,-0.007271208,0.44584,1.05007
67.169,11.70629,-0.007422495,0.45591,1.04993
67.769,11.73044,-0.007221545,0.46352,1.04979
68.369,11.75442,-0.007263824,0.47113,1.04965
68.969,11.77817,-0.007223694,0.47951,1.0495
69.569,11.8018,-0.00730951,0.48851,1.04936
70.169,11.8253,-0.007520437,0.49517,1.04921
70.769,11.8486,-0.00758978,0.50507,1.04907
71.369,11.87185,-0.00732577,0.51001,1.04892
71.969,11.89458,-0.007254944,0.51562,1.04878
72.569,11.91708,-0.008363145,0.52174,1.04863
73.169,11.93983,-0.008438579,0.52634,1.04848
73.769,11.9627,-0.007389929,0.53249,1.04833
74.369,11.98563,-0.00636989,0.53836,1.04819
74.969,12.00798,-0.006532571,0.54209,1.04804
75.569,12.03014,-0.00642827,0.54404,1.04789
76.169,12.05223,-0.00701794,0.54925,1.04773
76.769,12.07424,-0.007457379,0.5494,1.04758
77.369,12.09624,-0.006643296,0.54725,1.04743
77.969,12.11817,-0.00595653,0.54815,1.04728
78.569,12.14,-0.00713616,0.54618,1.04713
79.169,12.1618,-0.007408056,0.54438,1.04697
79.769,12.18346,-0.006877527,0.54365,1.04682
80.369,12.20507,-0.007808645,0.53991,1.04666
80.969,12.22654,-0.007905265,0.5382,1.04651
81.569,12.24799,-0.00753318,0.53262,1.04635
82.169,12.2692,-0.007988623,0.53313,1.04619
82.769,12.29047,-0.00682191,0.52804,1.04603
83.369,12.31171,-0.00787338,0.5248,1.04588
83.969,12.3329,-0.006374613,0.52452,1.04572
84.569,12.35393,-0.00739932,0.52304,1.04556
85.169,12.37497,-0.007674918,0.51948,1.0454
85.769,12.39587,-0.00883037,0.51746,1.04524
86.369,12.41666,-0.007894015,0.51598,1.04507
86.969,12.4376,-0.007932126,0.51389,1.04491
87.569,12.45843,-0.00783497,0.51085,1.04475
88.169,12.4793,-0.00643722,0.50932,1.04459
88.769,12.50027,-0.007541551,0.50839,1.04442
89.369,12.52091,-0.00717079,0.50586,1.04426
89.969,12.54147,-0.00620055,0.50686,1.04409
90.569,12.56206,-0.006243089,0.50525,1.04393
91.169,12.58263,-0.006821761,0.50343,1.04376
91.769,12.60314,-0.00702694,0.50405,1.04359
92.369,12.6236,-0.008326782,0.50007,1.04342
92.969,12.64375,-0.009023509,0.49876,1.04325
93.569,12.66393,-0.009419904,0.49805,1.04309
94.169,12.68421,-0.01043044,0.49663,1.04292
94.769,12.70477,-0.00942979,0.49584,1.04275
95.369,12.7255,-0.009673919,0.4952,1.04257
95.969,12.74612,-0.00982065,0.49349,1.0424
96.569,12.7665,-0.009440202,0.49205,1.04223
97.169,12.7867,-0.009440021,0.49287,1.04206
97.769,12.80692,-0.009435149,0.49403,1.04188
98.369,12.8272,-0.008137756,0.49168,1.04171
98.969,12.84727,-0.009434585,0.492,1.04154
99.569,12.86759,-0.009388162,0.49293,1.04136
100.169,12.88777,-0.00813019,0.49344,1.04118
100.769,12.908,-0.008119786,0.49221,1.04101
101.369,12.92813,-0.00812001,0.49358,1.04083
101.969,12.94823,-0.00811977,0.49357,1.04065
102.569,12.96842,-0.008133486,0.49615,1.04047
103.169,12.98855,-0.00744339,0.49735,1.0403
103.769,13.00866,-0.00835403,0.50115,1.04012
104.369,13.02871,-0.008055002,0.50263,1.03994
104.969,13.0487,-0.008089433,0.5029,1.03975
105.569,13.0688,-0.009488193,0.50454,1.03957
106.169,13.08885,-0.008910995,0.5067,1.03939
106.769,13.1089,-0.008099578,0.51109,1.03921
107.369,13.129,-0.00949126,0.51347,1.03902
107.969,13.14909,-0.00942902,0.51631,1.03884
108.569,13.1692,-0.008458307,0.52202,1.03866
109.169,13.1893,-0.009292049,0.5232,1.03847
109.769,13.2094,-0.00944264,0.52371,1.03829
110.369,13.2294,-0.009357686,0.52879,1.0381
110.969,13.2494,-0.00830036,0.53288,1.03791
111.569,13.26936,-0.009426331,0.53595,1.03772
112.169,13.2894,-0.009440256,0.53973,1.03754
112.769,13.3092,-0.009440288,0.54196,1.03735
113.369,13.32918,-0.009425136,0.54588,1.03716
113.969,13.3491,-0.01064538,0.55101,1.03697
114.569,13.3691,-0.009388872,0.55358,1.03678
115.169,13.38902,-0.00944074,0.55663,1.03659
115.769,13.40903,-0.009452496,0.56087,1.03639
116.369,13.429,-0.008293289,0.56464,1.0362
116.969,13.44885,-0.00812866,0.56773,1.03601
117.569,13.46875,-0.008130025,0.56909,1.03581
118.169,13.48865,-0.008130041,0.57593,1.03562
118.769,13.50857,-0.008127913,0.57857,1.03543
119.369,13.5285,-0.008247097,0.58109,1.03523
119.969,13.54832,-0.009427427,0.58597,1.03503
120.569,13.5682,-0.009440231,0.58993,1.03484
121.169,13.588,-0.00944,0.59171,1.03464
121.769,13.6077,-0.00944,0.59311,1.03444
122.369,13.6274,-0.009440001,0.60055,1.03424
122.969,13.64706,-0.009439968,0.60391,1.03404
123.569,13.6668,-0.009440538,0.60616,1.03384
124.169,13.6866,-0.00845444,0.60935,1.03364
124.769,13.7063,-0.0084597,0.61309,1.03344
125.369,13.726,-0.00809695,0.61814,1.03324
125.969,13.74571,-0.009454117,0.62229,1.03304
126.569,13.7654,-0.0094361,0.62495,1.03284
127.169,13.785,-0.008573013,0.62578,1.03263
127.769,13.80454,-0.00844715,0.63145,1.03243
128.369,13.8241,-0.008450065,0.63334,1.03223
128.969,13.84371,-0.008449998,0.63521,1.03202
129.569,13.86338,-0.008450001,0.64066,1.03181
130.169,13.883,-0.008449916,0.64367,1.03161
130.769,13.9025,-0.008453778,0.64746,1.0314
131.369,13.92191,-0.008961251,0.65292,1.03119
131.969,13.9413,-0.009762355,0.65448,1.03099
132.569,13.96076,-0.00942063,0.65795,1.03078
133.169,13.9802,-0.009440117,0.66063,1.03057
133.769,13.99965,-0.00943897,0.66318,1.03036
134.369,14.0192,-0.009997427,0.66883,1.03015
134.969,14.03864,-0.01075355,0.67313,1.02994
135.569,14.058,-0.0108104,0.67526,1.02973
136.169,14.0774,-0.009409683,0.67838,1.02951
136.769,14.0967,-0.009450915,0.681,1.0293
137.369,14.11607,-0.00945001,0.68324,1.02909
137.969,14.13546,-0.009448793,0.68876,1.02887
138.569,14.1548,-0.009495264,0.69045,1.02866
139.169,14.17405,-0.0100966,0.69509,1.02844
139.769,14.1933,-0.01010018,0.69706,1.02823
140.369,14.21251,-0.00954324,0.7009,1.02801
140.969,14.2317,-0.008786599,0.70228,1.0278
141.569,14.2509,-0.008779806,0.70663,1.02758
142.169,14.2701,-0.008779879,0.70897,1.02736
142.769,14.2892,-0.00878523,0.71504,1.02714
143.369,14.3083,-0.00921086,0.71621,1.02692
143.969,14.3275,-0.009453635,0.71582,1.0267
144.569,14.34671,-0.008118137,0.72113,1.02648
145.169,14.36589,-0.0081192,0.72348,1.02626
145.769,14.3851,-0.008120035,0.72593,1.02604
146.369,14.40419,-0.00812,0.73008,1.02582
146.969,14.42339,-0.00812,0.73199,1.0256
147.569,14.44246,-0.00812,0.73499,1.02537
148.169,14.4616,-0.008120001,0.73759,1.02515
148.769,14.48061,-0.008119984,0.73891,1.02492
149.369,14.49957,-0.008119531,0.74146,1.0247
149.969,14.5186,-0.008343564,0.74383,1.02447
150.569,14.5374,-0.009454908,0.7443,1.02425
151.169,14.55625,-0.009439583,0.74715,1.02402
151.769,14.57526,-0.00944221,0.75286,1.02379
152.369,14.5943,-0.009386719,0.75203,1.02357
152.969,14.61351,-0.008122028,0.75538,1.02334
153.569,14.6326,-0.008120209,0.75914,1.02311
154.169,14.6515,-0.008120057,0.76072,1.02288
154.769,14.6703,-0.008116263,0.763,1.02265
155.369,14.68924,-0.008308153,0.76534,1.02242
155.969,14.70815,-0.009428061,0.7677,1.02219
156.569,14.72705,-0.009440081,0.77068,1.02196
157.169,14.74605,-0.009440003,0.77588,1.02172
157.769,14.76494,-0.00944,0.77643,1.02149
158.369,14.78384,-0.00944,0.77691,1.02126
158.969,14.80275,-0.00944,0.77848,1.02102
159.569,14.8216,-0.00944,0.78045,1.02079
160.169,14.84039,-0.00944,0.78265,1.02055
160.769,14.8592,-0.00944,0.78501,1.02032
161.369,14.87796,-0.009440005,0.78907,1.02008
161.969,14.89678,-0.00943975,0.79195,1.01985
162.569,14.9157,-0.009449859,0.79234,1.01961
163.169,14.9345,-0.01024039,0.79263,1.01937
163.769,14.95335,-0.01042818,0.79395,1.01913
164.369,14.97207,-0.00977589,0.79697,1.01889
164.969,14.99085,-0.009788648,0.79965,1.01865
165.569,15.00963,-0.008576616,0.80159,1.01841
166.169,15.02844,-0.008448734,0.80257,1.01817
166.769,15.0473,-0.008450011,0.80561,1.01793
167.369,15.06608,-0.00845,0.80849,1.01769
167.969,15.08482,-0.00844999,0.80835,1.01745
168.569,15.10353,-0.00845035,0.81062,1.0172
169.169,15.12224,-0.008437349,0.81297,1.01696
169.769,15.1407,-0.009498618,0.81467,1.01672
170.369,15.15925,-0.00976897,0.81607,1.01647
170.969,15.1779,-0.00977006,0.81815,1.01623
171.569,15.1967,-0.009769999,0.82171,1.01598
172.169,15.21551,-0.00977,0.82524,1.01573
172.769,15.23431,-0.00977,0.82499,1.01549
173.369,15.253,-0.00977,0.82604,1.01524
173.969,15.27167,-0.00977,0.82811,1.01499
174.569,15.2904,-0.00977,0.82921,1.01474
175.169,15.309,-0.009770125,0.83312,1.01449
175.769,15.32765,-0.00976744,0.83525,1.01425
176.369,15.3462,-0.00946577,0.83524,1.014
176.969,15.3648,-0.009448612,0.83901,1.01374
177.569,15.3834,-0.009450045,0.8423,1.01349
178.169,15.40191,-0.009449953,0.84305,1.01324
178.769,15.4205,-0.009450564,0.84469,1.01299
179.369,15.43909,-0.009691819,0.84573,1.01274
179.969,15.45774,-0.01041773,0.84984,1.01248
180.569,15.4762,-0.01047433,0.85035,1.01223
181.169,15.4947,-0.009067725,0.85133,1.01197
181.769,15.5132,-0.009109905,0.85175,1.01172
182.369,15.53164,-0.009110659,0.85615,1.01146
182.969,15.5501,-0.009076109,0.85658,1.01121
183.569,15.5686,-0.009430829,0.85907,1.01095
184.169,15.58697,-0.009440046,0.85978,1.01069
184.769,15.6054,-0.009440005,0.86161,1.01044
185.369,15.62384,-0.00944,0.86378,1.01018
185.969,15.6422,-0.00944,0.86469,1.00992
186.569,15.6606,-0.00944,0.86924,1.00966
187.169,15.67901,-0.00944,0.86928,1.0094
187.769,15.69735,-0.009440001,0.87041,1.00914
188.369,15.71574,-0.009439986,0.87173,1.00888
188.969,15.73414,-0.009440222,0.87306,1.00862
189.569,15.7525,-0.009448085,0.87498,1.00836
190.169,15.7708,-0.01058013,0.87881,1.00809
190.769,15.78917,-0.01076375,0.87939,1.00783
191.369,15.80751,-0.01075952,0.88297,1.00757
191.969,15.8259,-0.01074604,0.88302,1.0073
192.569,15.8443,-0.01143873,0.88535,1.00704
193.169,15.8626,-0.01141949,0.88688,1.00677
193.769,15.8809,-0.01142,0.89058,1.00651
194.369,15.8991,-0.01141995,0.8923,1.00624
194.969,15.9173,-0.01142376,0.89343,1.00597
195.569,15.93564,-0.0112574,0.89822,1.00571
196.169,15.95401,-0.01010688,0.89849,1.00544
196.769,15.9723,-0.01010029,0.89924,1.00517
197.369,15.9906,-0.0100999,0.90322,1.0049
197.969,16.00889,-0.01010297,0.90579,1.00463
198.569,16.02714,-0.01047666,0.90676,1.00436
199.169,16.04543,-0.01108405,0.91084,1.00409
199.769,16.06372,-0.01109009,0.91238,1.00382
200.369,16.08201,-0.01109575,0.91435,1.00355
200.969,16.1003,-0.01142792,0.915,1.00328
201.569,16.1185,-0.01142118,0.9176,1.00301
202.169,16.1367,-0.01141758,0.91767,1.00273
202.769,16.15496,-0.01148875,0.92056,1.00246
203.369,16.17322,-0.01174809,0.92428,1.00218
203.969,16.19144,-0.01080265,0.92755,1.00191
204.569,16.20968,-0.01075869,0.92912,1.00163
205.169,16.22794,-0.01076352,0.93131,1.00136
205.769,16.24612,-0.01107057,0.93395,1.00108
206.369,16.26434,-0.01109178,0.93661,1.00081
206.969,16.2825,-0.01108995,0.93651,1.00053
207.569,16.30055,-0.01109,0.93787,1.00025
208.169,16.3186,-0.01109,0.94362,0.99997
208.769,16.33671,-0.01109,0.94414,0.99969
209.369,16.355,-0.01109,0.94832,0.99942
209.969,16.37332,-0.01109,0.95157,0.99914
210.569,16.39169,-0.01109,0.95353,0.99886
211.169,16.41004,-0.01109,0.95557,0.99857
211.769,16.42823,-0.01109,0.95764,0.99829
212.369,16.44639,-0.01109,0.96093,0.99801
212.969,16.4646,-0.01109,0.9623,0.99773
213.569,16.4828,-0.01109,0.96642,0.99745
214.169,16.50096,-0.01109,0.97017,0.99716
214.769,16.51914,-0.01109,0.97492,0.99688
215.369,16.5373,-0.01109,0.97839,0.99659
215.969,16.55542,-0.01109,0.97831,0.99631
216.569,16.57359,-0.01109,0.98025,0.99602
217.169,16.59178,-0.01109,0.98562,0.99574
217.769,16.60998,-0.01109,0.99113,0.99545
218.369,16.6282,-0.01108998,0.99483,0.99517
218.969,16.64635,-0.01108987,0.99787,0.99488
219.569,16.66447,-0.01111572,1.00118,0.99459
220.169,16.68261,-0.01040377,1.00484,0.9943
220.769,16.70074,-0.01043026,1.00945,0.99401
221.369,16.7189,-0.01043001,1.01306,0.99372
221.969,16.73702,-0.01043,1.01641,0.99343
222.569,16.75514,-0.01043,1.02001,0.99314
223.169,16.7732,-0.01043,1.0241,0.99285
223.769,16.79136,-0.01043,1.02942,0.99256
224.369,16.8095,-0.01042992,1.03431,0.99227
224.969,16.82765,-0.01043143,1.03863,0.99198
225.569,16.84585,-0.01069427,1.04269,0.99168
226.169,16.864,-0.01176529,1.04814,0.99139
226.769,16.8822,-0.01174964,1.05138,0.9911
227.369,16.90032,-0.01174998,1.05385,0.9908
227.969,16.91837,-0.01174659,1.06046,0.99051
228.569,16.93646,-0.01199295,1.06517,0.99021
229.169,16.95458,-0.01304949,1.06943,0.98992
229.769,16.97271,-0.01305984,1.07539,0.98962
230.369,16.99089,-0.01305975,1.07976,0.98932
230.969,17.00907,-0.01306987,1.08765,0.98903
231.569,17.0272,-0.01378977,1.09199,0.98873
232.169,17.04515,-0.01353349,1.09863,0.98843
232.769,17.06324,-0.01307519,1.10759,0.98813
233.369,17.0813,-0.01306992,1.11428,0.98783
233.969,17.09941,-0.01307,1.12177,0.98753
234.569,17.1177,-0.01307,1.13161,0.98723
235.169,17.13589,-0.01307,1.13955,0.98693
235.769,17.15404,-0.01307,1.1504,0.98663
236.369,17.17216,-0.01307005,1.15988,0.98633
236.969,17.19031,-0.01306635,1.17067,0.98603
237.569,17.20838,-0.01318084,1.1833,0.98572
238.169,17.22645,-0.01438278,1.19484,0.98542
238.769,17.2445,-0.01437936,1.20692,0.98512
239.369,17.26258,-0.01438002,1.22147,0.98481
239.969,17.28071,-0.01438,1.23331,0.98451
240.569,17.29887,-0.01438,1.25049,0.9842
241.169,17.31703,-0.01438,1.27133,0.9839
241.769,17.33517,-0.01438,1.28721,0.98359
242.369,17.35322,-0.01438,1.30718,0.98328
242.969,17.37129,-0.01438,1.33069,0.98298
243.569,17.38932,-0.01438002,1.3526,0.98267
244.169,17.4074,-0.01437975,1.37824,0.98236
244.769,17.42556,-0.01436816,1.4085,0.98205
245.369,17.44366,-0.01347336,1.43674,0.98175
245.969,17.46184,-0.01338889,1.46971,0.98144
246.569,17.48,-0.01339,1.50442,0.98113
247.169,17.49811,-0.01339,1.54312,0.98082
247.769,17.51624,-0.01339,1.59029,0.9805
248.369,17.53439,-0.01339,1.6381,0.98019
248.969,17.55256,-0.01339,1.69049,0.97988
249.569,17.5707,-0.01339,1.7498,0.97957
250.169,17.5889,-0.01339,1.81674,0.97926
250.769,17.607,-0.01339,1.89143,0.97894
251.369,17.62519,-0.01338942,1.96834,0.97863
251.969,17.64335,-0.01342315,2.0512,0.97832
252.569,17.66151,-0.01306819,2.14347,0.978
253.169,17.67965,-0.01306006,2.23773,0.97769
253.769,17.69785,-0.01305999,2.33753,0.97737
254.369,17.71601,-0.01306,2.43877,0.97706
254.969,17.7342,-0.01306,2.54123,0.97674
255.569,17.75238,-0.01306,2.63541,0.97642
256.169,17.7706,-0.01306,2.7213,0.9761
256.769,17.78884,-0.01306,2.79621,0.97579
257.369,17.8071,-0.01306,2.85702,0.97547
257.969,17.82542,-0.01306,2.90389,0.97515
258.569,17.84371,-0.01306026,2.92919,0.97483
259.169,17.86196,-0.0130519,2.92653,0.97451
259.769,17.88022,-0.01238207,2.90162,0.97419
260.369,17.89844,-0.01175648,2.84727,0.97387
260.969,17.9167,-0.01174975,2.76756,0.97355
261.569,17.93487,-0.01175,2.66739,0.97323
262.169,17.95303,-0.01174996,2.55211,0.97291
262.769,17.9712,-0.01175744,2.43789,0.97258
263.369,17.9893,-0.01221359,2.32186,0.97226
263.969,18.00739,-0.0127261,2.20872,0.97194
264.569,18.0255,-0.01272982,2.10387,0.97161
265.169,18.04338,-0.01273001,2.0071,0.97129
265.769,18.0614,-0.01273,1.91889,0.97096
266.369,18.07949,-0.01273,1.83729,0.97064
266.969,18.09749,-0.01273004,1.75855,0.97031
267.569,18.11564,-0.01272871,1.69252,0.96999
268.169,18.13362,-0.01273696,1.62936,0.96966
268.769,18.15162,-0.01340339,1.57933,0.96933
269.369,18.16958,-0.01338951,1.52591,0.96901
269.969,18.18755,-0.01339001,1.4817,0.96868
270.569,18.20549,-0.01339,1.44204,0.96835
271.169,18.22343,-0.01339,1.40587,0.96802
271.769,18.24139,-0.01339,1.37373,0.96769
272.369,18.25929,-0.01339,1.34574,0.96736
272.969,18.27721,-0.01339,1.31958,0.96703
273.569,18.2951,-0.01339,1.29879,0.9667
274.169,18.31302,-0.01339,1.27957,0.96637
274.769,18.33097,-0.01339,1.2597,0.96604
275.369,18.34891,-0.01339,1.24411,0.96571
275.969,18.36693,-0.01339,1.23071,0.96538
276.569,18.3849,-0.01339,1.21656,0.96504
277.169,18.40296,-0.01339004,1.20566,0.96471
277.769,18.421,-0.01338929,1.19923,0.96438
278.369,18.43895,-0.01336558,1.18842,0.96404
278.969,18.4569,-0.0137115,1.18035,0.96371
279.569,18.47482,-0.01371956,1.17853,0.96337
280.169,18.49275,-0.01371167,1.16976,0.96304
280.769,18.51073,-0.01496571,1.16352,0.9627
281.369,18.52873,-0.01504131,1.15976,0.96237
281.969,18.54675,-0.01504,1.15492,0.96203
282.569,18.56476,-0.01504,1.1521,0.96169
283.169,18.58278,-0.01504,1.15154,0.96135
283.769,18.60079,-0.01504,1.14952,0.96102
284.369,18.6188,-0.01504,1.14534,0.96068
284.969,18.6368,-0.01504,1.14429,0.96034
285.569,18.65479,-0.01504,1.14325,0.96
286.169,18.67278,-0.01504,1.14054,0.95966
286.769,18.6908,-0.01504,1.13837,0.95932
287.369,18.70885,-0.01504,1.13957,0.95898
287.969,18.72689,-0.01504,1.13787,0.95864
288.569,18.74496,-0.01504,1.13815,0.9583
289.169,18.76301,-0.01504003,1.139,0.95796
289.769,18.78106,-0.01503943,1.1384,0.95761
290.369,18.7991,-0.01502445,1.13696,0.95727
290.969,18.81721,-0.01572149,1.13476,0.95693
291.569,18.83525,-0.01569952,1.13505,0.95658
292.169,18.8533,-0.0157,1.13462,0.95624
292.769,18.87131,-0.0157,1.13375,0.9559
293.369,18.88929,-0.0157,1.13356,0.95555
293.969,18.90735,-0.0157,1.13486,0.95521
294.569,18.92546,-0.0157,1.13395,0.95486
295.169,18.94355,-0.0157,1.13422,0.95451
295.769,18.9617,-0.01569999,1.13557,0.95417
296.369,18.97973,-0.01569992,1.1371,0.95382
296.969,18.99778,-0.01571885,1.13656,0.95347
297.569,19.0158,-0.01453169,1.13613,0.95312
298.169,19.03385,-0.01437945,1.13577,0.95278
298.769,19.05189,-0.01437996,1.13522,0.95243
299.369,19.06997,-0.01438,1.13578,0.95208
299.969,19.08803,-0.01438,1.13762,0.95173
300.569,19.10613,-0.01437996,1.13807,0.95138
301.169,19.1243,-0.0143851,1.13583,0.95103
301.769,19.14235,-0.01493671,1.13511,0.95068
302.369,19.16047,-0.01569813,1.13732,0.95033
302.969,19.1786,-0.01569985,1.13884,0.94998
303.569,19.19665,-0.01570001,1.13813,0.94962
304.169,19.21471,-0.0157,1.13796,0.94927
304.769,19.23274,-0.01570004,1.13741,0.94892
305.369,19.25082,-0.01569489,1.13822,0.94857
305.969,19.26892,-0.01515347,1.13793,0.94821
306.569,19.287,-0.01438139,1.13727,0.94786
307.169,19.30515,-0.01438016,1.13799,0.9475
307.769,19.3232,-0.01437999,1.13858,0.94715
308.369,19.3413,-0.01438014,1.13877,0.94679
308.969,19.35942,-0.01438224,1.14035,0.94644
309.569,19.37756,-0.01513416,1.13987,0.94608
310.169,19.3957,-0.01569491,1.1408,0.94573
310.769,19.41381,-0.0157,1.14151,0.94537
311.369,19.43192,-0.0156969,1.14366,0.94501
311.969,19.45001,-0.01596561,1.14449,0.94465
312.569,19.4681,-0.01699838,1.14354,0.9443
313.169,19.4861,-0.01700984,1.14385,0.94394
313.769,19.50413,-0.01701001,1.14398,0.94358
314.369,19.52231,-0.01701,1.14449,0.94322
314.969,19.54045,-0.01701,1.14568,0.94286
315.569,19.5588,-0.01701,1.14607,0.9425
316.169,19.57705,-0.01701,1.1481,0.94214
316.769,19.5952,-0.01701,1.14764,0.94178
317.369,19.61335,-0.01701,1.14926,0.94142
317.969,19.6315,-0.01701,1.14823,0.94106
318.569,19.64966,-0.01701001,1.14765,0.94069
319.169,19.66774,-0.01700984,1.14749,0.94033
319.769,19.68587,-0.017006,1.14759,0.93997
320.369,19.70403,-0.01645298,1.14894,0.9396
320.969,19.7222,-0.01635578,1.15005,0.93924
321.569,19.74032,-0.01637583,1.14915,0.93888
322.169,19.7585,-0.01770338,1.14907,0.93851
322.769,19.77662,-0.01767905,1.14993,0.93815
323.369,19.79477,-0.01768002,1.14953,0.93778
323.969,19.81296,-0.01768,1.14993,0.93742
324.569,19.83117,-0.01768,1.15197,0.93705
325.169,19.84937,-0.01768,1.15133,0.93668
325.769,19.86759,-0.01768,1.1496,0.93632
326.369,19.88581,-0.01767994,1.15024,0.93595
326.969,19.90395,-0.01768512,1.15144,0.93558
327.569,19.9222,-0.01748291,1.15072,0.93522
328.169,19.9404,-0.01701694,1.1513,0.93485
328.769,19.95861,-0.01653282,1.15041,0.93448
329.369,19.97682,-0.01571271,1.15173,0.93411
329.969,19.995,-0.01569976,1.15102,0.93374
330.569,20.0132,-0.0157,1.15104,0.93337
331.169,20.03132,-0.01569998,1.1529,0.933
331.769,20.04954,-0.01570085,1.15153,0.93263
332.369,20.06776,-0.01568375,1.15204,0.93226
332.969,20.0859,-0.01698025,1.15227,0.93189
333.569,20.10427,-0.01702266,1.15386,0.93151
334.169,20.12257,-0.01701993,1.15462,0.93114
334.769,20.14085,-0.01702,1.15334,0.93077
335.369,20.15914,-0.01702,1.15446,0.9304
335.969,20.1772,-0.01702,1.15449,0.93002
336.569,20.19538,-0.01701994,1.15509,0.92965
337.169,20.21355,-0.01702028,1.15532,0.92928
337.769,20.23176,-0.01723034,1.15679,0.9289
338.369,20.25003,-0.0183482,1.15527,0.92853
338.969,20.26819,-0.01832967,1.15778,0.92815
339.569,20.2863,-0.01832997,1.158,0.92778
340.169,20.30435,-0.01833509,1.15648,0.9274
340.769,20.32245,-0.01889672,1.15609,0.92702
341.369,20.3406,-0.01964776,1.15662,0.92665
341.969,20.359,-0.0196499,1.15805,0.92627
342.569,20.3774,-0.01965,1.15916,0.92589
343.169,20.39586,-0.01965,1.16043,0.92552
343.769,20.41431,-0.01965,1.16029,0.92514
344.369,20.43259,-0.01965,1.1616,0.92476
344.969,20.4509,-0.0196499,1.16093,0.92438
345.569,20.46912,-0.01965372,1.16131,0.924
346.169,20.4874,-0.02004471,1.16004,0.92362
346.769,20.5057,-0.02097546,1.16117,0.92324
347.369,20.52395,-0.0209697,1.16179,0.92286
347.969,20.54222,-0.02097001,1.1629,0.92248
348.569,20.56048,-0.02097,1.16368,0.9221
349.169,20.57885,-0.02097,1.16189,0.92172
349.769,20.5971,-0.02097,1.16451,0.92134
350.369,20.61535,-0.02097,1.16396,0.92095
350.969,20.63363,-0.02097,1.16502,0.92057
351.569,20.6519,-0.02097,1.16491,0.92019
352.169,20.67023,-0.02097,1.16509,0.91981
352.769,20.6886,-0.02097,1.1663,0.91942
353.369,20.7068,-0.02097,1.16736,0.91904
353.969,20.7249,-0.02096995,1.16739,0.91865
354.569,20.74297,-0.0209722,1.16653,0.91827
355.169,20.76115,-0.02092437,1.16783,0.91788
355.769,20.77936,-0.02064163,1.16764,0.9175
356.369,20.7977,-0.02063853,1.16836,0.91711
356.969,20.8162,-0.02072602,1.16951,0.91673
357.569,20.83466,-0.02197522,1.17008,0.91634
358.169,20.85314,-0.02196007,1.16923,0.91595
358.769,20.8715,-0.02196001,1.16967,0.91557
359.369,20.8898,-0.02195877,1.16882,0.91518
359.969,20.90803,-0.02199135,1.16918,0.91479
360.569,20.9264,-0.02327513,1.17058,0.9144
361.169,20.94482,-0.02328077,1.17215,0.91401
361.769,20.96322,-0.02327997,1.17041,0.91363
362.369,20.98156,-0.02328,1.16982,0.91324
362.969,20.9999,-0.02328,1.17112,0.91285
363.569,21.0182,-0.02328,1.17104,0.91246
364.169,21.03651,-0.02327999,1.17054,0.91207
364.769,21.0549,-0.02328032,1.17117,0.91168
365.369,21.07328,-0.02328044,1.17251,0.91128
365.969,21.0917,-0.02362724,1.17438,0.91089
366.569,21.1101,-0.02360938,1.17447,0.9105
367.169,21.1285,-0.02361001,1.17628,0.91011
367.769,21.14688,-0.02361002,1.17493,0.90972
368.369,21.1652,-0.02361441,1.17591,0.90932
368.969,21.1835,-0.02428167,1.1764,0.90893
369.569,21.2018,-0.02491525,1.17678,0.90854
370.169,21.22017,-0.02492001,1.17868,0.90814
370.769,21.23858,-0.02492,1.17999,0.90775
371.369,21.25704,-0.02492,1.18049,0.90736
371.969,21.2755,-0.02492002,1.18242,0.90696
372.569,21.29394,-0.0249197,1.18451,0.90657
373.169,21.31232,-0.02490266,1.18649,0.90617
373.769,21.33071,-0.02558394,1.18919,0.90577
374.369,21.3491,-0.02663046,1.19143,0.90538
374.969,21.36744,-0.0265695,1.19243,0.90498
375.569,21.3858,-0.02657547,1.1944,0.90459
376.169,21.40425,-0.02692565,1.19809,0.90419
376.769,21.4226,-0.02689823,1.19975,0.90379
377.369,21.4411,-0.02692415,1.20037,0.90339
377.969,21.45956,-0.02821181,1.2021,0.90299
378.569,21.47794,-0.02822084,1.20494,0.9026
379.169,21.49643,-0.02821997,1.20763,0.9022
379.769,21.51489,-0.02822,1.21029,0.9018
380.369,21.53335,-0.02822,1.21226,0.9014
380.969,21.55186,-0.02822031,1.21918,0.901
381.569,21.57018,-0.02820164,1.22205,0.9006
382.169,21.58851,-0.0293488,1.2257,0.9002
382.769,21.6069,-0.02954019,1.22814,0.8998
383.369,21.62536,-0.02952474,1.23204,0.8994
383.969,21.64396,-0.03076949,1.2329,0.899
384.569,21.66251,-0.03084864,1.23752,0.89859
385.169,21.681,-0.03090747,1.241,0.89819
385.769,21.69951,-0.03217667,1.24662,0.89779
386.369,21.71799,-0.03217432,1.24859,0.89739
386.969,21.73646,-0.03280772,1.25055,0.89698
387.569,21.7549,-0.03348568,1.25636,0.89658
388.169,21.7734,-0.03348965,1.25757,0.89618
388.769,21.79189,-0.03431728,1.26121,0.89577
389.369,21.81045,-0.03511423,1.26502,0.89537
389.969,21.829,-0.03528947,1.26851,0.89496
390.569,21.84747,-0.03643191,1.27216,0.89456
391.169,21.86599,-0.03644,1.27535,0.89415
391.769,21.8844,-0.03642114,1.28044,0.89375
392.369,21.90289,-0.0376299,1.28405,0.89334
392.969,21.92141,-0.03775433,1.29056,0.89294
393.569,21.9399,-0.03884972,1.29468,0.89253
394.169,21.95845,-0.03930812,1.30127,0.89212
394.769,21.977,-0.04044704,1.30692,0.89172
395.369,21.99556,-0.04073321,1.31331,0.89131
395.969,22.01415,-0.04149265,1.31793,0.8909
396.569,22.0327,-0.04215306,1.32278,0.89049
397.169,22.05125,-0.04346829,1.32942,0.89008
397.769,22.0698,-0.0448527,1.33418,0.88967
398.369,22.08829,-0.04650013,1.33895,0.88927
398.969,22.1068,-0.04678412,1.34632,0.88886
399.569,22.12538,-0.04793817,1.352,0.88845
400.169,22.1439,-0.04978336,1.35698,0.88804
400.769,22.16252,-0.05121873,1.36284,0.88763
401.369,22.1811,-0.05151341,1.36815,0.88722
401.969,22.1997,-0.05301294,1.37582,0.8868
402.569,22.2182,-0.05398714,1.38203,0.88639
403.169,22.23674,-0.05505061,1.39057,0.88598
403.769,22.25536,-0.0567583,1.39569,0.88557
404.369,22.274,-0.0585348,1.40104,0.88516
404.969,22.2926,-0.06070876,1.40754,0.88475
405.569,22.31106,-0.06270603,1.41593,0.88433
406.169,22.3296,-0.06470917,1.42447,0.88392
406.769,22.34816,-0.06717601,1.43307,0.88351
407.369,22.36682,-0.0688424,1.4389,0.88309
407.969,22.3856,-0.07098362,1.44672,0.88268
408.569,22.4042,-0.07309144,1.4536,0.88226
409.169,22.42285,-0.07620465,1.46327,0.88185
409.769,22.44146,-0.07874425,1.4714,0.88144
410.369,22.46014,-0.08125378,1.47888,0.88102
410.969,22.47883,-0.0838524,1.48946,0.8806
411.569,22.49748,-0.08676849,1.49629,0.88019
412.169,22.51608,-0.08956662,1.50214,0.87977
412.769,22.5346,-0.09221581,1.51117,0.87936
413.369,22.5532,-0.09625176,1.51974,0.87894
413.969,22.5718,-0.09968767,1.52954,0.87852
414.569,22.5905,-0.10374,1.53809,0.87811
415.169,22.60922,-0.10719,1.54433,0.87769
415.769,22.6279,-0.11101,1.5534,0.87727
416.369,22.64655,-0.11557,1.55962,0.87685
416.969,22.6652,-0.12005,1.57022,0.87643
417.569,22.68383,-0.12495,1.57907,0.87602
418.169,22.7025,-0.12955,1.58803,0.8756
418.769,22.72117,-0.13516,1.59764,0.87518
419.369,22.73986,-0.14102,1.60629,0.87476
419.969,22.75856,-0.14667,1.60919,0.87434
420.569,22.7773,-0.15283,1.61249,0.87392
421.169,22.7959,-0.15912,1.59976,0.8735
421.769,22.8146,-0.16554,1.60419,0.87308
422.369,22.83331,-0.17092,1.60449,0.87266
422.969,22.85181,-0.17732,1.60511,0.87224
423.569,22.87053,-0.18421,1.60569,0.87181
424.169,22.88924,-0.19129,1.6107,0.87139
424.769,22.908,-0.1986,1.6187,0.87097
425.369,22.92693,-0.2065,1.62894,0.87055
425.969,22.94565,-0.21419,1.63659,0.87012
426.569,22.96438,-0.22241,1.64439,0.8697
427.169,22.9831,-0.23054,1.65398,0.86928
427.769,23.00176,-0.2391,1.66027,0.86885
428.369,23.02048,-0.24873,1.67295,0.86843
428.969,23.0392,-0.2592,1.6819,0.86801
429.569,23.0579,-0.26995,1.69326,0.86758
430.169,23.07672,-0.28064,1.6987,0.86716
430.769,23.09545,-0.29141,1.71195,0.86673
431.369,23.11424,-0.30243,1.72237,0.86631
431.969,23.133,-0.31369,1.73486,0.86588
432.569,23.15172,-0.32523,1.75222,0.86546
433.169,23.17047,-0.3377,1.77006,0.86503
433.769,23.18917,-0.35065,1.785,0.8646
434.369,23.20775,-0.36439,1.80284,0.86418
434.969,23.22653,-0.37864,1.81675,0.86375
435.569,23.2453,-0.39364,1.82882,0.86332
436.169,23.26405,-0.40844,1.8486,0.8629
436.769,23.283,-0.42373,1.86598,0.86247
437.369,23.30181,-0.43967,1.88319,0.86204
437.969,23.32062,-0.45605,1.90643,0.86161
438.569,23.33938,-0.47325,1.92489,0.86118
439.169,23.3582,-0.4903,1.95472,0.86076
439.769,23.37699,-0.50852,1.96927,0.86033
440.369,23.39586,-0.52894,1.99783,0.8599
440.969,23.41471,-0.54855,2.01359,0.85947
441.569,23.43348,-0.5695,2.03536,0.85904
442.169,23.4523,-0.59003,2.05429,0.85861
442.769,23.47111,-0.61141,2.07855,0.85818
443.369,23.4899,-0.63292,2.11549,0.85775
443.969,23.50879,-0.65669,2.14614,0.85732
444.569,23.52768,-0.68074,2.16716,0.85689
445.169,23.5466,-0.70534,2.19631,0.85645
445.769,23.56542,-0.73075,2.21633,0.85602
446.369,23.58418,-0.75685,2.25202,0.85559
446.969,23.6029,-0.78379,2.27297,0.85516
447.569,23.62173,-0.81187,2.28908,0.85473
448.169,23.64048,-0.83967,2.32164,0.85429
448.769,23.65945,-0.86852,2.34529,0.85386
449.369,23.67845,-0.89822,2.36658,0.85343
449.969,23.69739,-0.92942,2.36465,0.85299
450.569,23.71641,-0.96158,2.37764,0.85256
451.169,23.7353,-0.99433,2.41915,0.85213
451.769,23.75422,-1.02781,2.44877,0.85169
452.369,23.77321,-1.06171,2.47859,0.85126
452.969,23.7921,-1.09792,2.50491,0.85082
453.569,23.81099,-1.13501,2.52773,0.85039
454.169,23.82982,-1.17294,2.54943,0.84995
454.769,23.84871,-1.21136,2.56,0.84952
455.369,23.86771,-1.25035,2.56477,0.84908
455.969,23.88666,-1.29092,2.58748,0.84865
456.569,23.90567,-1.3313,2.60183,0.84821
457.169,23.92459,-1.3731,2.59852,0.84777
457.769,23.94355,-1.41528,2.60362,0.84734
458.369,23.96249,-1.45844,2.61604,0.8469
458.969,23.98142,-1.50241,2.62172,0.84646
459.569,24.0004,-1.54569,2.62463,0.84603
460.169,24.01931,-1.59045,2.62084,0.84559
460.769,24.0382,-1.63498,2.61203,0.84515
461.369,24.05712,-1.68139,2.61108,0.84471
461.969,24.076,-1.72742,2.60661,0.84427
462.569,24.0949,-1.77951,2.5989,0.84383
463.169,24.11384,-1.83762,2.59071,0.8434
463.769,24.1328,-1.8856,2.58591,0.84296
464.369,24.15176,-1.93267,2.57682,0.84252
464.969,24.17078,-1.98039,2.56565,0.84208
465.569,24.18976,-2.02843,2.55206,0.84164
466.169,24.20875,-2.07603,2.53483,0.8412
466.769,24.22768,-2.12297,2.51178,0.84076
467.369,24.24661,-2.1695,2.49043,0.84032
467.969,24.26553,-2.21566,2.46364,0.83988
468.569,24.28446,-2.26322,2.43445,0.83943
469.169,24.30344,-2.3074,2.39903,0.83899
469.769,24.32236,-2.35065,2.36586,0.83855
470.369,24.34132,-2.39388,2.32461,0.83811
470.969,24.36022,-2.44101,2.28344,0.83767
471.569,24.37912,-2.47247,2.23851,0.83723
472.169,24.39806,-2.51275,2.1918,0.83678
472.769,24.41701,-2.55006,2.13692,0.83634
473.369,24.43601,-2.58727,2.08275,0.8359
473.969,24.45494,-2.62535,2.02779,0.83545
474.569,24.47387,-2.65613,1.97098,0.83501
475.169,24.49271,-2.69271,1.913,0.83457
475.769,24.51156,-2.72148,1.84825,0.83412
476.369,24.53043,-2.7531,1.78879,0.83368
476.969,24.54932,-2.78134,1.72876,0.83324
477.569,24.56823,-2.80603,1.66634,0.83279
478.169,24.58715,-2.8331,1.60733,0.83235
478.769,24.60606,-2.85372,1.54442,0.8319
479.369,24.62495,-2.87722,1.486,0.83146
479.969,24.64386,-2.89588,1.42831,0.83101
480.569,24.6628,-2.91458,1.37003,0.83056
481.169,24.6817,-2.93273,1.31552,0.83012
481.769,24.70056,-2.9473,1.26531,0.82967
482.369,24.71945,-2.96359,1.21512,0.82923
482.969,24.73829,-2.97644,1.16896,0.82878
483.569,24.7572,-2.99161,1.12593,0.82833
484.169,24.77609,-3.00458,1.08227,0.82789
484.769,24.79495,-3.01467,1.04441,0.82744
485.369,24.81387,-3.02522,1.00655,0.82699
485.969,24.83279,-3.03351,0.96956,0.82654
486.569,24.8517,-3.04396,0.93576,0.82609
487.169,24.8707,-3.0525,0.90256,0.82565
487.769,24.88961,-3.06079,0.86803,0.8252
488.369,24.9086,-3.06941,0.83903,0.82475
488.969,24.92754,-3.07626,0.80993,0.8243
489.569,24.94641,-3.08362,0.78302,0.82385
490.169,24.96537,-3.08899,0.75582,0.8234
490.769,24.98424,-3.09565,0.72923,0.82295
491.369,25.0032,-3.10145,0.70408,0.8225
491.969,25.0223,-3.10831,0.67895,0.82205
492.569,25.04124,-3.11395,0.65552,0.8216
493.169,25.06028,-3.11846,0.63254,0.82115
493.769,25.0793,-3.1238,0.60936,0.8207
494.369,25.09825,-3.12805,0.58606,0.82025
494.969,25.11723,-3.13392,0.56781,0.8198
495.569,25.13605,-3.13837,0.54582,0.81935
496.169,25.1549,-3.14228,0.52764,0.8189
496.769,25.17384,-3.14671,0.50769,0.81845
497.369,25.19295,-3.14933,0.48757,0.818
497.969,25.2121,-3.15253,0.47003,0.81754
498.569,25.23134,-3.15539,0.45271,0.81709
499.169,25.2504,-3.15847,0.43704,0.81664
499.769,25.26944,-3.1616,0.42016,0.81619
500.369,25.2885,-3.16498,0.40374,0.81573
500.969,25.3076,-3.16705,0.38909,0.81528
501.569,25.32666,-3.1689,0.3743,0.81483
502.169,25.34569,-3.17145,0.35995,0.81437
502.769,25.3647,-3.17415,0.3488,0.81392
503.369,25.3838,-3.17706,0.33478,0.81347
503.969,25.4029,-3.17924,0.3224,0.81301
504.569,25.42204,-3.18108,0.309,0.81256
505.169,25.44116,-3.183,0.30013,0.8121
505.769,25.46031,-3.18564,0.28879,0.81165
506.369,25.47942,-3.18858,0.27816,0.81119
506.969,25.4985,-3.19064,0.26849,0.81074
507.569,25.51756,-3.19273,0.26113,0.81028
508.169,25.5366,-3.19509,0.25447,0.80983
508.769,25.5557,-3.19694,0.24561,0.80937
509.369,25.57485,-3.19871,0.24106,0.80892
509.969,25.59401,-3.20029,0.23154,0.80846
510.569,25.61319,-3.20192,0.22429,0.808
511.169,25.63232,-3.20356,0.21803,0.80755
511.769,25.65139,-3.20527,0.21226,0.80709
512.369,25.6704,-3.20696,0.21174,0.80663
512.969,25.68939,-3.20878,0.20509,0.80618
513.569,25.7086,-3.21009,0.19768,0.80572
514.169,25.7279,-3.21169,0.19742,0.80526
514.769,25.74728,-3.21328,0.19041,0.80481
515.369,25.76657,-3.21434,0.18503,0.80435
515.969,25.78574,-3.21541,0.1831,0.80389
516.569,25.80494,-3.21649,0.18128,0.80343
517.169,25.8241,-3.21728,0.17695,0.80297
517.769,25.84326,-3.21739,0.17193,0.80251
518.369,25.86242,-3.21846,0.17268,0.80206
518.969,25.88162,-3.21997,0.16875,0.8016
519.569,25.9007,-3.22111,0.16563,0.80114
520.169,25.91986,-3.22148,0.16366,0.80068
520.769,25.93908,-3.22405,0.16259,0.80022
521.369,25.95835,-3.22411,0.1598,0.79976
521.969,25.97779,-3.22557,0.15875,0.7993
522.569,25.997,-3.22578,0.15643,0.79884
523.169,26.01622,-3.22722,0.15415,0.79838
523.769,26.0354,-3.22716,0.15423,0.79792
524.369,26.05464,-3.22853,0.15314,0.79746
524.969,26.0739,-3.22984,0.15192,0.797
525.569,26.09316,-3.23135,0.15048,0.79654
526.169,26.1125,-3.23162,0.1496,0.79608
526.769,26.13167,-3.23292,0.14897,0.79561
527.369,26.15089,-3.23371,0.1486,0.79515
527.969,26.17006,-3.23442,0.14747,0.79469
528.569,26.18927,-3.23443,0.14674,0.79423
529.169,26.20863,-3.23443,0.1462,0.79377
529.769,26.228,-3.23553,0.14612,0.79331
530.369,26.24731,-3.23575,0.14585,0.79284
530.969,26.26656,-3.23782,0.14288,0.79238
531.569,26.2858,-3.23857,0.1444,0.79192
532.169,26.3051,-3.24018,0.14427,0.79146
532.769,26.3244,-3.2409,0.14175,0.79099
533.369,26.34372,-3.24156,0.14162,0.79053
533.969,26.36303,-3.24157,0.1428,0.79007
534.569,26.38235,-3.24213,0.14139,0.7896
535.169,26.4017,-3.24288,0.14102,0.78914
535.769,26.42098,-3.24291,0.14053,0.78867
536.369,26.4403,-3.24432,0.14075,0.78821
536.969,26.45962,-3.24431,0.14034,0.78775
537.569,26.4789,-3.24566,0.14045,0.78728
538.169,26.4982,-3.2457,0.145,0.78682
538.769,26.5176,-3.24733,0.15089,0.78635
539.369,26.5369,-3.24739,0.15146,0.78589
539.969,26.5562,-3.24884,0.15206,0.78542
540.569,26.5755,-3.24878,0.14967,0.78496
541.169,26.5947,-3.25063,0.1503,0.78449
541.769,26.61409,-3.25145,0.14973,0.78403
542.369,26.63348,-3.25145,0.14858,0.78356
542.969,26.6528,-3.25274,0.14864,0.78309
543.569,26.6722,-3.25277,0.14735,0.78263
544.169,26.6915,-3.25272,0.14792,0.78216
544.769,26.71087,-3.25413,0.14752,0.7817
545.369,26.7302,-3.2542,0.14812,0.78123
545.969,26.7493,-3.25565,0.1481,0.78076
546.569,26.7687,-3.25567,0.1469,0.7803
547.169,26.78799,-3.25695,0.14656,0.77983
547.769,26.8074,-3.25696,0.14633,0.77936
548.369,26.8269,-3.25826,0.14678,0.77889
548.969,26.8463,-3.25826,0.14661,0.77843
549.569,26.86565,-3.25823,0.1453,0.77796
550.169,26.885,-3.25961,0.14637,0.77749
550.769,26.9044,-3.25956,0.14663,0.77702
551.369,26.92369,-3.2608,0.1469,0.77655
551.969,26.94312,-3.26089,0.14721,0.77609
552.569,26.9625,-3.26089,0.14622,0.77562
553.169,26.9819,-3.2614,0.14617,0.77515
553.769,27.00126,-3.26213,0.14737,0.77468
554.369,27.02063,-3.2609,0.1476,0.77421
554.969,27.04,-3.26155,0.14583,0.77374
555.569,27.05943,-3.26221,0.1474,0.77327
556.169,27.0788,-3.26221,0.14623,0.7728
556.769,27.0982,-3.26221,0.14709,0.77233
557.369,27.11758,-3.26221,0.14559,0.77186
557.969,27.13702,-3.26233,0.14578,0.77139
558.569,27.1565,-3.26371,0.1472,0.77092
559.169,27.17594,-3.26436,0.15418,0.77045
559.769,27.1954,-3.26489,0.1536,0.76998
560.369,27.21477,-3.26568,0.1536,0.76951
560.969,27.2342,-3.26616,0.15384,0.76904
561.569,27.25351,-3.26616,0.15294,0.76857
562.169,27.2729,-3.26616,0.15331,0.7681
562.769,27.2923,-3.26669,0.15224,0.76763
563.369,27.3117,-3.26748,0.15177,0.76716
563.969,27.33117,-3.26709,0.15154,0.76669
564.569,27.3507,-3.26617,0.15057,0.76622
565.169,27.37017,-3.26628,0.15028,0.76575
565.769,27.3896,-3.2675,0.15189,0.76527
566.369,27.409,-3.26748,0.15209,0.7648
566.969,27.42822,-3.26749,0.15333,0.76433
567.569,27.4475,-3.26824,0.15367,0.76386
568.169,27.467,-3.26879,0.15449,0.76339
568.769,27.48641,-3.26878,0.15334,0.76291
569.369,27.5061,-3.27023,0.15511,0.76244
569.969,27.52562,-3.27047,0.1547,0.76197
570.569,27.54506,-3.27155,0.1541,0.76149
571.169,27.5646,-3.27154,0.1549,0.76102
571.769,27.58405,-3.27154,0.15493,0.76055
572.369,27.60349,-3.27155,0.15353,0.76008
572.969,27.623,-3.27256,0.15234,0.7596
573.569,27.64245,-3.27286,0.15282,0.75913
574.169,27.6619,-3.27286,0.15308,0.75865
574.769,27.68133,-3.27331,0.15274,0.75818
575.369,27.70082,-3.27418,0.15201,0.75771
575.969,27.7203,-3.27488,0.15299,0.75723
576.569,27.73981,-3.27549,0.15111,0.75676
577.169,27.7593,-3.27549,0.15121,0.75628
577.769,27.77872,-3.27545,0.1494,0.75581
578.369,27.7982,-3.27684,0.15072,0.75534
578.969,27.8177,-3.27681,0.1514,0.75486
579.569,27.8372,-3.27681,0.14924,0.75439
580.169,27.8568,-3.27681,0.15084,0.75391
580.769,27.87627,-3.27743,0.15178,0.75344
581.369,27.89579,-3.27812,0.15299,0.75296
581.969,27.9153,-3.27813,0.15172,0.75249
582.569,27.93481,-3.27813,0.15165,0.75201
583.169,27.9543,-3.27771,0.15035,0.75153
583.769,27.9738,-3.27681,0.14928,0.75106
584.369,27.99336,-3.27681,0.14982,0.75058
584.969,28.0128,-3.27812,0.1502,0.75011
585.569,28.0324,-3.27813,0.14988,0.74963
586.169,28.0518,-3.27813,0.14806,0.74915
586.769,28.07137,-3.27893,0.14926,0.74868
587.369,28.09093,-3.27944,0.14978,0.7482
587.969,28.11042,-3.27945,0.14889,0.74772
588.569,28.13007,-3.28055,0.14826,0.74725
589.169,28.14958,-3.2794,0.14832,0.74677
589.769,28.1691,-3.27945,0.14739,0.74629
590.369,28.18875,-3.27945,0.14641,0.74582
590.969,28.2083,-3.27994,0.14663,0.74534
591.569,28.2279,-3.28077,0.14378,0.74486
592.169,28.2475,-3.28079,0.14397,0.74439
592.769,28.2671,-3.2821,0.14632,0.74391
593.369,28.2866,-3.28209,0.14643,0.74343
593.969,28.3062,-3.28238,0.14575,0.74295
594.569,28.32576,-3.28341,0.14221,0.74247
595.169,28.3453,-3.28426,0.14124,0.742
595.769,28.365,-3.2847,0.14237,0.74152
596.369,28.38457,-3.28511,0.14212,0.74104
596.969,28.40408,-3.28602,0.14214,0.74056
597.569,28.4236,-3.28598,0.1425,0.74008
598.169,28.44322,-3.28741,0.14161,0.7396
598.769,28.46283,-3.28835,0.14119,0.73913
599.369,28.48242,-3.28867,0.14083,0.73865
599.969,28.50208,-3.28867,0.14246,0.73817
600.569,28.52165,-3.28864,0.14136,0.73769
601.169,28.5411,-3.29003,0.1372,0.73721
601.769,28.5607,-3.28999,0.13671,0.73673
602.369,28.5803,-3.28999,0.13579,0.73625
602.969,28.5999,-3.2913,0.13765,0.73577
603.569,28.61973,-3.2913,0.13804,0.73529
604.169,28.63937,-3.29158,0.13622,0.73481
604.769,28.659,-3.29263,0.13737,0.73433
605.369,28.6786,-3.2926,0.13495,0.73385
605.969,28.69828,-3.2939,0.1348,0.73337
606.569,28.71789,-3.29394,0.13449,0.73289
607.169,28.7376,-3.29389,0.13337,0.73241
607.769,28.75722,-3.2953,0.13296,0.73193
608.369,28.77685,-3.29527,0.13348,0.73145
608.969,28.79655,-3.29629,0.13363,0.73097
609.569,28.81615,-3.29657,0.13351,0.73049
610.169,28.8358,-3.29657,0.13477,0.73001
610.769,28.85544,-3.29656,0.13506,0.72953
611.369,28.87507,-3.29769,0.13334,0.72905
611.969,28.8948,-3.29789,0.13388,0.72857
612.569,28.9144,-3.29789,0.13209,0.72809
613.169,28.93415,-3.29748,0.13445,0.7276
613.769,28.95375,-3.2976,0.1343,0.72712
614.369,28.9734,-3.29789,0.13418,0.72664
614.969,28.99302,-3.29788,0.13224,0.72616
615.569,29.0127,-3.29855,0.13276,0.72568
616.169,29.0324,-3.29854,0.13235,0.7252
616.769,29.05208,-3.29941,0.13341,0.72472
617.369,29.07167,-3.29986,0.13315,0.72423
617.969,29.09119,-3.29986,0.13683,0.72375
618.569,29.1109,-3.29986,0.13621,0.72327
619.169,29.1306,-3.29986,0.13458,0.72279
619.769,29.15039,-3.30015,0.13371,0.7223
620.369,29.17016,-3.30128,0.1328,0.72182
620.969,29.1898,-3.30193,0.13446,0.72134
621.569,29.20948,-3.3026,0.13307,0.72086
622.169,29.22918,-3.30262,0.13417,0.72038
622.769,29.24868,-3.30352,0.13522,0.71989
623.369,29.26835,-3.30392,0.13702,0.71941
623.969,29.288,-3.30392,0.13456,0.71893
624.569,29.30767,-3.30392,0.13544,0.71844
625.169,29.32747,-3.30393,0.13687,0.71796
625.769,29.34716,-3.30497,0.13677,0.71748
626.369,29.36685,-3.30535,0.1368,0.71699
626.969,29.3864,-3.30566,0.13766,0.71651
627.569,29.40602,-3.30667,0.13446,0.71603
628.169,29.4257,-3.30696,0.13431,0.71554
628.769,29.44537,-3.307,0.13724,0.71506
629.369,29.46515,-3.30785,0.13734,0.71458
629.969,29.4849,-3.30832,0.13651,0.71409
630.569,29.50457,-3.30827,0.13522,0.71361
631.169,29.52425,-3.30967,0.13585,0.71312
631.769,29.54395,-3.30963,0.13732,0.71264
632.369,29.56359,-3.30958,0.13627,0.71216
632.969,29.5833,-3.311,0.137,0.71167
633.569,29.6029,-3.31095,0.13791,0.71119
634.169,29.6226,-3.31102,0.13741,0.7107
634.769,29.6422,-3.31229,0.14008,0.71022
635.369,29.6619,-3.31227,0.14057,0.70974
635.969,29.6815,-3.31228,0.1414,0.70925
636.569,29.70123,-3.31308,0.1405,0.70877
637.169,29.7209,-3.31359,0.14239,0.70828
637.769,29.7405,-3.31359,0.13991,0.7078
638.369,29.76009,-3.31359,0.13918,0.70731
638.969,29.77967,-3.3149,0.13956,0.70683
639.569,29.79935,-3.3149,0.14,0.70634
640.169,29.81905,-3.3149,0.14072,0.70586
640.769,29.8389,-3.31514,0.13899,0.70537
641.369,29.85865,-3.31623,0.14042,0.70489
641.969,29.87835,-3.31622,0.14169,0.7044
642.569,29.8981,-3.31622,0.14134,0.70392
643.169,29.9178,-3.31661,0.14144,0.70343
643.769,29.9374,-3.31753,0.14473,0.70294
644.369,29.95707,-3.31754,0.14592,0.70246
644.969,29.97675,-3.31753,0.1443,0.70197
645.569,29.99642,-3.31652,0.14559,0.70149
646.169,30.0161,-3.31622,0.14588,0.701
646.769,30.03575,-3.3164,0.14652,0.70052
647.369,30.05542,-3.31754,0.14695,0.70003
647.969,30.07517,-3.31755,0.14775,0.69954
648.569,30.09485,-3.31753,0.15339,0.69906
649.169,30.1145,-3.3189,0.15348,0.69857
649.769,30.1342,-3.31886,0.15146,0.69809
650.369,30.1538,-3.31885,0.15217,0.6976
650.969,30.17352,-3.32019,0.15611,0.69711
651.569,30.19323,-3.32018,0.1541,0.69663
652.169,30.21293,-3.32078,0.15553,0.69614
652.769,30.2326,-3.32279,0.15641,0.69565
653.369,30.2523,-3.32281,0.15773,0.69517
653.969,30.2719,-3.32279,0.15956,0.69468
654.569,30.29154,-3.32409,0.16057,0.69419
655.169,30.31125,-3.32413,0.16262,0.69371
655.769,30.33097,-3.3245,0.16157,0.69322
656.369,30.3507,-3.32543,0.16145,0.69273
656.969,30.3704,-3.32544,0.16194,0.69225
657.569,30.39,-3.32544,0.1656,0.69176
658.169,30.4096,-3.32571,0.16747,0.69127
658.769,30.42929,-3.32728,0.16826,0.69078
659.369,30.449,-3.32742,0.16801,0.6903
659.969,30.46892,-3.3275,0.16822,0.68981
660.569,30.4888,-3.32793,0.16805,0.68932
661.169,30.50856,-3.32678,0.16967,0.68884
661.769,30.5282,-3.32723,0.1731,0.68835
662.369,30.54774,-3.32808,0.17247,0.68786
662.969,30.56741,-3.32808,0.17099,0.68737
663.569,30.58711,-3.32808,0.17146,0.68688
664.169,30.6068,-3.32808,0.17377,0.6864
664.769,30.6265,-3.32939,0.17608,0.68591
665.369,30.64623,-3.32939,0.17733,0.68542
665.969,30.6659,-3.32939,0.17428,0.68493
666.569,30.68565,-3.32939,0.17665,0.68445
667.169,30.7054,-3.32935,0.17752,0.68396
667.769,30.7251,-3.33073,0.17886,0.68347
668.369,30.74488,-3.33071,0.17835,0.68298
668.969,30.7646,-3.33031,0.18195,0.68249
669.569,30.78425,-3.32941,0.181,0.68201
670.169,30.8039,-3.32938,0.18212,0.68152
670.769,30.82358,-3.33062,0.1834,0.68103
671.369,30.84328,-3.33072,0.18336,0.68054
671.969,30.86301,-3.33072,0.18492,0.68005
672.569,30.8828,-3.33072,0.18422,0.67956
673.169,30.90257,-3.3313,0.18277,0.67908
673.769,30.9223,-3.33204,0.18346,0.67859
674.369,30.942,-3.33204,0.18274,0.6781
674.969,30.9617,-3.33215,0.18299,0.67761
675.569,30.98139,-3.33334,0.18256,0.67712
676.169,31.0011,-3.33335,0.18519,0.67663
676.769,31.0209,-3.33335,0.18672,0.67615
677.369,31.0406,-3.33335,0.18323,0.67566
677.969,31.0603,-3.33405,0.18696,0.67517
678.569,31.0801,-3.33467,0.18603,0.67468
679.169,31.09993,-3.33467,0.18589,0.67419
679.769,31.1197,-3.33467,0.1874,0.6737
680.369,31.1394,-3.33467,0.1881,0.67321
680.969,31.15912,-3.33467,0.18699,0.67272
681.569,31.17885,-3.33519,0.18719,0.67223
682.169,31.19857,-3.33547,0.1895,0.67175
682.769,31.2183,-3.335,0.18786,0.67126
683.369,31.23807,-3.335,0.18833,0.67077
683.969,31.25778,-3.335,0.18831,0.67028
684.569,31.2775,-3.335,0.1858,0.66979
685.169,31.2973,-3.33514,0.18821,0.6693
685.769,31.31707,-3.33634,0.18591,0.66881
686.369,31.33687,-3.33632,0.19346,0.66832
686.969,31.3567,-3.33643,0.19249,0.66783
687.569,31.3764,-3.33765,0.19372,0.66734
688.169,31.39616,-3.33763,0.2527,0.66685
688.769,31.41593,-3.33763,0.23619,0.66636
689.369,31.43573,-3.33763,0.1913,0.66587
689.969,31.45553,-3.33762,0.15881,0.66538
690.569,31.47532,-3.33877,0.12783,0.6649
691.169,31.49503,-3.33895,0.10053,0.66441
691.769,31.5148,-3.33895,0.09086497,0.66392
692.369,31.53452,-3.33896,0.07165972,0.66343
692.969,31.5543,-3.33904,0.06159127,0.66294
693.569,31.57403,-3.33994,0.04988488,0.66245
694.169,31.5938,-3.33992,0.04253484,0.66196
694.769,31.61358,-3.33862,0.03678237,0.66147
695.369,31.63335,-3.33862,0.02806252,0.66098
695.969,31.65318,-3.33862,0.01955027,0.66049
696.369,31.66627,-3.33862,0.02034521,0.66016