File: 01_Data/Polyester_Bed_Skirt/STA/N2/30K_min/Polyester_Bed_Skirt_STA_N2_30KData_220524_R2.csv
##Temp./Â°C,Time/min,Mass loss(subtr.2)/mg,DSC(subtr.2)/(mW/mg),Sensit./(uV/mW)
48.64,10.00583,-0.00242,0.006446605,1.05399
49.24,10.53624,-0.001855123,0.0413735,1.05387
49.84,10.65499,-0.00285185,0.06778138,1.05374
50.44,10.7399,-0.002840296,0.09719939,1.05362
51.04,10.80832,-0.0006999329,0.12014,1.0535
51.64,10.86825,-0.0006806989,0.14544,1.05337
52.24,10.9205,-0.001176673,0.16472,1.05325
52.84,10.96931,-0.001072282,0.1854,1.05312
53.44,11.01406,-0.003366939,0.20288,1.053
54.04,11.05567,-0.00279428,0.22075,1.05287
54.64,11.0954,-0.00230185,0.2376,1.05274
55.24,11.1332,-0.001590166,0.25421,1.05261
55.84,11.1693,-0.0014858,0.26882,1.05248
56.44,11.20365,-0.00293258,0.28356,1.05236
57.04,11.23702,-0.002487755,0.29708,1.05223
57.64,11.26946,-0.001229856,0.31086,1.05209
58.24,11.30092,-0.00131812,0.32555,1.05196
58.84,11.3314,-0.0007672009,0.33673,1.05183
59.44,11.3612,-0.002359849,0.34992,1.0517
60.04,11.3904,-0.002344307,0.36102,1.05156
60.64,11.4189,-0.003616346,0.37395,1.05143
61.24,11.44685,-0.0034226,0.38412,1.0513
61.84,11.47436,-0.002495955,0.39375,1.05116
62.44,11.50131,-0.001323215,0.4042,1.05102
63.04,11.52786,-0.002649147,0.41432,1.05089
63.64,11.5541,-0.003208963,0.42422,1.05075
64.24,11.57996,-0.00319345,0.43377,1.05061
64.84,11.60547,-0.00193222,0.4417,1.05047
65.44,11.63067,-0.001549021,0.45185,1.05033
66.04,11.65568,-0.001614194,0.46233,1.05019
66.64,11.68033,-0.00184925,0.47052,1.05005
67.24,11.70465,-0.001802846,0.47924,1.04991
67.84,11.72887,-0.002769334,0.48696,1.04977
68.44,11.75296,-0.003302179,0.49424,1.04963
69.04,11.77661,-0.00261345,0.50472,1.04949
69.64,11.80028,-0.001896205,0.51273,1.04934
70.24,11.82355,-0.002456143,0.52163,1.0492
70.84,11.847,-0.002732752,0.53002,1.04905
71.44,11.87009,-0.002817655,0.53527,1.04891
72.04,11.8931,-0.0028254,0.5424,1.04876
72.64,11.9161,-0.003727839,0.55218,1.04861
73.24,11.93887,-0.003482465,0.55709,1.04846
73.84,11.96163,-0.002766,0.56291,1.04832
74.44,11.9842,-0.002855245,0.56962,1.04817
75.04,12.00666,-0.00274691,0.57052,1.04802
75.64,12.0289,-0.003438707,0.57538,1.04787
76.24,12.05112,-0.003571557,0.57765,1.04772
76.84,12.07322,-0.00323092,0.58297,1.04757
77.44,12.09504,-0.002974444,0.5834,1.04741
78.04,12.1166,-0.002809683,0.58315,1.04726
78.64,12.13837,-0.00342225,0.5797,1.04711
79.24,12.16005,-0.002733825,0.57634,1.04695
79.84,12.18191,-0.002663233,0.57587,1.0468
80.44,12.20358,-0.00253106,0.57305,1.04664
81.04,12.22516,-0.00274586,0.5714,1.04649
81.64,12.24675,-0.00391499,0.56975,1.04633
82.24,12.26821,-0.00287477,0.56654,1.04617
82.84,12.2895,-0.00283049,0.56352,1.04602
83.44,12.31076,-0.003444014,0.56061,1.04586
84.04,12.3319,-0.00275848,0.56146,1.0457
84.64,12.35303,-0.00345486,0.5585,1.04554
85.24,12.37418,-0.00286744,0.55786,1.04538
85.84,12.3952,-0.002781358,0.55592,1.04522
86.44,12.41618,-0.002618776,0.55318,1.04505
87.04,12.43705,-0.002467277,0.55261,1.04489
87.64,12.45777,-0.002409183,0.54976,1.04473
88.24,12.47855,-0.002275288,0.55122,1.04457
88.84,12.4992,-0.002209929,0.54851,1.0444
89.44,12.51994,-0.00256311,0.54627,1.04424
90.04,12.54062,-0.003247939,0.5473,1.04407
90.64,12.56121,-0.003183175,0.54497,1.04391
91.24,12.58169,-0.003311992,0.54489,1.04374
91.84,12.60228,-0.00329193,0.54095,1.04357
92.44,12.62279,-0.00290424,0.54087,1.0434
93.04,12.64317,-0.00329341,0.53918,1.04323
93.64,12.6637,-0.00328669,0.53862,1.04307
94.24,12.68419,-0.002084906,0.53804,1.0429
94.84,12.70467,-0.001978508,0.53717,1.04273
95.44,12.72509,-0.001989676,0.53675,1.04255
96.04,12.74543,-0.0009636569,0.53637,1.04238
96.64,12.76578,-0.001970186,0.53497,1.04221
97.24,12.78608,-0.001966673,0.53715,1.04204
97.84,12.8063,-0.0013715,0.5381,1.04186
98.44,12.82647,-0.00198203,0.53733,1.04169
99.04,12.84666,-0.001972437,0.53784,1.04151
99.64,12.86686,-0.002263238,0.53751,1.04134
100.24,12.88715,-0.001978211,0.53922,1.04116
100.84,12.90728,-0.00197352,0.54243,1.04099
101.44,12.92741,-0.001162195,0.54068,1.04081
102.04,12.94765,-0.001994337,0.54262,1.04063
102.64,12.96785,-0.001979652,0.54366,1.04045
103.24,12.98799,-0.001983378,0.54654,1.04027
103.84,13.00807,-0.002521222,0.55011,1.04009
104.44,13.0281,-0.00329798,0.54985,1.03991
105.04,13.04831,-0.00212669,0.55192,1.03973
105.64,13.06846,-0.001978711,0.55385,1.03955
106.24,13.0886,-0.001980104,0.55724,1.03937
106.84,13.10875,-0.001975703,0.55959,1.03919
107.44,13.1288,-0.001354674,0.56247,1.039
108.04,13.149,-0.0007627608,0.56542,1.03882
108.64,13.16905,-0.00201592,0.57085,1.03863
109.24,13.1891,-0.000771317,0.57304,1.03845
109.84,13.20909,-0.0006574695,0.57559,1.03826
110.44,13.22921,-0.0007696895,0.57993,1.03808
111.04,13.2492,-0.001997476,0.58376,1.03789
111.64,13.2693,-0.001979333,0.58536,1.0377
112.24,13.28931,-0.001998099,0.58952,1.03751
112.84,13.30926,-0.0007628507,0.59372,1.03732
113.44,13.32916,-0.0006408222,0.59734,1.03713
114.04,13.3491,-0.001869775,0.60154,1.03694
114.64,13.36912,-0.001981293,0.60527,1.03675
115.24,13.3891,-0.001980248,0.61082,1.03656
115.84,13.40916,-0.001965783,0.61426,1.03637
116.44,13.4291,-0.001041716,0.6158,1.03618
117.04,13.4489,-0.001995454,0.62159,1.03598
117.64,13.4688,-0.001979696,0.62657,1.03579
118.24,13.48859,-0.001980005,0.63036,1.0356
118.84,13.5084,-0.001980028,0.63403,1.0354
119.44,13.5282,-0.001978641,0.63805,1.03521
120.04,13.5482,-0.002061891,0.64053,1.03501
120.64,13.56799,-0.002633566,0.64493,1.03481
121.24,13.58792,-0.002623842,0.64905,1.03462
121.84,13.60767,-0.00332475,0.65218,1.03442
122.44,13.62742,-0.003261435,0.65767,1.03422
123.04,13.64714,-0.001964916,0.65876,1.03402
123.64,13.66685,-0.00198025,0.6638,1.03382
124.24,13.6866,-0.001979942,0.66798,1.03362
124.84,13.70621,-0.001981361,0.6717,1.03342
125.44,13.7259,-0.002645607,0.67548,1.03322
126.04,13.74554,-0.00329887,0.6797,1.03302
126.64,13.7652,-0.00330897,0.68318,1.03281
127.24,13.7849,-0.0019992,0.68723,1.03261
127.84,13.80454,-0.001979491,0.69232,1.03241
128.44,13.8241,-0.001980013,0.69542,1.0322
129.04,13.8437,-0.001979999,0.69932,1.032
129.64,13.8632,-0.001980023,0.70413,1.03179
130.24,13.8827,-0.001978835,0.70855,1.03158
130.84,13.9023,-0.00206901,0.71118,1.03138
131.44,13.9218,-0.00294083,0.71326,1.03117
132.04,13.94125,-0.002147401,0.71741,1.03096
132.64,13.96076,-0.001976537,0.72027,1.03075
133.24,13.98016,-0.001560706,0.72533,1.03054
133.84,13.9996,-0.0006717525,0.73113,1.03033
134.44,14.01905,-0.00067001,0.73235,1.03012
135.04,14.03839,-0.0006700456,0.73521,1.02991
135.64,14.0578,-0.0006663604,0.7407,1.0297
136.24,14.0772,-0.001114921,0.74272,1.02949
136.84,14.0965,-0.002370085,0.74609,1.02928
137.44,14.1158,-0.0029552,0.75009,1.02906
138.04,14.13517,-0.0029601,0.75333,1.02885
138.64,14.15444,-0.002959999,0.75835,1.02863
139.24,14.1737,-0.00295997,0.76106,1.02842
139.84,14.19294,-0.00296058,0.7642,1.0282
140.44,14.2122,-0.003264523,0.7676,1.02799
141.04,14.23138,-0.0042861,0.77122,1.02777
141.64,14.2506,-0.00427888,0.77407,1.02755
142.24,14.26975,-0.004330641,0.77776,1.02733
142.84,14.28885,-0.002918542,0.78237,1.02712
143.44,14.308,-0.002970992,0.78448,1.0269
144.04,14.3271,-0.002969985,0.78866,1.02668
144.64,14.3463,-0.00297,0.78945,1.02646
145.24,14.36549,-0.00297,0.79296,1.02624
145.84,14.38465,-0.00297,0.79466,1.02601
146.44,14.40376,-0.00297,0.79918,1.02579
147.04,14.42286,-0.00297,0.80391,1.02557
147.64,14.44186,-0.00297007,0.80582,1.02535
148.24,14.46088,-0.002967596,0.80938,1.02512
148.84,14.47989,-0.002571675,0.81316,1.0249
149.44,14.4989,-0.002613929,0.81557,1.02467
150.04,14.51799,-0.00296839,0.81822,1.02445
150.64,14.537,-0.00297006,0.81913,1.02422
151.24,14.55589,-0.00297,0.82029,1.02399
151.84,14.57482,-0.00297,0.82416,1.02377
152.44,14.59375,-0.00297,0.8255,1.02354
153.04,14.61271,-0.00297,0.82812,1.02331
153.64,14.6318,-0.002970004,0.83222,1.02308
154.24,14.6508,-0.002969667,0.83046,1.02285
154.84,14.66968,-0.002988915,0.83719,1.02262
155.44,14.68855,-0.001789564,0.83829,1.02239
156.04,14.7074,-0.001648814,0.84186,1.02216
156.64,14.72625,-0.001649998,0.84409,1.02193
157.24,14.74516,-0.001649338,0.84529,1.0217
157.84,14.7641,-0.001848255,0.84686,1.02146
158.44,14.783,-0.002985867,0.84929,1.02123
159.04,14.8018,-0.00296971,0.85188,1.021
159.64,14.82065,-0.00296778,0.85377,1.02076
160.24,14.8395,-0.00299122,0.85893,1.02053
160.84,14.85837,-0.00361586,0.86115,1.02029
161.44,14.8772,-0.003620214,0.86283,1.02005
162.04,14.89599,-0.00362025,0.86447,1.01982
162.64,14.9148,-0.003610332,0.867,1.01958
163.24,14.93361,-0.002822135,0.86897,1.01934
163.84,14.95248,-0.00230006,0.87017,1.0191
164.44,14.9713,-0.002299907,0.8734,1.01886
165.04,14.9901,-0.002300004,0.87199,1.01862
165.64,15.0089,-0.0023,0.87767,1.01838
166.24,15.0277,-0.0023,0.87825,1.01814
166.84,15.04646,-0.002300004,0.8806,1.0179
167.44,15.06524,-0.002300164,0.88368,1.01766
168.04,15.08399,-0.0022821,0.88469,1.01742
168.64,15.10275,-0.003523589,0.89037,1.01717
169.24,15.12146,-0.0036214,0.88959,1.01693
169.84,15.14003,-0.003619983,0.89394,1.01669
170.44,15.1585,-0.00361999,0.89817,1.01644
171.04,15.1771,-0.003621317,0.89849,1.0162
171.64,15.19575,-0.003517084,0.90055,1.01595
172.24,15.21442,-0.002282147,0.90086,1.01571
172.84,15.2333,-0.002300193,0.9026,1.01546
173.44,15.25211,-0.0023,0.9051,1.01521
174.04,15.27086,-0.0023,0.90891,1.01496
174.64,15.2896,-0.002300001,0.90986,1.01471
175.24,15.3083,-0.002299948,0.91142,1.01447
175.84,15.32695,-0.002301174,0.91365,1.01422
176.44,15.34561,-0.002309571,0.9163,1.01397
177.04,15.3642,-0.0009649992,0.91959,1.01371
177.64,15.3828,-0.000955878,0.921,1.01346
178.24,15.40143,-0.001316963,0.92256,1.01321
178.84,15.42,-0.001671445,0.92535,1.01296
179.44,15.43864,-0.001656001,0.92697,1.01271
180.04,15.45721,-0.002832235,0.93034,1.01245
180.64,15.47579,-0.00291558,0.93225,1.0122
181.24,15.49436,-0.004321071,0.93386,1.01194
181.84,15.51278,-0.00359451,0.93475,1.01169
182.44,15.5311,-0.00297576,0.93838,1.01143
183.04,15.54943,-0.002969763,0.93953,1.01118
183.64,15.5679,-0.002970005,0.94128,1.01092
184.24,15.58646,-0.00297,0.94302,1.01066
184.84,15.6051,-0.00297,0.94703,1.01041
185.44,15.62364,-0.00297,0.94806,1.01015
186.04,15.6421,-0.00297,0.95006,1.00989
186.64,15.6605,-0.00297,0.9546,1.00963
187.24,15.67903,-0.00297,0.95742,1.00937
187.84,15.69745,-0.00297,0.95938,1.00911
188.44,15.7159,-0.00297,0.95977,1.00885
189.04,15.73426,-0.00297,0.96143,1.00859
189.64,15.7526,-0.00297,0.96381,1.00832
190.24,15.77095,-0.00297,0.96572,1.00806
190.84,15.7893,-0.00297,0.96777,1.0078
191.44,15.80766,-0.00297,0.96748,1.00754
192.04,15.82603,-0.00297,0.97215,1.00727
192.64,15.84433,-0.002969916,0.97445,1.00701
193.24,15.86249,-0.00297478,0.97795,1.00674
193.84,15.8806,-0.003436261,0.98093,1.00648
194.44,15.89889,-0.004291311,0.97978,1.00621
195.04,15.91721,-0.004289788,0.98064,1.00594
195.64,15.9357,-0.004290007,0.98422,1.00568
196.24,15.95416,-0.00429,0.98852,1.00541
196.84,15.97246,-0.00429,0.9908,1.00514
197.44,15.9906,-0.00429026,0.99225,1.00487
198.04,16.0088,-0.004278004,0.99606,1.0046
198.64,16.02711,-0.003471094,0.99711,1.00433
199.24,16.04549,-0.00297119,0.9986,1.00406
199.84,16.064,-0.002969856,1.00172,1.00379
200.44,16.08238,-0.002970005,1.00426,1.00352
201.04,16.10065,-0.00297,1.00553,1.00325
201.64,16.11883,-0.00297,1.01018,1.00297
202.24,16.13703,-0.00297,1.01324,1.0027
202.84,16.1553,-0.00297,1.01668,1.00243
203.44,16.1734,-0.00297,1.01856,1.00215
204.04,16.19152,-0.002969995,1.02105,1.00188
204.64,16.2096,-0.002970377,1.02224,1.0016
205.24,16.22768,-0.002959056,1.0254,1.00133
205.84,16.24605,-0.003978545,1.02727,1.00105
206.44,16.2644,-0.00428788,1.03119,1.00077
207.04,16.2829,-0.004290085,1.03291,1.0005
207.64,16.30128,-0.004289998,1.03639,1.00022
208.24,16.31949,-0.00429,1.03786,0.99994
208.84,16.33771,-0.00429,1.03927,0.99966
209.44,16.35589,-0.00429,1.04409,0.99938
210.04,16.3741,-0.00429,1.04391,0.9991
210.64,16.39228,-0.00429,1.04853,0.99882
211.24,16.41035,-0.004290098,1.05309,0.99854
211.84,16.42858,-0.004285845,1.05563,0.99826
212.44,16.44685,-0.003867808,1.05876,0.99798
213.04,16.4651,-0.002966295,1.06301,0.9977
213.64,16.48348,-0.002970255,1.06583,0.99741
214.24,16.5016,-0.00297,1.06746,0.99713
214.84,16.51973,-0.00296996,1.07082,0.99685
215.44,16.53792,-0.00296708,1.07267,0.99656
216.04,16.55613,-0.003266002,1.07813,0.99628
216.64,16.57442,-0.004276407,1.08321,0.99599
217.24,16.5925,-0.004289999,1.08598,0.99571
217.84,16.61063,-0.004289839,1.0885,0.99542
218.44,16.62876,-0.004298155,1.0913,0.99513
219.04,16.64687,-0.004643983,1.09727,0.99484
219.64,16.66514,-0.004620479,1.099,0.99456
220.24,16.68335,-0.00461989,1.10433,0.99427
220.84,16.7015,-0.00462265,1.10758,0.99398
221.44,16.7197,-0.004592092,1.11027,0.99369
222.04,16.7379,-0.00328059,1.11391,0.9934
222.64,16.75602,-0.00330091,1.1217,0.99311
223.24,16.7742,-0.003299982,1.12589,0.99282
223.84,16.79235,-0.0033,1.12699,0.99253
224.44,16.81054,-0.0033,1.13262,0.99223
225.04,16.82874,-0.0033,1.139,0.99194
225.64,16.84686,-0.0033,1.14312,0.99165
226.24,16.86501,-0.0033,1.14619,0.99136
226.84,16.88309,-0.0033,1.15067,0.99106
227.44,16.90101,-0.0033,1.15585,0.99077
228.04,16.919,-0.0033,1.16107,0.99047
228.64,16.93715,-0.00330003,1.16687,0.99018
229.24,16.95536,-0.003298858,1.17349,0.98988
229.84,16.97374,-0.0033275,1.17992,0.98959
230.44,16.99203,-0.004601592,1.18245,0.98929
231.04,17.01013,-0.00461093,1.19037,0.98899
231.64,17.02824,-0.004609975,1.19747,0.98869
232.24,17.04634,-0.00461,1.20482,0.98839
232.84,17.06448,-0.00461,1.21124,0.9881
233.44,17.08266,-0.00461,1.21613,0.9878
234.04,17.1008,-0.00461,1.22594,0.9875
234.64,17.1189,-0.00461,1.23484,0.9872
235.24,17.13709,-0.00461,1.2441,0.9869
235.84,17.1553,-0.00461,1.25434,0.98659
236.44,17.17343,-0.00461,1.26497,0.98629
237.04,17.19158,-0.00461,1.27623,0.98599
237.64,17.2097,-0.00461,1.28975,0.98569
238.24,17.22777,-0.00461,1.29991,0.98538
238.84,17.2459,-0.00461,1.31117,0.98508
239.44,17.26405,-0.00461,1.32754,0.98478
240.04,17.28219,-0.004610002,1.34321,0.98447
240.64,17.30029,-0.004609969,1.35892,0.98417
241.24,17.31825,-0.004609141,1.37666,0.98386
241.84,17.33624,-0.004738106,1.39482,0.98356
242.44,17.35427,-0.00594768,1.41382,0.98325
243.04,17.3724,-0.005930089,1.43713,0.98294
243.64,17.3907,-0.005881645,1.4607,0.98263
244.24,17.40894,-0.007299838,1.48734,0.98233
244.84,17.42717,-0.00724905,1.51452,0.98202
245.44,17.44533,-0.007248025,1.54596,0.98171
246.04,17.46343,-0.006492198,1.57966,0.9814
246.64,17.48157,-0.005935106,1.61562,0.98109
247.24,17.4997,-0.005929959,1.65647,0.98078
247.84,17.51778,-0.00593,1.70021,0.98047
248.44,17.5359,-0.00593001,1.75115,0.98016
249.04,17.55401,-0.005929836,1.80561,0.97985
249.64,17.5721,-0.005928433,1.86353,0.97953
250.24,17.59025,-0.005155978,1.92952,0.97922
250.84,17.6084,-0.004615077,2.00252,0.97891
251.44,17.62663,-0.004609963,2.0794,0.97859
252.04,17.64481,-0.004610807,2.16513,0.97828
252.64,17.66309,-0.004548968,2.26225,0.97796
253.24,17.68133,-0.005616245,2.36554,0.97765
253.84,17.69956,-0.005599901,2.46697,0.97733
254.44,17.71783,-0.00559999,2.57785,0.97702
255.04,17.73601,-0.0056,2.68278,0.9767
255.64,17.75421,-0.0056,2.78486,0.97638
256.24,17.7725,-0.0056,2.87727,0.97607
256.84,17.79074,-0.0056,2.94959,0.97575
257.44,17.80901,-0.005600002,3.00588,0.97543
258.04,17.8273,-0.005599941,3.03544,0.97511
258.64,17.84551,-0.005599511,3.03809,0.97479
259.24,17.86373,-0.005801645,3.0138,0.97447
259.84,17.88196,-0.0061704,2.95993,0.97415
260.44,17.90024,-0.004937491,2.88101,0.97383
261.04,17.91853,-0.004949778,2.78362,0.97351
261.64,17.9368,-0.004950018,2.67412,0.97319
262.24,17.9551,-0.00494998,2.5564,0.97287
262.84,17.97326,-0.00495028,2.44322,0.97255
263.44,17.99142,-0.004963265,2.33271,0.97222
264.04,18.0095,-0.003726,2.22694,0.9719
264.64,18.02754,-0.00410851,2.13056,0.97158
265.24,18.04543,-0.004941966,2.0407,0.97125
265.84,18.0634,-0.004939735,1.95952,0.97093
266.44,18.08139,-0.00493999,1.88513,0.9706
267.04,18.09939,-0.004940056,1.8139,0.97028
267.64,18.1175,-0.00495226,1.75228,0.96995
268.24,18.13553,-0.005964122,1.69451,0.96962
268.84,18.15353,-0.006262574,1.64638,0.9693
269.44,18.17152,-0.006260075,1.60033,0.96897
270.04,18.1895,-0.00626007,1.55964,0.96864
270.64,18.20753,-0.006258097,1.52242,0.96831
271.24,18.22549,-0.00624548,1.48904,0.96798
271.84,18.24353,-0.007616077,1.46036,0.96765
272.44,18.26151,-0.007578997,1.43228,0.96732
273.04,18.27947,-0.007580005,1.41174,0.96699
273.64,18.29743,-0.00758,1.3909,0.96666
274.24,18.31527,-0.00758,1.37273,0.96633
274.84,18.33323,-0.00758,1.35665,0.966
275.44,18.3512,-0.00758002,1.34222,0.96567
276.04,18.36919,-0.00757888,1.33015,0.96534
276.64,18.3872,-0.007604517,1.3197,0.965
277.24,18.4052,-0.0066014,1.30856,0.96467
277.84,18.42313,-0.006589052,1.30068,0.96434
278.44,18.4411,-0.006590021,1.29313,0.964
279.04,18.4591,-0.00659,1.2881,0.96367
279.64,18.47707,-0.00659,1.28153,0.96333
280.24,18.4951,-0.00659,1.27689,0.963
280.84,18.51308,-0.00659,1.27252,0.96266
281.44,18.5311,-0.00659,1.27146,0.96233
282.04,18.54919,-0.00659,1.26625,0.96199
282.64,18.56716,-0.00659,1.26313,0.96165
283.24,18.58522,-0.00659,1.26112,0.96131
283.84,18.60324,-0.00659,1.25718,0.96098
284.44,18.62122,-0.00659,1.25508,0.96064
285.04,18.63924,-0.00659,1.25698,0.9603
285.64,18.65713,-0.00659,1.25481,0.95996
286.24,18.67505,-0.00659,1.25391,0.95962
286.84,18.69306,-0.00659,1.25243,0.95928
287.44,18.71115,-0.00658985,1.25052,0.95894
288.04,18.7293,-0.006599041,1.24942,0.9586
288.64,18.74736,-0.006950845,1.24922,0.95826
289.24,18.76543,-0.00692026,1.24898,0.95792
289.84,18.78346,-0.006919965,1.2494,0.95757
290.44,18.80152,-0.00692,1.2494,0.95723
291.04,18.81962,-0.00692,1.24995,0.95689
291.64,18.8377,-0.00692,1.25082,0.95654
292.24,18.85575,-0.00692,1.25016,0.9562
292.84,18.87376,-0.00692,1.24977,0.95585
293.44,18.89177,-0.00692,1.24931,0.95551
294.04,18.9098,-0.00692,1.2501,0.95516
294.64,18.92783,-0.00692,1.25112,0.95482
295.24,18.94588,-0.00692,1.24984,0.95447
295.84,18.96396,-0.00692,1.25079,0.95413
296.44,18.98198,-0.00692,1.25089,0.95378
297.04,19.00006,-0.006920003,1.25223,0.95343
297.64,19.01819,-0.00692012,1.25211,0.95308
298.24,19.03625,-0.00691066,1.25296,0.95274
298.84,19.05432,-0.006556595,1.25317,0.95239
299.44,19.07225,-0.00658984,1.25284,0.95204
300.04,19.09025,-0.006590033,1.25465,0.95169
300.64,19.10835,-0.006589999,1.25527,0.95134
301.24,19.1265,-0.00659,1.25562,0.95099
301.84,19.14472,-0.006590019,1.25706,0.95064
302.44,19.16287,-0.00658867,1.25614,0.95029
303.04,19.18094,-0.006633924,1.25657,0.94993
303.64,19.19899,-0.007906835,1.25788,0.94958
304.24,19.21702,-0.007910884,1.25959,0.94923
304.84,19.23503,-0.007909974,1.25855,0.94888
305.44,19.25309,-0.00791,1.25773,0.94852
306.04,19.27113,-0.00791,1.25923,0.94817
306.64,19.28925,-0.00791,1.26073,0.94782
307.24,19.3074,-0.00791,1.26062,0.94746
307.84,19.32549,-0.00791,1.2608,0.94711
308.44,19.3436,-0.007909977,1.26208,0.94675
309.04,19.3617,-0.007910917,1.26321,0.9464
309.64,19.37978,-0.00789955,1.26322,0.94604
310.24,19.3979,-0.00689697,1.26352,0.94568
310.84,19.416,-0.00692107,1.26786,0.94533
311.44,19.434,-0.00691998,1.26654,0.94497
312.04,19.4521,-0.00692,1.26682,0.94461
312.64,19.4702,-0.00692,1.26751,0.94425
313.24,19.4884,-0.00692,1.26748,0.94389
313.84,19.50658,-0.00692,1.26708,0.94354
314.44,19.5247,-0.006919939,1.26792,0.94318
315.04,19.54287,-0.006924353,1.26887,0.94282
315.64,19.56091,-0.007432792,1.26913,0.94246
316.24,19.579,-0.007909171,1.27099,0.9421
316.84,19.59708,-0.007910196,1.27054,0.94174
317.44,19.61514,-0.00791,1.27061,0.94137
318.04,19.63325,-0.007909973,1.27,0.94101
318.64,19.65144,-0.007908707,1.27281,0.94065
319.24,19.66957,-0.008063284,1.27226,0.94029
319.84,19.68766,-0.008563518,1.27336,0.93992
320.44,19.70577,-0.00856999,1.27319,0.93956
321.04,19.7239,-0.008572471,1.27277,0.9392
321.64,19.742,-0.008434515,1.27392,0.93883
322.24,19.76018,-0.008238282,1.27487,0.93847
322.84,19.77834,-0.008239958,1.27596,0.9381
323.44,19.79655,-0.00824,1.27611,0.93774
324.04,19.81472,-0.00824,1.27613,0.93737
324.64,19.83288,-0.00824,1.27673,0.93701
325.24,19.85104,-0.00824,1.27717,0.93664
325.84,19.86925,-0.00824,1.27713,0.93627
326.44,19.88745,-0.00824,1.27677,0.93591
327.04,19.90565,-0.00824,1.27618,0.93554
327.64,19.9238,-0.00824,1.27566,0.93517
328.24,19.94191,-0.008239995,1.27648,0.9348
328.84,19.96003,-0.008240087,1.27703,0.93443
329.44,19.97814,-0.008243437,1.27857,0.93407
330.04,19.99636,-0.008955902,1.27798,0.9337
330.64,20.01458,-0.01000284,1.27751,0.93333
331.24,20.0328,-0.01021049,1.27845,0.93296
331.84,20.05099,-0.01021006,1.27883,0.93259
332.44,20.06917,-0.01021,1.28165,0.93221
333.04,20.0873,-0.01021,1.2808,0.93184
333.64,20.10543,-0.01021,1.28094,0.93147
334.24,20.12357,-0.01021,1.28166,0.9311
334.84,20.14171,-0.01021,1.2824,0.93073
335.44,20.1599,-0.01021,1.28093,0.93035
336.04,20.17813,-0.01021013,1.28094,0.92998
336.64,20.1962,-0.01020054,1.28308,0.92961
337.24,20.21438,-0.00984651,1.28436,0.92923
337.84,20.23261,-0.00988006,1.28434,0.92886
338.44,20.25088,-0.009880023,1.2858,0.92848
339.04,20.26933,-0.009879999,1.28718,0.92811
339.64,20.28764,-0.00988,1.2891,0.92773
340.24,20.30585,-0.00988,1.28785,0.92736
340.84,20.32403,-0.00988001,1.28831,0.92698
341.44,20.3422,-0.009879393,1.28945,0.9266
342.04,20.36042,-0.009893035,1.29114,0.92623
342.64,20.37867,-0.009545315,1.29098,0.92585
343.24,20.39689,-0.00955047,1.2936,0.92547
343.84,20.41517,-0.009549987,1.29372,0.92509
344.44,20.43345,-0.00955,1.29389,0.92471
345.04,20.45172,-0.00955,1.29402,0.92434
345.64,20.47,-0.00955,1.29343,0.92396
346.24,20.48827,-0.00955,1.29731,0.92358
346.84,20.5065,-0.009549998,1.29596,0.9232
347.44,20.52477,-0.00954993,1.2976,0.92282
348.04,20.54297,-0.00955498,1.29728,0.92244
348.64,20.56117,-0.01007173,1.29882,0.92205
349.24,20.5794,-0.01086893,1.30001,0.92167
349.84,20.59771,-0.01086984,1.30081,0.92129
350.44,20.61603,-0.01087001,1.30181,0.92091
351.04,20.63421,-0.01087,1.3018,0.92053
351.64,20.65247,-0.01087,1.30302,0.92014
352.24,20.67074,-0.01087095,1.30268,0.91976
352.84,20.68901,-0.01082144,1.30467,0.91938
353.44,20.70743,-0.01223565,1.30671,0.91899
354.04,20.72574,-0.01219006,1.30604,0.91861
354.64,20.74401,-0.01220783,1.30644,0.91822
355.24,20.76236,-0.01291801,1.30654,0.91784
355.84,20.78069,-0.01284881,1.30703,0.91745
356.44,20.79906,-0.01285,1.30592,0.91707
357.04,20.81738,-0.01285,1.30754,0.91668
357.64,20.83565,-0.01285,1.30811,0.91629
358.24,20.8539,-0.01285,1.30892,0.91591
358.84,20.87221,-0.01285,1.30919,0.91552
359.44,20.89059,-0.01285,1.3086,0.91513
360.04,20.90895,-0.01285,1.311,0.91474
360.64,20.92732,-0.01285,1.31326,0.91436
361.24,20.94569,-0.01285,1.3131,0.91397
361.84,20.9639,-0.01285114,1.31316,0.91358
362.44,20.9822,-0.01279607,1.31422,0.91319
363.04,21.00055,-0.01385374,1.31592,0.9128
363.64,21.01885,-0.0138414,1.31684,0.91241
364.24,21.03722,-0.01335125,1.31682,0.91202
364.84,21.05559,-0.01317279,1.31796,0.91163
365.44,21.07399,-0.013242,1.31993,0.91124
366.04,21.0924,-0.01350977,1.32163,0.91085
366.64,21.1108,-0.01351009,1.32112,0.91045
367.24,21.12921,-0.01350993,1.32284,0.91006
367.84,21.14752,-0.0135119,1.3251,0.90967
368.44,21.1659,-0.01384514,1.3267,0.90928
369.04,21.18429,-0.01611213,1.32731,0.90888
369.64,21.20264,-0.0161409,1.32817,0.90849
370.24,21.22107,-0.01614003,1.33093,0.9081
370.84,21.2394,-0.01613972,1.33115,0.9077
371.44,21.25774,-0.01592858,1.33399,0.90731
372.04,21.27615,-0.01516448,1.33487,0.90691
372.64,21.2945,-0.01514969,1.33661,0.90652
373.24,21.3129,-0.01515001,1.3371,0.90612
373.84,21.3314,-0.01515072,1.33953,0.90573
374.44,21.34977,-0.0150977,1.34108,0.90533
375.04,21.36821,-0.01652172,1.34278,0.90493
375.64,21.38663,-0.01646943,1.34513,0.90454
376.24,21.40502,-0.01646998,1.34627,0.90414
376.84,21.42345,-0.01646998,1.34812,0.90374
377.44,21.4419,-0.01647072,1.35092,0.90335
378.04,21.4603,-0.01645488,1.35174,0.90295
378.64,21.4787,-0.018057,1.3563,0.90255
379.24,21.4971,-0.01912406,1.358,0.90215
379.84,21.5155,-0.01911395,1.3595,0.90175
380.44,21.53395,-0.01957702,1.36189,0.90135
381.04,21.5524,-0.02043482,1.36415,0.90095
381.64,21.5709,-0.0190848,1.3662,0.90055
382.24,21.5894,-0.01911188,1.37133,0.90015
382.84,21.6079,-0.01907779,1.37396,0.89975
383.44,21.62635,-0.02044011,1.37548,0.89935
384.04,21.64481,-0.02042452,1.37668,0.89895
384.64,21.66321,-0.02115531,1.38222,0.89855
385.24,21.68169,-0.02173485,1.38298,0.89814
385.84,21.70015,-0.02174035,1.38797,0.89774
386.44,21.7186,-0.02174597,1.39166,0.89734
387.04,21.73706,-0.02291156,1.39424,0.89694
387.64,21.75548,-0.02332285,1.39757,0.89653
388.24,21.77394,-0.02403668,1.40078,0.89613
388.84,21.79245,-0.02404021,1.40182,0.89572
389.44,21.811,-0.02488957,1.40595,0.89532
390.04,21.82956,-0.02536854,1.4065,0.89492
390.64,21.8481,-0.0263333,1.41014,0.89451
391.24,21.86646,-0.02678885,1.41454,0.89411
391.84,21.8849,-0.02768611,1.4186,0.8937
392.44,21.90338,-0.02815202,1.42651,0.89329
393.04,21.9219,-0.02733488,1.42643,0.89289
393.64,21.94056,-0.02810504,1.42858,0.89248
394.24,21.95906,-0.02810511,1.43494,0.89207
394.84,21.9776,-0.02945485,1.43944,0.89167
395.44,21.99614,-0.02941,1.44547,0.89126
396.04,22.0147,-0.0306122,1.45045,0.89085
396.64,22.03332,-0.03087782,1.45343,0.89044
397.24,22.05185,-0.03225989,1.45839,0.89003
397.84,22.07041,-0.03223652,1.46656,0.88963
398.44,22.08895,-0.03389661,1.47283,0.88922
399.04,22.10752,-0.03434068,1.47839,0.88881
399.64,22.1261,-0.03559346,1.48122,0.8884
400.24,22.14465,-0.03861549,1.48561,0.88799
400.84,22.1633,-0.03999389,1.49227,0.88758
401.44,22.1818,-0.04095068,1.49915,0.88717
402.04,22.20035,-0.04206161,1.50527,0.88676
402.64,22.21891,-0.04379207,1.51229,0.88634
403.24,22.23741,-0.04469655,1.51854,0.88593
403.84,22.25602,-0.04557934,1.52367,0.88552
404.44,22.2746,-0.04704806,1.52964,0.88511
405.04,22.2932,-0.04767456,1.53579,0.8847
405.64,22.31184,-0.05005864,1.54304,0.88428
406.24,22.33043,-0.05239446,1.5495,0.88387
406.84,22.34894,-0.05437775,1.55829,0.88346
407.44,22.36747,-0.05795084,1.5668,0.88304
408.04,22.386,-0.06050616,1.5758,0.88263
408.64,22.40462,-0.06274369,1.58528,0.88222
409.24,22.42331,-0.06469312,1.5916,0.8818
409.84,22.44196,-0.06679801,1.60059,0.88139
410.44,22.46061,-0.06986634,1.60868,0.88097
411.04,22.47915,-0.07245806,1.61557,0.88056
411.64,22.49779,-0.07532623,1.62177,0.88014
412.24,22.5164,-0.07812146,1.63331,0.87972
412.84,22.53495,-0.08148147,1.63929,0.87931
413.44,22.5537,-0.0851011,1.64945,0.87889
414.04,22.57242,-0.08857003,1.65649,0.87847
414.64,22.59112,-0.09271411,1.66727,0.87806
415.24,22.60983,-0.09511677,1.67355,0.87764
415.84,22.6285,-0.09943872,1.68251,0.87722
416.44,22.6471,-0.10284,1.69116,0.8768
417.04,22.6658,-0.10747,1.69877,0.87639
417.64,22.68447,-0.11234,1.7096,0.87597
418.24,22.70307,-0.11693,1.71724,0.87555
418.84,22.72174,-0.12202,1.72528,0.87513
419.44,22.74033,-0.12798,1.73586,0.87471
420.04,22.759,-0.133,1.7472,0.87429
420.64,22.7776,-0.13982,1.74504,0.87387
421.24,22.79629,-0.14561,1.7236,0.87345
421.84,22.81504,-0.15277,1.70912,0.87303
422.44,22.83375,-0.15975,1.70834,0.87261
423.04,22.85248,-0.16554,1.70876,0.87219
423.64,22.87114,-0.17289,1.70655,0.87176
424.24,22.88985,-0.17904,1.70494,0.87134
424.84,22.90854,-0.18615,1.69316,0.87092
425.44,22.92729,-0.1945,1.68145,0.8705
426.04,22.94601,-0.20175,1.66882,0.87007
426.64,22.96475,-0.21089,1.65804,0.86965
427.24,22.98345,-0.21827,1.65106,0.86923
427.84,23.00218,-0.22682,1.63852,0.8688
428.44,23.02095,-0.23589,1.6342,0.86838
429.04,23.03964,-0.24362,1.63052,0.86796
429.64,23.05842,-0.25332,1.62282,0.86753
430.24,23.07712,-0.2616,1.61789,0.86711
430.84,23.09582,-0.27166,1.61077,0.86668
431.44,23.11459,-0.28163,1.60331,0.86626
432.04,23.13334,-0.29068,1.5943,0.86583
432.64,23.15202,-0.30165,1.58423,0.86541
433.24,23.17078,-0.31063,1.57859,0.86498
433.84,23.18948,-0.32156,1.57896,0.86455
434.44,23.20818,-0.33275,1.5756,0.86413
435.04,23.22703,-0.343,1.57226,0.8637
435.64,23.2457,-0.35488,1.56924,0.86327
436.24,23.2645,-0.36461,1.5703,0.86285
436.84,23.28324,-0.37663,1.57513,0.86242
437.44,23.30193,-0.38818,1.5846,0.86199
438.04,23.32074,-0.39966,1.59896,0.86156
438.64,23.33955,-0.4137,1.61532,0.86113
439.24,23.35836,-0.42554,1.63301,0.86071
439.84,23.37714,-0.44144,1.64841,0.86028
440.44,23.396,-0.45601,1.67051,0.85985
441.04,23.4148,-0.4718,1.69516,0.85942
441.64,23.43362,-0.49004,1.71932,0.85899
442.24,23.4524,-0.50535,1.74796,0.85856
442.84,23.4712,-0.52482,1.77576,0.85813
443.44,23.49002,-0.54196,1.80482,0.8577
444.04,23.50894,-0.56196,1.83761,0.85727
444.64,23.52788,-0.58297,1.86988,0.85683
445.24,23.54673,-0.60259,1.90176,0.8564
445.84,23.5657,-0.62736,1.93322,0.85597
446.44,23.58459,-0.64724,1.96571,0.85554
447.04,23.60349,-0.67209,2.0031,0.85511
447.64,23.6224,-0.69524,2.03681,0.85468
448.24,23.64131,-0.7192,2.07015,0.85424
448.84,23.66014,-0.7469,2.10204,0.85381
449.44,23.67901,-0.77157,2.13942,0.85338
450.04,23.69799,-0.80319,2.17446,0.85294
450.64,23.71675,-0.82663,2.20367,0.85251
451.24,23.73575,-0.86079,2.2407,0.85208
451.84,23.7547,-0.89264,2.27082,0.85164
452.44,23.7737,-0.9175,2.30207,0.85121
453.04,23.7927,-0.95052,2.33445,0.85077
453.64,23.81174,-0.98883,2.36376,0.85034
454.24,23.83069,-1.01878,2.38882,0.8499
454.84,23.84972,-1.05915,2.41555,0.84947
455.44,23.8687,-1.09164,2.44143,0.84903
456.04,23.8876,-1.129,2.46252,0.84859
456.64,23.9066,-1.16673,2.48234,0.84816
457.24,23.92548,-1.20732,2.48811,0.84772
457.84,23.94449,-1.24705,2.50638,0.84729
458.44,23.96349,-1.28832,2.52231,0.84685
459.04,23.98248,-1.33024,2.52365,0.84641
459.64,24.00147,-1.37306,2.53394,0.84597
460.24,24.02044,-1.41665,2.54082,0.84554
460.84,24.03943,-1.45951,2.54829,0.8451
461.44,24.05848,-1.50355,2.5539,0.84466
462.04,24.07741,-1.54726,2.56032,0.84422
462.64,24.09648,-1.59293,2.56062,0.84378
463.24,24.1155,-1.63877,2.56084,0.84334
463.84,24.13445,-1.68479,2.55951,0.8429
464.44,24.15348,-1.72991,2.55296,0.84247
465.04,24.17245,-1.78318,2.54329,0.84203
465.64,24.19142,-1.84305,2.52991,0.84159
466.24,24.21036,-1.89067,2.51437,0.84115
466.84,24.22932,-1.93759,2.49473,0.84071
467.44,24.24827,-1.98463,2.47509,0.84026
468.04,24.26729,-2.03211,2.44747,0.83982
468.64,24.28634,-2.07934,2.41672,0.83938
469.24,24.30538,-2.12581,2.38569,0.83894
469.84,24.32435,-2.17043,2.35061,0.8385
470.44,24.34336,-2.21481,2.30737,0.83806
471.04,24.36233,-2.25881,2.26392,0.83762
471.64,24.38133,-2.30256,2.21749,0.83717
472.24,24.40034,-2.34017,2.17045,0.83673
472.84,24.4193,-2.37713,2.11682,0.83629
473.44,24.43828,-2.41713,2.06356,0.83585
474.04,24.4572,-2.45477,2.0033,0.8354
474.64,24.47609,-2.49163,1.94727,0.83496
475.24,24.495,-2.52658,1.88724,0.83451
475.84,24.51383,-2.55955,1.82566,0.83407
476.44,24.5328,-2.59232,1.76683,0.83363
477.04,24.5517,-2.62252,1.70368,0.83318
477.64,24.57054,-2.65192,1.64023,0.83274
478.24,24.5895,-2.67962,1.57702,0.83229
478.84,24.60847,-2.70516,1.51293,0.83185
479.44,24.62744,-2.72963,1.45032,0.8314
480.04,24.64635,-2.75244,1.38959,0.83096
480.64,24.66515,-2.77415,1.32899,0.83051
481.24,24.684,-2.79345,1.27313,0.83007
481.84,24.70289,-2.81152,1.21315,0.82962
482.44,24.7218,-2.82822,1.15929,0.82917
483.04,24.74079,-2.84444,1.10971,0.82873
483.64,24.75969,-2.85982,1.05661,0.82828
484.24,24.7786,-2.8736,1.01256,0.82783
484.84,24.79738,-2.88737,0.96771,0.82739
485.44,24.8162,-2.89995,0.92615,0.82694
486.04,24.83509,-2.91179,0.88355,0.82649
486.64,24.854,-2.92124,0.84362,0.82604
487.24,24.873,-2.9307,0.80401,0.82559
487.84,24.89189,-2.94035,0.76883,0.82515
488.44,24.9108,-2.94954,0.73464,0.8247
489.04,24.92976,-2.95824,0.70139,0.82425
489.64,24.9487,-2.96668,0.66892,0.8238
490.24,24.96769,-2.9742,0.63846,0.82335
490.84,24.98666,-2.98146,0.60808,0.8229
491.44,25.00556,-2.98928,0.58149,0.82245
492.04,25.02451,-2.9961,0.55359,0.822
492.64,25.04345,-3.00199,0.52696,0.82155
493.24,25.06241,-3.00782,0.49803,0.8211
493.84,25.08135,-3.01363,0.47282,0.82065
494.44,25.1003,-3.01891,0.44849,0.8202
495.04,25.11928,-3.0239,0.42684,0.81975
495.64,25.1383,-3.02871,0.40178,0.8193
496.24,25.1573,-3.03333,0.38019,0.81885
496.84,25.1764,-3.03755,0.35961,0.81839
497.44,25.19541,-3.04172,0.33758,0.81794
498.04,25.2144,-3.04548,0.3175,0.81749
498.64,25.2334,-3.04885,0.30176,0.81704
499.24,25.25234,-3.0525,0.28211,0.81659
499.84,25.27129,-3.05576,0.26232,0.81613
500.44,25.29034,-3.05992,0.24555,0.81568
501.04,25.30937,-3.06315,0.23026,0.81523
501.64,25.32844,-3.06609,0.21384,0.81477
502.24,25.34746,-3.06924,0.20254,0.81432
502.84,25.36645,-3.07252,0.18918,0.81387
503.44,25.38549,-3.07575,0.1747,0.81341
504.04,25.40454,-3.07768,0.16314,0.81296
504.64,25.42362,-3.08017,0.15046,0.8125
505.24,25.44272,-3.08294,0.14019,0.81205
505.84,25.46176,-3.08559,0.12881,0.8116
506.44,25.48084,-3.08928,0.12121,0.81114
507.04,25.49989,-3.09087,0.11286,0.81069
507.64,25.5188,-3.09272,0.10308,0.81023
508.24,25.5379,-3.0947,0.09725138,0.80977
508.84,25.55695,-3.09696,0.08601762,0.80932
509.44,25.57613,-3.09926,0.0790732,0.80886
510.04,25.59532,-3.09978,0.07123831,0.80841
510.64,25.61439,-3.10167,0.06581631,0.80795
511.24,25.63344,-3.10306,0.05864389,0.80749
511.84,25.6524,-3.10434,0.0553429,0.80704
512.44,25.67161,-3.10542,0.0517423,0.80658
513.04,25.69083,-3.10711,0.04513356,0.80612
513.64,25.71011,-3.1083,0.04041131,0.80567
514.24,25.72935,-3.10958,0.03657746,0.80521
514.84,25.74854,-3.11136,0.03437452,0.80475
515.44,25.76765,-3.11322,0.03243471,0.80429
516.04,25.78676,-3.11406,0.02822586,0.80384
516.64,25.80585,-3.11489,0.02464467,0.80338
517.24,25.82498,-3.11541,0.02392791,0.80292
517.84,25.8442,-3.117,0.02196549,0.80246
518.44,25.86337,-3.1173,0.01868757,0.802
519.04,25.88267,-3.11848,0.01716096,0.80154
519.64,25.9019,-3.11984,0.01693039,0.80108
520.24,25.9211,-3.12016,0.01163183,0.80062
520.84,25.9404,-3.12156,0.0128503,0.80017
521.44,25.95948,-3.12271,0.01060931,0.79971
522.04,25.9787,-3.12341,0.009986195,0.79925
522.64,25.9979,-3.12466,0.008441011,0.79879
523.24,26.01709,-3.12543,0.00702442,0.79833
523.84,26.03634,-3.12606,0.005401614,0.79786
524.44,26.05552,-3.12745,0.003511028,0.7974
525.04,26.07465,-3.12819,0.00309744,0.79694
525.64,26.0939,-3.12997,0.002342944,0.79648
526.24,26.11301,-3.13204,0.002893989,0.79602
526.84,26.1323,-3.13201,0.00197686,0.79556
527.44,26.15152,-3.13341,0.002088376,0.7951
528.04,26.1708,-3.1334,0.001578061,0.79464
528.64,26.1901,-3.13491,0.0003317966,0.79418
529.24,26.20936,-3.13516,-0.001961646,0.79371
529.84,26.2286,-3.13617,-0.00216445,0.79325
530.44,26.24789,-3.13618,-0.0003169801,0.79279
531.04,26.2671,-3.13626,-0.0009801752,0.79233
531.64,26.28639,-3.13749,-0.000294286,0.79186
532.24,26.30562,-3.1375,-0.001190222,0.7914
532.84,26.32494,-3.13897,-0.002765572,0.79094
533.44,26.34429,-3.13903,-0.00100222,0.79047
534.04,26.3636,-3.1403,-0.001655625,0.79001
534.64,26.38288,-3.14037,-0.001994714,0.78955
535.24,26.40212,-3.14136,-0.00513031,0.78908
535.84,26.4214,-3.14168,-0.00476048,0.78862
536.44,26.4407,-3.14214,-0.00298603,0.78816
537.04,26.46003,-3.1431,-0.001941096,0.78769
537.64,26.47932,-3.14344,-0.003219213,0.78723
538.24,26.4986,-3.14442,-0.004692267,0.78676
538.84,26.5179,-3.14442,-0.003391952,0.7863
539.44,26.5372,-3.14443,-0.004651882,0.78583
540.04,26.55653,-3.14555,-0.002381897,0.78537
540.64,26.5759,-3.14574,-0.003809644,0.7849
541.24,26.59522,-3.14582,-0.002156393,0.78444
541.84,26.6146,-3.14707,-0.0002626365,0.78397
542.44,26.6339,-3.14705,0.0004892622,0.78351
543.04,26.6532,-3.14705,0.001227999,0.78304
543.64,26.67258,-3.14804,0.0002353713,0.78257
544.24,26.69182,-3.14804,0.0006264146,0.78211
544.84,26.71123,-3.14803,0.002948262,0.78164
545.44,26.7306,-3.14931,0.001539262,0.78117
546.04,26.7499,-3.14934,3.27441e-05,0.78071
546.64,26.7694,-3.15058,0.001005978,0.78024
547.24,26.7887,-3.15068,0.003356864,0.77977
547.84,26.8081,-3.15068,0.002911504,0.77931
548.44,26.8274,-3.15069,0.006041176,0.77884
549.04,26.8468,-3.15223,0.007252476,0.77837
549.64,26.86618,-3.15331,0.007981617,0.7779
550.24,26.88547,-3.15331,0.00873312,0.77744
550.84,26.90488,-3.15458,0.0108559,0.77697
551.44,26.9242,-3.15463,0.01347681,0.7765
552.04,26.94365,-3.15463,0.01113508,0.77603
552.64,26.96305,-3.15535,0.01383397,0.77556
553.24,26.98238,-3.15582,0.01329684,0.77509
553.84,27.0017,-3.1553,0.01299483,0.77463
554.44,27.02096,-3.1552,0.01385212,0.77416
555.04,27.04024,-3.15603,0.01373845,0.77369
555.64,27.05963,-3.15627,0.01621935,0.77322
556.24,27.0791,-3.15627,0.01682353,0.77275
556.84,27.09849,-3.15762,0.01556363,0.77228
557.44,27.1179,-3.15726,0.01661702,0.77181
558.04,27.13733,-3.15726,0.01713776,0.77134
558.64,27.1567,-3.15742,0.01960196,0.77087
559.24,27.1762,-3.1586,0.01952632,0.7704
559.84,27.19557,-3.15858,0.02114231,0.76993
560.44,27.215,-3.15854,0.02181484,0.76946
561.04,27.23436,-3.15995,0.0226959,0.76899
561.64,27.25382,-3.1599,0.02511282,0.76852
562.24,27.2733,-3.1599,0.02326015,0.76805
562.84,27.2927,-3.1599,0.0232981,0.76758
563.44,27.31215,-3.1599,0.02457014,0.7671
564.04,27.3316,-3.16076,0.02404912,0.76663
564.64,27.35094,-3.16255,0.02587676,0.76616
565.24,27.37033,-3.16253,0.02614365,0.76569
565.84,27.3897,-3.16253,0.02684398,0.76522
566.44,27.40908,-3.16248,0.02693106,0.76475
567.04,27.4285,-3.1639,0.02629521,0.76427
567.64,27.4479,-3.16385,0.02800121,0.7638
568.24,27.46739,-3.16385,0.02933662,0.76333
568.84,27.4869,-3.16385,0.03118209,0.76286
569.44,27.5063,-3.16385,0.03239397,0.76238
570.04,27.5258,-3.16385,0.03388698,0.76191
570.64,27.5453,-3.16385,0.03696308,0.76144
571.24,27.5647,-3.16386,0.0353026,0.76097
571.84,27.5842,-3.16507,0.03506888,0.76049
572.44,27.6037,-3.16596,0.03526979,0.76002
573.04,27.6232,-3.16649,0.03403261,0.75955
573.64,27.64272,-3.16647,0.03475723,0.75907
574.24,27.6622,-3.16767,0.03650453,0.7586
574.84,27.6816,-3.1678,0.0349333,0.75812
575.44,27.70093,-3.1678,0.03622371,0.75765
576.04,27.7202,-3.1678,0.03745299,0.75718
576.64,27.73968,-3.16783,0.03824762,0.7567
577.24,27.75917,-3.16912,0.04004682,0.75623
577.84,27.7788,-3.16912,0.03878323,0.75575
578.44,27.79843,-3.16912,0.03825615,0.75528
579.04,27.8179,-3.16962,0.0399088,0.7548
579.64,27.83741,-3.17043,0.04056308,0.75433
580.24,27.8569,-3.17044,0.03967704,0.75385
580.84,27.8764,-3.17044,0.04092181,0.75338
581.44,27.89595,-3.17044,0.04216888,0.7529
582.04,27.91548,-3.17044,0.03992017,0.75243
582.64,27.93498,-3.17044,0.03966998,0.75195
583.24,27.9545,-3.17044,0.04271646,0.75148
583.84,27.974,-3.17044,0.04334425,0.751
584.44,27.9935,-3.17092,0.04182828,0.75053
585.04,28.013,-3.17306,0.0436753,0.75005
585.64,28.0325,-3.17307,0.04454645,0.74957
586.24,28.05201,-3.17367,0.0453193,0.7491
586.84,28.0715,-3.17439,0.04681988,0.74862
587.44,28.0911,-3.17439,0.04537072,0.74814
588.04,28.11058,-3.17439,0.04472819,0.74767
588.64,28.1301,-3.17479,0.04691901,0.74719
589.24,28.14958,-3.17502,0.04574444,0.74671
589.84,28.1691,-3.17505,0.04594591,0.74624
590.44,28.18862,-3.17505,0.04808405,0.74576
591.04,28.2082,-3.17505,0.04773868,0.74528
591.64,28.2278,-3.17557,0.04726696,0.74481
592.24,28.24738,-3.17637,0.04654141,0.74433
592.84,28.26693,-3.17637,0.04784407,0.74385
593.44,28.2865,-3.1771,0.0552865,0.74337
594.04,28.306,-3.17768,0.05750289,0.7429
594.64,28.3255,-3.17768,0.0593251,0.74242
595.24,28.3451,-3.17765,0.06038678,0.74194
595.84,28.36463,-3.17903,0.0604407,0.74146
596.44,28.38423,-3.18022,0.06159228,0.74098
597.04,28.40377,-3.1803,0.06128975,0.7405
597.64,28.4233,-3.18157,0.06132161,0.74003
598.24,28.4429,-3.18164,0.06142673,0.73955
598.84,28.46244,-3.18161,0.06221696,0.73907
599.44,28.482,-3.18182,0.06222928,0.73859
600.04,28.50155,-3.18164,0.06590493,0.73811
600.64,28.52113,-3.18169,0.06839169,0.73763
601.24,28.54073,-3.18297,0.06926201,0.73715
601.84,28.5603,-3.18295,0.0673944,0.73667
602.44,28.58,-3.18295,0.06599268,0.73619
603.04,28.59951,-3.18365,0.06465314,0.73571
603.64,28.6191,-3.18427,0.06600828,0.73524
604.24,28.6387,-3.18427,0.07668031,0.73476
604.84,28.6583,-3.18453,0.07980208,0.73428
605.44,28.67793,-3.1856,0.08170155,0.7338
606.04,28.6975,-3.18559,0.08049371,0.73332
606.64,28.7172,-3.18549,0.08109364,0.73284
607.24,28.7368,-3.18829,0.08017601,0.73236
607.84,28.75631,-3.18822,0.07979665,0.73188
608.44,28.77583,-3.18888,0.08098198,0.73139
609.04,28.79542,-3.18953,0.08199466,0.73091
609.64,28.81505,-3.18973,0.08269785,0.73043
610.24,28.8346,-3.19085,0.08222317,0.72995
610.84,28.8542,-3.19086,0.08223604,0.72947
611.44,28.87373,-3.19086,0.08108953,0.72899
612.04,28.8933,-3.19046,0.07922712,0.72851
612.64,28.913,-3.1912,0.0823773,0.72803
613.24,28.93262,-3.19119,0.08271464,0.72755
613.84,28.9523,-3.19119,0.08304406,0.72707
614.44,28.972,-3.19148,0.08408438,0.72659
615.04,28.9916,-3.1925,0.08678529,0.7261
615.64,29.0112,-3.19251,0.084004,0.72562
616.24,29.03088,-3.19373,0.08480704,0.72514
616.84,29.0505,-3.19501,0.08595565,0.72466
617.44,29.0701,-3.19512,0.08829219,0.72418
618.04,29.0897,-3.19636,0.08804636,0.72369
618.64,29.10929,-3.19539,0.08754722,0.72321
619.24,29.1289,-3.19514,0.09012667,0.72273
619.84,29.1485,-3.19515,0.09044613,0.72225
620.44,29.1682,-3.19608,0.093724,0.72177
621.04,29.18784,-3.19646,0.09407545,0.72128
621.64,29.20753,-3.19646,0.09636107,0.7208
622.24,29.22699,-3.19646,0.09651094,0.72032
622.84,29.2464,-3.19646,0.09737864,0.71984
623.44,29.2661,-3.19746,0.09633328,0.71935
624.04,29.2857,-3.19777,0.09801505,0.71887
624.64,29.3055,-3.19777,0.09832979,0.71839
625.24,29.32532,-3.19871,0.09921712,0.7179
625.84,29.34504,-3.19912,0.10017,0.71742
626.44,29.36464,-3.19799,0.09965761,0.71694
627.04,29.38427,-3.19921,0.10042,0.71645
627.64,29.40387,-3.19938,0.10193,0.71597
628.24,29.4235,-3.20053,0.10269,0.71549
628.84,29.4431,-3.20052,0.10354,0.715
629.44,29.4628,-3.20062,0.10456,0.71452
630.04,29.4824,-3.20306,0.10552,0.71404
630.64,29.50207,-3.20315,0.10819,0.71355
631.24,29.52163,-3.20315,0.10873,0.71307
631.84,29.5411,-3.2032,0.10935,0.71258
632.44,29.56077,-3.20449,0.11021,0.7121
633.04,29.58046,-3.20447,0.1089,0.71162
633.64,29.60033,-3.20447,0.10553,0.71113
634.24,29.62013,-3.20447,0.10443,0.71065
634.84,29.63978,-3.20521,0.10242,0.71016
635.44,29.6594,-3.20579,0.09895625,0.70968
636.04,29.679,-3.20579,0.09743485,0.70919
636.64,29.69864,-3.20578,0.09727696,0.70871
637.24,29.71834,-3.20709,0.09646533,0.70822
637.84,29.73804,-3.20711,0.09644533,0.70774
638.44,29.75773,-3.20758,0.09528496,0.70725
639.04,29.77737,-3.20841,0.09508755,0.70677
639.64,29.79699,-3.20841,0.09692775,0.70628
640.24,29.8166,-3.20932,0.0970049,0.7058
640.84,29.83628,-3.20843,0.09611678,0.70531
641.44,29.8559,-3.20842,0.09263363,0.70483
642.04,29.8756,-3.20906,0.09359584,0.70434
642.64,29.89525,-3.20973,0.09634576,0.70386
643.24,29.9149,-3.20974,0.0997557,0.70337
643.84,29.9346,-3.20974,0.10121,0.70289
644.44,29.9543,-3.20975,0.09998394,0.7024
645.04,29.97399,-3.21058,0.09949688,0.70192
645.64,29.99367,-3.21106,0.1029,0.70143
646.24,30.01332,-3.21106,0.10608,0.70094
646.84,30.0329,-3.21108,0.10949,0.70046
647.44,30.05241,-3.21237,0.11149,0.69997
648.04,30.0721,-3.21237,0.11127,0.69949
648.64,30.0918,-3.21329,0.11404,0.699
649.24,30.1116,-3.21369,0.11635,0.69851
649.84,30.1314,-3.21369,0.11966,0.69803
650.44,30.1511,-3.21369,0.11961,0.69754
651.04,30.1708,-3.21369,0.11836,0.69706
651.64,30.1905,-3.21387,0.11956,0.69657
652.24,30.2102,-3.21502,0.12094,0.69608
652.84,30.2299,-3.21501,0.12184,0.6956
653.44,30.2496,-3.21501,0.11865,0.69511
654.04,30.26933,-3.21499,0.12503,0.69462
654.64,30.2891,-3.21621,0.12344,0.69414
655.24,30.3088,-3.21632,0.1223,0.69365
655.84,30.3285,-3.21628,0.12601,0.69316
656.44,30.3482,-3.21769,0.12852,0.69267
657.04,30.36784,-3.21764,0.13016,0.69219
657.64,30.38751,-3.21813,0.13172,0.6917
658.24,30.40728,-3.21896,0.13258,0.69121
658.84,30.427,-3.21896,0.1345,0.69073
659.44,30.4467,-3.21896,0.13415,0.69024
660.04,30.46653,-3.21896,0.13037,0.68975
660.64,30.4862,-3.21896,0.13524,0.68926
661.24,30.506,-3.21996,0.13814,0.68878
661.84,30.52562,-3.22028,0.13991,0.68829
662.44,30.5453,-3.22028,0.14051,0.6878
663.04,30.56502,-3.22028,0.1416,0.68731
663.64,30.5847,-3.22028,0.14417,0.68683
664.24,30.60428,-3.22075,0.14422,0.68634
664.84,30.6239,-3.22158,0.14534,0.68585
665.44,30.64367,-3.22159,0.14864,0.68536
666.04,30.6635,-3.22167,0.14685,0.68488
666.64,30.6834,-3.22169,0.14737,0.68439
667.24,30.7031,-3.22224,0.14947,0.6839
667.84,30.72283,-3.22189,0.14973,0.68341
668.44,30.7426,-3.22192,0.15064,0.68292
669.04,30.7624,-3.22192,0.15288,0.68244
669.64,30.7822,-3.22215,0.15491,0.68195
670.24,30.802,-3.22323,0.15779,0.68146
670.84,30.8218,-3.22324,0.15928,0.68097
671.44,30.8415,-3.22325,0.16287,0.68048
672.04,30.86133,-3.22417,0.1628,0.68
672.64,30.8811,-3.22456,0.1641,0.67951
673.24,30.9009,-3.22456,0.16466,0.67902
673.84,30.9205,-3.22456,0.165,0.67853
674.44,30.9402,-3.22456,0.16652,0.67804
675.04,30.96,-3.22461,0.16847,0.67755
675.64,30.97986,-3.22586,0.16821,0.67706
676.24,30.99985,-3.22587,0.16805,0.67658
676.84,31.0195,-3.22588,0.17031,0.67609
677.44,31.0393,-3.22719,0.17154,0.6756
678.04,31.05903,-3.22719,0.17368,0.67511
678.64,31.07858,-3.22719,0.17686,0.67462
679.24,31.0983,-3.22719,0.1801,0.67413
679.84,31.118,-3.22719,0.17944,0.67364
680.44,31.13792,-3.22719,0.18272,0.67315
681.04,31.158,-3.22719,0.18435,0.67267
681.64,31.17806,-3.22771,0.1869,0.67218
682.24,31.1979,-3.2285,0.18529,0.67169
682.84,31.21762,-3.22851,0.18788,0.6712
683.44,31.2373,-3.22851,0.18975,0.67071
684.04,31.25713,-3.22851,0.18886,0.67022
684.64,31.277,-3.22868,0.18778,0.66973
685.24,31.29685,-3.22984,0.18172,0.66924
685.84,31.31666,-3.22983,0.18546,0.66875
686.44,31.33646,-3.22983,0.18784,0.66826
687.04,31.35623,-3.22984,0.18838,0.66777
687.64,31.376,-3.23049,0.19186,0.66728
688.24,31.39585,-3.23077,0.19442,0.6668
688.84,31.41572,-3.23081,0.19673,0.66631
689.44,31.4356,-3.23081,0.19701,0.66582
690.04,31.4554,-3.23081,0.19922,0.66533
690.64,31.4752,-3.23081,0.20137,0.66484
691.24,31.49495,-3.23081,0.20407,0.66435
691.84,31.5148,-3.23076,0.20306,0.66386
692.44,31.5347,-3.23126,0.20932,0.66337
693.04,31.5545,-3.23082,0.20711,0.66288
693.64,31.57436,-3.23082,0.20956,0.66239
694.24,31.59419,-3.23082,0.21357,0.6619
694.84,31.614,-3.23091,0.21309,0.66141
695.44,31.63387,-3.23213,0.21366,0.66092
696.04,31.65382,-3.23214,0.21499,0.66043
696.34,31.6638,-3.23214,0.2156,0.66019