File: 01_Data/Polyester_Bed_Skirt/STA/N2/30K_min/Polyester_Bed_Skirt_STA_N2_30KData_220525_R3.csv
##Temp./Â°C,Time/min,Mass loss(subtr.2)/mg,DSC(subtr.2)/(mW/mg),Sensit./(uV/mW)
48.539,10.00667,-0.00625,0.002674309,1.05401
49.139,10.53117,-0.00293254,0.03797813,1.05389
49.739,10.65568,-0.004132101,0.07371354,1.05376
50.339,10.74067,-0.00706398,0.10018,1.05364
50.939,10.81054,-0.003870176,0.12335,1.05352
51.539,10.8683,-0.003512695,0.14835,1.05339
52.139,10.92196,-0.004445822,0.16938,1.05327
52.739,10.97083,-0.004067558,0.19102,1.05314
53.339,11.01544,-0.004241406,0.21226,1.05302
53.939,11.05616,-0.00387291,0.22859,1.05289
54.539,11.09633,-0.005248039,0.24659,1.05276
55.139,11.1349,-0.004753288,0.26559,1.05264
55.739,11.17095,-0.00434571,0.28068,1.05251
56.339,11.2056,-0.004579203,0.29482,1.05238
56.939,11.23902,-0.004782766,0.31015,1.05225
57.539,11.27133,-0.00543299,0.32563,1.05212
58.139,11.30246,-0.005028065,0.33834,1.05199
58.739,11.33295,-0.00377274,0.35083,1.05185
59.339,11.36285,-0.004433508,0.36239,1.05172
59.939,11.39218,-0.003979518,0.37389,1.05159
60.539,11.42056,-0.00315235,0.38597,1.05145
61.139,11.44841,-0.002628396,0.39575,1.05132
61.739,11.47567,-0.000297328,0.40683,1.05118
62.339,11.5026,0.0002509919,0.42006,1.05105
62.939,11.52929,-0.00270922,0.42955,1.05091
63.539,11.55565,-0.004943316,0.43981,1.05077
64.139,11.5814,-0.005380876,0.45181,1.05064
64.739,11.60684,-0.005809823,0.45943,1.0505
65.339,11.632,-0.004761466,0.46887,1.05036
65.939,11.657,-0.004264734,0.47916,1.05022
66.539,11.68163,-0.004266187,0.48708,1.05008
67.139,11.70594,-0.004487141,0.49605,1.04994
67.739,11.73,-0.004301427,0.50695,1.04979
68.339,11.754,-0.003819257,0.51386,1.04965
68.939,11.77787,-0.00373955,0.5251,1.04951
69.539,11.80149,-0.00392594,0.53293,1.04937
70.139,11.8249,-0.003784618,0.54183,1.04922
70.739,11.8482,-0.00310904,0.5515,1.04908
71.339,11.8714,-0.00375181,0.55779,1.04893
71.939,11.89448,-0.0039477,0.5616,1.04878
72.539,11.91731,-0.004297995,0.57233,1.04864
73.139,11.94005,-0.004501503,0.57694,1.04849
73.739,11.9626,-0.004349553,0.58444,1.04834
74.339,11.98502,-0.001665785,0.59077,1.04819
74.939,12.00739,-0.00106846,0.59227,1.04804
75.539,12.02967,-0.002482046,0.59672,1.04789
76.139,12.05185,-0.00529247,0.60045,1.04774
76.739,12.07397,-0.006542821,0.60152,1.04759
77.339,12.09602,-0.005598585,0.60505,1.04744
77.939,12.11791,-0.006894694,0.60482,1.04729
78.539,12.13979,-0.0074616,0.60516,1.04713
79.139,12.16151,-0.006962913,0.6028,1.04698
79.739,12.18321,-0.007012177,0.60199,1.04682
80.339,12.20487,-0.005905399,0.59873,1.04667
80.939,12.2264,-0.006070926,0.59578,1.04651
81.539,12.2478,-0.00637841,0.59443,1.04636
82.139,12.26919,-0.005352433,0.59283,1.0462
82.739,12.2906,-0.00584156,0.59294,1.04604
83.339,12.31185,-0.005587007,0.5891,1.04588
83.939,12.33297,-0.006293376,0.58785,1.04572
84.539,12.35401,-0.00713722,0.58588,1.04556
85.139,12.37504,-0.006821093,0.58522,1.0454
85.739,12.39611,-0.00604954,0.58452,1.04524
86.339,12.41714,-0.00556377,0.58418,1.04508
86.939,12.43796,-0.004767757,0.58325,1.04492
87.539,12.45877,-0.004892134,0.58131,1.04476
88.139,12.47948,-0.00406563,0.58074,1.04459
88.739,12.50029,-0.004719221,0.5794,1.04443
89.339,12.52101,-0.004063285,0.58129,1.04426
89.939,12.54161,-0.004162511,0.57992,1.0441
90.539,12.56217,-0.005313588,0.57894,1.04393
91.139,12.58278,-0.003824843,0.57866,1.04377
91.739,12.60339,-0.004754161,0.57738,1.0436
92.339,12.62393,-0.003854232,0.57729,1.04343
92.939,12.64446,-0.003230757,0.5782,1.04326
93.539,12.66498,-0.003852006,0.57474,1.04309
94.139,12.6853,-0.003847005,0.57421,1.04292
94.739,12.7057,-0.004203655,0.57384,1.04275
95.339,12.72608,-0.003840809,0.57394,1.04258
95.939,12.7463,-0.004141646,0.57468,1.04241
96.539,12.7667,-0.00514971,0.57552,1.04224
97.139,12.78696,-0.004453363,0.57541,1.04207
97.739,12.80733,-0.003841265,0.57489,1.04189
98.339,12.82767,-0.005163752,0.57564,1.04172
98.939,12.84795,-0.005073568,0.57549,1.04154
99.539,12.8682,-0.003858254,0.57554,1.04137
100.139,12.88808,-0.004675224,0.57741,1.04119
100.739,12.90802,-0.005162997,0.58121,1.04102
101.339,12.9282,-0.00515934,0.58288,1.04084
101.939,12.9483,-0.005196612,0.58263,1.04066
102.539,12.9687,-0.0059752,0.58533,1.04048
103.139,12.98884,-0.005164701,0.58845,1.0403
103.739,13.009,-0.005159922,0.59115,1.04012
104.339,13.02904,-0.005159293,0.59454,1.03994
104.939,13.04915,-0.005198419,0.59693,1.03976
105.539,13.06911,-0.003857189,0.59845,1.03958
106.139,13.08917,-0.005170505,0.60429,1.0394
106.739,13.10934,-0.00514991,0.60717,1.03922
107.339,13.12941,-0.00513363,0.60876,1.03903
107.939,13.14962,-0.006373591,0.61253,1.03885
108.539,13.1697,-0.0061495,0.61689,1.03867
109.139,13.18948,-0.006223959,0.62084,1.03848
109.739,13.2094,-0.007479259,0.62422,1.03829
110.339,13.2294,-0.00745989,0.62721,1.03811
110.939,13.24939,-0.00744662,0.63116,1.03792
111.539,13.26968,-0.0065844,0.63473,1.03773
112.139,13.28979,-0.006485058,0.638,1.03755
112.739,13.30972,-0.005281826,0.64399,1.03736
113.339,13.3297,-0.005158661,0.64637,1.03717
113.939,13.3496,-0.00516002,0.6499,1.03698
114.539,13.36956,-0.005160314,0.65412,1.03679
115.139,13.38955,-0.0051437,0.65877,1.03659
115.739,13.4095,-0.006347023,0.66327,1.0364
116.339,13.42941,-0.00648441,0.6673,1.03621
116.939,13.4494,-0.006281013,0.67144,1.03602
117.539,13.46924,-0.005174283,0.67629,1.03582
118.139,13.48911,-0.005145565,0.67945,1.03563
118.739,13.5091,-0.00631188,0.68558,1.03543
119.339,13.529,-0.006473073,0.69044,1.03524
119.939,13.54889,-0.006375513,0.69442,1.03504
120.539,13.56865,-0.006501525,0.69646,1.03485
121.139,13.5884,-0.00646943,0.70143,1.03465
121.739,13.60811,-0.006469578,0.70532,1.03445
122.339,13.62781,-0.006487253,0.70922,1.03425
122.939,13.6475,-0.00511911,0.71372,1.03405
123.539,13.6673,-0.005151307,0.71706,1.03385
124.139,13.6871,-0.005517996,0.71983,1.03365
124.739,13.70684,-0.006469035,0.72214,1.03345
125.339,13.7265,-0.006163007,0.7289,1.03325
125.939,13.7462,-0.005157797,0.73295,1.03305
126.539,13.766,-0.005160067,0.73682,1.03285
127.139,13.78573,-0.005159997,0.74059,1.03264
127.739,13.80545,-0.00516007,0.74391,1.03244
128.339,13.82514,-0.0051556,0.7471,1.03224
128.939,13.84469,-0.004358604,0.75153,1.03203
129.539,13.8642,-0.00384382,0.75754,1.03182
130.139,13.88374,-0.003839915,0.75886,1.03162
130.739,13.9032,-0.003840002,0.76381,1.03141
131.339,13.92273,-0.00384,0.76887,1.0312
131.939,13.94219,-0.003840015,0.77204,1.031
132.539,13.9617,-0.003839407,0.77381,1.03079
133.139,13.9812,-0.003861163,0.77973,1.03058
133.739,14.00065,-0.00284208,0.78475,1.03037
134.339,14.0202,-0.002850047,0.79007,1.03016
134.939,14.0396,-0.00285,0.79255,1.02995
135.539,14.0589,-0.00285071,0.79668,1.02974
136.139,14.0783,-0.00280307,0.79898,1.02952
136.739,14.0976,-0.004206849,0.80537,1.02931
137.339,14.1169,-0.004169094,0.80758,1.0291
137.939,14.1361,-0.004170833,0.81317,1.02888
138.539,14.1553,-0.00413964,0.81721,1.02867
139.139,14.1745,-0.005519131,0.82193,1.02845
139.739,14.19386,-0.00547959,0.82535,1.02824
140.339,14.21313,-0.00547999,0.82839,1.02802
140.939,14.23236,-0.00548166,0.83191,1.02781
141.539,14.25159,-0.005225435,0.83472,1.02759
142.139,14.27072,-0.00514793,0.83883,1.02737
142.739,14.2899,-0.00515472,0.84351,1.02715
143.339,14.3091,-0.005711862,0.84648,1.02693
143.939,14.32823,-0.006467286,0.84781,1.02671
144.539,14.3474,-0.006428501,0.85369,1.02649
145.139,14.3666,-0.00515922,0.85857,1.02627
145.739,14.38579,-0.005160302,0.85783,1.02605
146.339,14.4049,-0.005155289,0.86221,1.02583
146.939,14.424,-0.004434471,0.86665,1.02561
147.539,14.44299,-0.003845018,0.86754,1.02538
148.139,14.46202,-0.003837031,0.87224,1.02516
148.739,14.4811,-0.003405461,0.87347,1.02494
149.339,14.5001,-0.003518753,0.87935,1.02471
149.939,14.5191,-0.00383878,0.88164,1.02449
150.539,14.53801,-0.003840542,0.88446,1.02426
151.139,14.5569,-0.003814648,0.88759,1.02403
151.739,14.5759,-0.004525994,0.8894,1.02381
152.339,14.59485,-0.004499567,0.89327,1.02358
152.939,14.6139,-0.004500004,0.89489,1.02335
153.539,14.6329,-0.0045,0.89675,1.02312
154.139,14.6518,-0.004500001,0.90128,1.02289
154.739,14.67079,-0.004499927,0.90506,1.02266
155.339,14.6897,-0.004503247,0.90688,1.02243
155.939,14.70859,-0.004371788,0.91128,1.0222
156.539,14.72747,-0.003187953,0.91215,1.02197
157.139,14.74635,-0.003180081,0.91624,1.02174
157.739,14.7652,-0.003179992,0.9185,1.0215
158.339,14.7841,-0.00318,0.92112,1.02127
158.939,14.80291,-0.00318,0.92272,1.02104
159.539,14.8217,-0.00318,0.92763,1.0208
160.139,14.8405,-0.003179999,0.92852,1.02057
160.739,14.85934,-0.003179935,0.9309,1.02033
161.339,14.8782,-0.003186455,0.9345,1.02009
161.939,14.897,-0.00372722,0.93817,1.01986
162.539,14.91586,-0.003841882,0.94077,1.01962
163.139,14.93467,-0.00383997,0.94427,1.01938
163.739,14.9534,-0.00384,0.94424,1.01914
164.339,14.97224,-0.003839975,0.94636,1.0189
164.939,14.9911,-0.003841829,0.94993,1.01866
165.539,15.00978,-0.00371967,0.95049,1.01842
166.139,15.02847,-0.003186504,0.95612,1.01818
166.739,15.0472,-0.003179944,0.95826,1.01794
167.339,15.06589,-0.00317982,0.96148,1.0177
167.939,15.08465,-0.003196091,0.96612,1.01746
168.539,15.1034,-0.004073022,0.96844,1.01722
169.139,15.1222,-0.0043206,0.96979,1.01697
169.739,15.14088,-0.00548149,0.97182,1.01673
170.339,15.15955,-0.005489889,0.97263,1.01648
170.939,15.1782,-0.00548875,0.97772,1.01624
171.539,15.19689,-0.00560899,0.98005,1.01599
172.139,15.2156,-0.006818971,0.9804,1.01575
172.739,15.23427,-0.006804742,0.98455,1.0155
173.339,15.253,-0.005837666,0.98652,1.01525
173.939,15.2717,-0.005483695,0.98959,1.015
174.539,15.2903,-0.005356097,0.99167,1.01476
175.139,15.30896,-0.00415101,0.993,1.01451
175.739,15.3275,-0.00417015,0.99634,1.01426
176.339,15.34614,-0.004168493,0.99773,1.01401
176.939,15.36481,-0.004601867,1.00145,1.01376
177.539,15.3834,-0.005467349,1.00431,1.01351
178.139,15.402,-0.005477551,1.00529,1.01325
178.739,15.42061,-0.005090228,1.00978,1.013
179.339,15.43912,-0.00449407,1.01016,1.01275
179.939,15.45762,-0.004489773,1.01151,1.0125
180.539,15.47609,-0.00449001,1.01494,1.01224
181.139,15.49455,-0.00449,1.0158,1.01199
181.739,15.51305,-0.00449,1.0206,1.01173
182.339,15.53154,-0.00449033,1.02381,1.01148
182.939,15.55004,-0.004472437,1.0255,1.01122
183.539,15.56848,-0.005616711,1.028,1.01096
184.139,15.58671,-0.005810049,1.0304,1.01071
184.739,15.605,-0.005810049,1.03105,1.01045
185.339,15.6234,-0.005809998,1.03521,1.01019
185.939,15.6419,-0.00581,1.03734,1.00993
186.539,15.66051,-0.00581,1.03752,1.00967
187.139,15.6791,-0.00581,1.04002,1.00941
187.739,15.6975,-0.00581,1.04418,1.00915
188.339,15.71582,-0.00581,1.04575,1.00889
188.939,15.7342,-0.00581,1.04593,1.00863
189.539,15.7525,-0.00581,1.05048,1.00837
190.139,15.7708,-0.00581,1.05471,1.00811
190.739,15.78917,-0.00581001,1.05574,1.00784
191.339,15.80747,-0.005809847,1.05817,1.00758
191.939,15.82584,-0.005804423,1.06099,1.00732
192.539,15.84419,-0.00545348,1.06169,1.00705
193.139,15.86249,-0.00548069,1.06445,1.00679
193.739,15.88086,-0.00547999,1.06696,1.00652
194.339,15.89916,-0.005479999,1.06804,1.00625
194.939,15.91743,-0.005480019,1.07283,1.00599
195.539,15.93573,-0.005479296,1.07608,1.00572
196.139,15.95399,-0.005489,1.07622,1.00545
196.739,15.97228,-0.004231149,1.0777,1.00518
197.339,15.99063,-0.004166967,1.08204,1.00492
197.939,16.00893,-0.004170073,1.08607,1.00465
198.539,16.02721,-0.00417,1.08853,1.00438
199.139,16.04545,-0.00417002,1.09072,1.00411
199.739,16.0638,-0.004168639,1.09415,1.00383
200.339,16.08203,-0.004223197,1.09633,1.00356
200.939,16.10034,-0.005485345,1.09874,1.00329
201.539,16.11865,-0.00548033,1.10075,1.00302
202.139,16.13689,-0.005493424,1.10644,1.00275
202.739,16.1552,-0.00636747,1.10854,1.00247
203.339,16.17341,-0.00680026,1.10778,1.0022
203.939,16.1917,-0.00680016,1.11017,1.00192
204.539,16.2099,-0.00679863,1.11482,1.00165
205.139,16.22815,-0.00624137,1.11652,1.00137
205.739,16.2464,-0.004165124,1.12094,1.0011
206.339,16.26463,-0.00417085,1.12402,1.00082
206.939,16.28282,-0.004169974,1.12718,1.00054
207.539,16.30104,-0.00417,1.12866,1.00027
208.139,16.31926,-0.00417,1.13112,0.99999
208.739,16.33745,-0.00417,1.13261,0.99971
209.339,16.3557,-0.00417,1.13695,0.99943
209.939,16.3739,-0.00417,1.1435,0.99915
210.539,16.3921,-0.00417,1.14788,0.99887
211.139,16.4103,-0.004170002,1.15014,0.99859
211.739,16.42855,-0.004169943,1.15289,0.99831
212.339,16.44678,-0.004170142,1.15573,0.99803
212.939,16.46495,-0.004371944,1.15849,0.99774
213.539,16.48315,-0.005452458,1.16223,0.99746
214.139,16.50132,-0.00684122,1.16623,0.99718
214.739,16.51945,-0.006800538,1.17038,0.99689
215.339,16.53763,-0.00679987,1.17306,0.99661
215.939,16.55591,-0.00680332,1.17671,0.99632
216.539,16.57411,-0.006750258,1.18056,0.99604
217.139,16.59232,-0.005814666,1.18465,0.99575
217.739,16.61049,-0.00585541,1.18859,0.99547
218.339,16.6286,-0.00549913,1.18998,0.99518
218.939,16.6467,-0.005489989,1.19356,0.99489
219.539,16.66493,-0.005489993,1.19757,0.9946
220.139,16.6831,-0.005489983,1.20384,0.99432
220.739,16.7012,-0.00549035,1.20971,0.99403
221.339,16.71936,-0.00549658,1.21353,0.99374
221.939,16.7375,-0.00662198,1.21856,0.99345
222.539,16.7557,-0.006803625,1.22114,0.99316
223.139,16.7739,-0.00679997,1.22631,0.99287
223.739,16.79205,-0.0068,1.23049,0.99258
224.339,16.8102,-0.006800001,1.23311,0.99228
224.939,16.82835,-0.006799965,1.2381,0.99199
225.539,16.84646,-0.006799829,1.24167,0.9917
226.139,16.86465,-0.00684918,1.24604,0.99141
226.739,16.88275,-0.005438002,1.25099,0.99111
227.339,16.90091,-0.00549063,1.2555,0.99082
227.939,16.91911,-0.00549024,1.26061,0.99052
228.539,16.93725,-0.005471076,1.26659,0.99023
229.139,16.95535,-0.004761869,1.27154,0.98993
229.739,16.97348,-0.004830172,1.27967,0.98964
230.339,16.99159,-0.00483005,1.28516,0.98934
230.939,17.00969,-0.004829987,1.29055,0.98904
231.539,17.02794,-0.004830251,1.29802,0.98874
232.139,17.04606,-0.004834284,1.30312,0.98844
232.739,17.06416,-0.00518656,1.31126,0.98815
233.339,17.08227,-0.00515932,1.32201,0.98785
233.939,17.10035,-0.005160002,1.33045,0.98755
234.539,17.11846,-0.00515969,1.33833,0.98725
235.139,17.13662,-0.005177358,1.349,0.98695
235.739,17.1548,-0.005868892,1.35695,0.98665
236.339,17.17289,-0.005810452,1.36695,0.98634
236.939,17.19099,-0.005829089,1.37784,0.98604
237.539,17.2091,-0.006541789,1.39192,0.98574
238.139,17.22718,-0.006469462,1.40338,0.98544
238.739,17.24531,-0.006469961,1.41603,0.98513
239.339,17.26343,-0.006470002,1.42961,0.98483
239.939,17.28154,-0.00647,1.44547,0.98452
240.539,17.29965,-0.00647,1.46014,0.98422
241.139,17.31771,-0.00647,1.47796,0.98391
241.739,17.33587,-0.00647,1.49697,0.98361
242.339,17.354,-0.006470003,1.51469,0.9833
242.939,17.37207,-0.00647021,1.54004,0.98299
243.539,17.3902,-0.006456804,1.56364,0.98269
244.139,17.40823,-0.005626896,1.58914,0.98238
244.739,17.4263,-0.00516142,1.6115,0.98207
245.339,17.44448,-0.005159819,1.6458,0.98176
245.939,17.46261,-0.005160291,1.67968,0.98145
246.539,17.4807,-0.0051563,1.71495,0.98114
247.139,17.4988,-0.006042507,1.75688,0.98083
247.739,17.5169,-0.006465667,1.7997,0.98052
248.339,17.5351,-0.006470086,1.84857,0.98021
248.939,17.5532,-0.00647,1.90267,0.9799
249.539,17.5714,-0.00647,1.96054,0.97959
250.139,17.5896,-0.00647,2.02495,0.97927
250.739,17.60774,-0.00646999,2.09717,0.97896
251.339,17.62595,-0.006469739,2.17751,0.97865
251.939,17.644,-0.006495713,2.261,0.97833
252.539,17.66218,-0.005784485,2.35073,0.97802
253.139,17.68034,-0.00581031,2.44666,0.9777
253.739,17.6985,-0.005832218,2.54911,0.97739
254.339,17.71681,-0.005126319,2.65209,0.97707
254.939,17.73506,-0.005150463,2.75463,0.97675
255.539,17.75327,-0.00515,2.85276,0.97644
256.139,17.77151,-0.00515,2.93996,0.97612
256.739,17.78975,-0.00515,3.01386,0.9758
257.339,17.80801,-0.00515,3.07051,0.97548
257.939,17.8263,-0.00515001,3.10466,0.97517
258.539,17.8446,-0.005149036,3.11226,0.97485
259.139,17.86287,-0.005193463,3.09635,0.97453
259.739,17.88117,-0.003801255,3.05612,0.97421
260.339,17.89941,-0.00383941,2.99242,0.97389
260.939,17.91763,-0.00384005,2.909,0.97357
261.539,17.93575,-0.003839999,2.80994,0.97324
262.139,17.9539,-0.00384,2.69928,0.97292
262.739,17.97201,-0.003840006,2.58546,0.9726
263.339,17.99015,-0.00383965,2.47345,0.97228
263.939,18.0083,-0.003849284,2.36899,0.97195
264.539,18.02636,-0.002877025,2.27028,0.97163
265.139,18.04447,-0.002522326,2.17766,0.97131
265.739,18.06245,-0.002581542,2.09261,0.97098
266.339,18.0805,-0.003503623,2.0136,0.97066
266.939,18.09854,-0.003509488,1.9428,0.97033
267.539,18.11654,-0.00351002,1.87856,0.97
268.139,18.13456,-0.00351,1.81962,0.96968
268.739,18.15244,-0.00351,1.76901,0.96935
269.339,18.17024,-0.00351,1.7219,0.96902
269.939,18.18806,-0.00351,1.68213,0.9687
270.539,18.20588,-0.00351,1.64153,0.96837
271.139,18.224,-0.00351,1.61061,0.96804
271.739,18.24213,-0.00351,1.57658,0.96771
272.339,18.26025,-0.00351,1.55115,0.96738
272.939,18.27841,-0.00351009,1.52856,0.96705
273.539,18.29636,-0.003505416,1.50628,0.96672
274.139,18.31436,-0.00308767,1.48713,0.96639
274.739,18.33235,-0.002194574,1.47337,0.96606
275.339,18.3503,-0.002200327,1.45622,0.96573
275.939,18.36828,-0.002199994,1.4439,0.96539
276.539,18.386,-0.0022,1.43336,0.96506
277.139,18.40383,-0.0022,1.42418,0.96473
277.739,18.4217,-0.0022,1.41363,0.96439
278.339,18.43966,-0.0022,1.4061,0.96406
278.939,18.4578,-0.0022,1.39885,0.96373
279.539,18.47606,-0.0022,1.39267,0.96339
280.139,18.49416,-0.0022,1.38827,0.96305
280.739,18.51221,-0.0022,1.38355,0.96272
281.339,18.5302,-0.002199995,1.37863,0.96238
281.939,18.54818,-0.00220012,1.37633,0.96205
282.539,18.56619,-0.002201377,1.37217,0.96171
283.139,18.5842,-0.001839699,1.36987,0.96137
283.739,18.60224,-0.000894709,1.36871,0.96103
284.339,18.62022,-0.000877138,1.36588,0.9607
284.939,18.6382,-0.002073684,1.36347,0.96036
285.539,18.65616,-0.002193937,1.3613,0.96002
286.139,18.67417,-0.002185494,1.36008,0.95968
286.739,18.69219,-0.003075608,1.35931,0.95934
287.339,18.71027,-0.003504447,1.35897,0.959
287.939,18.72833,-0.003535308,1.35828,0.95866
288.539,18.74633,-0.002216889,1.35831,0.95831
289.139,18.76435,-0.002197394,1.35735,0.95797
289.739,18.78238,-0.002200072,1.35786,0.95763
290.339,18.8004,-0.0022,1.35779,0.95729
290.939,18.81854,-0.0022,1.35562,0.95694
291.539,18.83662,-0.0022,1.35731,0.9566
292.139,18.8547,-0.002199998,1.3577,0.95626
292.739,18.87272,-0.002199967,1.35672,0.95591
293.339,18.8907,-0.002203725,1.3588,0.95557
293.939,18.90857,-0.002072702,1.35642,0.95522
294.539,18.9266,-0.000879139,1.3571,0.95488
295.139,18.94464,-0.000880608,1.35734,0.95453
295.739,18.96275,-0.000879981,1.3576,0.95418
296.339,18.981,-0.0008799979,1.35652,0.95384
296.939,18.9991,-0.000879927,1.357,0.95349
297.539,19.0172,-0.0008861532,1.35701,0.95314
298.139,19.0353,-0.001367269,1.36057,0.95279
298.739,19.05343,-0.003513977,1.35878,0.95245
299.339,19.07149,-0.003511828,1.35787,0.9521
299.939,19.0895,-0.00350994,1.35862,0.95175
300.539,19.10752,-0.00351,1.35965,0.9514
301.139,19.12561,-0.00351,1.35956,0.95105
301.739,19.14374,-0.00351002,1.36015,0.9507
302.339,19.16191,-0.003509436,1.36011,0.95035
302.939,19.18005,-0.00351063,1.36052,0.94999
303.539,19.19814,-0.002323581,1.35926,0.94964
304.139,19.21621,-0.002196278,1.35991,0.94929
304.739,19.2343,-0.002200046,1.3601,0.94894
305.339,19.25233,-0.002199985,1.36076,0.94858
305.939,19.2704,-0.002201285,1.3611,0.94823
306.539,19.28847,-0.002163586,1.36122,0.94788
307.139,19.30657,-0.004479948,1.35931,0.94752
307.739,19.32471,-0.004494754,1.36269,0.94717
308.339,19.34284,-0.004489846,1.36132,0.94681
308.939,19.361,-0.00449002,1.36248,0.94646
309.539,19.3791,-0.004490433,1.36293,0.9461
310.139,19.39718,-0.004454934,1.36375,0.94574
310.739,19.41522,-0.004810972,1.36276,0.94539
311.339,19.4333,-0.004819985,1.36468,0.94503
311.939,19.4514,-0.004833235,1.36393,0.94467
312.539,19.46945,-0.005817069,1.36366,0.94431
313.139,19.48757,-0.006142317,1.36301,0.94396
313.739,19.50563,-0.006140146,1.36528,0.9436
314.339,19.52378,-0.006134943,1.36687,0.94324
314.939,19.54191,-0.00562859,1.36669,0.94288
315.539,19.56004,-0.004820202,1.36693,0.94252
316.139,19.57822,-0.00501615,1.36798,0.94216
316.739,19.5963,-0.006157931,1.36788,0.9418
317.339,19.61444,-0.00614607,1.36681,0.94143
317.939,19.6326,-0.00522495,1.36656,0.94107
318.539,19.6508,-0.004484705,1.36783,0.94071
319.139,19.66895,-0.0035238,1.36969,0.94035
319.739,19.68706,-0.00350992,1.36932,0.93999
320.339,19.7051,-0.00350999,1.37055,0.93962
320.939,19.72317,-0.00351,1.37136,0.93926
321.539,19.74128,-0.00351,1.37081,0.9389
322.139,19.7594,-0.00351,1.37046,0.93853
322.739,19.77755,-0.00351,1.37148,0.93817
323.339,19.79573,-0.003509997,1.371,0.9378
323.939,19.81391,-0.00351003,1.37192,0.93744
324.539,19.83193,-0.00351232,1.37164,0.93707
325.139,19.85004,-0.003290425,1.3717,0.9367
325.739,19.86819,-0.0008462573,1.37193,0.93634
326.339,19.88634,-0.0008797685,1.37213,0.93597
326.939,19.9047,-0.000880031,1.37017,0.9356
327.539,19.92298,-0.000879994,1.37271,0.93523
328.139,19.94117,-0.0008801117,1.37188,0.93487
328.739,19.95932,-0.0008823295,1.37158,0.9345
329.339,19.97728,-0.00159938,1.37286,0.93413
329.939,19.99546,-0.002717937,1.37416,0.93376
330.539,20.01367,-0.0035086,1.37345,0.93339
331.139,20.03169,-0.00350984,1.37359,0.93302
331.739,20.04982,-0.003508936,1.37453,0.93265
332.339,20.06789,-0.00353195,1.37458,0.93228
332.939,20.08605,-0.002530435,1.37561,0.93191
333.539,20.10435,-0.00252171,1.37507,0.93153
334.139,20.1227,-0.002391967,1.37649,0.93116
334.739,20.14096,-0.002188331,1.37716,0.93079
335.339,20.15915,-0.002189905,1.37866,0.93042
335.939,20.17739,-0.002194482,1.37737,0.93004
336.539,20.19566,-0.002001672,1.37749,0.92967
337.139,20.21392,-0.001202098,1.37831,0.92929
337.739,20.23216,-0.001210479,1.38069,0.92892
338.339,20.2504,-0.002297892,1.38219,0.92855
338.939,20.2686,-0.002523578,1.37962,0.92817
339.539,20.28687,-0.002519988,1.38052,0.9278
340.139,20.30511,-0.002519981,1.38166,0.92742
340.739,20.32331,-0.002520936,1.38185,0.92704
341.339,20.34153,-0.002496234,1.38261,0.92667
341.939,20.35979,-0.00382983,1.38404,0.92629
342.539,20.37805,-0.00384219,1.3833,0.92591
343.139,20.39635,-0.00383993,1.38404,0.92553
343.739,20.41461,-0.00384,1.38328,0.92516
344.339,20.43287,-0.00384,1.38681,0.92478
344.939,20.45112,-0.003839999,1.38661,0.9244
345.539,20.46937,-0.003840058,1.38579,0.92402
346.139,20.48764,-0.00383897,1.38655,0.92364
346.739,20.50595,-0.003812774,1.38654,0.92326
347.339,20.52424,-0.00521205,1.38757,0.92288
347.939,20.54252,-0.00612601,1.38863,0.9225
348.539,20.56083,-0.006482215,1.38846,0.92212
349.139,20.57904,-0.006480073,1.39231,0.92174
349.739,20.5974,-0.006479996,1.39047,0.92135
350.339,20.61565,-0.00648,1.39037,0.92097
350.939,20.6339,-0.00648004,1.39175,0.92059
351.539,20.65224,-0.006482631,1.392,0.92021
352.139,20.67049,-0.006163666,1.39269,0.91982
352.739,20.6888,-0.005173618,1.39376,0.91944
353.339,20.7071,-0.005159909,1.39551,0.91906
353.939,20.72542,-0.005159993,1.39555,0.91867
354.539,20.7437,-0.005160001,1.39441,0.91829
355.139,20.7619,-0.00516,1.39583,0.9179
355.739,20.78021,-0.00516,1.39722,0.91752
356.339,20.79852,-0.00516,1.39723,0.91713
356.939,20.817,-0.00516,1.39724,0.91675
357.539,20.83545,-0.00516,1.39853,0.91636
358.139,20.85386,-0.00516,1.3987,0.91597
358.739,20.87225,-0.00516,1.3986,0.91559
359.339,20.89058,-0.00516,1.39759,0.9152
359.939,20.90894,-0.005159999,1.39937,0.91481
360.539,20.92724,-0.005160011,1.39905,0.91442
361.139,20.94554,-0.005160729,1.40063,0.91403
361.739,20.96384,-0.005108164,1.40252,0.91364
362.339,20.98217,-0.006519594,1.40185,0.91326
362.939,21.00047,-0.006472015,1.4041,0.91287
363.539,21.0188,-0.005589167,1.40272,0.91248
364.139,21.03721,-0.005154231,1.40305,0.91209
364.739,21.05557,-0.0051499,1.40525,0.91169
365.339,21.074,-0.005150041,1.40594,0.9113
365.939,21.09235,-0.005152104,1.40788,0.91091
366.539,21.11074,-0.004835949,1.40783,0.91052
367.139,21.12908,-0.003640458,1.40928,0.91013
367.739,21.14744,-0.003619782,1.41122,0.90974
368.339,21.16581,-0.003619942,1.41303,0.90934
368.939,21.1841,-0.00362454,1.41576,0.90895
369.539,21.20242,-0.004209201,1.41541,0.90856
370.139,21.22073,-0.005145342,1.41657,0.90816
370.739,21.23914,-0.005118664,1.41762,0.90777
371.339,21.25768,-0.00650674,1.41836,0.90738
371.939,21.27621,-0.006469,1.41867,0.90698
372.539,21.29474,-0.00647002,1.42125,0.90659
373.139,21.31324,-0.00647,1.42319,0.90619
373.739,21.33168,-0.00647,1.42562,0.90579
374.339,21.3501,-0.006469749,1.42617,0.9054
374.939,21.3685,-0.0064776,1.42806,0.905
375.539,21.38684,-0.007152,1.42984,0.9046
376.139,21.40522,-0.007783996,1.43145,0.90421
376.739,21.42362,-0.007790235,1.43323,0.90381
377.339,21.44209,-0.00778999,1.43404,0.90341
377.939,21.4605,-0.00779001,1.43615,0.90301
378.539,21.47899,-0.007790674,1.43774,0.90262
379.139,21.4974,-0.00773734,1.44131,0.90222
379.739,21.5158,-0.00916472,1.44332,0.90182
380.339,21.53419,-0.009053088,1.44392,0.90142
380.939,21.55259,-0.008123726,1.44262,0.90102
381.539,21.5709,-0.009255804,1.44618,0.90062
382.139,21.58933,-0.00943371,1.4479,0.90022
382.739,21.6079,-0.009429913,1.45152,0.89982
383.339,21.62625,-0.009429534,1.45288,0.89942
383.939,21.64485,-0.009623848,1.45407,0.89902
384.539,21.66338,-0.01076763,1.4572,0.89861
385.139,21.68186,-0.01074969,1.45783,0.89821
385.739,21.70044,-0.01074959,1.46074,0.89781
386.339,21.71894,-0.01071552,1.46148,0.89741
386.939,21.7375,-0.01189776,1.46288,0.897
387.539,21.75596,-0.01173644,1.46086,0.8966
388.139,21.77447,-0.01174016,1.46522,0.8962
388.739,21.79297,-0.01174137,1.46841,0.89579
389.339,21.81137,-0.0125577,1.4709,0.89539
389.939,21.82982,-0.01201574,1.47418,0.89498
390.539,21.84835,-0.01208798,1.4782,0.89458
391.139,21.86685,-0.0127524,1.48204,0.89417
391.739,21.88542,-0.01338462,1.48289,0.89377
392.339,21.90395,-0.01340406,1.48373,0.89336
392.939,21.92241,-0.0143442,1.48731,0.89296
393.539,21.94096,-0.01471141,1.48977,0.89255
394.139,21.9595,-0.01469014,1.49165,0.89214
394.739,21.978,-0.01606091,1.49579,0.89174
395.339,21.99651,-0.01602905,1.50033,0.89133
395.939,22.01502,-0.01603005,1.50455,0.89092
396.539,22.03354,-0.01602983,1.51069,0.89051
397.139,22.05211,-0.01599359,1.51162,0.8901
397.739,22.0707,-0.0180291,1.5149,0.88969
398.339,22.08931,-0.02061216,1.52182,0.88929
398.939,22.10792,-0.02279559,1.52757,0.88888
399.539,22.12649,-0.02468477,1.53183,0.88847
400.139,22.14507,-0.02639827,1.5367,0.88806
400.739,22.16359,-0.0278376,1.54206,0.88765
401.339,22.1822,-0.02882731,1.54696,0.88724
401.939,22.20072,-0.03022133,1.55138,0.88683
402.539,22.21927,-0.0320685,1.55733,0.88641
403.139,22.23795,-0.03411954,1.56176,0.886
403.739,22.2565,-0.03596811,1.56616,0.88559
404.339,22.27522,-0.0378064,1.56885,0.88518
404.939,22.2939,-0.03907859,1.57594,0.88477
405.539,22.31245,-0.03903577,1.58323,0.88435
406.139,22.33106,-0.04089471,1.58851,0.88394
406.739,22.34966,-0.04269735,1.59677,0.88353
407.339,22.36829,-0.04440794,1.60074,0.88311
407.939,22.38689,-0.04634168,1.60691,0.8827
408.539,22.40554,-0.04864286,1.6124,0.88229
409.139,22.42418,-0.05102502,1.61773,0.88187
409.739,22.44279,-0.05343444,1.62429,0.88146
410.339,22.4615,-0.05645736,1.63222,0.88104
410.939,22.48006,-0.05962332,1.64012,0.88063
411.539,22.49868,-0.06273034,1.64522,0.88021
412.139,22.51726,-0.06582258,1.65362,0.87979
412.739,22.53586,-0.0689397,1.66292,0.87938
413.339,22.5545,-0.07136147,1.66727,0.87896
413.939,22.57314,-0.07473612,1.67451,0.87854
414.539,22.5918,-0.07821857,1.68139,0.87813
415.139,22.61052,-0.08182482,1.69052,0.87771
415.739,22.6292,-0.08619766,1.69639,0.87729
416.339,22.64786,-0.0913815,1.70357,0.87687
416.939,22.6665,-0.09611718,1.71239,0.87646
417.539,22.6852,-0.10114,1.72226,0.87604
418.139,22.70383,-0.10588,1.72989,0.87562
418.739,22.72255,-0.11115,1.7356,0.8752
419.339,22.74127,-0.11732,1.74146,0.87478
419.939,22.75995,-0.12316,1.7462,0.87436
420.539,22.77875,-0.12902,1.75347,0.87394
421.139,22.79746,-0.13498,1.76678,0.87352
421.739,22.81612,-0.1416,1.78033,0.8731
422.339,22.83481,-0.14887,1.79129,0.87268
422.939,22.85345,-0.15627,1.80003,0.87226
423.539,22.8721,-0.16417,1.80712,0.87183
424.139,22.89088,-0.172,1.81826,0.87141
424.739,22.90965,-0.18024,1.83085,0.87099
425.339,22.92841,-0.18894,1.8414,0.87057
425.939,22.94718,-0.19786,1.85487,0.87015
426.539,22.96593,-0.20619,1.86481,0.86972
427.139,22.9846,-0.21512,1.87016,0.8693
427.739,23.00335,-0.22471,1.87691,0.86888
428.339,23.02201,-0.2347,1.84924,0.86845
428.939,23.04074,-0.24524,1.8225,0.86803
429.539,23.0595,-0.25594,1.81443,0.8676
430.139,23.0782,-0.26682,1.80963,0.86718
430.739,23.09706,-0.27884,1.80923,0.86675
431.339,23.11586,-0.29149,1.80697,0.86633
431.939,23.13467,-0.30425,1.80066,0.8659
432.539,23.15353,-0.31741,1.80039,0.86548
433.139,23.17238,-0.33094,1.803,0.86505
433.739,23.1912,-0.34542,1.80245,0.86463
434.339,23.20988,-0.35984,1.81133,0.8642
434.939,23.22863,-0.37441,1.81346,0.86377
435.539,23.2474,-0.38811,1.81862,0.86335
436.139,23.2662,-0.40316,1.82518,0.86292
436.739,23.28516,-0.41928,1.83914,0.86249
437.339,23.30396,-0.4352,1.85288,0.86206
437.939,23.32276,-0.45178,1.86838,0.86163
438.539,23.34159,-0.46891,1.88663,0.86121
439.139,23.36037,-0.48648,1.90486,0.86078
439.739,23.37922,-0.50561,1.91992,0.86035
440.339,23.39809,-0.52547,1.94066,0.85992
440.939,23.41686,-0.54631,1.9624,0.85949
441.539,23.4356,-0.56601,1.97944,0.85906
442.139,23.45443,-0.58731,2.00105,0.85863
442.739,23.47328,-0.60988,2.02405,0.8582
443.339,23.49227,-0.63313,2.05511,0.85777
443.939,23.5113,-0.65699,2.08186,0.85734
444.539,23.53022,-0.68072,2.10168,0.85691
445.139,23.54911,-0.70463,2.12944,0.85648
445.739,23.56798,-0.73148,2.16061,0.85604
446.339,23.58691,-0.75885,2.18228,0.85561
446.939,23.6057,-0.78703,2.20724,0.85518
447.539,23.62462,-0.81523,2.23225,0.85475
448.139,23.6435,-0.84493,2.26081,0.85432
448.739,23.66235,-0.87568,2.289,0.85388
449.339,23.68136,-0.908,2.3085,0.85345
449.939,23.70027,-0.94154,2.33592,0.85302
450.539,23.71931,-0.97391,2.35551,0.85258
451.139,23.73838,-1.00891,2.37745,0.85215
451.739,23.75739,-1.04433,2.40244,0.85171
452.339,23.7764,-1.0811,2.4156,0.85128
452.939,23.7954,-1.11856,2.43424,0.85085
453.539,23.8143,-1.15601,2.44314,0.85041
454.139,23.8334,-1.19402,2.44496,0.84998
454.739,23.85236,-1.23293,2.4416,0.84954
455.339,23.87133,-1.27362,2.44397,0.8491
455.939,23.8903,-1.31423,2.45058,0.84867
456.539,23.90925,-1.35562,2.46161,0.84823
457.139,23.92825,-1.39782,2.47262,0.8478
457.739,23.94725,-1.44149,2.47438,0.84736
458.339,23.96621,-1.48541,2.47611,0.84692
458.939,23.98517,-1.52915,2.48009,0.84648
459.539,24.00408,-1.57377,2.48279,0.84605
460.139,24.02301,-1.6184,2.48402,0.84561
460.739,24.04199,-1.664,2.48416,0.84517
461.339,24.06094,-1.7103,2.48362,0.84473
461.939,24.07994,-1.75888,2.47881,0.8443
462.539,24.09891,-1.81083,2.47092,0.84386
463.139,24.11789,-1.86718,2.46136,0.84342
463.739,24.13692,-1.91369,2.4475,0.84298
464.339,24.1559,-1.96127,2.43357,0.84254
464.939,24.1749,-2.00861,2.41528,0.8421
465.539,24.19383,-2.05627,2.39095,0.84166
466.139,24.2128,-2.10375,2.36736,0.84122
466.739,24.23181,-2.15025,2.34054,0.84078
467.339,24.2508,-2.19597,2.30934,0.84034
467.939,24.2698,-2.24126,2.27132,0.8399
468.539,24.2887,-2.2862,2.23417,0.83946
469.139,24.30762,-2.33034,2.19243,0.83902
469.739,24.3265,-2.37394,2.14753,0.83857
470.339,24.34546,-2.41084,2.10145,0.83813
470.939,24.36439,-2.44761,2.05016,0.83769
471.539,24.3833,-2.48746,1.99783,0.83725
472.139,24.40231,-2.52626,1.94216,0.83681
472.739,24.42118,-2.56276,1.88662,0.83636
473.339,24.44001,-2.59803,1.82448,0.83592
473.939,24.45886,-2.63209,1.76519,0.83548
474.539,24.47768,-2.66477,1.70488,0.83503
475.139,24.4966,-2.69508,1.64435,0.83459
475.739,24.5155,-2.72316,1.5829,0.83415
476.339,24.5344,-2.75016,1.52001,0.8337
476.939,24.55326,-2.77545,1.45977,0.83326
477.539,24.5721,-2.79883,1.39744,0.83281
478.139,24.59096,-2.82046,1.34314,0.83237
478.739,24.60981,-2.84121,1.2826,0.83192
479.339,24.6287,-2.8606,1.22788,0.83148
479.939,24.64765,-2.87821,1.17674,0.83103
480.539,24.6665,-2.89477,1.12813,0.83059
481.139,24.68548,-2.90999,1.08055,0.83014
481.739,24.70427,-2.92481,1.0329,0.82969
482.339,24.7231,-2.93878,0.98883,0.82925
482.939,24.742,-2.9514,0.94783,0.8288
483.539,24.76087,-2.96336,0.91089,0.82835
484.139,24.7798,-2.97454,0.87523,0.82791
484.739,24.79862,-2.98604,0.83828,0.82746
485.339,24.8175,-2.99629,0.80802,0.82701
485.939,24.8364,-3.00569,0.77487,0.82657
486.539,24.85529,-3.01432,0.74253,0.82612
487.139,24.87424,-3.02286,0.71116,0.82567
487.739,24.89309,-3.03145,0.67814,0.82522
488.339,24.912,-3.03959,0.64501,0.82477
488.939,24.93093,-3.04691,0.61116,0.82432
489.539,24.94981,-3.05328,0.57742,0.82387
490.139,24.96878,-3.05949,0.54422,0.82343
490.739,24.98774,-3.06605,0.51193,0.82298
491.339,25.00667,-3.07217,0.48091,0.82253
491.939,25.02567,-3.07709,0.44826,0.82208
492.539,25.0446,-3.08175,0.43151,0.82163
493.139,25.06355,-3.08683,0.40586,0.82118
493.739,25.08251,-3.09269,0.3754,0.82073
494.339,25.10146,-3.09861,0.345,0.82027
494.939,25.12049,-3.10381,0.31733,0.81982
495.539,25.13945,-3.1086,0.29418,0.81937
496.139,25.15846,-3.11324,0.26796,0.81892
496.739,25.17746,-3.11803,0.24516,0.81847
497.339,25.1964,-3.1225,0.22181,0.81802
497.939,25.21539,-3.12648,0.20082,0.81757
498.539,25.2344,-3.12974,0.1799,0.81711
499.139,25.2534,-3.13322,0.15913,0.81666
499.739,25.27242,-3.13641,0.1405,0.81621
500.339,25.29139,-3.13926,0.12626,0.81576
500.939,25.3104,-3.14199,0.1082,0.8153
501.539,25.32937,-3.14446,0.09336081,0.81485
502.139,25.34834,-3.14763,0.07734081,0.8144
502.739,25.36727,-3.14985,0.06426974,0.81394
503.339,25.38624,-3.15238,0.05063702,0.81349
503.939,25.40539,-3.15526,0.0362587,0.81303
504.539,25.42451,-3.15745,0.02409067,0.81258
505.139,25.44373,-3.15952,0.01697375,0.81213
505.739,25.46291,-3.16192,0.006227914,0.81167
506.339,25.48189,-3.16449,-0.004433932,0.81122
506.939,25.50095,-3.16695,-0.01282854,0.81076
507.539,25.51994,-3.1691,-0.0189873,0.81031
508.139,25.53891,-3.17035,-0.02741633,0.80985
508.739,25.55804,-3.1718,-0.03359362,0.8094
509.339,25.5772,-3.17314,-0.03971079,0.80894
509.939,25.59637,-3.17497,-0.04891424,0.80848
510.539,25.61553,-3.17698,-0.05463254,0.80803
511.139,25.6347,-3.17895,-0.05562438,0.80757
511.739,25.6539,-3.18068,-0.06511182,0.80711
512.339,25.67297,-3.18094,-0.06909224,0.80666
512.939,25.6921,-3.18219,-0.07166434,0.8062
513.539,25.71114,-3.18361,-0.0769487,0.80574
514.139,25.73023,-3.18409,-0.08225223,0.80529
514.739,25.74932,-3.1853,-0.08393301,0.80483
515.339,25.76846,-3.18719,-0.08628234,0.80437
515.939,25.78764,-3.18844,-0.08968105,0.80391
516.539,25.80689,-3.18956,-0.09314544,0.80345
517.139,25.82612,-3.19039,-0.09731514,0.803
517.739,25.84528,-3.19199,-0.09885558,0.80254
518.339,25.86443,-3.19345,-0.10028,0.80208
518.939,25.8836,-3.19394,-0.10295,0.80162
519.539,25.90276,-3.19555,-0.10234,0.80116
520.139,25.922,-3.19666,-0.1069,0.8007
520.739,25.94122,-3.19729,-0.10898,0.80024
521.339,25.96044,-3.19877,-0.11236,0.79978
521.939,25.97968,-3.20092,-0.11307,0.79932
522.539,25.9988,-3.20154,-0.11416,0.79886
523.139,26.01804,-3.20265,-0.11612,0.7984
523.739,26.0372,-3.2043,-0.11971,0.79794
524.339,26.05631,-3.20433,-0.12037,0.79748
524.939,26.0755,-3.20558,-0.12255,0.79702
525.539,26.09454,-3.20554,-0.12436,0.79656
526.139,26.11365,-3.20689,-0.12415,0.7961
526.739,26.13299,-3.20688,-0.12725,0.79564
527.339,26.1523,-3.20688,-0.12874,0.79518
527.939,26.17168,-3.20688,-0.12976,0.79471
528.539,26.19099,-3.20764,-0.13063,0.79425
529.139,26.2102,-3.20815,-0.13282,0.79379
529.739,26.2294,-3.20982,-0.13434,0.79333
530.339,26.24863,-3.21069,-0.13602,0.79287
530.939,26.2679,-3.21128,-0.13735,0.7924
531.539,26.2871,-3.21164,-0.1388,0.79194
532.139,26.30637,-3.21259,-0.13939,0.79148
532.739,26.32563,-3.21259,-0.13959,0.79102
533.339,26.3449,-3.2134,-0.14152,0.79055
533.939,26.36417,-3.2139,-0.14418,0.79009
534.539,26.3834,-3.214,-0.14481,0.78963
535.139,26.40267,-3.21548,-0.14567,0.78916
535.739,26.422,-3.21652,-0.14378,0.7887
536.339,26.44122,-3.21708,-0.14446,0.78823
536.939,26.4606,-3.21843,-0.14429,0.78777
537.539,26.47999,-3.21841,-0.14607,0.7873
538.139,26.49932,-3.21838,-0.14903,0.78684
538.739,26.51865,-3.21974,-0.14942,0.78638
539.339,26.5379,-3.2199,-0.15091,0.78591
539.939,26.55712,-3.22118,-0.15127,0.78545
540.539,26.57637,-3.22115,-0.15192,0.78498
541.139,26.5956,-3.22115,-0.15171,0.78452
541.739,26.6149,-3.22113,-0.15288,0.78405
542.339,26.63428,-3.2225,-0.15513,0.78358
542.939,26.65356,-3.22247,-0.15527,0.78312
543.539,26.67288,-3.22247,-0.15583,0.78265
544.139,26.6922,-3.22224,-0.15728,0.78219
544.739,26.71149,-3.22231,-0.15812,0.78172
545.339,26.7309,-3.22279,-0.15808,0.78125
545.939,26.75024,-3.22279,-0.15909,0.78079
546.539,26.76957,-3.22275,-0.15987,0.78032
547.139,26.78888,-3.22416,-0.16013,0.77985
547.739,26.8081,-3.22411,-0.16083,0.77938
548.339,26.82743,-3.22412,-0.16148,0.77892
548.939,26.8467,-3.2251,-0.1627,0.77845
549.539,26.8661,-3.22639,-0.16374,0.77798
550.139,26.88543,-3.22642,-0.16373,0.77751
550.739,26.9048,-3.22642,-0.16537,0.77705
551.339,26.92414,-3.22642,-0.1663,0.77658
551.939,26.9435,-3.22654,-0.16854,0.77611
552.539,26.9628,-3.2278,-0.16879,0.77564
553.139,26.98214,-3.22703,-0.16961,0.77517
553.739,27.00147,-3.22794,-0.16965,0.7747
554.339,27.0209,-3.22795,-0.17161,0.77424
554.939,27.0403,-3.22896,-0.17193,0.77377
555.539,27.05955,-3.22927,-0.17232,0.7733
556.139,27.0789,-3.22926,-0.17336,0.77283
556.739,27.09822,-3.23055,-0.1725,0.77236
557.339,27.11761,-3.23059,-0.17383,0.77189
557.939,27.13699,-3.23059,-0.17603,0.77142
558.539,27.1563,-3.23059,-0.17391,0.77095
559.139,27.1756,-3.23059,-0.17544,0.77048
559.739,27.19482,-3.23109,-0.17666,0.77001
560.339,27.2142,-3.23324,-0.17611,0.76954
560.939,27.23355,-3.23323,-0.17814,0.76907
561.539,27.2529,-3.23323,-0.17969,0.7686
562.139,27.2724,-3.23323,-0.18102,0.76813
562.739,27.2918,-3.23345,-0.18251,0.76765
563.339,27.31128,-3.23448,-0.18299,0.76718
563.939,27.33065,-3.23518,-0.18397,0.76671
564.539,27.35002,-3.2352,-0.18342,0.76624
565.139,27.36938,-3.23521,-0.18629,0.76577
565.739,27.3888,-3.23612,-0.18644,0.7653
566.339,27.40815,-3.23653,-0.18654,0.76483
566.939,27.42755,-3.23693,-0.18525,0.76435
567.539,27.44691,-3.23795,-0.18698,0.76388
568.139,27.46629,-3.23795,-0.18967,0.76341
568.739,27.48572,-3.23922,-0.18739,0.76294
569.339,27.505,-3.23932,-0.1903,0.76246
569.939,27.5244,-3.23792,-0.1909,0.76199
570.539,27.5438,-3.2379,-0.19171,0.76152
571.139,27.5632,-3.23906,-0.1941,0.76105
571.739,27.58271,-3.23795,-0.19477,0.76057
572.339,27.6021,-3.23794,-0.19487,0.7601
572.939,27.62156,-3.23842,-0.19624,0.75963
573.539,27.641,-3.23926,-0.19543,0.75915
574.139,27.6605,-3.23926,-0.19764,0.75868
574.739,27.6801,-3.23926,-0.19753,0.7582
575.339,27.6995,-3.23926,-0.19889,0.75773
575.939,27.71893,-3.23926,-0.19974,0.75726
576.539,27.7383,-3.23921,-0.20025,0.75678
577.139,27.7578,-3.2406,-0.20121,0.75631
577.739,27.77725,-3.24182,-0.20359,0.75583
578.339,27.79669,-3.2419,-0.20378,0.75536
578.939,27.8162,-3.24212,-0.20671,0.75488
579.539,27.83565,-3.24321,-0.20542,0.75441
580.139,27.85513,-3.24322,-0.20725,0.75393
580.739,27.8746,-3.24366,-0.20801,0.75346
581.339,27.89418,-3.24453,-0.20858,0.75298
581.939,27.9137,-3.24453,-0.21003,0.75251
582.539,27.93318,-3.24453,-0.21062,0.75203
583.139,27.95249,-3.24453,-0.2132,0.75156
583.739,27.9719,-3.24453,-0.21345,0.75108
584.339,27.9915,-3.24451,-0.21412,0.75061
584.939,28.01098,-3.24598,-0.21629,0.75013
585.539,28.0306,-3.24603,-0.21963,0.74965
586.139,28.05007,-3.24768,-0.2192,0.74918
586.739,28.0695,-3.24757,-0.21848,0.7487
587.339,28.089,-3.24897,-0.21756,0.74823
587.939,28.10848,-3.24892,-0.22068,0.74775
588.539,28.12797,-3.249,-0.22197,0.74727
589.139,28.14746,-3.25023,-0.22219,0.7468
589.739,28.167,-3.25024,-0.22232,0.74632
590.339,28.18652,-3.25056,-0.22146,0.74584
590.939,28.2061,-3.25156,-0.22328,0.74536
591.539,28.22568,-3.25156,-0.22643,0.74489
592.139,28.2452,-3.25156,-0.2273,0.74441
592.739,28.2647,-3.25154,-0.22794,0.74393
593.339,28.28425,-3.25063,-0.22946,0.74345
593.939,28.3038,-3.25088,-0.22904,0.74298
594.539,28.32327,-3.25188,-0.23179,0.7425
595.139,28.34279,-3.25189,-0.23168,0.74202
595.739,28.36235,-3.2519,-0.23506,0.74154
596.339,28.38193,-3.25278,-0.23506,0.74106
596.939,28.40148,-3.25321,-0.23484,0.74059
597.539,28.4211,-3.25363,-0.23648,0.74011
598.139,28.4406,-3.25452,-0.2358,0.73963
598.739,28.46012,-3.25452,-0.23644,0.73915
599.339,28.47963,-3.25452,-0.24025,0.73867
599.939,28.4992,-3.25452,-0.24201,0.73819
600.539,28.5188,-3.25503,-0.24218,0.73771
601.139,28.53831,-3.25583,-0.24598,0.73723
601.739,28.55795,-3.25584,-0.24658,0.73675
602.339,28.57752,-3.2562,-0.24585,0.73628
602.939,28.5971,-3.25715,-0.24789,0.7358
603.539,28.6167,-3.25699,-0.2477,0.73532
604.139,28.6363,-3.25705,-0.24786,0.73484
604.739,28.65591,-3.25813,-0.24831,0.73436
605.339,28.6755,-3.2582,-0.24989,0.73388
605.939,28.695,-3.25948,-0.25168,0.7334
606.539,28.71459,-3.25946,-0.25376,0.73292
607.139,28.7342,-3.25945,-0.25398,0.73244
607.739,28.754,-3.26081,-0.25445,0.73196
608.339,28.77354,-3.26078,-0.25644,0.73148
608.939,28.79322,-3.2611,-0.25886,0.731
609.539,28.8128,-3.2621,-0.25752,0.73051
610.139,28.8324,-3.26209,-0.25792,0.73003
610.739,28.85199,-3.26338,-0.25971,0.72955
611.339,28.87163,-3.26341,-0.25971,0.72907
611.939,28.89118,-3.26342,-0.26031,0.72859
612.539,28.9108,-3.26415,-0.26258,0.72811
613.139,28.93035,-3.26473,-0.26485,0.72763
613.739,28.94995,-3.26473,-0.26625,0.72715
614.339,28.96971,-3.26473,-0.26762,0.72667
614.939,28.98938,-3.26473,-0.26683,0.72618
615.539,29.00905,-3.26525,-0.26717,0.7257
616.139,29.02872,-3.26742,-0.26857,0.72522
616.739,29.04845,-3.26737,-0.26903,0.72474
617.339,29.06812,-3.26784,-0.2726,0.72426
617.939,29.08775,-3.26867,-0.27101,0.72378
618.539,29.10734,-3.26798,-0.27242,0.72329
619.139,29.12694,-3.26802,-0.27379,0.72281
619.739,29.14657,-3.26867,-0.27136,0.72233
620.339,29.16631,-3.26934,-0.27419,0.72185
620.939,29.186,-3.26938,-0.27651,0.72136
621.539,29.2057,-3.26995,-0.27702,0.72088
622.139,29.22532,-3.27,-0.27782,0.7204
622.739,29.2449,-3.27,-0.27741,0.71992
623.339,29.2646,-3.27002,-0.28105,0.71943
623.939,29.2842,-3.2719,-0.28074,0.71895
624.539,29.3039,-3.27264,-0.27996,0.71847
625.139,29.3236,-3.27331,-0.28318,0.71798
625.739,29.34303,-3.27404,-0.28572,0.7175
626.339,29.36267,-3.27524,-0.28524,0.71702
626.939,29.38236,-3.27538,-0.29108,0.71653
627.539,29.402,-3.27538,-0.29064,0.71605
628.139,29.42185,-3.27538,-0.28967,0.71557
628.739,29.4415,-3.27538,-0.29243,0.71508
629.339,29.4612,-3.27536,-0.29255,0.7146
629.939,29.48082,-3.27673,-0.29385,0.71412
630.539,29.50048,-3.2767,-0.29565,0.71363
631.139,29.5202,-3.27569,-0.29355,0.71315
631.739,29.5399,-3.27538,-0.29557,0.71267
632.339,29.5596,-3.27536,-0.29392,0.71218
632.939,29.5793,-3.27671,-0.29606,0.7117
633.539,29.599,-3.2767,-0.29728,0.71121
634.139,29.6188,-3.27694,-0.29706,0.71073
634.739,29.6385,-3.27754,-0.29702,0.71024
635.339,29.65826,-3.27671,-0.29746,0.70976
635.939,29.67799,-3.27688,-0.30004,0.70927
636.539,29.69766,-3.27803,-0.30277,0.70879
637.139,29.7174,-3.27743,-0.30148,0.70831
637.739,29.7371,-3.27804,-0.30191,0.70782
638.339,29.7568,-3.27802,-0.30073,0.70734
638.939,29.7765,-3.27802,-0.30084,0.70685
639.539,29.79608,-3.2781,-0.30208,0.70637
640.139,29.81571,-3.27953,-0.30486,0.70588
640.739,29.83533,-3.28065,-0.30704,0.7054
641.339,29.855,-3.28066,-0.30707,0.70491
641.939,29.8747,-3.28066,-0.30785,0.70443
642.539,29.8944,-3.28066,-0.30692,0.70394
643.139,29.91429,-3.28065,-0.30599,0.70345
643.739,29.934,-3.282,-0.30608,0.70297
644.339,29.95383,-3.28197,-0.30494,0.70248
644.939,29.97358,-3.28197,-0.31036,0.702
645.539,29.99333,-3.28295,-0.31154,0.70151
646.139,30.0131,-3.28372,-0.31036,0.70103
646.739,30.03282,-3.28372,-0.31081,0.70054
647.339,30.0525,-3.28464,-0.31218,0.70005
647.939,30.07228,-3.28504,-0.31348,0.69957
648.539,30.09198,-3.28504,-0.31386,0.69908
649.139,30.11165,-3.28524,-0.31365,0.6986
649.739,30.1314,-3.28637,-0.3147,0.69811
650.339,30.15107,-3.28672,-0.3156,0.69762
650.939,30.1708,-3.28777,-0.31685,0.69714
651.539,30.1906,-3.28778,-0.31715,0.69665
652.139,30.2104,-3.28757,-0.31624,0.69616
652.739,30.23007,-3.28814,-0.31728,0.69568
653.339,30.24982,-3.28812,-0.31899,0.69519
653.939,30.26949,-3.28812,-0.33887,0.6947
654.539,30.2891,-3.28812,-0.33523,0.69422
655.139,30.30878,-3.28809,-0.32842,0.69373
655.739,30.32852,-3.28949,-0.32708,0.69324
656.339,30.3483,-3.28944,-0.32683,0.69276
656.939,30.36812,-3.28944,-0.33178,0.69227
657.539,30.3879,-3.28945,-0.33137,0.69178
658.139,30.4077,-3.29023,-0.32539,0.6913
658.739,30.4275,-3.29075,-0.32714,0.69081
659.339,30.4472,-3.29075,-0.32907,0.69032
659.939,30.4669,-3.29075,-0.32964,0.68983
660.539,30.4867,-3.29174,-0.32985,0.68935
661.139,30.5064,-3.29207,-0.32957,0.68886
661.739,30.52615,-3.29206,-0.32998,0.68837
662.339,30.54591,-3.29337,-0.32844,0.68788
662.939,30.56571,-3.29339,-0.33045,0.6874
663.539,30.58545,-3.29339,-0.33143,0.68691
664.139,30.6052,-3.29339,-0.33223,0.68642
664.739,30.625,-3.29339,-0.33408,0.68593
665.339,30.6447,-3.29339,-0.33397,0.68545
665.939,30.66446,-3.29378,-0.33485,0.68496
666.539,30.6842,-3.2947,-0.33778,0.68447
667.139,30.70392,-3.29471,-0.33448,0.68398
667.739,30.72366,-3.29472,-0.33802,0.68349
668.339,30.74342,-3.29537,-0.33974,0.68301
668.939,30.7632,-3.29602,-0.33978,0.68252
669.539,30.78302,-3.29602,-0.34065,0.68203
670.139,30.80278,-3.29602,-0.34093,0.68154
670.739,30.82256,-3.29602,-0.33513,0.68105
671.339,30.8423,-3.29657,-0.23248,0.68057
671.939,30.86213,-3.29733,-0.21463,0.68008
672.539,30.88192,-3.29735,-0.22291,0.67959
673.139,30.9017,-3.29814,-0.2397,0.6791
673.739,30.9214,-3.29833,-0.25364,0.67861
674.339,30.94111,-3.29833,-0.26222,0.67812
674.939,30.96091,-3.29833,-0.26757,0.67764
675.539,30.98068,-3.29834,-0.27296,0.67715
676.139,31.0005,-3.29965,-0.27835,0.67666
676.739,31.02025,-3.3012,-0.28444,0.67617
677.339,31.04001,-3.30118,-0.29202,0.67568
677.939,31.05978,-3.30118,-0.29389,0.67519
678.539,31.07955,-3.29966,-0.29711,0.6747
679.139,31.0993,-3.29963,-0.30156,0.67421
679.739,31.11905,-3.29967,-0.30329,0.67373
680.339,31.1389,-3.29964,-0.30601,0.67324
680.939,31.15868,-3.29964,-0.30709,0.67275
681.539,31.1785,-3.29964,-0.30874,0.67226
682.139,31.19831,-3.29964,-0.31162,0.67177
682.739,31.218,-3.29964,-0.31384,0.67128
683.339,31.2378,-3.29965,-0.3168,0.67079
683.939,31.2576,-3.30039,-0.31653,0.6703
684.539,31.27727,-3.30095,-0.31848,0.66981
685.139,31.297,-3.30109,-0.319,0.66932
685.739,31.3168,-3.3023,-0.32306,0.66883
686.339,31.33656,-3.30228,-0.32565,0.66835
686.939,31.3564,-3.30228,-0.32727,0.66786
687.539,31.3762,-3.30228,-0.32709,0.66737
688.139,31.39578,-3.30228,-0.33071,0.66688
688.739,31.4156,-3.30228,-0.32862,0.66639
689.339,31.4353,-3.30225,-0.32834,0.6659
689.939,31.45513,-3.30365,-0.33162,0.66541
690.539,31.4751,-3.30354,-0.33407,0.66492
691.139,31.49486,-3.30295,-0.33624,0.66443
691.739,31.51466,-3.30294,-0.33858,0.66394
692.339,31.53442,-3.30294,-0.33956,0.66345
692.939,31.5542,-3.30294,-0.34403,0.66296
693.539,31.57402,-3.3029,-0.34434,0.66247
694.139,31.5938,-3.30163,-0.34521,0.66198
694.739,31.6136,-3.30162,-0.34635,0.66149
695.339,31.6334,-3.30162,-0.35083,0.661
695.939,31.65325,-3.3026,-0.35333,0.66051
696.339,31.66634,-3.30305,-0.35545,0.66019