File: 01_Data/Homasote/MCC/Homasote_MCC_30K_min_220317_R2.txt
Sample ID:	C:\MCC\MCC Cal\Test\Homasote_MCC_30K_min_220317_R2.txt
Sample Weight (mg):	4.23
Heating Rate (C/s):	0.5
Combustor Temp (C):	900
N2 Flow Rate (cc/min):	80
O2 Flow Rate (cc/min):	20
Calibration File:	C:\MCC\MCC Cal\Coeff1 JN10440_30_210304.txt.txt
T Correction Coefficients:	0	1.024463	0
Time Shift (s):	14
*
Time (s)	Temperature (C)	N2 flow rate (cc/min)	O2 flow rate (cc/min)	Flow Rate (cc/min)	Oxygen (%)	HRR (W/g)	Heating rate (C/s)
0.000	110.201	80.004	19.993	103.610	19.951	-0.464	-0.005
2.000	110.189	80.001	19.998	103.614	19.949	-0.295	0.015
4.000	110.182	80.004	19.996	103.611	19.946	-0.087	-0.015
6.000	110.149	80.005	19.991	103.616	19.939	0.408	0.020
8.000	110.126	80.001	19.993	103.628	19.943	0.113	-0.005
10.000	110.128	80.001	19.994	103.646	19.940	0.367	0.018
12.000	110.118	80.001	19.995	103.654	19.935	0.764	-0.037
14.000	110.166	80.002	19.997	103.612	19.929	1.212	0.025
16.000	110.248	80.001	19.995	103.643	19.929	1.225	0.048
18.000	110.310	80.001	19.996	103.835	19.925	1.499	0.030
20.000	110.338	80.001	19.995	103.777	19.914	2.335	0.040
22.000	110.470	80.002	19.993	103.782	19.910	2.650	0.035
24.000	110.646	80.000	19.994	103.787	19.910	2.671	0.059
26.000	110.849	80.001	19.993	103.805	19.909	2.726	0.118
28.000	111.065	80.002	19.997	103.797	19.907	2.884	0.122
30.000	111.320	80.002	19.991	103.792	19.906	2.990	0.127
32.000	111.559	80.003	19.996	103.796	19.908	2.820	0.127
34.000	111.886	80.002	19.994	103.805	19.908	2.824	0.165
36.000	112.189	80.003	19.993	103.809	19.909	2.718	0.147
38.000	112.560	80.002	19.993	103.800	19.904	3.105	0.190
40.001	112.910	80.002	19.994	103.725	19.905	3.050	0.186
42.000	113.303	80.000	19.995	103.879	19.908	2.842	0.204
44.000	113.738	80.001	19.994	103.826	19.908	2.780	0.216
46.001	114.163	80.000	19.994	103.813	19.906	2.945	0.226
48.000	114.588	80.001	19.994	103.832	19.904	3.132	0.221
50.000	115.049	80.001	19.994	103.840	19.902	3.294	0.242
52.001	115.523	80.000	19.995	103.840	19.903	3.209	0.232
54.000	116.025	80.002	19.995	103.836	19.903	3.216	0.262
56.000	116.537	80.003	19.995	103.831	19.901	3.326	0.234
58.000	117.080	80.003	19.994	103.818	19.900	3.411	0.248
60.000	117.651	80.002	19.994	103.838	19.901	3.324	0.270
62.000	118.228	80.003	19.994	103.829	19.899	3.539	0.281
64.000	118.846	80.003	19.992	103.838	19.898	3.541	0.277
66.001	119.440	80.003	19.994	103.848	19.899	3.464	0.342
68.000	120.042	80.002	19.994	103.848	19.897	3.692	0.323
70.000	120.671	80.002	19.993	103.852	19.895	3.828	0.345
72.000	121.313	80.001	19.996	103.854	19.896	3.726	0.293
74.000	122.020	80.001	19.994	103.860	19.899	3.492	0.327
76.000	122.714	80.003	19.994	103.861	19.895	3.828	0.365
78.000	123.432	80.002	19.996	103.854	19.894	3.885	0.381
80.001	124.102	80.004	19.994	103.855	19.894	3.915	0.342
82.000	124.841	80.003	19.994	103.866	19.893	3.979	0.324
84.001	125.588	80.005	19.994	103.856	19.895	3.798	0.388
86.000	126.328	80.004	19.994	103.850	19.890	4.223	0.366
88.000	127.098	80.003	19.995	103.863	19.891	4.112	0.377
90.000	127.904	80.001	19.993	103.864	19.890	4.225	0.407
92.001	128.666	80.001	19.995	103.874	19.893	3.951	0.363
94.000	129.463	80.001	19.995	103.871	19.892	4.046	0.411
96.000	130.269	80.001	19.994	103.862	19.890	4.187	0.381
98.000	131.070	80.001	19.995	103.852	19.890	4.195	0.356
100.000	131.880	80.001	19.995	103.854	19.893	3.987	0.413
102.000	132.732	79.999	19.994	103.849	19.891	4.076	0.429
104.000	133.536	80.003	19.994	103.848	19.892	4.014	0.402
106.000	134.405	80.001	19.993	103.859	19.892	4.040	0.424
108.000	135.296	80.000	19.995	103.857	19.895	3.783	0.460
110.000	136.121	79.998	19.996	103.857	19.893	3.997	0.443
112.000	136.991	80.001	19.998	103.852	19.892	4.015	0.428
114.000	137.894	80.000	19.998	103.850	19.894	3.864	0.428
116.000	138.780	80.001	19.996	103.848	19.893	3.985	0.443
118.001	139.629	80.001	19.996	103.849	19.894	3.866	0.436
120.000	140.549	80.001	19.995	103.851	19.893	3.938	0.407
122.000	141.442	80.000	19.995	103.851	19.895	3.798	0.433
124.000	142.364	80.001	19.996	103.853	19.894	3.908	0.461
126.000	143.300	80.000	19.994	103.858	19.893	3.940	0.488
128.000	144.223	79.999	19.994	103.850	19.893	3.985	0.483
130.000	145.114	80.001	19.994	103.857	19.893	3.980	0.483
132.000	146.014	80.001	19.994	103.853	19.892	4.014	0.456
134.000	146.938	80.001	19.994	103.854	19.894	3.853	0.453
136.000	147.855	80.003	19.994	103.849	19.891	4.089	0.460
138.001	148.783	80.002	19.994	103.852	19.891	4.087	0.428
140.000	149.736	80.003	19.993	103.853	19.892	4.042	0.453
142.000	150.676	80.003	19.993	103.850	19.893	3.951	0.474
144.000	151.634	80.001	19.995	103.848	19.904	3.154	0.487
146.000	152.641	80.002	19.994	103.850	19.892	4.048	0.537
148.000	153.492	80.002	19.994	103.846	19.893	3.934	0.453
150.000	154.471	80.002	19.994	103.849	19.894	3.905	0.447
152.000	155.430	80.003	19.994	103.845	19.892	4.057	0.316
154.000	156.343	80.002	19.994	103.847	19.891	4.102	0.464
156.000	157.318	80.003	19.996	103.846	19.891	4.080	0.469
158.000	158.269	80.004	19.995	103.848	19.894	3.904	0.476
160.000	159.206	80.004	19.994	103.827	19.891	4.106	0.458
162.000	160.224	80.005	19.994	103.750	19.891	4.148	0.490
164.000	161.152	80.004	19.995	103.907	19.893	3.961	0.499
166.000	162.141	80.002	19.996	103.894	19.892	4.058	0.481
168.000	163.115	80.002	19.994	103.843	19.895	3.825	0.464
170.000	164.115	80.002	19.995	103.844	19.890	4.205	0.495
172.000	165.100	80.002	19.996	103.836	19.894	3.893	0.522
174.000	166.044	80.001	19.995	103.837	19.892	4.008	0.473
176.000	167.040	80.002	19.995	103.835	19.888	4.331	0.481
178.000	167.987	80.002	19.995	103.836	19.891	4.145	0.465
180.000	168.970	80.002	19.994	103.838	19.890	4.192	0.487
182.000	169.953	80.001	19.994	103.845	19.890	4.207	0.491
184.000	170.900	80.001	19.992	103.841	19.890	4.216	0.456
186.000	171.894	80.001	19.995	103.843	19.889	4.269	0.464
188.000	172.867	80.002	19.994	103.835	19.891	4.082	0.475
190.000	173.834	80.001	19.994	103.834	19.891	4.094	0.471
192.000	174.817	80.000	19.995	103.840	19.892	4.033	0.485
194.000	175.828	80.001	19.995	103.840	19.894	3.905	0.514
196.000	176.803	80.000	19.996	103.828	19.894	3.890	0.493
198.000	177.834	80.000	19.994	103.827	19.892	4.007	0.492
200.000	178.788	80.000	19.995	103.840	19.891	4.096	0.522
202.000	179.797	80.000	19.994	103.829	19.891	4.088	0.497
204.000	180.758	80.000	19.996	103.832	19.892	4.073	0.477
206.000	181.781	79.999	19.995	103.827	19.889	4.294	0.491
208.000	182.759	80.000	19.996	103.820	19.887	4.395	0.477
210.000	183.793	80.000	19.995	103.822	19.889	4.250	0.485
212.000	184.789	80.002	19.994	103.831	19.888	4.378	0.505
214.000	185.773	80.002	19.994	103.821	19.888	4.342	0.523
216.000	186.769	80.002	19.995	103.814	19.898	3.546	0.521
218.000	187.760	80.002	19.994	103.816	19.888	4.334	0.483
220.000	188.719	80.003	19.995	103.833	19.884	4.632	0.451
222.000	189.755	80.002	19.995	103.820	19.886	4.470	0.510
224.000	190.729	80.003	19.995	103.809	19.887	4.457	0.495
226.000	191.707	80.001	19.994	103.827	19.882	4.792	0.487
228.000	192.776	80.003	19.994	103.816	19.885	4.605	0.529
230.000	193.713	80.002	19.993	103.818	19.882	4.812	0.458
232.000	194.749	80.002	19.996	103.825	19.883	4.705	0.547
234.000	195.710	80.003	19.996	103.820	19.882	4.796	0.523
236.000	196.755	80.002	19.996	103.810	19.879	5.051	0.499
238.000	197.769	80.004	19.994	103.807	19.878	5.130	0.522
240.000	198.721	80.002	19.994	103.823	19.881	4.841	0.472
242.000	199.758	80.005	19.997	103.820	19.879	5.017	0.511
244.000	200.767	80.003	19.995	103.811	19.877	5.168	0.505
246.000	201.734	80.003	19.993	103.811	19.876	5.287	0.488
248.000	202.782	80.004	19.994	103.817	19.875	5.334	0.487
250.000	203.758	80.002	19.994	103.814	19.876	5.242	0.508
252.000	204.739	80.002	19.995	103.811	19.875	5.364	0.482
254.000	205.780	80.002	19.994	103.810	19.874	5.448	0.517
256.000	206.813	80.003	19.994	103.811	19.867	5.945	0.535
258.000	207.767	80.001	19.994	103.810	19.867	5.958	0.507
260.000	208.785	80.002	19.993	103.810	19.865	6.106	0.480
262.000	209.764	80.001	19.996	103.812	19.862	6.312	0.510
264.000	210.759	80.000	19.996	103.734	19.858	6.632	0.518
266.000	211.758	80.000	19.996	103.803	19.863	6.248	0.503
268.000	212.814	80.001	19.995	103.881	19.865	6.114	0.524
270.000	213.755	80.000	19.995	103.808	19.876	5.223	0.464
272.000	214.764	80.000	19.995	103.800	19.856	6.805	0.527
274.000	215.734	80.002	19.995	103.807	19.860	6.522	0.506
276.000	216.719	80.000	19.996	103.800	19.853	7.038	0.490
278.000	217.722	80.001	19.996	103.790	19.852	7.072	0.537
280.000	218.706	80.001	19.996	103.804	19.851	7.184	0.517
282.000	219.629	80.001	19.995	103.803	19.848	7.413	0.465
284.000	220.597	79.999	19.997	103.802	19.848	7.435	0.460
286.000	221.604	80.001	19.995	103.795	19.845	7.643	0.508
288.000	222.608	80.000	19.997	103.800	19.843	7.799	0.485
290.000	223.572	80.000	19.994	103.800	19.840	8.029	0.470
292.000	224.571	80.000	19.997	103.797	19.838	8.199	0.519
294.000	225.511	80.002	19.997	103.791	19.839	8.115	0.523
296.000	226.518	80.001	19.997	103.796	19.837	8.250	0.524
298.000	227.454	80.003	19.996	103.793	19.833	8.533	0.444
300.000	228.496	80.004	19.996	103.790	19.832	8.606	0.468
302.000	229.478	80.003	19.995	103.802	19.828	8.952	0.477
304.000	230.483	80.003	19.995	103.806	19.827	9.038	0.491
306.000	231.429	80.002	19.995	103.804	19.826	9.084	0.463
308.000	232.421	80.002	19.995	103.802	19.822	9.377	0.481
310.000	233.360	80.001	19.994	103.806	19.821	9.487	0.459
312.000	234.372	80.002	19.995	103.788	19.820	9.547	0.483
314.000	235.390	80.001	19.994	103.806	19.819	9.659	0.506
316.000	236.357	80.001	19.994	103.800	19.816	9.861	0.501
318.000	237.363	80.002	19.994	103.798	19.816	9.838	0.518
320.000	238.351	80.001	19.995	103.786	19.812	10.192	0.496
322.000	239.313	80.003	19.995	103.796	19.812	10.150	0.453
324.000	240.303	80.003	19.994	103.795	19.809	10.389	0.483
326.000	241.264	80.002	19.994	103.796	19.807	10.555	0.503
328.000	242.273	80.002	19.994	103.803	19.804	10.743	0.503
330.000	243.267	80.002	19.994	103.797	19.802	10.918	0.521
332.000	244.257	80.001	19.994	103.804	19.798	11.250	0.516
334.000	245.268	80.001	19.995	103.799	19.796	11.399	0.506
336.000	246.240	80.001	19.995	103.790	19.798	11.207	0.507
338.000	247.230	80.000	19.995	103.796	19.793	11.628	0.495
340.000	248.223	80.002	19.995	103.780	19.796	11.416	0.513
342.000	249.246	80.001	19.994	103.771	19.793	11.586	0.541
344.000	250.243	80.001	19.994	103.792	19.791	11.784	0.530
346.000	251.217	80.001	19.995	103.774	19.789	11.882	0.495
348.000	252.224	80.000	19.994	103.780	19.786	12.141	0.492
350.000	253.225	80.000	19.994	103.772	19.785	12.218	0.511
352.000	254.175	80.002	19.995	103.797	19.783	12.352	0.471
354.000	255.161	80.001	19.995	103.781	19.787	12.068	0.507
356.000	256.153	80.001	19.996	103.776	19.784	12.274	0.493
358.000	257.082	80.000	19.995	103.778	19.783	12.395	0.453
360.000	258.064	80.003	19.995	103.782	19.782	12.433	0.480
362.000	259.024	80.002	19.994	103.772	19.780	12.619	0.471
364.000	260.039	80.000	19.996	103.796	19.779	12.683	0.502
366.000	261.003	80.000	19.996	103.806	19.776	12.921	0.504
368.000	262.005	80.000	19.996	103.806	19.773	13.129	0.494
370.000	262.969	80.002	19.996	103.807	19.773	13.142	0.491
372.000	263.927	80.001	19.995	103.808	19.773	13.164	0.468
374.000	264.937	80.000	19.995	103.803	19.769	13.429	0.506
376.000	265.934	80.002	19.995	103.802	19.768	13.559	0.503
378.000	266.943	80.002	19.996	103.808	19.766	13.652	0.494
380.000	267.942	80.002	19.996	103.807	19.767	13.631	0.519
382.000	268.914	80.002	19.997	103.812	19.768	13.534	0.460
384.000	269.976	80.002	19.996	103.811	19.765	13.778	0.550
386.000	270.961	80.000	19.995	103.807	19.762	13.982	0.504
388.000	272.015	80.000	19.996	103.807	19.758	14.279	0.527
390.000	273.068	80.002	19.996	103.810	19.758	14.279	0.496
392.000	274.049	80.001	19.995	103.810	19.755	14.543	0.498
394.000	275.071	80.001	19.995	103.812	19.756	14.466	0.511
396.000	276.135	80.002	19.994	103.815	19.753	14.712	0.524
398.000	277.130	80.002	19.995	103.814	19.753	14.657	0.493
400.000	278.146	80.003	19.994	103.810	19.750	14.903	0.531
402.000	279.163	80.002	19.993	103.810	19.746	15.207	0.515
404.000	280.162	80.004	19.994	103.807	19.742	15.490	0.482
406.001	281.159	80.003	19.994	103.813	19.740	15.640	0.494
408.000	282.176	80.003	19.996	103.814	19.735	16.076	0.491
410.000	283.214	80.002	19.994	103.812	19.735	16.024	0.529
412.000	284.228	80.003	19.997	103.810	19.734	16.131	0.521
414.000	285.200	80.000	19.996	103.816	19.733	16.230	0.490
416.000	286.226	79.999	19.997	103.810	19.729	16.532	0.511
418.000	287.170	80.001	19.995	103.818	19.722	17.039	0.449
420.000	288.192	80.000	19.995	103.818	19.719	17.286	0.486
422.000	289.169	80.000	19.995	103.831	19.719	17.272	0.508
424.000	290.181	80.002	19.995	103.822	19.712	17.802	0.491
426.000	291.173	80.000	19.995	103.837	19.708	18.125	0.509
428.000	292.162	80.001	19.994	103.829	19.708	18.154	0.510
430.000	293.136	80.004	19.994	103.831	19.702	18.565	0.490
432.000	294.101	80.003	19.995	103.846	19.693	19.246	0.494
434.000	295.118	80.003	19.993	103.848	19.691	19.399	0.515
436.000	296.092	80.003	19.995	103.852	19.688	19.695	0.495
438.000	297.027	80.003	19.994	103.849	19.680	20.314	0.472
440.001	298.062	80.002	19.994	103.854	19.676	20.611	0.501
442.000	299.091	80.001	19.996	103.852	19.671	20.997	0.485
444.000	300.090	80.000	19.994	103.861	19.666	21.347	0.528
446.000	301.084	80.001	19.995	103.860	19.657	22.008	0.504
448.000	302.082	80.001	19.995	103.857	19.653	22.317	0.494
450.000	303.099	80.001	19.996	103.872	19.646	22.902	0.527
452.000	304.102	80.003	19.996	103.869	19.641	23.252	0.518
454.000	305.106	80.002	19.995	103.866	19.634	23.826	0.498
456.000	306.090	80.002	19.995	103.880	19.626	24.447	0.527
458.000	307.151	80.000	19.995	103.886	19.616	25.169	0.541
460.000	308.130	80.002	19.995	103.888	19.614	25.368	0.506
462.000	309.180	80.003	19.995	103.888	19.602	26.255	0.537
464.001	310.205	80.004	19.995	103.889	19.597	26.620	0.528
466.000	311.201	80.002	19.995	103.887	19.591	27.105	0.519
468.000	312.283	80.004	19.994	103.886	19.579	28.001	0.520
470.000	313.320	80.000	19.996	103.888	19.573	28.452	0.506
472.000	314.344	80.002	19.997	103.885	19.563	29.219	0.548
474.000	315.338	80.002	19.996	103.895	19.555	29.850	0.521
476.000	316.396	80.001	19.996	103.892	19.550	30.277	0.503
478.000	317.391	80.002	19.995	103.892	19.537	31.284	0.539
480.000	318.437	80.004	19.996	103.889	19.530	31.795	0.511
482.000	319.433	80.004	19.995	103.908	19.518	32.723	0.517
484.000	320.408	80.005	19.996	103.895	19.511	33.226	0.496
486.000	321.445	80.005	19.994	103.913	19.503	33.882	0.516
488.000	322.434	80.005	19.994	103.913	19.491	34.738	0.497
490.000	323.457	80.005	19.995	103.921	19.483	35.368	0.534
492.000	324.415	80.004	19.995	103.906	19.470	36.397	0.464
494.000	325.428	80.002	19.994	103.924	19.461	37.044	0.495
496.000	326.420	80.002	19.996	103.921	19.452	37.786	0.510
498.000	327.420	80.002	19.996	103.919	19.443	38.444	0.519
500.000	328.384	80.001	19.994	103.923	19.433	39.238	0.477
502.000	329.383	80.000	19.995	103.928	19.426	39.786	0.475
504.000	330.341	80.001	19.998	103.929	19.418	40.361	0.460
506.000	331.280	80.001	19.996	103.932	19.406	41.348	0.452
508.000	332.267	80.001	19.995	103.938	19.394	42.267	0.502
510.000	333.254	80.003	19.995	103.949	19.381	43.253	0.455
512.000	334.292	80.002	19.994	103.955	19.371	44.002	0.534
514.000	335.281	80.000	19.994	103.963	19.360	44.849	0.517
516.000	336.319	80.003	19.996	103.967	19.350	45.621	0.500
518.000	337.287	80.001	19.993	103.963	19.338	46.527	0.494
520.000	338.282	80.003	19.994	103.963	19.326	47.487	0.484
522.000	339.236	80.002	19.995	103.969	19.311	48.573	0.506
524.000	340.206	80.001	19.995	103.980	19.302	49.273	0.446
526.000	341.242	80.002	19.995	103.969	19.287	50.431	0.525
528.000	342.165	80.002	19.994	103.970	19.275	51.362	0.454
530.000	343.164	79.999	19.993	103.979	19.264	52.230	0.499
532.000	344.143	80.003	19.995	103.988	19.251	53.227	0.470
534.000	345.094	80.000	19.996	103.982	19.239	54.143	0.484
536.000	346.118	80.001	19.995	103.993	19.225	55.242	0.495
538.000	347.095	80.002	19.995	104.003	19.208	56.525	0.497
540.000	348.107	80.003	19.995	104.002	19.202	56.964	0.482
542.000	349.084	80.004	19.995	104.001	19.190	57.915	0.500
544.000	350.071	80.002	19.995	104.001	19.179	58.715	0.505
546.000	351.034	80.005	19.995	104.001	19.170	59.450	0.493
548.000	352.016	80.003	19.995	104.004	19.155	60.570	0.499
550.000	353.049	80.003	19.996	104.017	19.147	61.204	0.493
552.000	354.052	80.004	19.995	104.012	19.139	61.807	0.474
554.000	355.031	80.002	19.995	104.025	19.131	62.390	0.503
556.000	356.076	80.003	19.995	104.014	19.116	63.613	0.504
558.000	357.060	80.003	19.994	104.024	19.114	63.752	0.504
560.000	358.132	80.004	19.994	104.021	19.105	64.447	0.512
562.000	359.134	80.001	19.996	104.020	19.099	64.874	0.508
564.000	360.135	80.002	19.994	104.010	19.093	65.328	0.523
566.000	361.173	80.003	19.996	104.017	19.089	65.596	0.504
568.000	362.202	80.002	20.000	104.011	19.091	65.505	0.519
570.000	363.209	80.002	19.997	104.002	19.093	65.306	0.498
572.000	364.259	80.000	19.996	104.003	19.095	65.120	0.542
574.000	365.238	80.000	19.996	103.999	19.102	64.629	0.489
576.000	366.327	80.002	19.995	103.984	19.111	63.922	0.545
578.000	367.372	80.002	19.996	103.978	19.121	63.120	0.510
580.000	368.399	80.001	19.994	103.967	19.140	61.699	0.546
582.000	369.469	80.000	19.994	103.952	19.151	60.806	0.536
584.000	370.484	80.001	19.995	103.932	19.171	59.262	0.520
586.000	371.502	80.001	19.995	103.929	19.191	57.728	0.492
588.000	372.597	80.001	19.994	103.920	19.222	55.351	0.557
590.000	373.624	79.998	19.994	103.906	19.248	53.362	0.510
592.000	374.696	80.002	19.995	103.901	19.282	50.769	0.533
594.000	375.706	80.002	19.995	103.882	19.317	48.042	0.487
596.000	376.748	80.000	19.995	103.855	19.349	45.635	0.515
598.000	377.759	80.002	19.994	103.848	19.387	42.649	0.492
600.000	378.810	80.003	19.994	103.827	19.426	39.688	0.518
602.000	379.826	80.002	19.994	103.807	19.464	36.768	0.510
604.000	380.883	79.999	19.996	103.802	19.502	33.870	0.526
606.000	381.894	80.000	19.996	103.797	19.537	31.164	0.512
608.000	382.928	80.001	19.994	103.776	19.575	28.250	0.501
610.000	383.946	80.001	19.995	103.768	19.611	25.551	0.483
612.000	384.956	80.003	19.995	103.756	19.644	22.991	0.512
614.000	385.964	80.003	19.996	103.754	19.674	20.746	0.509
616.000	386.945	80.002	19.996	103.746	19.701	18.617	0.484
618.000	388.002	80.003	19.995	103.743	19.726	16.750	0.510
620.000	388.981	80.003	19.996	103.732	19.747	15.161	0.489
622.000	389.978	80.004	19.995	103.731	19.763	13.882	0.491
624.000	390.963	80.003	19.995	103.736	19.780	12.588	0.519
626.000	391.966	80.002	19.995	103.730	19.791	11.748	0.500
628.000	392.960	80.002	19.995	103.730	19.803	10.873	0.517
630.000	393.975	80.002	19.995	103.732	19.811	10.230	0.503
632.000	395.011	80.001	19.996	103.728	19.821	9.499	0.496
634.000	395.966	80.001	19.996	103.738	19.824	9.233	0.502
636.000	396.959	80.002	19.996	103.747	19.829	8.858	0.501
638.000	397.925	80.001	19.996	103.732	19.833	8.522	0.499
640.000	398.937	80.003	19.995	103.732	19.838	8.179	0.507
642.000	399.954	80.003	19.995	103.732	19.837	8.224	0.496
644.000	400.932	80.001	19.994	103.733	19.835	8.381	0.508
646.000	401.959	80.003	19.995	103.730	19.839	8.113	0.512
648.000	402.939	80.001	19.994	103.748	19.842	7.892	0.486
650.000	403.976	80.003	19.993	103.739	19.843	7.769	0.477
652.000	404.995	80.003	19.995	103.736	19.844	7.687	0.500
654.000	405.976	80.002	19.995	103.737	19.842	7.858	0.531
656.000	407.020	80.002	19.997	103.733	19.842	7.837	0.523
658.000	407.997	80.000	19.996	103.731	19.842	7.886	0.463
660.000	409.014	79.999	19.995	103.729	19.841	7.972	0.488
662.000	410.067	80.002	19.995	103.731	19.843	7.797	0.509
664.000	411.050	80.000	19.996	103.731	19.841	7.941	0.497
666.000	412.118	80.001	19.995	103.727	19.843	7.793	0.520
668.000	413.081	80.001	19.995	103.731	19.841	7.899	0.502
670.000	414.095	80.003	19.995	103.725	19.842	7.822	0.520
672.000	415.071	80.002	19.995	103.728	19.843	7.750	0.492
674.000	416.094	80.002	19.994	103.729	19.844	7.716	0.515
676.000	417.085	80.001	19.995	103.728	19.846	7.565	0.508
678.000	418.139	80.000	19.995	103.731	19.844	7.682	0.539
680.000	419.146	80.002	19.994	103.733	19.849	7.298	0.510
682.000	420.152	80.000	19.996	103.731	19.841	7.948	0.490
684.000	421.206	80.003	19.996	103.733	19.846	7.546	0.519
686.000	422.272	80.003	19.995	103.729	19.845	7.663	0.540
688.000	423.255	80.000	19.995	103.729	19.845	7.659	0.515
690.000	424.217	80.001	19.995	103.730	19.845	7.606	0.506
692.000	425.282	80.000	19.996	103.729	19.843	7.799	0.521
694.000	426.291	80.001	19.994	103.729	19.847	7.472	0.504
696.000	427.307	80.001	19.995	103.731	19.846	7.585	0.521
698.000	428.319	80.003	19.995	103.730	19.847	7.505	0.511
700.000	429.297	80.003	19.994	103.729	19.845	7.660	0.474
702.000	430.329	80.003	19.993	103.732	19.849	7.340	0.515
704.000	431.272	80.004	19.994	103.729	19.851	7.185	0.487
706.000	432.319	80.003	19.994	103.729	19.847	7.473	0.484
708.000	433.315	80.002	19.994	103.725	19.852	7.060	0.488
710.000	434.297	80.000	19.994	103.708	19.852	7.092	0.482
712.000	435.300	80.001	19.996	103.724	19.851	7.158	0.487
714.000	436.254	80.003	19.994	103.717	19.853	6.979	0.470
716.000	437.260	80.002	19.995	103.727	19.854	6.929	0.519
718.000	438.246	80.003	19.994	103.711	19.855	6.844	0.495
720.000	439.206	80.004	19.995	103.719	19.855	6.840	0.493
722.000	440.222	80.003	19.996	103.727	19.852	7.101	0.486
724.000	441.155	80.004	19.994	103.719	19.855	6.839	0.492
726.000	442.145	80.003	19.995	103.722	19.856	6.823	0.473
728.000	443.136	80.004	19.995	103.726	19.859	6.591	0.500
730.000	444.129	80.003	19.994	103.724	19.859	6.562	0.509
732.000	445.085	80.002	19.995	103.729	19.859	6.563	0.457
734.001	446.155	80.000	19.995	103.719	19.857	6.678	0.516
736.000	447.098	80.002	19.995	103.720	19.859	6.549	0.485
738.000	448.134	80.002	19.996	103.726	19.861	6.389	0.514
740.000	449.086	80.001	19.994	103.726	19.863	6.280	0.496
742.000	450.109	80.001	19.995	103.717	19.864	6.211	0.504
744.000	451.125	80.002	19.995	103.719	19.863	6.230	0.510
746.000	452.121	80.001	19.996	103.721	19.863	6.226	0.473
748.000	453.132	80.000	19.995	103.718	19.864	6.142	0.487
750.000	454.173	80.000	19.996	103.715	19.868	5.842	0.520
752.000	455.218	80.001	19.996	103.725	19.867	5.982	0.517
754.000	456.242	80.000	19.996	103.711	19.864	6.152	0.529
756.000	457.278	80.000	19.996	103.718	19.867	5.943	0.512
758.000	458.294	80.002	19.996	103.727	19.866	6.014	0.507
760.001	459.345	80.001	19.995	103.722	19.868	5.868	0.530
762.000	460.372	80.002	19.995	103.716	19.868	5.862	0.519
764.000	461.374	80.002	19.994	103.716	19.867	5.935	0.505
766.000	462.446	80.001	19.995	103.728	19.870	5.742	0.542
768.000	463.404	80.002	19.993	103.728	19.873	5.498	0.518
770.000	464.426	80.001	19.993	103.722	19.875	5.314	0.538
772.000	465.426	80.002	19.995	103.728	19.874	5.434	0.504
774.000	466.435	80.001	19.995	103.713	19.876	5.290	0.519
776.000	467.474	80.001	19.995	103.709	19.870	5.731	0.535
778.000	468.451	80.003	19.995	103.710	19.874	5.388	0.486
780.000	469.509	80.003	19.994	103.707	19.875	5.314	0.504
782.000	470.477	80.003	19.995	103.707	19.877	5.141	0.504
784.000	471.509	80.002	19.994	103.711	19.878	5.110	0.490
786.000	472.491	80.003	19.995	103.710	19.879	5.008	0.511
788.000	473.497	80.003	19.995	103.705	19.878	5.072	0.484
790.000	474.508	80.002	19.994	103.719	19.880	4.944	0.516
792.000	475.518	80.003	19.998	103.701	19.881	4.879	0.506
794.000	476.522	80.003	19.997	103.710	19.880	4.961	0.498
796.000	477.540	80.003	19.995	103.697	19.883	4.736	0.490
798.000	478.557	80.002	19.994	103.715	19.881	4.881	0.505
800.000	479.575	80.004	19.995	103.708	19.884	4.674	0.540
802.000	480.590	80.003	19.995	103.701	19.885	4.570	0.475
804.000	481.602	80.004	19.994	103.717	19.885	4.567	0.524
806.000	482.610	80.004	19.993	103.695	19.886	4.456	0.510
808.000	483.615	80.004	19.994	103.702	19.885	4.583	0.508
810.000	484.623	80.004	19.995	103.700	19.885	4.534	0.518
812.000	485.609	80.002	19.995	103.691	19.886	4.520	0.503
814.000	486.624	80.002	19.996	103.704	19.889	4.238	0.517
816.000	487.621	80.001	19.997	103.701	19.890	4.153	0.490
818.000	488.626	80.001	19.995	103.701	19.889	4.297	0.516
820.000	489.640	80.000	19.995	103.694	19.891	4.087	0.497
822.000	490.639	80.001	19.994	103.693	19.894	3.882	0.502
824.000	491.672	80.002	19.995	103.702	19.893	3.954	0.500
826.000	492.702	80.001	19.995	103.715	19.897	3.668	0.523
828.000	493.722	80.001	19.995	103.705	19.896	3.742	0.557
830.000	494.762	80.000	19.993	103.694	19.899	3.466	0.542
832.000	495.800	80.002	19.995	103.721	19.898	3.597	0.527
834.000	496.777	80.002	19.997	103.712	19.897	3.635	0.526
836.000	497.809	80.002	19.995	103.716	19.895	3.803	0.527
838.000	498.820	80.001	19.995	103.715	19.896	3.692	0.506
840.000	499.822	79.999	19.994	103.699	19.898	3.582	0.496
842.000	500.839	80.000	19.995	103.696	19.898	3.593	0.506
844.000	501.836	80.000	19.996	103.706	19.899	3.510	0.498
846.000	502.841	79.999	19.996	103.694	19.901	3.323	0.490
848.000	503.831	80.000	19.996	103.693	19.897	3.627	0.475
850.000	504.807	80.001	19.996	103.692	19.897	3.654	0.512
852.000	505.788	80.001	19.995	103.693	19.897	3.614	0.510
854.000	506.800	80.000	19.995	103.691	19.899	3.468	0.485
856.000	507.776	80.002	19.994	103.690	19.900	3.400	0.481
858.000	508.760	80.002	19.993	103.691	19.901	3.368	0.463
860.000	509.786	80.004	19.994	103.696	19.904	3.137	0.495
862.000	510.798	80.003	19.994	103.693	19.903	3.177	0.509
864.000	511.711	80.004	19.995	103.691	19.902	3.277	0.490
866.000	512.688	80.002	19.994	103.698	19.904	3.090	0.481
868.000	513.717	80.003	19.995	103.701	19.904	3.147	0.470
870.000	514.720	80.003	19.994	103.694	19.906	2.976	0.521
872.000	515.728	80.002	19.996	103.693	19.904	3.084	0.500
874.000	516.736	80.003	19.995	103.708	19.907	2.901	0.508
876.000	517.733	80.004	19.994	103.692	19.907	2.893	0.494
878.000	518.746	80.003	19.995	103.697	19.903	3.160	0.491
880.000	519.763	80.004	19.995	103.699	19.904	3.101	0.501
882.000	520.765	80.005	19.995	103.693	19.907	2.895	0.497
884.000	521.722	80.004	19.994	103.692	19.904	3.092	0.466
886.000	522.741	80.005	19.994	103.700	19.906	2.997	0.504
888.000	523.776	80.005	19.994	103.697	19.905	3.027	0.532
890.000	524.733	80.003	19.993	103.693	19.907	2.891	0.498
892.000	525.726	80.002	19.994	103.704	19.905	3.071	0.468
894.000	526.719	80.003	19.994	103.695	19.906	2.925	0.479
896.000	527.743	80.001	19.993	103.702	19.903	3.175	0.485
898.000	528.729	80.000	19.994	103.700	19.903	3.165	0.481
900.000	529.789	80.001	19.993	103.698	19.907	2.874	0.514
902.000	530.778	80.000	19.994	103.702	19.908	2.831	0.549
904.000	531.783	80.001	19.994	103.709	19.906	2.959	0.491
906.000	532.775	80.001	19.994	103.701	19.906	2.999	0.520
908.000	533.792	80.000	19.993	103.704	19.910	2.691	0.506
910.000	534.819	80.000	19.994	103.694	19.907	2.888	0.510
912.000	535.827	80.001	19.995	103.693	19.904	3.118	0.500
914.000	536.868	80.002	19.996	103.695	19.906	2.963	0.525
916.000	537.878	80.002	19.994	103.694	19.904	3.114	0.487
918.000	538.933	80.001	19.994	103.694	19.904	3.097	0.523
920.000	539.904	80.001	19.993	103.697	19.906	2.969	0.487
922.000	540.930	80.001	19.994	103.691	19.905	3.071	0.531
924.001	541.938	80.001	19.994	103.704	19.906	2.963	0.506
926.000	542.974	80.000	19.995	103.698	19.907	2.895	0.510
928.000	543.988	80.000	19.994	103.707	19.906	2.994	0.530
930.000	544.993	80.000	19.995	103.692	19.905	3.069	0.524
932.000	546.028	80.001	19.995	103.691	19.906	2.952	0.523
934.000	547.045	80.001	19.996	103.691	19.902	3.296	0.509
936.000	548.086	80.002	19.995	103.683	19.903	3.192	0.514
938.000	549.117	80.002	19.996	103.628	19.904	3.127	0.509
940.000	550.116	80.003	19.996	103.757	19.906	2.961	0.510
942.000	551.159	80.003	19.995	103.716	19.907	2.910	0.507
944.000	552.187	80.004	19.995	103.690	19.906	2.993	0.497
946.000	553.232	80.002	19.994	103.694	19.905	3.065	0.529
948.000	554.295	80.003	19.994	103.710	19.907	2.923	0.504
950.000	555.374	80.001	19.992	103.702	19.908	2.797	0.541
952.000	556.453	80.002	19.996	103.707	19.907	2.850	0.550
954.000	557.445	80.002	19.995	103.697	19.905	3.033	0.510
956.000	558.493	80.004	19.994	103.693	19.907	2.891	0.522
958.000	559.555	80.003	19.994	103.694	19.908	2.823	0.516
960.000	560.598	80.003	19.995	103.697	19.905	3.046	0.519
962.000	561.675	80.004	19.994	103.692	19.904	3.118	0.520
964.000	562.739	80.004	19.994	103.696	19.906	2.925	0.535
966.000	563.792	80.004	19.993	103.695	19.906	2.997	0.542
968.000	564.839	80.004	19.994	103.696	19.907	2.852	0.515
970.000	565.870	80.003	19.993	103.695	19.906	2.925	0.521
972.000	566.907	80.002	19.993	103.695	19.904	3.077	0.521
974.000	567.937	80.001	19.995	103.699	19.908	2.797	0.533
976.000	568.960	80.004	19.994	103.692	19.906	2.980	0.515
978.000	570.021	80.002	19.993	103.690	19.904	3.094	0.520
980.000	571.020	80.004	19.994	103.690	19.904	3.081	0.522
982.000	572.023	80.003	19.994	103.689	19.907	2.884	0.496
984.000	573.055	80.002	19.995	103.697	19.904	3.092	0.499
986.000	574.095	80.003	19.994	103.691	19.903	3.198	0.536
988.000	575.135	80.003	19.994	103.691	19.906	2.995	0.532
990.000	576.139	80.002	19.993	103.689	19.906	2.988	0.529
992.000	577.136	80.003	19.995	103.691	19.907	2.878	0.483
994.000	578.099	80.002	19.995	103.697	19.906	2.954	0.500
996.000	579.125	80.002	19.995	103.692	19.902	3.273	0.550
998.000	580.065	80.002	19.994	103.698	19.902	3.234	0.497
1000.000	581.062	80.002	19.995	103.702	19.906	2.972	0.509
1002.000	582.038	80.002	19.995	103.692	19.911	2.573	0.478
1004.000	583.054	80.003	19.995	103.699	19.903	3.167	0.481
1006.000	584.091	80.001	19.995	103.694	19.905	3.004	0.505
1008.000	585.099	80.001	19.994	103.704	19.906	2.968	0.523
1010.000	586.136	79.999	19.994	103.696	19.905	3.057	0.513
1012.000	587.176	80.002	19.996	103.712	19.901	3.322	0.488
1014.000	588.215	80.001	19.995	103.727	19.905	3.052	0.527
1016.000	589.318	80.002	19.994	103.715	19.906	2.991	0.536
1018.000	590.351	80.000	19.995	103.718	19.906	2.997	0.531
1020.000	591.453	80.003	19.994	103.717	19.907	2.915	0.546
1022.000	592.529	80.004	19.995	103.713	19.905	3.043	0.534
1024.001	593.675	80.004	19.996	103.697	19.905	3.043	0.567
1026.001	594.792	80.002	19.995	103.704	19.905	3.023	0.595
1028.000	595.838	80.002	19.994	103.700	19.908	2.811	0.539
1030.000	596.980	80.002	19.995	103.705	19.903	3.216	0.577
1032.001	598.062	80.002	19.995	103.707	19.905	3.037	0.580
1034.000	599.156	80.001	19.994	103.695	19.906	2.967	0.553
1036.000	600.241	80.003	19.994	103.707	19.906	2.993	0.507
1038.000	601.369	80.002	19.994	103.718	19.905	3.014	0.569
1040.000	602.474	80.003	19.994	103.706	19.909	2.764	0.548
1042.000	603.525	80.004	19.993	103.700	19.909	2.725	0.536
1044.000	604.628	80.004	19.994	103.692	19.907	2.861	0.528
1046.000	605.728	80.004	19.994	103.697	19.905	3.067	0.542
1048.000	606.837	80.006	19.994	103.702	19.907	2.882	0.542
1050.001	607.908	80.004	19.995	103.689	19.906	2.984	0.551
1052.000	609.002	80.003	19.996	103.700	19.906	2.954	0.565
1054.000	610.057	80.003	19.996	103.692	19.906	2.961	0.533
1056.000	611.125	80.001	19.994	103.691	19.906	2.952	0.527
1058.001	612.191	80.002	19.994	103.702	19.907	2.872	0.539
1060.000	613.281	80.002	19.995	103.692	19.906	2.989	0.541
1062.000	614.332	80.002	19.996	103.696	19.903	3.213	0.565
1064.000	615.384	80.001	19.995	103.697	19.903	3.222	0.533
1066.000	616.477	80.001	19.994	103.697	19.906	2.990	0.536
1068.000	617.518	80.003	19.994	103.702	19.906	2.978	0.535
1070.001	618.546	80.001	19.993	103.697	19.904	3.130	0.522
1072.000	619.629	80.003	19.995	103.701	19.901	3.315	0.557
1074.000	620.645	80.001	19.995	103.693	19.907	2.853	0.529
1076.000	621.707	80.002	19.994	103.698	19.909	2.762	0.524
1078.001	622.729	80.003	19.994	103.696	19.907	2.859	0.512
1080.001	623.784	80.003	19.994	103.695	19.903	3.196	0.531
1082.000	624.813	80.003	19.995	103.695	19.905	3.048	0.501
1084.001	625.866	80.001	19.994	103.698	19.905	3.024	0.544
1086.000	626.857	80.001	19.993	103.697	19.902	3.285	0.510
1088.000	627.957	80.002	19.994	103.707	19.904	3.135	0.520
1090.000	629.035	80.001	19.995	103.703	19.904	3.084	0.550
1092.001	630.020	80.002	19.994	103.708	19.908	2.819	0.497
1094.000	631.031	80.001	19.994	103.700	19.905	3.043	0.503
1096.001	632.120	80.002	19.995	103.697	19.907	2.882	0.555
1098.001	633.100	80.002	19.995	103.701	19.906	2.931	0.516
1100.000	634.130	80.003	19.994	103.694	19.906	2.952	0.514
1102.001	635.206	80.002	19.993	103.697	19.904	3.145	0.508
1104.000	636.257	80.003	19.995	103.696	19.901	3.325	0.523
1106.000	637.262	80.002	19.995	103.696	19.903	3.175	0.533
1108.000	638.294	80.004	19.994	103.705	19.903	3.161	0.538
1110.000	639.311	80.003	19.994	103.702	19.898	3.564	0.508
1112.000	640.320	80.001	19.995	103.650	19.901	3.349	0.480
1114.000	641.305	80.002	19.995	103.633	19.901	3.313	0.491
1116.000	642.320	80.002	19.996	103.776	19.905	3.039	0.508
1118.000	643.330	80.003	19.997	103.724	19.909	2.762	0.506
1120.000	644.300	80.003	19.996	103.717	19.905	3.035	0.479
1122.001	645.381	80.003	19.995	103.710	19.901	3.317	0.546
1124.000	646.323	80.003	19.996	103.710	19.904	3.110	0.509
1126.000	647.377	80.002	19.995	103.702	19.904	3.091	0.507
1128.000	648.383	80.004	19.994	103.719	19.900	3.411	0.508
1130.000	649.422	80.002	19.994	103.708	19.902	3.282	0.526
1132.001	650.468	80.005	19.994	103.700	19.899	3.477	0.533
1134.000	651.477	80.004	19.994	103.700	19.903	3.197	0.502
1136.000	652.505	80.003	19.995	103.712	19.902	3.250	0.493
1138.000	653.546	80.003	19.994	103.717	19.900	3.446	0.549
1140.000	654.583	80.002	19.993	103.727	19.901	3.369	0.526
1142.000	655.594	80.002	19.993	103.721	19.899	3.520	0.509
1144.000	656.625	80.001	19.995	103.727	19.898	3.562	0.495
1146.001	657.662	80.001	19.993	103.733	19.899	3.511	0.502
1148.000	658.731	80.002	19.995	103.714	19.901	3.367	0.518
1150.000	659.755	80.001	19.993	103.645	19.899	3.511	0.514
1152.000	660.737	80.001	19.994	103.793	19.900	3.405	0.475
1154.000	661.794	80.002	19.995	103.739	19.900	3.452	0.489
1156.000	662.813	80.002	19.994	103.735	19.902	3.244	0.506
1158.001	663.834	80.001	19.994	103.721	19.903	3.170	0.508
1160.001	664.840	80.001	19.993	103.724	19.900	3.456	0.504
1162.000	665.860	80.003	19.993	103.723	19.903	3.212	0.504
1164.000	666.875	80.000	19.993	103.734	19.896	3.715	0.524
1166.000	667.883	80.002	19.994	103.741	19.896	3.711	0.519
1168.001	668.867	80.001	19.994	103.734	19.897	3.613	0.482
1170.000	669.877	80.001	19.995	103.734	19.897	3.618	0.500
1172.000	670.888	80.001	19.993	103.736	19.898	3.588	0.472
1174.001	671.897	80.001	19.994	103.731	19.896	3.715	0.510
1176.000	672.910	80.003	19.995	103.730	19.895	3.789	0.472
1178.000	673.932	80.003	19.995	103.730	19.897	3.686	0.518
1180.001	674.952	80.002	19.994	103.731	19.893	3.925	0.517
1182.000	675.955	80.003	19.994	103.747	19.895	3.770	0.509
1184.000	676.844	80.003	19.994	103.728	19.891	4.071	0.384
1186.000	678.002	80.003	19.994	103.728	19.893	3.936	0.507
1188.000	679.028	80.003	19.994	103.749	19.894	3.858	0.505
1190.000	680.046	80.001	19.994	103.739	19.898	3.577	0.504
1192.000	681.049	80.002	19.995	103.740	19.895	3.817	0.503
1194.000	682.082	80.002	19.994	103.736	19.893	3.934	0.499
1196.000	683.090	80.003	19.995	103.738	19.895	3.834	0.516
1198.001	684.118	80.003	19.995	103.746	19.893	3.944	0.496
1200.000	685.087	80.002	19.994	103.747	19.892	4.070	0.500
1202.000	686.089	80.005	19.994	103.730	19.888	4.358	0.515
1204.000	687.094	80.004	19.994	103.733	19.891	4.083	0.488
1206.000	688.131	80.003	19.994	103.737	19.890	4.207	0.712
1208.000	689.120	80.004	19.995	103.733	19.889	4.290	0.526
1210.000	690.091	80.003	19.995	103.739	19.892	4.050	0.507
1212.001	691.124	80.002	19.995	103.754	19.896	3.739	0.505
1214.000	692.120	80.000	19.995	103.748	19.889	4.252	0.508
1216.001	693.151	80.000	19.995	103.751	19.889	4.290	0.528
1218.000	694.138	80.001	19.994	103.733	19.892	4.053	0.538
1220.000	695.166	80.000	19.995	103.738	19.892	4.070	0.521
1222.000	696.194	80.000	19.994	103.740	19.894	3.917	0.518
1224.000	697.259	80.001	19.994	103.737	19.892	4.027	0.543
1226.000	698.287	80.002	19.994	103.739	19.892	3.997	0.510
1228.000	699.309	80.001	19.995	103.740	19.892	4.067	0.475
1230.000	700.347	80.002	19.994	103.747	19.890	4.167	0.537
1232.001	701.446	80.003	19.995	103.740	19.895	3.783	0.548
1234.000	702.485	80.003	19.994	103.738	19.893	3.946	0.502
1236.000	703.543	80.002	19.995	103.738	19.893	3.957	0.517
1238.000	704.598	80.002	19.994	103.740	19.897	3.685	0.522
1240.000	705.699	80.002	19.994	103.733	19.894	3.914	0.549
1242.000	706.764	80.001	19.995	103.746	19.898	3.549	0.564
1244.000	707.810	80.002	19.994	103.735	19.897	3.647	0.540
1246.000	708.866	80.000	19.996	103.738	19.896	3.708	0.535
1248.001	709.882	80.001	19.994	103.744	19.899	3.509	0.499
1250.000	710.961	80.000	19.994	103.730	19.901	3.364	0.523
1252.000	711.976	80.002	19.995	103.732	19.898	3.572	0.516
1254.000	713.021	80.003	19.994	103.727	19.897	3.653	0.524
1256.000	714.024	80.004	19.994	103.723	19.895	3.811	0.516
1258.000	715.072	80.003	19.995	103.728	19.897	3.635	0.504
1260.000	716.105	80.004	19.995	103.724	19.899	3.480	0.527
1262.000	717.189	80.004	19.995	103.706	19.896	3.712	0.511
1264.001	718.204	80.004	19.995	103.711	19.897	3.625	0.514
1266.000	719.269	80.003	19.994	103.713	19.896	3.714	0.516
1268.001	720.255	80.004	19.994	103.692	19.895	3.784	0.526
1270.000	721.279	80.003	19.993	103.696	19.897	3.614	0.501
1272.000	722.336	80.003	19.994	103.699	19.899	3.470	0.528
1274.000	723.330	80.004	19.995	103.699	19.904	3.149	0.506
1276.000	724.364	80.003	19.996	103.706	19.905	3.001	0.520
1278.000	725.399	80.002	19.995	103.698	19.905	3.048	0.513
1280.000	726.396	80.002	19.995	103.694	19.899	3.500	0.496
1282.001	727.432	80.004	19.994	103.693	19.897	3.686	0.506
1284.000	728.476	80.004	19.995	103.692	19.903	3.160	0.538
1286.001	729.507	80.003	19.994	103.693	19.902	3.300	0.498
1288.000	730.585	80.004	19.993	103.693	19.901	3.378	0.528
1290.000	731.620	80.005	19.994	103.701	19.898	3.601	0.530
1292.001	732.640	80.002	19.993	103.696	19.901	3.364	0.505
1294.000	733.678	80.002	19.995	103.694	19.900	3.431	0.525
1296.001	734.650	80.003	19.995	103.694	19.901	3.325	0.454
1298.000	735.654	79.999	19.995	103.692	19.896	3.688	0.511
1300.000	736.660	80.000	19.996	103.691	19.899	3.482	0.536
1302.000	737.636	80.000	19.995	103.689	19.901	3.328	0.481
1304.001	738.654	80.003	19.997	103.690	19.899	3.463	0.497
1306.000	739.683	80.002	19.997	103.693	19.900	3.385	0.503
1308.001	740.639	79.999	19.996	103.692	19.896	3.690	0.467
1310.000	741.713	80.001	19.995	103.691	19.899	3.489	0.542
1312.000	742.686	80.002	19.995	103.692	19.897	3.654	0.520
1313.500	743.484	80.000	19.996	103.690	19.898	3.597	0.529