File: 01_Data/Homasote/MCC/Homasote_MCC_30K_min_220317_R3.txt
Sample ID:	C:\MCC\MCC Cal\Test\Homasote_MCC_30K_min_220317_R3.txt
Sample Weight (mg):	4.24
Heating Rate (C/s):	0.5
Combustor Temp (C):	900
N2 Flow Rate (cc/min):	80
O2 Flow Rate (cc/min):	20
Calibration File:	C:\MCC\MCC Cal\Coeff1 JN10440_30_210304.txt.txt
T Correction Coefficients:	0	1.024463	0
Time Shift (s):	14
*
Time (s)	Temperature (C)	N2 flow rate (cc/min)	O2 flow rate (cc/min)	Flow Rate (cc/min)	Oxygen (%)	HRR (W/g)	Heating rate (C/s)
0.000	109.088	80.003	19.994	103.618	19.975	-0.192	-0.009
2.000	109.091	79.995	20.002	103.635	19.970	0.233	0.020
3.999	109.066	80.002	19.995	103.626	19.970	0.194	-0.010
5.999	109.056	80.002	19.992	103.627	19.972	0.040	-0.034
7.999	109.089	79.998	19.996	103.639	19.969	0.301	0.017
10.000	109.070	79.999	19.994	103.627	19.967	0.423	-0.035
11.999	109.086	79.999	19.996	103.648	19.963	0.781	-0.008
13.999	109.119	80.002	19.995	103.585	19.963	0.781	0.044
16.000	109.113	80.005	19.991	103.681	19.964	0.682	0.018
18.000	109.133	80.004	19.993	103.760	19.963	0.788	0.003
20.000	109.208	80.005	19.991	103.726	19.957	1.195	0.020
22.000	109.266	80.003	19.994	103.745	19.952	1.610	0.005
24.000	109.372	80.001	19.994	103.779	19.949	1.826	0.061
26.000	109.491	80.000	19.993	103.790	19.950	1.761	0.058
28.000	109.653	79.998	19.995	103.803	19.942	2.335	0.108
30.000	109.861	80.000	19.994	103.810	19.940	2.498	0.094
32.000	110.070	80.001	19.994	103.816	19.939	2.569	0.119
33.999	110.310	79.999	19.994	103.829	19.934	2.992	0.128
35.999	110.617	80.000	19.994	103.847	19.933	3.049	0.139
38.000	110.940	80.000	19.993	103.847	19.930	3.291	0.155
40.000	111.272	80.000	19.995	103.827	19.926	3.584	0.193
41.999	111.590	79.999	19.994	103.867	19.927	3.536	0.156
43.999	111.986	79.999	19.995	103.856	19.929	3.359	0.201
45.999	112.333	80.000	19.996	103.853	19.926	3.594	0.181
47.999	112.819	80.000	19.996	103.841	19.929	3.359	0.192
49.999	113.278	80.000	19.994	103.858	19.928	3.420	0.232
51.999	113.798	80.000	19.993	103.889	19.925	3.679	0.269
53.999	114.324	79.999	19.995	103.862	19.927	3.510	0.279
55.999	114.806	80.000	19.994	103.853	19.926	3.554	0.269
58.000	115.357	80.000	19.994	103.851	19.926	3.545	0.276
59.999	115.911	80.000	19.994	103.856	19.925	3.637	0.322
61.999	116.547	79.999	19.995	103.855	19.924	3.730	0.305
63.999	117.110	80.000	19.995	103.869	19.925	3.656	0.309
66.000	117.742	80.000	19.995	103.880	19.924	3.706	0.323
68.000	118.371	80.001	19.994	103.863	19.925	3.634	0.329
69.999	119.031	80.001	19.995	103.856	19.924	3.727	0.340
71.999	119.678	80.002	19.996	103.856	19.923	3.840	0.317
73.999	120.368	80.001	19.995	103.859	19.923	3.843	0.333
75.999	121.100	80.001	19.996	103.858	19.920	4.013	0.377
77.999	121.768	80.002	19.995	103.851	19.916	4.333	0.360
80.000	122.447	80.003	19.996	103.836	19.919	4.114	0.319
81.999	123.247	80.001	19.994	103.860	19.919	4.116	0.391
84.000	123.947	80.001	19.995	103.869	19.917	4.297	0.348
86.000	124.724	80.002	19.994	103.900	19.920	4.034	0.377
87.999	125.481	80.002	19.994	103.883	19.920	4.003	0.397
89.999	126.259	80.002	19.995	103.884	19.918	4.188	0.383
91.999	127.056	80.002	19.994	103.882	19.923	3.774	0.393
93.999	127.839	80.003	19.994	103.880	19.919	4.104	0.386
96.000	128.673	80.003	19.993	103.886	19.921	3.934	0.425
97.999	129.501	80.002	19.994	103.884	19.919	4.099	0.419
100.000	130.330	80.004	19.993	103.859	19.921	3.983	0.421
101.999	131.134	80.003	19.994	103.897	19.922	3.894	0.423
103.999	131.976	80.002	19.993	103.895	19.920	4.032	0.438
106.000	132.854	80.002	19.993	103.878	19.920	4.072	0.414
107.999	133.743	79.998	19.994	103.881	19.919	4.100	0.435
109.999	134.640	79.999	19.994	103.881	19.922	3.894	0.462
111.999	135.507	80.000	19.994	103.885	19.921	3.945	0.426
113.999	136.404	80.001	19.993	103.890	19.918	4.180	0.458
115.999	137.310	80.000	19.994	103.888	19.922	3.873	0.449
117.999	138.238	80.000	19.994	103.885	19.920	4.034	0.463
119.999	139.153	80.000	19.994	103.889	19.922	3.921	0.463
121.999	140.104	80.001	19.995	103.888	19.925	3.668	0.465
123.999	141.017	80.002	19.995	103.887	19.922	3.901	0.464
126.000	141.924	80.001	19.995	103.883	19.922	3.862	0.430
128.000	142.852	80.001	19.996	103.885	19.919	4.123	0.439
130.000	143.839	80.001	19.994	103.884	19.923	3.791	0.466
132.000	144.776	80.001	19.995	103.875	19.924	3.699	0.441
134.000	145.768	80.000	19.995	103.840	19.925	3.656	0.472
136.000	146.712	80.001	19.995	103.863	19.922	3.923	0.445
138.000	147.692	79.999	19.995	103.884	19.925	3.666	0.472
140.000	148.647	79.999	19.995	103.875	19.922	3.870	0.499
142.000	149.644	80.000	19.995	103.865	19.922	3.897	0.506
144.000	150.630	80.001	19.994	103.878	19.924	3.696	0.498
146.000	151.599	80.002	19.995	103.871	19.924	3.766	0.470
148.000	152.559	80.001	19.995	103.866	19.922	3.852	0.476
150.000	153.555	80.001	19.994	103.861	19.921	3.969	0.497
152.000	154.535	80.001	19.995	103.858	19.922	3.857	0.492
154.000	155.522	80.001	19.995	103.853	19.919	4.088	0.465
156.000	156.482	80.001	19.994	103.859	19.922	3.848	0.494
158.000	157.502	80.002	19.994	103.852	19.920	4.030	0.500
160.000	158.458	80.001	19.995	103.853	19.922	3.859	0.500
162.000	159.455	80.001	19.995	103.851	19.919	4.141	0.503
164.000	160.410	80.000	19.995	103.849	19.917	4.263	0.479
166.000	161.413	80.001	19.994	103.853	19.919	4.149	0.525
168.000	162.376	80.000	19.995	103.848	19.919	4.083	0.504
170.000	163.398	80.001	19.994	103.846	19.918	4.168	0.520
172.000	164.389	80.001	19.995	103.850	19.919	4.128	0.517
174.000	165.406	80.002	19.995	103.851	19.918	4.206	0.492
176.000	166.406	80.003	19.993	103.849	19.918	4.225	0.506
178.000	167.361	80.002	19.994	103.850	19.917	4.251	0.485
180.000	168.364	80.003	19.994	103.849	19.920	4.026	0.516
182.000	169.377	80.003	19.994	103.849	19.917	4.238	0.484
184.000	170.359	80.003	19.994	103.848	19.917	4.234	0.504
186.000	171.330	80.001	19.995	103.848	19.917	4.301	0.473
188.000	172.342	80.001	19.995	103.847	19.917	4.295	0.471
190.000	173.328	80.001	19.994	103.842	19.917	4.264	0.486
192.000	174.299	80.001	19.993	103.836	19.919	4.120	0.490
194.000	175.299	80.002	19.994	103.839	19.920	4.006	0.519
196.000	176.259	80.001	19.994	103.846	19.918	4.159	0.476
198.000	177.231	80.002	19.994	103.839	19.916	4.356	0.487
200.000	178.200	80.001	19.995	103.817	19.918	4.210	0.483
202.000	179.216	80.000	19.994	103.839	19.917	4.273	0.470
204.000	180.175	80.000	19.994	103.848	19.918	4.198	0.479
206.000	181.172	80.002	19.995	103.825	19.915	4.399	0.474
208.000	182.110	80.001	19.993	103.830	19.916	4.333	0.457
210.000	183.094	80.003	19.994	103.839	19.918	4.194	0.458
212.000	184.034	80.001	19.994	103.839	19.914	4.466	0.467
214.000	185.032	80.001	19.994	103.814	19.919	4.121	0.519
216.000	186.050	80.001	19.995	103.818	19.916	4.356	0.487
218.000	187.070	79.999	19.993	103.854	19.919	4.139	0.491
220.000	188.013	80.000	19.994	103.817	19.915	4.419	0.467
222.000	188.992	80.000	19.994	103.817	19.916	4.355	0.487
224.000	189.968	80.000	19.994	103.829	19.911	4.726	0.478
226.000	190.976	80.001	19.993	103.837	19.907	5.056	0.501
228.000	191.969	79.999	19.995	103.823	19.907	5.025	0.480
230.000	192.893	80.001	19.995	103.812	19.905	5.192	0.469
232.000	193.907	80.001	19.994	103.812	19.906	5.082	0.509
234.000	194.864	80.001	19.994	103.817	19.904	5.247	0.482
236.000	195.847	80.002	19.995	103.816	19.904	5.294	0.506
238.000	196.810	80.003	19.995	103.816	19.905	5.203	0.486
240.000	197.774	80.002	19.995	103.818	19.902	5.416	0.459
242.000	198.779	80.001	19.993	103.825	19.904	5.223	0.508
244.000	199.759	80.002	19.995	103.825	19.898	5.687	0.518
246.000	200.725	80.002	19.994	103.813	19.898	5.728	0.493
248.000	201.705	80.001	19.996	103.817	19.901	5.452	0.504
250.000	202.701	80.001	19.994	103.809	19.898	5.685	0.494
252.000	203.696	80.003	19.994	103.805	19.896	5.852	0.478
254.000	204.636	80.002	19.995	103.806	19.893	6.081	0.488
256.000	205.638	80.002	19.995	103.809	19.893	6.104	0.492
258.000	206.627	80.002	19.995	103.806	19.891	6.263	0.500
260.000	207.650	80.002	19.995	103.809	19.891	6.247	0.508
262.000	208.630	80.003	19.996	103.811	19.889	6.404	0.479
264.000	209.642	80.002	19.995	103.805	19.887	6.564	0.514
266.000	210.652	80.001	19.995	103.804	19.882	6.944	0.512
268.000	211.637	79.999	19.994	103.809	19.889	6.386	0.490
270.000	212.635	80.000	19.995	103.808	19.885	6.743	0.465
272.000	213.616	80.001	19.994	103.821	19.884	6.810	0.508
274.000	214.607	80.002	19.994	103.816	19.883	6.867	0.509
276.000	215.622	80.000	19.994	103.811	19.879	7.141	0.502
278.000	216.634	80.000	19.994	103.810	19.879	7.138	0.491
280.000	217.629	80.000	19.995	103.815	19.878	7.213	0.505
282.000	218.642	80.001	19.994	103.812	19.877	7.338	0.503
284.000	219.641	80.002	19.995	103.806	19.875	7.500	0.492
286.000	220.620	80.001	19.993	103.806	19.872	7.725	0.487
288.000	221.610	80.001	19.995	103.811	19.873	7.606	0.477
290.000	222.650	80.002	19.994	103.810	19.869	7.905	0.521
292.000	223.639	79.999	19.995	103.811	19.868	7.994	0.479
294.000	224.661	80.001	19.994	103.810	19.867	8.107	0.502
296.000	225.650	80.001	19.993	103.808	19.864	8.341	0.519
298.000	226.671	80.002	19.995	103.809	19.863	8.415	0.527
300.000	227.613	80.000	19.994	103.800	19.859	8.669	0.507
302.000	228.643	80.000	19.994	103.811	19.859	8.724	0.516
304.000	229.631	80.000	19.995	103.812	19.858	8.771	0.500
306.000	230.649	80.001	19.994	103.811	19.853	9.159	0.510
308.000	231.605	80.001	19.994	103.801	19.852	9.229	0.485
310.000	232.616	80.003	19.995	103.805	19.851	9.317	0.521
312.000	233.578	80.004	19.996	103.802	19.851	9.339	0.507
314.000	234.533	80.001	19.994	103.803	19.848	9.566	0.478
316.000	235.481	80.003	19.993	103.807	19.844	9.840	0.445
318.000	236.526	80.003	19.994	103.807	19.841	10.036	0.502
320.000	237.486	80.001	19.996	103.808	19.841	10.089	0.490
322.000	238.484	80.002	19.994	103.803	19.838	10.278	0.508
324.000	239.447	80.002	19.994	103.807	19.835	10.525	0.526
326.000	240.372	80.000	19.994	103.800	19.831	10.813	0.499
328.000	241.344	80.002	19.995	103.802	19.831	10.856	0.477
330.000	242.334	80.003	19.994	103.808	19.832	10.790	0.498
332.000	243.313	80.001	19.996	103.810	19.826	11.215	0.499
334.000	244.288	80.003	19.995	103.809	19.824	11.400	0.464
336.000	245.283	80.003	19.995	103.808	19.827	11.131	0.496
338.000	246.292	80.003	19.994	103.807	19.822	11.542	0.483
340.000	247.333	80.002	19.995	103.807	19.819	11.762	0.523
342.000	248.264	80.005	19.994	103.804	19.817	11.921	0.484
344.000	249.293	80.002	19.994	103.806	19.816	11.957	0.510
346.000	250.334	80.002	19.995	103.808	19.816	11.981	0.508
348.000	251.385	80.001	19.996	103.808	19.808	12.582	0.535
350.000	252.371	80.001	19.996	103.809	19.812	12.256	0.489
352.000	253.377	80.000	19.995	103.810	19.809	12.497	0.505
354.000	254.392	80.000	19.996	103.809	19.808	12.591	0.547
356.000	255.414	80.000	19.996	103.815	19.806	12.768	0.509
358.000	256.411	80.000	19.994	103.812	19.804	12.911	0.496
360.000	257.433	80.002	19.995	103.810	19.804	12.883	0.510
362.000	258.478	80.001	19.994	103.808	19.802	13.019	0.535
364.000	259.465	80.001	19.995	103.809	19.802	13.059	0.485
366.000	260.441	80.002	19.997	103.807	19.799	13.302	0.497
368.000	261.469	80.001	19.993	103.812	19.798	13.329	0.513
370.000	262.420	80.001	19.993	103.809	19.794	13.652	0.471
372.000	263.410	80.001	19.994	103.811	19.792	13.795	0.489
374.000	264.413	80.003	19.997	103.811	19.790	13.993	0.494
376.000	265.389	80.001	19.996	103.809	19.790	13.968	0.488
378.000	266.412	80.001	19.996	103.803	19.788	14.103	0.491
380.000	267.370	80.002	19.994	103.809	19.789	14.076	0.483
382.000	268.343	80.002	19.994	103.803	19.788	14.091	0.504
384.000	269.297	80.000	19.994	103.809	19.783	14.477	0.471
386.000	270.302	80.000	19.995	103.811	19.782	14.584	0.487
388.000	271.298	80.002	19.994	103.812	19.778	14.904	0.516
390.000	272.308	80.000	19.995	103.813	19.775	15.087	0.492
392.000	273.314	80.003	19.995	103.811	19.774	15.153	0.500
394.000	274.287	80.003	19.994	103.822	19.774	15.202	0.517
396.000	275.290	80.004	19.994	103.811	19.773	15.286	0.506
398.000	276.289	80.004	19.994	103.812	19.774	15.203	0.478
400.000	277.307	80.002	19.993	103.815	19.769	15.599	0.511
402.000	278.284	80.001	19.994	103.820	19.771	15.405	0.504
404.000	279.261	80.003	19.994	103.815	19.768	15.635	0.486
406.000	280.296	80.001	19.993	103.822	19.764	15.991	0.505
408.000	281.267	80.003	19.994	103.836	19.762	16.123	0.512
410.000	282.293	80.003	19.994	103.836	19.757	16.508	0.472
412.000	283.257	80.002	19.995	103.840	19.753	16.811	0.493
414.000	284.228	80.001	19.995	103.834	19.750	17.018	0.466
416.000	285.304	80.002	19.996	103.838	19.747	17.276	0.516
418.000	286.291	80.004	19.994	103.843	19.744	17.476	0.521
420.000	287.252	80.004	19.994	103.847	19.739	17.884	0.490
422.000	288.234	80.004	19.994	103.841	19.734	18.277	0.471
424.000	289.206	80.003	19.997	103.852	19.728	18.696	0.485
426.000	290.209	80.003	19.995	103.854	19.727	18.783	0.490
428.000	291.247	80.002	19.996	103.852	19.722	19.143	0.535
430.000	292.243	80.002	19.994	103.852	19.715	19.688	0.507
432.000	293.189	80.002	19.994	103.862	19.714	19.790	0.493
434.000	294.211	80.002	19.994	103.848	19.706	20.409	0.495
436.000	295.141	80.001	19.993	103.853	19.702	20.736	0.464
438.000	296.168	80.001	19.995	103.860	19.697	21.078	0.482
440.000	297.138	80.002	19.994	103.855	19.694	21.288	0.494
442.000	298.110	80.001	19.994	103.850	19.690	21.655	0.501
444.000	299.137	79.999	19.996	103.858	19.684	22.089	0.505
446.000	300.102	80.002	19.995	103.875	19.678	22.522	0.497
448.000	301.105	80.001	19.996	103.879	19.674	22.838	0.487
450.000	302.090	80.000	19.995	103.859	19.669	23.233	0.502
452.000	303.087	80.002	19.995	103.878	19.662	23.733	0.498
454.000	304.052	80.004	19.994	103.882	19.656	24.217	0.509
456.000	305.049	80.001	19.994	103.886	19.647	24.882	0.491
458.000	306.028	80.000	19.992	103.885	19.638	25.618	0.489
460.000	307.061	80.002	19.994	103.888	19.637	25.709	0.518
462.000	308.041	80.000	19.995	103.886	19.627	26.451	0.483
464.000	309.030	80.001	19.995	103.887	19.620	26.971	0.496
466.000	310.041	80.000	19.994	103.888	19.611	27.673	0.497
468.000	311.012	80.002	19.995	103.889	19.605	28.100	0.496
470.000	312.044	80.002	19.993	103.889	19.596	28.786	0.513
472.000	313.020	80.003	19.996	103.888	19.584	29.699	0.482
474.000	314.051	80.003	19.994	103.902	19.580	30.078	0.529
476.000	315.066	80.003	19.993	103.905	19.573	30.547	0.525
478.000	316.020	80.003	19.994	103.909	19.563	31.358	0.472
480.000	317.059	80.003	19.994	103.897	19.551	32.281	0.529
482.000	318.022	80.004	19.994	103.907	19.547	32.566	0.514
484.000	319.019	80.003	19.997	103.913	19.538	33.223	0.486
486.000	319.974	80.003	19.994	103.921	19.530	33.853	0.476
488.000	320.956	80.002	19.995	103.920	19.519	34.703	0.461
490.000	322.008	80.003	19.994	103.924	19.511	35.334	0.507
492.000	322.965	80.004	19.992	103.929	19.502	35.986	0.451
494.000	323.954	80.002	19.993	103.934	19.494	36.617	0.496
496.000	324.947	80.004	19.993	103.931	19.483	37.462	0.474
498.000	325.957	80.003	19.995	103.934	19.474	38.196	0.466
500.000	326.987	80.003	19.993	103.933	19.459	39.279	0.507
502.000	327.981	80.004	19.994	103.955	19.449	40.052	0.494
504.000	328.932	80.004	19.993	103.946	19.443	40.522	0.509
506.000	329.962	80.004	19.996	103.940	19.430	41.520	0.516
508.000	330.961	80.001	19.994	103.957	19.418	42.411	0.506
510.000	331.951	80.000	19.995	103.963	19.411	43.017	0.502
512.000	332.979	80.001	19.994	103.964	19.395	44.209	0.522
514.000	333.969	80.000	19.994	103.964	19.385	44.958	0.497
516.000	334.976	80.001	19.995	103.964	19.371	46.046	0.496
518.000	335.937	80.001	19.995	103.970	19.358	47.058	0.484
520.000	336.987	80.002	19.995	103.972	19.344	48.091	0.507
522.000	337.976	79.999	19.995	103.970	19.334	48.885	0.482
524.000	339.013	80.002	19.995	103.980	19.319	50.053	0.525
526.000	339.941	80.002	19.995	103.997	19.309	50.823	0.456
528.000	340.920	80.004	19.994	103.983	19.299	51.555	0.484
530.000	341.904	80.000	19.995	103.991	19.287	52.511	0.477
532.000	342.886	80.003	19.994	104.003	19.274	53.518	0.488
534.000	343.882	80.001	19.995	104.000	19.258	54.708	0.487
536.000	344.848	80.001	19.995	104.005	19.248	55.451	0.509
538.000	345.871	80.000	19.995	104.007	19.236	56.413	0.501
540.000	346.870	80.001	19.995	104.006	19.224	57.297	0.522
542.000	347.918	79.999	19.995	104.006	19.210	58.396	0.536
544.000	348.860	80.001	19.995	104.023	19.198	59.293	0.522
546.000	349.832	80.002	19.995	104.031	19.187	60.144	0.478
548.000	350.843	80.002	19.994	104.022	19.177	60.888	0.473
550.000	351.878	80.003	19.994	104.010	19.165	61.808	0.517
552.000	352.867	80.003	19.994	104.021	19.158	62.394	0.513
554.000	353.896	80.003	19.993	104.030	19.149	63.039	0.525
556.000	354.858	80.003	19.995	104.029	19.142	63.565	0.466
558.000	355.884	80.002	19.995	104.035	19.134	64.214	0.507
560.000	356.878	80.002	19.994	104.023	19.128	64.659	0.499
562.000	357.947	80.003	19.994	104.026	19.127	64.746	0.521
564.000	358.902	80.003	19.994	104.017	19.121	65.188	0.499
566.000	359.911	80.003	19.994	104.018	19.123	65.035	0.553
568.000	360.902	80.002	19.994	104.008	19.124	64.972	0.509
570.000	361.935	80.002	19.993	104.006	19.124	64.907	0.511
572.000	362.931	80.004	19.993	104.003	19.130	64.446	0.511
574.000	363.917	80.003	19.994	103.994	19.141	63.653	0.514
576.000	364.932	80.003	19.994	103.988	19.150	62.908	0.513
578.000	365.953	80.004	19.995	103.966	19.166	61.730	0.540
580.000	366.929	80.005	19.994	103.963	19.180	60.605	0.490
582.000	367.916	80.005	19.993	103.965	19.194	59.507	0.477
584.000	368.977	80.002	19.994	103.944	19.220	57.532	0.523
586.000	369.988	80.002	19.995	103.932	19.242	55.840	0.519
588.000	371.008	80.004	19.996	103.925	19.265	54.108	0.530
590.000	372.022	80.002	19.994	103.925	19.289	52.250	0.539
592.000	373.060	80.001	19.995	103.898	19.320	49.873	0.534
594.000	374.088	80.002	19.994	103.880	19.351	47.506	0.519
596.000	375.119	80.002	19.995	103.861	19.381	45.197	0.546
598.000	376.168	80.000	19.995	103.856	19.415	42.623	0.545
600.000	377.220	80.002	19.994	103.851	19.447	40.151	0.529
602.000	378.224	80.000	19.994	103.841	19.482	37.476	0.521
604.000	379.256	80.000	19.996	103.828	19.518	34.768	0.500
606.000	380.309	80.001	19.995	103.814	19.552	32.097	0.525
608.000	381.335	80.002	19.994	103.798	19.588	29.402	0.528
610.000	382.395	80.002	19.994	103.795	19.619	27.045	0.519
612.000	383.368	80.001	19.994	103.784	19.651	24.559	0.493
614.000	384.422	80.002	19.994	103.773	19.684	22.037	0.520
616.000	385.441	80.003	19.994	103.773	19.707	20.301	0.486
618.000	386.454	80.000	19.995	103.761	19.735	18.170	0.508
620.000	387.472	80.002	19.995	103.761	19.757	16.439	0.527
622.000	388.508	80.000	19.996	103.770	19.774	15.189	0.495
624.000	389.499	80.000	19.995	103.769	19.792	13.829	0.480
626.000	390.502	80.001	19.995	103.743	19.803	12.995	0.505
628.000	391.497	79.999	19.996	103.749	19.819	11.729	0.518
630.000	392.522	80.001	19.996	103.750	19.831	10.833	0.529
632.000	393.565	80.004	19.996	103.744	19.837	10.399	0.536
634.000	394.591	80.000	19.996	103.747	19.845	9.757	0.526
636.000	395.558	80.006	19.995	103.736	19.851	9.335	0.471
638.000	396.541	80.003	19.994	103.742	19.855	8.966	0.497
640.000	397.570	80.004	19.996	103.733	19.861	8.566	0.477
642.000	398.566	80.002	19.994	103.730	19.863	8.376	0.507
644.000	399.596	80.002	19.994	103.733	19.866	8.175	0.519
646.000	400.558	80.002	19.994	103.742	19.869	7.937	0.499
648.000	401.560	80.002	19.994	103.735	19.867	8.098	0.517
650.000	402.557	80.003	19.997	103.729	19.864	8.287	0.505
652.000	403.526	80.001	19.995	103.735	19.868	8.018	0.494
654.000	404.567	80.002	19.995	103.735	19.869	7.905	0.526
656.000	405.557	80.002	19.996	103.734	19.869	7.949	0.514
658.000	406.562	80.003	19.994	103.728	19.871	7.809	0.513
660.000	407.559	80.003	19.995	103.730	19.874	7.568	0.498
662.000	408.580	80.004	19.994	103.741	19.870	7.856	0.507
664.000	409.495	80.004	19.996	103.747	19.874	7.575	0.463
666.000	410.545	80.003	19.995	103.755	19.873	7.604	0.490
668.000	411.561	80.004	19.994	103.742	19.872	7.672	0.526
670.000	412.570	80.002	19.993	103.748	19.874	7.534	0.482
672.000	413.578	80.002	19.995	103.746	19.873	7.610	0.516
674.000	414.583	80.002	19.994	103.750	19.874	7.563	0.518
676.000	415.547	80.001	19.994	103.745	19.875	7.474	0.494
678.000	416.599	80.003	19.993	103.744	19.876	7.362	0.530
680.000	417.617	80.002	19.994	103.746	19.875	7.472	0.484
682.000	418.646	80.000	19.995	103.742	19.875	7.506	0.515
684.000	419.639	80.001	19.995	103.738	19.875	7.457	0.484
686.000	420.620	80.002	19.997	103.735	19.876	7.417	0.481
688.000	421.645	80.001	19.994	103.735	19.879	7.165	0.499
690.000	422.696	80.001	19.994	103.735	19.875	7.453	0.513
692.000	423.667	80.001	19.995	103.735	19.878	7.249	0.517
694.000	424.615	80.000	19.995	103.737	19.880	7.110	0.493
696.000	425.684	80.001	19.994	103.738	19.878	7.254	0.499
698.000	426.670	80.002	19.995	103.732	19.879	7.144	0.506
700.000	427.688	80.001	19.994	103.735	19.882	6.955	0.506
702.000	428.685	80.002	19.995	103.731	19.882	6.926	0.524
704.000	429.674	80.001	19.995	103.734	19.881	6.972	0.498
706.000	430.661	80.000	19.995	103.731	19.880	7.069	0.510
708.000	431.647	80.002	19.995	103.743	19.880	7.121	0.476
710.000	432.710	80.002	19.994	103.738	19.881	6.999	0.506
712.000	433.698	80.002	19.995	103.734	19.877	7.332	0.499
714.000	434.749	80.002	19.994	103.735	19.879	7.148	0.518
716.000	435.794	80.002	19.998	103.734	19.881	7.012	0.506
718.000	436.810	80.002	19.996	103.736	19.883	6.860	0.516
720.000	437.830	80.002	19.995	103.730	19.882	6.919	0.521
722.000	438.830	80.002	19.995	103.731	19.880	7.067	0.482
724.000	439.858	80.000	19.997	103.742	19.881	7.000	0.516
726.000	440.889	80.002	19.996	103.737	19.879	7.125	0.519
728.000	441.934	80.002	19.995	103.731	19.881	7.042	0.537
730.000	442.907	80.002	19.994	103.731	19.885	6.684	0.523
732.000	443.946	80.002	19.994	103.732	19.881	6.995	0.505
734.000	444.959	80.003	19.994	103.733	19.887	6.536	0.517
736.000	445.997	80.003	19.995	103.734	19.884	6.769	0.532
738.000	446.991	80.003	19.994	103.734	19.888	6.473	0.485
740.000	448.033	80.003	19.994	103.735	19.889	6.365	0.511
742.000	449.025	80.005	19.994	103.733	19.887	6.538	0.518
744.000	449.995	80.003	19.994	103.731	19.890	6.289	0.501
746.000	450.999	80.003	19.993	103.730	19.890	6.291	0.519
748.000	451.996	80.001	19.993	103.732	19.889	6.382	0.504
750.000	453.040	80.002	19.994	103.733	19.892	6.167	0.522
752.000	453.994	80.002	19.994	103.735	19.889	6.385	0.485
754.000	455.005	80.001	19.994	103.736	19.892	6.199	0.524
756.000	456.039	80.001	19.994	103.735	19.891	6.269	0.513
758.000	457.036	80.001	19.995	103.735	19.893	6.091	0.508
760.000	458.042	80.001	19.994	103.732	19.892	6.142	0.500
762.000	459.056	80.001	19.994	103.723	19.892	6.165	0.507
764.000	460.031	80.001	19.994	103.731	19.895	5.964	0.505
766.000	461.051	80.002	19.994	103.727	19.894	5.979	0.534
768.000	462.069	80.001	19.993	103.730	19.895	5.950	0.522
770.000	463.027	80.002	19.994	103.725	19.895	5.960	0.450
772.000	464.044	80.003	19.994	103.727	19.896	5.827	0.497
774.000	465.030	80.002	19.993	103.727	19.899	5.641	0.485
776.000	466.024	80.002	19.995	103.727	19.895	5.950	0.486
778.000	467.056	80.001	19.995	103.726	19.898	5.723	0.541
780.000	468.042	80.000	19.994	103.730	19.899	5.604	0.476
782.000	469.049	79.999	19.994	103.728	19.901	5.445	0.478
784.000	470.077	80.000	19.997	103.728	19.902	5.438	0.505
786.000	471.146	80.000	19.996	103.731	19.902	5.384	0.546
788.000	472.124	80.002	19.995	103.730	19.902	5.435	0.525
790.000	473.144	80.001	19.995	103.730	19.903	5.347	0.500
792.000	474.164	80.002	19.995	103.724	19.905	5.156	0.523
794.000	475.182	80.003	19.994	103.718	19.907	5.041	0.461
796.000	476.189	80.003	19.994	103.705	19.908	4.965	0.510
798.000	477.200	80.002	19.995	103.724	19.907	5.003	0.521
800.000	478.240	80.002	19.995	103.731	19.909	4.883	0.516
802.000	479.229	80.002	19.995	103.730	19.906	5.081	0.522
804.000	480.238	80.002	19.994	103.715	19.908	4.940	0.523
806.000	481.242	80.001	19.995	103.722	19.910	4.773	0.513
808.000	482.262	80.001	19.996	103.722	19.913	4.589	0.523
810.000	483.291	80.001	19.994	103.724	19.911	4.743	0.512
812.000	484.303	80.001	19.996	103.727	19.916	4.328	0.520
814.000	485.291	80.002	19.996	103.716	19.912	4.627	0.525
816.000	486.307	80.001	19.995	103.726	19.918	4.214	0.519
818.000	487.309	80.002	19.995	103.726	19.914	4.472	0.492
820.000	488.348	80.003	19.995	103.726	19.917	4.273	0.521
822.000	489.355	80.004	19.994	103.727	19.918	4.178	0.501
824.000	490.372	80.003	19.993	103.730	19.916	4.352	0.504
826.000	491.378	80.003	19.994	103.729	19.920	4.030	0.547
828.000	492.420	80.002	19.994	103.729	19.918	4.218	0.544
830.000	493.422	80.001	19.995	103.726	19.921	3.979	0.503
832.000	494.486	80.002	19.995	103.727	19.922	3.911	0.538
834.000	495.472	80.002	19.995	103.727	19.917	4.290	0.536
836.000	496.567	80.002	19.995	103.726	19.916	4.364	0.499
838.000	497.585	80.002	19.994	103.718	19.920	4.070	0.534
840.000	498.607	80.002	19.995	103.710	19.918	4.187	0.506
842.000	499.639	80.001	19.994	103.719	19.918	4.157	0.516
844.000	500.688	80.002	19.996	103.715	19.919	4.078	0.534
846.000	501.708	80.003	19.995	103.725	19.921	3.951	0.506
848.000	502.740	80.003	19.995	103.724	19.917	4.296	0.530
850.000	503.739	80.003	19.994	103.724	19.919	4.135	0.534
852.000	504.780	80.002	19.993	103.729	19.921	3.940	0.519
854.000	505.762	80.003	19.993	103.720	19.924	3.721	0.494
856.000	506.802	80.002	19.994	103.718	19.921	3.949	0.489
858.000	507.806	80.002	19.994	103.710	19.924	3.704	0.503
860.000	508.855	80.002	19.994	103.719	19.919	4.074	0.517
862.000	509.860	80.001	19.994	103.706	19.922	3.875	0.522
864.000	510.841	80.001	19.994	103.716	19.923	3.804	0.501
866.000	511.807	80.002	19.995	103.727	19.920	4.019	0.466
868.000	512.798	80.002	19.994	103.732	19.922	3.909	0.507
870.000	513.831	80.002	19.995	103.723	19.922	3.862	0.505
872.000	514.817	80.002	19.994	103.706	19.923	3.816	0.499
874.000	515.785	80.002	19.993	103.723	19.926	3.598	0.492
876.000	516.811	80.002	19.994	103.732	19.927	3.482	0.525
878.000	517.740	80.003	19.994	103.724	19.926	3.598	0.461
880.000	518.768	80.003	19.995	103.713	19.924	3.695	0.514
882.000	519.731	80.002	19.995	103.729	19.926	3.604	0.471
884.000	520.749	80.001	19.995	103.733	19.929	3.378	0.505
886.000	521.751	80.003	19.995	103.732	19.923	3.837	0.512
888.000	522.726	80.003	19.995	103.727	19.927	3.502	0.506
890.000	523.716	80.003	19.994	103.715	19.924	3.722	0.492
892.000	524.737	80.003	19.994	103.714	19.927	3.496	0.499
894.000	525.759	80.002	19.995	103.708	19.925	3.668	0.512
896.000	526.750	80.003	19.995	103.722	19.927	3.534	0.501
898.000	527.773	80.002	19.994	103.713	19.925	3.662	0.506
900.000	528.810	80.002	19.995	103.696	19.928	3.430	0.526
902.000	529.842	80.003	19.995	103.710	19.925	3.621	0.524
904.000	530.824	80.003	19.995	103.720	19.926	3.562	0.499
906.000	531.870	80.002	19.996	103.709	19.925	3.625	0.510
908.000	532.862	80.002	19.994	103.698	19.924	3.716	0.505
910.000	533.899	80.001	19.994	103.690	19.924	3.722	0.488
912.000	534.929	80.002	19.993	103.700	19.926	3.578	0.495
914.000	535.963	80.001	19.995	103.717	19.926	3.572	0.513
916.000	537.004	80.001	19.994	103.705	19.926	3.600	0.520
918.000	537.967	80.001	19.995	103.707	19.927	3.515	0.494
920.000	538.978	80.001	19.995	103.702	19.923	3.767	0.511
922.000	539.970	80.001	19.993	103.712	19.926	3.566	0.511
924.000	540.979	80.000	19.993	103.707	19.925	3.670	0.515
926.000	542.022	80.000	19.993	103.729	19.927	3.490	0.498
928.000	543.010	80.002	19.994	103.710	19.924	3.706	0.523
930.000	544.046	80.002	19.994	103.731	19.926	3.545	0.495
932.000	545.031	80.001	19.994	103.717	19.922	3.913	0.496
934.000	546.069	80.000	19.993	103.713	19.924	3.746	0.499
936.000	547.081	80.002	19.995	103.729	19.927	3.471	0.506
938.000	548.146	80.000	19.995	103.726	19.928	3.390	0.517
940.000	549.153	80.001	19.994	103.733	19.926	3.581	0.498
942.000	550.183	80.000	19.995	103.724	19.925	3.668	0.503
944.000	551.251	79.999	19.994	103.723	19.923	3.830	0.531
946.000	552.307	80.000	19.994	103.731	19.925	3.636	0.512
948.000	553.366	80.000	19.994	103.722	19.928	3.428	0.523
950.000	554.424	80.002	19.995	103.724	19.928	3.458	0.549
952.000	555.486	80.001	19.995	103.724	19.928	3.444	0.495
954.000	556.541	80.002	19.994	103.715	19.925	3.628	0.525
956.000	557.620	80.002	19.994	103.715	19.925	3.625	0.530
958.000	558.671	80.003	19.995	103.711	19.923	3.780	0.533
960.000	559.675	80.002	19.994	103.714	19.924	3.706	0.521
962.000	560.794	80.003	19.994	103.725	19.922	3.909	0.537
964.000	561.855	80.002	19.997	103.729	19.924	3.754	0.573
966.000	562.953	80.001	19.996	103.727	19.923	3.841	0.542
968.000	564.001	80.002	19.996	103.719	19.923	3.780	0.553
970.000	565.085	80.003	19.995	103.714	19.923	3.799	0.533
972.000	566.205	80.001	19.994	103.726	19.922	3.900	0.560
974.000	567.261	80.003	19.996	103.717	19.921	3.935	0.533
976.000	568.360	80.002	19.995	103.711	19.922	3.907	0.550
978.000	569.466	80.004	19.995	103.716	19.920	4.011	0.555
980.000	570.577	80.003	19.995	103.726	19.920	4.007	0.544
982.000	571.702	80.004	19.996	103.715	19.920	4.049	0.546
984.000	572.807	80.003	19.995	103.719	19.920	4.007	0.532
986.000	573.979	80.002	19.995	103.727	19.925	3.685	0.581
988.000	575.100	80.001	19.995	103.730	19.923	3.784	0.549
990.000	576.264	80.001	19.996	103.727	19.925	3.634	0.555
992.000	577.358	80.000	19.996	103.731	19.922	3.871	0.570
994.000	578.470	80.000	19.996	103.724	19.923	3.818	0.568
996.000	579.530	80.000	19.995	103.729	19.922	3.903	0.553
998.000	580.623	80.001	19.995	103.730	19.924	3.757	0.531
1000.000	581.773	80.000	19.996	103.728	19.923	3.814	0.557
1002.000	582.906	80.001	19.994	103.725	19.924	3.708	0.563
1004.000	583.956	80.000	19.995	103.730	19.924	3.763	0.560
1006.000	585.075	80.000	19.994	103.726	19.925	3.680	0.539
1008.000	586.144	80.001	19.993	103.724	19.925	3.676	0.537
1010.000	587.240	80.002	19.994	103.726	19.924	3.724	0.565
1012.000	588.315	80.001	19.994	103.728	19.925	3.665	0.570
1014.000	589.393	80.001	19.994	103.720	19.926	3.562	0.569
1016.000	590.468	80.002	19.994	103.715	19.927	3.534	0.540
1018.000	591.523	80.002	19.994	103.707	19.924	3.716	0.526
1020.000	592.547	80.002	19.995	103.708	19.927	3.483	0.546
1022.000	593.628	80.001	19.994	103.708	19.926	3.544	0.556
1024.000	594.678	80.000	19.996	103.715	19.926	3.604	0.546
1025.999	595.717	80.002	19.993	103.714	19.928	3.439	0.528
1027.999	596.755	80.002	19.995	103.717	19.923	3.771	0.534
1029.999	597.761	80.003	19.995	103.694	19.924	3.709	0.548
1031.999	598.783	80.002	19.994	103.695	19.924	3.703	0.510
1033.999	599.850	80.003	19.994	103.707	19.927	3.494	0.513
1036.001	600.860	80.003	19.997	103.719	19.930	3.244	0.543
1038.000	601.862	80.003	19.996	103.724	19.924	3.742	0.511
1039.999	602.833	80.001	19.995	103.716	19.924	3.697	0.501
1041.999	603.861	80.004	19.994	103.697	19.921	3.950	0.514
1043.999	604.867	80.003	19.994	103.709	19.924	3.760	0.486
1045.999	605.889	80.002	19.994	103.712	19.922	3.868	0.491
1047.999	606.926	80.003	19.995	103.712	19.925	3.655	0.488
1049.999	607.951	80.003	19.995	103.717	19.925	3.636	0.534
1051.999	608.961	80.003	19.993	103.702	19.925	3.653	0.527
1053.999	609.971	80.002	19.994	103.694	19.924	3.746	0.495
1055.999	610.990	80.003	19.996	103.700	19.925	3.682	0.491
1058.000	612.008	80.003	19.996	103.709	19.923	3.803	0.518
1059.999	613.038	80.003	19.995	103.715	19.922	3.843	0.505
1061.999	614.077	80.005	19.994	103.722	19.922	3.860	0.516
1064.000	615.120	80.004	19.994	103.723	19.920	4.063	0.509
1066.000	616.171	80.003	19.994	103.722	19.924	3.737	0.524
1068.000	617.199	80.001	19.994	103.707	19.922	3.909	0.525
1069.999	618.215	80.001	19.996	103.716	19.925	3.644	0.480
1071.999	619.250	80.001	19.994	103.710	19.924	3.731	0.535
1073.999	620.288	80.000	19.994	103.719	19.923	3.824	0.519
1075.999	621.331	80.000	19.995	103.712	19.924	3.723	0.515
1078.000	622.336	80.000	19.995	103.721	19.919	4.072	0.536
1080.000	623.433	80.001	19.995	103.710	19.923	3.817	0.551
1081.999	624.464	80.000	19.995	103.712	19.923	3.818	0.546
1084.000	625.529	80.003	19.998	103.725	19.920	4.002	0.556
1085.999	626.531	80.002	19.996	103.721	19.922	3.869	0.526
1087.999	627.567	80.002	19.995	103.724	19.922	3.845	0.493
1089.999	628.638	80.002	19.997	103.711	19.918	4.156	0.511
1091.999	629.679	80.002	19.996	103.711	19.924	3.720	0.503
1093.999	630.762	80.001	19.996	103.717	19.928	3.454	0.552
1095.999	631.743	80.002	19.996	103.710	19.923	3.841	0.487
1097.999	632.816	80.002	19.994	103.728	19.924	3.697	0.530
1100.000	633.836	80.002	19.994	103.713	19.925	3.623	0.572
1102.000	634.913	80.001	19.994	103.711	19.925	3.634	0.550
1104.000	635.930	80.003	19.994	103.710	19.924	3.729	0.516
1106.000	637.013	80.002	19.995	103.706	19.923	3.824	0.548
1107.999	638.052	80.003	19.995	103.709	19.927	3.532	0.541
1109.999	639.058	80.001	19.995	103.708	19.924	3.759	0.500
1111.999	640.113	80.003	19.994	103.724	19.925	3.679	0.558
1113.999	641.140	80.004	19.995	103.718	19.926	3.607	0.527
1115.999	642.169	80.004	19.996	103.721	19.926	3.560	0.529
1117.999	643.182	80.005	19.994	103.715	19.923	3.823	0.518
1120.000	644.235	80.004	19.996	103.725	19.922	3.863	0.521
1121.999	645.231	80.002	19.996	103.731	19.926	3.543	0.506
1123.999	646.255	80.003	19.995	103.730	19.921	3.922	0.512
1125.999	647.327	80.002	19.996	103.728	19.919	4.085	0.545
1128.000	648.389	80.002	19.994	103.733	19.923	3.831	0.564
1129.999	649.427	80.002	19.994	103.730	19.923	3.812	0.545
1131.999	650.415	80.002	19.994	103.726	19.920	4.034	0.492
1133.999	651.480	80.003	19.994	103.734	19.921	3.943	0.501
1135.999	652.507	80.003	19.994	103.733	19.923	3.837	0.525
1137.999	653.546	80.006	19.994	103.732	19.919	4.116	0.528
1140.000	654.552	80.004	19.993	103.730	19.921	3.937	0.506
1141.999	655.641	80.004	19.994	103.723	19.925	3.666	0.514
1144.000	656.659	80.005	19.995	103.730	19.924	3.736	0.512
1145.999	657.636	80.003	19.995	103.728	19.922	3.899	0.488
1148.000	658.704	80.002	19.994	103.721	19.919	4.085	0.541
1149.999	659.758	80.002	19.995	103.728	19.920	4.045	0.549
1152.000	660.759	80.002	19.994	103.729	19.920	4.013	0.536
1154.000	661.805	80.002	19.995	103.728	19.924	3.755	0.542
1156.001	662.827	80.004	19.995	103.733	19.922	3.882	0.506
1158.000	663.828	80.001	19.997	103.734	19.921	3.963	0.519
1160.000	664.863	80.002	19.995	103.730	19.919	4.132	0.515
1162.000	665.875	80.001	19.995	103.730	19.920	4.068	0.501
1164.000	666.851	80.005	19.995	103.728	19.917	4.265	0.497
1166.000	667.911	80.003	19.995	103.735	19.921	3.971	0.497
1168.000	668.947	80.003	19.996	103.743	19.919	4.111	0.542
1170.000	669.912	80.002	19.996	103.733	19.917	4.255	0.529
1172.000	670.955	80.003	19.995	103.730	19.914	4.458	0.497
1174.000	671.927	80.003	19.995	103.737	19.918	4.166	0.511
1176.000	672.944	80.001	19.996	103.737	19.919	4.121	0.463
1178.000	673.956	80.003	19.997	103.733	19.918	4.215	0.536
1180.000	675.000	80.000	19.996	103.733	19.919	4.092	0.523
1182.000	675.966	79.999	19.996	103.736	19.917	4.289	0.515
1184.000	676.979	80.002	19.995	103.734	19.916	4.342	0.492
1186.000	677.996	80.003	19.995	103.733	19.920	4.028	0.504
1188.000	679.049	80.000	19.995	103.744	19.918	4.153	0.531
1190.000	680.129	80.003	19.995	103.740	19.918	4.206	0.587
1192.000	681.004	80.003	19.994	103.744	19.915	4.446	0.486
1194.000	682.056	80.005	19.994	103.746	19.919	4.093	0.484
1196.000	683.038	80.003	19.994	103.745	19.915	4.428	0.497
1198.000	684.059	80.002	19.994	103.751	19.917	4.242	0.486
1200.000	685.101	80.003	19.994	103.744	19.918	4.198	0.508
1202.000	686.029	80.005	19.994	103.747	19.919	4.126	0.479
1204.000	687.094	80.002	19.995	103.761	19.917	4.274	0.494
1206.000	688.046	80.004	19.994	103.753	19.921	3.960	0.481
1208.000	689.046	80.004	19.995	103.742	19.921	3.971	0.513
1210.000	690.009	80.003	19.994	103.744	19.918	4.169	0.282
1212.000	691.003	80.005	19.996	103.766	19.918	4.205	0.437
1214.000	691.966	80.002	19.994	103.747	19.911	4.702	0.545
1216.000	692.896	80.004	19.994	103.742	19.916	4.348	0.484
1218.000	693.827	80.004	19.994	103.732	19.915	4.447	0.475
1220.000	694.802	80.004	19.994	103.751	19.913	4.558	0.489
1222.000	695.736	80.007	19.994	103.762	19.913	4.557	0.443
1224.000	696.671	80.004	19.993	103.745	19.913	4.604	0.471
1226.000	697.622	80.004	19.994	103.740	19.915	4.399	0.485
1228.000	698.536	80.004	19.994	103.732	19.913	4.538	0.449
1230.000	699.521	80.002	19.993	103.750	19.917	4.231	0.488
1232.000	700.410	80.002	19.994	103.748	19.913	4.604	0.485
1234.001	701.409	80.004	19.994	103.738	19.916	4.345	0.502
1236.000	702.363	80.002	19.994	103.745	19.915	4.431	0.475
1238.000	703.343	80.002	19.995	103.733	19.916	4.310	0.524
1240.000	704.287	80.003	19.994	103.731	19.915	4.425	0.495
1242.000	705.275	80.002	19.995	103.738	19.913	4.576	0.481
1244.000	706.251	80.001	19.993	103.732	19.915	4.444	0.498
1246.000	707.233	80.001	19.995	103.736	19.915	4.450	0.473
1248.000	708.163	80.003	19.994	103.745	19.918	4.152	0.448
1250.000	709.173	80.002	19.995	103.750	19.920	4.000	0.510
1252.000	710.131	80.005	19.994	103.743	19.914	4.467	0.478
1254.000	711.098	80.002	19.995	103.721	19.919	4.101	0.473
1256.000	712.087	80.004	19.995	103.707	19.918	4.169	0.480
1258.000	713.106	80.002	19.995	103.722	19.919	4.077	0.517
1260.000	714.114	80.001	19.995	103.715	19.919	4.111	0.490
1262.000	715.102	80.000	19.994	103.717	19.922	3.874	0.506
1264.000	716.136	79.998	19.997	103.713	19.919	4.099	0.502
1266.000	717.127	80.002	19.995	103.707	19.920	4.042	0.524
1268.000	718.189	80.002	19.995	103.700	19.919	4.111	0.517
1270.000	719.156	80.002	19.996	103.693	19.918	4.166	0.505
1272.000	720.173	80.002	19.995	103.696	19.918	4.177	0.494
1274.000	721.187	80.002	19.996	103.705	19.918	4.198	0.504
1276.000	722.241	80.003	19.994	103.711	19.916	4.338	0.525
1278.000	723.255	80.001	19.995	103.690	19.916	4.332	0.512
1280.000	724.267	80.003	19.994	103.689	19.912	4.636	0.517
1282.000	725.332	80.002	19.994	103.689	19.914	4.473	0.532
1284.000	726.367	80.003	19.996	103.690	19.912	4.642	0.507
1286.000	727.424	80.002	19.995	103.690	19.913	4.549	0.553
1288.000	728.484	80.002	19.994	103.705	19.916	4.316	0.572
1290.000	729.523	80.003	19.995	103.712	19.915	4.395	0.520
1292.000	730.556	80.005	19.995	103.694	19.917	4.225	0.529
1294.000	731.596	80.002	19.995	103.694	19.919	4.088	0.497
1296.000	732.715	80.003	19.993	103.695	19.922	3.912	0.520
1298.000	733.739	80.003	19.995	103.693	19.922	3.868	0.548
1300.000	734.766	80.004	19.995	103.692	19.919	4.139	0.539
1302.000	735.799	80.003	19.995	103.691	19.918	4.164	0.538
1304.000	736.825	80.005	19.995	103.691	19.921	3.961	0.492
1306.000	737.885	80.003	19.995	103.696	19.916	4.308	0.516
1308.000	738.931	80.002	19.995	103.691	19.922	3.851	0.511
1310.000	739.988	80.003	19.996	103.696	19.923	3.798	0.507
1312.000	741.040	80.002	19.994	103.703	19.920	4.020	0.517
1314.000	742.050	80.002	19.995	103.709	19.919	4.071	0.510
1316.000	743.096	80.001	19.994	103.699	19.917	4.283	0.487
1316.500	743.362	80.001	19.995	103.696	19.919	4.118	0.478