File: 01_Data/Homasote/MCC/Homasote_MCC_30K_min_220317_R1.txt
Sample ID:	C:\MCC\MCC Cal\Test\Homasote_MCC_30K_min_220317_R1.txt
Sample Weight (mg):	4.64
Heating Rate (C/s):	0.5
Combustor Temp (C):	900
N2 Flow Rate (cc/min):	80
O2 Flow Rate (cc/min):	20
Calibration File:	C:\MCC\MCC Cal\Coeff1 JN10440_30_210304.txt.txt
T Correction Coefficients:	0	1.024463	0
Time Shift (s):	14
*
Time (s)	Temperature (C)	N2 flow rate (cc/min)	O2 flow rate (cc/min)	Flow Rate (cc/min)	Oxygen (%)	HRR (W/g)	Heating rate (C/s)
0.000	105.886	80.001	19.996	103.601	19.959	0.272	0.006
2.000	105.864	80.001	19.994	103.598	19.961	0.178	-0.004
4.000	105.846	80.000	19.996	103.590	19.961	0.178	0.004
6.000	105.845	80.002	19.995	103.595	19.961	0.180	-0.020
8.000	105.834	80.003	19.994	103.596	19.959	0.278	-0.009
10.000	105.853	80.002	19.994	103.603	19.956	0.474	0.015
12.000	105.856	80.002	19.994	103.625	19.957	0.454	0.013
14.000	105.867	80.002	19.995	103.651	19.952	0.752	-0.003
16.000	105.898	80.003	19.994	103.679	19.943	1.391	0.024
18.000	105.997	80.001	19.995	103.709	19.943	1.424	0.046
20.000	106.068	80.001	19.995	103.729	19.939	1.701	0.021
22.000	106.235	80.002	19.995	103.723	19.936	1.904	0.044
24.000	106.325	80.001	19.996	103.718	19.934	2.055	0.069
26.000	106.500	80.001	19.996	103.731	19.931	2.236	0.105
28.000	106.687	80.002	19.996	103.754	19.929	2.369	0.096
30.001	106.903	80.000	19.996	103.763	19.930	2.309	0.113
32.000	107.103	80.002	19.994	103.775	19.926	2.563	0.109
34.000	107.360	80.001	19.996	103.780	19.923	2.823	0.120
36.000	107.647	80.002	19.995	103.804	19.922	2.852	0.163
38.000	107.954	80.001	19.993	103.809	19.919	3.050	0.175
40.001	108.336	80.001	19.994	103.802	19.920	2.990	0.160
42.000	108.700	80.003	19.993	103.814	19.918	3.160	0.178
44.001	109.093	80.004	19.995	103.824	19.920	2.980	0.193
46.000	109.540	80.004	19.994	103.832	19.919	3.083	0.216
48.000	110.001	80.002	19.995	103.839	19.917	3.226	0.229
50.001	110.485	80.003	19.995	103.846	19.915	3.383	0.234
52.000	110.984	80.002	19.994	103.848	19.913	3.478	0.258
54.000	111.517	80.003	19.998	103.852	19.915	3.335	0.300
56.000	112.095	80.000	19.994	103.853	19.913	3.521	0.316
58.000	112.636	80.002	19.995	103.864	19.911	3.643	0.324
60.000	113.272	80.003	19.994	103.863	19.912	3.546	0.321
62.000	113.882	80.004	19.994	103.866	19.909	3.810	0.289
64.000	114.536	80.003	19.994	103.875	19.910	3.699	0.366
66.000	115.206	80.003	19.995	103.873	19.907	3.891	0.325
68.000	115.884	80.003	19.993	103.874	19.904	4.137	0.356
70.000	116.631	80.004	19.993	103.874	19.911	3.642	0.390
72.000	117.286	80.003	19.994	103.875	19.908	3.874	0.332
74.000	118.088	80.002	19.994	103.886	19.907	3.930	0.384
76.000	118.839	80.001	19.995	103.877	19.906	4.015	0.397
78.000	119.631	80.002	19.995	103.888	19.906	4.025	0.400
80.000	120.421	80.000	19.993	103.886	19.903	4.230	0.421
82.000	121.221	80.001	19.995	103.886	19.905	4.068	0.401
84.000	122.060	80.001	19.995	103.885	19.907	3.886	0.396
86.001	122.932	80.000	19.995	103.880	19.905	4.052	0.439
88.000	123.789	80.002	19.996	103.878	19.906	3.971	0.442
90.000	124.682	80.001	19.996	103.880	19.906	3.994	0.465
92.000	125.565	80.002	19.995	103.879	19.903	4.180	0.453
94.000	126.445	80.001	19.995	103.884	19.905	4.056	0.479
96.000	127.378	80.002	19.995	103.878	19.906	3.982	0.465
98.001	128.252	80.002	19.995	103.874	19.905	4.054	0.453
100.000	129.236	80.000	19.995	103.880	19.905	4.060	0.499
102.000	130.171	80.001	19.995	103.876	19.906	4.009	0.451
104.001	131.101	80.000	19.995	103.879	19.907	3.924	0.459
106.000	131.993	79.999	19.994	103.876	19.909	3.787	0.440
108.000	132.996	80.001	19.996	103.880	19.905	4.073	0.484
110.000	133.966	79.999	19.995	103.878	19.904	4.117	0.495
112.000	134.965	80.001	19.995	103.880	19.906	3.970	0.502
114.000	135.944	80.001	19.997	103.871	19.906	3.975	0.500
116.000	136.918	80.001	19.996	103.880	19.909	3.745	0.486
118.000	137.930	80.000	19.996	103.875	19.910	3.722	0.498
120.000	138.920	80.001	19.995	103.865	19.912	3.584	0.480
122.000	139.925	80.001	19.995	103.859	19.911	3.652	0.516
124.000	140.898	80.001	19.995	103.851	19.913	3.507	0.527
126.000	141.913	80.001	19.995	103.856	19.912	3.581	0.498
128.000	142.921	80.002	19.994	103.856	19.910	3.714	0.493
130.000	143.933	80.002	19.994	103.854	19.912	3.540	0.513
132.000	144.984	80.001	19.994	103.856	19.911	3.623	0.532
134.000	145.999	79.999	19.994	103.855	19.914	3.410	0.503
136.000	147.010	80.000	19.994	103.856	19.915	3.359	0.505
138.000	147.998	80.000	19.994	103.855	19.914	3.417	0.502
140.000	149.064	80.001	19.993	103.851	19.915	3.334	0.531
142.000	150.060	79.999	19.995	103.852	19.914	3.412	0.490
144.000	151.066	80.002	19.993	103.848	19.918	3.154	0.497
146.000	152.104	80.003	19.994	103.840	19.917	3.237	0.496
148.000	153.136	80.004	19.994	103.837	19.915	3.355	0.545
150.000	154.102	80.003	19.994	103.838	19.912	3.549	0.485
152.000	155.099	80.002	19.995	103.842	19.915	3.376	0.470
154.000	156.142	80.002	19.994	103.840	19.911	3.631	0.501
156.000	157.146	80.001	19.996	103.841	19.914	3.442	0.512
158.000	158.145	80.001	19.996	103.839	19.917	3.239	0.501
160.000	159.122	80.000	19.995	103.834	19.911	3.637	0.530
162.000	160.102	80.001	19.994	103.822	19.915	3.368	0.516
164.000	161.045	80.000	19.995	103.813	19.911	3.641	0.472
166.000	162.051	80.000	19.994	103.827	19.913	3.475	0.508
168.000	163.062	80.001	19.995	103.823	19.913	3.469	0.521
170.000	164.032	80.002	19.993	103.825	19.912	3.589	0.501
172.000	165.068	80.002	19.994	103.813	19.911	3.653	0.527
174.000	166.011	80.002	19.997	103.821	19.911	3.626	0.463
176.000	167.018	80.000	19.995	103.821	19.910	3.736	0.475
178.000	167.977	80.000	19.995	103.827	19.910	3.705	0.493
180.000	168.965	80.001	19.995	103.820	19.908	3.860	0.517
182.000	169.893	80.000	19.996	103.816	19.909	3.769	0.472
184.000	170.895	80.000	19.996	103.813	19.907	3.924	0.484
186.000	171.839	80.000	19.995	103.822	19.906	3.960	0.477
188.000	172.874	80.000	19.994	103.812	19.910	3.680	0.529
190.000	173.816	80.000	19.995	103.811	19.905	4.082	0.497
192.000	174.756	80.000	19.996	103.811	19.907	3.910	0.481
194.000	175.706	80.001	19.994	103.814	19.911	3.616	0.469
196.000	176.692	80.000	19.994	103.818	19.913	3.484	0.495
198.000	177.691	80.001	19.995	103.814	19.908	3.853	0.492
200.000	178.700	80.002	19.996	103.813	19.907	3.954	0.486
202.000	179.652	80.001	19.995	103.812	19.906	3.989	0.503
204.000	180.612	80.003	19.994	103.808	19.907	3.920	0.489
206.000	181.585	80.001	19.995	103.812	19.904	4.156	0.494
208.000	182.603	80.002	19.996	103.756	19.902	4.254	0.519
210.000	183.572	80.002	19.996	103.757	19.905	4.036	0.499
212.000	184.520	80.000	19.997	103.891	19.906	4.018	0.488
214.000	185.513	80.002	19.995	103.823	19.904	4.119	0.521
216.000	186.504	80.002	19.995	103.808	19.903	4.171	0.487
218.000	187.471	80.001	19.995	103.808	19.902	4.270	0.477
220.000	188.424	80.003	19.995	103.810	19.900	4.384	0.450
222.000	189.378	80.002	19.993	103.809	19.898	4.572	0.468
224.000	190.400	80.004	19.995	103.808	19.897	4.581	0.499
226.000	191.372	80.004	19.994	103.808	19.901	4.345	0.463
228.000	192.338	80.005	19.994	103.805	19.896	4.653	0.490
230.000	193.307	80.004	19.993	103.805	19.894	4.796	0.495
232.000	194.284	80.003	19.994	103.803	19.895	4.740	0.470
234.000	195.241	80.002	19.998	103.807	19.895	4.765	0.482
236.000	196.242	80.001	19.995	103.807	19.896	4.688	0.494
238.000	197.220	80.002	19.995	103.808	19.892	4.978	0.497
240.000	198.217	80.000	19.995	103.808	19.892	4.965	0.499
242.000	199.187	80.003	19.994	103.799	19.892	4.992	0.498
244.000	200.116	80.002	19.994	103.805	19.892	4.965	0.476
246.000	201.115	80.001	19.995	103.813	19.893	4.866	0.447
248.000	202.141	80.002	19.995	103.810	19.889	5.205	0.516
250.000	203.146	80.002	19.994	103.812	19.888	5.245	0.486
252.000	204.096	80.003	19.993	103.812	19.889	5.187	0.492
254.001	205.104	80.001	19.995	103.806	19.887	5.335	0.525
256.000	206.107	80.002	19.994	103.810	19.883	5.606	0.490
258.000	207.086	80.002	19.994	103.812	19.884	5.540	0.498
260.000	208.086	80.002	19.994	103.809	19.881	5.751	0.529
262.000	209.093	80.002	19.994	103.811	19.880	5.782	0.483
264.000	210.060	80.000	19.994	103.810	19.884	5.538	0.492
266.000	211.062	80.001	19.995	103.811	19.880	5.826	0.494
268.000	212.010	80.001	19.995	103.812	19.879	5.874	0.472
270.000	213.050	80.001	19.995	103.810	19.876	6.063	0.532
272.000	214.027	80.000	19.995	103.808	19.874	6.205	0.503
274.000	214.999	79.999	19.996	103.807	19.873	6.287	0.467
276.000	216.011	80.002	19.994	103.804	19.870	6.527	0.480
278.000	217.025	80.001	19.995	103.804	19.867	6.741	0.511
280.000	217.978	80.002	19.994	103.803	19.867	6.695	0.471
282.000	218.995	80.002	19.995	103.792	19.865	6.860	0.488
284.000	219.993	80.003	19.994	103.788	19.865	6.860	0.518
286.000	220.952	80.003	19.994	103.799	19.862	7.043	0.498
288.000	221.989	80.002	19.995	103.805	19.861	7.107	0.523
290.000	222.972	80.002	19.995	103.803	19.858	7.349	0.503
292.000	223.945	80.001	19.996	103.806	19.856	7.478	0.464
294.000	224.936	80.001	19.997	103.806	19.854	7.619	0.485
296.000	225.926	80.001	19.994	103.806	19.851	7.811	0.497
298.000	226.959	80.002	19.996	103.807	19.848	8.023	0.506
300.000	227.925	80.002	19.997	103.801	19.846	8.157	0.481
302.000	228.981	80.002	19.996	103.799	19.844	8.285	0.494
304.000	230.002	80.004	19.996	103.795	19.842	8.457	0.497
306.000	230.981	80.001	19.996	103.795	19.841	8.510	0.513
308.000	231.962	80.004	19.994	103.802	19.836	8.860	0.493
310.000	232.975	80.003	19.995	103.803	19.835	8.972	0.507
312.000	233.974	80.002	19.994	103.782	19.826	9.548	0.490
314.000	235.006	80.003	19.994	103.795	19.831	9.227	0.514
316.000	235.985	80.001	19.993	103.790	19.827	9.523	0.494
318.000	236.956	80.003	19.994	103.803	19.824	9.705	0.482
320.000	238.003	80.000	19.995	103.795	19.822	9.864	0.525
322.000	239.008	80.001	19.994	103.793	19.819	10.087	0.512
324.000	239.980	80.000	19.995	103.787	19.819	10.074	0.505
326.000	240.962	80.000	19.994	103.787	19.812	10.572	0.517
328.000	241.965	80.001	19.995	103.785	19.815	10.320	0.507
330.000	242.992	80.001	19.994	103.789	19.814	10.395	0.504
332.000	243.942	80.000	19.995	103.783	19.809	10.764	0.472
334.000	244.966	80.002	19.994	103.792	19.806	10.962	0.462
336.000	245.962	80.001	19.995	103.801	19.803	11.164	0.475
338.000	246.945	80.002	19.995	103.781	19.799	11.480	0.457
340.000	247.980	80.002	19.995	103.795	19.796	11.683	0.512
342.000	248.930	80.003	19.994	103.787	19.796	11.656	0.487
344.000	249.975	80.002	19.995	103.776	19.791	12.038	0.533
346.000	251.007	80.001	19.994	103.775	19.791	12.033	0.521
348.000	251.964	80.002	19.994	103.779	19.789	12.122	0.505
350.000	252.935	80.001	19.996	103.785	19.788	12.198	0.520
352.000	253.928	80.002	19.995	103.773	19.785	12.464	0.488
354.000	254.915	80.001	19.997	103.779	19.782	12.673	0.521
356.000	255.896	80.001	19.995	103.782	19.782	12.665	0.488
358.000	256.846	80.002	19.995	103.789	19.784	12.468	0.471
360.000	257.867	80.002	19.995	103.775	19.779	12.876	0.516
362.000	258.856	80.004	19.995	103.782	19.779	12.877	0.488
364.000	259.845	80.002	19.995	103.791	19.776	13.036	0.502
366.000	260.751	80.002	19.996	103.797	19.776	13.032	0.464
368.000	261.757	80.002	19.996	103.798	19.772	13.320	0.462
370.000	262.710	80.001	19.995	103.798	19.772	13.350	0.476
372.000	263.730	80.003	19.995	103.802	19.770	13.489	0.510
374.000	264.703	80.000	19.996	103.806	19.768	13.626	0.460
376.000	265.648	80.003	19.994	103.805	19.767	13.670	0.473
378.000	266.689	80.002	19.995	103.802	19.768	13.607	0.503
380.000	267.647	80.001	19.995	103.804	19.767	13.669	0.523
382.000	268.596	80.001	19.995	103.809	19.766	13.743	0.464
384.000	269.618	80.002	19.994	103.809	19.763	13.955	0.507
386.000	270.629	80.004	19.995	103.805	19.761	14.091	0.496
388.000	271.614	80.003	19.994	103.807	19.761	14.101	0.484
390.000	272.670	80.003	19.995	103.810	19.760	14.167	0.531
392.000	273.616	80.004	19.996	103.808	19.760	14.165	0.490
394.000	274.567	80.002	19.995	103.809	19.758	14.298	0.529
396.000	275.609	80.002	19.995	103.808	19.756	14.473	0.507
398.000	276.600	80.000	19.995	103.812	19.750	14.847	0.472
400.000	277.559	80.002	19.995	103.810	19.750	14.869	0.467
402.000	278.563	80.000	19.994	103.811	19.745	15.259	0.517
404.000	279.560	80.002	19.995	103.811	19.744	15.317	0.508
406.000	280.547	80.001	19.994	103.814	19.740	15.544	0.507
408.000	281.509	80.001	19.995	103.822	19.742	15.438	0.488
410.000	282.497	80.001	19.994	103.820	19.738	15.722	0.482
412.000	283.493	80.002	19.994	103.821	19.734	15.979	0.490
414.000	284.480	80.002	19.997	103.832	19.733	16.099	0.495
416.000	285.462	80.002	19.994	103.841	19.727	16.505	0.473
418.000	286.456	80.001	19.994	103.827	19.724	16.675	0.500
420.000	287.443	80.001	19.995	103.842	19.721	16.899	0.498
422.000	288.459	80.001	19.994	103.839	19.717	17.220	0.466
424.000	289.445	80.000	19.995	103.835	19.709	17.764	0.475
426.000	290.475	80.001	19.995	103.835	19.704	18.076	0.530
428.000	291.495	80.000	19.996	103.843	19.702	18.205	0.517
430.000	292.495	80.000	19.995	103.845	19.698	18.548	0.472
432.000	293.510	80.002	19.995	103.851	19.692	18.916	0.507
434.000	294.492	80.002	19.995	103.851	19.687	19.267	0.506
436.000	295.516	80.001	19.994	103.854	19.683	19.550	0.487
438.000	296.529	80.002	19.995	103.867	19.675	20.117	0.493
440.000	297.517	80.001	19.996	103.872	19.671	20.431	0.516
442.000	298.527	80.001	19.993	103.866	19.665	20.842	0.519
444.000	299.499	80.002	19.994	103.861	19.657	21.380	0.485
446.000	300.498	80.002	19.995	103.863	19.651	21.801	0.509
448.000	301.525	80.001	19.996	103.870	19.644	22.259	0.491
450.000	302.471	80.001	19.995	103.880	19.641	22.480	0.479
452.000	303.470	80.001	19.996	103.882	19.634	23.015	0.491
454.000	304.529	80.002	19.995	103.871	19.624	23.692	0.532
456.000	305.485	80.003	19.995	103.883	19.621	23.904	0.475
458.000	306.482	80.001	19.994	103.888	19.614	24.412	0.519
460.000	307.540	80.001	19.995	103.888	19.605	25.045	0.516
462.000	308.523	80.003	19.996	103.891	19.595	25.725	0.474
464.000	309.548	80.003	19.995	103.889	19.590	26.100	0.518
466.000	310.566	80.003	19.995	103.898	19.581	26.700	0.491
468.000	311.542	80.005	19.994	103.893	19.573	27.271	0.504
470.000	312.628	80.003	19.995	103.890	19.565	27.850	0.500
472.000	313.638	80.003	19.995	103.911	19.552	28.713	0.526
474.000	314.626	80.001	19.997	103.898	19.543	29.327	0.484
476.000	315.666	80.000	19.997	103.916	19.537	29.759	0.487
478.000	316.663	80.001	19.996	103.911	19.525	30.606	0.469
480.000	317.706	80.001	19.996	103.914	19.521	30.930	0.538
482.000	318.707	80.000	19.997	103.918	19.511	31.603	0.484
484.000	319.763	80.000	19.996	103.923	19.499	32.457	0.519
486.000	320.728	80.000	19.996	103.923	19.490	33.030	0.525
488.000	321.732	80.002	19.997	103.924	19.480	33.745	0.514
490.000	322.745	80.001	19.995	103.924	19.469	34.529	0.496
492.000	323.740	80.001	19.995	103.932	19.456	35.476	0.495
494.000	324.761	80.003	19.995	103.942	19.447	36.051	0.487
496.000	325.764	80.000	19.994	103.931	19.438	36.718	0.514
498.000	326.794	80.002	19.994	103.938	19.424	37.699	0.518
500.000	327.808	80.000	19.994	103.947	19.413	38.445	0.510
502.000	328.795	80.000	19.995	103.955	19.404	39.083	0.521
504.000	329.814	80.000	19.994	103.964	19.390	40.056	0.489
506.000	330.787	80.001	19.995	103.967	19.378	40.908	0.493
508.000	331.817	80.000	19.995	103.968	19.366	41.767	0.487
510.000	332.842	80.000	19.995	103.968	19.357	42.416	0.511
512.000	333.812	80.000	19.995	103.967	19.341	43.495	0.485
514.000	334.801	80.001	19.994	103.976	19.332	44.168	0.481
516.000	335.835	79.999	19.996	103.974	19.317	45.163	0.488
518.000	336.821	80.002	19.994	103.993	19.306	45.970	0.497
520.000	337.790	80.002	19.994	103.996	19.293	46.862	0.478
522.000	338.793	80.006	19.994	103.991	19.278	47.939	0.478
524.000	339.777	80.003	19.994	104.006	19.266	48.738	0.503
526.000	340.775	80.002	19.994	104.005	19.251	49.844	0.512
528.000	341.746	80.002	19.994	104.007	19.235	50.913	0.498
530.000	342.743	80.001	19.994	104.007	19.226	51.557	0.505
532.000	343.742	80.003	19.994	104.010	19.212	52.527	0.509
534.000	344.708	80.003	19.995	104.010	19.198	53.512	0.476
536.000	345.733	80.003	19.996	104.009	19.185	54.445	0.481
538.000	346.706	80.003	19.994	104.029	19.175	55.128	0.473
540.000	347.644	80.002	19.995	104.030	19.160	56.151	0.494
542.000	348.718	80.005	19.994	104.042	19.147	57.101	0.509
544.000	349.729	80.002	19.996	104.043	19.135	57.953	0.522
546.000	350.706	80.004	19.996	104.044	19.121	58.921	0.505
548.000	351.699	80.006	19.994	104.040	19.104	60.122	0.492
550.001	352.728	80.004	19.994	104.041	19.096	60.674	0.529
552.000	353.744	80.002	19.994	104.042	19.083	61.572	0.514
554.000	354.719	80.004	19.995	104.043	19.070	62.473	0.507
556.000	355.732	80.002	19.994	104.042	19.061	63.109	0.508
558.000	356.722	80.001	19.995	104.055	19.053	63.650	0.484
560.000	357.713	80.001	19.996	104.047	19.044	64.290	0.506
562.000	358.690	80.004	19.995	104.054	19.039	64.622	0.480
564.000	359.683	80.000	19.996	104.060	19.038	64.708	0.495
566.000	360.680	80.001	19.995	104.062	19.032	65.122	0.496
568.000	361.692	79.999	19.996	104.057	19.026	65.572	0.515
570.000	362.659	79.999	19.996	104.047	19.028	65.386	0.494
572.000	363.672	80.000	19.996	104.040	19.029	65.339	0.482
574.000	364.663	80.001	19.995	104.029	19.032	65.086	0.503
576.000	365.676	79.999	19.996	104.023	19.037	64.702	0.529
578.000	366.679	80.002	19.996	104.011	19.049	63.856	0.542
580.000	367.651	80.003	19.995	104.006	19.062	62.939	0.479
582.000	368.630	80.000	19.996	103.994	19.081	61.672	0.484
584.000	369.615	80.000	19.994	103.968	19.098	60.459	0.499
586.000	370.623	80.001	19.994	103.966	19.118	59.069	0.467
588.000	371.599	79.999	19.994	103.938	19.148	56.918	0.493
590.000	372.601	79.999	19.995	103.933	19.175	55.045	0.492
592.000	373.597	80.001	19.994	103.922	19.204	52.995	0.486
594.000	374.600	80.001	19.997	103.905	19.239	50.572	0.485
596.000	375.634	80.002	19.996	103.893	19.273	48.169	0.544
598.000	376.649	80.005	19.994	103.882	19.313	45.361	0.497
600.000	377.620	80.002	19.996	103.856	19.352	42.654	0.500
602.000	378.659	80.002	19.995	103.845	19.395	39.669	0.505
604.000	379.639	80.004	19.995	103.825	19.435	36.880	0.496
606.000	380.645	80.003	19.994	103.811	19.475	34.067	0.506
608.000	381.668	80.002	19.995	103.805	19.515	31.245	0.512
610.000	382.639	80.001	19.995	103.803	19.558	28.260	0.507
612.000	383.685	80.003	19.994	103.783	19.596	25.616	0.518
614.000	384.701	80.000	19.995	103.772	19.629	23.333	0.518
616.000	385.706	80.003	19.995	103.769	19.666	20.742	0.502
618.000	386.748	80.003	19.995	103.769	19.696	18.664	0.507
620.000	387.745	80.003	19.995	103.766	19.723	16.770	0.518
622.000	388.746	80.003	19.995	103.757	19.744	15.257	0.464
624.000	389.780	80.004	19.994	103.759	19.760	14.160	0.507
626.000	390.822	80.003	19.994	103.749	19.780	12.764	0.540
628.000	391.804	80.004	19.995	103.752	19.795	11.700	0.547
630.000	392.810	80.002	19.995	103.739	19.803	11.157	0.486
632.000	393.884	80.002	19.995	103.744	19.815	10.358	0.534
634.000	394.921	80.002	19.996	103.741	19.822	9.824	0.525
636.000	395.913	80.003	19.994	103.742	19.828	9.396	0.476
638.000	396.936	80.000	19.994	103.737	19.833	9.110	0.512
640.000	397.959	80.001	19.995	103.735	19.838	8.723	0.536
642.000	398.964	79.999	19.995	103.735	19.842	8.480	0.516
644.000	399.968	80.001	19.995	103.735	19.842	8.453	0.498
646.000	401.006	80.002	19.997	103.748	19.842	8.442	0.525
648.000	402.041	80.001	19.995	103.740	19.847	8.118	0.517
650.000	403.048	80.001	19.994	103.733	19.850	7.895	0.512
652.000	404.105	80.003	19.994	103.738	19.849	7.986	0.510
654.000	405.145	80.000	19.998	103.743	19.853	7.690	0.529
656.000	406.193	80.002	19.995	103.749	19.851	7.812	0.529
658.000	407.151	80.002	19.996	103.743	19.851	7.820	0.513
660.000	408.197	80.000	19.996	103.731	19.854	7.600	0.550
662.000	409.218	79.999	19.995	103.733	19.854	7.619	0.527
664.000	410.276	80.002	19.996	103.731	19.856	7.445	0.555
666.000	411.294	80.002	19.997	103.730	19.855	7.564	0.494
668.000	412.299	80.001	19.995	103.731	19.856	7.476	0.503
670.000	413.323	80.003	19.994	103.733	19.859	7.276	0.494
672.000	414.344	80.002	19.995	103.734	19.858	7.365	0.518
674.000	415.364	80.003	19.994	103.734	19.858	7.356	0.517
676.000	416.389	80.001	19.994	103.737	19.860	7.172	0.488
678.000	417.389	80.004	19.995	103.731	19.861	7.120	0.515
680.000	418.408	80.003	19.995	103.734	19.858	7.365	0.467
682.000	419.432	80.002	19.994	103.730	19.857	7.429	0.514
684.000	420.450	80.003	19.996	103.734	19.860	7.216	0.487
686.000	421.507	80.002	19.994	103.734	19.858	7.361	0.511
688.000	422.481	80.002	19.994	103.734	19.858	7.306	0.504
690.000	423.530	80.004	19.994	103.735	19.859	7.296	0.482
692.000	424.546	80.001	19.993	103.731	19.859	7.298	0.469
694.000	425.621	80.002	19.995	103.731	19.861	7.100	0.514
696.000	426.562	80.003	19.995	103.731	19.861	7.095	0.516
698.000	427.572	80.002	19.994	103.734	19.860	7.211	0.478
700.000	428.610	80.004	19.994	103.735	19.862	7.077	0.511
702.000	429.635	80.005	19.993	103.733	19.861	7.135	0.491
704.000	430.593	80.003	19.994	103.733	19.860	7.209	0.507
706.001	431.629	80.003	19.996	103.734	19.859	7.265	0.506
708.000	432.630	80.004	19.994	103.734	19.863	6.973	0.502
710.000	433.638	80.004	19.993	103.735	19.867	6.700	0.521
712.000	434.650	80.003	19.994	103.732	19.865	6.870	0.513
714.000	435.677	80.001	19.995	103.734	19.865	6.837	0.541
716.000	436.638	80.000	19.994	103.739	19.871	6.417	0.456
718.000	437.668	80.003	19.995	103.734	19.870	6.500	0.490
720.000	438.652	80.001	19.994	103.735	19.871	6.401	0.492
722.000	439.654	80.000	19.995	103.730	19.872	6.338	0.510
724.000	440.645	80.000	19.996	103.730	19.870	6.513	0.494
726.000	441.627	80.001	19.996	103.728	19.873	6.262	0.463
728.000	442.665	80.002	19.996	103.729	19.873	6.278	0.516
730.000	443.646	80.002	19.994	103.718	19.871	6.415	0.515
732.000	444.607	80.003	19.995	103.724	19.871	6.452	0.477
734.000	445.586	80.002	19.995	103.718	19.874	6.230	0.476
736.000	446.572	80.002	19.995	103.717	19.876	6.088	0.475
738.000	447.591	80.001	19.995	103.729	19.874	6.218	0.500
740.000	448.555	80.000	19.994	103.724	19.875	6.158	0.516
742.000	449.531	80.001	19.995	103.725	19.876	6.092	0.485
744.000	450.508	80.002	19.994	103.731	19.874	6.245	0.473
746.000	451.486	79.998	19.995	103.729	19.875	6.112	0.462
748.001	452.495	79.999	19.996	103.730	19.877	5.992	0.492
750.000	453.497	79.997	19.996	103.728	19.879	5.891	0.534
752.000	454.483	79.999	19.997	103.728	19.880	5.808	0.487
754.000	455.500	80.002	19.994	103.730	19.881	5.736	0.508
756.000	456.513	80.001	19.995	103.730	19.882	5.646	0.512
758.000	457.513	80.001	19.996	103.726	19.884	5.531	0.498
760.000	458.492	80.003	19.995	103.729	19.885	5.446	0.507
762.000	459.567	80.003	19.995	103.730	19.886	5.346	0.537
764.001	460.566	80.002	19.994	103.729	19.887	5.332	0.559
766.000	461.586	80.001	19.994	103.728	19.884	5.551	0.525
768.000	462.638	80.005	19.993	103.729	19.885	5.417	0.505
770.000	463.638	80.002	19.995	103.728	19.886	5.363	0.503
772.000	464.621	80.001	19.993	103.728	19.886	5.369	0.500
774.000	465.715	80.001	19.997	103.725	19.890	5.121	0.522
776.000	466.767	80.000	19.994	103.730	19.886	5.369	0.508
778.000	467.790	80.002	19.993	103.727	19.890	5.125	0.517
780.000	468.827	80.001	19.994	103.733	19.890	5.129	0.515
782.000	469.842	80.004	19.994	103.731	19.890	5.071	0.501
784.000	470.867	80.002	19.994	103.727	19.893	4.864	0.553
786.000	471.896	80.004	19.993	103.728	19.893	4.909	0.497
788.000	472.970	80.004	19.994	103.730	19.895	4.746	0.531
790.000	473.999	80.003	19.994	103.729	19.893	4.864	0.530
792.000	475.079	80.003	19.995	103.726	19.896	4.694	0.531
794.000	476.097	80.002	19.993	103.727	19.897	4.614	0.513
796.000	477.132	80.003	19.994	103.724	19.899	4.465	0.525
798.000	478.196	80.002	19.994	103.723	19.902	4.266	0.542
800.000	479.197	80.003	19.994	103.726	19.903	4.201	0.505
802.000	480.229	80.000	19.994	103.725	19.903	4.197	0.479
804.000	481.260	80.002	19.994	103.722	19.903	4.191	0.486
806.000	482.277	80.003	19.994	103.718	19.902	4.253	0.521
808.000	483.322	79.998	19.994	103.722	19.906	3.997	0.500
810.001	484.305	80.003	19.994	103.725	19.909	3.802	0.503
812.000	485.366	80.001	19.994	103.720	19.908	3.852	0.528
814.000	486.349	80.002	19.995	103.717	19.909	3.742	0.523
816.000	487.366	80.000	19.996	103.729	19.907	3.897	0.500
818.000	488.369	80.000	19.994	103.721	19.910	3.721	0.486
820.000	489.431	80.001	19.996	103.722	19.910	3.672	0.502
822.000	490.409	80.001	19.994	103.724	19.909	3.786	0.515
824.000	491.394	80.000	19.994	103.716	19.909	3.762	0.472
826.000	492.449	80.001	19.994	103.729	19.907	3.883	0.493
828.000	493.455	80.000	19.994	103.732	19.912	3.572	0.506
830.000	494.459	80.002	19.995	103.724	19.915	3.388	0.510
832.000	495.482	80.002	19.995	103.702	19.916	3.282	0.514
834.000	496.481	80.003	19.999	103.715	19.914	3.419	0.502
836.000	497.446	80.000	19.995	103.725	19.916	3.264	0.497
838.000	498.457	80.001	19.996	103.716	19.915	3.337	0.484
840.000	499.478	80.000	19.995	103.718	19.917	3.192	0.517
842.000	500.476	80.001	19.996	103.721	19.916	3.320	0.512
844.000	501.475	80.001	19.996	103.716	19.915	3.376	0.491
846.000	502.467	80.002	19.995	103.718	19.915	3.332	0.504
848.000	503.473	80.001	19.996	103.697	19.915	3.335	0.530
850.000	504.452	80.001	19.996	103.697	19.915	3.386	0.504
852.000	505.418	80.002	19.995	103.705	19.916	3.307	0.480
854.000	506.413	80.001	19.995	103.701	19.914	3.401	0.480
856.000	507.388	80.002	19.995	103.703	19.916	3.279	0.488
858.000	508.353	80.003	19.995	103.715	19.918	3.125	0.496
860.000	509.379	80.002	19.994	103.693	19.916	3.283	0.483
862.000	510.367	80.004	19.993	103.715	19.915	3.357	0.478
864.000	511.397	80.003	19.994	103.705	19.916	3.256	0.515
866.000	512.373	80.004	19.994	103.698	19.916	3.306	0.519
868.000	513.366	80.002	19.994	103.708	19.919	3.098	0.501
870.000	514.375	80.003	19.995	103.711	19.921	2.926	0.522
872.000	515.420	80.004	19.995	103.708	19.921	2.945	0.539
874.000	516.447	80.000	19.995	103.703	19.923	2.831	0.526
876.000	517.468	80.001	19.995	103.701	19.924	2.721	0.521
878.000	518.483	80.001	19.994	103.700	19.922	2.849	0.507
880.000	519.515	80.000	19.995	103.706	19.923	2.794	0.523
882.000	520.543	80.001	19.994	103.700	19.921	2.952	0.492
884.000	521.529	80.000	19.993	103.693	19.921	2.937	0.484
886.000	522.591	80.000	19.993	103.703	19.924	2.732	0.537
888.000	523.587	80.001	19.993	103.719	19.923	2.775	0.506
890.000	524.620	80.003	19.994	103.717	19.924	2.754	0.504
892.000	525.610	80.001	19.994	103.695	19.922	2.860	0.524
894.000	526.643	80.000	19.996	103.699	19.925	2.635	0.510
896.000	527.639	80.001	19.995	103.715	19.923	2.773	0.507
898.000	528.628	80.002	19.995	103.697	19.925	2.655	0.492
900.000	529.708	80.000	19.994	103.704	19.928	2.425	0.523
902.000	530.735	80.001	19.995	103.703	19.928	2.462	0.532
904.000	531.757	80.000	19.995	103.698	19.929	2.402	0.542
906.000	532.776	80.000	19.996	103.700	19.925	2.641	0.507
908.000	533.818	80.001	19.995	103.714	19.927	2.517	0.513
910.000	534.834	79.999	19.994	103.706	19.925	2.664	0.504
912.000	535.878	80.000	19.996	103.710	19.925	2.643	0.533
914.000	536.931	80.002	19.996	103.705	19.931	2.260	0.527
916.000	537.909	80.003	19.994	103.700	19.926	2.585	0.510
918.000	538.926	80.002	19.995	103.696	19.926	2.554	0.499
920.000	539.924	80.002	19.995	103.692	19.929	2.404	0.493
922.000	540.967	80.002	19.994	103.694	19.929	2.396	0.503
924.000	541.956	80.001	19.994	103.706	19.926	2.606	0.506
926.000	542.982	80.002	19.995	103.693	19.923	2.767	0.513
928.000	543.998	80.002	19.995	103.696	19.923	2.790	0.531
930.000	545.021	80.001	19.995	103.695	19.923	2.819	0.538
932.000	546.051	80.001	19.996	103.715	19.923	2.798	0.532
934.000	547.094	80.001	19.994	103.702	19.923	2.796	0.475
936.000	548.120	80.003	19.996	103.693	19.925	2.631	0.487
938.000	549.154	80.002	19.996	103.694	19.924	2.761	0.523
940.000	550.183	80.003	19.996	103.702	19.927	2.550	0.503
942.000	551.231	80.004	19.996	103.703	19.923	2.833	0.517
944.000	552.205	80.003	19.996	103.699	19.925	2.659	0.514
946.000	553.230	80.003	19.994	103.698	19.926	2.562	0.502
948.000	554.261	80.003	19.993	103.698	19.924	2.719	0.510
950.000	555.299	80.002	19.994	103.708	19.924	2.713	0.517
952.000	556.322	80.001	19.995	103.704	19.923	2.767	0.510
954.000	557.336	80.002	19.996	103.708	19.926	2.616	0.516
956.000	558.330	80.001	19.995	103.694	19.924	2.742	0.517
958.000	559.365	80.000	19.994	103.697	19.925	2.632	0.499
960.000	560.372	80.000	19.995	103.703	19.924	2.753	0.503
962.000	561.396	80.001	19.995	103.699	19.927	2.512	0.500
964.000	562.448	80.000	19.993	103.696	19.926	2.610	0.551
966.000	563.443	79.999	19.995	103.697	19.923	2.786	0.534
968.000	564.471	80.000	19.994	103.707	19.926	2.587	0.515
970.000	565.446	80.001	19.995	103.712	19.925	2.684	0.482
972.000	566.470	80.001	19.993	103.697	19.927	2.539	0.515
974.000	567.484	80.000	19.994	103.697	19.929	2.368	0.498
976.000	568.524	80.002	19.994	103.696	19.929	2.390	0.519
978.000	569.524	80.002	19.995	103.694	19.928	2.442	0.496
980.000	570.509	80.001	19.995	103.701	19.928	2.430	0.481
982.000	571.502	80.002	19.994	103.694	19.927	2.513	0.523
984.001	572.537	80.001	19.994	103.692	19.929	2.403	0.494
986.000	573.542	80.001	19.995	103.693	19.929	2.394	0.523
988.000	574.589	80.002	19.996	103.693	19.929	2.400	0.516
990.000	575.574	80.001	19.995	103.694	19.929	2.413	0.522
992.001	576.600	80.002	19.995	103.694	19.928	2.419	0.497
994.000	577.571	80.002	19.995	103.698	19.927	2.490	0.486
996.000	578.577	80.003	19.995	103.701	19.930	2.316	0.492
998.000	579.613	80.002	19.995	103.699	19.928	2.436	0.511
1000.000	580.620	80.003	19.995	103.696	19.930	2.305	0.503
1002.000	581.620	80.002	19.995	103.696	19.935	1.980	0.514
1004.000	582.589	80.002	19.996	103.696	19.933	2.079	0.493
1006.000	583.630	80.003	19.995	103.693	19.930	2.282	0.546
1008.000	584.584	80.002	19.995	103.692	19.927	2.515	0.490
1010.000	585.570	80.001	19.993	103.697	19.932	2.202	0.481
1012.000	586.612	80.002	19.995	103.698	19.931	2.266	0.509
1014.000	587.593	80.002	19.998	103.696	19.929	2.367	0.469
1016.000	588.630	80.002	19.997	103.712	19.930	2.283	0.529
1018.000	589.627	80.002	19.995	103.696	19.929	2.413	0.485
1020.001	590.639	80.003	19.995	103.695	19.932	2.136	0.499
1022.000	591.601	80.004	19.994	103.696	19.929	2.401	0.516
1024.000	592.647	80.002	19.995	103.692	19.929	2.347	0.493
1026.000	593.683	80.003	19.995	103.693	19.928	2.465	0.503
1028.001	594.663	80.002	19.996	103.697	19.930	2.281	0.493
1030.000	595.696	80.002	19.995	103.695	19.930	2.330	0.509
1032.000	596.717	80.002	19.995	103.694	19.932	2.148	0.503
1034.000	597.709	80.000	19.996	103.695	19.929	2.409	0.507
1036.000	598.769	80.001	19.996	103.695	19.929	2.392	0.526
1038.000	599.762	80.001	19.995	103.697	19.928	2.461	0.496
1040.000	600.775	80.001	19.994	103.695	19.933	2.109	0.499
1042.000	601.835	80.000	19.994	103.700	19.931	2.212	0.523
1044.000	602.829	80.000	19.994	103.694	19.926	2.585	0.497
1046.000	603.850	80.001	19.995	103.694	19.927	2.531	0.493
1048.000	604.837	80.001	19.994	103.693	19.926	2.614	0.517
1050.001	605.845	80.000	19.994	103.694	19.928	2.459	0.501
1052.001	606.856	80.000	19.995	103.697	19.926	2.573	0.511
1054.000	607.874	80.001	19.994	103.709	19.926	2.568	0.525
1056.001	608.914	80.002	19.994	103.704	19.927	2.535	0.483
1058.000	609.903	80.002	19.995	103.692	19.926	2.597	0.480
1060.001	610.936	80.001	19.994	103.691	19.927	2.548	0.515
1062.000	611.916	80.001	19.994	103.692	19.924	2.713	0.494
1064.000	613.013	80.002	19.995	103.696	19.925	2.636	0.530
1066.000	614.015	80.001	19.994	103.696	19.920	3.020	0.515
1068.000	615.052	80.002	19.994	103.693	19.924	2.718	0.545
1070.000	616.089	80.001	19.994	103.692	19.924	2.720	0.530
1072.001	617.095	80.001	19.994	103.692	19.924	2.750	0.500
1074.000	618.101	80.001	19.996	103.697	19.923	2.763	0.497
1076.001	619.114	80.003	19.995	103.704	19.924	2.749	0.500
1078.000	620.133	80.002	19.995	103.695	19.926	2.604	0.517
1080.000	621.145	80.003	19.994	103.696	19.927	2.549	0.486
1082.000	622.142	80.003	19.994	103.695	19.926	2.622	0.497
1084.000	623.160	80.002	19.995	103.705	19.924	2.709	0.502
1086.000	624.227	80.001	19.995	103.694	19.926	2.583	0.536
1088.000	625.233	80.002	19.994	103.697	19.924	2.752	0.515
1090.000	626.219	80.002	19.997	103.696	19.924	2.711	0.511
1092.001	627.233	80.000	19.996	103.707	19.926	2.589	0.496
1094.001	628.275	80.002	19.995	103.700	19.926	2.612	0.534
1096.000	629.274	80.002	19.996	103.702	19.926	2.608	0.514
1098.000	630.313	80.002	19.995	103.711	19.927	2.504	0.501
1100.000	631.332	80.002	19.994	103.697	19.927	2.488	0.501
1102.001	632.367	80.004	19.994	103.698	19.927	2.537	0.514
1104.001	633.356	80.001	19.994	103.696	19.926	2.605	0.471
1106.000	634.363	80.003	19.995	103.697	19.926	2.557	0.511
1108.000	635.388	80.003	19.994	103.706	19.924	2.715	0.498
1110.000	636.387	80.000	19.995	103.707	19.925	2.635	0.500
1112.001	637.427	80.000	19.995	103.696	19.926	2.622	0.511
1114.000	638.412	79.999	19.997	103.719	19.925	2.640	0.520
1116.000	639.472	80.000	19.996	103.727	19.926	2.576	0.497
1118.000	640.456	80.001	19.996	103.726	19.925	2.634	0.491
1120.000	641.465	80.000	19.995	103.709	19.923	2.812	0.500
1122.001	642.492	80.001	19.996	103.699	19.921	2.959	0.522
1124.001	643.516	80.001	19.996	103.712	19.917	3.205	0.527
1126.000	644.484	80.001	19.995	103.711	19.919	3.071	0.510
1128.000	645.486	80.000	19.994	103.706	19.921	2.955	0.500
1130.000	646.523	80.000	19.993	103.721	19.926	2.601	0.513
1132.000	647.568	80.000	19.993	103.721	19.922	2.856	0.521
1134.001	648.509	80.000	19.997	103.713	19.923	2.826	0.472
1136.000	649.537	80.001	19.995	103.727	19.926	2.609	0.524
1138.000	650.546	79.999	19.994	103.727	19.924	2.708	0.520
1140.000	651.600	80.001	19.995	103.724	19.926	2.609	0.527
1142.000	652.642	80.000	19.994	103.712	19.924	2.702	0.530
1144.000	653.653	79.999	19.994	103.715	19.922	2.874	0.511
1146.000	654.701	80.000	19.995	103.733	19.924	2.739	0.517
1148.000	655.745	80.000	19.996	103.733	19.922	2.897	0.517
1150.001	656.781	80.001	19.995	103.733	19.927	2.528	0.539
1152.001	657.853	80.001	19.994	103.732	19.922	2.847	0.550
1154.001	658.908	80.002	19.995	103.734	19.926	2.602	0.527
1156.000	659.943	80.001	19.995	103.736	19.920	2.998	0.536
1158.000	661.050	80.001	19.995	103.734	19.920	3.006	0.560
1160.000	662.092	80.003	19.994	103.736	19.921	2.917	0.545
1162.000	663.156	80.002	19.993	103.737	19.919	3.104	0.534
1164.000	664.259	80.002	19.994	103.734	19.921	2.956	0.554
1166.001	665.343	80.002	19.994	103.739	19.919	3.110	0.543
1168.001	666.411	80.001	19.993	103.735	19.918	3.168	0.544
1170.001	667.521	80.001	19.996	103.735	19.920	3.023	0.561
1172.000	668.541	80.003	19.996	103.736	19.918	3.143	0.528
1174.000	669.644	80.001	19.995	103.735	19.917	3.232	0.547
1176.000	670.732	80.001	19.994	103.737	19.918	3.153	0.538
1178.000	671.768	80.002	19.996	103.740	19.915	3.327	0.515
1180.000	672.896	80.004	19.995	103.739	19.917	3.215	0.519
1182.001	673.988	80.003	19.997	103.728	19.914	3.430	0.569
1184.000	675.117	80.003	19.995	103.738	19.913	3.486	0.582
1186.000	676.160	80.004	19.995	103.737	19.911	3.646	0.575
1188.000	677.250	80.003	19.994	103.739	19.911	3.604	0.566
1190.000	678.295	80.002	19.994	103.735	19.915	3.354	0.553
1192.000	679.377	80.000	19.994	103.740	19.917	3.198	0.547
1194.000	680.444	80.001	19.996	103.750	19.914	3.436	0.539
1196.000	681.498	80.000	19.996	103.745	19.913	3.509	0.537
1198.001	682.561	80.002	19.996	103.752	19.912	3.570	0.516
1200.000	683.615	80.001	19.996	103.745	19.914	3.407	0.515
1202.000	684.683	80.001	19.995	103.762	19.911	3.668	0.552
1204.000	685.818	80.001	19.995	103.763	19.908	3.838	0.587
1206.001	687.207	80.000	19.995	103.750	19.907	3.908	0.566
1208.000	687.966	80.000	19.996	103.758	19.908	3.837	0.309
1210.001	688.995	80.000	19.995	103.767	19.906	3.966	0.512
1212.000	690.093	80.001	19.996	103.760	19.910	3.724	0.544
1214.000	691.189	80.001	19.995	103.751	19.909	3.800	0.549
1216.001	692.173	79.999	19.994	103.761	19.907	3.893	0.518
1218.000	693.274	80.000	19.996	103.766	19.907	3.891	0.543
1220.001	694.284	80.000	19.994	103.765	19.904	4.121	0.505
1222.000	695.369	80.001	19.993	103.769	19.907	3.923	0.544
1224.000	696.460	79.999	19.994	103.760	19.910	3.724	0.513
1226.000	697.467	80.000	19.994	103.767	19.907	3.894	0.523
1228.000	698.554	80.001	19.994	103.767	19.910	3.701	0.547
1230.001	699.528	80.002	19.995	103.754	19.906	3.968	0.463
1232.000	700.588	80.001	19.996	103.766	19.911	3.612	0.516
1234.000	701.724	80.002	19.995	103.748	19.910	3.685	0.553
1236.000	702.730	80.002	19.995	103.753	19.906	3.952	0.545
1238.000	703.768	80.002	19.995	103.763	19.908	3.850	0.528
1240.000	704.812	80.003	19.995	103.760	19.908	3.814	0.528
1242.000	705.850	80.004	19.994	103.762	19.909	3.749	0.551
1244.000	706.854	80.001	19.994	103.751	19.904	4.103	0.511
1246.001	707.919	80.003	19.996	103.758	19.906	3.965	0.556
1248.000	708.974	80.003	19.994	103.751	19.910	3.723	0.496
1250.000	710.006	80.001	19.994	103.753	19.906	3.965	0.508
1252.001	711.068	80.002	19.995	103.740	19.910	3.698	0.512
1254.000	712.152	80.003	19.996	103.759	19.906	3.957	0.587
1256.000	713.213	80.002	19.995	103.740	19.912	3.575	0.528
1258.000	714.271	80.004	19.994	103.744	19.910	3.709	0.536
1260.000	715.356	80.005	19.994	103.732	19.912	3.585	0.570
1262.000	716.428	80.005	19.994	103.730	19.910	3.724	0.540
1264.000	717.543	80.004	19.993	103.730	19.909	3.759	0.544
1266.000	718.640	80.004	19.994	103.710	19.910	3.682	0.563
1268.000	719.702	80.003	19.995	103.707	19.912	3.577	0.539
1270.000	720.881	80.001	19.995	103.703	19.907	3.890	0.541
1272.001	721.910	80.001	19.995	103.701	19.912	3.563	0.543
1274.000	722.970	80.000	19.994	103.699	19.916	3.273	0.529
1276.001	724.007	80.000	19.995	103.699	19.913	3.515	0.498
1278.001	725.091	80.000	19.995	103.699	19.916	3.289	0.549
1280.000	726.150	80.001	19.994	103.695	19.914	3.397	0.543
1282.000	727.224	80.001	19.994	103.698	19.911	3.625	0.536
1284.001	728.280	80.001	19.994	103.696	19.914	3.426	0.544
1286.001	729.328	80.000	19.995	103.699	19.909	3.749	0.571
1288.000	730.417	80.001	19.993	103.708	19.912	3.581	0.547
1290.000	731.470	79.999	19.994	103.699	19.917	3.248	0.511
1292.000	732.549	80.001	19.994	103.694	19.909	3.739	0.544
1294.000	733.595	80.000	19.995	103.695	19.908	3.820	0.521
1296.000	734.606	80.000	19.996	103.693	19.913	3.522	0.496
1298.000	735.692	80.000	19.996	103.689	19.913	3.523	0.520
1300.000	736.718	80.000	19.995	103.690	19.914	3.453	0.524
1302.001	737.772	80.000	19.996	103.689	19.911	3.662	0.509
1304.000	738.835	79.999	19.997	103.688	19.913	3.469	0.541
1306.000	739.870	80.000	19.995	103.687	19.915	3.389	0.504
1308.000	740.938	79.999	19.995	103.688	19.913	3.463	0.522
1310.000	741.973	80.001	19.995	103.689	19.912	3.553	0.520
1312.000	743.037	80.002	19.994	103.690	19.914	3.408	0.534
1313.000	743.532	80.002	19.994	103.689	19.913	3.478	0.512