File: 01_Data/EPDM_Membrane/MCC/EPDM_Membrane_MCC_30K_min_211206_R3.txt
Sample ID:	C:\MCC\MCC Cal\Test\EPDM_Membrane_MCC_30K_min_211206_R3.txt
Sample Weight (mg):	4.2
Heating Rate (C/s):	0.5
Combustor Temp (C):	900
N2 Flow Rate (cc/min):	80
O2 Flow Rate (cc/min):	20
Calibration File:	C:\MCC\MCC Cal\Coeff1 JN10440_30_210304.txt.txt
T Correction Coefficients:	0	1.024463	0
Time Shift (s):	14
*
Time (s)	Temperature (C)	N2 flow rate (cc/min)	O2 flow rate (cc/min)	Flow Rate (cc/min)	Oxygen (%)	HRR (W/g)	Heating rate (C/s)
0.000	110.862	80.000	19.996	103.042	20.018	-0.343	-0.012
2.000	110.878	80.001	19.994	103.040	20.015	-0.137	0.017
4.000	110.900	80.001	19.995	103.030	20.017	-0.282	0.002
6.000	110.889	80.000	19.995	103.032	20.016	-0.166	0.011
8.000	110.850	80.002	19.993	103.054	20.012	0.158	-0.023
10.000	110.900	80.001	19.993	103.075	20.010	0.303	0.043
12.000	110.880	80.001	19.995	103.131	20.009	0.337	-0.003
14.000	110.959	80.000	19.996	103.162	19.996	1.372	0.039
16.000	110.992	80.000	19.995	103.199	19.996	1.389	0.020
18.000	111.131	80.001	19.996	103.179	19.994	1.487	0.052
20.000	111.249	80.001	19.996	103.158	19.993	1.611	0.051
22.000	111.347	80.000	19.997	103.143	19.993	1.596	0.024
24.000	111.537	80.001	19.995	103.166	19.989	1.865	0.074
26.000	111.660	80.002	19.994	103.186	19.989	1.902	0.088
28.000	111.893	80.002	19.995	103.174	19.989	1.913	0.101
30.000	112.044	80.002	19.995	103.169	19.995	1.448	0.095
32.000	112.256	80.001	19.995	103.158	19.993	1.610	0.103
34.000	112.485	80.002	19.994	103.182	19.991	1.721	0.100
36.000	112.749	80.000	19.995	103.180	19.988	1.986	0.125
38.000	112.932	79.999	19.994	103.210	19.987	2.067	0.127
40.000	113.221	79.998	19.994	103.226	19.985	2.183	0.184
42.001	113.553	80.000	19.995	103.227	19.983	2.379	0.165
44.001	113.892	79.998	19.996	103.226	19.983	2.390	0.197
46.000	114.204	79.999	19.997	103.226	19.980	2.569	0.163
48.000	114.562	79.998	19.996	103.242	19.979	2.625	0.174
50.000	114.911	79.998	19.995	103.259	19.976	2.925	0.196
52.000	115.329	79.998	19.995	103.263	19.977	2.845	0.219
54.000	115.761	79.999	19.996	103.253	19.977	2.845	0.230
56.000	116.259	79.999	19.997	103.256	19.974	3.070	0.252
58.001	116.696	79.998	19.996	103.269	19.973	3.141	0.226
60.001	117.183	79.999	19.998	103.291	19.967	3.578	0.225
62.000	117.744	80.000	19.996	103.281	19.974	3.038	0.251
64.000	118.255	80.000	19.995	103.270	19.971	3.288	0.253
66.001	118.798	79.999	19.995	103.270	19.969	3.406	0.284
68.000	119.412	80.001	19.995	103.295	19.971	3.260	0.311
70.000	119.953	80.000	19.995	103.297	19.968	3.521	0.278
72.000	120.588	80.000	19.995	103.281	19.969	3.443	0.333
74.000	121.236	79.999	19.996	103.287	19.971	3.282	0.317
76.000	121.896	79.999	19.995	103.296	19.970	3.363	0.339
78.001	122.541	79.998	19.995	103.298	19.967	3.607	0.317
80.001	123.234	79.999	19.995	103.289	19.963	3.910	0.328
82.000	124.003	80.000	19.995	103.309	19.965	3.750	0.382
84.000	124.714	80.000	19.996	103.319	19.963	3.914	0.391
86.000	125.487	80.001	19.995	103.305	19.965	3.718	0.375
88.000	126.254	80.000	19.995	103.308	19.965	3.710	0.382
90.000	127.009	80.000	19.994	103.302	19.964	3.835	0.363
92.000	127.801	80.000	19.995	103.301	19.966	3.686	0.359
94.000	128.577	80.000	19.993	103.302	19.963	3.884	0.392
96.000	129.396	80.000	19.994	103.307	19.970	3.329	0.407
98.000	130.219	80.000	19.994	103.322	19.966	3.645	0.403
100.000	131.039	79.998	19.994	103.303	19.965	3.713	0.427
102.000	131.915	79.999	19.996	103.298	19.967	3.607	0.446
104.000	132.732	80.000	19.994	103.298	19.970	3.342	0.438
106.000	133.575	80.000	19.994	103.302	19.967	3.564	0.401
108.000	134.465	80.001	19.994	103.300	19.970	3.369	0.426
110.000	135.392	80.001	19.995	103.299	19.966	3.651	0.439
112.000	136.284	80.000	19.996	103.303	19.967	3.570	0.437
114.000	137.198	80.001	19.995	103.301	19.965	3.771	0.472
116.000	138.076	80.000	19.995	103.304	19.962	3.946	0.425
118.000	139.004	79.999	19.994	103.301	19.965	3.750	0.467
120.000	139.911	79.999	19.995	103.300	19.963	3.893	0.467
122.000	140.849	79.998	19.995	103.303	19.965	3.716	0.455
124.000	141.763	79.998	19.995	103.303	19.962	3.985	0.487
126.000	142.682	79.999	19.995	103.304	19.962	3.936	0.447
128.000	143.646	79.999	19.995	103.303	19.965	3.741	0.498
130.000	144.590	80.001	19.995	103.302	19.968	3.538	0.482
132.000	145.527	80.000	19.995	103.302	19.963	3.894	0.465
134.000	146.535	80.000	19.995	103.304	19.966	3.630	0.513
136.000	147.450	79.999	19.995	103.303	19.967	3.615	0.481
138.000	148.455	79.999	19.994	103.302	19.969	3.452	0.521
140.000	149.450	80.000	19.995	103.296	19.968	3.467	0.479
142.000	150.424	79.999	19.996	103.285	19.966	3.639	0.470
144.000	151.433	79.999	19.995	103.289	19.963	3.924	0.503
146.000	152.384	79.999	19.997	103.290	19.962	3.986	0.518
148.000	153.337	79.998	19.995	103.294	19.964	3.829	0.528
150.000	154.293	79.999	19.996	103.292	19.964	3.837	0.467
152.000	155.300	80.000	19.998	103.298	19.959	4.161	0.483
154.000	156.314	79.998	19.997	103.292	19.961	4.030	0.504
156.000	157.257	79.999	19.994	103.272	19.959	4.214	0.476
158.000	158.248	80.000	19.996	103.295	19.962	3.976	0.496
160.000	159.257	80.000	19.996	103.295	19.957	4.330	0.490
162.000	160.199	80.000	19.995	103.278	19.958	4.262	0.471
164.000	161.247	79.999	19.995	103.293	19.959	4.203	0.530
166.000	162.204	80.001	19.995	103.303	19.960	4.125	0.487
168.000	163.210	80.000	19.994	103.305	19.954	4.595	0.482
170.000	164.200	79.999	19.994	103.291	19.960	4.093	0.478
172.000	165.202	80.000	19.995	103.285	19.959	4.197	0.516
174.000	166.207	80.000	19.995	103.294	19.956	4.423	0.489
176.000	167.155	79.999	19.995	103.287	19.958	4.247	0.485
178.000	168.190	79.999	19.993	103.278	19.957	4.324	0.482
180.000	169.195	80.000	19.996	103.277	19.958	4.247	0.484
182.000	170.218	80.001	19.994	103.275	19.953	4.637	0.503
184.000	171.203	80.000	19.994	103.271	19.954	4.549	0.484
186.000	172.208	80.001	19.995	103.270	19.954	4.605	0.495
188.000	173.197	80.001	19.994	103.293	19.951	4.821	0.486
190.000	174.188	80.001	19.995	103.292	19.949	4.957	0.474
192.000	175.181	80.003	19.994	103.275	19.951	4.782	0.530
194.000	176.194	80.002	19.995	103.262	19.950	4.915	0.496
196.000	177.143	80.002	19.995	103.263	19.948	5.000	0.484
198.000	178.139	80.000	19.994	103.263	19.947	5.117	0.480
200.000	179.161	80.001	19.994	103.263	19.945	5.267	0.510
202.000	180.117	80.000	19.996	103.261	19.944	5.363	0.485
204.000	181.124	80.001	19.996	103.267	19.941	5.572	0.510
206.000	182.161	80.001	19.995	103.266	19.942	5.474	0.511
208.000	183.159	79.999	19.996	103.264	19.941	5.561	0.506
210.000	184.144	80.000	19.995	103.260	19.939	5.699	0.526
212.000	185.133	80.000	19.996	103.261	19.940	5.648	0.484
214.000	186.176	79.999	19.996	103.262	19.937	5.877	0.492
216.000	187.171	79.999	19.996	103.263	19.934	6.144	0.523
218.000	188.147	79.999	19.995	103.262	19.933	6.168	0.490
220.000	189.145	80.000	19.995	103.256	19.933	6.202	0.485
222.000	190.154	80.001	19.995	103.243	19.932	6.257	0.516
224.000	191.157	80.000	19.997	103.254	19.929	6.487	0.529
226.001	192.111	79.999	19.997	103.252	19.928	6.599	0.485
228.000	193.149	79.998	19.995	103.257	19.926	6.699	0.515
230.000	194.111	79.999	19.996	103.260	19.921	7.075	0.502
232.000	195.102	79.999	19.996	103.256	19.923	6.971	0.506
234.000	196.058	79.999	19.996	103.246	19.923	6.974	0.482
236.000	197.015	79.998	19.998	103.253	19.918	7.348	0.463
238.000	198.041	79.999	19.996	103.252	19.921	7.138	0.499
240.000	199.065	79.999	19.997	103.243	19.916	7.496	0.512
242.000	200.053	79.999	19.997	103.257	19.911	7.862	0.511
244.000	201.036	80.000	19.996	103.254	19.908	8.105	0.498
246.000	202.022	80.000	19.996	103.244	19.910	7.972	0.491
248.000	203.062	80.001	19.996	103.259	19.907	8.218	0.504
250.000	204.027	80.000	19.994	103.263	19.908	8.131	0.522
252.000	205.013	80.000	19.995	103.244	19.900	8.698	0.487
254.000	205.993	80.001	19.994	103.236	19.898	8.839	0.491
256.000	207.003	79.999	19.996	103.240	19.897	8.950	0.493
258.000	207.983	80.000	19.994	103.256	19.892	9.346	0.519
260.000	208.989	80.001	19.995	103.247	19.889	9.533	0.495
262.000	209.988	80.000	19.995	103.232	19.891	9.392	0.543
264.000	210.931	80.000	19.996	103.230	19.890	9.504	0.517
266.000	211.897	80.000	19.995	103.227	19.889	9.568	0.456
268.000	212.893	80.001	19.996	103.224	19.886	9.805	0.477
270.000	213.882	80.001	19.995	103.232	19.880	10.229	0.492
272.000	214.903	80.002	19.996	103.224	19.886	9.809	0.493
274.000	215.852	80.002	19.995	103.228	19.881	10.207	0.505
276.000	216.843	80.004	19.996	103.233	19.882	10.091	0.519
278.000	217.856	80.003	19.994	103.228	19.880	10.268	0.522
280.000	218.862	80.003	19.994	103.250	19.879	10.346	0.499
282.000	219.828	80.002	19.996	103.241	19.877	10.496	0.508
284.000	220.849	80.001	19.996	103.230	19.875	10.612	0.496
286.000	221.891	80.000	19.997	103.243	19.873	10.800	0.517
288.000	222.858	80.000	19.996	103.237	19.874	10.745	0.478
290.001	223.859	79.999	19.996	103.229	19.872	10.834	0.495
292.000	224.829	80.000	19.995	103.226	19.865	11.379	0.508
294.000	225.833	79.998	19.995	103.232	19.869	11.106	0.499
296.000	226.876	79.999	19.995	103.239	19.868	11.168	0.487
298.000	227.902	79.997	19.995	103.231	19.865	11.401	0.537
300.000	228.910	79.999	19.997	103.246	19.861	11.694	0.504
302.000	229.947	79.998	19.995	103.247	19.862	11.619	0.535
304.000	230.927	79.998	19.996	103.237	19.860	11.749	0.491
306.000	231.940	79.999	19.995	103.248	19.861	11.696	0.497
308.000	232.951	80.000	19.996	103.232	19.860	11.762	0.534
310.000	233.968	79.998	19.996	103.232	19.856	12.074	0.530
312.000	234.970	79.997	19.995	103.228	19.855	12.198	0.522
314.000	235.951	79.997	19.996	103.227	19.849	12.618	0.492
316.000	236.944	79.999	19.995	103.224	19.848	12.680	0.513
318.000	237.932	79.998	19.996	103.231	19.853	12.340	0.504
320.000	238.943	79.998	19.996	103.229	19.848	12.681	0.489
322.000	239.938	79.998	19.995	103.228	19.846	12.887	0.465
324.000	240.906	79.999	19.996	103.226	19.848	12.714	0.481
326.000	241.880	79.998	19.996	103.223	19.847	12.798	0.488
328.000	242.893	80.000	19.997	103.225	19.843	13.058	0.489
330.000	243.896	80.000	19.996	103.221	19.842	13.167	0.484
332.000	244.953	79.999	19.996	103.222	19.842	13.194	0.520
334.000	245.899	80.000	19.997	103.223	19.834	13.764	0.495
336.000	246.930	80.001	19.996	103.224	19.835	13.728	0.530
338.000	247.920	79.999	19.996	103.227	19.831	13.986	0.497
340.000	248.883	80.000	19.995	103.226	19.833	13.847	0.478
342.000	249.957	80.001	19.996	103.226	19.831	14.031	0.536
344.000	250.973	80.000	19.995	103.223	19.831	14.014	0.541
346.001	251.931	80.000	19.995	103.224	19.827	14.328	0.505
348.000	252.890	80.002	19.995	103.225	19.825	14.473	0.454
350.000	253.893	80.001	19.996	103.223	19.823	14.608	0.456
352.000	254.879	80.001	19.995	103.225	19.824	14.561	0.496
354.000	255.862	80.000	19.996	103.224	19.820	14.853	0.479
356.000	256.823	80.002	19.995	103.224	19.821	14.802	0.487
358.000	257.822	80.002	19.994	103.225	19.821	14.811	0.470
360.000	258.826	80.003	19.994	103.225	19.821	14.769	0.470
362.000	259.847	80.002	19.995	103.228	19.815	15.267	0.485
364.000	260.821	80.001	19.994	103.229	19.818	15.006	0.472
366.000	261.838	80.000	19.994	103.227	19.819	14.947	0.517
368.000	262.839	79.998	19.995	103.226	19.816	15.138	0.505
370.000	263.847	80.001	19.996	103.225	19.815	15.254	0.528
372.000	264.835	79.999	19.995	103.210	19.817	15.083	0.504
374.001	265.864	80.000	19.995	103.209	19.812	15.498	0.518
376.000	266.837	80.000	19.994	103.221	19.810	15.583	0.489
378.000	267.842	79.999	19.994	103.225	19.812	15.474	0.531
380.000	268.830	79.999	19.994	103.229	19.814	15.345	0.519
382.000	269.840	80.000	19.995	103.219	19.806	15.955	0.510
384.000	270.832	80.000	19.995	103.226	19.813	15.367	0.508
386.000	271.904	80.000	19.995	103.222	19.811	15.528	0.520
388.000	272.877	80.000	19.995	103.219	19.812	15.433	0.501
390.000	273.903	80.000	19.995	103.228	19.810	15.606	0.488
392.000	274.913	80.000	19.995	103.226	19.807	15.869	0.496
394.000	275.930	79.999	19.995	103.215	19.805	15.983	0.513
396.000	276.893	80.000	19.994	103.202	19.801	16.301	0.502
398.000	277.956	80.000	19.996	103.207	19.803	16.149	0.533
400.000	278.958	79.998	19.995	103.203	19.804	16.059	0.519
402.000	279.938	79.999	19.996	103.199	19.801	16.300	0.503
404.000	280.942	80.000	19.996	103.218	19.802	16.264	0.498
406.000	281.975	79.999	19.996	103.219	19.801	16.306	0.498
408.000	282.919	80.000	19.995	103.224	19.796	16.666	0.482
410.000	283.958	80.000	19.994	103.222	19.800	16.404	0.503
412.000	284.914	80.000	19.995	103.219	19.802	16.240	0.471
414.000	285.914	80.003	19.997	103.219	19.799	16.495	0.539
416.000	286.935	80.002	19.996	103.216	19.796	16.673	0.510
418.000	287.967	80.001	19.996	103.198	19.795	16.751	0.538
420.000	288.917	80.000	19.996	103.210	19.794	16.830	0.490
422.000	289.904	80.001	19.996	103.219	19.793	16.902	0.454
424.000	290.976	79.999	19.998	103.220	19.796	16.702	0.518
426.000	291.971	79.999	19.996	103.216	19.795	16.764	0.517
428.000	292.985	79.999	19.995	103.224	19.796	16.702	0.487
430.000	293.968	79.998	19.995	103.224	19.796	16.691	0.487
432.000	294.978	80.000	19.996	103.222	19.791	17.076	0.493
434.000	295.984	80.001	19.997	103.224	19.795	16.761	0.509
436.000	296.962	79.999	19.995	103.222	19.797	16.622	0.498
438.000	298.015	80.001	19.996	103.202	19.795	16.789	0.524
440.000	298.996	80.002	19.995	103.220	19.797	16.636	0.497
442.000	300.030	80.002	19.995	103.205	19.796	16.720	0.526
444.000	301.017	80.002	19.994	103.216	19.800	16.380	0.504
446.000	302.007	80.001	19.994	103.203	19.792	16.999	0.508
448.000	303.011	80.003	19.995	103.200	19.793	16.956	0.519
450.000	304.065	80.000	19.995	103.202	19.788	17.283	0.508
452.000	305.006	80.000	19.996	103.219	19.792	17.028	0.492
454.000	306.091	80.000	19.995	103.218	19.786	17.421	0.546
456.000	307.093	80.000	19.995	103.198	19.787	17.371	0.529
458.000	308.102	80.001	19.995	103.199	19.785	17.549	0.506
460.000	309.072	79.999	19.996	103.212	19.785	17.522	0.497
462.000	310.086	80.000	19.996	103.213	19.780	17.935	0.490
464.000	311.087	80.000	19.996	103.200	19.777	18.107	0.496
466.000	312.150	80.000	19.995	103.196	19.777	18.160	0.535
468.000	313.167	79.999	19.996	103.185	19.775	18.315	0.513
470.000	314.157	80.001	19.995	103.185	19.766	19.015	0.509
472.000	315.133	80.000	19.995	103.195	19.768	18.860	0.468
474.000	316.211	80.000	19.994	103.202	19.762	19.272	0.506
476.000	317.182	80.000	19.994	103.192	19.756	19.778	0.501
478.000	318.218	79.999	19.994	103.203	19.750	20.242	0.522
480.000	319.253	80.000	19.995	103.213	19.746	20.511	0.518
482.000	320.222	79.999	19.995	103.203	19.740	21.010	0.496
484.000	321.218	79.997	19.996	103.184	19.734	21.454	0.515
486.000	322.241	79.999	19.995	103.185	19.729	21.847	0.484
488.000	323.260	80.000	19.996	103.189	19.723	22.294	0.503
490.000	324.234	80.000	19.996	103.209	19.718	22.683	0.500
492.000	325.227	80.001	19.996	103.191	19.712	23.083	0.513
494.000	326.224	80.001	19.996	103.204	19.705	23.661	0.500
496.000	327.234	80.002	19.995	103.227	19.695	24.429	0.504
498.000	328.264	80.001	19.995	103.209	19.690	24.772	0.482
500.000	329.275	80.001	19.995	103.179	19.676	25.880	0.519
502.000	330.299	80.001	19.994	103.170	19.669	26.451	0.517
504.000	331.246	80.000	19.994	103.189	19.660	27.102	0.488
506.000	332.318	80.000	19.996	103.197	19.651	27.771	0.511
508.000	333.315	80.000	19.995	103.197	19.637	28.878	0.510
510.000	334.354	80.000	19.994	103.188	19.625	29.816	0.522
512.000	335.367	80.000	19.995	103.184	19.613	30.697	0.512
514.000	336.327	79.999	19.995	103.177	19.597	31.944	0.471
516.000	337.373	80.000	19.996	103.180	19.583	32.993	0.507
518.000	338.371	80.001	19.996	103.183	19.567	34.208	0.498
520.000	339.427	80.002	19.996	103.184	19.552	35.419	0.528
522.000	340.425	80.002	19.996	103.181	19.541	36.239	0.482
524.000	341.432	80.003	19.996	103.190	19.518	37.992	0.507
526.000	342.456	80.003	19.996	103.197	19.501	39.306	0.500
528.000	343.405	80.002	19.995	103.174	19.480	40.864	0.506
530.000	344.434	80.002	19.995	103.169	19.455	42.791	0.497
532.000	345.403	80.001	19.994	103.179	19.434	44.441	0.509
534.000	346.401	80.001	19.996	103.162	19.407	46.508	0.504
536.000	347.432	80.001	19.995	103.148	19.382	48.379	0.495
538.000	348.416	80.001	19.995	103.146	19.356	50.415	0.514
540.000	349.460	79.999	19.995	103.161	19.328	52.518	0.516
542.000	350.487	79.999	19.995	103.163	19.305	54.344	0.513
544.000	351.446	80.000	19.996	103.150	19.275	56.612	0.501
546.000	352.465	80.001	19.996	103.153	19.244	59.002	0.483
548.000	353.462	80.000	19.997	103.186	19.215	61.170	0.492
550.000	354.496	80.001	19.995	103.153	19.179	63.954	0.519
552.000	355.482	80.001	19.995	103.154	19.149	66.227	0.508
554.000	356.507	80.000	19.995	103.179	19.109	69.285	0.489
556.000	357.541	80.002	19.995	103.155	19.083	71.317	0.528
558.000	358.560	80.001	19.995	103.151	19.041	74.525	0.529
560.000	359.572	80.001	19.996	103.143	19.006	77.215	0.523
562.000	360.584	80.001	19.995	103.131	18.969	80.007	0.525
564.000	361.599	80.000	19.995	103.142	18.933	82.739	0.510
566.000	362.591	79.997	19.995	103.138	18.890	86.057	0.493
568.000	363.578	79.999	19.995	103.134	18.855	88.714	0.519
570.000	364.635	80.001	19.994	103.128	18.814	91.894	0.526
572.000	365.627	80.000	19.994	103.124	18.777	94.669	0.484
574.000	366.649	80.001	19.994	103.114	18.746	97.043	0.526
576.000	367.685	80.001	19.994	103.113	18.708	99.989	0.535
578.000	368.688	80.001	19.996	103.110	18.675	102.465	0.509
580.000	369.690	80.002	19.995	103.111	18.645	104.842	0.516
582.000	370.696	80.001	19.995	103.100	18.618	106.874	0.490
584.000	371.685	80.002	19.995	103.086	18.585	109.382	0.492
586.000	372.686	80.002	19.996	103.089	18.562	111.178	0.519
588.001	373.775	79.999	19.996	103.076	18.536	113.167	0.524
590.000	374.766	80.001	19.995	103.086	18.515	114.761	0.507
592.000	375.800	80.001	19.996	103.090	18.500	115.915	0.501
594.000	376.835	80.001	19.995	103.091	18.484	117.145	0.548
596.000	377.850	80.003	19.995	103.094	18.472	118.071	0.516
598.000	378.818	80.002	19.994	103.095	18.461	118.904	0.485
600.000	379.854	80.002	19.995	103.094	18.453	119.499	0.535
602.000	380.892	80.003	19.995	103.077	18.452	119.569	0.528
604.000	381.929	80.001	19.997	103.075	18.453	119.512	0.536
606.000	382.925	80.002	19.996	103.067	18.456	119.306	0.515
608.000	383.931	80.004	19.996	103.077	18.465	118.570	0.510
610.000	384.951	80.001	19.995	103.072	18.476	117.766	0.526
612.000	385.943	80.000	19.995	103.080	18.493	116.443	0.482
614.000	386.939	80.000	19.997	103.088	18.512	114.961	0.499
616.000	387.983	80.000	19.996	103.079	18.531	113.545	0.502
618.000	389.020	79.999	19.995	103.076	18.556	111.615	0.506
620.001	390.000	79.998	19.996	103.079	18.579	109.852	0.506
622.000	391.052	79.999	19.996	103.072	18.606	107.771	0.518
624.000	392.041	79.999	19.996	103.077	18.634	105.638	0.494
626.000	393.104	79.998	19.995	103.077	18.660	103.637	0.536
628.000	394.122	80.000	19.995	103.082	18.695	101.006	0.523
630.000	395.189	79.998	19.995	103.075	18.724	98.725	0.555
632.000	396.214	80.001	19.995	103.079	18.751	96.740	0.541
634.000	397.235	80.001	19.994	103.086	18.786	94.068	0.514
636.000	398.269	80.001	19.994	103.082	18.810	92.161	0.531
638.000	399.250	80.001	19.995	103.091	18.846	89.406	0.477
640.000	400.311	80.000	19.995	103.087	18.872	87.475	0.506
642.000	401.339	79.999	19.995	103.101	18.903	85.108	0.504
644.000	402.367	80.000	19.994	103.110	18.932	82.890	0.518
646.000	403.373	80.000	19.995	103.107	18.960	80.731	0.506
648.000	404.393	79.999	19.996	103.107	18.989	78.486	0.509
650.000	405.354	79.998	19.995	103.108	19.010	76.895	0.481
652.000	406.414	80.000	19.995	103.108	19.037	74.809	0.510
654.000	407.424	79.999	19.995	103.111	19.057	73.248	0.500
656.000	408.467	80.000	19.996	103.117	19.076	71.854	0.520
658.000	409.448	80.000	19.993	103.113	19.096	70.323	0.495
660.000	410.466	80.002	19.995	103.125	19.115	68.823	0.518
662.000	411.523	80.003	19.995	103.122	19.132	67.524	0.516
664.001	412.518	80.002	19.995	103.110	19.148	66.279	0.514
666.000	413.511	80.001	19.995	103.119	19.162	65.222	0.511
668.000	414.506	80.001	19.995	103.118	19.172	64.438	0.502
670.000	415.494	80.002	19.995	103.107	19.188	63.237	0.508
672.001	416.530	80.001	19.996	103.113	19.204	62.038	0.488
674.000	417.529	79.999	19.996	103.110	19.218	60.979	0.510
676.000	418.546	80.001	19.996	103.118	19.228	60.172	0.490
678.000	419.546	80.001	19.997	103.118	19.236	59.582	0.515
680.000	420.545	80.002	19.995	103.117	19.246	58.826	0.503
682.000	421.517	80.002	19.997	103.113	19.261	57.661	0.493
684.000	422.520	80.002	19.995	103.114	19.267	57.208	0.497
686.000	423.539	80.003	19.995	103.121	19.280	56.174	0.490
688.000	424.561	80.003	19.995	103.132	19.287	55.651	0.498
690.000	425.567	80.004	19.996	103.127	19.299	54.716	0.531
692.000	426.573	80.001	19.995	103.133	19.306	54.229	0.492
694.000	427.577	80.002	19.995	103.138	19.318	53.306	0.513
696.000	428.620	79.999	19.996	103.114	19.324	52.835	0.531
698.000	429.599	80.000	19.996	103.128	19.336	51.887	0.515
700.000	430.603	80.000	19.995	103.130	19.346	51.116	0.518
702.000	431.638	79.999	19.996	103.125	19.356	50.368	0.535
704.000	432.679	79.998	19.996	103.134	19.366	49.623	0.499
706.000	433.676	79.998	19.996	103.135	19.381	48.464	0.508
708.000	434.699	80.000	19.996	103.143	19.390	47.798	0.509
710.000	435.701	79.999	19.996	103.136	19.402	46.881	0.493
712.000	436.739	80.000	19.996	103.135	19.415	45.850	0.507
714.000	437.733	80.000	19.996	103.138	19.425	45.137	0.491
716.000	438.760	80.001	19.996	103.140	19.441	43.888	0.509
718.000	439.765	80.000	19.995	103.152	19.453	42.973	0.503
720.000	440.802	80.000	19.996	103.157	19.464	42.086	0.535
722.000	441.827	80.000	19.996	103.145	19.477	41.115	0.528
724.000	442.791	80.000	19.995	103.145	19.493	39.912	0.506
726.000	443.827	80.000	19.994	103.149	19.504	39.033	0.493
728.000	444.855	80.000	19.995	103.156	19.518	37.962	0.500
730.000	445.875	79.999	19.994	103.148	19.531	37.011	0.508
732.000	446.865	80.000	19.996	103.148	19.544	35.987	0.504
734.000	447.894	79.999	19.996	103.147	19.556	35.070	0.517
736.000	448.916	80.000	19.995	103.152	19.570	33.965	0.515
738.000	449.935	80.000	19.995	103.151	19.587	32.702	0.508
740.000	450.961	80.003	19.994	103.163	19.595	32.061	0.512
742.000	451.968	80.001	19.995	103.157	19.611	30.864	0.505
744.000	453.003	80.001	19.995	103.147	19.626	29.743	0.549
746.000	454.003	80.001	19.994	103.150	19.638	28.787	0.509
748.000	455.022	80.001	19.995	103.152	19.650	27.861	0.515
750.000	456.021	80.001	19.994	103.158	19.665	26.748	0.520
752.000	457.034	80.000	19.995	103.149	19.677	25.800	0.519
754.000	458.066	80.000	19.995	103.154	19.688	24.949	0.519
756.000	459.097	80.001	19.994	103.155	19.701	23.925	0.507
758.000	460.145	80.002	19.993	103.150	19.711	23.194	0.527
760.000	461.153	80.001	19.995	103.150	19.720	22.487	0.473
762.001	462.180	80.000	19.995	103.151	19.744	20.634	0.496
764.000	463.256	80.001	19.995	103.150	19.742	20.794	0.520
766.000	464.256	80.000	19.996	103.157	19.752	20.068	0.511
768.000	465.276	80.000	19.995	103.162	19.766	18.965	0.497
770.000	466.260	80.004	19.995	103.152	19.773	18.471	0.514
772.000	467.312	80.001	19.995	103.161	19.785	17.535	0.530
774.000	468.319	80.001	19.994	103.158	19.789	17.225	0.515
776.000	469.317	80.002	19.996	103.159	19.803	16.160	0.535
778.000	470.376	80.000	19.995	103.175	19.813	15.367	0.503
780.000	471.411	79.999	19.995	103.151	19.820	14.861	0.546
782.000	472.425	80.001	19.996	103.150	19.830	14.103	0.528
784.000	473.478	79.999	19.995	103.147	19.836	13.608	0.544
786.000	474.533	80.000	19.996	103.146	19.843	13.069	0.557
788.001	475.480	79.999	19.996	103.147	19.854	12.209	0.482
790.000	476.513	80.000	19.996	103.145	19.855	12.121	0.509
792.000	477.572	79.999	19.996	103.149	19.867	11.249	0.527
794.000	478.580	79.999	19.996	103.155	19.872	10.842	0.489
796.000	479.602	79.998	19.997	103.163	19.884	9.968	0.520
798.000	480.648	80.000	19.995	103.162	19.880	10.221	0.495
800.000	481.664	80.000	19.996	103.159	19.890	9.476	0.510
802.000	482.717	80.000	19.996	103.148	19.894	9.147	0.501
804.000	483.748	79.999	19.995	103.152	19.900	8.747	0.495
806.000	484.756	80.001	19.995	103.169	19.910	7.979	0.533
808.000	485.807	79.999	19.994	103.150	19.908	8.111	0.514
810.000	486.824	79.999	19.996	103.149	19.916	7.519	0.490
812.000	487.834	80.000	19.995	103.177	19.926	6.754	0.468
814.000	488.863	79.998	19.994	103.181	19.928	6.573	0.504
816.000	489.891	79.999	19.994	103.168	19.932	6.228	0.502
818.000	490.893	80.001	19.994	103.183	19.941	5.564	0.495
820.000	491.927	79.999	19.994	103.159	19.942	5.463	0.540
822.000	492.974	80.000	19.994	103.176	19.945	5.298	0.521
824.000	493.989	80.000	19.995	103.166	19.945	5.256	0.534
826.000	495.069	80.000	19.995	103.153	19.955	4.492	0.533
828.000	496.094	80.001	19.994	103.176	19.955	4.513	0.528
830.000	497.132	80.001	19.994	103.177	19.960	4.140	0.523
832.000	498.135	80.000	19.994	103.161	19.958	4.280	0.516
834.000	499.179	80.000	19.994	103.166	19.963	3.862	0.532
836.000	500.203	79.998	19.994	103.162	19.965	3.695	0.492
838.000	501.209	80.001	19.994	103.176	19.966	3.683	0.482
840.000	502.294	80.000	19.995	103.164	19.967	3.591	0.541
842.000	503.300	80.003	19.994	103.167	19.967	3.554	0.517
844.000	504.338	80.001	19.995	103.158	19.971	3.301	0.509
846.001	505.368	80.001	19.995	103.152	19.975	2.943	0.518
848.000	506.393	80.003	19.994	103.166	19.978	2.729	0.525
850.000	507.386	80.001	19.994	103.159	19.977	2.787	0.491
852.000	508.427	80.002	19.994	103.153	19.980	2.616	0.521
854.000	509.451	80.003	19.994	103.162	19.978	2.738	0.513
856.000	510.473	80.002	19.994	103.173	19.982	2.449	0.522
858.000	511.515	80.000	19.995	103.170	19.979	2.635	0.531
860.000	512.560	80.000	19.995	103.176	19.985	2.199	0.514
862.000	513.602	80.002	19.996	103.170	19.980	2.579	0.497
864.000	514.643	79.999	19.996	103.169	19.982	2.432	0.515
866.000	515.707	80.000	19.996	103.162	19.982	2.392	0.494
868.000	516.683	80.000	19.996	103.151	19.989	1.899	0.471
870.000	517.765	80.000	19.997	103.144	19.987	2.008	0.513
872.000	518.790	80.000	19.995	103.147	19.986	2.100	0.506
874.000	519.813	80.002	19.995	103.148	19.989	1.889	0.542
876.000	520.821	80.000	19.996	103.153	19.988	1.944	0.493
878.000	521.828	80.000	19.995	103.148	19.991	1.726	0.520
880.000	522.859	79.999	19.994	103.151	19.990	1.844	0.525
882.000	523.908	80.000	19.994	103.164	19.992	1.667	0.524
884.000	524.941	80.000	19.996	103.172	19.993	1.558	0.521
886.000	525.931	79.999	19.996	103.184	19.997	1.310	0.518
888.000	526.956	79.998	19.996	103.182	19.994	1.519	0.511
890.000	528.021	79.998	19.996	103.177	19.994	1.532	0.532
892.000	529.067	79.997	19.996	103.174	19.995	1.459	0.522
894.000	530.039	79.998	19.995	103.162	19.998	1.225	0.503
896.000	531.063	79.998	19.995	103.160	19.995	1.415	0.532
898.000	532.109	79.998	19.995	103.164	19.994	1.506	0.518
900.000	533.135	80.000	19.996	103.173	19.994	1.515	0.501
902.000	534.141	80.000	19.995	103.167	19.995	1.397	0.506
904.000	535.171	79.999	19.994	103.159	19.996	1.351	0.516
906.000	536.199	80.001	19.995	103.155	19.998	1.182	0.524
908.000	537.201	80.000	19.995	103.148	19.993	1.579	0.488
910.000	538.182	80.002	19.995	103.148	19.992	1.622	0.490
912.000	539.243	80.003	19.996	103.147	19.993	1.570	0.510
914.000	540.264	79.999	19.995	103.161	19.994	1.472	0.536
916.000	541.242	80.000	19.995	103.170	19.995	1.429	0.516
918.000	542.269	80.000	19.995	103.154	19.994	1.476	0.516
920.000	543.297	80.002	19.996	103.166	19.993	1.551	0.499
922.000	544.272	80.001	19.994	103.167	19.995	1.415	0.491
924.000	545.326	79.999	19.995	103.153	19.991	1.710	0.465
926.000	546.266	80.002	19.995	103.148	19.991	1.723	0.473
928.000	547.331	80.001	19.994	103.146	19.995	1.400	0.558
930.000	548.382	80.003	19.995	103.141	19.995	1.406	0.521
932.000	549.399	80.004	19.995	103.169	19.996	1.334	0.511
934.000	550.445	80.002	19.993	103.183	19.997	1.278	0.523
936.000	551.507	80.003	19.994	103.210	19.999	1.114	0.548
938.000	552.512	80.002	19.994	103.194	19.996	1.335	0.511
940.000	553.547	80.001	19.994	103.173	19.995	1.430	0.558
942.000	554.637	80.001	19.994	103.150	19.996	1.380	0.531
944.000	555.674	80.001	19.995	103.168	19.993	1.554	0.564
946.000	556.702	80.001	19.995	103.177	19.992	1.632	0.501
948.000	557.665	79.999	19.996	103.149	19.991	1.771	0.516
950.000	558.724	79.999	19.995	103.152	19.994	1.477	0.538
952.000	559.766	80.000	19.995	103.165	19.994	1.479	0.533
954.000	560.823	80.000	19.996	103.171	19.994	1.513	0.522
956.000	561.840	80.001	19.995	103.173	19.988	1.952	0.507
958.000	562.881	79.998	19.995	103.162	19.986	2.127	0.468
960.000	563.849	79.998	19.997	103.177	19.995	1.408	0.455
962.000	564.749	80.000	19.995	103.179	20.000	1.039	0.443
964.000	565.864	79.999	19.994	103.180	20.000	1.061	0.589
966.000	566.993	80.000	19.995	103.152	19.997	1.304	0.367
968.000	568.250	79.998	19.995	103.152	19.996	1.344	0.584
970.000	568.606	79.999	19.995	103.163	19.998	1.201	0.529
972.000	569.390	79.998	19.996	103.167	19.995	1.393	-0.078
974.000	571.038	79.999	19.996	103.181	19.995	1.414	0.695
976.000	572.102	79.999	19.996	103.178	19.999	1.154	0.649
978.000	573.082	79.999	19.995	103.175	19.998	1.207	0.554
980.000	574.161	79.999	19.996	103.177	19.997	1.267	0.483
982.000	575.162	80.000	19.996	103.162	19.994	1.504	0.461
984.001	576.187	79.999	19.996	103.153	19.992	1.647	0.513
986.001	577.150	79.999	19.996	103.147	19.991	1.756	0.443
988.000	578.173	80.003	19.995	103.147	19.994	1.545	0.474
990.000	579.229	80.002	19.995	103.148	19.991	1.700	0.543
992.000	580.191	80.001	19.995	103.155	19.994	1.527	0.498
994.000	581.154	80.002	19.995	103.143	19.989	1.878	0.477
996.000	582.184	80.001	19.996	103.152	19.989	1.873	0.488
998.000	583.096	80.003	19.995	103.188	19.992	1.662	0.477
1000.000	584.125	80.002	19.995	103.162	19.994	1.530	0.487
1002.000	585.043	80.000	19.996	103.146	19.991	1.707	0.482
1004.000	586.083	80.000	19.995	103.153	19.993	1.594	0.491
1006.000	587.074	80.000	19.996	103.170	19.994	1.498	0.554
1008.000	587.975	80.001	19.996	103.162	19.991	1.709	0.483
1010.001	589.019	80.003	19.994	103.162	19.994	1.496	0.529
1012.000	589.974	79.999	19.996	103.185	19.997	1.274	0.485
1014.000	591.016	80.004	19.993	103.164	19.998	1.163	0.497
1016.000	591.968	80.002	19.995	103.157	19.997	1.274	0.488
1018.000	592.990	80.001	19.994	103.168	19.997	1.310	0.522
1020.000	594.051	79.999	19.997	103.161	19.998	1.229	0.534
1022.000	595.020	80.000	19.996	103.150	19.998	1.191	0.530
1024.000	596.047	79.999	19.994	103.151	19.999	1.099	0.485
1026.000	597.092	79.996	19.996	103.173	20.002	0.907	0.498
1028.000	598.128	79.998	19.994	103.169	20.003	0.794	0.492
1030.000	599.078	80.001	19.994	103.155	20.002	0.886	0.487
1032.000	600.076	79.999	19.995	103.152	19.999	1.129	0.506
1034.000	601.120	79.999	19.995	103.158	19.996	1.372	0.523
1036.000	602.140	79.997	19.997	103.171	19.998	1.182	0.507
1038.000	603.157	80.001	19.995	103.166	19.995	1.447	0.537
1040.001	604.177	80.008	19.994	103.174	19.995	1.410	0.522
1042.000	605.187	80.001	19.996	103.157	19.995	1.432	0.547
1044.000	606.233	80.000	19.996	103.155	19.991	1.748	0.524
1046.000	607.249	80.000	19.997	103.159	19.994	1.532	0.509
1048.000	608.246	79.999	19.996	103.159	19.996	1.379	0.495
1050.000	609.273	80.001	19.996	103.175	19.997	1.246	0.489
1052.000	610.253	79.999	19.995	103.157	19.991	1.726	0.442
1054.001	611.322	80.000	19.996	103.181	19.990	1.827	0.520
1056.000	612.395	80.001	19.996	103.165	19.992	1.678	0.543
1058.000	613.412	79.995	19.995	103.172	19.991	1.763	0.510
1060.000	614.479	79.996	19.995	103.182	19.990	1.833	0.567
1062.000	615.514	79.998	19.994	103.173	19.993	1.605	0.514
1064.000	616.604	80.001	19.995	103.181	19.993	1.569	0.554
1066.000	617.580	79.994	19.995	103.182	19.995	1.451	0.481
1068.000	618.666	79.998	19.996	103.189	19.993	1.567	0.526
1070.000	619.722	80.007	19.996	103.181	19.995	1.447	0.489
1072.000	620.764	79.992	19.998	103.180	19.994	1.534	0.560
1074.000	621.821	79.997	19.996	103.176	19.994	1.545	0.532
1076.000	622.866	80.005	19.996	103.179	19.995	1.447	0.522
1078.000	623.920	79.999	19.996	103.195	19.993	1.551	0.540
1080.000	624.944	79.998	19.998	103.190	19.994	1.543	0.548
1082.000	625.978	79.999	19.996	103.162	19.992	1.635	0.518
1084.001	627.004	79.999	19.995	103.163	19.994	1.479	0.527
1086.000	628.035	80.004	19.995	103.174	19.993	1.573	0.488
1088.000	629.051	80.002	19.996	103.175	19.993	1.569	0.532
1090.000	630.107	80.006	19.994	103.176	19.994	1.479	0.525
1092.000	631.115	80.000	19.995	103.190	19.996	1.363	0.481
1094.000	632.162	80.005	19.994	103.196	19.996	1.368	0.504
1096.000	633.209	80.001	19.996	103.190	19.998	1.208	0.519
1098.000	634.250	80.000	19.996	103.186	19.993	1.581	0.515
1100.000	635.347	80.002	19.994	103.190	19.995	1.398	0.534
1102.001	636.366	80.002	19.994	103.170	19.993	1.567	0.532
1104.000	637.439	80.000	19.995	103.174	19.995	1.426	0.552
1106.000	638.471	80.001	19.996	103.168	19.989	1.876	0.498
1108.000	639.486	79.998	19.995	103.187	19.991	1.746	0.497
1110.000	640.510	80.000	19.996	103.186	19.990	1.846	0.544
1112.000	641.503	80.002	19.995	103.187	19.989	1.897	0.471
1114.000	642.551	79.999	19.995	103.187	19.987	2.064	0.528
1116.000	643.541	79.997	19.996	103.184	19.990	1.793	0.492
1118.000	644.567	80.000	19.995	103.185	19.988	1.930	0.481
1120.000	645.568	80.001	19.995	103.188	19.990	1.844	0.494
1122.000	646.562	80.002	19.994	103.186	19.988	1.968	0.507
1124.000	647.548	80.002	19.996	103.188	19.992	1.654	0.520
1126.000	648.532	80.000	19.996	103.195	19.992	1.646	0.506
1128.000	649.534	79.998	19.996	103.201	19.992	1.695	0.482
1130.001	650.588	80.002	19.995	103.207	19.993	1.586	0.505
1132.000	651.585	79.998	19.995	103.203	19.993	1.584	0.504
1134.000	652.576	80.000	19.994	103.196	19.992	1.622	0.480
1136.000	653.564	79.991	19.996	103.192	19.994	1.518	0.532
1138.000	654.633	80.002	19.995	103.208	19.991	1.751	0.531
1140.001	655.621	80.006	19.996	103.206	19.992	1.673	0.554
1142.000	656.625	79.998	19.997	103.229	19.977	2.798	0.548
1144.000	657.640	79.999	19.997	103.204	19.992	1.633	0.527
1146.000	658.640	79.997	19.997	103.200	19.993	1.603	0.516
1148.001	659.747	79.997	19.994	103.207	19.994	1.494	0.520
1150.000	660.669	80.011	19.994	103.206	19.996	1.336	0.505
1152.000	661.731	80.000	19.996	103.193	19.993	1.552	0.530
1154.000	662.757	79.995	19.996	103.196	19.993	1.571	0.479
1156.000	663.519	80.003	19.995	103.201	19.991	1.705	0.525
1158.000	664.763	79.996	19.994	103.217	19.989	1.870	0.602
1160.001	665.789	79.993	19.995	103.196	19.987	2.019	0.479
1162.000	666.783	80.002	19.995	103.191	19.990	1.838	0.488
1164.001	667.787	80.022	19.992	103.192	19.983	2.329	0.510
1166.000	668.810	80.004	19.995	103.199	19.985	2.235	0.519
1168.000	669.792	79.999	19.995	103.193	19.985	2.209	0.487
1170.000	670.839	80.001	19.997	103.184	19.984	2.273	0.509
1172.001	671.843	80.002	19.996	103.206	19.991	1.761	0.464
1174.000	672.885	80.005	19.995	103.214	19.986	2.091	0.494
1176.001	673.897	80.024	19.993	103.202	19.986	2.096	0.562
1178.001	674.944	80.004	19.996	103.220	19.987	2.074	0.515
1180.000	675.938	80.001	19.996	103.194	19.983	2.328	0.503
1182.000	676.951	79.996	19.995	103.190	19.986	2.132	0.482
1184.000	677.990	79.992	19.995	103.186	19.988	1.993	0.494
1186.000	678.732	80.000	19.994	103.178	19.985	2.207	0.433
1188.000	679.916	80.004	19.997	103.185	19.987	2.055	-0.020
1190.000	681.020	80.001	19.996	103.182	19.987	2.026	0.555
1192.000	682.076	80.002	19.995	103.187	19.990	1.823	0.508
1194.000	683.081	80.001	19.994	103.184	19.988	2.002	0.533
1196.000	684.102	79.993	19.994	103.179	19.988	1.982	0.531
1198.000	685.088	80.007	19.991	103.186	19.989	1.895	0.488
1200.001	686.106	79.989	19.998	103.205	19.992	1.662	0.451
1202.000	687.091	79.989	19.998	103.198	19.994	1.538	0.472
1204.001	688.179	79.999	19.995	103.180	19.991	1.720	0.536
1206.000	689.181	80.003	19.994	103.180	19.992	1.670	0.514
1208.000	690.173	80.001	19.994	103.170	19.991	1.752	0.441
1210.000	691.221	80.010	19.994	103.168	19.991	1.741	0.522
1212.000	692.252	79.996	19.995	103.165	19.990	1.814	0.513
1214.000	693.262	80.005	19.992	103.154	19.991	1.709	0.507
1216.000	694.306	80.003	19.995	103.147	19.990	1.799	0.543
1218.000	695.346	79.999	19.994	103.139	19.992	1.679	0.542
1220.000	696.346	80.003	19.993	103.153	19.990	1.833	0.513
1222.000	697.329	80.001	19.995	103.156	19.992	1.694	0.531
1224.001	698.378	79.994	19.995	103.163	19.993	1.557	0.526
1226.001	699.376	80.001	19.995	103.169	19.991	1.709	0.519
1228.000	700.419	79.997	19.996	103.159	19.992	1.683	0.528
1230.000	701.419	79.988	19.996	103.162	19.994	1.489	0.519
1232.000	702.438	79.999	19.996	103.150	19.999	1.158	0.509
1234.000	703.457	79.999	19.996	103.144	19.995	1.461	0.544
1236.000	704.416	79.990	19.996	103.147	19.993	1.572	0.463
1238.000	705.440	80.005	19.995	103.129	19.992	1.666	0.505
1240.000	706.495	80.001	19.995	103.146	19.990	1.796	0.503
1242.000	707.480	79.998	19.997	103.150	19.990	1.831	0.538
1244.000	708.495	80.009	19.993	103.141	19.992	1.673	0.488
1246.000	709.508	80.002	19.995	103.139	19.992	1.650	0.513
1248.000	710.529	80.033	19.990	103.154	19.991	1.718	0.534
1250.000	711.566	79.993	19.995	103.161	19.998	1.201	0.517
1252.001	712.539	80.005	19.995	103.146	19.992	1.630	0.503
1254.001	713.548	80.015	19.994	103.164	19.999	1.118	0.511
1256.000	714.581	80.000	19.997	103.183	19.996	1.323	0.530
1258.000	715.600	79.995	19.997	103.169	19.993	1.581	0.515
1260.000	716.664	80.014	19.994	103.174	19.995	1.415	0.497
1262.000	717.664	80.004	19.996	103.151	19.994	1.526	0.493
1264.000	718.706	80.006	19.999	103.134	19.992	1.626	0.561
1266.001	719.688	80.003	19.996	103.140	19.988	1.948	0.512
1268.000	720.715	79.995	19.998	103.143	19.988	2.001	0.503
1270.000	721.668	79.999	19.995	103.146	19.986	2.102	0.480
1272.000	722.671	79.991	19.996	103.155	19.987	2.032	0.484
1274.000	723.658	79.998	19.994	103.151	19.988	1.999	0.493
1276.001	724.704	79.996	19.995	103.147	19.991	1.769	0.487
1278.001	725.694	80.003	19.995	103.144	19.988	1.961	0.527
1280.000	726.690	80.007	19.995	103.150	19.990	1.820	0.490
1282.000	727.688	79.996	19.993	103.165	19.988	1.961	0.494
1284.000	728.689	79.993	19.995	103.180	19.988	1.993	0.515
1286.000	729.720	80.006	19.993	103.154	19.988	1.980	0.511
1288.000	730.726	79.998	19.995	103.154	19.992	1.645	0.502
1290.001	731.788	80.009	19.994	103.164	19.989	1.903	0.495
1292.000	732.789	79.993	19.995	103.161	19.987	2.016	0.498
1294.000	733.823	80.004	19.994	103.158	19.990	1.802	0.519
1296.000	734.854	79.998	19.995	103.164	19.986	2.093	0.533
1298.000	735.853	79.992	19.996	103.158	19.986	2.112	0.495
1300.001	736.898	79.998	19.995	103.141	19.984	2.253	0.520
1302.000	737.915	80.005	19.996	103.142	19.984	2.300	0.516
1304.000	738.987	80.001	19.995	103.132	19.984	2.240	0.510
1306.000	739.999	80.003	19.994	103.142	19.983	2.334	0.495
1308.001	741.052	80.003	19.994	103.142	19.984	2.253	0.511
1310.000	742.060	80.001	19.994	103.150	19.988	2.000	0.488
1312.001	743.121	80.002	19.994	103.150	19.987	2.034	0.525
1313.000	743.600	80.005	19.995	103.149	19.988	1.999	0.503