File: 01_Data/EPDM_Membrane/MCC/EPDM_Membrane_MCC_30K_min_211203_R1.txt
Sample ID:	C:\MCC\MCC Cal\Test\EPDM_Membrane_MCC_30K_min_211203_R1.txt
Sample Weight (mg):	4.8
Heating Rate (C/s):	0.5
Combustor Temp (C):	900
N2 Flow Rate (cc/min):	80
O2 Flow Rate (cc/min):	20
Calibration File:	C:\MCC\MCC Cal\Coeff1 JN10440_30_210304.txt.txt
T Correction Coefficients:	0	1.024463	0
Time Shift (s):	14
*
Time (s)	Temperature (C)	N2 flow rate (cc/min)	O2 flow rate (cc/min)	Flow Rate (cc/min)	Oxygen (%)	HRR (W/g)	Heating rate (C/s)
0.000	109.369	80.007	19.994	103.121	20.293	-0.078	0.007
2.000	109.338	80.007	19.993	103.121	20.292	0.015	-0.027
4.000	109.352	80.006	19.994	103.126	20.297	-0.300	-0.010
6.000	109.349	80.006	19.994	103.134	20.294	-0.124	-0.024
8.000	109.329	80.007	19.994	103.127	20.294	-0.158	0.003
10.000	109.365	80.007	19.995	103.135	20.292	0.032	0.029
12.000	109.367	80.006	19.994	103.150	20.289	0.224	0.009
14.000	109.370	80.006	19.994	103.173	20.284	0.528	0.020
16.000	109.383	80.007	19.994	103.200	20.283	0.588	-0.004
18.000	109.478	80.007	19.995	103.236	20.279	0.906	0.053
20.000	109.548	80.005	19.994	103.293	20.276	1.053	0.032
22.000	109.667	80.007	19.995	103.301	20.273	1.309	0.065
24.000	109.808	80.007	19.995	103.321	20.271	1.418	0.071
26.000	110.013	80.006	19.995	103.315	20.265	1.826	0.100
28.000	110.179	80.005	19.994	103.309	20.266	1.778	0.085
30.000	110.409	80.007	19.994	103.315	20.258	2.295	0.124
32.000	110.701	80.004	19.995	103.328	20.258	2.260	0.157
34.000	111.033	80.007	19.994	103.330	20.257	2.351	0.153
36.000	111.348	80.005	19.992	103.331	20.254	2.535	0.156
38.001	111.683	80.027	19.998	103.341	20.255	2.501	0.174
39.999	112.040	80.005	19.995	103.334	20.249	2.865	0.169
41.999	112.431	80.007	19.994	103.334	20.252	2.694	0.190
43.999	112.831	80.006	19.994	103.339	20.251	2.757	0.205
45.999	113.272	80.005	19.993	103.341	20.255	2.516	0.207
47.999	113.724	80.007	19.994	103.345	20.250	2.824	0.193
50.000	114.236	80.006	19.994	103.331	20.250	2.813	0.265
51.999	114.720	80.007	19.994	103.336	20.248	2.951	0.256
53.999	115.181	80.005	19.994	103.335	20.255	2.485	0.233
55.999	115.737	80.005	19.994	103.336	20.256	2.443	0.245
57.999	116.317	80.006	19.994	103.331	20.255	2.465	0.280
60.000	116.855	80.007	19.994	103.347	20.253	2.625	0.274
62.000	117.443	80.005	19.994	103.365	20.253	2.634	0.302
64.000	117.975	80.007	19.995	103.364	20.252	2.669	0.295
65.999	118.593	80.005	19.995	103.364	20.251	2.749	0.294
68.000	119.258	80.005	19.995	103.362	20.252	2.704	0.320
70.000	119.904	80.006	19.994	103.365	20.248	2.986	0.349
72.000	120.519	80.006	19.994	103.367	20.247	3.005	0.305
73.999	121.155	80.005	19.993	103.369	20.250	2.843	0.333
75.999	121.895	80.008	19.993	103.368	20.245	3.142	0.394
78.000	122.557	80.009	19.994	103.365	20.248	2.945	0.324
79.999	123.279	80.009	19.994	103.369	20.252	2.723	0.357
82.000	123.974	80.007	19.993	103.370	20.249	2.875	0.366
84.000	124.687	80.006	19.995	103.370	20.249	2.896	0.356
86.000	125.395	80.007	19.994	103.370	20.249	2.905	0.356
87.999	126.131	80.007	19.994	103.370	20.251	2.780	0.359
89.999	126.873	80.005	19.994	103.370	20.243	3.269	0.394
91.999	127.663	80.006	19.994	103.371	20.246	3.070	0.407
93.999	128.453	80.005	19.993	103.381	20.244	3.230	0.391
95.999	129.235	80.006	19.994	103.380	20.245	3.178	0.415
98.000	130.059	80.006	19.995	103.375	20.241	3.404	0.389
99.999	130.832	80.008	19.994	103.386	20.241	3.417	0.398
101.999	131.680	80.008	19.996	103.394	20.242	3.395	0.455
104.000	132.453	80.009	19.994	103.381	20.242	3.380	0.385
106.000	133.337	80.008	19.993	103.392	20.240	3.519	0.425
107.999	134.178	80.008	19.995	103.377	20.238	3.626	0.437
110.000	135.040	80.008	19.994	103.391	20.237	3.699	0.433
111.999	135.885	80.008	19.994	103.388	20.242	3.343	0.414
113.999	136.759	80.008	19.995	103.383	20.242	3.341	0.469
115.999	137.662	80.005	19.995	103.387	20.237	3.692	0.454
118.000	138.546	80.007	19.996	103.373	20.238	3.619	0.458
119.999	139.436	80.005	19.995	103.384	20.237	3.710	0.436
121.999	140.350	80.006	19.995	103.380	20.237	3.694	0.449
123.999	141.292	80.006	19.995	103.387	20.238	3.668	0.471
125.999	142.231	80.006	19.994	103.386	20.240	3.521	0.471
128.000	143.192	80.007	19.995	103.391	20.238	3.627	0.480
130.000	144.141	80.006	19.994	103.389	20.238	3.605	0.490
132.000	145.083	80.007	19.993	103.391	20.235	3.831	0.489
134.000	146.029	80.006	19.994	103.393	20.236	3.803	0.491
136.000	147.044	80.006	19.996	103.396	20.235	3.816	0.516
138.000	148.002	80.006	19.994	103.401	20.234	3.879	0.531
140.000	148.986	80.007	19.993	103.397	20.232	4.035	0.549
142.000	149.969	80.005	19.993	103.395	20.231	4.076	0.475
144.000	150.973	80.006	19.994	103.389	20.235	3.834	0.493
146.000	151.946	80.007	19.993	103.386	20.235	3.849	0.508
148.000	152.935	80.006	19.994	103.380	20.231	4.074	0.521
150.000	153.958	80.003	19.994	103.385	20.234	3.894	0.529
152.000	154.948	80.005	19.994	103.392	20.232	4.029	0.529
154.000	155.914	80.004	19.995	103.382	20.232	4.031	0.480
156.000	156.930	80.005	19.994	103.379	20.233	3.945	0.503
158.000	157.969	80.007	19.995	103.375	20.233	3.980	0.519
160.000	158.970	80.008	19.994	103.384	20.233	3.967	0.548
162.000	160.013	80.007	19.993	103.374	20.227	4.353	0.528
164.000	161.044	80.008	19.993	103.371	20.227	4.373	0.543
166.000	162.058	80.008	19.993	103.369	20.227	4.401	0.504
168.000	163.073	80.008	19.993	103.368	20.225	4.503	0.528
170.000	164.094	80.008	19.993	103.366	20.227	4.377	0.501
172.000	165.148	80.008	19.994	103.367	20.226	4.462	0.542
174.000	166.155	80.007	19.994	103.368	20.227	4.403	0.486
176.000	167.178	80.008	19.994	103.360	20.223	4.620	0.502
178.000	168.191	80.007	19.994	103.359	20.222	4.731	0.515
180.000	169.219	80.007	19.993	103.363	20.218	4.986	0.535
182.000	170.257	80.007	19.993	103.363	20.220	4.877	0.515
184.000	171.292	80.008	19.994	103.356	20.213	5.318	0.511
186.000	172.296	80.008	19.995	103.359	20.217	5.044	0.530
188.000	173.302	80.009	19.994	103.356	20.216	5.119	0.499
190.000	174.299	80.008	19.995	103.347	20.214	5.229	0.496
192.000	175.315	80.007	19.994	103.348	20.215	5.158	0.482
194.000	176.257	80.009	19.993	103.354	20.210	5.488	0.453
196.000	177.281	80.009	19.994	103.335	20.212	5.384	0.484
198.000	178.268	80.006	19.993	103.335	20.210	5.516	0.500
200.000	179.330	80.005	19.995	103.334	20.211	5.456	0.547
202.000	180.357	80.005	19.994	103.334	20.205	5.820	0.534
204.000	181.353	80.006	19.996	103.331	20.207	5.711	0.491
206.000	182.349	80.006	19.995	103.333	20.205	5.881	0.518
208.000	183.368	80.005	19.995	103.333	20.202	6.033	0.479
210.000	184.399	80.006	19.995	103.329	20.205	5.863	0.552
212.000	185.340	80.005	19.995	103.327	20.202	6.041	0.483
214.000	186.433	80.005	19.994	103.332	20.199	6.282	0.541
216.000	187.414	80.005	19.995	103.331	20.199	6.233	0.466
218.000	188.428	80.007	19.995	103.330	20.197	6.356	0.485
220.000	189.410	80.005	19.994	103.331	20.194	6.621	0.488
222.000	190.374	80.006	19.996	103.331	20.193	6.630	0.490
224.000	191.358	80.005	19.994	103.330	20.193	6.690	0.490
226.000	192.385	80.004	19.993	103.330	20.187	7.043	0.469
228.000	193.370	80.006	19.994	103.330	20.186	7.153	0.507
230.001	194.394	80.006	19.995	103.332	20.184	7.253	0.511
232.000	195.363	80.005	19.993	103.329	20.181	7.446	0.495
234.000	196.315	80.005	19.994	103.329	20.179	7.591	0.449
236.000	197.327	80.005	19.994	103.328	20.177	7.753	0.499
238.000	198.285	80.005	19.993	103.325	20.175	7.876	0.508
240.000	199.212	80.005	19.995	103.332	20.173	8.009	0.475
242.000	200.221	80.007	19.993	103.328	20.173	7.986	0.481
244.000	201.221	80.007	19.994	103.333	20.173	7.980	0.491
246.000	202.193	80.006	19.995	103.329	20.171	8.145	0.485
248.000	203.163	80.007	19.995	103.327	20.165	8.560	0.474
250.000	204.131	80.008	19.995	103.326	20.166	8.452	0.501
252.000	205.146	80.008	19.995	103.329	20.161	8.784	0.489
254.000	206.143	80.006	19.995	103.328	20.162	8.768	0.504
256.000	207.111	80.008	19.994	103.327	20.161	8.812	0.508
258.000	208.183	80.008	19.994	103.326	20.160	8.857	0.504
260.000	209.102	80.007	19.993	103.323	20.161	8.835	0.478
262.000	210.107	80.007	19.992	103.324	20.158	9.004	0.508
264.000	211.104	80.008	19.994	103.328	20.154	9.257	0.499
266.000	212.076	80.007	19.993	103.329	20.153	9.348	0.481
268.000	213.074	80.007	19.994	103.327	20.150	9.539	0.521
270.000	214.114	80.007	19.995	103.329	20.151	9.500	0.509
272.000	215.056	80.008	19.994	103.331	20.146	9.819	0.476
274.000	216.076	80.009	19.993	103.327	20.144	9.958	0.516
276.000	217.021	80.008	19.993	103.320	20.145	9.871	0.462
278.000	218.051	80.008	19.994	103.329	20.142	10.084	0.481
280.000	219.018	80.008	19.993	103.328	20.141	10.151	0.473
282.000	219.962	80.007	19.994	103.327	20.140	10.240	0.443
284.000	220.953	80.004	19.995	103.323	20.134	10.632	0.474
286.000	221.983	80.005	19.994	103.324	20.129	10.960	0.479
288.000	222.958	80.006	19.994	103.327	20.129	10.979	0.512
290.000	223.941	80.005	19.995	103.331	20.128	11.042	0.520
292.000	224.900	80.006	19.994	103.328	20.126	11.131	0.499
294.000	225.924	80.006	19.994	103.323	20.122	11.456	0.502
296.000	226.872	80.007	19.994	103.315	20.118	11.669	0.500
298.000	227.868	80.005	19.995	103.331	20.115	11.880	0.512
300.000	228.847	80.007	19.994	103.323	20.113	12.035	0.469
302.000	229.882	80.006	19.994	103.327	20.111	12.171	0.517
304.000	230.902	80.006	19.994	103.320	20.111	12.145	0.507
306.000	231.903	80.005	19.994	103.318	20.111	12.137	0.514
308.000	232.934	80.006	19.994	103.303	20.111	12.176	0.547
310.000	233.924	80.006	19.995	103.314	20.108	12.351	0.511
312.000	234.923	80.006	19.995	103.319	20.107	12.432	0.514
314.000	235.910	80.006	19.995	103.318	20.109	12.298	0.491
316.000	236.890	80.006	19.996	103.314	20.106	12.508	0.505
318.000	237.944	80.005	19.996	103.316	20.106	12.522	0.524
320.000	238.946	80.005	19.995	103.313	20.102	12.732	0.516
322.000	239.972	80.005	19.993	103.300	20.095	13.262	0.512
324.000	240.948	80.006	19.995	103.309	20.095	13.255	0.504
326.000	241.995	80.006	19.994	103.301	20.095	13.259	0.527
328.000	243.080	80.007	19.994	103.295	20.089	13.660	0.510
330.000	244.042	80.006	19.993	103.300	20.091	13.497	0.478
332.000	245.038	80.007	19.993	103.303	20.090	13.597	0.461
334.000	246.086	80.007	19.993	103.308	20.085	13.889	0.509
336.000	247.064	80.008	19.993	103.302	20.083	14.039	0.486
338.000	248.084	80.006	19.994	103.309	20.083	14.074	0.492
340.000	249.146	80.007	19.994	103.301	20.081	14.158	0.536
342.000	250.153	80.008	19.994	103.315	20.080	14.216	0.479
344.000	251.175	80.006	19.993	103.303	20.076	14.499	0.501
346.000	252.212	80.006	19.994	103.300	20.076	14.520	0.518
348.000	253.217	80.006	19.994	103.306	20.074	14.619	0.485
350.000	254.207	80.007	19.994	103.296	20.074	14.618	0.478
352.000	255.253	80.007	19.994	103.292	20.072	14.795	0.510
354.000	256.248	80.007	19.994	103.300	20.068	15.019	0.498
356.000	257.246	80.008	19.993	103.297	20.066	15.176	0.535
358.000	258.249	80.007	19.993	103.301	20.066	15.213	0.490
360.000	259.238	80.008	19.992	103.312	20.067	15.135	0.499
362.000	260.243	80.010	19.994	103.300	20.063	15.357	0.488
364.000	261.259	80.008	19.993	103.297	20.065	15.263	0.506
366.000	262.251	80.008	19.992	103.296	20.066	15.215	0.514
368.000	263.245	80.006	19.994	103.297	20.063	15.391	0.472
370.000	264.237	80.007	19.994	103.304	20.061	15.532	0.476
372.000	265.208	80.005	19.994	103.298	20.056	15.832	0.498
374.000	266.272	80.006	19.995	103.300	20.053	16.029	0.541
376.000	267.273	80.007	19.994	103.291	20.052	16.140	0.502
378.000	268.296	80.006	19.995	103.295	20.052	16.117	0.510
380.000	269.303	80.007	19.995	103.293	20.050	16.250	0.490
382.000	270.301	80.006	19.993	103.293	20.049	16.319	0.533
384.000	271.357	80.007	19.995	103.295	20.050	16.245	0.497
386.000	272.339	80.007	19.995	103.294	20.046	16.549	0.516
388.000	273.339	80.007	19.994	103.291	20.042	16.784	0.503
390.000	274.334	80.007	19.995	103.290	20.043	16.730	0.528
392.000	275.349	80.008	19.995	103.290	20.042	16.772	0.491
394.000	276.340	80.006	19.994	103.290	20.042	16.796	0.499
396.000	277.319	80.006	19.994	103.289	20.039	17.000	0.495
398.000	278.354	80.005	19.995	103.289	20.037	17.119	0.531
400.000	279.302	80.005	19.994	103.290	20.041	16.868	0.500
402.000	280.289	80.005	19.995	103.292	20.039	17.005	0.486
404.000	281.309	80.005	19.995	103.291	20.038	17.085	0.501
406.000	282.282	80.005	19.996	103.292	20.038	17.061	0.508
408.000	283.265	80.004	19.995	103.295	20.039	17.001	0.527
410.000	284.250	80.004	19.995	103.295	20.038	17.092	0.470
412.000	285.255	80.006	19.996	103.292	20.040	16.920	0.489
414.000	286.262	80.006	19.995	103.292	20.038	17.041	0.500
416.000	287.267	80.007	19.995	103.291	20.039	16.978	0.497
418.000	288.237	80.008	19.994	103.292	20.038	17.091	0.493
420.000	289.221	80.008	19.994	103.293	20.037	17.115	0.477
422.000	290.236	80.006	19.993	103.292	20.038	17.052	0.498
424.000	291.251	80.007	19.994	103.296	20.037	17.131	0.526
426.000	292.295	80.007	19.994	103.295	20.041	16.868	0.498
428.000	293.255	80.007	19.994	103.294	20.039	16.968	0.490
430.000	294.291	80.007	19.995	103.293	20.039	16.990	0.478
432.000	295.279	80.007	19.994	103.296	20.037	17.148	0.493
434.000	296.306	80.007	19.994	103.290	20.033	17.426	0.493
436.000	297.276	80.008	19.994	103.290	20.033	17.401	0.509
438.000	298.316	80.009	19.992	103.290	20.034	17.303	0.503
440.000	299.351	80.009	19.993	103.288	20.033	17.420	0.535
442.000	300.325	80.008	19.993	103.288	20.029	17.644	0.484
444.000	301.358	80.011	19.994	103.295	20.029	17.676	0.521
446.000	302.406	80.008	19.994	103.288	20.027	17.802	0.526
448.000	303.365	80.010	19.994	103.287	20.026	17.843	0.494
450.000	304.393	80.008	19.994	103.287	20.022	18.128	0.497
452.000	305.393	80.006	19.994	103.264	20.016	18.539	0.496
454.000	306.393	80.008	19.994	103.233	20.014	18.697	0.513
456.000	307.402	80.006	19.994	103.344	20.015	18.601	0.493
458.000	308.437	80.006	19.993	103.297	20.012	18.823	0.480
460.000	309.476	80.007	19.994	103.292	20.006	19.201	0.492
462.000	310.526	80.007	19.994	103.286	20.003	19.385	0.529
464.000	311.547	80.008	19.994	103.291	19.998	19.718	0.513
466.000	312.533	80.008	19.994	103.292	19.993	20.067	0.479
468.000	313.589	80.005	19.994	103.291	19.988	20.440	0.520
470.000	314.649	80.004	19.995	103.291	19.986	20.554	0.521
472.000	315.697	80.007	19.994	103.289	19.979	21.021	0.547
474.000	316.718	80.008	19.994	103.293	19.973	21.398	0.517
476.000	317.686	80.007	19.994	103.290	19.964	22.040	0.480
478.000	318.716	80.005	19.995	103.286	19.956	22.533	0.505
480.000	319.708	80.006	19.995	103.291	19.952	22.848	0.508
482.000	320.732	80.006	19.995	103.293	19.945	23.320	0.522
484.000	321.761	80.007	19.995	103.287	19.937	23.814	0.522
486.000	322.786	80.003	19.994	103.290	19.930	24.312	0.496
488.000	323.804	80.005	19.994	103.290	19.921	24.882	0.514
490.000	324.782	80.007	19.994	103.279	19.912	25.476	0.515
492.000	325.786	80.006	19.994	103.290	19.901	26.243	0.503
494.000	326.852	80.006	19.994	103.290	19.896	26.587	0.545
496.000	327.821	80.007	19.995	103.289	19.881	27.623	0.466
498.000	328.882	80.007	19.995	103.286	19.869	28.389	0.516
500.000	329.893	80.008	19.993	103.225	19.859	29.090	0.495
502.000	330.919	80.007	19.993	103.297	19.844	30.084	0.497
504.000	331.919	80.007	19.996	103.313	19.831	30.930	0.503
506.000	332.937	80.009	19.995	103.264	19.817	31.869	0.514
508.000	333.971	80.008	19.995	103.269	19.801	32.962	0.507
510.000	335.013	80.009	19.995	103.267	19.782	34.237	0.496
512.000	336.021	80.006	19.994	103.272	19.764	35.454	0.487
514.000	337.041	80.007	19.996	103.263	19.744	36.767	0.508
516.000	338.047	80.008	19.994	103.255	19.725	38.050	0.514
518.000	339.063	80.010	19.994	103.263	19.704	39.485	0.506
520.000	340.076	80.010	19.994	103.269	19.683	40.871	0.516
522.000	341.110	80.009	19.995	103.261	19.659	42.497	0.517
524.000	342.106	80.008	19.994	103.259	19.633	44.230	0.500
526.000	343.125	80.006	19.994	103.254	19.607	45.959	0.529
528.000	344.114	80.009	19.993	103.257	19.580	47.782	0.492
530.000	345.092	80.008	19.993	103.254	19.551	49.748	0.478
532.000	346.137	80.007	19.994	103.252	19.519	51.885	0.541
534.000	347.124	80.008	19.992	103.253	19.488	53.964	0.491
536.000	348.100	80.008	19.993	103.253	19.458	55.978	0.462
538.000	349.114	80.004	19.994	103.253	19.425	58.189	0.477
540.000	350.143	80.004	19.993	103.254	19.391	60.478	0.493
542.000	351.128	80.006	19.994	103.250	19.357	62.723	0.502
544.000	352.144	80.006	19.995	103.252	19.315	65.551	0.499
546.000	353.183	80.009	19.995	103.254	19.281	67.842	0.521
548.000	354.206	80.007	19.994	103.247	19.237	70.791	0.536
550.000	355.194	80.007	19.994	103.236	19.196	73.558	0.476
552.000	356.270	80.006	19.994	103.240	19.157	76.167	0.517
554.000	357.259	80.007	19.994	103.221	19.111	79.266	0.503
556.000	358.300	80.008	19.993	103.224	19.071	81.899	0.540
558.000	359.267	80.009	19.993	103.221	19.029	84.720	0.482
560.000	360.256	80.006	19.993	103.220	18.984	87.737	0.490
562.000	361.287	80.008	19.993	103.214	18.942	90.581	0.516
564.000	362.212	80.007	19.994	103.216	18.901	93.328	0.457
566.000	363.295	80.007	19.994	103.212	18.855	96.361	0.537
568.000	364.309	80.008	19.995	103.210	18.816	98.998	0.511
570.000	365.297	80.006	19.994	103.204	18.771	102.011	0.510
572.000	366.310	80.005	19.994	103.208	18.729	104.822	0.522
574.000	367.294	80.008	19.995	103.200	18.693	107.238	0.481
576.000	368.314	80.007	19.995	103.182	18.655	109.807	0.506
578.000	369.375	80.008	19.995	103.178	18.624	111.864	0.489
580.000	370.388	80.008	19.995	103.176	18.594	113.896	0.511
582.000	371.375	80.006	19.995	103.175	18.566	115.723	0.497
584.000	372.355	80.009	19.994	103.173	18.540	117.516	0.527
586.000	373.392	80.009	19.994	103.170	18.521	118.790	0.494
588.000	374.420	80.007	19.994	103.168	18.502	120.068	0.501
590.000	375.413	80.009	19.995	103.164	18.486	121.144	0.473
592.000	376.486	80.007	19.994	103.170	18.472	122.048	0.533
594.000	377.475	80.009	19.995	103.163	18.456	123.128	0.497
596.000	378.531	80.009	19.995	103.168	18.460	122.834	0.472
598.000	379.472	80.008	19.995	103.170	18.466	122.486	0.471
600.000	380.546	80.007	19.995	103.164	18.468	122.327	0.542
602.000	381.477	80.007	19.995	103.174	18.481	121.464	0.447
604.000	382.534	80.005	19.995	103.170	18.490	120.823	0.437
606.000	383.389	80.006	19.996	103.172	18.506	119.764	0.263
608.000	384.207	80.008	19.994	103.170	18.522	118.697	0.154
610.000	385.403	80.008	19.995	103.169	18.543	117.317	0.841
612.000	386.774	80.008	19.994	103.168	18.566	115.746	0.568
614.000	387.575	80.010	19.995	103.168	18.597	113.701	0.517
616.000	388.625	80.007	19.993	103.157	18.628	111.582	0.547
618.000	389.580	80.006	19.993	103.160	18.657	109.633	0.425
620.000	390.642	80.005	19.993	103.163	18.688	107.591	0.482
622.000	391.645	80.004	19.992	103.175	18.722	105.317	0.543
624.000	392.678	80.006	19.993	103.175	18.754	103.120	0.512
626.000	393.690	80.006	19.994	103.179	18.795	100.415	0.553
628.000	394.734	80.007	19.994	103.176	18.831	97.982	0.527
630.000	395.733	80.006	19.994	103.175	18.866	95.643	0.491
632.000	396.751	80.008	19.994	103.172	18.901	93.326	0.525
634.000	397.724	80.007	19.993	103.174	18.935	91.029	0.479
636.000	398.756	80.006	19.994	103.174	18.971	88.597	0.506
638.000	399.759	80.006	19.995	103.174	19.001	86.587	0.516
640.000	400.726	80.008	19.994	103.176	19.032	84.539	0.474
642.000	401.748	80.003	19.994	103.181	19.062	82.520	0.489
644.000	402.775	80.006	19.994	103.189	19.091	80.601	0.500
646.000	403.807	80.007	19.994	103.182	19.116	78.878	0.525
648.000	404.834	80.007	19.993	103.186	19.145	76.942	0.494
650.000	405.859	80.006	19.994	103.189	19.168	75.393	0.491
652.000	406.829	80.005	19.994	103.190	19.194	73.666	0.475
654.000	407.806	80.006	19.994	103.197	19.213	72.412	0.499
656.000	408.812	80.007	19.993	103.194	19.235	70.921	0.502
658.000	409.805	80.006	19.995	103.199	19.252	69.747	0.502
660.000	410.826	80.005	19.994	103.207	19.269	68.610	0.511
662.000	411.814	80.009	19.995	103.209	19.289	67.303	0.489
664.000	412.892	80.009	19.994	103.205	19.299	66.593	0.520
666.000	413.868	80.007	19.994	103.198	19.318	65.336	0.524
668.000	414.837	80.007	19.995	103.207	19.330	64.520	0.494
670.000	415.828	80.006	19.995	103.193	19.347	63.429	0.481
672.000	416.860	80.007	19.995	103.203	19.359	62.576	0.526
674.000	417.864	80.008	19.994	103.204	19.370	61.858	0.479
676.000	418.878	80.006	19.993	103.206	19.385	60.875	0.515
678.000	419.903	80.007	19.994	103.210	19.390	60.542	0.531
680.000	420.879	80.008	19.994	103.200	19.402	59.728	0.503
682.000	421.906	80.005	19.994	103.212	19.413	58.980	0.503
684.000	422.941	80.007	19.995	103.208	19.426	58.089	0.518
686.000	423.930	80.005	19.993	103.209	19.434	57.539	0.489
688.000	424.950	80.008	19.995	103.211	19.444	56.880	0.500
690.000	425.994	80.008	19.994	103.207	19.457	56.055	0.548
692.000	426.963	80.007	19.994	103.211	19.462	55.683	0.521
694.000	427.981	80.008	19.994	103.212	19.475	54.814	0.498
696.000	429.012	80.008	19.993	103.210	19.486	54.074	0.504
698.000	430.049	80.006	19.996	103.208	19.497	53.312	0.535
700.000	431.063	80.008	19.994	103.209	19.508	52.594	0.503
702.000	432.087	80.007	19.996	103.210	19.520	51.802	0.504
704.000	433.116	80.006	19.995	103.209	19.539	50.518	0.505
706.000	434.151	80.004	19.995	103.211	19.546	50.051	0.534
708.000	435.155	80.006	19.995	103.212	19.560	49.134	0.485
710.000	436.208	80.007	19.995	103.211	19.579	47.865	0.498
712.000	437.264	80.006	19.994	103.212	19.590	47.116	0.556
714.000	438.234	80.007	19.994	103.212	19.605	46.125	0.506
716.000	439.260	80.006	19.993	103.211	19.618	45.205	0.516
718.000	440.323	80.007	19.994	103.211	19.630	44.422	0.562
720.000	441.344	80.005	19.995	103.211	19.654	42.811	0.496
722.000	442.362	80.008	19.994	103.216	19.663	42.193	0.531
724.000	443.385	80.008	19.995	103.220	19.679	41.125	0.502
726.000	444.403	80.009	19.994	103.225	19.697	39.921	0.497
728.000	445.433	80.007	19.994	103.218	19.711	38.985	0.502
730.000	446.441	80.004	19.993	103.217	19.728	37.840	0.499
732.000	447.501	80.005	19.993	103.222	19.743	36.830	0.506
734.000	448.589	80.008	19.995	103.218	19.756	36.006	0.567
736.000	449.599	80.005	19.994	103.215	19.772	34.884	0.522
738.000	450.618	80.005	19.995	103.222	19.793	33.515	0.506
740.000	451.647	80.007	19.994	103.217	19.807	32.573	0.518
742.000	452.667	80.005	19.993	103.226	19.823	31.470	0.517
744.000	453.713	80.005	19.995	103.235	19.837	30.551	0.502
746.000	454.748	80.007	19.994	103.228	19.851	29.573	0.518
748.000	455.726	80.006	19.993	103.225	19.868	28.469	0.533
750.000	456.797	80.006	19.993	103.231	19.882	27.512	0.506
752.000	457.827	80.010	19.994	103.233	19.896	26.552	0.539
754.000	458.894	80.009	19.993	103.226	19.910	25.656	0.543
756.000	459.865	80.008	19.994	103.220	19.927	24.511	0.473
758.000	460.901	80.009	19.994	103.219	19.941	23.560	0.467
760.000	461.958	80.006	19.995	103.217	19.948	23.065	0.542
762.000	462.941	80.006	19.994	103.222	19.966	21.849	0.513
764.000	463.946	80.006	19.995	103.218	19.979	21.028	0.515
766.000	464.917	80.006	19.995	103.225	19.993	20.039	0.493
768.000	465.957	80.007	19.994	103.216	20.004	19.343	0.523
770.000	467.013	80.007	19.995	103.216	20.015	18.566	0.522
772.000	467.978	80.007	19.995	103.224	20.024	17.987	0.508
774.000	468.997	80.008	19.994	103.219	20.033	17.414	0.472
776.000	470.019	80.008	19.994	103.225	20.042	16.750	0.492
778.000	471.037	80.009	19.994	103.218	20.060	15.606	0.502
780.000	472.053	80.011	19.994	103.218	20.066	15.177	0.510
782.000	473.072	80.010	19.995	103.219	20.078	14.393	0.516
784.000	474.099	80.010	19.994	103.218	20.085	13.864	0.503
786.000	475.123	80.007	19.995	103.220	20.093	13.381	0.503
788.000	476.126	80.005	19.995	103.216	20.100	12.859	0.506
790.000	477.116	80.005	19.995	103.230	20.108	12.381	0.489
792.000	478.168	80.007	19.996	103.225	20.111	12.132	0.503
794.000	479.218	80.006	19.995	103.220	20.123	11.338	0.507
796.000	480.270	80.007	19.995	103.214	20.128	10.979	0.525
798.000	481.239	80.006	19.995	103.215	20.137	10.411	0.535
800.000	482.255	80.006	19.995	103.216	20.143	9.996	0.517
802.000	483.234	80.006	19.995	103.221	20.150	9.535	0.472
804.000	484.208	80.004	19.995	103.222	20.151	9.491	0.500
806.000	485.231	80.006	19.995	103.212	20.160	8.881	0.508
808.000	486.222	80.006	19.994	103.215	20.165	8.499	0.488
810.000	487.219	80.008	19.994	103.224	20.171	8.142	0.486
812.000	488.270	80.007	19.994	103.218	20.176	7.807	0.535
814.000	489.237	80.006	19.994	103.225	20.183	7.336	0.488
816.000	490.268	80.007	19.994	103.226	20.188	6.966	0.497
818.000	491.292	80.005	19.994	103.218	20.195	6.527	0.495
820.001	492.302	80.005	19.994	103.219	20.192	6.699	0.505
822.000	493.328	80.005	19.994	103.218	20.199	6.264	0.539
824.000	494.329	80.005	19.994	103.218	20.206	5.777	0.518
826.000	495.370	80.005	19.994	103.224	20.207	5.693	0.502
828.000	496.407	80.006	19.995	103.229	20.211	5.429	0.507
830.001	497.395	80.006	19.995	103.216	20.214	5.210	0.491
832.000	498.403	80.008	19.994	103.213	20.219	4.890	0.497
834.000	499.378	80.008	19.994	103.218	20.221	4.769	0.495
836.000	500.429	80.010	19.994	103.212	20.224	4.555	0.519
838.000	501.430	80.008	19.994	103.214	20.221	4.742	0.497
840.000	502.421	80.008	19.994	103.221	20.221	4.750	0.486
842.000	503.477	80.008	19.995	103.222	20.223	4.625	0.496
844.000	504.514	80.007	19.994	103.218	20.226	4.447	0.522
846.000	505.543	80.007	19.994	103.225	20.231	4.132	0.529
848.000	506.580	80.008	19.993	103.228	20.227	4.380	0.515
850.000	507.618	80.008	19.995	103.220	20.236	3.787	0.509
852.000	508.611	80.007	19.994	103.214	20.235	3.847	0.484
854.000	509.609	80.007	19.994	103.214	20.241	3.458	0.505
856.000	510.653	80.007	19.994	103.214	20.241	3.443	0.533
858.000	511.682	80.009	19.994	103.213	20.243	3.271	0.511
860.000	512.698	80.009	19.995	103.212	20.252	2.710	0.520
862.000	513.756	80.008	19.993	103.219	20.243	3.312	0.509
864.000	514.816	80.008	19.994	103.216	20.249	2.867	0.554
866.000	515.870	80.009	19.994	103.228	20.241	3.449	0.535
868.000	516.896	80.009	19.995	103.218	20.240	3.463	0.541
870.000	517.998	80.007	19.995	103.218	20.248	2.965	0.521
872.000	518.991	80.006	19.995	103.221	20.254	2.563	0.471
874.000	520.005	80.006	19.995	103.215	20.241	3.410	0.493
876.000	521.086	80.005	19.995	103.220	20.240	3.525	0.517
878.000	522.117	80.005	19.994	103.215	20.240	3.512	0.551
880.000	523.210	80.006	19.994	103.217	20.247	3.019	0.557
882.000	524.253	80.005	19.994	103.216	20.243	3.271	0.512
884.000	525.337	80.003	19.994	103.217	20.245	3.130	0.538
886.000	526.309	80.005	19.995	103.221	20.243	3.284	0.539
888.000	527.342	80.007	19.994	103.226	20.247	3.048	0.532
890.000	528.557	80.005	19.996	103.215	20.242	3.330	0.625
892.000	529.487	80.005	19.995	103.215	20.244	3.221	0.498
894.000	530.678	80.005	19.996	103.210	20.247	3.032	0.644
896.000	531.623	80.005	19.996	103.214	20.243	3.265	0.558
898.000	532.743	80.005	19.996	103.211	20.244	3.241	0.527
900.000	533.711	80.007	19.996	103.214	20.256	2.441	0.528
902.000	534.830	80.006	19.994	103.216	20.247	3.056	0.572
904.000	535.884	80.006	19.995	103.219	20.249	2.910	0.537
906.000	536.943	80.006	19.994	103.212	20.251	2.748	0.528
908.000	537.968	80.004	19.994	103.217	20.255	2.498	0.541
910.000	539.027	80.005	19.993	103.218	20.252	2.687	0.468
912.000	540.076	80.006	19.994	103.211	20.253	2.591	0.523
914.000	541.100	80.007	19.994	103.213	20.251	2.763	0.530
916.000	542.155	80.007	19.994	103.212	20.248	2.982	0.515
918.000	543.218	80.008	19.994	103.214	20.249	2.878	0.521
920.000	544.265	80.007	19.994	103.213	20.248	2.976	0.517
922.000	545.276	80.007	19.993	103.209	20.243	3.265	0.505
924.000	546.328	80.005	19.995	103.216	20.244	3.213	0.558
926.000	547.369	80.008	19.994	103.210	20.246	3.065	0.536
928.000	548.385	80.006	19.994	103.214	20.249	2.912	0.529
930.000	549.441	80.007	19.994	103.212	20.252	2.670	0.513
932.000	550.499	80.007	19.995	103.212	20.251	2.730	0.493
934.000	551.519	80.007	19.994	103.216	20.252	2.721	0.496
936.000	552.573	80.007	19.994	103.214	20.252	2.717	0.502
938.000	553.585	80.005	19.993	103.220	20.254	2.573	0.512
940.000	554.641	80.007	19.995	103.215	20.249	2.869	0.550
942.000	555.708	80.007	19.993	103.209	20.254	2.547	0.544
944.000	556.764	80.009	19.993	103.213	20.256	2.450	0.497
946.000	557.738	80.009	19.992	103.216	20.253	2.597	0.403
948.000	558.787	80.008	19.993	103.220	20.254	2.537	0.489
950.000	559.796	80.008	19.992	103.212	20.251	2.739	0.513
952.000	560.861	80.007	19.993	103.214	20.254	2.563	0.526
954.000	561.885	80.007	19.994	103.216	20.254	2.545	0.539
956.000	562.864	80.006	19.994	103.214	20.256	2.433	0.517
958.001	563.964	80.007	19.995	103.216	20.255	2.508	0.526
960.000	564.906	80.008	19.995	103.209	20.254	2.563	0.488
962.000	565.941	80.006	19.995	103.216	20.251	2.772	0.496
964.000	566.980	80.005	19.995	103.211	20.252	2.685	0.509
966.000	568.001	80.004	19.995	103.210	20.255	2.472	0.522
968.000	569.000	80.006	19.996	103.212	20.249	2.897	0.504
970.000	570.024	80.006	19.995	103.213	20.249	2.861	0.547
972.000	571.036	80.005	19.994	103.214	20.249	2.919	0.511
974.000	572.044	80.005	19.994	103.213	20.251	2.776	0.507
976.000	573.051	80.005	19.994	103.215	20.250	2.819	0.533
978.000	574.101	80.006	19.994	103.212	20.253	2.626	0.524
980.000	575.179	80.007	19.994	103.212	20.250	2.821	0.533
982.000	576.168	80.006	19.993	103.211	20.254	2.545	0.453
984.000	577.149	80.007	19.996	103.217	20.252	2.680	0.478
986.000	578.195	80.004	19.995	103.214	20.254	2.576	0.511
988.000	579.220	80.004	19.996	103.211	20.251	2.743	0.514
990.000	580.255	80.004	19.994	103.216	20.250	2.810	0.531
992.000	581.246	80.005	19.996	103.212	20.249	2.924	0.527
994.000	582.246	80.005	19.996	103.227	20.251	2.734	0.497
996.000	583.307	80.005	19.994	103.213	20.250	2.797	0.523
998.000	584.318	80.005	19.995	103.213	20.255	2.467	0.489
1000.000	585.347	80.007	19.995	103.218	20.254	2.563	0.535
1002.000	586.373	80.007	19.994	103.215	20.257	2.387	0.509
1004.000	587.348	80.007	19.994	103.215	20.256	2.413	0.464
1006.000	588.357	80.007	19.995	103.218	20.256	2.398	0.498
1008.000	589.429	80.007	19.993	103.216	20.250	2.810	0.515
1010.000	590.442	80.006	19.993	103.216	20.252	2.684	0.491
1012.000	591.451	80.006	19.995	103.215	20.251	2.782	0.505
1014.000	592.485	80.007	19.994	103.215	20.249	2.925	0.501
1016.000	593.542	80.006	19.994	103.215	20.247	3.043	0.533
1018.000	594.595	80.006	19.994	103.217	20.248	2.954	0.513
1020.000	595.644	80.007	19.994	103.220	20.248	2.976	0.526
1022.000	596.581	80.006	19.993	103.222	20.248	2.934	0.482
1024.001	597.602	80.008	19.994	103.219	20.250	2.825	0.482
1026.000	598.621	80.009	19.994	103.222	20.250	2.817	0.501
1027.999	599.628	80.008	19.994	103.212	20.243	3.308	0.527
1030.001	600.593	80.009	19.994	103.211	20.244	3.219	0.506
1032.000	601.630	80.008	19.993	103.219	20.246	3.071	0.519
1034.000	602.645	80.008	19.994	103.220	20.246	3.077	0.521
1035.999	603.685	80.010	19.995	103.217	20.247	3.036	0.556
1037.999	604.701	80.008	19.993	103.210	20.245	3.141	0.515
1040.001	605.690	80.007	19.994	103.227	20.245	3.150	0.535
1041.999	606.690	80.006	19.993	103.220	20.245	3.178	0.490
1043.999	607.695	80.005	19.995	103.228	20.247	3.010	0.495
1045.999	608.721	80.004	19.995	103.222	20.246	3.093	0.505
1048.000	609.734	80.006	19.994	103.213	20.247	3.015	0.501
1049.999	610.736	80.006	19.996	103.213	20.245	3.130	0.505
1051.999	611.772	80.007	19.994	103.215	20.250	2.800	0.522
1053.999	612.826	80.005	19.994	103.212	20.249	2.878	0.525
1056.000	613.868	80.005	19.994	103.219	20.246	3.067	0.551
1057.999	614.859	80.004	19.993	103.218	20.244	3.212	0.517
1059.999	615.880	80.005	19.993	103.215	20.244	3.204	0.513
1061.999	616.951	80.005	19.994	103.222	20.239	3.562	0.526
1064.000	617.988	80.006	19.994	103.212	20.241	3.442	0.536
1065.999	618.988	80.005	19.993	103.213	20.245	3.180	0.508
1067.999	619.970	80.004	19.995	103.231	20.241	3.446	0.488
1070.000	621.035	80.005	19.994	103.221	20.247	3.012	0.521
1071.999	622.005	80.005	19.994	103.214	20.251	2.762	0.523
1074.000	623.007	80.004	19.994	103.228	20.248	2.945	0.507
1075.999	624.027	80.002	19.994	103.230	20.252	2.721	0.507
1077.999	625.044	80.005	19.993	103.240	20.249	2.889	0.513
1079.999	626.054	80.005	19.994	103.238	20.251	2.734	0.523
1081.999	627.063	80.005	19.994	103.243	20.250	2.840	0.510
1083.999	628.120	80.007	19.994	103.224	20.247	3.021	0.535
1085.999	629.149	80.006	19.995	103.231	20.246	3.114	0.510
1087.999	630.193	80.008	19.996	103.227	20.249	2.879	0.496
1090.000	631.249	80.007	19.995	103.226	20.246	3.084	0.549
1092.000	632.222	80.006	19.994	103.238	20.247	2.998	0.471
1094.000	633.242	80.006	19.995	103.236	20.245	3.177	0.510
1095.999	634.287	80.006	19.994	103.223	20.241	3.422	0.535
1097.999	635.285	80.006	19.994	103.245	20.246	3.088	0.525
1100.000	636.302	80.006	19.993	103.237	20.246	3.079	0.534
1102.000	637.275	80.007	19.994	103.247	20.245	3.172	0.475
1103.999	638.340	80.007	19.994	103.249	20.250	2.857	0.500
1105.999	639.351	80.007	19.995	103.249	20.246	3.085	0.483
1108.000	640.358	80.007	19.993	103.247	20.242	3.379	0.495
1109.999	641.376	80.008	19.993	103.251	20.245	3.168	0.527
1111.999	642.429	80.006	19.994	103.243	20.246	3.115	0.508
1113.999	643.538	80.009	19.993	103.250	20.247	3.024	0.570
1116.000	644.494	80.007	19.994	103.250	20.243	3.278	0.530
1118.000	645.486	80.009	19.995	103.249	20.246	3.113	0.503
1120.000	646.495	80.008	19.995	103.252	20.241	3.402	0.502
1121.999	647.542	80.006	19.994	103.254	20.241	3.405	0.512
1124.000	648.543	80.005	19.996	103.254	20.242	3.391	0.529
1126.000	649.586	80.006	19.994	103.261	20.242	3.393	0.519
1127.999	650.607	80.005	19.995	103.264	20.243	3.330	0.496
1129.999	651.659	80.006	19.994	103.257	20.244	3.224	0.482
1132.000	652.683	80.006	19.994	103.254	20.238	3.657	0.499
1133.999	653.647	80.007	19.994	103.262	20.243	3.276	0.452
1135.999	654.704	80.007	19.994	103.261	20.241	3.448	0.516
1137.999	655.693	80.006	19.994	103.264	20.240	3.482	0.520
1139.999	656.723	80.006	19.994	103.262	20.241	3.407	0.521
1142.000	657.763	80.006	19.994	103.261	20.239	3.550	0.518
1143.999	658.755	80.007	19.996	103.256	20.238	3.621	0.499
1145.999	659.758	80.006	19.994	103.261	20.237	3.726	0.513
1148.000	660.802	80.005	19.993	103.256	20.233	3.951	0.529
1150.000	661.784	80.006	19.993	103.262	20.236	3.795	0.498
1151.999	662.810	80.005	19.994	103.267	20.235	3.860	0.528
1154.000	663.792	80.005	19.995	103.267	20.232	4.029	0.517
1156.000	664.815	80.004	19.995	103.267	20.237	3.715	0.508
1157.999	665.796	80.005	19.995	103.268	20.241	3.444	0.529
1160.000	666.791	80.005	19.995	103.267	20.240	3.512	0.512
1161.999	667.887	80.005	19.993	103.272	20.238	3.645	0.606
1164.000	668.833	80.006	19.994	103.275	20.234	3.871	0.491
1165.999	669.867	80.006	19.994	103.267	20.242	3.343	0.514
1168.000	670.875	80.006	19.994	103.259	20.237	3.685	0.478
1170.000	671.911	80.007	19.994	103.273	20.237	3.705	0.514
1171.999	672.962	80.008	19.994	103.273	20.236	3.743	0.537
1173.999	673.915	80.008	19.994	103.263	20.241	3.431	0.465
1175.999	674.989	80.006	19.993	103.268	20.238	3.618	0.520
1177.999	675.997	80.007	19.994	103.262	20.240	3.489	0.494
1179.999	677.009	80.008	19.996	103.253	20.235	3.852	0.484
1181.999	678.006	80.006	19.996	103.255	20.238	3.642	0.489
1183.999	679.011	80.006	19.996	103.251	20.237	3.681	0.537
1185.999	680.030	80.006	19.995	103.254	20.235	3.848	0.512
1188.000	681.029	80.007	19.995	103.249	20.241	3.422	0.507
1189.999	682.026	80.007	19.996	103.250	20.237	3.694	0.499
1191.999	683.046	80.008	19.994	103.251	20.236	3.757	0.499
1193.999	684.049	80.010	19.994	103.251	20.238	3.625	0.507
1196.000	685.044	80.010	19.994	103.251	20.234	3.869	0.510
1197.999	686.106	80.009	19.993	103.245	20.244	3.249	0.494
1199.999	687.104	80.009	19.993	103.245	20.244	3.223	0.526
1202.000	688.142	80.008	19.993	103.244	20.245	3.193	0.552
1203.999	689.193	80.008	19.993	103.240	20.240	3.467	0.508
1205.999	690.221	80.006	19.994	103.232	20.243	3.319	0.539
1208.000	691.247	80.007	19.994	103.225	20.245	3.143	0.543
1210.000	692.324	80.006	19.993	103.219	20.244	3.215	0.531
1211.999	693.345	80.007	19.995	103.220	20.246	3.126	0.536
1213.999	694.406	80.007	19.994	103.216	20.242	3.372	0.504
1216.000	695.488	80.007	19.993	103.217	20.245	3.189	0.539
1217.999	696.464	80.006	19.994	103.212	20.244	3.243	0.536
1219.999	697.506	80.007	19.994	103.212	20.245	3.144	0.516
1221.999	698.520	80.006	19.992	103.201	20.248	2.944	0.511
1223.999	699.549	80.008	19.994	103.211	20.249	2.889	0.501
1226.000	700.581	80.007	19.994	103.209	20.251	2.778	0.501
1228.000	701.612	80.006	19.993	103.207	20.254	2.567	0.517
1229.999	702.642	80.006	19.993	103.209	20.249	2.889	0.494
1231.999	703.625	80.007	19.994	103.201	20.250	2.793	0.522
1234.000	704.668	80.006	19.993	103.207	20.250	2.800	0.518
1235.999	705.703	80.006	19.993	103.197	20.244	3.209	0.476
1238.000	706.740	80.006	19.995	103.197	20.244	3.222	0.512
1239.999	707.821	80.007	19.994	103.200	20.249	2.865	0.540
1242.000	708.795	80.007	19.995	103.201	20.244	3.222	0.500
1244.000	709.803	80.007	19.994	103.206	20.246	3.109	0.495
1246.000	710.832	80.005	19.994	103.191	20.245	3.192	0.510
1248.001	711.811	80.006	19.994	103.192	20.241	3.420	0.494
1249.999	712.828	80.007	19.994	103.209	20.242	3.374	0.465
1251.999	713.826	80.008	19.996	103.186	20.243	3.301	0.485
1254.000	714.870	80.008	19.995	103.187	20.247	3.011	0.510
1255.999	715.807	80.010	19.995	103.194	20.242	3.384	0.470
1257.999	716.871	80.008	19.994	103.186	20.242	3.330	0.523
1259.999	717.869	80.008	19.993	103.189	20.246	3.065	0.494
1261.999	718.864	80.009	19.994	103.191	20.244	3.254	0.501
1263.999	719.860	80.007	19.994	103.182	20.244	3.207	0.520
1265.999	720.876	80.007	19.993	103.208	20.250	2.848	0.508
1268.000	721.911	80.006	19.994	103.210	20.246	3.078	0.522
1270.000	722.899	80.008	19.995	103.207	20.248	2.972	0.498
1272.001	723.936	80.008	19.994	103.206	20.250	2.826	0.514
1273.999	724.934	80.009	19.995	103.206	20.249	2.904	0.511
1275.999	725.891	80.007	19.995	103.201	20.248	2.944	0.478
1277.999	726.892	80.007	19.995	103.210	20.246	3.066	0.463
1280.000	728.007	80.010	19.995	103.194	20.247	3.002	0.573
1282.000	728.945	80.008	19.995	103.198	20.246	3.094	0.509
1283.999	729.943	80.009	19.996	103.205	20.247	2.996	0.469
1285.999	730.949	80.008	19.994	103.210	20.249	2.872	0.489
1288.000	731.980	80.006	19.994	103.199	20.245	3.193	0.512
1290.000	732.980	80.007	19.994	103.201	20.249	2.874	0.462
1291.999	733.970	80.007	19.994	103.191	20.246	3.124	0.510
1293.999	734.933	80.007	19.994	103.193	20.247	3.053	0.476
1295.999	735.952	80.007	19.993	103.198	20.246	3.079	0.489
1298.000	736.938	80.007	19.993	103.204	20.248	2.941	0.497
1299.999	737.935	80.007	19.995	103.211	20.249	2.866	0.475
1302.000	738.898	80.006	19.994	103.208	20.247	3.000	0.476
1303.999	739.953	80.009	19.994	103.196	20.246	3.087	0.528
1305.999	740.961	80.006	19.994	103.203	20.247	3.026	0.488
1308.000	741.963	80.006	19.994	103.198	20.249	2.863	0.539
1309.999	742.956	80.008	19.994	103.202	20.248	2.961	0.514
1311.000	743.455	80.007	19.994	103.198	20.246	3.098	0.495