File: 01_Data/EPDM_Membrane/MCC/EPDM_Membrane_MCC_30K_min_211203_R2.txt
Sample ID:	C:\MCC\MCC Cal\Test\EPDM_Membrane_MCC_30K_min_211203_R2.txt
Sample Weight (mg):	4.17
Heating Rate (C/s):	0.5
Combustor Temp (C):	900
N2 Flow Rate (cc/min):	80
O2 Flow Rate (cc/min):	20
Calibration File:	C:\MCC\MCC Cal\Coeff1 JN10440_30_210304.txt.txt
T Correction Coefficients:	0	1.024463	0
Time Shift (s):	14
*
Time (s)	Temperature (C)	N2 flow rate (cc/min)	O2 flow rate (cc/min)	Flow Rate (cc/min)	Oxygen (%)	HRR (W/g)	Heating rate (C/s)
0.000	110.717	80.007	19.993	103.130	20.278	-0.141	0.026
2.000	110.745	80.007	19.995	103.131	20.276	0.017	-0.005
4.000	110.707	80.007	19.994	103.134	20.275	0.132	-0.025
6.000	110.705	80.007	19.994	103.135	20.279	-0.173	0.002
8.001	110.703	80.005	19.994	103.132	20.280	-0.228	-0.021
10.001	110.715	80.006	19.994	103.135	20.279	-0.156	0.036
12.001	110.712	80.006	19.994	103.136	20.276	0.036	0.001
14.000	110.691	80.006	19.994	103.143	20.275	0.162	-0.014
16.001	110.698	80.006	19.994	103.171	20.273	0.271	0.023
18.000	110.741	80.006	19.993	103.204	20.268	0.649	0.027
20.001	110.795	80.007	19.993	103.233	20.262	1.137	0.035
22.000	110.839	80.006	19.996	103.283	20.256	1.570	0.036
24.000	110.971	80.005	19.995	103.296	20.255	1.651	0.055
26.000	111.116	80.006	19.995	103.291	20.251	2.009	0.104
28.000	111.243	80.006	19.994	103.307	20.247	2.256	0.087
30.000	111.433	80.005	19.995	103.329	20.248	2.228	0.086
32.000	111.698	80.004	19.994	103.310	20.247	2.279	0.098
34.001	111.921	80.004	19.994	103.255	20.245	2.418	0.114
36.000	112.214	80.005	19.993	103.325	20.242	2.659	0.165
38.000	112.469	80.005	19.995	103.369	20.245	2.469	0.169
40.001	112.821	80.005	19.995	103.331	20.242	2.668	0.177
42.001	113.121	80.004	19.993	103.333	20.240	2.862	0.141
44.000	113.505	80.007	19.994	103.335	20.239	2.915	0.163
46.001	113.953	80.006	19.994	103.343	20.237	3.040	0.214
48.001	114.325	80.007	19.993	103.331	20.237	3.063	0.184
50.001	114.764	80.006	19.995	103.332	20.238	3.026	0.214
52.000	115.232	80.006	19.994	103.330	20.237	3.035	0.220
54.000	115.693	80.005	19.995	103.328	20.235	3.253	0.219
56.000	116.164	80.007	19.996	103.336	20.237	3.070	0.218
58.001	116.667	80.005	19.994	103.349	20.236	3.111	0.238
60.000	117.220	80.006	19.995	103.339	20.236	3.164	0.269
62.000	117.742	80.006	19.995	103.331	20.234	3.281	0.267
64.000	118.354	80.006	19.995	103.344	20.234	3.337	0.333
66.000	118.876	80.006	19.996	103.358	20.233	3.352	0.271
68.000	119.522	80.006	19.993	103.363	20.232	3.461	0.324
70.000	120.172	80.006	19.995	103.369	20.231	3.536	0.360
72.001	120.793	80.008	19.995	103.367	20.234	3.312	0.304
74.000	121.443	80.008	19.994	103.368	20.231	3.544	0.324
76.001	122.139	80.008	19.996	103.375	20.227	3.852	0.341
78.000	122.783	80.005	19.997	103.370	20.230	3.583	0.336
80.000	123.554	80.006	19.994	103.373	20.228	3.748	0.358
82.000	124.249	80.006	19.995	103.375	20.226	3.927	0.367
84.000	124.968	80.003	19.996	103.377	20.224	4.064	0.360
86.000	125.797	80.005	19.995	103.381	20.225	3.965	0.403
88.000	126.540	80.005	19.994	103.391	20.225	3.979	0.333
90.000	127.315	80.006	19.996	103.380	20.230	3.632	0.367
92.000	128.110	80.005	19.995	103.387	20.224	4.049	0.397
94.000	128.938	80.005	19.994	103.389	20.225	3.993	0.434
96.000	129.752	80.006	19.994	103.389	20.227	3.869	0.378
98.000	130.576	80.004	19.993	103.396	20.223	4.117	0.403
100.000	131.449	80.005	19.994	103.390	20.221	4.328	0.435
102.000	132.326	80.006	19.993	103.386	20.223	4.156	0.429
104.000	133.219	80.005	19.992	103.391	20.225	4.018	0.450
106.000	134.105	80.006	19.995	103.382	20.224	4.082	0.453
108.000	135.001	80.006	19.995	103.384	20.226	3.952	0.448
110.001	135.901	80.005	19.994	103.376	20.229	3.670	0.441
112.000	136.781	80.005	19.995	103.387	20.226	3.886	0.438
114.000	137.690	80.004	19.995	103.386	20.225	3.969	0.439
116.000	138.650	80.005	19.995	103.375	20.226	3.929	0.447
118.000	139.581	80.004	19.995	103.372	20.225	3.997	0.483
120.000	140.478	80.005	19.993	103.373	20.224	4.059	0.430
122.000	141.423	80.006	19.995	103.376	20.227	3.835	0.479
124.000	142.431	80.005	19.997	103.373	20.226	3.935	0.489
126.001	143.369	80.006	19.996	103.374	20.224	4.063	0.456
128.001	144.350	80.008	19.994	103.369	20.220	4.385	0.494
130.000	145.278	80.007	19.993	103.367	20.227	3.813	0.462
132.000	146.298	80.008	19.993	103.370	20.226	3.937	0.527
134.000	147.283	80.010	19.994	103.368	20.220	4.353	0.513
136.000	148.254	80.007	19.996	103.370	20.224	4.106	0.503
138.000	149.268	80.009	19.994	103.374	20.220	4.389	0.533
140.000	150.240	80.007	19.994	103.366	20.220	4.351	0.515
142.000	151.193	80.005	19.994	103.367	20.217	4.605	0.463
144.000	152.228	80.006	19.994	103.367	20.220	4.358	0.499
146.000	153.224	80.006	19.994	103.365	20.221	4.336	0.492
148.000	154.137	80.007	19.994	103.366	20.224	4.063	0.478
150.000	155.169	80.005	19.995	103.366	20.219	4.468	0.524
152.000	156.133	80.007	19.994	103.359	20.219	4.434	0.450
154.000	157.141	80.008	19.993	103.365	20.218	4.515	0.490
156.000	158.146	80.008	19.994	103.361	20.222	4.203	0.508
158.000	159.144	80.008	19.994	103.356	20.216	4.662	0.474
160.001	160.143	80.009	19.995	103.365	20.218	4.519	0.473
162.000	161.197	80.007	19.992	103.361	20.215	4.805	0.521
164.000	162.190	80.006	19.993	103.366	20.216	4.713	0.489
166.000	163.182	80.006	19.994	103.360	20.217	4.607	0.495
168.000	164.147	80.005	19.996	103.362	20.214	4.848	0.503
170.000	165.205	80.004	19.995	103.352	20.211	5.047	0.533
172.000	166.223	80.003	19.996	103.353	20.211	5.051	0.511
174.000	167.262	80.004	19.996	103.351	20.207	5.413	0.530
176.000	168.258	80.002	19.996	103.356	20.209	5.233	0.508
178.000	169.341	80.003	19.996	103.344	20.209	5.218	0.527
180.000	170.328	80.004	19.997	103.356	20.206	5.470	0.528
182.000	171.323	80.004	19.996	103.355	20.208	5.271	0.511
184.000	172.277	80.006	19.995	103.352	20.205	5.534	0.502
186.000	173.280	80.006	19.996	103.332	20.204	5.598	0.492
188.000	174.272	80.006	19.995	103.335	20.202	5.786	0.502
190.000	175.290	80.007	19.995	103.333	20.200	5.912	0.466
192.000	176.333	80.005	19.995	103.329	20.202	5.792	0.525
194.000	177.289	80.005	19.995	103.331	20.199	6.027	0.462
196.000	178.356	80.006	19.994	103.334	20.198	6.119	0.509
198.000	179.303	80.004	19.995	103.331	20.199	6.023	0.474
200.000	180.326	80.005	19.995	103.331	20.195	6.279	0.482
202.000	181.343	80.004	19.994	103.331	20.195	6.338	0.496
204.000	182.361	80.004	19.995	103.330	20.194	6.411	0.527
206.000	183.288	80.006	19.995	103.331	20.191	6.599	0.466
208.000	184.367	80.006	19.995	103.330	20.189	6.797	0.506
210.000	185.337	80.007	19.994	103.329	20.189	6.752	0.501
212.000	186.372	80.008	19.996	103.328	20.189	6.785	0.513
214.000	187.409	80.008	19.994	103.327	20.187	6.902	0.482
216.000	188.413	80.009	19.995	103.321	20.184	7.163	0.499
218.001	189.415	80.008	19.994	103.328	20.182	7.295	0.545
220.000	190.413	80.007	19.994	103.320	20.180	7.450	0.492
222.000	191.393	80.006	19.994	103.328	20.178	7.630	0.492
224.001	192.370	80.006	19.994	103.329	20.175	7.847	0.510
226.000	193.382	80.005	19.995	103.331	20.171	8.140	0.499
228.000	194.371	80.008	19.994	103.330	20.174	7.927	0.510
230.000	195.361	80.007	19.994	103.331	20.171	8.193	0.474
232.000	196.316	80.006	19.995	103.329	20.170	8.232	0.486
234.001	197.282	80.008	19.994	103.325	20.166	8.585	0.456
236.000	198.283	80.006	19.993	103.327	20.165	8.652	0.474
238.000	199.266	80.008	19.994	103.330	20.162	8.867	0.530
240.000	200.236	80.010	19.994	103.330	20.159	9.080	0.497
242.000	201.242	80.009	19.995	103.327	20.155	9.404	0.474
244.000	202.236	80.008	19.994	103.330	20.153	9.530	0.515
246.000	203.206	80.008	19.995	103.323	20.151	9.723	0.501
248.000	204.191	80.007	19.995	103.326	20.149	9.855	0.497
250.001	205.179	80.008	19.994	103.320	20.151	9.693	0.500
252.000	206.170	80.005	19.995	103.313	20.148	9.921	0.516
254.000	207.153	80.005	19.996	103.308	20.148	9.908	0.493
256.000	208.151	80.005	19.995	103.321	20.146	10.086	0.524
258.000	209.129	80.007	19.995	103.317	20.143	10.310	0.506
260.001	210.084	80.002	19.994	103.320	20.141	10.451	0.504
262.000	211.046	80.006	19.994	103.321	20.140	10.562	0.465
264.000	212.099	80.005	19.994	103.317	20.138	10.685	0.539
266.001	213.072	80.005	19.995	103.309	20.137	10.775	0.490
268.000	214.084	80.002	19.994	103.310	20.139	10.615	0.501
270.000	215.068	80.004	19.994	103.307	20.137	10.775	0.499
272.000	216.033	80.006	19.995	103.307	20.133	11.132	0.463
274.000	217.028	80.004	19.994	103.300	20.133	11.110	0.535
276.000	217.986	80.007	19.995	103.300	20.131	11.225	0.479
278.000	219.044	80.008	19.996	103.302	20.129	11.383	0.509
280.000	219.983	80.005	19.996	103.299	20.128	11.524	0.490
282.000	221.018	80.005	19.996	103.303	20.130	11.340	0.514
284.000	222.030	80.005	19.995	103.302	20.126	11.682	0.517
286.000	223.027	80.004	19.996	103.299	20.125	11.717	0.495
288.000	224.006	80.005	19.994	103.298	20.124	11.771	0.519
290.000	225.004	80.005	19.994	103.302	20.121	12.023	0.539
292.000	225.970	80.005	19.994	103.300	20.121	11.996	0.472
294.001	226.947	80.006	19.994	103.297	20.118	12.276	0.485
296.000	227.963	80.006	19.994	103.314	20.116	12.436	0.529
298.000	228.944	80.007	19.994	103.299	20.116	12.438	0.517
300.000	229.991	80.007	19.993	103.296	20.114	12.590	0.480
302.000	231.021	80.008	19.994	103.302	20.117	12.331	0.560
304.000	231.967	80.007	19.994	103.303	20.114	12.590	0.475
306.000	232.986	80.006	19.994	103.294	20.115	12.517	0.504
308.001	233.975	80.006	19.996	103.297	20.114	12.589	0.474
310.000	234.960	80.006	19.994	103.295	20.111	12.803	0.500
312.000	235.984	80.006	19.995	103.293	20.111	12.771	0.523
314.000	236.961	80.007	19.994	103.296	20.112	12.709	0.487
316.000	237.957	80.007	19.993	103.296	20.112	12.721	0.533
318.000	238.929	80.007	19.994	103.290	20.108	13.016	0.466
320.000	239.950	80.007	19.994	103.290	20.107	13.106	0.481
322.000	240.940	80.007	19.993	103.293	20.106	13.200	0.494
324.000	241.933	80.007	19.994	103.292	20.104	13.347	0.490
326.000	242.914	80.007	19.994	103.290	20.104	13.334	0.520
328.001	243.969	80.007	19.994	103.289	20.102	13.481	0.536
330.000	244.942	80.008	19.993	103.291	20.101	13.581	0.487
332.000	245.949	80.007	19.994	103.301	20.099	13.722	0.517
334.000	246.923	80.008	19.994	103.292	20.097	13.854	0.462
336.000	247.873	80.005	19.994	103.293	20.098	13.769	0.475
338.000	248.890	80.005	19.994	103.289	20.093	14.187	0.504
340.000	249.976	80.005	19.994	103.291	20.093	14.178	0.536
342.000	250.961	80.006	19.995	103.289	20.092	14.253	0.490
344.000	251.958	80.005	19.994	103.288	20.090	14.399	0.479
346.000	252.888	80.004	19.995	103.290	20.087	14.625	0.473
348.000	253.878	80.006	19.994	103.290	20.085	14.780	0.475
350.001	254.882	80.006	19.994	103.289	20.085	14.830	0.460
352.000	255.888	80.003	19.995	103.289	20.083	14.970	0.535
354.000	256.883	80.005	19.995	103.293	20.083	14.940	0.497
356.001	257.876	80.006	19.994	103.292	20.084	14.875	0.493
358.000	258.870	80.005	19.994	103.292	20.078	15.355	0.485
360.001	259.838	80.005	19.994	103.291	20.076	15.500	0.542
362.000	260.798	80.005	19.993	103.293	20.077	15.401	0.492
364.000	261.780	80.004	19.995	103.291	20.074	15.631	0.500
366.000	262.758	80.003	19.996	103.294	20.072	15.830	0.498
368.000	263.779	80.004	19.994	103.302	20.069	16.080	0.491
370.000	264.767	80.004	19.995	103.293	20.071	15.911	0.500
372.000	265.759	80.004	19.995	103.293	20.068	16.107	0.537
374.000	266.720	80.004	19.996	103.291	20.069	16.013	0.511
376.000	267.707	80.003	19.996	103.289	20.069	16.073	0.507
378.000	268.676	80.006	19.995	103.291	20.067	16.216	0.499
380.000	269.700	80.005	19.994	103.291	20.067	16.201	0.509
382.000	270.693	80.006	19.995	103.289	20.066	16.307	0.539
384.000	271.708	80.007	19.993	103.289	20.065	16.322	0.524
386.000	272.734	80.007	19.994	103.289	20.062	16.613	0.500
388.000	273.714	80.008	19.994	103.289	20.058	16.866	0.489
390.000	274.772	80.008	19.994	103.290	20.066	16.264	0.526
392.000	275.768	80.007	19.994	103.289	20.063	16.475	0.530
394.000	276.760	80.007	19.994	103.287	20.063	16.491	0.482
396.000	277.752	80.007	19.993	103.289	20.063	16.525	0.491
398.001	278.728	80.006	19.994	103.291	20.062	16.602	0.493
400.000	279.779	80.006	19.993	103.289	20.065	16.322	0.488
402.000	280.714	80.007	19.995	103.284	20.063	16.484	0.488
404.000	281.750	80.008	19.993	103.285	20.064	16.414	0.508
406.000	282.751	80.007	19.994	103.289	20.064	16.416	0.495
408.000	283.742	80.008	19.994	103.288	20.062	16.620	0.517
410.000	284.715	80.009	19.995	103.289	20.063	16.487	0.497
412.001	285.727	80.008	19.994	103.285	20.062	16.623	0.484
414.000	286.799	80.008	19.994	103.287	20.059	16.809	0.541
416.000	287.788	80.008	19.993	103.284	20.063	16.519	0.504
418.000	288.760	80.007	19.993	103.284	20.062	16.596	0.488
420.000	289.741	80.007	19.994	103.282	20.061	16.633	0.484
422.000	290.767	80.006	19.994	103.283	20.060	16.732	0.499
424.000	291.786	80.006	19.994	103.289	20.059	16.803	0.525
426.000	292.770	80.005	19.994	103.292	20.062	16.556	0.517
428.000	293.769	80.005	19.994	103.293	20.062	16.607	0.452
430.000	294.813	80.004	19.993	103.292	20.058	16.879	0.499
432.000	295.791	80.005	19.994	103.286	20.060	16.711	0.491
434.000	296.793	80.004	19.994	103.292	20.060	16.721	0.495
436.000	297.800	80.005	19.994	103.292	20.058	16.865	0.504
438.000	298.833	80.006	19.994	103.293	20.053	17.269	0.523
440.001	299.871	80.006	19.995	103.292	20.050	17.499	0.538
442.000	300.867	80.005	19.994	103.277	20.048	17.701	0.545
444.001	301.847	80.005	19.994	103.283	20.050	17.533	0.482
446.000	302.931	80.006	19.994	103.282	20.048	17.682	0.517
448.001	303.925	80.006	19.994	103.288	20.048	17.662	0.505
450.000	304.919	80.006	19.995	103.281	20.039	18.358	0.527
452.000	305.913	80.006	19.994	103.282	20.040	18.319	0.509
454.000	306.916	80.005	19.994	103.281	20.039	18.379	0.507
456.000	307.897	80.004	19.994	103.285	20.033	18.850	0.498
458.000	308.949	80.004	19.995	103.276	20.036	18.609	0.530
460.000	309.963	80.005	19.994	103.277	20.039	18.350	0.533
462.000	310.969	80.007	19.994	103.280	20.027	19.282	0.479
464.000	311.980	80.006	19.994	103.268	20.019	19.909	0.528
466.000	313.036	80.006	19.995	103.266	20.012	20.460	0.490
468.000	314.066	80.007	19.995	103.268	20.009	20.646	0.528
470.001	315.034	80.008	19.996	103.276	20.003	21.132	0.477
472.000	316.046	80.008	19.996	103.266	20.000	21.405	0.505
474.000	317.053	80.008	19.995	103.275	19.992	21.973	0.484
476.000	318.069	80.007	19.994	103.271	19.987	22.347	0.540
478.000	319.075	80.007	19.994	103.275	19.979	23.031	0.509
480.000	320.070	80.008	19.995	103.275	19.976	23.220	0.503
482.001	321.133	80.005	19.995	103.277	19.969	23.768	0.534
484.000	322.067	80.005	19.995	103.283	19.965	24.108	0.459
486.000	323.129	80.005	19.996	103.268	19.958	24.594	0.490
488.000	324.143	80.008	19.994	103.260	19.951	25.198	0.499
490.000	325.127	80.007	19.995	103.261	19.939	26.089	0.494
492.000	326.168	80.007	19.994	103.273	19.929	26.864	0.532
494.000	327.201	80.007	19.994	103.257	19.917	27.798	0.533
496.000	328.232	80.007	19.993	103.264	19.905	28.722	0.514
498.000	329.227	80.009	19.993	103.261	19.898	29.250	0.528
500.000	330.266	80.007	19.995	103.268	19.881	30.604	0.528
502.000	331.269	80.007	19.993	103.265	19.875	31.053	0.529
504.000	332.266	80.006	19.993	103.264	19.868	31.539	0.492
506.000	333.257	80.006	19.993	103.259	19.851	32.877	0.527
508.000	334.313	80.007	19.993	103.259	19.831	34.438	0.539
510.000	335.277	80.005	19.993	103.257	19.817	35.478	0.496
512.000	336.295	80.006	19.994	103.253	19.798	37.007	0.490
514.000	337.215	80.005	19.993	103.252	19.793	37.356	0.497
516.000	338.303	80.006	19.993	103.248	19.761	39.837	0.505
518.000	339.254	80.005	19.994	103.247	19.741	41.356	0.445
520.000	340.292	80.007	19.993	103.250	19.721	42.949	0.532
522.000	341.307	80.007	19.994	103.246	19.702	44.404	0.509
524.000	342.335	80.006	19.993	103.245	19.678	46.212	0.525
526.000	343.287	80.007	19.994	103.245	19.655	48.032	0.488
528.000	344.277	80.006	19.993	103.245	19.632	49.817	0.482
530.000	345.296	80.007	19.994	103.237	19.609	51.570	0.497
532.000	346.327	80.006	19.994	103.231	19.581	53.752	0.517
534.000	347.335	80.005	19.994	103.230	19.550	56.155	0.492
536.000	348.339	80.006	19.995	103.239	19.521	58.380	0.504
538.000	349.351	80.005	19.995	103.226	19.492	60.623	0.480
540.000	350.375	80.005	19.995	103.220	19.460	63.044	0.499
542.000	351.380	80.005	19.995	103.213	19.429	65.478	0.488
544.000	352.446	80.004	19.994	103.214	19.394	68.191	0.509
546.000	353.420	80.003	19.996	103.214	19.362	70.608	0.492
548.000	354.397	80.005	19.995	103.218	19.327	73.337	0.470
550.001	355.463	80.007	19.993	103.209	19.291	76.098	0.488
552.000	356.456	80.005	19.992	103.207	19.256	78.829	0.536
554.000	357.445	80.007	19.994	103.212	19.220	81.560	0.508
556.000	358.467	80.008	19.994	103.211	19.176	85.021	0.518
558.001	359.469	80.006	19.994	103.206	19.138	87.987	0.468
560.000	360.504	80.007	19.994	103.192	19.100	90.976	0.472
562.000	361.532	80.006	19.995	103.196	19.065	93.562	0.515
564.000	362.501	80.004	19.995	103.192	19.026	96.565	0.514
566.001	363.484	80.005	19.995	103.188	18.996	98.879	0.503
568.000	364.522	80.005	19.995	103.216	18.966	101.167	0.519
570.000	365.533	80.004	19.994	103.313	18.934	103.659	0.456
572.000	366.396	80.005	19.994	103.217	18.899	106.342	0.420
574.000	367.610	80.006	19.994	103.176	18.871	108.529	0.391
576.000	368.774	80.008	19.993	103.174	18.841	110.787	0.685
578.000	369.544	80.007	19.994	103.174	18.817	112.651	0.546
580.000	370.478	80.009	19.993	103.171	18.791	114.634	0.600
582.000	371.520	80.008	19.994	103.171	18.772	116.086	0.476
584.000	372.619	80.007	19.994	103.160	18.752	117.653	0.533
586.000	373.626	80.006	19.994	103.160	18.734	119.050	0.628
588.000	374.574	80.005	19.994	103.159	18.726	119.646	0.568
590.000	375.610	80.005	19.995	103.155	18.719	120.180	0.548
592.000	376.618	80.005	19.994	103.149	18.714	120.505	0.539
594.000	377.598	80.005	19.994	103.144	18.708	121.027	0.494
596.000	378.619	80.007	19.994	103.149	18.707	121.177	0.493
598.000	379.656	80.005	19.994	103.139	18.709	120.944	0.479
600.000	380.665	80.005	19.993	103.135	18.712	120.732	0.537
602.000	381.707	80.004	19.994	103.083	18.725	119.775	0.576
604.000	382.725	80.005	19.993	103.110	18.734	119.069	0.546
606.000	383.759	80.006	19.995	103.148	18.750	117.781	0.525
608.000	384.752	80.006	19.994	103.144	18.769	116.392	0.496
610.000	385.751	80.005	19.995	103.140	18.794	114.446	0.489
612.000	386.740	80.005	19.994	103.139	18.817	112.621	0.542
614.000	387.753	80.004	19.994	103.142	18.843	110.674	0.489
616.001	388.790	80.005	19.994	103.140	18.871	108.519	0.510
618.001	389.753	80.005	19.993	103.142	18.895	106.658	0.517
620.000	390.799	80.005	19.994	103.158	18.927	104.178	0.506
622.001	391.788	80.004	19.993	103.148	18.954	102.076	0.479
624.000	392.824	80.004	19.994	103.141	18.981	99.987	0.501
626.000	393.884	80.005	19.995	103.149	19.016	97.304	0.525
628.000	394.928	80.005	19.995	103.160	19.048	94.863	0.544
630.000	395.963	80.005	19.994	103.156	19.076	92.723	0.514
632.000	396.972	80.005	19.995	103.173	19.104	90.492	0.490
634.001	397.974	80.005	19.996	103.169	19.130	88.485	0.481
636.000	398.988	80.005	19.995	103.170	19.156	86.491	0.509
638.000	400.009	80.006	19.993	103.175	19.183	84.407	0.497
640.000	401.039	80.007	19.994	103.176	19.214	82.041	0.516
642.000	402.070	80.006	19.996	103.175	19.235	80.443	0.505
644.000	403.113	80.006	19.995	103.175	19.261	78.428	0.511
646.001	404.144	80.006	19.995	103.180	19.286	76.498	0.491
648.000	405.188	80.007	19.994	103.181	19.302	75.216	0.517
650.000	406.183	80.006	19.995	103.177	19.327	73.327	0.537
652.001	407.179	80.005	19.995	103.175	19.344	72.017	0.509
654.000	408.214	80.006	19.994	103.176	19.361	70.696	0.522
656.000	409.239	80.007	19.994	103.177	19.380	69.187	0.518
658.000	410.244	80.008	19.995	103.178	19.394	68.100	0.518
660.000	411.297	80.007	19.995	103.180	19.413	66.663	0.527
662.000	412.279	80.007	19.995	103.172	19.426	65.678	0.450
664.000	413.300	80.008	19.995	103.171	19.438	64.772	0.494
666.000	414.221	80.008	19.996	103.157	19.450	63.821	0.470
668.000	415.228	80.007	19.995	103.155	19.464	62.710	0.447
670.000	416.321	80.006	19.994	103.157	19.475	61.897	0.511
672.000	417.322	80.005	19.994	103.141	19.486	61.004	0.515
674.000	418.351	80.005	19.994	103.154	19.498	60.084	0.524
676.000	419.339	80.006	19.993	103.168	19.507	59.409	0.502
678.000	420.332	80.005	19.993	103.161	19.518	58.535	0.530
680.000	421.301	80.006	19.994	103.140	19.529	57.698	0.462
682.000	422.344	80.003	19.994	103.145	19.536	57.185	0.518
684.000	423.347	80.004	19.995	103.134	19.545	56.500	0.499
686.000	424.379	80.004	19.994	103.129	19.555	55.727	0.492
688.000	425.408	80.005	19.994	103.149	19.567	54.758	0.518
690.000	426.386	80.005	19.994	103.174	19.574	54.210	0.499
692.000	427.387	80.004	19.994	103.170	19.585	53.422	0.476
694.000	428.421	80.006	19.994	103.174	19.596	52.562	0.525
696.001	429.430	80.005	19.993	103.177	19.607	51.660	0.504
698.000	430.458	80.005	19.993	103.177	19.617	50.893	0.518
700.000	431.493	80.006	19.993	103.177	19.630	49.926	0.504
702.000	432.522	80.004	19.994	103.177	19.637	49.348	0.508
704.000	433.543	80.004	19.994	103.178	19.652	48.191	0.537
706.000	434.578	80.005	19.994	103.180	19.664	47.265	0.515
708.000	435.531	80.003	19.994	103.178	19.676	46.401	0.455
710.000	436.576	80.005	19.993	103.178	19.690	45.286	0.493
712.000	437.585	80.005	19.994	103.176	19.701	44.407	0.500
714.001	438.616	80.006	19.993	103.175	19.714	43.432	0.521
716.000	439.589	80.005	19.993	103.177	19.730	42.187	0.489
718.000	440.616	80.005	19.994	103.178	19.741	41.322	0.505
720.000	441.638	80.006	19.994	103.181	19.755	40.277	0.501
722.000	442.631	80.006	19.994	103.178	19.768	39.281	0.484
724.000	443.688	80.006	19.994	103.180	19.782	38.195	0.534
726.000	444.648	80.007	19.995	103.184	19.799	36.918	0.501
728.000	445.678	80.006	19.993	103.187	19.808	36.220	0.481
730.000	446.699	80.006	19.996	103.179	19.824	34.983	0.491
732.000	447.727	80.006	19.994	103.182	19.837	33.936	0.482
734.001	448.740	80.006	19.994	103.181	19.848	33.099	0.497
736.000	449.741	80.006	19.995	103.187	19.861	32.120	0.510
738.000	450.772	80.007	19.994	103.201	19.878	30.782	0.492
740.000	451.781	80.007	19.994	103.201	19.890	29.862	0.503
742.000	452.824	80.007	19.995	103.197	19.900	29.099	0.509
744.000	453.795	80.008	19.994	103.191	19.910	28.278	0.495
746.000	454.837	80.008	19.994	103.198	19.924	27.194	0.537
748.000	455.834	80.007	19.994	103.182	19.937	26.225	0.517
750.000	456.853	80.008	19.993	103.192	19.953	24.976	0.504
752.000	457.832	80.006	19.995	103.190	19.962	24.287	0.495
754.001	458.889	80.007	19.994	103.198	19.976	23.201	0.513
756.000	459.912	80.005	19.996	103.205	19.983	22.701	0.497
758.000	460.918	80.003	19.996	103.203	19.997	21.625	0.521
760.000	461.909	80.004	19.995	103.203	20.008	20.762	0.504
762.000	462.919	80.004	19.995	103.201	20.015	20.181	0.511
764.000	463.970	80.006	19.995	103.204	20.032	18.918	0.527
766.000	464.962	80.003	19.994	103.211	20.040	18.285	0.510
768.000	466.020	80.003	19.994	103.201	20.052	17.328	0.545
770.000	466.979	80.004	19.995	103.205	20.065	16.370	0.509
772.000	468.026	80.006	19.993	103.206	20.072	15.796	0.536
774.000	469.086	80.005	19.994	103.209	20.079	15.291	0.518
776.001	470.078	80.006	19.993	103.204	20.084	14.914	0.526
778.000	471.170	80.007	19.994	103.194	20.093	14.148	0.548
780.000	472.168	80.005	19.994	103.189	20.103	13.404	0.486
782.000	473.220	80.005	19.994	103.191	20.108	13.056	0.529
784.000	474.272	80.006	19.993	103.192	20.115	12.485	0.554
786.000	475.280	80.006	19.994	103.183	20.119	12.168	0.540
788.000	476.323	80.006	19.995	103.202	20.127	11.564	0.528
790.000	477.273	80.004	19.994	103.193	20.136	10.845	0.492
792.000	478.317	80.004	19.993	103.182	20.141	10.448	0.526
794.000	479.352	80.006	19.995	103.194	20.146	10.064	0.532
796.000	480.350	80.007	19.994	103.199	20.156	9.337	0.498
798.000	481.365	80.007	19.995	103.194	20.160	9.004	0.501
800.000	482.395	80.008	19.994	103.180	20.166	8.573	0.500
802.000	483.368	80.007	19.993	103.187	20.167	8.432	0.473
804.000	484.431	80.007	19.994	103.184	20.168	8.352	0.511
806.000	485.463	80.007	19.993	103.186	20.178	7.596	0.522
808.001	486.459	80.007	19.992	103.186	20.180	7.494	0.506
810.000	487.450	80.008	19.993	103.175	20.187	6.901	0.496
812.000	488.465	80.006	19.993	103.182	20.189	6.739	0.487
814.000	489.484	80.007	19.994	103.190	20.194	6.387	0.540
816.000	490.471	80.007	19.994	103.181	20.200	5.880	0.526
818.000	491.453	80.006	19.994	103.188	20.201	5.808	0.495
820.001	492.471	80.006	19.995	103.188	20.203	5.711	0.506
822.000	493.486	80.006	19.995	103.190	20.209	5.208	0.511
824.000	494.557	80.006	19.995	103.187	20.212	5.010	0.511
826.000	495.550	80.005	19.994	103.183	20.213	4.949	0.483
828.001	496.610	80.008	19.995	103.185	20.217	4.587	0.550
830.000	497.594	80.007	19.994	103.187	20.217	4.642	0.494
832.000	498.619	80.007	19.993	103.178	20.221	4.325	0.486
834.000	499.676	80.008	19.994	103.182	20.225	3.960	0.530
836.000	500.696	80.006	19.993	103.181	20.225	3.973	0.533
838.000	501.703	80.006	19.993	103.189	20.230	3.591	0.504
840.000	502.715	80.006	19.994	103.188	20.229	3.666	0.505
842.000	503.785	80.005	19.994	103.185	20.231	3.523	0.509
844.000	504.754	80.007	19.994	103.198	20.236	3.133	0.469
846.000	505.853	80.005	19.995	103.188	20.237	3.080	0.533
848.000	506.827	80.004	19.995	103.193	20.240	2.860	0.510
850.000	507.875	80.005	19.994	103.189	20.239	2.900	0.513
852.000	508.922	80.005	19.995	103.192	20.239	2.890	0.526
854.000	509.958	80.005	19.995	103.173	20.242	2.668	0.493
856.000	510.977	80.005	19.996	103.180	20.243	2.592	0.512
858.001	512.012	80.006	19.994	103.181	20.242	2.711	0.538
860.000	513.007	80.004	19.995	103.175	20.243	2.634	0.489
862.000	514.073	80.004	19.994	103.182	20.244	2.500	0.529
864.000	515.121	80.006	19.994	103.181	20.244	2.511	0.513
866.000	516.134	80.005	19.995	103.187	20.249	2.114	0.540
868.000	517.156	80.006	19.995	103.187	20.246	2.370	0.545
870.000	518.162	80.005	19.994	103.176	20.246	2.344	0.504
872.000	519.193	80.005	19.994	103.175	20.250	2.033	0.523
874.000	520.231	80.005	19.994	103.183	20.250	2.095	0.546
876.000	521.266	80.005	19.994	103.178	20.249	2.103	0.503
878.000	522.285	80.004	19.994	103.175	20.254	1.758	0.516
880.000	523.359	80.006	19.993	103.175	20.253	1.803	0.532
882.000	524.370	80.005	19.994	103.185	20.252	1.882	0.542
884.000	525.442	80.007	19.993	103.181	20.254	1.724	0.555
886.000	526.447	80.006	19.995	103.178	20.252	1.929	0.525
888.000	527.478	80.005	19.994	103.180	20.255	1.709	0.507
890.000	528.525	80.008	19.993	103.182	20.252	1.884	0.517
892.000	529.526	80.007	19.994	103.191	20.257	1.551	0.476
894.000	530.584	80.005	19.993	103.190	20.252	1.929	0.504
896.000	531.622	80.005	19.993	103.182	20.252	1.937	0.525
898.000	532.611	80.006	19.994	103.180	20.255	1.667	0.489
900.001	533.675	80.005	19.993	103.177	20.254	1.720	0.524
902.000	534.698	80.006	19.993	103.179	20.253	1.854	0.493
904.000	535.721	80.006	19.993	103.180	20.256	1.615	0.520
906.000	536.719	80.008	19.995	103.179	20.258	1.445	0.499
908.000	537.735	80.008	19.994	103.176	20.256	1.596	0.492
910.000	538.781	80.007	19.994	103.180	20.254	1.737	0.528
912.000	539.808	80.008	19.995	103.180	20.257	1.551	0.494
914.000	540.774	80.008	19.994	103.174	20.254	1.786	0.461
916.000	541.797	80.007	19.996	103.176	20.254	1.720	0.509
918.000	542.826	80.008	19.994	103.172	20.255	1.707	0.515
920.000	543.854	80.007	19.994	103.174	20.254	1.741	0.511
922.000	544.850	80.005	19.995	103.173	20.255	1.709	0.475
924.000	545.859	80.006	19.995	103.172	20.253	1.814	0.507
926.000	546.875	80.006	19.995	103.172	20.255	1.709	0.532
928.001	547.883	80.006	19.994	103.174	20.257	1.490	0.494
930.000	548.899	80.006	19.994	103.176	20.257	1.515	0.509
932.000	549.921	80.005	19.995	103.173	20.259	1.351	0.515
934.000	550.944	80.006	19.995	103.178	20.255	1.684	0.531
936.000	551.982	80.006	19.995	103.181	20.260	1.258	0.521
938.000	553.026	80.007	19.994	103.184	20.258	1.432	0.558
940.001	554.032	80.006	19.994	103.179	20.258	1.437	0.518
942.000	555.094	80.005	19.994	103.183	20.260	1.275	0.493
944.000	556.141	80.004	19.994	103.186	20.260	1.274	0.521
946.000	557.186	80.005	19.995	103.194	20.260	1.304	0.515
948.000	558.201	80.007	19.995	103.184	20.260	1.270	0.503
950.001	559.246	80.004	19.995	103.184	20.257	1.485	0.504
952.000	560.317	80.004	19.995	103.195	20.256	1.617	0.519
954.000	561.329	80.005	19.996	103.193	20.259	1.394	0.518
956.000	562.368	80.005	19.996	103.177	20.262	1.121	0.514
958.000	563.378	80.005	19.994	103.174	20.259	1.330	0.477
960.000	564.393	80.006	19.993	103.177	20.258	1.419	0.495
962.000	565.399	80.005	19.995	103.177	20.260	1.293	0.534
964.000	566.361	80.005	19.995	103.178	20.262	1.142	0.504
966.000	567.395	80.005	19.995	103.181	20.257	1.539	0.539
968.000	568.442	80.006	19.994	103.186	20.260	1.323	0.528
970.000	569.486	80.007	19.994	103.176	20.260	1.317	0.544
972.000	570.512	80.008	19.994	103.173	20.261	1.202	0.517
974.000	571.483	80.006	19.994	103.173	20.259	1.398	0.469
976.000	572.545	80.005	19.993	103.172	20.258	1.402	0.519
978.000	573.597	80.007	19.994	103.174	20.260	1.304	0.545
980.000	574.618	80.005	19.993	103.185	20.263	1.019	0.488
982.000	575.676	80.007	19.995	103.175	20.263	1.065	0.528
984.000	576.714	80.006	19.994	103.175	20.264	0.950	0.528
986.001	577.729	80.008	19.994	103.177	20.262	1.112	0.510
988.000	578.780	80.007	19.994	103.172	20.266	0.855	0.530
990.000	579.797	80.007	19.994	103.173	20.268	0.695	0.513
992.001	580.834	80.008	19.994	103.175	20.266	0.788	0.519
994.000	581.873	80.007	19.993	103.169	20.267	0.744	0.517
996.000	582.921	80.009	19.993	103.173	20.264	0.980	0.520
998.000	583.940	80.007	19.994	103.172	20.263	1.034	0.509
1000.000	584.949	80.008	19.994	103.172	20.263	1.089	0.528
1002.000	585.993	80.007	19.994	103.174	20.264	1.010	0.541
1004.000	587.061	80.005	19.994	103.176	20.264	0.940	0.519
1006.000	588.080	80.006	19.995	103.186	20.261	1.172	0.537
1008.001	589.115	80.006	19.994	103.183	20.261	1.206	0.503
1010.000	590.099	80.005	19.994	103.184	20.264	0.946	0.488
1012.000	591.132	80.003	19.993	103.177	20.266	0.857	0.517
1014.000	592.164	80.006	19.995	103.175	20.264	0.942	0.497
1016.000	593.150	80.005	19.995	103.175	20.265	0.925	0.516
1018.000	594.260	80.004	19.995	103.177	20.265	0.872	0.537
1020.000	595.283	80.005	19.993	103.179	20.269	0.601	0.521
1022.000	596.258	80.006	19.994	103.183	20.266	0.852	0.482
1024.000	597.338	80.004	19.994	103.182	20.270	0.535	0.534
1026.000	598.356	80.005	19.994	103.187	20.267	0.748	0.512
1028.001	599.399	80.005	19.994	103.192	20.272	0.371	0.517
1030.001	600.421	80.004	19.994	103.177	20.268	0.695	0.535
1032.001	601.465	80.005	19.994	103.177	20.272	0.367	0.534
1034.000	602.494	80.005	19.995	103.184	20.270	0.514	0.531
1036.001	603.526	80.004	19.994	103.184	20.271	0.473	0.530
1038.001	604.575	80.006	19.995	103.185	20.268	0.667	0.555
1040.000	605.619	80.004	19.995	103.179	20.268	0.705	0.526
1042.000	606.670	80.003	19.995	103.183	20.268	0.654	0.509
1044.000	607.685	80.005	19.995	103.178	20.268	0.633	0.502
1046.000	608.729	80.005	19.995	103.175	20.269	0.629	0.536
1048.000	609.772	80.006	19.995	103.180	20.265	0.897	0.521
1050.000	610.766	80.006	19.995	103.179	20.272	0.371	0.498
1052.001	611.781	80.007	19.995	103.180	20.269	0.627	0.506
1054.000	612.838	80.007	19.994	103.183	20.266	0.816	0.505
1056.001	613.843	80.007	19.994	103.184	20.268	0.682	0.512
1058.000	614.873	80.005	19.994	103.186	20.268	0.669	0.521
1060.001	615.906	80.007	19.994	103.179	20.269	0.563	0.516
1062.000	616.925	80.005	19.994	103.178	20.265	0.867	0.520
1064.000	617.969	80.007	19.994	103.183	20.269	0.599	0.523
1066.000	618.960	80.006	19.993	103.181	20.267	0.720	0.507
1068.001	619.964	80.006	19.993	103.179	20.269	0.569	0.515
1070.000	620.999	80.006	19.994	103.195	20.270	0.497	0.470
1072.000	622.005	80.006	19.994	103.186	20.267	0.776	0.485
1074.000	623.034	80.008	19.994	103.185	20.271	0.399	0.492
1076.000	624.050	80.007	19.993	103.185	20.271	0.433	0.496
1078.000	625.048	80.008	19.994	103.185	20.273	0.292	0.477
1080.001	626.045	80.008	19.994	103.198	20.269	0.578	0.489
1082.001	627.100	80.008	19.993	103.202	20.269	0.607	0.513
1084.001	628.105	80.006	19.994	103.201	20.270	0.492	0.523
1086.001	629.114	80.006	19.994	103.202	20.268	0.691	0.512
1088.000	630.183	80.004	19.993	103.200	20.272	0.371	0.554
1090.000	631.206	80.004	19.994	103.189	20.274	0.207	0.494
1092.001	632.242	80.004	19.993	103.198	20.274	0.185	0.497
1094.000	633.253	80.005	19.993	103.203	20.276	0.072	0.514
1096.002	634.303	80.005	19.994	103.200	20.273	0.245	0.539
1098.000	635.344	80.005	19.993	103.212	20.271	0.428	0.523
1100.001	636.367	80.006	19.994	103.207	20.271	0.416	0.522
1102.001	637.401	80.006	19.994	103.209	20.275	0.104	0.516
1104.000	638.417	80.004	19.994	103.208	20.275	0.151	0.471
1106.001	639.459	80.005	19.995	103.207	20.271	0.448	0.522
1108.000	640.470	80.006	19.996	103.209	20.273	0.292	0.477
1110.000	641.488	80.005	19.995	103.211	20.272	0.345	0.496
1112.001	642.499	80.005	19.995	103.212	20.271	0.441	0.483
1114.000	643.535	80.005	19.995	103.211	20.274	0.173	0.484
1116.001	644.526	80.005	19.995	103.212	20.272	0.356	0.519
1118.000	645.531	80.005	19.994	103.208	20.275	0.160	0.514
1120.000	646.512	80.003	19.995	103.211	20.273	0.252	0.496
1122.001	647.547	80.004	19.995	103.211	20.273	0.318	0.514
1124.000	648.551	80.006	19.995	103.213	20.274	0.203	0.522
1126.000	649.534	80.005	19.995	103.213	20.272	0.379	0.505
1128.000	650.612	80.005	19.995	103.212	20.269	0.620	0.544
1130.001	651.610	80.007	19.994	103.210	20.268	0.691	0.495
1132.001	652.601	80.005	19.995	103.210	20.271	0.437	0.513
1134.000	653.677	80.007	19.996	103.211	20.268	0.667	0.534
1136.000	654.699	80.005	19.994	103.212	20.269	0.603	0.507
1138.001	655.699	80.005	19.994	103.212	20.269	0.554	0.494
1140.001	656.738	80.004	19.995	103.214	20.268	0.669	0.516
1142.001	657.762	80.006	19.994	103.216	20.266	0.855	0.512
1144.001	658.846	80.005	19.995	103.220	20.270	0.486	0.599
1146.000	659.833	80.006	19.995	103.231	20.272	0.328	0.535
1148.000	660.818	80.005	19.994	103.226	20.274	0.230	0.523
1150.000	661.883	80.005	19.994	103.220	20.274	0.217	0.569
1152.000	662.881	80.005	19.995	103.222	20.276	0.083	0.534
1154.001	663.902	80.006	19.994	103.228	20.272	0.358	0.490
1156.001	664.943	80.007	19.992	103.217	20.271	0.441	0.527
1158.001	665.977	80.006	19.993	103.214	20.272	0.369	0.532
1160.000	667.025	80.007	19.993	103.216	20.269	0.556	0.511
1162.001	668.034	80.007	19.995	103.215	20.273	0.284	0.526
1164.000	669.086	80.005	19.994	103.216	20.273	0.247	0.545
1166.000	670.085	80.006	19.994	103.213	20.275	0.149	0.497
1168.000	671.057	80.005	19.994	103.218	20.273	0.247	0.508
1170.000	672.080	80.003	19.994	103.214	20.276	0.041	0.534
1172.000	673.102	80.005	19.993	103.219	20.274	0.173	0.499
1174.000	674.137	80.005	19.993	103.214	20.273	0.311	0.515
1176.000	675.212	80.005	19.994	103.216	20.271	0.463	0.526
1178.000	676.239	80.005	19.994	103.214	20.271	0.431	0.519
1180.000	677.281	80.005	19.993	103.215	20.273	0.277	0.524
1182.000	678.316	80.005	19.992	103.212	20.273	0.311	0.526
1184.000	679.365	80.004	19.993	103.213	20.277	-0.009	0.527
1186.000	680.413	80.005	19.994	103.212	20.275	0.094	0.535
1188.000	681.421	80.006	19.994	103.213	20.275	0.115	0.491
1190.000	682.423	80.006	19.993	103.212	20.277	-0.013	0.498
1192.000	683.470	80.005	19.994	103.211	20.279	-0.156	0.480
1194.000	684.531	80.006	19.994	103.212	20.280	-0.292	0.543
1196.000	685.554	80.004	19.993	103.201	20.278	-0.094	0.520
1198.000	686.577	80.004	19.994	103.191	20.279	-0.149	0.520
1200.000	687.581	80.003	19.994	103.198	20.282	-0.443	0.490
1202.001	688.622	80.003	19.995	103.183	20.281	-0.311	0.504
1204.001	689.665	80.003	19.996	103.180	20.285	-0.612	0.507
1206.000	690.702	80.005	19.997	103.178	20.281	-0.337	0.522
1208.000	691.712	80.005	19.995	103.179	20.284	-0.565	0.512
1210.001	692.740	80.006	19.993	103.176	20.280	-0.266	0.544
1212.001	693.811	80.007	19.994	103.181	20.282	-0.435	0.544
1214.000	694.813	80.006	19.994	103.177	20.282	-0.411	0.512
1216.000	695.880	80.006	19.995	103.177	20.283	-0.477	0.519
1218.000	696.898	80.007	19.994	103.176	20.281	-0.339	0.520
1220.001	697.911	80.005	19.994	103.174	20.280	-0.281	0.503
1222.000	698.914	80.004	19.994	103.176	20.281	-0.343	0.496
1224.000	699.897	80.005	19.995	103.175	20.283	-0.471	0.500
1226.001	700.948	80.005	19.994	103.174	20.283	-0.479	0.537
1228.001	701.971	80.005	19.995	103.175	20.283	-0.492	0.517
1230.001	702.967	80.007	19.995	103.169	20.280	-0.260	0.503
1232.001	703.974	80.005	19.994	103.169	20.284	-0.580	0.519
1234.000	704.987	80.007	19.995	103.168	20.282	-0.381	0.524
1236.000	705.936	80.005	19.995	103.166	20.286	-0.688	0.461
1238.001	706.940	80.008	19.994	103.160	20.285	-0.673	0.498
1240.000	707.924	80.008	19.993	103.163	20.282	-0.422	0.510
1242.001	708.928	80.008	19.993	103.168	20.281	-0.305	0.497
1244.000	709.924	80.007	19.994	103.170	20.283	-0.454	0.496
1246.000	710.884	80.006	19.993	103.169	20.283	-0.452	0.485
1248.000	711.858	80.006	19.994	103.169	20.285	-0.669	0.473
1250.000	712.904	80.005	19.994	103.171	20.282	-0.413	0.498
1252.001	713.922	80.005	19.994	103.172	20.287	-0.784	0.520
1254.000	714.894	80.006	19.994	103.167	20.288	-0.886	0.505
1256.000	715.917	80.005	19.994	103.169	20.288	-0.848	0.501
1258.001	716.891	80.006	19.994	103.171	20.283	-0.518	0.501
1260.001	717.908	80.006	19.993	103.170	20.284	-0.588	0.495
1262.000	718.906	80.004	19.994	103.171	20.288	-0.861	0.522
1264.000	719.929	80.005	19.995	103.167	20.286	-0.712	0.480
1266.001	720.960	80.004	19.994	103.171	20.287	-0.771	0.516
1268.002	721.945	80.006	19.993	103.174	20.289	-0.929	0.482
1270.001	723.003	80.006	19.994	103.169	20.287	-0.786	0.520
1272.000	723.935	80.004	19.994	103.164	20.292	-1.170	0.503
1274.000	724.924	80.005	19.994	103.171	20.289	-0.914	0.503
1276.001	725.945	80.006	19.993	103.174	20.286	-0.729	0.509
1278.001	726.896	80.005	19.994	103.172	20.287	-0.816	0.495
1280.000	727.903	80.005	19.994	103.173	20.286	-0.718	0.486
1282.001	728.915	80.003	19.995	103.173	20.286	-0.724	0.541
1284.000	729.873	80.005	19.995	103.176	20.288	-0.840	0.494
1286.002	730.877	80.005	19.995	103.168	20.286	-0.748	0.486
1288.001	731.894	80.004	19.994	103.170	20.287	-0.790	0.509
1290.000	732.907	80.006	19.994	103.170	20.287	-0.780	0.544
1292.001	733.900	80.005	19.994	103.162	20.288	-0.906	0.482
1294.001	734.847	80.006	19.994	103.161	20.286	-0.733	0.464
1296.001	735.849	80.007	19.994	103.160	20.288	-0.854	0.513
1298.002	736.812	80.007	19.994	103.151	20.289	-0.991	0.518
1300.000	737.818	80.008	19.994	103.162	20.288	-0.865	0.491
1302.001	738.801	80.007	19.995	103.168	20.286	-0.759	0.479
1304.000	739.789	80.006	19.994	103.169	20.288	-0.861	0.535
1306.000	740.834	80.006	19.995	103.165	20.284	-0.605	0.503
1308.000	741.821	80.006	19.995	103.156	20.285	-0.607	0.506
1310.001	742.870	80.007	19.994	103.153	20.288	-0.872	0.547
1311.501	743.600	80.007	19.995	103.162	20.287	-0.823	0.488