File: 01_Data/Tyvek_Wrap/MCC/Tyvek_Wrap_MCC_30K_min_220211_R3.txt
Sample ID:	C:\MCC\MCC Cal\Test\Tyvek_Wrap_MCC_30K_min_220211_R3.txt
Sample Weight (mg):	4.55
Heating Rate (C/s):	0.5
Combustor Temp (C):	900
N2 Flow Rate (cc/min):	80
O2 Flow Rate (cc/min):	20
Calibration File:	C:\MCC\MCC Cal\Coeff1 JN10440_30_210304.txt.txt
T Correction Coefficients:	0	1.024463	0
Time Shift (s):	14
*
Time (s)	Temperature (C)	N2 flow rate (cc/min)	O2 flow rate (cc/min)	Flow Rate (cc/min)	Oxygen (%)	HRR (W/g)	Heating rate (C/s)
0.000	112.321	80.011	19.994	103.627	19.894	0.193	0.007
2.000	112.314	80.010	19.992	103.626	19.892	0.306	-0.004
4.000	112.262	80.009	19.993	103.622	19.892	0.327	-0.011
6.000	112.287	80.008	19.993	103.627	19.887	0.675	-0.004
8.000	112.290	80.008	19.994	103.656	19.892	0.308	-0.004
10.000	112.319	80.007	19.993	103.666	19.886	0.745	0.028
12.000	112.348	80.007	19.993	103.685	19.883	1.006	-0.007
14.000	112.405	80.008	19.995	103.707	19.879	1.236	0.029
16.000	112.401	80.010	19.993	103.748	19.874	1.604	-0.014
18.000	112.474	80.008	19.993	103.770	19.875	1.577	0.045
20.000	112.595	80.008	19.993	103.781	19.873	1.688	0.066
22.000	112.770	80.008	19.993	103.768	19.872	1.747	0.088
24.000	112.923	80.009	19.993	103.748	19.872	1.747	0.046
26.000	113.068	80.009	19.993	103.727	19.873	1.669	0.057
28.000	113.228	80.009	19.993	103.732	19.871	1.806	0.073
30.000	113.430	80.009	19.992	103.755	19.871	1.804	0.113
32.000	113.643	80.008	19.993	103.777	19.869	1.970	0.112
34.000	113.873	80.007	19.994	103.758	19.869	1.970	0.129
36.000	114.114	80.008	19.994	103.757	19.867	2.119	0.091
38.000	114.343	80.007	19.994	103.785	19.866	2.181	0.131
40.000	114.612	80.006	19.995	103.810	19.863	2.367	0.128
42.000	114.897	80.007	19.994	103.831	19.864	2.319	0.137
44.000	115.243	80.008	19.993	103.838	19.859	2.651	0.184
46.000	115.576	80.006	19.994	103.831	19.856	2.870	0.218
48.000	115.924	80.007	19.994	103.857	19.858	2.763	0.196
50.000	116.332	80.009	19.994	103.840	19.852	3.164	0.193
52.001	116.724	80.010	19.993	103.842	19.854	3.022	0.206
54.001	117.178	80.010	19.993	103.828	19.852	3.154	0.228
56.000	117.586	80.010	19.992	103.836	19.852	3.154	0.246
58.000	118.089	80.010	19.995	103.854	19.849	3.408	0.241
60.000	118.573	80.009	19.994	103.852	19.851	3.252	0.271
62.001	119.037	80.010	19.994	103.837	19.848	3.480	0.221
64.000	119.577	80.007	19.994	103.853	19.847	3.522	0.276
66.000	120.108	80.009	19.993	103.885	19.849	3.427	0.259
68.001	120.710	80.008	19.994	103.890	19.847	3.527	0.322
70.000	121.332	80.009	19.994	103.900	19.844	3.777	0.274
72.000	121.945	80.009	19.994	103.877	19.846	3.602	0.331
74.001	122.618	80.010	19.995	103.901	19.846	3.636	0.341
76.001	123.260	80.009	19.994	103.901	19.845	3.690	0.313
78.001	123.954	80.009	19.994	103.880	19.845	3.672	0.362
80.000	124.648	80.011	19.993	103.893	19.844	3.756	0.388
82.000	125.366	80.011	19.994	103.872	19.841	3.934	0.364
84.001	126.013	80.011	19.993	103.878	19.842	3.922	0.342
86.000	126.778	80.011	19.993	103.866	19.841	3.937	0.365
88.000	127.507	80.010	19.993	103.881	19.845	3.688	0.380
90.000	128.237	80.009	19.993	103.899	19.844	3.755	0.349
92.000	128.976	80.008	19.994	103.911	19.846	3.620	0.382
94.000	129.753	80.008	19.996	103.916	19.848	3.488	0.391
96.000	130.530	80.008	19.993	103.891	19.846	3.623	0.396
98.000	131.351	80.008	19.993	103.908	19.846	3.619	0.411
100.000	132.162	80.008	19.993	103.904	19.844	3.761	0.413
102.000	133.016	80.009	19.992	103.881	19.842	3.889	0.420
104.000	133.848	80.008	19.993	103.893	19.846	3.598	0.440
106.000	134.711	80.008	19.993	103.904	19.846	3.631	0.468
108.000	135.573	80.009	19.992	103.897	19.845	3.716	0.404
110.000	136.449	80.008	19.993	103.883	19.843	3.846	0.430
112.001	137.308	80.008	19.994	103.899	19.844	3.730	0.413
114.000	138.177	80.008	19.993	103.912	19.844	3.739	0.409
116.000	139.107	80.007	19.992	103.905	19.842	3.929	0.434
118.000	140.012	80.008	19.994	103.899	19.840	4.033	0.463
120.000	140.892	80.008	19.993	103.897	19.846	3.602	0.451
122.001	141.819	80.008	19.993	103.902	19.843	3.816	0.452
124.000	142.722	80.007	19.993	103.850	19.840	4.068	0.434
126.000	143.654	80.008	19.994	103.861	19.842	3.916	0.455
128.000	144.624	80.008	19.993	103.945	19.844	3.751	0.462
130.000	145.575	80.009	19.994	103.908	19.843	3.828	0.491
132.000	146.521	80.008	19.994	103.902	19.844	3.763	0.494
134.000	147.475	80.010	19.994	103.899	19.845	3.709	0.466
136.000	148.381	80.009	19.995	103.897	19.847	3.539	0.482
138.000	149.361	80.009	19.993	103.898	19.849	3.416	0.476
140.000	150.384	80.010	19.993	103.891	19.848	3.494	0.517
142.000	151.304	80.011	19.995	103.893	19.847	3.575	0.495
144.000	152.253	80.009	19.994	103.888	19.847	3.543	0.459
146.000	153.289	80.009	19.994	103.896	19.843	3.838	0.495
148.000	154.275	80.009	19.993	103.882	19.848	3.455	0.503
150.000	155.169	80.009	19.994	103.820	19.847	3.564	0.493
152.000	156.218	80.009	19.995	103.916	19.848	3.468	0.516
154.000	157.201	80.008	19.993	103.926	19.848	3.437	0.509
156.000	158.199	80.008	19.994	103.899	19.847	3.536	0.472
158.000	159.138	80.009	19.994	103.899	19.853	3.132	0.469
160.000	160.132	80.010	19.994	103.894	19.851	3.224	0.484
162.000	161.143	80.009	19.994	103.875	19.849	3.372	0.483
164.000	162.133	80.010	19.995	103.870	19.843	3.839	0.469
166.000	163.129	80.010	19.994	103.871	19.847	3.519	0.529
168.000	164.113	80.008	19.994	103.869	19.848	3.433	0.512
170.000	165.113	80.008	19.995	103.869	19.847	3.558	0.494
172.000	166.149	80.007	19.995	103.862	19.846	3.622	0.480
174.000	167.133	80.007	19.995	103.871	19.848	3.479	0.511
176.000	168.073	80.008	19.994	103.894	19.852	3.206	0.466
178.000	169.120	80.009	19.994	103.886	19.847	3.557	0.477
180.000	170.129	80.008	19.993	103.884	19.848	3.497	0.499
182.000	171.167	80.007	19.993	103.877	19.848	3.456	0.528
184.000	172.136	80.007	19.993	103.868	19.847	3.516	0.470
186.000	173.104	80.008	19.994	103.868	19.847	3.571	0.491
188.000	174.134	80.007	19.994	103.869	19.848	3.465	0.504
190.000	175.115	80.008	19.994	103.863	19.845	3.686	0.492
192.000	176.120	80.007	19.994	103.856	19.845	3.680	0.471
194.000	177.163	80.009	19.994	103.861	19.847	3.530	0.508
196.000	178.084	80.009	19.995	103.861	19.845	3.678	0.465
198.000	179.155	80.008	19.995	103.859	19.844	3.774	0.492
200.000	180.092	80.009	19.994	103.859	19.847	3.534	0.473
202.000	181.142	80.009	19.995	103.851	19.844	3.725	0.501
204.000	182.089	80.008	19.993	103.861	19.846	3.590	0.479
206.000	183.117	80.007	19.994	103.868	19.849	3.400	0.489
208.000	184.092	80.008	19.994	103.857	19.846	3.613	0.490
210.000	185.053	80.009	19.994	103.849	19.849	3.422	0.484
212.000	186.098	80.008	19.995	103.861	19.850	3.323	0.520
214.000	187.108	80.009	19.994	103.861	19.850	3.342	0.512
216.000	188.112	80.008	19.994	103.847	19.846	3.604	0.519
218.000	189.092	80.010	19.994	103.838	19.850	3.303	0.512
220.000	190.107	80.009	19.994	103.861	19.847	3.526	0.517
222.000	191.105	80.010	19.993	103.855	19.849	3.408	0.463
224.000	192.088	80.010	19.993	103.851	19.848	3.472	0.486
226.000	193.086	80.010	19.993	103.863	19.851	3.224	0.504
228.000	194.109	80.010	19.994	103.856	19.851	3.244	0.509
230.000	195.068	80.008	19.993	103.858	19.849	3.409	0.482
232.000	196.062	80.009	19.995	103.844	19.850	3.296	0.498
234.000	197.078	80.008	19.994	103.831	19.850	3.313	0.521
236.000	198.047	80.008	19.994	103.827	19.851	3.229	0.506
238.000	199.051	80.008	19.994	103.829	19.848	3.471	0.505
240.000	200.034	80.007	19.995	103.849	19.846	3.600	0.486
242.000	201.012	80.008	19.994	103.856	19.852	3.176	0.491
244.000	202.018	80.011	19.994	103.848	19.850	3.336	0.520
246.000	203.005	80.011	19.994	103.848	19.852	3.199	0.468
248.000	204.005	80.009	19.993	103.852	19.850	3.355	0.498
250.000	205.039	80.010	19.995	103.845	19.848	3.490	0.500
252.000	206.022	80.009	19.994	103.839	19.853	3.123	0.506
254.000	206.955	80.009	19.993	103.836	19.848	3.437	0.468
256.000	208.035	80.006	19.994	103.824	19.850	3.290	0.521
258.000	208.949	80.008	19.994	103.828	19.847	3.516	0.490
260.000	209.979	80.008	19.995	103.823	19.850	3.353	0.481
262.000	210.958	80.009	19.995	103.831	19.849	3.383	0.488
264.000	211.990	80.008	19.996	103.836	19.847	3.519	0.522
266.000	212.960	80.007	19.995	103.843	19.852	3.209	0.487
268.000	213.914	80.008	19.994	103.856	19.849	3.373	0.450
270.000	214.935	80.007	19.996	103.830	19.855	2.975	0.487
272.000	215.945	80.007	19.997	103.835	19.857	2.842	0.504
274.000	216.962	80.008	19.995	103.825	19.854	3.035	0.516
276.000	217.933	80.008	19.993	103.831	19.857	2.834	0.467
278.000	218.896	80.010	19.993	103.846	19.855	2.965	0.483
280.000	219.927	80.008	19.994	103.840	19.854	3.006	0.518
282.000	220.924	80.008	19.993	103.832	19.851	3.219	0.506
284.000	221.955	80.008	19.994	103.823	19.855	2.977	0.484
286.000	222.960	80.007	19.994	103.826	19.852	3.174	0.502
288.000	223.942	80.008	19.993	103.824	19.853	3.096	0.483
290.000	224.945	80.007	19.993	103.823	19.853	3.087	0.493
292.000	225.931	80.008	19.994	103.824	19.852	3.173	0.515
294.000	226.947	80.007	19.995	103.824	19.855	2.995	0.516
296.000	227.947	80.008	19.994	103.825	19.852	3.212	0.501
298.000	228.986	80.008	19.993	103.837	19.856	2.925	0.500
300.000	229.964	80.007	19.993	103.846	19.855	2.956	0.510
302.000	231.056	80.008	19.994	103.861	19.858	2.742	0.556
304.000	231.998	80.010	19.993	103.860	19.854	3.031	0.487
306.000	232.989	80.009	19.992	103.827	19.853	3.106	0.475
308.000	233.983	80.010	19.994	103.802	19.852	3.187	0.487
310.000	234.984	80.008	19.994	103.802	19.849	3.384	0.480
312.000	235.977	80.009	19.992	103.791	19.850	3.328	0.487
314.000	236.983	80.009	19.993	103.807	19.851	3.246	0.479
316.000	237.971	80.009	19.993	103.829	19.852	3.203	0.486
318.000	238.976	80.010	19.993	103.835	19.851	3.279	0.481
320.000	239.938	80.007	19.994	103.812	19.852	3.216	0.468
322.000	240.932	80.009	19.994	103.821	19.852	3.179	0.490
324.000	241.913	80.009	19.994	103.831	19.853	3.109	0.479
326.000	242.893	80.009	19.994	103.824	19.856	2.894	0.473
328.000	243.888	80.010	19.993	103.821	19.858	2.783	0.500
330.000	244.879	80.010	19.994	103.826	19.850	3.325	0.521
332.000	245.886	80.010	19.996	103.802	19.853	3.132	0.490
334.000	246.918	80.010	19.994	103.812	19.848	3.438	0.510
336.000	247.884	80.010	19.994	103.814	19.852	3.189	0.479
338.000	248.918	80.008	19.995	103.812	19.853	3.142	0.524
340.000	249.940	80.008	19.993	103.814	19.851	3.255	0.509
342.000	250.953	80.009	19.994	103.813	19.851	3.287	0.499
344.000	251.969	80.008	19.994	103.812	19.854	3.012	0.501
346.000	252.972	80.008	19.993	103.812	19.855	2.988	0.507
348.000	253.967	80.007	19.994	103.822	19.850	3.304	0.516
350.000	254.988	80.009	19.993	103.808	19.854	3.026	0.517
352.000	255.994	80.007	19.995	103.810	19.855	2.959	0.510
354.000	256.999	80.008	19.995	103.825	19.857	2.821	0.525
356.000	257.991	80.009	19.994	103.823	19.855	2.936	0.525
358.000	258.991	80.008	19.995	103.807	19.855	2.974	0.509
360.000	259.971	80.007	19.994	103.820	19.857	2.829	0.495
362.000	260.990	80.008	19.994	103.841	19.856	2.915	0.501
364.000	261.947	80.008	19.995	103.824	19.858	2.773	0.490
366.000	262.989	80.007	19.995	103.824	19.858	2.742	0.482
368.000	264.012	80.006	19.995	103.825	19.856	2.889	0.494
370.000	264.994	80.007	19.994	103.801	19.856	2.924	0.480
372.000	265.989	80.008	19.993	103.798	19.851	3.253	0.497
374.000	266.999	80.008	19.994	103.795	19.853	3.134	0.488
376.000	267.993	80.007	19.994	103.822	19.853	3.124	0.496
378.000	269.025	80.007	19.994	103.822	19.858	2.744	0.499
380.000	270.080	80.008	19.993	103.830	19.857	2.855	0.527
382.000	271.069	80.008	19.993	103.817	19.854	3.017	0.507
384.000	272.068	80.009	19.994	103.796	19.853	3.142	0.511
386.000	273.028	80.009	19.994	103.784	19.854	3.042	0.490
388.000	274.015	80.010	19.994	103.786	19.856	2.896	0.515
390.000	275.024	80.010	19.993	103.799	19.849	3.379	0.488
392.000	276.064	80.011	19.995	103.786	19.854	3.071	0.517
394.000	277.026	80.010	19.993	103.806	19.855	2.958	0.456
396.000	278.009	80.009	19.994	103.812	19.851	3.227	0.480
398.000	279.042	80.010	19.994	103.789	19.855	2.976	0.505
400.000	280.045	80.009	19.994	103.793	19.852	3.161	0.508
402.000	281.074	80.010	19.993	103.798	19.854	3.015	0.502
404.000	282.022	80.010	19.993	103.797	19.852	3.210	0.485
406.000	283.033	80.009	19.992	103.793	19.857	2.832	0.509
408.000	284.056	80.011	19.992	103.786	19.855	3.001	0.516
410.000	285.015	80.011	19.993	103.794	19.855	2.997	0.493
412.000	286.013	80.011	19.993	103.795	19.855	2.962	0.516
414.000	287.046	80.012	19.992	103.812	19.855	2.989	0.500
416.000	288.017	80.010	19.994	103.811	19.856	2.911	0.502
418.000	289.040	80.009	19.993	103.798	19.851	3.233	0.505
420.000	290.029	80.010	19.995	103.787	19.854	3.024	0.523
422.000	291.070	80.007	19.993	103.787	19.855	2.942	0.515
424.000	292.078	80.009	19.993	103.794	19.855	2.960	0.543
426.000	293.046	80.007	19.994	103.797	19.852	3.161	0.486
428.000	294.038	80.008	19.995	103.785	19.854	3.040	0.456
430.000	295.078	80.006	19.994	103.788	19.854	3.040	0.521
432.000	296.059	80.007	19.994	103.788	19.853	3.122	0.502
434.000	297.090	80.008	19.995	103.788	19.854	3.042	0.527
436.000	298.117	80.007	19.993	103.802	19.855	2.990	0.519
438.000	299.108	80.009	19.993	103.795	19.851	3.229	0.500
440.000	300.139	80.010	19.993	103.798	19.856	2.907	0.534
442.000	301.140	80.009	19.993	103.800	19.856	2.886	0.509
444.000	302.137	80.009	19.992	103.807	19.858	2.761	0.508
446.000	303.115	80.008	19.994	103.799	19.853	3.131	0.484
448.000	304.138	80.009	19.994	103.808	19.852	3.198	0.502
450.000	305.137	80.007	19.993	103.791	19.854	3.026	0.519
452.000	306.138	80.007	19.995	103.792	19.856	2.927	0.536
454.000	307.160	80.008	19.995	103.802	19.853	3.140	0.512
456.000	308.127	80.009	19.994	103.784	19.852	3.202	0.509
458.000	309.147	80.008	19.994	103.786	19.855	2.987	0.506
460.000	310.160	80.007	19.997	103.785	19.853	3.116	0.499
462.000	311.181	80.008	19.995	103.789	19.853	3.098	0.516
464.000	312.200	80.007	19.994	103.810	19.857	2.825	0.506
466.000	313.202	80.009	19.994	103.794	19.851	3.274	0.521
468.000	314.240	80.009	19.994	103.782	19.859	2.710	0.507
470.000	315.243	80.009	19.993	103.780	19.854	3.032	0.493
472.000	316.229	80.009	19.994	103.789	19.852	3.178	0.519
474.000	317.243	80.009	19.995	103.781	19.853	3.137	0.527
476.000	318.254	80.011	19.993	103.790	19.856	2.907	0.499
478.000	319.247	80.010	19.994	103.792	19.852	3.155	0.495
480.000	320.274	80.009	19.993	103.786	19.853	3.118	0.495
482.000	321.269	80.010	19.994	103.792	19.857	2.853	0.525
484.000	322.314	80.008	19.995	103.780	19.853	3.096	0.506
486.000	323.292	80.008	19.993	103.780	19.854	3.067	0.505
488.000	324.302	80.010	19.994	103.785	19.852	3.153	0.518
490.000	325.299	80.008	19.993	103.774	19.853	3.137	0.502
492.000	326.304	80.009	19.994	103.786	19.854	3.063	0.524
494.000	327.299	80.010	19.993	103.787	19.851	3.221	0.502
496.000	328.364	80.011	19.992	103.787	19.859	2.706	0.537
498.000	329.321	80.011	19.994	103.788	19.857	2.822	0.464
500.000	330.341	80.010	19.993	103.787	19.854	3.042	0.504
502.000	331.321	80.009	19.992	103.789	19.855	2.979	0.493
504.000	332.337	80.009	19.993	103.785	19.855	2.937	0.476
506.000	333.365	80.008	19.992	103.783	19.856	2.887	0.522
508.000	334.386	80.008	19.993	103.787	19.856	2.895	0.505
510.000	335.417	80.009	19.992	103.787	19.856	2.917	0.534
512.000	336.438	80.007	19.995	103.784	19.857	2.835	0.517
514.000	337.460	80.009	19.993	103.793	19.858	2.747	0.526
516.000	338.479	80.008	19.994	103.782	19.856	2.884	0.511
518.000	339.453	80.008	19.994	103.767	19.853	3.079	0.495
520.001	340.501	80.008	19.995	103.778	19.853	3.085	0.508
522.000	341.526	80.009	19.992	103.778	19.854	3.014	0.533
524.000	342.497	80.007	19.995	103.783	19.856	2.901	0.512
526.000	343.502	80.009	19.994	103.783	19.851	3.254	0.476
528.000	344.516	80.008	19.993	103.783	19.856	2.903	0.527
530.000	345.517	80.010	19.994	103.783	19.853	3.102	0.516
532.000	346.494	80.009	19.993	103.784	19.855	2.944	0.514
534.000	347.508	80.008	19.995	103.782	19.856	2.882	0.498
536.000	348.539	80.007	19.994	103.784	19.860	2.603	0.516
538.000	349.510	80.008	19.993	103.789	19.860	2.593	0.489
540.000	350.519	80.008	19.994	103.783	19.855	2.932	0.516
542.000	351.551	80.009	19.995	103.790	19.857	2.796	0.488
544.001	352.593	80.008	19.995	103.785	19.857	2.851	0.540
546.000	353.565	80.008	19.994	103.787	19.854	3.024	0.487
548.000	354.609	80.008	19.996	103.783	19.853	3.096	0.526
550.000	355.595	80.009	19.994	103.773	19.854	3.067	0.497
552.000	356.642	80.010	19.995	103.773	19.855	2.958	0.539
554.000	357.644	80.009	19.994	103.781	19.852	3.170	0.492
556.000	358.670	80.011	19.993	103.771	19.852	3.166	0.507
558.000	359.642	80.010	19.994	103.769	19.853	3.100	0.500
560.000	360.700	80.009	19.995	103.784	19.852	3.159	0.497
562.000	361.694	80.008	19.993	103.785	19.848	3.484	0.521
564.000	362.710	80.009	19.992	103.784	19.849	3.371	0.498
566.000	363.725	80.010	19.993	103.783	19.851	3.286	0.529
568.000	364.723	80.010	19.993	103.783	19.853	3.137	0.472
570.000	365.741	80.008	19.993	103.786	19.851	3.273	0.486
572.000	366.803	80.010	19.994	103.785	19.852	3.209	0.543
574.000	367.778	80.009	19.992	103.786	19.852	3.155	0.499
576.000	368.785	80.010	19.993	103.784	19.848	3.467	0.497
578.000	369.825	80.010	19.993	103.785	19.850	3.356	0.506
580.000	370.859	80.010	19.993	103.774	19.847	3.556	0.513
582.000	371.847	80.012	19.992	103.777	19.849	3.416	0.479
584.000	372.900	80.010	19.992	103.782	19.848	3.429	0.498
586.001	373.960	80.010	19.992	103.778	19.851	3.285	0.510
588.000	374.989	80.009	19.996	103.778	19.850	3.357	0.530
590.000	375.958	80.008	19.993	103.782	19.850	3.318	0.491
592.000	377.003	80.009	19.993	103.781	19.850	3.335	0.528
594.000	377.996	80.009	19.993	103.783	19.849	3.385	0.487
596.000	379.026	80.010	19.992	103.762	19.849	3.406	0.494
598.000	380.083	80.009	19.994	103.767	19.846	3.626	0.508
600.000	381.125	80.009	19.994	103.764	19.848	3.490	0.554
602.000	382.108	80.009	19.993	103.751	19.844	3.749	0.493
604.000	383.156	80.008	19.993	103.764	19.843	3.813	0.506
606.000	384.185	80.009	19.994	103.779	19.844	3.753	0.525
608.000	385.171	80.009	19.992	103.776	19.843	3.798	0.499
610.000	386.199	80.010	19.993	103.775	19.843	3.821	0.489
612.000	387.201	80.009	19.994	103.763	19.841	3.995	0.490
614.000	388.263	80.009	19.994	103.775	19.841	3.957	0.503
616.000	389.235	80.009	19.994	103.769	19.840	4.065	0.494
618.000	390.283	80.008	19.993	103.781	19.835	4.410	0.522
620.000	391.316	80.006	19.994	103.766	19.837	4.260	0.548
622.000	392.354	80.007	19.994	103.778	19.837	4.218	0.537
624.000	393.362	80.007	19.994	103.765	19.836	4.283	0.518
626.001	394.406	80.008	19.994	103.768	19.831	4.671	0.514
628.000	395.485	80.007	19.993	103.772	19.829	4.821	0.553
630.000	396.482	80.008	19.995	103.774	19.831	4.676	0.476
632.000	397.469	80.008	19.994	103.787	19.827	4.946	0.487
634.000	398.470	80.011	19.994	103.774	19.827	4.951	0.466
636.000	399.489	80.008	19.993	103.756	19.825	5.128	0.480
638.000	400.513	80.008	19.993	103.761	19.821	5.415	0.470
640.000	401.494	80.009	19.995	103.753	19.818	5.579	0.480
642.000	402.512	80.007	19.995	103.761	19.817	5.645	0.515
644.000	403.559	80.008	19.993	103.761	19.812	6.000	0.532
646.000	404.563	80.009	19.995	103.757	19.810	6.169	0.504
648.000	405.658	80.009	19.994	103.751	19.808	6.303	0.560
650.000	406.615	80.007	19.994	103.748	19.804	6.582	0.515
652.000	407.645	80.007	19.996	103.758	19.804	6.580	0.522
654.000	408.654	80.009	19.994	103.747	19.803	6.664	0.499
656.000	409.670	80.008	19.994	103.745	19.799	6.924	0.520
658.000	410.748	80.009	19.995	103.763	19.797	7.108	0.545
660.000	411.752	80.010	19.993	103.776	19.796	7.154	0.487
662.000	412.749	80.011	19.993	103.755	19.790	7.584	0.508
664.000	413.731	80.009	19.994	103.748	19.785	7.917	0.484
666.000	414.804	80.010	19.994	103.747	19.780	8.268	0.518
668.000	415.837	80.009	19.993	103.761	19.779	8.387	0.546
670.000	416.901	80.009	19.993	103.761	19.772	8.856	0.530
672.000	417.968	80.007	19.994	103.766	19.764	9.437	0.555
674.001	419.004	80.007	19.993	103.783	19.756	9.978	0.520
676.000	420.054	80.009	19.993	103.722	19.750	10.412	0.501
678.000	421.111	80.007	19.994	103.718	19.748	10.567	0.507
680.000	422.141	80.009	19.994	103.793	19.746	10.751	0.484
682.000	423.202	80.008	19.992	103.777	19.742	10.993	0.516
684.000	424.238	80.007	19.993	103.749	19.741	11.083	0.530
686.000	425.274	80.009	19.992	103.747	19.731	11.772	0.503
688.000	426.314	80.008	19.995	103.749	19.729	11.956	0.511
690.000	427.363	80.008	19.993	103.754	19.731	11.825	0.517
692.001	428.416	80.008	19.994	103.775	19.727	12.100	0.540
694.000	429.466	80.009	19.993	103.788	19.722	12.412	0.533
696.000	430.463	80.010	19.992	103.734	19.715	12.891	0.540
698.000	431.474	80.009	19.993	103.765	19.707	13.495	0.483
700.000	432.537	80.008	19.993	103.832	19.698	14.163	0.523
702.000	433.556	80.008	19.993	103.784	19.684	15.108	0.505
704.001	434.606	80.007	19.993	103.782	19.671	16.065	0.517
706.000	435.587	80.008	19.994	103.766	19.653	17.361	0.503
708.000	436.648	80.007	19.993	103.755	19.645	17.888	0.515
710.000	437.692	80.006	19.993	103.750	19.627	19.181	0.497
712.000	438.695	80.008	19.994	103.748	19.613	20.208	0.482
714.000	439.708	80.008	19.994	103.751	19.598	21.248	0.530
716.000	440.716	80.008	19.993	103.750	19.577	22.739	0.492
718.000	441.680	80.010	19.993	103.744	19.555	24.341	0.492
720.000	442.714	80.011	19.995	103.739	19.531	26.001	0.486
722.000	443.707	80.010	19.994	103.731	19.506	27.763	0.520
724.000	444.711	80.009	19.994	103.725	19.475	29.958	0.497
726.000	445.745	80.009	19.994	103.732	19.441	32.381	0.500
728.000	446.727	80.009	19.993	103.733	19.422	33.780	0.503
730.000	447.754	80.010	19.993	103.724	19.385	36.377	0.500
732.000	448.815	80.009	19.994	103.725	19.339	39.644	0.486
734.000	449.698	80.010	19.995	103.707	19.299	42.494	0.440
736.001	450.717	80.010	19.995	103.704	19.245	46.298	0.435
738.000	451.714	80.010	19.993	103.701	19.199	49.638	0.489
740.000	452.559	80.011	19.994	103.693	19.146	53.379	0.228
742.000	453.968	80.011	19.994	103.689	19.094	57.035	1.037
744.000	454.985	80.010	19.995	103.665	19.031	61.598	0.213
746.000	455.849	80.010	19.993	103.663	18.970	65.878	0.379
748.000	456.796	80.008	19.995	103.677	18.901	70.732	0.455
750.000	457.772	80.009	19.994	103.677	18.816	76.652	0.410
752.000	458.847	80.008	19.996	103.670	18.710	84.242	0.507
754.000	459.829	80.008	19.994	103.699	18.572	94.139	0.560
756.000	460.858	80.008	19.994	103.727	18.448	102.990	0.501
758.000	461.923	80.008	19.994	103.645	18.352	109.739	0.499
760.000	462.958	80.007	19.994	103.522	18.261	116.079	0.524
762.000	463.989	80.008	19.994	103.467	18.156	123.487	0.527
764.000	464.968	80.008	19.995	103.549	18.006	134.191	0.495
766.000	466.023	80.007	19.992	103.680	17.849	145.395	0.504
768.000	467.004	80.008	19.993	103.670	17.701	155.814	0.539
770.000	467.978	80.007	19.994	103.533	17.556	166.051	0.483
772.000	469.030	80.009	19.994	103.452	17.403	176.824	0.522
774.000	470.002	80.009	19.994	103.440	17.223	189.559	0.507
776.000	471.047	80.010	19.994	103.534	17.043	202.181	0.473
778.000	472.069	80.008	19.994	103.515	16.847	215.841	0.526
780.000	473.067	80.008	19.992	103.447	16.634	230.760	0.502
782.000	474.093	80.009	19.994	103.438	16.397	247.433	0.524
784.000	475.118	80.009	19.995	103.391	16.130	266.194	0.508
786.000	476.095	80.008	19.994	103.377	15.856	285.360	0.491
788.000	477.086	80.008	19.993	103.278	15.563	305.871	0.501
790.000	478.142	80.008	19.994	103.179	15.256	327.214	0.533
792.000	479.128	80.008	19.994	103.114	14.925	350.354	0.530
794.000	480.118	80.008	19.993	103.116	14.580	374.370	0.499
796.000	481.120	80.009	19.994	103.021	14.217	399.616	0.485
798.000	482.162	80.009	19.994	102.959	13.842	425.796	0.517
800.000	483.130	80.009	19.995	102.874	13.461	452.458	0.501
802.000	484.103	80.011	19.994	102.806	13.069	479.713	0.498
804.000	485.097	80.010	19.995	102.735	12.689	506.132	0.493
806.000	486.097	80.010	19.993	102.635	12.303	532.795	0.467
808.000	487.096	80.008	19.994	102.584	11.928	558.834	0.481
810.000	488.058	80.009	19.994	102.543	11.561	584.029	0.466
812.000	489.060	80.009	19.997	102.498	11.201	609.362	0.508
814.000	490.090	80.008	19.996	102.432	10.866	632.922	0.544
816.000	491.088	80.009	19.994	102.364	10.560	654.851	0.515
818.000	492.072	80.009	19.994	102.309	10.310	672.690	0.459
820.000	493.099	80.007	19.994	102.240	10.110	684.539	0.516
822.000	494.136	80.008	19.994	102.166	9.954	694.248	0.516
824.000	495.141	80.010	19.994	102.226	9.822	705.756	0.509
826.000	496.197	80.009	19.993	102.204	9.713	715.905	0.521
828.000	497.147	80.011	19.994	102.331	9.768	712.888	0.506
830.000	498.193	80.010	19.994	102.207	10.040	693.854	0.546
832.000	499.194	80.008	19.993	101.842	10.393	670.051	0.499
834.000	500.250	80.009	19.994	101.936	10.837	639.909	0.521
836.000	501.313	80.008	19.995	102.387	11.396	600.870	0.534
838.000	502.329	80.007	19.995	102.597	12.044	555.905	0.503
840.000	503.338	80.007	19.995	102.638	12.737	507.512	0.509
842.000	504.356	80.008	19.994	102.725	13.485	455.331	0.509
844.000	505.431	80.007	19.995	102.933	14.254	401.327	0.525
846.000	506.493	80.008	19.996	103.042	15.035	346.174	0.526
848.000	507.562	80.009	19.995	103.168	15.803	291.687	0.520
850.000	508.645	80.009	19.994	103.298	16.523	240.296	0.564
852.000	509.701	80.010	19.994	103.471	17.177	193.928	0.537
854.000	510.754	80.009	19.993	103.638	17.749	153.068	0.522
856.000	511.797	80.009	19.994	103.790	18.232	118.592	0.524
858.000	512.854	80.009	19.994	103.882	18.630	90.202	0.529
860.000	513.934	80.008	19.994	103.881	18.949	67.491	0.567
862.000	515.002	80.009	19.994	103.915	19.195	49.929	0.546
864.000	516.064	80.008	19.995	103.962	19.383	36.541	0.542
866.000	517.119	80.009	19.994	103.901	19.521	26.739	0.545
868.000	518.173	80.007	19.993	103.869	19.614	20.080	0.516
870.000	519.202	80.008	19.995	103.855	19.683	15.175	0.501
872.000	520.261	80.009	19.994	103.829	19.729	11.927	0.546
874.000	521.316	80.008	19.994	103.797	19.761	9.622	0.535
876.000	522.316	80.008	19.994	103.763	19.783	8.071	0.557
878.000	523.344	80.009	19.993	103.759	19.797	7.067	0.494
880.000	524.388	80.010	19.993	103.758	19.808	6.326	0.529
882.000	525.428	80.009	19.993	103.757	19.816	5.744	0.512
884.000	526.467	80.010	19.992	103.746	19.818	5.625	0.510
886.000	527.500	80.010	19.993	103.739	19.826	5.056	0.543
888.001	528.543	80.008	19.993	103.743	19.830	4.744	0.523
890.000	529.592	80.008	19.992	103.734	19.829	4.824	0.531
892.000	530.605	80.009	19.993	103.733	19.832	4.606	0.512
894.000	531.642	80.009	19.992	103.744	19.831	4.665	0.495
896.000	532.699	80.009	19.993	103.723	19.836	4.342	0.554
898.000	533.736	80.008	19.993	103.710	19.838	4.188	0.534
900.000	534.768	80.009	19.993	103.710	19.838	4.165	0.523
902.000	535.823	80.008	19.993	103.716	19.838	4.136	0.498
904.000	536.840	80.009	19.994	103.716	19.838	4.168	0.491
906.000	537.895	80.009	19.993	103.700	19.839	4.115	0.539
908.000	538.913	80.009	19.994	103.659	19.839	4.113	0.552
910.000	539.900	80.009	19.993	103.615	19.842	3.875	0.482
912.000	540.929	80.011	19.994	103.544	19.840	4.046	0.506
914.001	541.964	80.010	19.993	103.465	19.842	3.883	0.500
916.000	542.969	80.010	19.993	103.506	19.839	4.093	0.507
918.000	544.012	80.009	19.994	103.617	19.842	3.863	0.514
920.000	545.047	80.009	19.995	103.688	19.838	4.140	0.510
922.000	546.030	80.008	19.993	103.724	19.843	3.838	0.492
924.000	547.086	80.009	19.994	103.740	19.843	3.801	0.503
926.000	548.126	80.007	19.993	103.745	19.842	3.890	0.530
928.000	549.141	80.008	19.994	103.741	19.846	3.588	0.499
930.000	550.166	80.008	19.994	103.744	19.841	3.933	0.517
932.000	551.230	80.008	19.996	103.747	19.840	3.999	0.515
934.000	552.247	80.009	19.995	103.744	19.839	4.079	0.508
936.000	553.268	80.008	19.996	103.744	19.840	4.007	0.503
938.000	554.305	80.009	19.996	103.743	19.840	4.060	0.516
940.000	555.364	80.009	19.996	103.748	19.844	3.775	0.525
942.000	556.391	80.009	19.995	103.741	19.841	3.959	0.529
944.000	557.366	80.008	19.996	103.740	19.842	3.892	0.502
946.000	558.409	80.008	19.994	103.740	19.843	3.851	0.513
948.000	559.463	80.007	19.994	103.742	19.842	3.915	0.529
950.000	560.460	80.006	19.994	103.739	19.840	4.005	0.508
952.000	561.530	80.008	19.992	103.735	19.841	3.954	0.512
954.000	562.517	80.008	19.992	103.684	19.841	3.932	0.491
956.000	563.553	80.008	19.994	103.768	19.843	3.837	0.504
958.000	564.588	80.007	19.993	103.770	19.844	3.712	0.531
960.000	565.596	80.009	19.994	103.729	19.840	4.038	0.499
962.000	566.597	80.007	19.993	103.733	19.837	4.215	0.519
964.000	567.624	80.008	19.994	103.720	19.843	3.800	0.523
966.000	568.642	80.010	19.994	103.715	19.844	3.757	0.509
968.000	569.641	80.009	19.992	103.716	19.841	3.938	0.510
970.000	570.672	80.009	19.994	103.716	19.840	4.035	0.517
972.000	571.708	80.009	19.994	103.716	19.843	3.829	0.529
974.000	572.727	80.009	19.994	103.730	19.843	3.788	0.483
976.000	573.739	80.008	19.994	103.731	19.842	3.915	0.520
978.000	574.835	80.008	19.994	103.718	19.844	3.716	0.584
980.000	575.850	80.008	19.993	103.722	19.843	3.851	0.514
982.000	576.853	80.010	19.993	103.707	19.841	3.935	0.509
984.001	577.832	80.009	19.995	103.717	19.842	3.867	0.493
986.000	578.844	80.009	19.995	103.721	19.840	4.034	0.504
988.000	579.874	80.009	19.994	103.720	19.841	3.960	0.522
990.000	580.887	80.009	19.992	103.730	19.844	3.779	0.499
992.000	581.914	80.011	19.994	103.743	19.844	3.767	0.497
994.000	582.954	80.010	19.993	103.736	19.844	3.749	0.537
996.000	583.916	80.011	19.992	103.736	19.844	3.761	0.484
998.000	584.920	80.008	19.993	103.735	19.846	3.592	0.513
1000.000	585.972	80.008	19.994	103.735	19.842	3.921	0.522
1002.000	586.927	80.007	19.994	103.733	19.844	3.728	0.493
1004.000	588.023	80.006	19.994	103.732	19.841	3.989	0.522
1006.000	589.057	80.008	19.994	103.720	19.844	3.754	0.526
1008.000	590.103	80.007	19.994	103.740	19.839	4.102	0.532
1010.000	591.118	80.007	19.995	103.731	19.843	3.822	0.489
1012.000	592.165	80.008	19.993	103.743	19.841	3.945	0.548
1014.000	593.194	80.008	19.994	103.730	19.843	3.849	0.483
1016.000	594.271	80.008	19.994	103.732	19.846	3.638	0.532
1018.000	595.319	80.008	19.994	103.731	19.845	3.669	0.552
1020.000	596.301	80.007	19.994	103.735	19.847	3.560	0.500
1022.000	597.344	80.006	19.993	103.737	19.845	3.702	0.501
1024.000	598.370	80.007	19.995	103.737	19.844	3.716	0.503
1026.000	599.428	80.008	19.994	103.729	19.844	3.718	0.495
1028.000	600.440	80.007	19.995	103.727	19.844	3.728	0.511
1030.000	601.493	80.006	19.994	103.717	19.842	3.886	0.513
1032.001	602.511	80.006	19.995	103.725	19.842	3.874	0.505
1034.000	603.528	80.007	19.994	103.717	19.845	3.693	0.506
1036.000	604.571	80.006	19.995	103.728	19.840	4.049	0.503
1038.001	605.562	80.006	19.995	103.723	19.839	4.088	0.513
1040.000	606.589	80.007	19.995	103.724	19.839	4.098	0.503
1042.001	607.587	80.006	19.994	103.729	19.842	3.855	0.494
1044.000	608.579	80.008	19.994	103.721	19.840	4.040	0.507
1046.000	609.617	80.008	19.994	103.716	19.840	4.001	0.500
1048.000	610.625	80.010	19.992	103.724	19.842	3.854	0.508
1050.000	611.640	80.010	19.994	103.716	19.846	3.605	0.499
1052.000	612.670	80.010	19.994	103.723	19.844	3.743	0.516
1054.001	613.686	80.011	19.993	103.736	19.846	3.599	0.498
1056.001	614.733	80.011	19.994	103.724	19.851	3.230	0.543
1058.000	615.722	80.009	19.994	103.731	19.847	3.556	0.507
1060.000	616.779	80.009	19.994	103.709	19.846	3.609	0.522
1062.000	617.810	80.009	19.995	103.718	19.847	3.558	0.514
1064.000	618.863	80.008	19.994	103.709	19.845	3.710	0.551
1066.000	619.853	80.009	19.993	103.708	19.846	3.603	0.533
1068.000	620.850	80.010	19.996	103.707	19.846	3.576	0.490
1070.000	621.941	80.011	19.994	103.722	19.849	3.397	0.530
1072.000	622.983	80.010	19.993	103.712	19.848	3.436	0.528
1074.000	623.983	80.012	19.994	103.718	19.846	3.580	0.523
1076.000	624.981	80.011	19.993	103.728	19.847	3.541	0.510
1078.000	626.014	80.011	19.993	103.713	19.849	3.424	0.503
1080.001	627.062	80.011	19.992	103.739	19.847	3.541	0.535
1082.001	628.108	80.010	19.993	103.734	19.846	3.631	0.531
1084.000	629.140	80.008	19.995	103.736	19.846	3.582	0.487
1086.000	630.178	80.009	19.995	103.728	19.846	3.600	0.523
1088.000	631.206	80.008	19.993	103.747	19.846	3.639	0.545
1090.001	632.251	80.009	19.995	103.736	19.844	3.734	0.527
1092.000	633.291	80.008	19.995	103.747	19.845	3.676	0.502
1094.000	634.321	80.008	19.994	103.742	19.844	3.725	0.531
1096.000	635.386	80.008	19.994	103.747	19.845	3.678	0.535
1098.001	636.435	80.007	19.994	103.747	19.847	3.568	0.522
1100.000	637.416	80.008	19.993	103.749	19.847	3.532	0.496
1102.000	638.508	80.008	19.994	103.743	19.849	3.426	0.511
1104.001	639.522	80.009	19.993	103.746	19.848	3.469	0.494
1106.000	640.549	80.007	19.994	103.754	19.847	3.514	0.495
1108.001	641.571	80.008	19.994	103.739	19.849	3.370	0.498
1110.001	642.604	80.008	19.994	103.737	19.847	3.534	0.476
1112.001	643.633	80.007	19.995	103.746	19.848	3.430	0.509
1114.000	644.652	80.009	19.995	103.737	19.846	3.586	0.493
1116.000	645.689	80.008	19.995	103.727	19.845	3.645	0.500
1118.000	646.718	80.009	19.993	103.741	19.845	3.711	0.501
1120.000	647.768	80.008	19.995	103.741	19.847	3.536	0.515
1122.001	648.822	80.009	19.995	103.732	19.844	3.742	0.518
1124.000	649.805	80.008	19.995	103.732	19.846	3.602	0.481
1126.000	650.872	80.008	19.997	103.745	19.850	3.317	0.517
1128.000	651.885	80.009	19.994	103.735	19.846	3.627	0.514
1130.001	652.912	80.008	19.995	103.742	19.843	3.806	0.510
1132.000	653.910	80.009	19.996	103.738	19.849	3.387	0.504
1134.001	654.966	80.008	19.995	103.730	19.842	3.911	0.490
1136.000	656.022	80.009	19.994	103.736	19.843	3.788	0.510
1138.000	656.999	80.010	19.994	103.735	19.845	3.672	0.501
1140.000	657.990	80.009	19.993	103.732	19.844	3.760	0.465
1142.000	659.031	80.009	19.994	103.735	19.846	3.602	0.508
1144.001	660.043	80.009	19.994	103.732	19.841	3.935	0.496
1146.000	661.046	80.009	19.996	103.718	19.842	3.905	0.512
1148.000	662.029	80.007	19.994	103.721	19.840	4.029	0.482
1150.001	663.000	80.009	19.993	103.742	19.846	3.581	0.434
1152.000	664.082	80.010	19.994	103.740	19.842	3.885	0.513
1154.000	665.089	80.010	19.994	103.745	19.842	3.879	0.546
1156.001	666.126	80.010	19.995	103.755	19.844	3.733	0.524
1158.000	667.103	80.009	19.995	103.764	19.845	3.698	0.518
1160.000	668.111	80.012	19.995	103.774	19.850	3.317	0.493
1162.001	669.153	80.011	19.994	103.753	19.849	3.368	0.525
1164.000	670.220	80.009	19.993	103.747	19.846	3.635	0.543
1166.000	671.136	80.009	19.994	103.750	19.848	3.469	0.493
1168.000	672.249	80.007	19.993	103.766	19.848	3.479	0.548
1170.000	673.226	80.008	19.993	103.747	19.846	3.593	0.496
1172.001	674.297	80.007	19.995	103.750	19.844	3.775	0.528
1174.000	675.318	80.009	19.995	103.741	19.846	3.600	0.519
1176.000	676.330	80.008	19.993	103.730	19.846	3.608	0.513
1178.000	677.305	80.009	19.994	103.741	19.844	3.775	0.484
1180.001	678.313	80.009	19.994	103.735	19.842	3.882	0.495
1182.000	679.353	80.009	19.994	103.723	19.843	3.826	0.506
1184.000	680.376	80.010	19.992	103.743	19.842	3.883	0.519
1186.001	681.360	80.010	19.994	103.744	19.844	3.766	0.475
1188.000	682.342	80.008	19.994	103.738	19.843	3.804	0.516
1190.000	683.337	80.008	19.994	103.724	19.842	3.882	0.469
1192.000	684.316	80.008	19.993	103.740	19.839	4.087	0.471
1194.000	685.314	80.007	19.994	103.740	19.842	3.879	0.525
1196.001	686.312	80.007	19.995	103.748	19.841	3.976	0.532
1198.000	687.302	80.008	19.996	103.743	19.840	4.027	0.480
1200.001	688.288	80.008	19.993	103.736	19.842	3.857	0.486
1202.000	689.334	80.007	19.996	103.743	19.844	3.715	0.478
1204.000	690.343	80.008	19.995	103.721	19.841	3.947	0.494
1206.000	691.338	80.008	19.995	103.687	19.843	3.792	0.520
1208.000	692.305	80.007	19.996	103.793	19.843	3.807	0.506
1210.001	693.350	80.007	19.994	103.753	19.843	3.798	0.516
1212.000	694.392	80.009	19.993	103.746	19.840	4.025	0.504
1214.000	695.417	80.010	19.993	103.746	19.838	4.210	0.499
1216.000	696.476	80.010	19.995	103.724	19.837	4.251	0.559
1218.000	697.509	80.008	19.993	103.738	19.837	4.259	0.459
1220.000	698.497	80.009	19.994	103.737	19.834	4.485	0.507
1222.000	699.450	80.009	19.994	103.740	19.839	4.095	0.484
1224.000	700.558	80.009	19.994	103.750	19.838	4.140	0.528
1226.000	701.546	80.008	19.995	103.747	19.837	4.249	0.500
1228.000	702.564	80.008	19.997	103.746	19.835	4.362	0.514
1230.000	703.627	80.008	19.996	103.742	19.836	4.352	0.541
1232.000	704.645	80.009	19.997	103.746	19.837	4.247	0.510
1234.001	705.640	80.009	19.995	103.748	19.835	4.354	0.516
1236.001	706.716	80.009	19.995	103.737	19.837	4.235	0.543
1238.001	707.716	80.009	19.994	103.745	19.839	4.098	0.478
1240.000	708.783	80.011	19.994	103.750	19.839	4.134	0.485
1242.000	709.789	80.010	19.993	103.745	19.842	3.894	0.480
1244.000	710.801	80.011	19.993	103.748	19.842	3.871	0.531
1246.000	711.822	80.010	19.993	103.740	19.843	3.851	0.512
1248.000	712.870	80.009	19.993	103.733	19.841	3.972	0.495
1250.001	713.912	80.008	19.994	103.735	19.841	3.966	0.498
1252.001	714.972	80.010	19.994	103.745	19.841	3.974	0.498
1254.001	716.015	80.009	19.993	103.746	19.840	4.058	0.499
1256.000	717.099	80.007	19.995	103.746	19.840	4.013	0.535
1258.000	718.075	80.008	19.994	103.730	19.838	4.188	0.485
1260.000	719.162	80.008	19.994	103.734	19.838	4.167	0.508
1262.001	720.190	80.008	19.995	103.727	19.837	4.243	0.533
1264.001	721.198	80.009	19.994	103.745	19.836	4.306	0.474
1266.000	722.228	80.009	19.995	103.745	19.838	4.189	0.517
1268.000	723.283	80.010	19.995	103.743	19.840	4.034	0.515
1270.000	724.330	80.009	19.993	103.738	19.840	4.018	0.522
1272.000	725.336	80.009	19.993	103.744	19.839	4.112	0.473
1274.000	726.343	80.009	19.994	103.744	19.838	4.196	0.532
1276.000	727.375	80.009	19.994	103.745	19.837	4.239	0.532
1278.000	728.386	80.009	19.994	103.742	19.839	4.095	0.492
1280.000	729.376	80.008	19.993	103.737	19.840	4.021	0.515
1282.000	730.410	80.009	19.993	103.736	19.838	4.155	0.490
1284.001	731.428	80.009	19.995	103.747	19.840	4.040	0.523
1286.000	732.422	80.008	19.993	103.744	19.839	4.110	0.518
1288.000	733.436	80.008	19.994	103.748	19.841	3.970	0.504
1290.000	734.395	80.008	19.995	103.746	19.839	4.122	0.493
1292.000	735.400	80.009	19.995	103.740	19.840	4.042	0.502
1294.000	736.405	80.008	19.995	103.743	19.840	4.052	0.490
1296.000	737.406	80.009	19.995	103.723	19.839	4.077	0.504
1298.000	738.417	80.009	19.993	103.744	19.841	3.973	0.510
1300.000	739.445	80.009	19.995	103.740	19.841	3.959	0.508
1302.000	740.463	80.008	19.995	103.735	19.840	4.026	0.555
1304.000	741.488	80.008	19.994	103.731	19.838	4.157	0.532
1306.000	742.471	80.009	19.994	103.739	19.840	4.064	0.468
1308.000	743.470	80.010	19.995	103.733	19.840	4.009	0.496