File: 01_Data/Tyvek_Wrap/MCC/Tyvek_Wrap_MCC_30K_min_220210_R1.txt
Sample ID:	C:\MCC\MCC Cal\Test\Tyvek_Wrap_MCC_30K_min_220210_R1.txt
Sample Weight (mg):	4.23
Heating Rate (C/s):	0.5
Combustor Temp (C):	900
N2 Flow Rate (cc/min):	80
O2 Flow Rate (cc/min):	20
Calibration File:	C:\MCC\MCC Cal\Coeff1 JN10440_30_210304.txt.txt
T Correction Coefficients:	0	1.024463	0
Time Shift (s):	14
*
Time (s)	Temperature (C)	N2 flow rate (cc/min)	O2 flow rate (cc/min)	Flow Rate (cc/min)	Oxygen (%)	HRR (W/g)	Heating rate (C/s)
0.000	111.151	80.005	19.993	103.673	20.069	0.111	-0.028
2.000	111.183	80.001	19.994	103.674	20.065	0.359	0.003
4.000	111.152	80.001	19.995	103.677	20.069	0.088	0.028
6.000	111.122	80.007	19.994	103.675	20.067	0.234	-0.006
8.000	111.150	80.000	19.996	103.678	20.070	0.000	0.010
10.000	111.163	80.002	19.992	103.678	20.073	-0.215	0.002
12.000	111.155	80.009	19.994	103.676	20.070	0.023	-0.009
14.000	111.142	80.014	19.992	103.673	20.070	0.027	0.018
16.000	111.122	80.016	19.992	103.684	20.070	0.038	-0.000
18.000	111.156	79.997	19.991	103.675	20.064	0.433	0.019
20.000	111.137	79.987	19.996	103.691	20.064	0.458	0.019
22.000	111.175	80.011	19.993	103.679	20.063	0.533	0.022
24.000	111.180	80.019	19.991	103.704	20.061	0.673	0.015
26.000	111.217	79.998	19.995	103.728	20.062	0.644	0.005
28.000	111.257	80.004	19.993	103.745	20.057	0.973	-0.008
30.000	111.282	80.001	19.996	103.747	20.052	1.368	0.011
32.000	111.339	79.998	19.991	103.754	20.050	1.514	0.023
34.001	111.434	79.998	19.995	103.790	20.044	2.034	0.062
36.000	111.513	79.999	19.996	103.825	20.041	2.203	0.080
38.001	111.653	80.014	19.994	103.836	20.037	2.519	0.097
40.000	111.868	80.008	19.993	103.860	20.033	2.810	0.108
42.000	112.009	80.003	19.994	103.842	20.032	2.923	0.081
44.000	112.253	80.006	19.995	103.850	20.031	2.967	0.100
46.000	112.481	80.012	19.993	103.876	20.025	3.470	0.104
48.001	112.770	80.004	19.993	103.863	20.025	3.424	0.152
50.000	113.041	80.005	19.994	103.874	20.028	3.259	0.152
52.000	113.333	79.997	19.996	103.863	20.026	3.395	0.131
54.000	113.733	80.008	19.993	103.861	20.025	3.492	0.213
56.001	114.074	80.006	19.994	103.878	20.022	3.712	0.177
58.000	114.441	80.025	19.991	103.880	20.022	3.708	0.187
60.000	114.867	80.006	19.994	103.909	20.020	3.828	0.213
62.000	115.279	80.027	19.991	103.901	20.019	3.914	0.214
64.000	115.742	80.006	19.993	103.920	20.014	4.313	0.230
66.000	116.201	80.007	19.993	103.925	20.014	4.322	0.223
68.001	116.726	80.006	19.992	103.914	20.014	4.297	0.288
70.000	117.213	80.003	19.993	103.936	20.013	4.345	0.250
72.001	117.767	80.008	19.993	103.941	20.013	4.377	0.278
74.000	118.330	80.008	19.992	103.942	20.010	4.649	0.245
76.001	118.873	80.000	19.993	103.936	20.010	4.621	0.287
78.001	119.515	79.997	19.992	103.939	20.011	4.523	0.284
80.001	120.106	80.010	19.992	103.939	20.008	4.776	0.284
82.000	120.753	80.001	19.993	103.946	20.006	4.938	0.331
84.000	121.418	80.005	19.993	103.956	20.007	4.864	0.316
86.000	122.126	80.003	19.994	103.947	20.006	4.934	0.339
88.000	122.817	79.996	19.994	103.941	20.006	4.898	0.339
90.000	123.522	80.002	19.994	103.938	20.008	4.792	0.371
92.000	124.286	80.017	19.991	103.942	20.007	4.804	0.386
94.001	125.024	80.013	19.991	103.944	20.007	4.834	0.370
96.001	125.760	79.999	19.994	103.949	20.007	4.878	0.373
98.000	126.585	79.996	19.994	103.956	20.006	4.911	0.413
100.000	127.385	79.991	19.994	103.950	20.005	4.959	0.333
102.000	128.180	80.014	19.992	103.966	20.006	4.890	0.388
104.000	129.051	80.010	19.992	103.954	20.007	4.860	0.419
106.000	129.893	79.997	19.994	103.972	20.011	4.566	0.408
108.001	130.765	80.006	19.995	103.955	20.005	5.003	0.423
110.000	131.631	80.009	19.993	103.963	20.009	4.661	0.473
112.000	132.531	80.005	19.994	103.958	20.006	4.932	0.434
114.000	133.454	80.004	19.993	103.947	20.007	4.835	0.473
116.000	134.361	80.017	19.992	103.954	20.004	5.062	0.469
118.000	135.327	80.016	19.992	103.971	20.008	4.798	0.497
120.000	136.232	80.009	19.993	103.960	20.005	4.957	0.480
122.000	137.219	80.008	19.994	103.955	20.005	4.967	0.506
124.000	138.158	80.014	19.993	103.954	20.007	4.864	0.480
126.000	139.096	79.989	19.995	103.948	20.004	5.051	0.464
128.000	140.061	80.007	19.993	103.962	20.004	5.088	0.443
130.000	141.012	80.009	19.992	103.960	20.000	5.352	0.489
132.000	142.014	80.006	19.994	103.945	20.001	5.288	0.499
134.000	142.972	80.006	19.994	103.941	20.001	5.327	0.462
136.000	143.987	80.012	19.991	103.947	20.000	5.380	0.530
138.000	144.960	80.013	19.992	103.946	20.002	5.204	0.462
140.000	145.974	80.015	19.991	103.943	20.003	5.134	0.485
142.000	146.955	80.008	19.993	103.957	20.001	5.298	0.484
144.000	147.976	80.013	19.992	103.950	20.007	4.843	0.486
146.000	149.013	80.004	19.992	103.948	20.005	4.958	0.529
148.001	149.999	79.999	19.993	103.954	20.006	4.929	0.524
150.000	151.025	80.005	19.992	103.944	20.009	4.656	0.517
152.000	152.021	80.007	19.992	103.943	20.007	4.818	0.502
154.000	153.039	80.003	19.995	103.943	20.007	4.808	0.460
156.000	154.031	80.004	19.996	103.936	20.008	4.795	0.506
158.000	155.087	80.017	19.994	103.937	20.009	4.721	0.534
160.000	156.044	80.005	19.996	103.935	20.006	4.925	0.497
162.000	157.090	80.006	19.994	103.932	20.002	5.222	0.504
164.000	158.148	80.016	19.993	103.938	20.006	4.905	0.514
166.000	159.132	80.016	19.994	103.940	20.006	4.899	0.489
168.000	160.141	80.010	19.994	103.919	20.007	4.805	0.515
170.000	161.172	80.007	19.993	103.938	20.007	4.851	0.531
172.000	162.181	80.015	19.992	103.937	20.006	4.898	0.506
174.000	163.156	80.006	19.991	103.918	20.004	5.041	0.498
176.000	164.190	79.994	19.994	103.921	20.008	4.767	0.523
178.000	165.235	79.985	19.994	103.919	20.008	4.769	0.512
180.000	166.222	80.019	19.993	103.916	20.007	4.813	0.496
182.000	167.208	80.002	19.993	103.914	20.005	4.982	0.474
184.000	168.246	80.005	19.995	103.905	20.008	4.786	0.454
186.000	169.253	80.000	19.994	103.910	20.006	4.916	0.501
188.000	170.286	80.004	19.993	103.913	20.020	3.817	0.541
190.000	171.280	80.015	19.993	103.935	20.003	5.116	0.534
192.000	172.231	79.993	19.994	103.910	20.005	5.022	0.484
194.000	173.266	79.999	19.992	103.931	20.006	4.947	0.455
196.000	174.290	80.004	19.993	103.914	20.008	4.739	0.490
198.000	175.237	80.005	19.992	103.932	20.008	4.754	0.451
200.000	176.276	80.008	19.993	103.923	20.008	4.762	0.502
202.000	177.228	80.008	19.992	103.910	20.006	4.920	0.453
204.000	178.232	80.013	19.993	103.921	20.006	4.900	0.531
206.000	179.263	80.012	19.990	103.904	20.007	4.861	0.501
208.000	180.283	80.019	19.993	103.917	20.007	4.841	0.548
210.000	181.244	80.009	19.994	103.914	20.005	4.955	0.498
212.000	182.239	80.005	19.992	103.911	20.005	4.988	0.487
214.000	183.222	80.010	19.992	103.909	20.005	4.958	0.499
216.000	184.225	80.011	19.994	103.908	20.003	5.130	0.471
218.000	185.214	80.004	19.993	103.910	20.004	5.051	0.497
220.000	186.240	80.002	19.993	103.899	20.001	5.268	0.531
222.000	187.263	80.005	19.992	103.904	20.001	5.298	0.470
224.000	188.253	80.003	19.994	103.898	20.000	5.344	0.490
226.000	189.189	80.000	19.994	103.898	20.002	5.240	0.477
228.000	190.191	80.010	19.994	103.902	20.000	5.362	0.510
230.000	191.161	80.014	19.992	103.900	20.001	5.306	0.464
232.000	192.132	80.019	19.994	103.902	20.003	5.141	0.465
234.000	193.125	80.018	19.993	103.900	20.005	5.025	0.498
236.000	194.055	80.003	19.993	103.898	20.005	4.996	0.465
238.000	195.110	80.003	19.994	103.885	20.003	5.124	0.497
240.000	196.057	80.014	19.994	103.902	20.003	5.182	0.486
242.000	197.073	80.009	19.995	103.898	20.004	5.069	0.523
244.000	198.063	79.996	19.995	103.901	20.004	5.103	0.469
246.000	199.059	80.005	19.995	103.893	20.003	5.147	0.505
248.000	200.074	80.012	19.993	103.897	20.003	5.143	0.495
250.000	201.050	80.009	19.994	103.900	20.003	5.122	0.481
252.000	202.040	80.006	19.995	103.894	20.001	5.327	0.500
254.000	202.997	80.007	19.994	103.896	20.003	5.111	0.484
256.000	204.045	80.003	19.993	103.898	20.002	5.256	0.520
258.000	205.016	80.010	19.994	103.904	20.005	4.979	0.495
260.000	206.036	80.015	19.992	103.899	20.005	5.030	0.512
262.000	207.058	80.005	19.994	103.899	20.003	5.122	0.523
264.000	208.020	80.011	19.993	103.899	20.003	5.170	0.491
266.000	209.046	80.007	19.994	103.899	20.001	5.316	0.503
268.000	210.043	80.003	19.994	103.902	19.995	5.724	0.543
270.000	211.028	80.005	19.994	103.898	20.000	5.394	0.498
272.000	212.073	80.011	19.994	103.902	19.998	5.544	0.518
274.000	213.082	80.006	19.995	103.900	20.001	5.309	0.522
276.000	214.105	80.003	19.998	103.892	20.001	5.325	0.522
278.000	215.060	80.012	19.991	103.897	19.998	5.535	0.511
280.000	216.045	80.008	19.993	103.894	20.000	5.401	0.512
282.000	217.040	80.008	19.992	103.898	19.996	5.646	0.533
284.000	218.029	80.007	19.994	103.872	20.000	5.370	0.498
286.000	218.991	79.999	19.994	103.890	19.997	5.569	0.480
288.000	220.027	80.013	19.992	103.885	20.000	5.372	0.493
290.000	221.010	80.016	19.992	103.871	20.000	5.399	0.471
292.000	222.041	79.999	19.993	103.888	19.999	5.474	0.541
294.000	223.015	80.001	19.992	103.873	19.995	5.775	0.516
296.000	223.984	80.003	19.994	103.892	19.996	5.704	0.465
298.000	225.010	80.004	19.995	103.893	19.998	5.553	0.512
300.000	226.069	80.003	19.993	103.875	20.002	5.254	0.528
302.000	227.055	80.013	19.992	103.870	19.999	5.480	0.487
304.000	228.054	80.007	19.994	103.869	19.998	5.511	0.539
306.000	229.033	80.015	19.992	103.873	19.998	5.501	0.481
308.000	230.061	80.008	19.995	103.867	20.000	5.384	0.501
310.000	231.055	79.996	19.994	103.861	20.001	5.329	0.522
312.000	232.089	80.011	19.993	103.865	19.998	5.509	0.507
314.000	233.108	80.007	19.993	103.860	19.998	5.531	0.533
316.000	234.060	80.006	19.994	103.861	19.996	5.689	0.488
318.000	235.077	80.013	19.992	103.875	19.996	5.714	0.500
320.000	236.079	80.001	19.995	103.868	19.996	5.675	0.500
322.000	237.094	80.005	19.995	103.862	19.998	5.507	0.503
324.000	238.088	80.007	19.994	103.878	19.993	5.886	0.459
326.000	239.094	80.007	19.995	103.874	19.996	5.658	0.471
328.000	240.081	80.006	19.994	103.864	19.994	5.846	0.480
330.000	241.041	80.003	19.992	103.864	19.992	5.979	0.494
332.000	242.062	80.006	19.994	103.865	19.994	5.851	0.502
334.000	243.042	80.010	19.994	103.873	19.995	5.777	0.494
336.000	244.046	80.005	19.996	103.868	19.993	5.900	0.524
338.000	245.023	80.005	19.994	103.864	19.991	6.078	0.465
340.000	246.021	80.005	19.996	103.869	19.992	5.961	0.507
342.000	247.002	80.007	19.994	103.873	19.992	6.023	0.481
344.000	247.979	80.003	19.994	103.865	19.990	6.137	0.462
346.000	249.010	80.005	19.994	103.862	19.990	6.128	0.491
348.000	250.041	80.005	19.995	103.861	19.989	6.203	0.505
350.000	251.022	80.006	19.995	103.857	19.989	6.187	0.491
352.000	252.015	80.006	19.995	103.856	19.988	6.258	0.463
354.000	252.991	80.006	19.993	103.859	19.987	6.384	0.475
356.000	253.985	80.003	19.994	103.862	19.992	5.974	0.499
358.000	254.983	80.006	19.993	103.861	19.991	6.082	0.495
360.000	256.027	80.008	19.993	103.858	19.987	6.388	0.495
362.000	256.970	80.008	19.993	103.857	19.985	6.553	0.475
364.000	258.000	80.007	19.992	103.857	19.983	6.691	0.525
366.000	258.998	80.010	19.993	103.860	19.983	6.686	0.512
368.000	259.964	80.008	19.993	103.858	19.983	6.650	0.478
370.000	260.946	80.009	19.993	103.849	19.984	6.603	0.494
372.000	261.954	80.008	19.993	103.861	19.982	6.720	0.494
374.000	262.946	80.011	19.992	103.862	19.982	6.768	0.503
376.000	263.912	80.008	19.993	103.853	19.982	6.786	0.519
378.000	264.891	80.006	19.993	103.859	19.982	6.737	0.482
380.000	265.892	80.007	19.993	103.862	19.983	6.663	0.487
382.000	266.868	80.006	19.993	103.858	19.987	6.335	0.509
384.000	267.876	80.007	19.994	103.862	19.982	6.759	0.484
386.000	268.905	80.008	19.992	103.844	19.981	6.794	0.528
388.000	269.907	80.011	19.992	103.859	19.981	6.843	0.516
390.000	270.925	80.010	19.992	103.850	19.985	6.523	0.522
392.000	271.938	80.009	19.993	103.861	19.982	6.735	0.493
394.000	272.973	80.010	19.992	103.855	19.983	6.666	0.513
396.000	273.969	80.010	19.993	103.847	19.981	6.867	0.516
398.000	274.960	80.004	19.993	103.855	19.983	6.706	0.512
400.000	275.925	80.006	19.993	103.847	19.982	6.753	0.484
402.000	276.971	80.006	19.994	103.860	19.979	6.946	0.478
404.000	277.987	80.007	19.994	103.857	19.982	6.753	0.491
406.000	279.016	80.007	19.993	103.857	19.978	7.038	0.510
408.000	280.014	80.006	19.993	103.864	19.976	7.203	0.496
410.000	281.005	80.006	19.994	103.860	19.976	7.229	0.497
412.000	281.995	80.009	19.994	103.844	19.978	7.094	0.471
414.000	283.003	80.006	19.993	103.850	19.977	7.108	0.469
416.000	284.044	80.006	19.994	103.839	19.977	7.137	0.522
418.000	284.997	80.006	19.994	103.860	19.976	7.195	0.472
420.000	285.971	80.008	19.993	103.841	19.973	7.406	0.493
422.000	286.983	80.007	19.992	103.841	19.975	7.279	0.511
424.000	288.008	80.007	19.993	103.836	19.978	7.083	0.506
426.000	289.007	80.007	19.993	103.835	19.975	7.306	0.500
428.000	289.996	80.006	19.993	103.843	19.976	7.215	0.495
430.000	291.013	80.007	19.995	103.846	19.974	7.401	0.508
432.000	292.027	80.007	19.994	103.842	19.977	7.137	0.481
434.000	293.028	80.008	19.995	103.831	19.975	7.294	0.501
436.000	294.045	80.006	19.994	103.840	19.977	7.146	0.481
438.000	295.109	80.007	19.994	103.835	19.973	7.446	0.531
440.000	296.090	80.007	19.995	103.844	19.976	7.249	0.529
442.000	297.074	80.007	19.994	103.840	19.973	7.464	0.505
444.000	298.089	80.011	19.993	103.832	19.975	7.257	0.517
446.001	299.111	80.009	19.993	103.828	19.974	7.342	0.492
448.000	300.095	80.007	19.995	103.842	19.971	7.567	0.476
450.000	301.110	80.009	19.993	103.846	19.974	7.338	0.490
452.000	302.115	80.009	19.994	103.845	19.974	7.390	0.492
454.001	303.172	80.007	19.992	103.841	19.973	7.420	0.537
456.000	304.150	80.009	19.995	103.853	19.971	7.625	0.508
458.000	305.160	80.005	19.994	103.851	19.970	7.643	0.504
460.000	306.167	80.008	19.993	103.840	19.967	7.879	0.527
462.000	307.172	80.008	19.993	103.829	19.968	7.862	0.497
464.000	308.258	80.010	19.993	103.838	19.970	7.636	0.534
466.000	309.204	80.008	19.993	103.843	19.969	7.754	0.480
468.000	310.221	80.009	19.993	103.837	19.969	7.779	0.469
470.000	311.261	80.009	19.993	103.829	19.967	7.936	0.501
472.000	312.267	80.009	19.993	103.836	19.966	7.938	0.520
474.000	313.302	80.008	19.993	103.852	19.967	7.874	0.511
476.000	314.332	80.007	19.993	103.835	19.972	7.480	0.490
478.000	315.331	80.006	19.992	103.831	19.967	7.878	0.512
480.000	316.314	80.009	19.992	103.829	19.967	7.881	0.493
482.000	317.334	80.010	19.992	103.830	19.966	7.947	0.473
484.000	318.354	80.008	19.993	103.838	19.970	7.657	0.483
486.000	319.369	80.007	19.992	103.831	19.966	7.948	0.518
488.000	320.379	80.008	19.993	103.841	19.967	7.898	0.498
490.000	321.402	80.007	19.993	103.829	19.963	8.183	0.503
492.000	322.404	80.009	19.993	103.827	19.965	8.015	0.502
494.000	323.422	80.007	19.993	103.843	19.962	8.275	0.498
496.000	324.440	80.003	19.993	103.835	19.963	8.207	0.516
498.000	325.502	80.008	19.993	103.825	19.966	7.954	0.537
500.000	326.475	80.004	19.993	103.843	19.962	8.273	0.503
502.000	327.520	80.010	19.994	103.829	19.961	8.325	0.525
504.000	328.552	80.008	19.994	103.830	19.961	8.348	0.505
506.000	329.549	80.007	19.995	103.829	19.962	8.283	0.538
508.000	330.492	80.008	19.995	103.824	19.962	8.250	0.487
510.000	331.532	80.006	19.994	103.825	19.965	8.028	0.531
512.000	332.604	80.006	19.996	103.839	19.964	8.151	0.563
514.000	333.580	80.006	19.995	103.834	19.965	8.036	0.482
516.000	334.615	80.006	19.995	103.820	19.965	8.051	0.521
518.000	335.624	80.006	19.995	103.836	19.965	8.063	0.498
520.000	336.634	80.006	19.993	103.838	19.965	8.049	0.498
522.000	337.671	80.005	19.993	103.831	19.966	7.938	0.529
524.000	338.683	80.007	19.994	103.829	19.962	8.285	0.497
526.000	339.674	80.007	19.995	103.827	19.965	8.030	0.499
528.000	340.719	80.010	19.994	103.827	19.963	8.231	0.504
530.000	341.711	80.007	19.993	103.828	19.962	8.312	0.507
532.000	342.732	80.009	19.993	103.833	19.963	8.193	0.519
534.000	343.715	80.008	19.994	103.827	19.961	8.366	0.487
536.000	344.723	80.006	19.994	103.825	19.957	8.674	0.492
538.000	345.735	80.007	19.994	103.827	19.957	8.665	0.488
540.000	346.764	80.007	19.993	103.827	19.959	8.498	0.499
542.000	347.763	80.009	19.993	103.827	19.951	9.151	0.489
544.000	348.794	80.008	19.993	103.824	19.953	8.998	0.519
546.000	349.786	80.009	19.993	103.826	19.956	8.740	0.493
548.000	350.792	80.011	19.993	103.817	19.953	9.000	0.494
550.001	351.753	80.010	19.992	103.823	19.956	8.742	0.490
552.000	352.764	80.010	19.993	103.823	19.957	8.701	0.506
554.000	353.823	80.011	19.993	103.823	19.956	8.749	0.527
556.000	354.806	80.012	19.993	103.823	19.955	8.830	0.502
558.000	355.811	80.011	19.993	103.821	19.955	8.796	0.507
560.000	356.844	80.011	19.994	103.820	19.953	8.948	0.534
562.000	357.810	80.010	19.994	103.821	19.952	9.064	0.515
564.000	358.854	80.008	19.993	103.823	19.949	9.284	0.545
566.000	359.853	80.007	19.993	103.823	19.951	9.115	0.504
568.000	360.874	80.007	19.993	103.824	19.953	8.984	0.523
570.000	361.895	80.006	19.994	103.839	19.953	8.965	0.518
572.000	362.887	80.006	19.994	103.813	19.954	8.887	0.500
574.000	363.883	80.007	19.992	103.823	19.952	9.059	0.511
576.000	364.852	80.015	19.997	103.822	19.948	9.361	0.512
578.000	365.868	80.007	19.994	103.833	19.946	9.472	0.501
580.000	366.871	80.009	19.994	103.824	19.949	9.259	0.534
582.000	367.890	80.007	19.994	103.825	19.943	9.731	0.519
584.000	368.958	80.008	19.994	103.822	19.943	9.701	0.548
586.000	369.938	80.008	19.994	103.825	19.944	9.695	0.517
588.000	370.900	80.009	19.992	103.814	19.943	9.718	0.497
590.000	371.904	80.007	19.994	103.829	19.944	9.688	0.502
592.000	372.944	80.006	19.994	103.814	19.942	9.816	0.519
594.000	373.938	80.006	19.993	103.822	19.941	9.918	0.512
596.000	374.956	80.007	19.995	103.824	19.940	9.958	0.527
598.000	375.964	80.008	19.995	103.826	19.938	10.123	0.534
600.000	376.983	80.007	19.994	103.828	19.938	10.134	0.497
602.000	377.975	80.006	19.993	103.826	19.936	10.307	0.507
604.000	378.986	80.007	19.993	103.821	19.937	10.192	0.480
606.000	380.005	80.007	19.994	103.824	19.933	10.510	0.504
608.000	381.068	80.008	19.994	103.824	19.937	10.175	0.482
610.000	382.093	80.008	19.994	103.825	19.935	10.330	0.505
612.000	383.077	80.009	19.994	103.823	19.934	10.430	0.500
614.000	384.116	80.009	19.993	103.822	19.932	10.595	0.518
616.000	385.139	80.007	19.993	103.821	19.928	10.882	0.497
618.000	386.169	80.009	19.994	103.821	19.929	10.807	0.509
620.000	387.203	80.009	19.994	103.818	19.928	10.911	0.527
622.000	388.269	80.009	19.994	103.822	19.923	11.267	0.561
624.000	389.311	80.009	19.994	103.821	19.925	11.140	0.499
626.000	390.339	80.007	19.995	103.819	19.926	11.040	0.531
628.000	391.359	80.009	19.995	103.819	19.923	11.248	0.532
630.000	392.366	80.009	19.995	103.819	19.917	11.704	0.494
632.000	393.410	80.008	19.995	103.818	19.916	11.773	0.529
634.000	394.451	80.009	19.994	103.817	19.912	12.085	0.510
636.000	395.485	80.009	19.996	103.809	19.912	12.088	0.534
638.000	396.482	80.008	19.995	103.818	19.910	12.242	0.487
640.000	397.507	80.009	19.996	103.805	19.909	12.349	0.494
642.000	398.563	80.011	19.993	103.805	19.905	12.617	0.520
644.000	399.551	80.006	19.992	103.814	19.906	12.568	0.484
646.000	400.520	80.006	19.994	103.803	19.900	13.032	0.469
648.000	401.567	80.008	19.994	103.820	19.897	13.262	0.522
650.000	402.601	80.007	19.994	103.825	19.899	13.076	0.525
652.000	403.601	80.007	19.994	103.816	19.895	13.410	0.494
654.000	404.629	80.008	19.993	103.819	19.894	13.454	0.509
656.000	405.626	80.007	19.994	103.820	19.887	14.000	0.473
658.000	406.629	80.008	19.993	103.824	19.891	13.751	0.494
660.000	407.719	80.008	19.995	103.817	19.886	14.066	0.553
662.000	408.686	80.008	19.994	103.819	19.884	14.228	0.493
664.000	409.708	80.007	19.993	103.804	19.883	14.340	0.501
666.000	410.719	80.006	19.994	103.807	19.880	14.572	0.500
668.000	411.739	80.007	19.993	103.816	19.874	14.982	0.503
670.000	412.770	80.007	19.992	103.812	19.873	15.117	0.508
672.000	413.742	80.008	19.993	103.800	19.869	15.432	0.496
674.000	414.757	80.007	19.993	103.800	19.862	15.938	0.544
676.000	415.762	80.008	19.992	103.799	19.858	16.238	0.519
678.000	416.756	80.008	19.993	103.805	19.853	16.647	0.494
680.000	417.783	80.008	19.992	103.789	19.850	16.841	0.464
682.000	418.787	80.006	19.992	103.793	19.845	17.227	0.511
684.000	419.787	80.007	19.992	103.802	19.840	17.590	0.513
686.000	420.800	80.008	19.993	103.793	19.835	17.980	0.506
688.000	421.795	80.008	19.994	103.793	19.825	18.751	0.482
690.000	422.799	80.010	19.994	103.802	19.823	18.891	0.493
692.000	423.789	80.010	19.993	103.790	19.818	19.264	0.493
694.000	424.822	80.010	19.994	103.792	19.811	19.856	0.502
696.000	425.815	80.010	19.995	103.808	19.800	20.658	0.493
698.000	426.819	80.009	19.995	103.814	19.794	21.152	0.527
700.000	427.849	80.009	19.993	103.797	19.782	22.035	0.528
702.000	428.856	80.009	19.995	103.799	19.773	22.738	0.485
704.000	429.901	80.009	19.994	103.785	19.765	23.384	0.510
706.000	430.892	80.009	19.994	103.783	19.754	24.183	0.500
708.000	431.929	80.007	19.994	103.789	19.744	24.971	0.520
710.000	432.898	80.008	19.994	103.792	19.736	25.564	0.512
712.000	433.960	80.007	19.993	103.788	19.721	26.733	0.498
714.000	434.975	80.010	19.993	103.788	19.703	28.084	0.502
716.000	435.991	80.009	19.993	103.788	19.687	29.290	0.495
718.000	437.027	80.008	19.994	103.793	19.672	30.486	0.513
720.000	438.079	80.011	19.993	103.784	19.647	32.421	0.530
722.000	439.156	80.010	19.994	103.794	19.623	34.233	0.526
724.000	440.217	80.010	19.994	103.798	19.608	35.403	0.543
726.000	441.206	80.009	19.994	103.761	19.599	36.040	0.518
728.000	442.226	80.009	19.994	103.743	19.594	36.485	0.515
730.000	443.276	80.007	19.994	103.749	19.579	37.587	0.538
732.000	444.297	80.007	19.993	103.777	19.566	38.552	0.516
734.000	445.309	80.007	19.995	103.792	19.546	40.088	0.512
736.000	446.289	80.007	19.994	103.789	19.524	41.772	0.478
738.000	447.347	80.006	19.993	103.789	19.501	43.572	0.500
740.000	448.359	80.007	19.993	103.781	19.472	45.750	0.532
742.000	449.335	80.007	19.993	103.774	19.439	48.298	0.498
744.001	450.337	80.008	19.993	103.757	19.403	51.023	0.505
746.000	451.367	80.008	19.993	103.766	19.361	54.287	0.500
748.000	452.352	80.008	19.994	103.761	19.309	58.239	0.477
750.000	453.361	80.007	19.994	103.773	19.252	62.585	0.499
752.000	454.378	80.008	19.993	103.774	19.192	67.167	0.506
754.000	455.395	80.009	19.992	103.754	19.125	72.322	0.520
756.000	456.416	80.009	19.994	103.752	19.057	77.495	0.511
758.000	457.453	80.007	19.994	103.748	18.990	82.617	0.491
760.000	458.416	80.009	19.993	103.731	18.915	88.390	0.448
762.000	459.427	80.006	19.994	103.734	18.839	94.129	0.479
764.000	460.451	80.007	19.994	103.724	18.769	99.454	0.540
766.000	461.411	80.008	19.994	103.705	18.682	106.113	0.483
768.000	462.435	80.007	19.994	103.730	18.585	113.582	0.495
770.000	463.459	80.008	19.993	103.745	18.481	121.495	0.504
772.000	464.456	80.008	19.993	103.709	18.383	128.995	0.493
774.000	465.472	80.010	19.993	103.660	18.269	137.642	0.529
776.000	466.387	80.009	19.993	103.657	18.142	147.400	0.498
778.000	467.405	80.008	19.993	103.677	18.009	157.511	0.463
780.000	468.447	80.009	19.993	103.671	17.863	168.601	0.521
782.000	469.452	80.009	19.993	103.644	17.712	180.120	0.521
784.000	470.446	80.008	19.992	103.629	17.542	193.095	0.530
786.000	471.469	80.009	19.993	103.621	17.365	206.440	0.509
788.000	472.476	80.008	19.992	103.612	17.167	221.440	0.527
790.000	473.471	80.009	19.993	103.593	16.946	238.145	0.509
792.000	474.503	80.008	19.994	103.584	16.713	255.737	0.504
794.000	475.529	80.008	19.994	103.566	16.461	274.838	0.500
796.000	476.557	80.009	19.993	103.501	16.196	294.730	0.548
798.000	477.535	80.008	19.994	103.438	15.914	315.980	0.489
800.000	478.555	80.009	19.992	103.392	15.620	338.227	0.506
802.000	479.515	80.011	19.993	103.317	15.313	361.296	0.481
804.000	480.531	80.011	19.993	103.234	14.994	385.350	0.500
806.000	481.514	80.010	19.992	103.203	14.665	410.561	0.519
808.000	482.553	80.010	19.993	103.097	14.332	435.596	0.504
810.000	483.523	80.011	19.993	103.054	13.989	460.254	0.515
812.000	484.509	80.010	19.993	103.010	13.632	486.571	0.498
814.000	485.493	80.009	19.993	102.945	13.223	517.733	0.496
816.000	486.534	80.009	19.995	102.951	12.775	551.765	0.527
818.000	487.550	80.009	19.994	102.993	12.365	582.230	0.548
820.000	488.515	80.007	19.995	102.784	11.993	610.030	0.473
822.000	489.568	80.008	19.993	102.508	11.630	637.273	0.506
824.000	490.585	80.008	19.995	102.475	11.300	662.123	0.520
826.000	491.583	80.007	19.995	102.543	11.019	683.341	0.506
828.000	492.621	80.008	19.994	102.507	10.775	701.107	0.476
830.000	493.594	80.008	19.994	102.412	10.603	713.919	0.493
832.000	494.608	80.008	19.994	102.379	10.468	724.674	0.453
834.000	495.716	80.008	19.993	102.352	10.406	730.030	0.482
836.000	496.719	80.008	19.993	102.371	10.443	727.776	0.535
838.000	497.808	80.007	19.994	102.320	10.609	715.823	0.442
840.000	498.914	80.008	19.995	102.228	10.876	696.548	0.369
842.000	499.832	80.007	19.993	102.272	11.266	667.842	0.267
844.000	501.139	80.007	19.993	102.367	11.770	631.039	0.617
846.000	501.824	80.008	19.992	102.460	12.371	586.274	0.554
848.000	502.871	80.008	19.993	102.529	13.072	533.750	0.494
850.000	503.966	80.008	19.992	102.644	13.840	475.915	0.500
852.001	505.064	80.008	19.992	102.777	14.622	416.733	0.593
854.000	506.046	80.008	19.992	102.945	15.407	357.000	0.509
856.000	507.153	80.009	19.993	103.171	16.150	300.274	0.506
858.000	508.178	80.008	19.994	103.322	16.836	247.793	0.525
860.000	509.245	80.010	19.993	103.481	17.453	200.548	0.532
862.000	510.257	80.011	19.993	103.636	17.977	160.377	0.525
864.000	511.304	80.010	19.993	103.747	18.417	126.616	0.539
866.000	512.302	80.009	19.994	103.826	18.782	98.671	0.514
868.000	513.337	80.009	19.994	103.865	19.067	76.821	0.514
870.000	514.397	80.009	19.993	103.881	19.288	59.905	0.548
872.000	515.433	80.009	19.994	103.867	19.457	46.942	0.494
874.000	516.474	80.010	19.993	103.863	19.579	37.572	0.538
876.000	517.497	80.010	19.995	103.860	19.667	30.854	0.494
878.000	518.528	80.009	19.993	103.852	19.732	25.910	0.537
880.000	519.487	80.011	19.994	103.847	19.768	23.097	0.517
882.000	520.538	80.010	19.993	103.835	19.796	20.984	0.503
884.000	521.553	80.011	19.992	103.816	19.818	19.271	0.513
886.000	522.578	80.011	19.993	103.819	19.833	18.138	0.506
888.000	523.620	80.010	19.992	103.812	19.843	17.397	0.526
890.000	524.608	80.011	19.994	103.799	19.846	17.147	0.490
892.000	525.697	80.011	19.993	103.782	19.851	16.762	0.523
894.000	526.617	80.010	19.994	103.781	19.854	16.524	0.487
896.000	527.679	80.007	19.995	103.772	19.856	16.323	0.504
898.000	528.743	80.006	19.993	103.768	19.855	16.473	0.525
900.000	529.762	80.008	19.994	103.763	19.857	16.316	0.513
902.000	530.772	80.007	19.993	103.703	19.857	16.318	0.505
904.000	531.850	80.009	19.994	103.608	19.859	16.166	0.528
906.000	532.838	80.009	19.993	103.508	19.861	16.027	0.502
908.001	533.890	80.009	19.993	103.517	19.860	16.076	0.514
910.000	534.906	80.009	19.994	103.642	19.860	16.077	0.496
912.000	535.916	80.009	19.993	103.725	19.860	16.078	0.484
914.000	536.959	80.008	19.993	103.775	19.858	16.275	0.484
916.000	538.022	80.008	19.993	103.785	19.859	16.135	0.511
918.000	539.048	80.008	19.994	103.792	19.860	16.125	0.515
920.000	540.128	80.008	19.995	103.789	19.861	16.047	0.535
922.000	541.117	80.008	19.995	103.790	19.856	16.412	0.482
924.000	542.106	80.007	19.992	103.805	19.858	16.215	0.492
926.000	543.182	80.008	19.994	103.807	19.861	16.035	0.495
928.000	544.165	80.007	19.994	103.795	19.858	16.247	0.509
930.000	545.182	80.007	19.994	103.814	19.858	16.278	0.525
932.000	546.217	80.007	19.994	103.807	19.858	16.261	0.502
934.000	547.272	80.008	19.993	103.808	19.859	16.174	0.529
936.000	548.288	80.007	19.993	103.813	19.857	16.345	0.516
938.000	549.245	80.008	19.994	103.812	19.856	16.410	0.484
940.000	550.299	80.008	19.994	103.791	19.857	16.348	0.495
942.000	551.349	80.009	19.994	103.795	19.855	16.487	0.509
944.000	552.356	80.010	19.993	103.790	19.852	16.713	0.491
946.000	553.388	80.010	19.993	103.806	19.854	16.579	0.505
948.000	554.450	80.009	19.993	103.795	19.854	16.554	0.542
950.000	555.462	80.009	19.992	103.784	19.849	16.910	0.538
952.000	556.495	80.010	19.991	103.784	19.851	16.793	0.514
954.000	557.518	80.010	19.994	103.782	19.855	16.492	0.487
956.000	558.521	80.009	19.994	103.781	19.855	16.458	0.517
958.000	559.548	80.009	19.994	103.782	19.854	16.532	0.496
960.000	560.574	80.009	19.993	103.775	19.855	16.459	0.523
962.000	561.582	80.008	19.993	103.778	19.858	16.215	0.495
964.000	562.615	80.011	19.994	103.783	19.855	16.454	0.500
966.000	563.631	80.010	19.991	103.781	19.857	16.354	0.501
968.000	564.656	80.010	19.993	103.781	19.853	16.601	0.511
970.000	565.641	80.010	19.992	103.788	19.855	16.454	0.478
972.000	566.724	80.011	19.993	103.789	19.853	16.625	0.500
974.000	567.691	80.010	19.992	103.793	19.851	16.810	0.476
976.000	568.713	80.010	19.992	103.808	19.850	16.881	0.494
978.000	569.786	80.009	19.993	103.800	19.852	16.711	0.489
980.000	570.815	80.008	19.991	103.792	19.855	16.471	0.547
982.000	571.836	80.008	19.994	103.796	19.856	16.398	0.503
984.000	572.886	80.008	19.993	103.794	19.852	16.682	0.532
986.000	573.907	80.007	19.993	103.810	19.851	16.800	0.518
988.000	574.942	80.008	19.993	103.786	19.855	16.494	0.547
990.000	575.977	80.008	19.993	103.784	19.852	16.732	0.506
992.000	577.024	80.008	19.993	103.787	19.849	16.916	0.533
994.000	578.036	80.008	19.994	103.784	19.854	16.536	0.522
996.000	579.086	80.008	19.993	103.786	19.853	16.628	0.537
998.000	580.111	80.008	19.994	103.786	19.850	16.816	0.495
1000.000	581.083	80.007	19.992	103.784	19.848	17.006	0.492
1002.000	582.115	80.009	19.993	103.785	19.852	16.683	0.512
1004.000	583.104	80.008	19.994	103.780	19.846	17.192	0.504
1006.000	584.132	80.009	19.992	103.788	19.850	16.839	0.505
1008.000	585.160	80.009	19.993	103.785	19.849	16.917	0.546
1010.000	586.174	80.009	19.993	103.783	19.847	17.096	0.509
1012.000	587.186	80.007	19.993	103.788	19.849	16.962	0.528
1014.000	588.203	80.006	19.994	103.780	19.845	17.232	0.508
1016.000	589.224	80.007	19.994	103.782	19.843	17.365	0.523
1018.000	590.239	80.007	19.994	103.784	19.844	17.278	0.500
1020.000	591.232	80.007	19.993	103.787	19.846	17.196	0.502
1022.000	592.269	80.007	19.994	103.782	19.843	17.357	0.507
1024.000	593.256	80.007	19.994	103.782	19.845	17.244	0.477
1026.001	594.329	80.009	19.994	103.791	19.844	17.292	0.515
1028.000	595.359	80.009	19.994	103.782	19.844	17.286	0.521
1030.000	596.369	80.010	19.994	103.781	19.843	17.385	0.498
1032.000	597.431	80.011	19.994	103.782	19.845	17.247	0.530
1034.000	598.396	80.010	19.993	103.783	19.842	17.488	0.500
1036.000	599.428	80.009	19.994	103.780	19.841	17.509	0.501
1038.000	600.410	80.009	19.994	103.785	19.841	17.549	0.501
1040.001	601.491	80.011	19.992	103.770	19.841	17.574	0.519
1042.001	602.515	80.009	19.993	103.767	19.838	17.782	0.524
1044.000	603.552	80.009	19.994	103.777	19.839	17.667	0.519
1046.000	604.535	80.010	19.992	103.775	19.841	17.504	0.492
1048.000	605.540	80.010	19.993	103.783	19.840	17.640	0.507
1050.000	606.576	80.010	19.994	103.775	19.841	17.550	0.497
1052.001	607.597	80.009	19.992	103.782	19.839	17.684	0.490
1054.001	608.610	80.011	19.993	103.784	19.839	17.731	0.504
1056.000	609.615	80.009	19.993	103.784	19.839	17.697	0.483
1058.000	610.658	80.011	19.994	103.783	19.840	17.620	0.546
1060.000	611.703	80.009	19.993	103.785	19.840	17.641	0.557
1062.000	612.715	80.009	19.993	103.783	19.842	17.487	0.515
1064.000	613.711	80.009	19.993	103.791	19.843	17.406	0.524
1066.001	614.754	80.006	19.993	103.805	19.840	17.653	0.516
1068.000	615.822	80.008	19.992	103.799	19.838	17.758	0.508
1070.000	616.859	80.008	19.993	103.793	19.840	17.623	0.537
1072.000	617.854	80.007	19.993	103.804	19.838	17.779	0.512
1074.000	618.878	80.008	19.992	103.787	19.837	17.813	0.554
1076.000	619.922	80.008	19.993	103.797	19.839	17.665	0.521
1078.001	620.951	80.008	19.993	103.795	19.837	17.871	0.518
1080.000	621.987	80.008	19.994	103.786	19.837	17.817	0.488
1082.000	623.007	80.008	19.994	103.790	19.839	17.711	0.501
1084.000	624.031	80.009	19.994	103.791	19.836	17.948	0.521
1086.000	625.073	80.008	19.994	103.793	19.834	18.052	0.520
1088.000	626.057	80.010	19.993	103.809	19.835	17.975	0.517
1090.000	627.100	80.008	19.993	103.793	19.833	18.183	0.510
1092.000	628.172	80.009	19.994	103.791	19.831	18.292	0.545
1094.000	629.158	80.009	19.993	103.793	19.832	18.232	0.534
1096.000	630.155	80.008	19.994	103.786	19.832	18.231	0.446
1098.001	631.191	80.008	19.994	103.792	19.832	18.270	0.508
1100.001	632.251	80.008	19.994	103.799	19.830	18.356	0.528
1102.001	633.240	80.008	19.994	103.799	19.830	18.419	0.516
1104.000	634.284	80.009	19.994	103.797	19.828	18.525	0.531
1106.000	635.276	80.009	19.994	103.815	19.827	18.634	0.493
1108.001	636.360	80.009	19.994	103.802	19.827	18.607	0.530
1110.000	637.338	80.009	19.993	103.802	19.826	18.728	0.489
1112.000	638.352	80.009	19.994	103.808	19.823	18.886	0.521
1114.000	639.369	80.009	19.994	103.792	19.823	18.910	0.500
1116.001	640.395	80.009	19.996	103.803	19.824	18.872	0.502
1118.001	641.380	80.009	19.995	103.802	19.822	19.001	0.469
1120.000	642.384	80.009	19.994	103.793	19.823	18.919	0.499
1122.001	643.422	80.009	19.994	103.785	19.820	19.167	0.496
1124.000	644.395	80.007	19.994	103.801	19.822	19.032	0.494
1126.001	645.379	80.009	19.994	103.797	19.824	18.837	0.480
1128.001	646.414	80.009	19.993	103.794	19.821	19.100	0.522
1130.000	647.409	80.008	19.994	103.814	19.821	19.070	0.525
1132.000	648.386	80.010	19.993	103.810	19.819	19.250	0.497
1134.000	649.432	80.009	19.993	103.795	19.820	19.156	0.534
1136.000	650.414	80.009	19.992	103.818	19.822	19.011	0.505
1138.000	651.481	80.011	19.993	103.801	19.820	19.151	0.484
1140.000	652.501	80.011	19.993	103.815	19.819	19.243	0.524
1142.000	653.523	80.011	19.993	103.796	19.816	19.450	0.513
1144.000	654.542	80.010	19.993	103.805	19.820	19.156	0.503
1146.000	655.575	80.010	19.993	103.793	19.821	19.097	0.495
1148.000	656.601	80.010	19.994	103.800	19.815	19.500	0.512
1150.000	657.594	80.008	19.994	103.793	19.816	19.465	0.511
1152.000	658.557	80.009	19.992	103.803	19.818	19.315	0.470
1154.000	659.608	80.010	19.993	103.790	19.818	19.275	0.516
1156.000	660.664	80.009	19.993	103.805	19.816	19.485	0.460
1158.000	661.625	80.009	19.994	103.809	19.816	19.463	0.500
1160.000	662.628	80.009	19.994	103.814	19.818	19.320	0.494
1162.000	663.661	80.008	19.993	103.802	19.817	19.355	0.494
1164.000	664.668	80.009	19.993	103.794	19.817	19.372	0.485
1166.000	665.691	80.009	19.994	103.789	19.815	19.500	0.520
1168.001	666.731	80.009	19.993	103.805	19.814	19.651	0.529
1170.000	667.722	80.010	19.993	103.795	19.813	19.714	0.507
1172.000	668.743	80.010	19.993	103.798	19.810	19.957	0.517
1174.000	669.750	80.009	19.993	103.806	19.809	20.032	0.526
1176.000	670.800	80.011	19.996	103.806	19.810	19.943	0.516
1178.000	671.779	80.008	19.996	103.813	19.809	20.010	0.496
1180.000	672.829	80.009	19.995	103.806	19.808	20.072	0.492
1182.000	673.857	80.009	19.994	103.816	19.806	20.193	0.495
1184.000	674.899	80.007	19.995	103.821	19.808	20.091	0.556
1186.000	675.903	80.009	19.993	103.810	19.810	19.955	0.522
1188.000	676.897	80.009	19.994	103.803	19.810	19.900	0.496
1190.000	677.942	80.008	19.994	103.805	19.807	20.114	0.552
1192.000	678.985	80.008	19.993	103.805	19.808	20.050	0.495
1194.000	679.982	80.010	19.994	103.793	19.807	20.116	0.499
1196.000	680.982	80.010	19.994	103.808	19.804	20.382	0.509
1198.000	682.029	80.010	19.993	103.791	19.806	20.248	0.491
1200.000	683.084	80.010	19.992	103.805	19.804	20.392	0.508
1202.000	684.090	80.010	19.993	103.811	19.804	20.397	0.485
1204.000	685.106	80.009	19.993	103.808	19.804	20.392	0.493
1206.000	686.136	80.010	19.993	103.791	19.804	20.378	0.510
1208.000	687.164	80.009	19.993	103.802	19.803	20.463	0.507
1210.000	688.133	80.009	19.994	103.809	19.802	20.562	0.501
1212.000	689.189	80.009	19.994	103.811	19.804	20.348	0.517
1214.000	690.173	80.010	19.994	103.810	19.802	20.502	0.502
1216.000	691.195	80.010	19.995	103.800	19.807	20.174	0.521
1218.000	692.168	80.010	19.995	103.787	19.803	20.448	0.491
1220.000	693.197	80.010	19.994	103.788	19.803	20.458	0.496
1222.000	694.219	80.010	19.994	103.792	19.803	20.426	0.506
1224.000	695.201	80.012	19.993	103.786	19.799	20.741	0.478
1226.000	696.270	80.011	19.993	103.801	19.800	20.690	0.523
1228.000	697.220	80.011	19.992	103.805	19.800	20.649	0.499
1230.000	698.301	80.009	19.993	103.813	19.793	21.198	0.461
1232.000	699.262	80.010	19.993	103.811	19.796	20.990	0.508
1234.000	700.306	80.010	19.993	103.786	19.799	20.760	0.539
1236.000	701.276	80.009	19.994	103.802	19.797	20.895	0.522
1238.000	702.283	80.009	19.995	103.813	19.796	20.981	0.483
1240.000	703.273	80.008	19.993	103.787	19.796	20.992	0.493
1242.000	704.310	80.007	19.993	103.810	19.794	21.128	0.496
1244.000	705.265	80.009	19.995	103.820	19.796	20.965	0.502
1246.000	706.258	80.009	19.992	103.804	19.799	20.754	0.490
1248.000	707.285	80.009	19.994	103.810	19.794	21.124	0.496
1250.000	708.287	80.010	19.995	103.800	19.795	21.077	0.506
1252.000	709.323	80.009	19.995	103.806	19.796	21.028	0.508
1254.000	710.334	80.009	19.993	103.806	19.795	21.051	0.493
1256.000	711.340	80.010	19.995	103.808	19.793	21.245	0.483
1258.000	712.396	80.009	19.993	103.804	19.787	21.668	0.547
1260.001	713.362	80.009	19.992	103.813	19.790	21.450	0.477
1262.000	714.371	80.008	19.993	103.799	19.791	21.394	0.471
1264.000	715.433	80.007	19.994	103.822	19.790	21.469	0.529
1266.000	716.456	80.008	19.994	103.813	19.789	21.505	0.528
1268.000	717.501	80.008	19.994	103.826	19.786	21.739	0.516
1270.000	718.419	80.007	19.994	103.818	19.787	21.694	0.506
1272.000	719.491	80.007	19.993	103.815	19.785	21.804	0.488
1274.000	720.497	80.008	19.994	103.816	19.786	21.790	0.502
1276.000	721.519	80.009	19.993	103.812	19.785	21.808	0.496
1278.000	722.479	80.010	19.994	103.804	19.784	21.937	0.488
1280.000	723.504	80.009	19.994	103.801	19.783	21.994	0.500
1282.000	724.453	80.011	19.993	103.796	19.783	21.991	0.495
1284.000	725.500	80.009	19.995	103.800	19.780	22.226	0.534
1286.000	726.461	80.010	19.995	103.812	19.784	21.894	0.461
1288.000	727.468	80.010	19.995	103.811	19.779	22.312	0.508
1290.000	728.481	80.010	19.994	103.817	19.780	22.208	0.512
1292.000	729.431	80.010	19.993	103.798	19.782	22.060	0.482
1294.000	730.484	80.010	19.993	103.809	19.783	22.000	0.524
1296.000	731.480	80.010	19.994	103.806	19.782	22.069	0.511
1298.000	732.481	80.010	19.993	103.815	19.781	22.162	0.520
1300.000	733.455	80.009	19.994	103.786	19.783	21.994	0.491
1302.000	734.457	80.011	19.993	103.792	19.779	22.278	0.494
1304.000	735.477	80.009	19.993	103.813	19.781	22.131	0.504
1306.000	736.502	80.011	19.993	103.800	19.782	22.086	0.522
1308.000	737.473	80.011	19.993	103.808	19.778	22.393	0.517
1310.000	738.511	80.011	19.994	103.801	19.778	22.372	0.516
1312.000	739.481	80.011	19.994	103.818	19.783	21.987	0.492
1314.000	740.520	80.010	19.994	103.810	19.779	22.257	0.506
1316.000	741.501	80.009	19.994	103.800	19.780	22.249	0.509
1318.000	742.542	80.008	19.994	103.802	19.779	22.257	0.508
1320.000	743.585	80.009	19.995	103.796	19.777	22.414	0.562
1322.000	744.555	80.008	19.993	103.785	19.778	22.406	0.475
1323.500	745.303	80.010	19.993	103.797	19.777	22.478	0.485