File: 01_Data/Black_PMMA/STA/10K_min/Black_PMMA_STA_N2_10KData_220211_R1.csv
##Temp./Â°C,Time/min,Mass(subtr.2)/%,DSC(subtr.2)/(mW/mg),Sensit./(uV/mW)
49.681,10.00917,100.213,-0.00357484,1.07517
50.181,10.6742,100.2,0.02448381,1.0749
50.681,10.85783,100.225,0.0472916,1.07464
51.181,10.98599,100.235,0.06781735,1.07438
51.681,11.09202,100.254,0.08658531,1.07412
52.181,11.18641,100.262,0.10128,1.07386
52.681,11.27369,100.241,0.11333,1.0736
53.181,11.35648,100.219,0.12592,1.07334
53.681,11.43455,100.235,0.1373,1.07308
54.181,11.5079,100.225,0.14586,1.07282
54.681,11.57806,100.258,0.15446,1.07256
55.181,11.64598,100.231,0.16195,1.0723
55.681,11.71195,100.262,0.16941,1.07204
56.181,11.77617,100.245,0.17672,1.07178
56.681,11.8393,100.204,0.18205,1.07152
57.181,11.90085,100.212,0.18487,1.07126
57.681,11.96166,100.207,0.19223,1.071
58.181,12.02157,100.202,0.19537,1.07074
58.681,12.081,100.216,0.20162,1.07048
59.181,12.1397,100.23,0.20193,1.07022
59.681,12.19769,100.26,0.20678,1.06996
60.181,12.25497,100.257,0.20939,1.0697
60.681,12.3118,100.292,0.21123,1.06944
61.181,12.36846,100.2625,0.21534,1.06918
61.681,12.42426,100.232,0.21755,1.06892
62.181,12.4804,100.227,0.22098,1.06866
62.681,12.5365,100.24,0.22201,1.0684
63.181,12.59197,100.204,0.22441,1.06814
63.681,12.6478,100.176,0.22718,1.06788
64.181,12.70301,100.207,0.22926,1.06762
64.681,12.75793,100.2253,0.23041,1.06736
65.181,12.81311,100.234,0.23137,1.0671
65.681,12.86778,100.26,0.23418,1.06684
66.181,12.92215,100.241,0.23442,1.06658
66.681,12.9764,100.244,0.23873,1.06633
67.181,13.03042,100.276,0.23745,1.06607
67.681,13.0845,100.26,0.23865,1.06581
68.181,13.13858,100.2587,0.24096,1.06555
68.681,13.1925,100.226,0.24181,1.06529
69.181,13.24605,100.227,0.24217,1.06503
69.681,13.29962,100.259,0.24476,1.06477
70.181,13.3531,100.227,0.2455,1.06451
70.681,13.40637,100.192,0.24697,1.06425
71.181,13.4597,100.227,0.24997,1.06399
71.681,13.5128,100.228,0.24948,1.06373
72.181,13.5656,100.198,0.25038,1.06348
72.681,13.6185,100.201,0.25249,1.06322
73.181,13.6715,100.212,0.25417,1.06296
73.681,13.72434,100.226,0.25641,1.0627
74.181,13.77715,100.194,0.25855,1.06244
74.681,13.8299,100.227,0.25882,1.06218
75.181,13.8825,100.227,0.26017,1.06192
75.681,13.93479,100.262,0.26579,1.06166
76.181,13.987,100.26,0.26411,1.06141
76.681,14.0392,100.226,0.26496,1.06115
77.181,14.09097,100.198,0.2686,1.06089
77.681,14.14269,100.1932,0.2669,1.06063
78.181,14.1944,100.215,0.26749,1.06037
78.681,14.24596,100.226,0.26781,1.06011
79.181,14.29778,100.258,0.26912,1.05985
79.681,14.35,100.245,0.27103,1.0596
80.181,14.4019,100.26,0.27221,1.05934
80.681,14.4535,100.226,0.27084,1.05908
81.181,14.5049,100.226,0.27083,1.05882
81.681,14.55601,100.244,0.2697,1.05856
82.181,14.6071,100.226,0.26865,1.05831
82.681,14.6584,100.237,0.26821,1.05805
83.181,14.70951,100.226,0.27035,1.05779
83.681,14.7607,100.226,0.26716,1.05753
84.181,14.8118,100.241,0.26997,1.05727
84.681,14.86251,100.234,0.27054,1.05702
85.181,14.91334,100.26,0.26783,1.05676
85.681,14.96405,100.253,0.26882,1.0565
86.181,15.01477,100.251,0.26895,1.05624
86.681,15.06545,100.219,0.26908,1.05598
87.181,15.11597,100.218,0.26781,1.05573
87.681,15.16654,100.185,0.26905,1.05547
88.181,15.217,100.198,0.26979,1.05521
88.681,15.2674,100.226,0.27072,1.05495
89.181,15.31775,100.226,0.26854,1.0547
89.681,15.368,100.226,0.2705,1.05444
90.181,15.41804,100.212,0.27005,1.05418
90.681,15.46817,100.193,0.26936,1.05392
91.181,15.5177,100.193,0.27222,1.05367
91.681,15.5678,100.168,0.27601,1.05341
92.181,15.61764,100.169,0.27352,1.05315
92.681,15.6678,100.182,0.27678,1.05289
93.181,15.7179,100.202,0.27828,1.05264
93.681,15.76699,100.226,0.27567,1.05238
94.181,15.8168,100.193,0.27731,1.05212
94.681,15.8663,100.201,0.27821,1.05187
95.181,15.9161,100.226,0.27756,1.05161
95.681,15.9664,100.193,0.28084,1.05135
96.181,16.01611,100.194,0.2814,1.05109
96.681,16.06586,100.226,0.27995,1.05084
97.181,16.1154,100.193,0.28037,1.05058
97.681,16.16475,100.229,0.28361,1.05032
98.181,16.2142,100.226,0.28294,1.05007
98.681,16.26353,100.225,0.28509,1.04981
99.181,16.31294,100.218,0.28677,1.04955
99.681,16.3625,100.218,0.28581,1.0493
100.181,16.41183,100.2203,0.28709,1.04904
100.681,16.46132,100.229,0.28613,1.04878
101.181,16.51059,100.226,0.2877,1.04853
101.681,16.5596,100.226,0.29052,1.04827
102.181,16.60896,100.226,0.2912,1.04801
102.681,16.65801,100.226,0.29199,1.04776
103.181,16.7072,100.224,0.29248,1.0475
103.681,16.7563,100.226,0.29387,1.04724
104.181,16.8053,100.227,0.29433,1.04699
104.681,16.85435,100.192,0.29548,1.04673
105.181,16.90333,100.168,0.29837,1.04648
105.681,16.95228,100.161,0.29992,1.04622
106.181,17.00122,100.162,0.3011,1.04596
106.681,17.05014,100.2,0.30342,1.04571
107.181,17.09885,100.232,0.30435,1.04545
107.681,17.14777,100.232,0.3037,1.04519
108.181,17.1968,100.201,0.30594,1.04494
108.681,17.24595,100.166,0.30981,1.04468
109.181,17.29496,100.166,0.3082,1.04443
109.681,17.34384,100.166,0.31006,1.04417
110.181,17.39261,100.166,0.31117,1.04391
110.681,17.44128,100.129,0.31345,1.04366
111.181,17.49,100.099,0.31421,1.0434
111.681,17.53896,100.132,0.31537,1.04315
112.181,17.58776,100.166,0.31698,1.04289
112.681,17.6368,100.132,0.31831,1.04264
113.181,17.68574,100.166,0.31941,1.04238
113.681,17.73461,100.166,0.32021,1.04212
114.181,17.78365,100.162,0.32269,1.04187
114.681,17.8325,100.181,0.32386,1.04161
115.181,17.88094,100.173,0.32548,1.04136
115.681,17.9299,100.166,0.32532,1.0411
116.181,17.97876,100.19,0.32859,1.04085
116.681,18.02769,100.199,0.33155,1.04059
117.181,18.0767,100.199,0.33232,1.04034
117.681,18.12564,100.165,0.33457,1.04008
118.181,18.17432,100.167,0.33501,1.03983
118.681,18.2231,100.1324,0.34049,1.03957
119.181,18.27177,100.132,0.34053,1.03931
119.681,18.3207,100.132,0.34446,1.03906
120.181,18.3696,100.133,0.3481,1.0388
120.681,18.4183,100.166,0.34795,1.03855
121.181,18.4671,100.133,0.35185,1.03829
121.681,18.51602,100.132,0.35265,1.03804
122.181,18.5646,100.132,0.35628,1.03778
122.681,18.61337,100.132,0.3579,1.03753
123.181,18.6619,100.132,0.35948,1.03727
123.681,18.71053,100.139,0.36293,1.03702
124.181,18.75919,100.141,0.36461,1.03676
124.681,18.80793,100.149,0.36861,1.03651
125.181,18.85644,100.149,0.36929,1.03625
125.681,18.905,100.149,0.37075,1.036
126.181,18.95354,100.148,0.37235,1.03574
126.681,19.00197,100.115,0.37351,1.03549
127.181,19.0506,100.133,0.37627,1.03524
127.681,19.09933,100.133,0.37714,1.03498
128.181,19.148,100.116,0.37855,1.03473
128.681,19.19642,100.116,0.38159,1.03447
129.181,19.2448,100.116,0.38165,1.03422
129.681,19.29316,100.099,0.38273,1.03396
130.181,19.34163,100.136,0.38476,1.03371
130.681,19.3901,100.116,0.38509,1.03345
131.181,19.43865,100.1079,0.38609,1.0332
131.681,19.48735,100.074,0.38576,1.03294
132.181,19.5358,100.075,0.3874,1.03269
132.681,19.5842,100.075,0.38796,1.03244
133.181,19.63206,100.09,0.38875,1.03218
133.681,19.68049,100.088,0.38746,1.03193
134.181,19.729,100.066,0.39083,1.03167
134.681,19.77777,100.066,0.3884,1.03142
135.181,19.82685,100.06,0.38972,1.03116
135.681,19.8757,100.06,0.39068,1.03091
136.181,19.92429,100.025,0.3893,1.03066
136.681,19.97271,100.025,0.39139,1.0304
137.181,20.0208,100.025,0.39328,1.03015
137.681,20.06896,100.033,0.39222,1.02989
138.181,20.11682,100.033,0.39329,1.02964
138.681,20.16498,100.047,0.39256,1.02939
139.181,20.21346,100.057,0.39483,1.02913
139.681,20.2622,100.033,0.39458,1.02888
140.181,20.31117,100.033,0.39728,1.02862
140.681,20.3597,100.033,0.39753,1.02837
141.181,20.40842,100.033,0.39749,1.02812
141.681,20.45673,100.058,0.39908,1.02786
142.181,20.5049,100.058,0.39685,1.02761
142.681,20.55337,100.058,0.40019,1.02736
143.181,20.60165,100.025,0.39909,1.0271
143.681,20.64979,100.025,0.39947,1.02685
144.181,20.69815,99.99181,0.39999,1.02659
144.681,20.74636,99.99169,0.39895,1.02634
145.181,20.7946,99.99185,0.40067,1.02609
145.681,20.84305,99.95851,0.40216,1.02583
146.181,20.89134,99.9944,0.40157,1.02558
146.681,20.9396,100.027,0.40394,1.02533
147.181,20.98793,100.021,0.40266,1.02507
147.681,21.0361,99.99449,0.40317,1.02482
148.181,21.0842,99.99463,0.40442,1.02457
148.681,21.13233,99.96104,0.40724,1.02431
149.181,21.1804,99.96121,0.40779,1.02406
149.681,21.22841,99.96121,0.40699,1.02381
150.181,21.27664,99.96121,0.40708,1.02355
150.681,21.325,99.95889,0.4084,1.0233
151.181,21.37296,99.92826,0.40959,1.02305
151.681,21.4211,99.92772,0.40907,1.02279
152.181,21.46929,99.9615,0.41215,1.02254
152.681,21.51741,99.92996,0.41244,1.02229
153.181,21.56555,99.9282,0.4151,1.02203
153.681,21.61361,99.9282,0.41418,1.02178
154.181,21.66171,99.9282,0.41481,1.02153
154.681,21.70969,99.929,0.41779,1.02127
155.181,21.75757,99.9276,0.41944,1.02102
155.681,21.80561,99.9124,0.4209,1.02077
156.181,21.85376,99.89497,0.42142,1.02051
156.681,21.9017,99.89498,0.42299,1.02026
157.181,21.94963,99.89496,0.42388,1.02001
157.681,21.99758,99.89496,0.42448,1.01976
158.181,22.04566,99.85717,0.42396,1.0195
158.681,22.0937,99.823,0.4249,1.01925
159.181,22.1421,99.8232,0.42764,1.019
159.681,22.19061,99.82299,0.42739,1.01874
160.181,22.23878,99.78954,0.4265,1.01849
160.681,22.28677,99.80628,0.42811,1.01824
161.181,22.33481,99.80627,0.42915,1.01799
161.681,22.38269,99.78248,0.43123,1.01773
162.181,22.43065,99.74053,0.43424,1.01748
162.681,22.4787,99.7403,0.43587,1.01723
163.181,22.5269,99.74038,0.43624,1.01697
163.681,22.57476,99.70594,0.43886,1.01672
164.181,22.62279,99.70705,0.4383,1.01647
164.681,22.67098,99.70705,0.44322,1.01622
165.181,22.71914,99.70705,0.44339,1.01596
165.681,22.76732,99.71984,0.44475,1.01571
166.181,22.81544,99.74021,0.44865,1.01546
166.681,22.86356,99.70658,0.4466,1.01521
167.181,22.91156,99.67437,0.45046,1.01495
167.681,22.95961,99.64022,0.45306,1.0147
168.181,23.0076,99.60774,0.4531,1.01445
168.681,23.0556,99.64256,0.45717,1.0142
169.181,23.1036,99.6421,0.45957,1.01394
169.681,23.15171,99.6066,0.45993,1.01369
170.181,23.19973,99.58281,0.46143,1.01344
170.681,23.2476,99.5829,0.46241,1.01319
171.181,23.2957,99.5487,0.4668,1.01293
171.681,23.34355,99.54977,0.46641,1.01268
172.181,23.39155,99.5162,0.46905,1.01243
172.681,23.43954,99.51638,0.47021,1.01218
173.181,23.4875,99.48501,0.46958,1.01192
173.681,23.53548,99.48427,0.4744,1.01167
174.181,23.5835,99.4756,0.47598,1.01142
174.681,23.63155,99.49561,0.48068,1.01117
175.181,23.6796,99.45015,0.48107,1.01091
175.681,23.7277,99.44134,0.48414,1.01066
176.181,23.7756,99.37606,0.48564,1.01041
176.681,23.82349,99.37557,0.48474,1.01016
177.181,23.8715,99.37314,0.48787,1.00991
177.681,23.91935,99.34236,0.49014,1.00965
178.181,23.9674,99.30898,0.49201,1.0094
178.681,24.01543,99.3043,0.49153,1.00915
179.181,24.06336,99.27642,0.49359,1.0089
179.681,24.11141,99.27615,0.49603,1.00864
180.181,24.15952,99.24305,0.49742,1.00839
180.681,24.20774,99.21,0.50016,1.00814
181.181,24.256,99.2273,0.49926,1.00789
181.681,24.3041,99.23391,0.50142,1.00764
182.181,24.35194,99.1863,0.50141,1.00738
182.681,24.4,99.16752,0.50371,1.00713
183.181,24.44784,99.13485,0.50459,1.00688
183.681,24.4957,99.0973,0.50576,1.00663
184.181,24.54348,99.05434,0.50804,1.00638
184.681,24.59119,99.05111,0.50787,1.00612
185.181,24.639,99.0355,0.50992,1.00587
185.681,24.6867,99.03494,0.5114,1.00562
186.181,24.7344,99.00294,0.51224,1.00537
186.681,24.7822,98.95456,0.51344,1.00512
187.181,24.83004,98.90234,0.5128,1.00486
187.681,24.87797,98.8711,0.51205,1.00461
188.181,24.92584,98.8438,0.51155,1.00436
188.681,24.9735,98.8172,0.51424,1.00411
189.181,25.02137,98.8036,0.51243,1.00386
189.681,25.069,98.77049,0.5116,1.0036
190.181,25.1168,98.7377,0.50916,1.00335
190.681,25.16471,98.73962,0.50795,1.0031
191.181,25.2125,98.70424,0.50795,1.00285
191.681,25.26039,98.67704,0.50587,1.0026
192.181,25.3084,98.67101,0.50718,1.00234
192.681,25.35633,98.61725,0.50419,1.00209
193.181,25.4043,98.61315,0.50433,1.00184
193.681,25.45213,98.60643,0.50348,1.00159
194.181,25.5,98.55897,0.5011,1.00134
194.681,25.5478,98.5023,0.50209,1.00108
195.181,25.5957,98.4673,0.49668,1.00083
195.681,25.64351,98.47157,0.4991,1.00058
196.181,25.69139,98.44808,0.49782,1.00033
196.681,25.73933,98.4363,0.49886,1.00008
197.181,25.78726,98.40315,0.49511,0.99982
197.681,25.83526,98.4055,0.49666,0.99957
198.181,25.88314,98.36991,0.49712,0.99932
198.681,25.9309,98.3364,0.49614,0.99907
199.181,25.9786,98.3035,0.4953,0.99882
199.681,26.02617,98.2737,0.4943,0.99857
200.181,26.07384,98.27035,0.49675,0.99831
200.681,26.12153,98.23613,0.49619,0.99806
201.181,26.1695,98.23736,0.49617,0.99781
201.681,26.2173,98.2041,0.49565,0.99756
202.181,26.26538,98.17148,0.49836,0.99731
202.681,26.31322,98.13848,0.50104,0.99705
203.181,26.361,98.12044,0.50049,0.9968
203.681,26.4089,98.08815,0.49969,0.99655
204.181,26.45655,98.0555,0.50274,0.9963
204.681,26.5043,98.0204,0.50306,0.99605
205.181,26.5522,98.01814,0.50498,0.99579
205.681,26.60009,97.98868,0.50343,0.99554
206.181,26.6479,97.98872,0.50415,0.99529
206.681,26.6958,97.9545,0.50434,0.99504
207.181,26.74359,97.95907,0.50692,0.99479
207.681,26.7914,97.90555,0.50936,0.99453
208.181,26.83939,97.8887,0.51235,0.99428
208.681,26.8872,97.84774,0.51066,0.99403
209.181,26.9351,97.81545,0.51116,0.99378
209.681,26.983,97.80464,0.51368,0.99353
210.181,27.03084,97.7731,0.51367,0.99328
210.681,27.07873,97.76563,0.51352,0.99302
211.181,27.1266,97.72114,0.51423,0.99277
211.681,27.1744,97.71426,0.51366,0.99252
212.181,27.22226,97.69975,0.51331,0.99227
212.681,27.2701,97.64027,0.51514,0.99202
213.181,27.31796,97.5759,0.51671,0.99176
213.681,27.3658,97.54016,0.51557,0.99151
214.181,27.41341,97.54106,0.5139,0.99126
214.681,27.461,97.54106,0.51313,0.99101
215.181,27.50885,97.50829,0.51495,0.99076
215.681,27.5564,97.51643,0.51258,0.9905
216.181,27.60407,97.48311,0.51066,0.99025
216.681,27.6522,97.46712,0.50927,0.99
217.181,27.69978,97.45013,0.50714,0.98975
217.681,27.74752,97.41662,0.50566,0.9895
218.181,27.79529,97.3884,0.50273,0.98924
218.681,27.84297,97.36221,0.50091,0.98899
219.181,27.8906,97.35869,0.49926,0.98874
219.681,27.93833,97.35869,0.49981,0.98849
220.181,27.9859,97.35848,0.49347,0.98824
220.681,28.03377,97.37376,0.49373,0.98798
221.181,28.0816,97.37488,0.4895,0.98773
221.681,28.1292,97.33372,0.48887,0.98748
222.181,28.1768,97.3255,0.48459,0.98723
222.681,28.22437,97.31322,0.48533,0.98697
223.181,28.27187,97.2922,0.48175,0.98672
223.681,28.3195,97.29188,0.48065,0.98647
224.181,28.36722,97.25887,0.47881,0.98622
224.681,28.4148,97.22651,0.47701,0.98597
225.181,28.4624,97.22229,0.4771,0.98571
225.681,28.50982,97.19296,0.4758,0.98546
226.181,28.5574,97.19295,0.47535,0.98521
226.681,28.6048,97.19293,0.47587,0.98496
227.181,28.6524,97.20039,0.4733,0.9847
227.681,28.70017,97.2073,0.47119,0.98445
228.181,28.74775,97.18465,0.47309,0.9842
228.681,28.7954,97.18463,0.47278,0.98395
229.181,28.84295,97.18463,0.46881,0.9837
229.681,28.89061,97.18463,0.46901,0.98344
230.181,28.93817,97.16976,0.46818,0.98319
230.681,28.9858,97.12634,0.46957,0.98294
231.181,29.0336,97.12645,0.46834,0.98269
231.681,29.08135,97.12645,0.46926,0.98243
232.181,29.129,97.12643,0.46896,0.98218
232.681,29.177,97.11836,0.46879,0.98193
233.181,29.22468,97.11839,0.46885,0.98168
233.681,29.27232,97.11837,0.46794,0.98142
234.181,29.3202,97.10028,0.46473,0.98117
234.681,29.36788,97.09345,0.46592,0.98092
235.181,29.41572,97.0941,0.46983,0.98067
235.681,29.46361,97.1264,0.46788,0.98041
236.181,29.51145,97.12595,0.46727,0.98016
236.681,29.55926,97.12671,0.47145,0.97991
237.181,29.60685,97.1267,0.46992,0.97965
237.681,29.6545,97.12671,0.47139,0.9794
238.181,29.702,97.0911,0.47027,0.97915
238.681,29.7498,97.09345,0.47141,0.9789
239.181,29.7976,97.09405,0.4718,0.97864
239.681,29.8453,97.05656,0.47329,0.97839
240.181,29.89341,97.0519,0.47346,0.97814
240.681,29.94104,97.05189,0.47358,0.97789
241.181,29.9888,97.05193,0.47436,0.97763
241.681,30.03649,97.02759,0.47448,0.97738
242.181,30.08421,97.0272,0.47464,0.97713
242.681,30.132,97.02684,0.47795,0.97687
243.181,30.1796,96.994,0.47474,0.97662
243.681,30.22733,96.99395,0.4804,0.97637
244.181,30.2751,96.99395,0.47895,0.97611
244.681,30.32276,96.9949,0.48482,0.97586
245.181,30.37048,96.9609,0.4849,0.97561
245.681,30.41822,96.96096,0.48567,0.97536
246.181,30.46606,96.96096,0.48524,0.9751
246.681,30.51387,96.96096,0.48821,0.97485
247.181,30.5617,96.96096,0.48854,0.9746
247.681,30.60942,96.96096,0.4913,0.97434
248.181,30.6571,96.96096,0.49135,0.97409
248.681,30.7047,96.96096,0.49126,0.97384
249.181,30.75232,96.96085,0.49208,0.97358
249.681,30.7999,96.94442,0.49241,0.97333
250.181,30.8476,96.92718,0.49275,0.97308
250.681,30.89538,96.92771,0.49443,0.97282
251.181,30.94312,96.92945,0.49601,0.97257
251.681,30.991,96.95263,0.49682,0.97232
252.181,31.0388,96.91991,0.49892,0.97206
252.681,31.0865,96.90835,0.49957,0.97181
253.181,31.1341,96.88633,0.50048,0.97155
253.681,31.1817,96.8527,0.50178,0.9713
254.181,31.2292,96.8529,0.50289,0.97105
254.681,31.27685,96.85292,0.50423,0.97079
255.181,31.32439,96.80896,0.50563,0.97054
255.681,31.37218,96.80329,0.50608,0.97029
256.181,31.41995,96.8206,0.50756,0.97003
256.681,31.4678,96.8199,0.50844,0.96978
257.181,31.51558,96.82168,0.51204,0.96952
257.681,31.5632,96.80331,0.51069,0.96927
258.181,31.61089,96.80328,0.51113,0.96902
258.681,31.6585,96.80374,0.51456,0.96876
259.181,31.70631,96.76997,0.51393,0.96851
259.681,31.75416,96.77003,0.51475,0.96825
260.181,31.80207,96.77003,0.51701,0.968
260.681,31.84988,96.77003,0.51929,0.96775
261.181,31.8977,96.77003,0.51928,0.96749
261.681,31.9455,96.76727,0.51887,0.96724
262.181,31.99328,96.73682,0.52203,0.96698
262.681,32.0411,96.7365,0.52386,0.96673
263.181,32.08893,96.7038,0.52557,0.96647
263.681,32.13667,96.70393,0.52806,0.96622
264.181,32.1845,96.66975,0.52889,0.96597
264.681,32.23223,96.6005,0.53217,0.96571
265.181,32.28034,96.60162,0.5361,0.96546
265.681,32.3282,96.5685,0.53469,0.9652
266.181,32.37607,96.5685,0.53836,0.96495
266.681,32.42389,96.5578,0.53859,0.96469
267.181,32.47152,96.5689,0.54161,0.96444
267.681,32.51925,96.53525,0.54274,0.96418
268.181,32.5672,96.50195,0.5455,0.96393
268.681,32.61506,96.50216,0.54957,0.96367
269.181,32.66296,96.44447,0.55013,0.96342
269.681,32.71098,96.47059,0.55276,0.96316
270.181,32.75866,96.4688,0.55498,0.96291
270.681,32.80648,96.471,0.55792,0.96265
271.181,32.8545,96.43576,0.55916,0.9624
271.681,32.90232,96.43575,0.56208,0.96214
272.181,32.95028,96.4173,0.56269,0.96189
272.681,32.99818,96.36922,0.56643,0.96163
273.181,33.0462,96.33652,0.56936,0.96138
273.681,33.09417,96.3099,0.5728,0.96112
274.181,33.14206,96.25442,0.57374,0.96087
274.681,33.18991,96.1947,0.57842,0.96061
275.181,33.23757,96.1901,0.57726,0.96036
275.681,33.28543,96.16225,0.58005,0.9601
276.181,33.33328,96.1622,0.58413,0.95984
276.681,33.3812,96.16229,0.58467,0.95959
277.181,33.42918,96.1292,0.58895,0.95933
277.681,33.47703,96.095,0.59121,0.95908
278.181,33.52476,96.06126,0.59378,0.95882
278.681,33.5726,96.03098,0.59855,0.95857
279.181,33.62039,95.9967,0.60003,0.95831
279.681,33.66813,95.9605,0.60362,0.95805
280.181,33.7157,95.92774,0.60641,0.9578
280.681,33.76342,95.95148,0.60888,0.95754
281.181,33.81105,95.8941,0.61429,0.95729
281.681,33.8589,95.86123,0.61507,0.95703
282.181,33.9069,95.83033,0.6166,0.95677
282.681,33.95475,95.8146,0.61805,0.95652
283.181,34.00268,95.77109,0.61882,0.95626
283.681,34.05079,95.7338,0.61981,0.956
284.181,34.0987,95.72876,0.62358,0.95575
284.681,34.1468,95.68094,0.62319,0.95549
285.181,34.1948,95.64591,0.62641,0.95523
285.681,34.2429,95.60056,0.63046,0.95498
286.181,34.29098,95.52243,0.6289,0.95472
286.681,34.33894,95.4857,0.633,0.95446
287.181,34.38692,95.4512,0.63421,0.95421
287.681,34.43489,95.40054,0.63633,0.95395
288.181,34.48268,95.3698,0.63803,0.95369
288.681,34.5304,95.33952,0.63942,0.95344
289.181,34.57824,95.24735,0.6403,0.95318
289.681,34.62599,95.21544,0.64481,0.95292
290.181,34.67402,95.17039,0.64666,0.95266
290.681,34.7222,95.131,0.6483,0.95241
291.181,34.77017,95.10061,0.65088,0.95215
291.681,34.81827,95.0536,0.6514,0.95189
292.181,34.86634,94.994,0.65547,0.95163
292.681,34.91424,94.99077,0.65648,0.95138
293.181,34.96239,94.9481,0.66051,0.95112
293.681,35.0105,94.8841,0.66245,0.95086
294.181,35.05849,94.84746,0.66227,0.9506
294.681,35.1066,94.78278,0.66592,0.95035
295.181,35.15449,94.74039,0.6691,0.95009
295.681,35.20248,94.69164,0.66927,0.94983
296.181,35.2504,94.63343,0.67039,0.94957
296.681,35.29833,94.60259,0.67301,0.94931
297.181,35.3463,94.53061,0.67672,0.94906
297.681,35.3941,94.46429,0.67496,0.9488
298.181,35.4417,94.41624,0.67962,0.94854
298.681,35.4895,94.38006,0.6797,0.94828
299.181,35.53725,94.34411,0.68144,0.94802
299.681,35.58548,94.2984,0.68343,0.94776
300.181,35.6338,94.2254,0.6856,0.94751
300.681,35.68207,94.14771,0.68691,0.94725
301.181,35.73042,94.0624,0.68839,0.94699
301.681,35.7783,94.00922,0.68974,0.94673
302.181,35.82627,93.9368,0.69238,0.94647
302.681,35.87407,93.88841,0.69386,0.94621
303.181,35.92204,93.83046,0.69716,0.94595
303.681,35.97007,93.75177,0.69573,0.94569
304.181,36.01795,93.71629,0.69455,0.94543
304.681,36.066,93.6347,0.69373,0.94517
305.181,36.11387,93.53224,0.69256,0.94492
305.681,36.16168,93.45421,0.68794,0.94466
306.181,36.2095,93.41345,0.68414,0.9444
306.681,36.25728,93.33224,0.67525,0.94414
307.181,36.30506,93.26383,0.67319,0.94388
307.681,36.353,93.1846,0.66949,0.94362
308.181,36.4009,93.15639,0.66811,0.94336
308.681,36.44873,93.07948,0.66899,0.9431
309.181,36.49641,92.99834,0.66993,0.94284
309.681,36.54428,92.91405,0.67163,0.94258
310.181,36.59192,92.81764,0.6756,0.94232
310.681,36.63973,92.71857,0.68148,0.94206
311.181,36.68764,92.60722,0.6894,0.9418
311.681,36.73539,92.53288,0.69639,0.94154
312.181,36.7832,92.449,0.70471,0.94128
312.681,36.83112,92.39413,0.71397,0.94102
313.181,36.879,92.35543,0.72415,0.94075
313.681,36.92682,92.26342,0.73464,0.94049
314.181,36.97472,92.17246,0.74625,0.94023
314.681,37.0226,92.0824,0.75848,0.93997
315.181,37.07036,91.99452,0.76948,0.93971
315.681,37.11823,91.90873,0.78287,0.93945
316.181,37.16585,91.79938,0.79562,0.93919
316.681,37.21386,91.7262,0.80573,0.93893
317.181,37.26204,91.57655,0.82119,0.93867
317.681,37.3102,91.4784,0.8334,0.93841
318.181,37.3586,91.318,0.84568,0.93814
318.681,37.40688,91.22721,0.86129,0.93788
319.181,37.455,91.10843,0.87267,0.93762
319.681,37.5032,90.95376,0.88613,0.93736
320.181,37.5514,90.8047,0.90053,0.9371
320.681,37.5997,90.70215,0.91217,0.93684
321.181,37.64777,90.59774,0.92499,0.93657
321.681,37.6961,90.44601,0.9393,0.93631
322.181,37.74436,90.28877,0.95296,0.93605
322.681,37.7926,90.12656,0.96793,0.93579
323.181,37.8411,89.95088,0.97912,0.93552
323.681,37.88946,89.77616,0.99259,0.93526
324.181,37.93773,89.62307,1.00893,0.935
324.681,37.98596,89.50864,1.02453,0.93474
325.181,38.03438,89.3604,1.03839,0.93447
325.681,38.0829,89.15263,1.05399,0.93421
326.181,38.13126,88.97166,1.06845,0.93395
326.681,38.17985,88.7568,1.08573,0.93369
327.181,38.22826,88.57118,1.10357,0.93342
327.681,38.27663,88.3811,1.11851,0.93316
328.181,38.32522,88.19593,1.13668,0.9329
328.681,38.3734,87.97495,1.15675,0.93263
329.181,38.42207,87.76946,1.17256,0.93237
329.681,38.47087,87.5291,1.19291,0.93211
330.181,38.51935,87.26535,1.2109,0.93184
330.681,38.56823,87.05351,1.23038,0.93158
331.181,38.61673,86.80651,1.25248,0.93131
331.681,38.66532,86.5219,1.27448,0.93105
332.181,38.71405,86.2537,1.2971,0.93079
332.681,38.76274,85.96195,1.31748,0.93052
333.181,38.81136,85.68505,1.34047,0.93026
333.681,38.85992,85.41088,1.36746,0.92999
334.181,38.90853,85.1416,1.3919,0.92973
334.681,38.95712,84.8472,1.41589,0.92946
335.181,39.00573,84.52975,1.44431,0.9292
335.681,39.05429,84.1844,1.46987,0.92894
336.181,39.10277,83.841,1.49698,0.92867
336.681,39.15141,83.50232,1.52461,0.92841
337.181,39.20005,83.16574,1.55681,0.92814
337.681,39.24876,82.8296,1.58042,0.92788
338.181,39.29765,82.41371,1.61219,0.92761
338.681,39.34636,82.04432,1.64338,0.92734
339.181,39.39492,81.65525,1.67284,0.92708
339.681,39.44328,81.23645,1.70426,0.92681
340.181,39.49203,80.8019,1.73465,0.92655
340.681,39.5409,80.39197,1.76545,0.92628
341.181,39.58972,79.9842,1.80071,0.92602
341.681,39.63888,79.54635,1.83432,0.92575
342.181,39.68776,79.08771,1.86792,0.92548
342.681,39.73644,78.54791,1.90143,0.92522
343.181,39.78483,78.07478,1.93766,0.92495
343.681,39.83339,77.58397,1.96924,0.92469
344.181,39.882,77.0573,2.00539,0.92442
344.681,39.93059,76.5504,2.03946,0.92415
345.181,39.97958,75.99391,2.0765,0.92389
345.681,40.02857,75.4516,2.11333,0.92362
346.181,40.0775,74.8913,2.14769,0.92335
346.681,40.12648,74.31975,2.18069,0.92308
347.181,40.17538,73.7076,2.21814,0.92282
347.681,40.2243,73.097,2.25282,0.92255
348.181,40.27344,72.51177,2.28885,0.92228
348.681,40.3226,71.90293,2.32326,0.92202
349.181,40.37207,71.27317,2.36194,0.92175
349.681,40.42143,70.6007,2.39723,0.92148
350.181,40.47084,69.95136,2.42911,0.92121
350.681,40.5203,69.3052,2.4663,0.92094
351.181,40.5693,68.61408,2.49719,0.92068
351.681,40.61834,67.87541,2.53167,0.92041
352.181,40.66725,67.11092,2.56472,0.92014
352.681,40.71615,66.42571,2.59783,0.91987
353.181,40.7649,65.7201,2.62847,0.9196
353.681,40.8138,64.9618,2.65736,0.91933
354.181,40.86264,64.17134,2.68817,0.91907
354.681,40.9114,63.418,2.71925,0.9188
355.181,40.96032,62.6282,2.74499,0.91853
355.681,41.00925,61.8291,2.77432,0.91826
356.181,41.05818,61.01566,2.79831,0.91799
356.681,41.1073,60.2416,2.8218,0.91772
357.181,41.15623,59.4447,2.84527,0.91745
357.681,41.20507,58.5741,2.86664,0.91718
358.181,41.25404,57.73296,2.88383,0.91691
358.681,41.30299,56.8741,2.90095,0.91664
359.181,41.35198,56.04815,2.91702,0.91637
359.681,41.40099,55.21856,2.92604,0.9161
360.181,41.45004,54.37229,2.93776,0.91583
360.681,41.49905,53.45601,2.94721,0.91556
361.181,41.54805,52.597,2.95414,0.91529
361.681,41.59688,51.6877,2.96016,0.91502
362.181,41.64587,50.79615,2.96607,0.91475
362.681,41.69497,49.8934,2.96731,0.91448
363.181,41.74389,49.0035,2.96505,0.91421
363.681,41.79298,48.17038,2.95937,0.91394
364.181,41.84187,47.295,2.95104,0.91367
364.681,41.89074,46.3824,2.94033,0.91339
365.181,41.93959,45.46123,2.9211,0.91312
365.681,41.98845,44.59169,2.9154,0.91285
366.181,42.0374,43.6855,2.91756,0.91258
366.681,42.0862,42.8206,2.89811,0.91231
367.181,42.13494,41.9144,2.88909,0.91204
367.681,42.1837,41.02302,2.8902,0.91176
368.181,42.2324,40.17927,2.87103,0.91149
368.681,42.28093,39.3453,2.85727,0.91122
369.181,42.32951,38.455,2.84225,0.91095
369.681,42.37786,37.56941,2.82465,0.91067
370.181,42.42615,36.78282,2.8463,0.9104
370.681,42.47443,35.94464,2.81308,0.91013
371.181,42.52279,35.08311,2.81068,0.90986
371.681,42.57116,34.24969,2.77022,0.90958
372.181,42.61959,33.34884,2.73064,0.90931
372.681,42.66823,32.56548,2.72332,0.90904
373.181,42.71712,31.7314,2.70928,0.90876
373.681,42.766,30.9245,2.66295,0.90849
374.181,42.81477,30.02137,2.64806,0.90822
374.681,42.86337,29.22007,2.58161,0.90794
375.181,42.9118,28.48645,2.56819,0.90767
375.681,42.96,27.71472,2.52142,0.90739
376.181,43.00835,26.9116,2.49273,0.90712
376.681,43.05666,26.1898,2.46392,0.90684
377.181,43.10494,25.45112,2.41857,0.90657
377.681,43.15328,24.69756,2.3898,0.9063
378.181,43.20151,23.99842,2.33535,0.90602
378.681,43.2498,23.25819,2.30694,0.90575
379.181,43.29808,22.5513,2.26047,0.90547
379.681,43.3464,21.85925,2.2293,0.9052
380.181,43.3947,21.20812,2.17433,0.90492
380.681,43.44298,20.5492,2.13814,0.90464
381.181,43.4913,19.8613,2.10172,0.90437
381.681,43.53965,19.22728,2.04918,0.90409
382.181,43.5878,18.65914,2.00155,0.90382
382.681,43.6361,18.01843,1.96737,0.90354
383.181,43.6843,17.39444,1.92343,0.90326
383.681,43.73253,16.85625,1.88412,0.90299
384.181,43.78107,16.27386,1.83807,0.90271
384.681,43.82936,15.7085,1.79612,0.90244
385.181,43.8776,15.1485,1.75269,0.90216
385.681,43.9257,14.6121,1.70473,0.90188
386.181,43.97398,14.08428,1.6566,0.9016
386.681,44.02215,13.56831,1.6068,0.90133
387.181,44.07006,13.13654,1.56687,0.90105
387.681,44.11805,12.66506,1.51626,0.90077
388.181,44.16574,12.21627,1.47022,0.9005
388.681,44.21351,11.75699,1.42414,0.90022
389.181,44.2616,11.27031,1.38279,0.89994
389.681,44.30979,10.8347,1.33267,0.89966
390.181,44.35803,10.46272,1.29457,0.89938
390.681,44.40641,10.0357,1.25243,0.89911
391.181,44.45474,9.66108,1.21457,0.89883
391.681,44.50295,9.30906,1.17424,0.89855
392.181,44.5512,8.94753,1.13354,0.89827
392.681,44.5997,8.60864,1.09566,0.89799
393.181,44.64822,8.26167,1.05883,0.89771
393.681,44.69681,7.91143,1.01821,0.89743
394.181,44.7455,7.6162,0.98147,0.89715
394.681,44.79391,7.32512,0.94868,0.89687
395.181,44.84228,7.02968,0.91544,0.89659
395.681,44.8907,6.74502,0.87996,0.89631
396.181,44.93909,6.4385,0.84872,0.89603
396.681,44.9875,6.18129,0.81756,0.89575
397.181,45.03569,5.95644,0.78515,0.89547
397.681,45.08398,5.72863,0.75653,0.89519
398.181,45.1324,5.50964,0.72645,0.89491
398.681,45.18085,5.27203,0.69742,0.89463
399.181,45.22905,5.08201,0.67223,0.89435
399.681,45.2774,4.91788,0.64119,0.89407
400.181,45.32595,4.72055,0.61438,0.89379
400.681,45.37441,4.53912,0.58861,0.89351
401.181,45.42297,4.33565,0.56569,0.89323
401.681,45.47162,4.15633,0.5462,0.89294
402.181,45.52021,3.96351,0.5187,0.89266
402.681,45.56865,3.81512,0.49571,0.89238
403.181,45.61701,3.66457,0.47401,0.8921
403.681,45.66578,3.50071,0.45436,0.89182
404.181,45.71436,3.38333,0.43615,0.89153
404.681,45.76299,3.2793,0.41781,0.89125
405.181,45.81173,3.2031,0.39531,0.89097
405.681,45.86047,3.0922,0.37884,0.89069
406.181,45.90913,2.99004,0.36238,0.8904
406.681,45.95748,2.87043,0.3457,0.89012
407.181,46.00615,2.75812,0.3287,0.88984
407.681,46.05485,2.67988,0.31575,0.88955
408.181,46.10335,2.59018,0.30291,0.88927
408.681,46.1522,2.51813,0.28893,0.88899
409.181,46.20085,2.45924,0.27725,0.8887
409.681,46.24937,2.35945,0.26518,0.88842
410.181,46.298,2.24125,0.2547,0.88813
410.681,46.34657,2.16742,0.24931,0.88785
411.181,46.3949,2.12141,0.24317,0.88756
411.681,46.4433,2.03831,0.23362,0.88728
412.181,46.49174,1.97039,0.23263,0.887
412.681,46.54007,1.90577,0.22748,0.88671
413.181,46.5886,1.89286,0.22631,0.88642
413.681,46.63709,1.83472,0.22308,0.88614
414.181,46.68553,1.81091,0.21673,0.88585
414.681,46.7342,1.75767,0.21257,0.88557
415.181,46.78287,1.7187,0.20777,0.88528
415.681,46.8316,1.66604,0.20574,0.885
416.181,46.88041,1.62787,0.20476,0.88471
416.681,46.92908,1.58098,0.20296,0.88442
417.181,46.9778,1.54243,0.20154,0.88414
417.681,47.02646,1.50914,0.20018,0.88385
418.181,47.07502,1.48099,0.20151,0.88356
418.681,47.1237,1.47694,0.198,0.88328
419.181,47.17232,1.44207,0.19786,0.88299
419.681,47.22083,1.40961,0.19858,0.8827
420.181,47.26917,1.37632,0.19644,0.88241
420.681,47.31803,1.40947,0.1949,0.88213
421.181,47.36673,1.37664,0.19734,0.88184
421.681,47.41552,1.37839,0.19444,0.88155
422.181,47.46487,1.3128,0.18956,0.88126
422.681,47.5137,1.27681,0.18183,0.88097
423.181,47.5627,1.27598,0.17603,0.88069
423.681,47.6119,1.24372,0.17064,0.8804
424.181,47.66118,1.23893,0.16175,0.88011
424.681,47.7104,1.24367,0.15453,0.87982
425.181,47.7598,1.21059,0.14768,0.87953
425.681,47.80887,1.21058,0.13642,0.87924
426.181,47.85798,1.21058,0.1351,0.87895
426.681,47.90721,1.2103,0.12459,0.87866
427.181,47.9563,1.17753,0.11798,0.87837
427.681,48.00551,1.17865,0.10857,0.87808
428.181,48.05471,1.14442,0.10065,0.87779
428.681,48.104,1.11092,0.09327035,0.8775
429.181,48.1534,1.11223,0.08557341,0.87721
429.681,48.20257,1.14428,0.07545601,0.87692
430.181,48.25206,1.14575,0.06682859,0.87663
430.681,48.30146,1.11107,0.05719557,0.87634
431.181,48.35069,1.11108,0.04136971,0.87605
431.681,48.40002,1.11108,0.02582687,0.87575
432.181,48.44947,1.11108,0.01666093,0.87546
432.681,48.49873,1.11108,-0.0006554881,0.87517
433.181,48.54809,1.11106,-0.01150356,0.87488
433.681,48.59747,1.07833,-0.02185751,0.87459
434.181,48.6469,1.07922,-0.02957106,0.8743
434.681,48.69635,1.04478,-0.03471123,0.874
435.181,48.74588,1.04486,-0.03538953,0.87371
435.681,48.79531,1.07344,-0.03661563,0.87342
436.181,48.84475,1.11058,-0.03238265,0.87312
436.681,48.89417,1.14348,-0.02473573,0.87283
437.181,48.9436,1.14408,-0.01560025,0.87254
437.681,48.99299,1.14408,-0.006796819,0.87224
438.181,49.04244,1.14405,0.002753334,0.87195
438.681,49.0919,1.1117,0.007399255,0.87166
439.181,49.14125,1.11106,0.01519363,0.87136
439.681,49.19061,1.079,0.01717761,0.87107
440.181,49.24006,1.06148,0.02120757,0.87077
440.681,49.28922,1.06146,0.02914711,0.87048
441.181,49.33865,1.06148,0.02707373,0.87018
441.681,49.388,1.0617,0.02791195,0.86989
442.181,49.4373,1.06145,0.03127357,0.86959
442.681,49.48659,1.07435,0.03495941,0.8693
443.181,49.53593,1.07814,0.03209015,0.869
443.681,49.58518,1.10812,0.03618452,0.86871
444.181,49.6346,1.07787,0.03469889,0.86841
444.681,49.684,1.07844,0.03601847,0.86812
445.181,49.73349,1.06116,0.03610129,0.86782
445.681,49.78297,1.06072,0.03743607,0.86752
446.181,49.8324,1.02912,0.04013069,0.86723
446.681,49.88195,0.99487,0.03951233,0.86693
447.181,49.9315,0.99496,0.03827893,0.86663
447.681,49.98043,0.99496,0.03945836,0.86633
448.181,50.02964,1.00431,0.03978708,0.86604
448.681,50.07901,1.01189,0.04086919,0.86574
449.181,50.12827,1.04504,0.04059328,0.86544
449.681,50.17751,1.04484,0.03939971,0.86514
450.181,50.22712,1.04484,0.04015336,0.86485
450.681,50.2764,1.04484,0.042255,0.86455
451.181,50.32558,1.04501,0.04142935,0.86425
451.681,50.3751,1.02594,0.0424042,0.86395
452.181,50.42435,1.01035,0.04110151,0.86365
452.681,50.47347,1.04726,0.04305705,0.86335
453.181,50.5225,1.04485,0.04446994,0.86305
453.681,50.5717,1.06661,0.04416259,0.86275
454.181,50.62086,1.11061,0.04250732,0.86245
454.681,50.66997,1.11099,0.04300687,0.86215
455.181,50.71913,1.07783,0.04414602,0.86185
455.681,50.7683,1.04623,0.04308726,0.86155
456.181,50.81749,1.04483,0.04583336,0.86125
456.681,50.86683,1.04484,0.0428722,0.86095
457.181,50.91623,1.04484,0.04645903,0.86065
457.681,50.96561,1.04484,0.04612472,0.86035
458.181,51.015,1.04484,0.0472629,0.86005
458.681,51.06418,1.04484,0.04694254,0.85975
459.181,51.11323,1.04499,0.04842007,0.85945
459.681,51.16239,1.0206,0.04660121,0.85915
460.181,51.2117,1.01987,0.04834168,0.85884
460.681,51.26103,1.03704,0.04742598,0.85854
461.181,51.31048,1.0559,0.04965109,0.85824
461.681,51.35994,1.06978,0.04659073,0.85794
462.181,51.40931,1.06956,0.04619815,0.85763
462.681,51.45868,1.03652,0.0450624,0.85733
463.181,51.50804,1.03652,0.04791795,0.85703
463.681,51.55738,1.0572,0.04589671,0.85672
464.181,51.60675,1.06977,0.04483977,0.85642
464.681,51.65589,1.06988,0.04648315,0.85612
465.181,51.70512,1.0211,0.05021768,0.85581
465.681,51.7543,1.00277,0.05115878,0.85551
466.181,51.8035,1.00379,0.05174145,0.85521
466.681,51.8527,1.00327,0.05140694,0.8549
467.181,51.90195,1.00327,0.05267779,0.8546
467.681,51.9512,1.00275,0.05165535,0.85429
468.181,52.00036,1.03658,0.05237632,0.85399
468.681,52.04974,1.03654,0.05556804,0.85368
469.181,52.09903,1.06149,0.05176801,0.85338
469.681,52.14844,1.06146,0.0517391,0.85307
470.181,52.19787,1.06146,0.05299016,0.85276
470.681,52.24716,1.06146,0.05245905,0.85246
471.181,52.29645,1.06147,0.05315506,0.85215
471.681,52.3457,1.05195,0.05405259,0.85185
472.181,52.39461,1.02824,0.05312515,0.85154
472.681,52.4436,1.02819,0.05743285,0.85123
473.181,52.49285,1.00404,0.05416273,0.85093
473.681,52.54226,0.9949,0.05552812,0.85062
474.181,52.59174,1.02943,0.05675879,0.85031
474.681,52.64131,1.00225,0.05576367,0.85
475.181,52.6906,1.00352,0.0570015,0.8497
475.681,52.73972,0.98574,0.05609907,0.84939
476.181,52.78905,0.9703,0.05590957,0.84908
476.681,52.8383,1.00348,0.05685824,0.84877
477.181,52.88756,1.03499,0.05940305,0.84846
477.681,52.93643,1.06413,0.05790419,0.84815
478.181,52.98575,1.06953,0.05993244,0.84784
478.681,53.035,1.06952,0.05814093,0.84753
479.181,53.08425,1.06919,0.05958424,0.84723
479.681,53.13381,1.03685,0.06116836,0.84692
480.181,53.18326,1.03638,0.0621728,0.84661
480.681,53.2326,1.02007,0.06262502,0.8463
481.181,53.28193,1.0199,0.06145479,0.84599
481.681,53.3312,1.0199,0.06555769,0.84568
482.181,53.3804,1.01993,0.06368617,0.84536
482.681,53.42935,1.00332,0.06434542,0.84505
483.181,53.47851,1.00327,0.06347666,0.84474
483.681,53.52769,1.00327,0.06450854,0.84443
484.181,53.577,1.00327,0.06757325,0.84412
484.681,53.6266,1.00327,0.06495095,0.84381
485.181,53.6759,1.00327,0.06741185,0.8435
485.681,53.72501,1.00327,0.06480854,0.84318
486.181,53.77391,1.00311,0.06650623,0.84287
486.681,53.8229,1.0367,0.06871813,0.84256
487.181,53.872,1.03652,0.06796955,0.84225
487.681,53.92136,1.02287,0.06621933,0.84193
488.181,53.9707,1.00473,0.0624514,0.84162
488.681,54.0201,1.03651,0.06643933,0.84131
489.181,54.0694,1.03653,0.06740223,0.84099
489.681,54.11885,1.03653,0.06710763,0.84068
490.181,54.16835,1.03653,0.06761882,0.84037
490.681,54.21799,1.03646,0.07084537,0.84005
491.181,54.26725,1.01174,0.0671675,0.83974
491.681,54.3169,1.0116,0.06915877,0.83942
492.181,54.3666,0.97709,0.07112765,0.83911
492.681,54.4162,0.97834,0.0691895,0.83879
493.181,54.4661,0.97834,0.07160179,0.83848
493.681,54.51582,0.97572,0.07108867,0.83816
494.181,54.5654,0.97109,0.07382767,0.83785
494.681,54.6151,0.97027,0.07404165,0.83753
495.181,54.6646,0.98316,0.07236729,0.83722
495.681,54.71416,1.00386,0.07286025,0.8369
496.181,54.7635,1.03652,0.07195656,0.83658
496.681,54.81296,1.06911,0.072716,0.83627
497.181,54.86201,1.07188,0.07304323,0.83595
497.681,54.91117,1.07776,0.07456112,0.83563
498.181,54.96063,1.04466,0.07429335,0.83531
498.681,55.0101,1.01021,0.07097536,0.835
499.181,55.0599,1.0117,0.07294568,0.83468
499.681,55.1098,1.01184,0.07751537,0.83436
500.181,55.1596,1.01181,0.07377101,0.83404
500.681,55.20924,0.97861,0.0772004,0.83372
501.181,55.2587,0.97859,0.07867213,0.83341
501.681,55.30835,0.97859,0.07765511,0.83309
502.181,55.3579,0.9786,0.07864554,0.83277
502.681,55.40758,0.94344,0.07999576,0.83245
503.181,55.4573,0.92041,0.08024269,0.83213
503.681,55.50694,0.9204,0.08011284,0.83181
504.181,55.5566,0.91922,0.08032996,0.83149
504.681,55.6062,0.95371,0.08275469,0.83117
505.181,55.65591,0.95365,0.08360088,0.83085
505.681,55.7056,0.95365,0.08137423,0.83053
506.181,55.75518,0.95367,0.08032131,0.83021
506.681,55.8049,0.98151,0.08023253,0.82989
507.181,55.85462,0.98691,0.08031573,0.82957
507.681,55.9043,0.98695,0.08104245,0.82925
508.181,55.95389,1.01676,0.08446033,0.82892
508.681,56.00339,0.98695,0.08373776,0.8286
509.181,56.0528,0.98678,0.08438514,0.82828
509.681,56.10226,1.02007,0.08531878,0.82796
510.181,56.15194,1.0199,0.08482679,0.82764
510.681,56.20165,1.01987,0.08283955,0.82731
511.181,56.2515,1.02283,0.085233,0.82699
511.681,56.30129,1.02069,0.08389375,0.82667
512.181,56.351,0.98494,0.08644125,0.82634
512.681,56.40081,0.95367,0.08634341,0.82602
513.181,56.45045,0.95365,0.08406199,0.8257
513.681,56.50025,0.95366,0.08606595,0.82537
514.181,56.55001,0.98637,0.09036612,0.82505
514.681,56.5998,0.98653,0.09095988,0.82472
515.181,56.6494,0.99532,0.08904986,0.8244
515.681,56.69922,0.99522,0.09071478,0.82407
516.181,56.7489,0.96199,0.0900628,0.82375
516.681,56.79845,0.96196,0.08983642,0.82342
517.181,56.84794,0.97579,0.09304875,0.8231
517.681,56.8975,0.99495,0.09313095,0.82277
518.181,56.9467,0.99496,0.09336175,0.82245
518.681,56.9962,0.99496,0.09360178,0.82212
519.181,57.0457,0.99496,0.09327371,0.82179
519.681,57.09515,0.99496,0.09616194,0.82147
520.181,57.1447,0.99505,0.09603236,0.82114
520.681,57.1942,0.96075,0.09655342,0.82081
521.181,57.24355,0.96085,0.09739968,0.82049
521.681,57.29291,0.99531,0.09850182,0.82016
522.181,57.3423,0.99554,0.09700366,0.81983
522.681,57.39165,0.9945,0.09815787,0.8195
523.181,57.4413,0.99531,0.09853571,0.81917
523.681,57.49123,0.99503,0.09955409,0.81885
524.181,57.54107,0.99569,0.10191,0.81852
524.681,57.59101,0.9619,0.10354,0.81819
525.181,57.6406,0.9613,0.10262,0.81786
525.681,57.69024,0.99529,0.10474,0.81753
526.181,57.73985,1.02809,0.10271,0.8172
526.681,57.7893,1.0281,0.10375,0.81687
527.181,57.83885,0.97095,0.10923,0.81654
527.681,57.8882,0.96197,0.10828,0.81621
528.181,57.93759,0.96197,0.10596,0.81588
528.681,57.987,0.96197,0.10741,0.81555
529.181,58.0364,0.94945,0.10663,0.81522
529.681,58.0859,0.94941,0.10835,0.81489
530.181,58.1356,0.97027,0.10832,0.81456
530.681,58.1853,0.95971,0.10641,0.81423
531.181,58.2349,0.95369,0.10822,0.81389
531.681,58.2846,0.98555,0.10971,0.81356
532.181,58.3341,0.9869,0.11032,0.81323
532.681,58.3837,0.9869,0.10931,0.8129
533.181,58.43342,0.96741,0.10891,0.81256
533.681,58.48301,0.96175,0.10874,0.81223
534.181,58.53256,0.99189,0.1086,0.8119
534.681,58.58205,0.99496,0.11152,0.81157
535.181,58.6316,0.99487,0.10872,0.81123
535.681,58.68114,1.02835,0.10971,0.8109
536.181,58.7308,1.02999,0.10808,0.81056
536.681,58.7804,1.01504,0.10692,0.81023
537.181,58.82996,0.94435,0.11163,0.8099
537.681,58.87966,0.95473,0.11156,0.80956
538.181,58.92935,0.97886,0.11066,0.80923
538.681,58.9792,1.01158,0.10929,0.80889
539.181,59.0292,1.01158,0.10909,0.80856
539.681,59.079,1.01158,0.11438,0.80822
540.181,59.12879,1.01151,0.1104,0.80788
540.681,59.1786,0.97862,0.11203,0.80755
541.181,59.22825,0.97971,0.11058,0.80721
541.681,59.2781,0.94533,0.11086,0.80688
542.181,59.32792,0.97916,0.11169,0.80654
542.681,59.3778,0.97903,0.10867,0.8062
543.181,59.4279,1.00311,0.11389,0.80587
543.681,59.47778,0.97011,0.11025,0.80553
544.181,59.52783,0.98397,0.10978,0.80519
544.681,59.57796,0.97023,0.11294,0.80485
545.181,59.6281,0.97028,0.11413,0.80451
545.681,59.6783,0.97024,0.10941,0.80418
546.181,59.7285,1.00368,0.11284,0.80384
546.681,59.7785,1.00353,0.11305,0.8035
547.181,59.82846,0.98017,0.11284,0.80316
547.681,59.8785,0.97028,0.11443,0.80282
548.181,59.9285,0.97003,0.11211,0.80248
548.681,59.97855,0.93736,0.11231,0.80214
548.881,59.99886,0.93705,0.11372,0.80201