File: 01_Data/Black_PMMA/STA/10K_min/Black_PMMA_STA_N2_10KData_220214_R3.csv
##Temp./Â°C,Time/min,Mass(subtr.2)/%,DSC(subtr.2)/(mW/mg),Sensit./(uV/mW)
49.857,10.01,98.98934,-0.002161428,1.07507
50.357,10.68787,98.94389,0.02673328,1.07481
50.857,10.86364,98.9285,0.05198999,1.07455
51.357,10.99253,98.9009,0.07103694,1.07429
51.857,11.10015,98.9229,0.08728808,1.07403
52.357,11.1957,98.95736,0.10022,1.07377
52.857,11.2829,98.91675,0.11565,1.07351
53.357,11.36358,98.8977,0.12635,1.07325
53.857,11.44005,98.90606,0.13626,1.07299
54.357,11.5129,98.88426,0.14577,1.07273
54.857,11.58334,98.91355,0.15476,1.07247
55.357,11.65109,98.87235,0.16037,1.07221
55.857,11.71671,98.8784,0.16735,1.07195
56.357,11.78073,98.85601,0.17463,1.07169
56.857,11.8436,98.85665,0.18024,1.07143
57.357,11.9054,98.85489,0.1862,1.07117
57.857,11.96557,98.8878,0.18869,1.07091
58.357,12.0246,98.9012,0.19395,1.07065
58.857,12.08301,98.9048,0.19906,1.07039
59.357,12.14114,98.86214,0.19873,1.07013
59.857,12.19947,98.86454,0.20271,1.06987
60.357,12.25804,98.89456,0.20535,1.06961
60.857,12.31596,98.88388,0.20919,1.06935
61.357,12.37364,98.8977,0.21049,1.06909
61.857,12.42993,98.88334,0.21451,1.06883
62.357,12.48577,98.89519,0.21642,1.06857
62.857,12.54134,98.86681,0.21734,1.06831
63.357,12.59684,98.86421,0.22229,1.06805
63.857,12.65245,98.8638,0.22054,1.06779
64.357,12.70774,98.83129,0.22437,1.06753
64.857,12.76258,98.86421,0.22745,1.06727
65.357,12.81715,98.87031,0.22592,1.06701
65.857,12.87154,98.86695,0.23007,1.06675
66.357,12.92565,98.8691,0.23004,1.06649
66.857,12.97975,98.86703,0.23171,1.06623
67.357,13.0335,98.89726,0.23372,1.06597
67.857,13.087,98.88994,0.2349,1.06572
68.357,13.14037,98.88461,0.23777,1.06546
68.857,13.19403,98.90419,0.23703,1.0652
69.357,13.24805,98.93964,0.23901,1.06494
69.857,13.30216,98.87265,0.24107,1.06468
70.357,13.3563,98.83999,0.24121,1.06442
70.857,13.4099,98.83909,0.24236,1.06416
71.357,13.46326,98.8459,0.24461,1.0639
71.857,13.5164,98.83775,0.24633,1.06364
72.357,13.56928,98.84936,0.24658,1.06338
72.857,13.62221,98.86845,0.24873,1.06313
73.357,13.6752,98.81661,0.25067,1.06287
73.857,13.7281,98.7933,0.25097,1.06261
74.357,13.7809,98.80595,0.2559,1.06235
74.857,13.83361,98.83086,0.25461,1.06209
75.357,13.88595,98.83097,0.2577,1.06183
75.857,13.9383,98.83034,0.25751,1.06157
76.357,13.99056,98.8066,0.26083,1.06131
76.857,14.04256,98.80591,0.26223,1.06106
77.357,14.0946,98.82678,0.26364,1.0608
77.857,14.1467,98.80589,0.26457,1.06054
78.357,14.19865,98.782,0.26573,1.06028
78.857,14.2507,98.80565,0.26555,1.06002
79.357,14.30308,98.78944,0.26545,1.05976
79.857,14.3551,98.79941,0.26424,1.05951
80.357,14.40744,98.80552,0.26598,1.05925
80.857,14.4593,98.7724,0.26536,1.05899
81.357,14.51077,98.77928,0.26791,1.05873
81.857,14.5622,98.7726,0.26534,1.05847
82.357,14.6135,98.7726,0.26487,1.05821
82.857,14.66487,98.77319,0.26647,1.05796
83.357,14.71618,98.8051,0.26403,1.0577
83.857,14.7675,98.77238,0.266,1.05744
84.357,14.8185,98.78129,0.26507,1.05718
84.857,14.86953,98.79746,0.26597,1.05692
85.357,14.9204,98.7718,0.26465,1.05667
85.857,14.97135,98.76103,0.26361,1.05641
86.357,15.02241,98.7723,0.26387,1.05615
86.857,15.0736,98.7714,0.2635,1.05589
87.357,15.12451,98.77445,0.26436,1.05564
87.857,15.17534,98.7723,0.26388,1.05538
88.357,15.22594,98.73937,0.26477,1.05512
88.857,15.27636,98.7162,0.2628,1.05486
89.357,15.3267,98.73905,0.26455,1.05461
89.857,15.3772,98.73908,0.26711,1.05435
90.357,15.42736,98.74034,0.26496,1.05409
90.857,15.47786,98.7347,0.26721,1.05383
91.357,15.5281,98.70583,0.26627,1.05358
91.857,15.57824,98.70572,0.26719,1.05332
92.357,15.62805,98.72242,0.2672,1.05306
92.857,15.67795,98.6975,0.26641,1.0528
93.357,15.72781,98.69722,0.26835,1.05255
93.857,15.77798,98.70594,0.26853,1.05229
94.357,15.82814,98.70562,0.27151,1.05203
94.857,15.87801,98.7388,0.27426,1.05178
95.357,15.92785,98.73924,0.27312,1.05152
95.857,15.97763,98.7055,0.27557,1.05126
96.357,16.0273,98.7059,0.27448,1.051
96.857,16.07696,98.706,0.27579,1.05075
97.357,16.1267,98.7069,0.27574,1.05049
97.857,16.1762,98.67204,0.27688,1.05023
98.357,16.22569,98.70004,0.27768,1.04998
98.857,16.27504,98.68294,0.27859,1.04972
99.357,16.32439,98.68046,0.2801,1.04946
99.857,16.37387,98.67739,0.28047,1.04921
100.357,16.42342,98.68839,0.28065,1.04895
100.857,16.4731,98.67225,0.28226,1.04869
101.357,16.52271,98.63842,0.28307,1.04844
101.857,16.57234,98.63415,0.28478,1.04818
102.357,16.62193,98.63856,0.28421,1.04792
102.857,16.6712,98.63883,0.284,1.04767
103.357,16.72048,98.63883,0.28678,1.04741
103.857,16.7698,98.6388,0.28956,1.04715
104.357,16.8189,98.64975,0.28686,1.0469
104.857,16.8681,98.63883,0.28868,1.04664
105.357,16.9174,98.63883,0.29026,1.04639
105.857,16.9662,98.63883,0.29087,1.04613
106.357,17.01523,98.63906,0.29323,1.04587
106.857,17.06431,98.63776,0.29275,1.04562
107.357,17.11324,98.63858,0.29369,1.04536
107.857,17.16227,98.6361,0.29669,1.0451
108.357,17.21133,98.60501,0.29699,1.04485
108.857,17.26016,98.6134,0.29882,1.04459
109.357,17.30901,98.6053,0.2973,1.04434
109.857,17.35802,98.61791,0.29993,1.04408
110.357,17.40707,98.63882,0.30228,1.04382
110.857,17.45597,98.64015,0.30066,1.04357
111.357,17.50487,98.6052,0.30546,1.04331
111.857,17.55361,98.60713,0.30594,1.04306
112.357,17.6025,98.57206,0.30644,1.0428
112.857,17.65136,98.57443,0.30658,1.04255
113.357,17.70035,98.6053,0.30675,1.04229
113.857,17.74942,98.6053,0.3088,1.04203
114.357,17.79834,98.57105,0.31102,1.04178
114.857,17.84724,98.57183,0.31345,1.04152
115.357,17.896,98.57183,0.31241,1.04127
115.857,17.9448,98.5724,0.31517,1.04101
116.357,17.99372,98.6053,0.31675,1.04076
116.857,18.0426,98.6409,0.31759,1.0405
117.357,18.0916,98.6044,0.32177,1.04025
117.857,18.1404,98.6055,0.32238,1.03999
118.357,18.18911,98.5718,0.32504,1.03974
118.857,18.23788,98.5718,0.32781,1.03948
119.357,18.28657,98.55556,0.33007,1.03922
119.857,18.3353,98.53896,0.33257,1.03897
120.357,18.38407,98.5205,0.33363,1.03871
120.857,18.43262,98.5552,0.33646,1.03846
121.357,18.48145,98.5389,0.33994,1.0382
121.857,18.53012,98.5386,0.34273,1.03795
122.357,18.5789,98.53863,0.34579,1.03769
122.857,18.6275,98.50441,0.34736,1.03744
123.357,18.67584,98.50508,0.34985,1.03718
123.857,18.72437,98.5051,0.3506,1.03693
124.357,18.77307,98.52824,0.35479,1.03667
124.857,18.82167,98.5355,0.35694,1.03642
125.357,18.87096,98.50508,0.35727,1.03616
125.857,18.9201,98.50508,0.36001,1.03591
126.357,18.96901,98.47196,0.36124,1.03565
126.857,19.01804,98.4718,0.36488,1.0354
127.357,19.0666,98.49213,0.36508,1.03515
127.857,19.11508,98.49902,0.36719,1.03489
128.357,19.16358,98.46319,0.36843,1.03464
128.857,19.2122,98.4632,0.37023,1.03438
129.357,19.2608,98.46319,0.36954,1.03413
129.857,19.3096,98.44706,0.37254,1.03387
130.357,19.35824,98.43807,0.37401,1.03362
130.857,19.40677,98.43807,0.3754,1.03336
131.357,19.45542,98.43809,0.37701,1.03311
131.857,19.5041,98.44716,0.3775,1.03285
132.357,19.55281,98.4383,0.37767,1.0326
132.857,19.60144,98.40316,0.37769,1.03235
133.357,19.65004,98.4383,0.3803,1.03209
133.857,19.69855,98.4383,0.37952,1.03184
134.357,19.74703,98.4383,0.38045,1.03158
134.857,19.7958,98.4383,0.38241,1.03133
135.357,19.84442,98.4383,0.38045,1.03107
135.857,19.89285,98.41561,0.38281,1.03082
136.357,19.94139,98.40571,0.38393,1.03057
136.857,19.98966,98.4132,0.38352,1.03031
137.357,20.03811,98.4133,0.38792,1.03006
137.857,20.0864,98.40261,0.38435,1.0298
138.357,20.13478,98.40486,0.38838,1.02955
138.857,20.18319,98.39664,0.38624,1.0293
139.357,20.23142,98.39705,0.38907,1.02904
139.857,20.27964,98.36322,0.38872,1.02879
140.357,20.32798,98.3632,0.39055,1.02853
140.857,20.37632,98.3632,0.39183,1.02828
141.357,20.42461,98.3632,0.39131,1.02803
141.857,20.47288,98.3632,0.39082,1.02777
142.357,20.52123,98.3632,0.39258,1.02752
142.857,20.56949,98.3632,0.39319,1.02727
143.357,20.61777,98.3587,0.39306,1.02701
143.857,20.6661,98.32973,0.39502,1.02676
144.357,20.71438,98.32969,0.39368,1.0265
144.857,20.76248,98.3154,0.39216,1.02625
145.357,20.8108,98.29644,0.39459,1.026
145.857,20.8585,98.29661,0.39495,1.02574
146.357,20.9063,98.30487,0.39648,1.02549
146.857,20.95413,98.30736,0.39628,1.02524
147.357,21.00189,98.30452,0.39784,1.02498
147.857,21.05026,98.30457,0.39663,1.02473
148.357,21.0989,98.30553,0.39912,1.02448
148.857,21.14752,98.289,0.39944,1.02422
149.357,21.19611,98.2545,0.40118,1.02397
149.857,21.2446,98.25457,0.40101,1.02372
150.357,21.2929,98.25457,0.39878,1.02346
150.857,21.34114,98.2546,0.4004,1.02321
151.357,21.38925,98.28823,0.40285,1.02296
151.857,21.43746,98.25453,0.4034,1.0227
152.357,21.48549,98.22954,0.40466,1.02245
152.857,21.53351,98.229,0.40558,1.0222
153.357,21.58182,98.19598,0.40539,1.02194
153.857,21.63,98.1959,0.40768,1.02169
154.357,21.6783,98.18754,0.40839,1.02144
154.857,21.72629,98.1876,0.41017,1.02118
155.357,21.77439,98.1876,0.4117,1.02093
155.857,21.82208,98.1497,0.4116,1.02068
156.357,21.86958,98.1378,0.41451,1.02043
156.857,21.91704,98.14398,0.41619,1.02017
157.357,21.96467,98.1462,0.41729,1.01992
157.857,22.01256,98.14618,0.41993,1.01967
158.357,22.06089,98.12784,0.42416,1.01941
158.857,22.1095,98.0959,0.42332,1.01916
159.357,22.15786,98.09594,0.42538,1.01891
159.857,22.2061,98.09594,0.42495,1.01866
160.357,22.25425,98.09818,0.42606,1.0184
160.857,22.30218,98.0617,0.42849,1.01815
161.357,22.3501,98.0624,0.43072,1.0179
161.857,22.39793,98.0626,0.43094,1.01764
162.357,22.44599,98.029,0.43284,1.01739
162.857,22.49404,98.02915,0.43367,1.01714
163.357,22.54218,98.00023,0.43642,1.01689
163.857,22.59078,97.96901,0.43821,1.01663
164.357,22.63887,97.96216,0.43891,1.01638
164.857,22.68688,97.98029,0.4418,1.01613
165.357,22.73477,97.96243,0.44213,1.01587
165.857,22.78258,97.96218,0.44429,1.01562
166.357,22.8304,97.96217,0.44746,1.01537
166.857,22.87815,97.92384,0.44809,1.01512
167.357,22.92594,97.9203,0.44973,1.01486
167.857,22.9739,97.9203,0.45243,1.01461
168.357,23.02194,97.9203,0.45538,1.01436
168.857,23.0701,97.89522,0.45369,1.01411
169.357,23.11838,97.8871,0.45644,1.01385
169.857,23.16641,97.887,0.45785,1.0136
170.357,23.21463,97.84035,0.45982,1.01335
170.857,23.2626,97.82029,0.46059,1.0131
171.357,23.3106,97.82044,0.4653,1.01284
171.857,23.35892,97.78815,0.46687,1.01259
172.357,23.40704,97.75355,0.46905,1.01234
172.857,23.4552,97.75372,0.47218,1.01209
173.357,23.50305,97.71988,0.47269,1.01184
173.857,23.55089,97.7193,0.47613,1.01158
174.357,23.59873,97.68678,0.4797,1.01133
174.857,23.64626,97.66135,0.48105,1.01108
175.357,23.69422,97.65276,0.48062,1.01083
175.857,23.7423,97.58445,0.48359,1.01057
176.357,23.79019,97.58663,0.48627,1.01032
176.857,23.83803,97.5531,0.48778,1.01007
177.357,23.88598,97.5385,0.49013,1.00982
177.857,23.93359,97.48356,0.4941,1.00956
178.357,23.98135,97.47459,0.49246,1.00931
178.857,24.02927,97.46953,0.49655,1.00906
179.357,24.07742,97.45819,0.49603,1.00881
179.857,24.1256,97.43624,0.49737,1.00856
180.357,24.17385,97.40262,0.49854,1.0083
180.857,24.2218,97.39255,0.4997,1.00805
181.357,24.26993,97.35254,0.50112,1.0078
181.857,24.31791,97.33789,0.5008,1.00755
182.357,24.36594,97.3047,0.50053,1.0073
182.857,24.41366,97.26818,0.50327,1.00704
183.357,24.46145,97.2356,0.50612,1.00679
183.857,24.50923,97.23539,0.50218,1.00654
184.357,24.55695,97.20266,0.50463,1.00629
184.857,24.60481,97.14756,0.50235,1.00603
185.357,24.65311,97.13563,0.50414,1.00578
185.857,24.701,97.10194,0.50502,1.00553
186.357,24.749,97.06836,0.50441,1.00528
186.857,24.79707,97.0413,0.50408,1.00503
187.357,24.84504,97.0365,0.50356,1.00477
187.857,24.893,97.00148,0.50433,1.00452
188.357,24.941,96.96744,0.50466,1.00427
188.857,24.9888,96.9375,0.50274,1.00402
189.357,25.03668,96.87539,0.50512,1.00377
189.857,25.08452,96.86242,0.50035,1.00351
190.357,25.1321,96.83465,0.50215,1.00326
190.857,25.17991,96.80124,0.50117,1.00301
191.357,25.22768,96.78461,0.50313,1.00276
191.857,25.27532,96.77154,0.50032,1.00251
192.357,25.3231,96.72796,0.49869,1.00226
192.857,25.37088,96.70096,0.49828,1.002
193.357,25.4186,96.66716,0.49669,1.00175
193.857,25.46632,96.65913,0.49649,1.0015
194.357,25.5141,96.60863,0.49343,1.00125
194.857,25.56158,96.56197,0.494,1.001
195.357,25.60935,96.58548,0.49165,1.00074
195.857,25.65708,96.56206,0.4886,1.00049
196.357,25.70467,96.50314,0.48775,1.00024
196.857,25.75244,96.4947,0.48936,0.99999
197.357,25.8001,96.46168,0.48733,0.99974
197.857,25.84763,96.43306,0.48728,0.99948
198.357,25.8952,96.4161,0.48716,0.99923
198.857,25.94274,96.38939,0.48481,0.99898
199.357,25.9901,96.3446,0.48741,0.99873
199.857,26.03792,96.2958,0.48584,0.99848
200.357,26.08563,96.26675,0.48514,0.99822
200.857,26.1336,96.23385,0.48164,0.99797
201.357,26.1816,96.23389,0.48225,0.99772
201.857,26.2297,96.1918,0.48417,0.99747
202.357,26.2775,96.1687,0.48356,0.99722
202.857,26.3253,96.1249,0.48306,0.99697
203.357,26.3728,96.12561,0.48154,0.99671
203.857,26.42045,96.0916,0.4838,0.99646
204.357,26.46828,96.09343,0.48627,0.99621
204.857,26.51613,96.0227,0.4863,0.99596
205.357,26.5641,96.02433,0.48559,0.99571
205.857,26.6123,95.99165,0.48665,0.99545
206.357,26.6603,95.9657,0.48709,0.9952
206.857,26.70805,95.95787,0.4853,0.99495
207.357,26.75576,95.95761,0.48622,0.9947
207.857,26.8036,95.88986,0.48526,0.99445
208.357,26.8514,95.85804,0.48766,0.99419
208.857,26.89937,95.8574,0.48835,0.99394
209.357,26.9473,95.82414,0.48986,0.99369
209.857,26.99499,95.81748,0.4903,0.99344
210.357,27.04275,95.7907,0.4914,0.99319
210.857,27.09042,95.75705,0.49029,0.99293
211.357,27.1381,95.74459,0.49301,0.99268
211.857,27.18595,95.7009,0.49302,0.99243
212.357,27.23381,95.65726,0.49289,0.99218
212.857,27.28135,95.655,0.49268,0.99193
213.357,27.3292,95.62393,0.49078,0.99167
213.857,27.377,95.59025,0.49302,0.99142
214.357,27.42472,95.58885,0.49145,0.99117
214.857,27.47253,95.55715,0.49135,0.99092
215.357,27.52003,95.55711,0.49062,0.99067
215.857,27.56772,95.49817,0.48939,0.99041
216.357,27.61542,95.49936,0.48791,0.99016
216.857,27.6633,95.4902,0.48781,0.98991
217.357,27.7112,95.45589,0.48564,0.98966
217.857,27.7591,95.42347,0.48504,0.98941
218.357,27.80677,95.42335,0.48252,0.98915
218.857,27.8544,95.42351,0.48017,0.9889
219.357,27.90189,95.38971,0.47867,0.98865
219.857,27.94935,95.38985,0.4759,0.9884
220.357,27.99708,95.3792,0.47249,0.98815
220.857,28.0446,95.35638,0.47211,0.98789
221.357,28.0924,95.35159,0.46961,0.98764
221.857,28.1403,95.3231,0.46954,0.98739
222.357,28.1881,95.34348,0.46613,0.98714
222.857,28.23583,95.32423,0.46482,0.98689
223.357,28.2838,95.32411,0.46291,0.98663
223.857,28.3315,95.28956,0.46265,0.98638
224.357,28.3792,95.26469,0.46165,0.98613
224.857,28.427,95.2347,0.45867,0.98588
225.357,28.47458,95.23121,0.45655,0.98562
225.857,28.52229,95.23122,0.45683,0.98537
226.357,28.5701,95.23122,0.45642,0.98512
226.857,28.61771,95.23122,0.4555,0.98487
227.357,28.6654,95.23122,0.45319,0.98462
227.857,28.71306,95.23122,0.45407,0.98436
228.357,28.7607,95.23122,0.45259,0.98411
228.857,28.8086,95.23122,0.45077,0.98386
229.357,28.85643,95.2054,0.4533,0.98361
229.857,28.90437,95.19771,0.45378,0.98335
230.357,28.95218,95.1624,0.45404,0.9831
230.857,28.99985,95.14803,0.4492,0.98285
231.357,29.04753,95.14947,0.45121,0.9826
231.857,29.09517,95.15858,0.45299,0.98234
232.357,29.14269,95.15044,0.45149,0.98209
232.857,29.1902,95.15051,0.45203,0.98184
233.357,29.238,95.15051,0.45202,0.98159
233.857,29.28535,95.15051,0.45174,0.98133
234.357,29.3332,95.15057,0.45417,0.98108
234.857,29.381,95.11664,0.4522,0.98083
235.357,29.42857,95.1164,0.45541,0.98058
235.857,29.47632,95.15058,0.45508,0.98032
236.357,29.524,95.15051,0.45722,0.98007
236.857,29.5717,95.15051,0.45437,0.97982
237.357,29.61938,95.15095,0.45464,0.97957
237.857,29.6671,95.1172,0.45542,0.97931
238.357,29.71477,95.11726,0.45486,0.97906
238.857,29.76223,95.11726,0.45384,0.97881
239.357,29.8098,95.11744,0.45569,0.97855
239.857,29.8574,95.08415,0.45561,0.9783
240.357,29.90519,95.10037,0.45858,0.97805
240.857,29.95285,95.10025,0.45717,0.9778
241.357,30.00067,95.10025,0.45562,0.97754
241.857,30.0484,95.10021,0.45875,0.97729
242.357,30.09603,95.06512,0.45727,0.97704
242.857,30.14387,95.05865,0.45928,0.97678
243.357,30.19143,95.0586,0.46025,0.97653
243.857,30.2388,95.0586,0.46054,0.97628
244.357,30.2864,95.0586,0.45974,0.97603
244.857,30.33405,95.0587,0.46267,0.97577
245.357,30.38177,95.0504,0.46139,0.97552
245.857,30.4296,95.05025,0.46317,0.97527
246.357,30.47748,95.0501,0.46045,0.97501
246.857,30.52523,95.00644,0.46267,0.97476
247.357,30.5729,94.99075,0.46489,0.97451
247.857,30.6206,94.9918,0.4648,0.97425
248.357,30.6683,94.96679,0.46318,0.974
248.857,30.71623,94.96675,0.46332,0.97375
249.357,30.76411,94.96675,0.46316,0.97349
249.857,30.81205,94.96675,0.46292,0.97324
250.357,30.85994,94.96675,0.46311,0.97299
250.857,30.90752,94.96673,0.4661,0.97273
251.357,30.9552,94.9397,0.46644,0.97248
251.857,31.00295,94.9335,0.46768,0.97223
252.357,31.05081,94.9335,0.46703,0.97197
252.857,31.0987,94.9335,0.46728,0.97172
253.357,31.1465,94.9335,0.46899,0.97147
253.857,31.1943,94.9335,0.47018,0.97121
254.357,31.24225,94.9335,0.47239,0.97096
254.857,31.29,94.9335,0.47178,0.9707
255.357,31.33812,94.9285,0.47326,0.97045
255.857,31.38611,94.86465,0.47153,0.9702
256.357,31.43405,94.8665,0.47395,0.96994
256.857,31.4821,94.8665,0.47318,0.96969
257.357,31.52975,94.8665,0.47335,0.96943
257.857,31.57752,94.8665,0.47682,0.96918
258.357,31.6254,94.86456,0.47556,0.96893
258.857,31.67316,94.83315,0.47614,0.96867
259.357,31.721,94.79941,0.48141,0.96842
259.857,31.76894,94.79947,0.47933,0.96816
260.357,31.8168,94.76666,0.48074,0.96791
260.857,31.8648,94.76625,0.48114,0.96766
261.357,31.9126,94.7653,0.48146,0.9674
261.857,31.96063,94.783,0.48377,0.96715
262.357,32.00842,94.78302,0.48506,0.96689
262.857,32.0563,94.7568,0.48489,0.96664
263.357,32.10427,94.74973,0.48751,0.96638
263.857,32.1522,94.74947,0.48814,0.96613
264.357,32.20026,94.72383,0.49161,0.96588
264.857,32.24842,94.71624,0.49104,0.96562
265.357,32.29652,94.71624,0.49266,0.96537
265.857,32.34467,94.6748,0.49412,0.96511
266.357,32.39277,94.65084,0.4948,0.96486
266.857,32.44063,94.60621,0.49691,0.9646
267.357,32.4886,94.59631,0.49791,0.96435
267.857,32.53667,94.61599,0.50104,0.96409
268.357,32.58467,94.6053,0.50209,0.96384
268.857,32.63264,94.547,0.50284,0.96358
269.357,32.68055,94.54924,0.50378,0.96333
269.857,32.7286,94.54897,0.50565,0.96307
270.357,32.77637,94.57463,0.50821,0.96282
270.857,32.82434,94.5407,0.50747,0.96256
271.357,32.8723,94.52684,0.51004,0.96231
271.857,32.92046,94.47352,0.51377,0.96205
272.357,32.96828,94.4738,0.51452,0.9618
272.857,33.0165,94.44107,0.51526,0.96154
273.357,33.06477,94.44077,0.51646,0.96129
273.857,33.1128,94.40767,0.52213,0.96103
274.357,33.16089,94.34697,0.52712,0.96078
274.857,33.20897,94.34061,0.5275,0.96052
275.357,33.25667,94.3399,0.52683,0.96027
275.857,33.30468,94.34283,0.53178,0.96001
276.357,33.35263,94.30457,0.53544,0.95975
276.857,33.40072,94.30716,0.53513,0.9595
277.357,33.44873,94.27365,0.54029,0.95924
277.857,33.4968,94.22131,0.54144,0.95899
278.357,33.54485,94.19165,0.54616,0.95873
278.857,33.59285,94.15651,0.54986,0.95848
279.357,33.64082,94.1565,0.55199,0.95822
279.857,33.6888,94.12305,0.55375,0.95796
280.357,33.73679,94.0946,0.55535,0.95771
280.857,33.7847,94.04935,0.55845,0.95745
281.357,33.83258,94.017,0.56258,0.9572
281.857,33.88049,94.03358,0.56463,0.95694
282.357,33.92852,94.0175,0.56693,0.95668
282.857,33.9764,93.98443,0.56964,0.95643
283.357,34.02438,93.95124,0.57242,0.95617
283.857,34.07242,93.9161,0.57324,0.95591
284.357,34.12022,93.9169,0.57669,0.95566
284.857,34.16819,93.86137,0.57804,0.9554
285.357,34.21604,93.78178,0.57893,0.95514
285.857,34.2639,93.74576,0.58175,0.95489
286.357,34.3118,93.75232,0.58352,0.95463
286.857,34.35965,93.7231,0.58762,0.95437
287.357,34.40765,93.67684,0.59134,0.95412
287.857,34.45543,93.60816,0.58957,0.95386
288.357,34.50315,93.5645,0.59382,0.9536
288.857,34.5511,93.53339,0.59371,0.95335
289.357,34.59882,93.4935,0.59664,0.95309
289.857,34.64669,93.42877,0.59653,0.95283
290.357,34.69453,93.40677,0.59683,0.95257
290.857,34.7425,93.3558,0.60031,0.95232
291.357,34.79047,93.31851,0.60205,0.95206
291.857,34.83849,93.25385,0.60214,0.9518
292.357,34.8866,93.18679,0.60164,0.95154
292.857,34.93462,93.14628,0.60551,0.95129
293.357,34.9825,93.11269,0.60779,0.95103
293.857,35.0304,93.07641,0.60846,0.95077
294.357,35.07793,93.00619,0.60844,0.95051
294.857,35.12595,92.96696,0.60879,0.95026
295.357,35.174,92.90997,0.61105,0.95
295.857,35.22218,92.87585,0.6117,0.94974
296.357,35.27063,92.83756,0.61244,0.94948
296.857,35.3187,92.7568,0.61341,0.94922
297.357,35.36668,92.70634,0.61354,0.94896
297.857,35.41447,92.59884,0.61274,0.94871
298.357,35.46248,92.56685,0.61158,0.94845
298.857,35.51051,92.51807,0.61391,0.94819
299.357,35.5585,92.49346,0.61231,0.94793
299.857,35.60666,92.4597,0.61295,0.94767
300.357,35.65466,92.39322,0.61415,0.94741
300.857,35.7027,92.3416,0.61609,0.94716
301.357,35.75058,92.26601,0.61499,0.9469
301.857,35.7985,92.20921,0.61622,0.94664
302.357,35.84652,92.14489,0.61938,0.94638
302.857,35.89425,92.04629,0.62073,0.94612
303.357,35.9422,91.99973,0.62219,0.94586
303.857,35.99021,91.95388,0.62564,0.9456
304.357,36.0382,91.85561,0.62884,0.94534
304.857,36.08625,91.803,0.63,0.94508
305.357,36.13434,91.75509,0.63276,0.94482
305.857,36.18225,91.6827,0.63747,0.94456
306.357,36.23025,91.62518,0.64078,0.9443
306.857,36.2782,91.56403,0.64515,0.94405
307.357,36.3262,91.49414,0.64738,0.94379
307.857,36.3743,91.4422,0.65217,0.94353
308.357,36.42244,91.39033,0.65616,0.94327
308.857,36.47068,91.32236,0.66037,0.94301
309.357,36.51877,91.20047,0.664,0.94275
309.857,36.56694,91.13961,0.67049,0.94249
310.357,36.6151,91.06815,0.67436,0.94223
310.857,36.66335,90.99101,0.67916,0.94197
311.357,36.7114,90.96642,0.68258,0.94171
311.857,36.7596,90.86125,0.68858,0.94144
312.357,36.80784,90.76103,0.69419,0.94118
312.857,36.85605,90.6716,0.7009,0.94092
313.357,36.90412,90.6127,0.7047,0.94066
313.857,36.95218,90.4785,0.71014,0.9404
314.357,37.00035,90.3835,0.71721,0.94014
314.857,37.04851,90.31642,0.72425,0.93988
315.357,37.09666,90.22667,0.72953,0.93962
315.857,37.14499,90.1203,0.73717,0.93936
316.357,37.1932,90.02784,0.74642,0.9391
316.857,37.2414,89.90988,0.75387,0.93884
317.357,37.2896,89.83012,0.76323,0.93858
317.857,37.33764,89.74661,0.77127,0.93831
318.357,37.3857,89.6245,0.78212,0.93805
318.857,37.4335,89.50599,0.79105,0.93779
319.357,37.4815,89.4058,0.79817,0.93753
319.857,37.52953,89.22239,0.80975,0.93727
320.357,37.57743,89.1164,0.82156,0.93701
320.857,37.6256,88.9871,0.8297,0.93674
321.357,37.67378,88.84782,0.84135,0.93648
321.857,37.7219,88.7231,0.85435,0.93622
322.357,37.7704,88.557,0.86556,0.93596
322.857,37.8187,88.4246,0.87837,0.93569
323.357,37.86692,88.28153,0.89161,0.93543
323.857,37.9151,88.1305,0.90272,0.93517
324.357,37.96337,87.97519,0.9177,0.93491
324.857,38.0115,87.8207,0.93003,0.93464
325.357,38.0599,87.63728,0.94724,0.93438
325.857,38.1081,87.47876,0.959,0.93412
326.357,38.15623,87.30378,0.97687,0.93386
326.857,38.20446,87.12957,0.99321,0.93359
327.357,38.25269,86.91455,1.01012,0.93333
327.857,38.30102,86.71901,1.02817,0.93307
328.357,38.34932,86.538,1.04647,0.9328
328.857,38.3975,86.3485,1.06548,0.93254
329.357,38.44573,86.1418,1.08381,0.93228
329.857,38.4938,85.9014,1.10323,0.93201
330.357,38.5419,85.679,1.12351,0.93175
330.857,38.59028,85.4169,1.14281,0.93149
331.357,38.6385,85.17994,1.16211,0.93122
331.857,38.68677,84.91932,1.18423,0.93096
332.357,38.73496,84.6623,1.20692,0.93069
332.857,38.78331,84.4285,1.22967,0.93043
333.357,38.83171,84.1829,1.25332,0.93017
333.857,38.88022,83.88534,1.27868,0.9299
334.357,38.92877,83.58409,1.30494,0.92964
334.857,38.97703,83.27925,1.33093,0.92937
335.357,39.02527,82.9691,1.35463,0.92911
335.857,39.07365,82.66,1.38034,0.92884
336.357,39.122,82.3125,1.41057,0.92858
336.857,39.17045,81.94532,1.43872,0.92831
337.357,39.21913,81.57542,1.46752,0.92805
337.857,39.26773,81.2394,1.49639,0.92778
338.357,39.31638,80.86256,1.5267,0.92752
338.857,39.36502,80.4706,1.55562,0.92725
339.357,39.41389,80.07092,1.58752,0.92699
339.857,39.46261,79.64726,1.61992,0.92672
340.357,39.5113,79.21535,1.65122,0.92645
340.857,39.56017,78.80436,1.68501,0.92619
341.357,39.60879,78.33385,1.71954,0.92592
341.857,39.65744,77.90223,1.74891,0.92566
342.357,39.70621,77.46778,1.78557,0.92539
342.857,39.75507,76.99795,1.81777,0.92512
343.357,39.80387,76.4726,1.85364,0.92486
343.857,39.85269,75.95832,1.89062,0.92459
344.357,39.90165,75.45909,1.92254,0.92433
344.857,39.95043,74.9682,1.96058,0.92406
345.357,39.99933,74.42223,1.99603,0.92379
345.857,40.04833,73.85967,2.03492,0.92352
346.357,40.0972,73.28933,2.07032,0.92326
346.857,40.14607,72.71478,2.10892,0.92299
347.357,40.19509,72.13908,2.14526,0.92272
347.857,40.24413,71.5052,2.17965,0.92246
348.357,40.2931,70.8551,2.2187,0.92219
348.857,40.34199,70.21235,2.25398,0.92192
349.357,40.391,69.6036,2.29033,0.92165
349.857,40.44019,68.96754,2.32664,0.92139
350.357,40.48928,68.2376,2.36226,0.92112
350.857,40.5385,67.55081,2.39974,0.92085
351.357,40.5875,66.87739,2.43285,0.92058
351.857,40.6365,66.17432,2.46811,0.92031
352.357,40.68572,65.43311,2.50092,0.92005
352.857,40.73482,64.71098,2.53491,0.91978
353.357,40.78417,63.98734,2.56783,0.91951
353.857,40.83343,63.22759,2.59923,0.91924
354.357,40.8826,62.43124,2.6304,0.91897
354.857,40.9317,61.63703,2.65922,0.9187
355.357,40.98072,60.86485,2.68916,0.91843
355.857,41.0298,60.0765,2.71623,0.91816
356.357,41.07893,59.24774,2.74241,0.91789
356.857,41.12809,58.3839,2.76794,0.91762
357.357,41.1772,57.56126,2.79097,0.91736
357.857,41.22619,56.74984,2.81844,0.91709
358.357,41.2752,55.88284,2.83723,0.91682
358.857,41.32431,54.9977,2.8598,0.91655
359.357,41.3734,54.11192,2.87654,0.91628
359.857,41.42242,53.2825,2.89347,0.91601
360.357,41.4715,52.40446,2.90685,0.91574
360.857,41.52043,51.4921,2.91802,0.91547
361.357,41.5693,50.5595,2.92934,0.9152
361.857,41.6181,49.6959,2.94007,0.91492
362.357,41.66702,48.83102,2.94815,0.91465
362.857,41.71587,47.92779,2.9504,0.91438
363.357,41.76469,46.9567,2.95215,0.91411
363.857,41.8134,46.03518,2.94421,0.91384
364.357,41.86222,45.16749,2.93106,0.91357
364.857,41.91087,44.27469,2.93258,0.9133
365.357,41.9595,43.33896,2.93126,0.91303
365.857,42.00841,42.39516,2.9237,0.91276
366.357,42.0571,41.52534,2.90492,0.91248
366.857,42.10572,40.64476,2.87796,0.91221
367.357,42.15426,39.7711,2.85229,0.91194
367.857,42.20288,38.8784,2.87631,0.91167
368.357,42.25152,37.95339,2.89099,0.9114
368.857,42.3001,37.04603,2.87312,0.91112
369.357,42.3487,36.19552,2.85506,0.91085
369.857,42.39728,35.30343,2.84259,0.91058
370.357,42.44577,34.36241,2.84121,0.91031
370.857,42.494,33.48418,2.80822,0.91003
371.357,42.5423,32.64176,2.80168,0.90976
371.857,42.59053,31.8155,2.77597,0.90949
372.357,42.63881,30.9634,2.74212,0.90921
372.857,42.68718,30.06485,2.72447,0.90894
373.357,42.73588,29.2063,2.69126,0.90867
373.857,42.7843,28.3739,2.66712,0.90839
374.357,42.83274,27.5769,2.63477,0.90812
374.857,42.88107,26.74816,2.59542,0.90784
375.357,42.92935,25.90085,2.55844,0.90757
375.857,42.97762,25.16637,2.51901,0.9073
376.357,43.02581,24.3903,2.48305,0.90702
376.857,43.07394,23.61103,2.43829,0.90675
377.357,43.12213,22.81891,2.39631,0.90647
377.857,43.1702,22.02799,2.35328,0.9062
378.357,43.2183,21.30858,2.30651,0.90592
378.857,43.2664,20.63475,2.26294,0.90565
379.357,43.31456,19.927,2.22051,0.90537
379.857,43.36282,19.2433,2.17742,0.9051
380.357,43.41095,18.5445,2.12917,0.90482
380.857,43.4591,17.88485,2.08407,0.90455
381.357,43.50717,17.27025,2.03863,0.90427
381.857,43.55531,16.60541,1.99377,0.904
382.357,43.60321,15.9531,1.94888,0.90372
382.857,43.6511,15.2973,1.90466,0.90344
383.357,43.69903,14.74121,1.85925,0.90317
383.857,43.7468,14.1729,1.8106,0.90289
384.357,43.79487,13.6116,1.76727,0.90261
384.857,43.84271,13.03928,1.72724,0.90234
385.357,43.89067,12.47707,1.68228,0.90206
385.857,43.9388,11.94383,1.63476,0.90178
386.357,43.9867,11.44612,1.58898,0.90151
386.857,44.0346,10.93114,1.54476,0.90123
387.357,44.08265,10.44101,1.49905,0.90095
387.857,44.1306,9.98265,1.45833,0.90068
388.357,44.17855,9.54008,1.41224,0.9004
388.857,44.22665,9.07999,1.36803,0.90012
389.357,44.27468,8.66594,1.32062,0.89984
389.857,44.32268,8.23952,1.27956,0.89956
390.357,44.3708,7.81228,1.2348,0.89929
390.857,44.4189,7.41952,1.19209,0.89901
391.357,44.467,7.04128,1.1611,0.89873
391.857,44.5152,6.64784,1.12215,0.89845
392.357,44.56335,6.31922,1.08464,0.89817
392.857,44.61149,5.96078,1.04367,0.89789
393.357,44.65999,5.67011,1.00724,0.89761
393.857,44.70818,5.34955,0.96921,0.89733
394.357,44.75657,5.04701,0.93412,0.89705
394.857,44.805,4.71225,0.89771,0.89677
395.357,44.85307,4.41766,0.86367,0.8965
395.857,44.90153,4.15596,0.82983,0.89622
396.357,44.94989,3.86648,0.79906,0.89594
396.857,44.9983,3.62391,0.76684,0.89566
397.357,45.0468,3.34871,0.73272,0.89537
397.857,45.09527,3.10787,0.70479,0.89509
398.357,45.14374,2.88088,0.67663,0.89481
398.857,45.1922,2.68148,0.64714,0.89453
399.357,45.2406,2.46268,0.62257,0.89425
399.857,45.28925,2.26916,0.59349,0.89397
400.357,45.33773,2.0626,0.56767,0.89369
400.857,45.38632,1.87036,0.54252,0.89341
401.357,45.43505,1.71547,0.51842,0.89313
401.857,45.48366,1.52851,0.49529,0.89285
402.357,45.53226,1.38196,0.47177,0.89256
402.857,45.58079,1.2208,0.45065,0.89228
403.357,45.6293,1.03984,0.42855,0.892
403.857,45.6778,0.90942,0.40829,0.89172
404.357,45.7264,0.76341,0.38931,0.89144
404.857,45.7751,0.64269,0.37003,0.89115
405.357,45.82396,0.53321,0.35442,0.89087
405.857,45.8727,0.4285,0.33582,0.89059
406.357,45.92136,0.32341,0.31824,0.8903
406.857,45.96997,0.22494,0.30287,0.89002
407.357,46.0186,0.08636199,0.28901,0.88974
407.857,46.06723,-0.02375822,0.27404,0.88945
408.357,46.116,-0.11569,0.26029,0.88917
408.857,46.16466,-0.16773,0.24579,0.88889
409.357,46.2135,-0.24613,0.23313,0.8886
409.857,46.26226,-0.32798,0.21969,0.88832
410.357,46.31108,-0.41923,0.20893,0.88803
410.857,46.35988,-0.51016,0.1994,0.88775
411.357,46.40867,-0.54927,0.19156,0.88746
411.857,46.45731,-0.61788,0.17965,0.88718
412.357,46.50597,-0.69523,0.16957,0.88689
412.857,46.5547,-0.73661,0.16008,0.88661
413.357,46.60342,-0.78239,0.15324,0.88632
413.857,46.65206,-0.84736,0.14119,0.88604
414.357,46.7008,-0.90827,0.13707,0.88575
414.857,46.74955,-0.96685,0.1293,0.88547
415.357,46.7982,-1.00114,0.11836,0.88518
415.857,46.84682,-1.03304,0.11413,0.8849
416.357,46.89565,-1.06914,0.10885,0.88461
416.857,46.94442,-1.0984,0.10355,0.88432
417.357,46.9931,-1.09895,0.09537085,0.88404
417.857,47.04195,-1.13743,0.09391498,0.88375
418.357,47.09066,-1.16833,0.08637817,0.88346
418.857,47.13929,-1.1998,0.08416433,0.88318
419.357,47.188,-1.27504,0.0807295,0.88289
419.857,47.23686,-1.31026,0.07452612,0.8826
420.357,47.28561,-1.34843,0.06898081,0.88231
420.857,47.3344,-1.38172,0.06524924,0.88203
421.357,47.3831,-1.41155,0.0619437,0.88174
421.857,47.43185,-1.41843,0.0613595,0.88145
422.357,47.4807,-1.44848,0.05718411,0.88116
422.857,47.52955,-1.44848,0.05653756,0.88087
423.357,47.57837,-1.4618,0.05534683,0.88058
423.857,47.62722,-1.4817,0.05183688,0.8803
424.357,47.676,-1.51719,0.04606438,0.88001
424.857,47.72472,-1.51518,0.04507833,0.87972
425.357,47.7735,-1.48719,0.04408495,0.87943
425.857,47.82242,-1.50858,0.04530801,0.87914
426.357,47.8712,-1.51523,0.04604629,0.87885
426.857,47.9201,-1.51523,0.04607586,0.87856
427.357,47.969,-1.54836,0.04591386,0.87827
427.857,48.01775,-1.58158,0.04531781,0.87798
428.357,48.06658,-1.58198,0.04768729,0.87769
428.857,48.11544,-1.58232,0.0436555,0.8774
429.357,48.16444,-1.61514,0.04723472,0.87711
429.857,48.21326,-1.61399,0.04849172,0.87682
430.357,48.26218,-1.61535,0.04611707,0.87653
430.857,48.31116,-1.61558,0.04924483,0.87624
431.357,48.35966,-1.64064,0.05200939,0.87594
431.857,48.40826,-1.63966,0.0476009,0.87565
432.357,48.45686,-1.67392,0.04615749,0.87536
432.857,48.50546,-1.67402,0.04568484,0.87507
433.357,48.5545,-1.64044,0.04537925,0.87478
433.857,48.6038,-1.64367,0.04202917,0.87448
434.357,48.65317,-1.65855,0.03838806,0.87419
434.857,48.70255,-1.67423,0.03565036,0.8739
435.357,48.75175,-1.67411,0.03386375,0.87361
435.857,48.80093,-1.67414,0.03057154,0.87331
436.357,48.85002,-1.64061,0.02329149,0.87302
436.857,48.89913,-1.65551,0.02090752,0.87273
437.357,48.94829,-1.6741,0.01459356,0.87243
437.857,48.9974,-1.67395,0.009741526,0.87214
438.357,49.04668,-1.70747,0.001601411,0.87185
438.857,49.09587,-1.71561,-0.00454038,0.87155
439.357,49.14515,-1.74085,-0.01479405,0.87126
439.857,49.1946,-1.74087,-0.02235015,0.87096
440.357,49.24402,-1.74089,-0.03025379,0.87067
440.857,49.29338,-1.76455,-0.03275913,0.87037
441.357,49.3422,-1.75584,-0.03409987,0.87008
441.857,49.39162,-1.75737,-0.03527378,0.86979
442.357,49.44096,-1.75736,-0.03280677,0.86949
442.857,49.49004,-1.75736,-0.0289566,0.86919
443.357,49.5399,-1.74909,-0.0253974,0.8689
443.857,49.58933,-1.74062,-0.02182479,0.8686
444.357,49.6385,-1.74073,-0.01679051,0.86831
444.857,49.68805,-1.70729,-0.01257216,0.86801
445.357,49.73733,-1.70736,-0.00728345,0.86771
445.857,49.7867,-1.70736,-0.001275787,0.86742
446.357,49.83615,-1.7074,-0.000958772,0.86712
446.857,49.8857,-1.73962,0.004969012,0.86682
447.357,49.9352,-1.74088,0.00826006,0.86653
447.857,49.9848,-1.70499,0.010438,0.86623
448.357,50.03396,-1.70736,0.01599864,0.86593
448.857,50.0829,-1.70736,0.01611656,0.86563
449.357,50.13159,-1.70713,0.01727384,0.86534
449.857,50.18052,-1.67387,0.02356172,0.86504
450.357,50.22948,-1.6895,0.02013697,0.86474
450.857,50.27888,-1.70735,0.02223008,0.86444
451.357,50.32845,-1.70728,0.0224853,0.86414
451.857,50.37778,-1.74406,0.02596611,0.86385
452.357,50.42713,-1.77681,0.02535698,0.86355
452.857,50.47623,-1.7851,0.02809999,0.86325
453.357,50.5254,-1.78511,0.02654645,0.86295
453.857,50.57464,-1.81895,0.03071296,0.86265
454.357,50.62382,-1.8198,0.029013,0.86235
454.857,50.67301,-1.78669,0.02692686,0.86205
455.357,50.7221,-1.75174,0.02743483,0.86175
455.857,50.77115,-1.72545,0.02732308,0.86145
456.357,50.82026,-1.7269,0.02341995,0.86115
456.857,50.86923,-1.72693,0.02560924,0.86085
457.357,50.9183,-1.71814,0.02412505,0.86055
457.857,50.96717,-1.69394,0.02541937,0.86025
458.357,51.01613,-1.6934,0.02452186,0.85994
458.857,51.06518,-1.69343,0.02702525,0.85964
459.357,51.11428,-1.71889,0.02785164,0.85934
459.857,51.16356,-1.72691,0.02822295,0.85904
460.357,51.213,-1.7269,0.02955291,0.85874
460.857,51.2622,-1.72692,0.02734983,0.85844
461.357,51.3115,-1.75971,0.03014742,0.85813
461.857,51.36068,-1.76007,0.02907857,0.85783
462.357,51.40961,-1.72411,0.0279811,0.85753
462.857,51.45895,-1.69055,0.03030069,0.85722
463.357,51.50824,-1.65732,0.03288738,0.85692
463.857,51.5575,-1.66863,0.03159623,0.85662
464.357,51.60694,-1.69059,0.03095601,0.85631
464.857,51.65617,-1.69061,0.03296423,0.85601
465.357,51.70544,-1.69044,0.03274362,0.85571
465.857,51.75475,-1.72402,0.03061522,0.8554
466.357,51.80393,-1.72385,0.03142351,0.8551
466.857,51.8532,-1.72385,0.03127183,0.85479
467.357,51.90247,-1.72354,0.03238737,0.85449
467.857,51.95147,-1.69064,0.03163896,0.85418
468.357,52.00075,-1.69061,0.03246671,0.85388
468.857,52.04996,-1.72412,0.03470359,0.85357
469.357,52.09917,-1.75772,0.03042988,0.85327
469.857,52.14845,-1.75763,0.03541884,0.85296
470.357,52.1977,-1.75736,0.03663882,0.85266
470.857,52.247,-1.75736,0.0356611,0.85235
471.357,52.2965,-1.75736,0.03534,0.85204
471.857,52.34594,-1.75736,0.03540708,0.85174
472.357,52.3953,-1.75738,0.03527048,0.85143
472.857,52.44486,-1.74533,0.03616459,0.85112
473.357,52.4943,-1.73264,0.0346316,0.85082
473.857,52.54351,-1.72254,0.03497945,0.85051
474.357,52.59295,-1.73225,0.03525058,0.8502
474.857,52.64232,-1.73224,0.03647527,0.84989
475.357,52.6916,-1.73224,0.03496458,0.84959
475.857,52.74096,-1.73224,0.03632196,0.84928
476.357,52.7901,-1.74926,0.038077,0.84897
476.857,52.8392,-1.73227,0.03786309,0.84866
477.357,52.88864,-1.69914,0.03473522,0.84835
477.857,52.93829,-1.71212,0.03559993,0.84804
478.357,52.9878,-1.73247,0.03827633,0.84774
478.857,53.0377,-1.7321,0.03256532,0.84743
479.357,53.08736,-1.75659,0.03734807,0.84712
479.857,53.13674,-1.76573,0.03620522,0.84681
480.357,53.1862,-1.76526,0.03617391,0.8465
480.857,53.2356,-1.73965,0.03713415,0.84619
481.357,53.285,-1.7666,0.03869416,0.84588
481.857,53.3343,-1.73239,0.03769719,0.84557
482.357,53.38378,-1.73248,0.0367237,0.84526
482.857,53.4332,-1.73251,0.04045554,0.84494
483.357,53.4827,-1.76188,0.04007054,0.84463
483.857,53.5322,-1.76574,0.03724384,0.84432
484.357,53.5816,-1.75366,0.03918225,0.84401
484.857,53.63095,-1.73236,0.03720719,0.8437
485.357,53.6804,-1.69903,0.03986391,0.84339
485.857,53.72988,-1.76565,0.03947962,0.84307
486.357,53.77926,-1.76574,0.03945785,0.84276
486.857,53.82872,-1.76652,0.04192827,0.84245
487.357,53.8781,-1.7322,0.04157681,0.84214
487.857,53.92742,-1.73221,0.04225848,0.84182
488.357,53.977,-1.70852,0.04083899,0.84151
488.857,54.0267,-1.70736,0.04303505,0.8412
489.357,54.07609,-1.70736,0.04408512,0.84088
489.857,54.12549,-1.70736,0.04060055,0.84057
490.357,54.17495,-1.7082,0.04526911,0.84026
490.857,54.22429,-1.699,0.04328504,0.83994
491.357,54.2737,-1.69898,0.04263473,0.83963
491.857,54.32323,-1.69898,0.04325594,0.83931
492.357,54.37271,-1.69826,0.04581699,0.839
492.857,54.4219,-1.73256,0.04414419,0.83868
493.357,54.471,-1.73248,0.0441673,0.83837
493.857,54.52013,-1.73248,0.04230064,0.83805
494.357,54.56935,-1.73254,0.04192263,0.83774
494.857,54.6185,-1.69893,0.04667976,0.83742
495.357,54.668,-1.69898,0.04414443,0.8371
495.857,54.71762,-1.67016,0.04463136,0.83679
496.357,54.76706,-1.67607,0.046637,0.83647
496.857,54.81657,-1.69896,0.04858918,0.83615
497.357,54.8661,-1.69898,0.0480895,0.83584
497.857,54.91581,-1.69898,0.04558486,0.83552
498.357,54.9655,-1.69898,0.04618085,0.8352
498.857,55.01556,-1.69899,0.04559802,0.83489
499.357,55.0657,-1.69099,0.04608403,0.83457
499.857,55.11534,-1.66551,0.04296419,0.83425
500.357,55.16528,-1.66548,0.04646829,0.83393
500.857,55.2152,-1.66548,0.04809589,0.83361
501.357,55.26481,-1.66548,0.04735851,0.83329
501.857,55.31482,-1.67188,0.04827051,0.83298
502.357,55.36464,-1.69675,0.04655413,0.83266
502.857,55.4143,-1.7326,0.04847515,0.83234
503.357,55.4639,-1.71621,0.04789005,0.83202
503.857,55.5135,-1.71573,0.04622955,0.8317
504.357,55.56301,-1.71573,0.04637796,0.83138
504.857,55.6122,-1.71573,0.04733042,0.83106
505.357,55.66154,-1.71563,0.0446197,0.83074
505.857,55.71086,-1.68239,0.05236032,0.83042
506.357,55.7603,-1.68213,0.05037274,0.8301
506.857,55.8099,-1.74074,0.05364011,0.82977
507.357,55.85977,-1.74915,0.05135657,0.82945
507.857,55.9097,-1.72406,0.05188347,0.82913
508.357,55.9595,-1.71573,0.04946885,0.82881
508.857,56.00942,-1.71573,0.05064913,0.82849
509.357,56.0592,-1.71546,0.04991299,0.82817
509.857,56.1089,-1.68224,0.05469849,0.82784
510.357,56.1587,-1.68223,0.05068786,0.82752
510.857,56.2085,-1.68223,0.05473069,0.8272
511.357,56.258,-1.68223,0.05263174,0.82688
511.857,56.30761,-1.68223,0.05533105,0.82655
512.357,56.35705,-1.68223,0.05516795,0.82623
512.857,56.40654,-1.68265,0.05370653,0.82591
513.357,56.45605,-1.70727,0.05433572,0.82558
513.857,56.50545,-1.70734,0.05491183,0.82526
514.357,56.555,-1.69814,0.05620837,0.82493
514.857,56.60436,-1.69821,0.05890631,0.82461
515.357,56.6539,-1.70734,0.05947574,0.82428
515.857,56.70329,-1.70736,0.05706571,0.82396
516.357,56.75286,-1.70736,0.05813212,0.82363
516.857,56.8025,-1.70736,0.05866733,0.82331
517.357,56.85194,-1.70736,0.06335634,0.82298
517.857,56.9017,-1.70736,0.0605156,0.82266
518.357,56.9512,-1.70733,0.06076016,0.82233
518.857,57.0006,-1.68262,0.06381759,0.82201
519.357,57.05,-1.68249,0.06268609,0.82168
519.857,57.09965,-1.68249,0.06244465,0.82135
520.357,57.14921,-1.68249,0.06286854,0.82103
520.857,57.1988,-1.68249,0.06001366,0.8207
521.357,57.24859,-1.68249,0.06437226,0.82037
521.857,57.29821,-1.68249,0.06501541,0.82004
522.357,57.348,-1.68249,0.06489904,0.81972
522.857,57.39774,-1.68289,0.0641115,0.81939
523.357,57.4473,-1.69905,0.06294985,0.81906
523.857,57.4968,-1.69898,0.06587682,0.81873
524.357,57.54645,-1.69879,0.06624846,0.8184
524.857,57.5961,-1.73237,0.06554887,0.81807
525.357,57.64575,-1.73353,0.06680426,0.81774
525.857,57.69562,-1.69123,0.06896329,0.81741
526.357,57.74516,-1.66558,0.06651083,0.81709
526.857,57.79486,-1.69915,0.0681162,0.81676
527.357,57.8446,-1.69784,0.06485552,0.81643
527.857,57.894,-1.73233,0.06662994,0.8161
528.357,57.9439,-1.73224,0.06580791,0.81576
528.857,57.9937,-1.73224,0.06697268,0.81543
529.357,58.04351,-1.72814,0.06881617,0.8151
529.857,58.09346,-1.69901,0.06607536,0.81477
530.357,58.14331,-1.69897,0.06617851,0.81444
530.857,58.19302,-1.73466,0.0694982,0.81411
531.357,58.2426,-1.73224,0.06648532,0.81378
531.857,58.2925,-1.73224,0.07021667,0.81345
532.357,58.342,-1.73223,0.07236066,0.81311
532.857,58.39176,-1.73634,0.07152813,0.81278
533.357,58.4417,-1.73247,0.0691251,0.81245
533.857,58.49154,-1.73226,0.07102511,0.81211
534.357,58.5414,-1.69882,0.07024052,0.81178
534.857,58.59129,-1.66551,0.07289879,0.81145
535.357,58.64105,-1.66546,0.0731989,0.81111
535.857,58.6907,-1.68205,0.07348513,0.81078
536.357,58.7405,-1.68223,0.07214792,0.81045
536.857,58.7902,-1.68223,0.07435945,0.81011
537.357,58.83984,-1.68223,0.07130095,0.80978
537.857,58.8897,-1.68223,0.0715927,0.80944
538.357,58.9393,-1.68219,0.07037835,0.80911
538.857,58.98902,-1.6989,0.07323535,0.80877
539.357,59.03875,-1.69905,0.07233916,0.80844
539.857,59.0882,-1.72396,0.06945032,0.8081
540.357,59.13769,-1.72411,0.07520817,0.80777
540.857,59.18704,-1.72411,0.07240355,0.80743
541.357,59.23669,-1.7241,0.07162837,0.80709
541.857,59.2865,-1.72678,0.07564722,0.80676
542.357,59.33651,-1.69902,0.07583709,0.80642
542.857,59.38665,-1.69898,0.07288467,0.80608
543.357,59.43654,-1.69896,0.07452063,0.80575
543.857,59.4866,-1.68998,0.07272164,0.80541
544.357,59.53655,-1.6906,0.07306691,0.80507
544.857,59.58642,-1.72586,0.07443814,0.80473
545.357,59.63638,-1.72432,0.07320015,0.8044
545.857,59.68625,-1.70359,0.07475434,0.80406
546.357,59.7362,-1.69898,0.07468645,0.80372
546.857,59.7862,-1.69898,0.07537259,0.80338
547.357,59.8362,-1.69898,0.07707079,0.80304
547.857,59.88624,-1.69898,0.07515922,0.8027
548.357,59.9363,-1.69898,0.07570412,0.80236
548.857,59.9863,-1.69898,0.07501322,0.80202
548.957,59.99675,-1.69898,0.07306539,0.80195