File: 01_Data/Masonite_Board/STA/N2/30K_min/Masonite_STA_N2_30KData_222706_R2.csv
##Temp./Â°C,Time/min,DSC(subtr.2)/mW,Mass loss(subtr.2)/mg,Sensit./(uV/mW)
48.505,10.01,0.03402055,-0.02437,1.05402
49.105,10.53652,0.16702,-0.02587458,1.05389
49.705,10.6538,0.28896,-0.02656052,1.05377
50.305,10.73937,0.40426,-0.02601802,1.05365
50.905,10.80841,0.50238,-0.02580447,1.05353
51.505,10.8684,0.59552,-0.02545594,1.0534
52.105,10.9217,0.68115,-0.02476553,1.05328
52.705,10.96959,0.76373,-0.02381628,1.05315
53.305,11.01418,0.83947,-0.02599564,1.05302
53.905,11.05627,0.91946,-0.02616666,1.0529
54.505,11.0959,0.99438,-0.02633226,1.05277
55.105,11.1336,1.05733,-0.02579592,1.05264
55.705,11.16982,1.12758,-0.02492196,1.05251
56.305,11.20454,1.1944,-0.0250317,1.05238
56.905,11.23833,1.24743,-0.02457336,1.05225
57.505,11.27091,1.31211,-0.02504136,1.05212
58.105,11.30252,1.36056,-0.02521609,1.05199
58.705,11.3331,1.42246,-0.02550841,1.05186
59.305,11.36289,1.47841,-0.02600451,1.05173
59.905,11.39214,1.51966,-0.02590533,1.05159
60.505,11.4206,1.57405,-0.02550178,1.05146
61.105,11.44853,1.61956,-0.02678708,1.05133
61.705,11.47591,1.66597,-0.02660227,1.05119
62.305,11.50296,1.70322,-0.02677895,1.05105
62.905,11.52945,1.75321,-0.02829533,1.05092
63.505,11.5557,1.79972,-0.02695866,1.05078
64.105,11.58155,1.83914,-0.02571744,1.05064
64.705,11.60727,1.88201,-0.02582717,1.0505
65.305,11.6324,1.91715,-0.02700525,1.05037
65.905,11.65737,1.9543,-0.02841811,1.05023
66.505,11.68205,1.99961,-0.02916838,1.05009
67.105,11.70651,2.03111,-0.02826946,1.04994
67.705,11.7308,2.06837,-0.02800319,1.0498
68.305,11.75485,2.10916,-0.02748491,1.04966
68.905,11.77872,2.14035,-0.02768891,1.04952
69.505,11.80238,2.16967,-0.02748734,1.04937
70.105,11.82579,2.20254,-0.02704187,1.04923
70.705,11.84913,2.24301,-0.02701113,1.04908
71.305,11.87219,2.26746,-0.02673366,1.04894
71.905,11.89517,2.29652,-0.02717912,1.04879
72.505,11.91807,2.3188,-0.02756529,1.04865
73.105,11.94085,2.36882,-0.02733831,1.0485
73.705,11.96358,2.38981,-0.02734116,1.04835
74.305,11.98616,2.4192,-0.02788717,1.0482
74.905,12.0086,2.45077,-0.02838777,1.04805
75.505,12.03091,2.48082,-0.028633,1.0479
76.105,12.05299,2.50932,-0.0278186,1.04775
76.705,12.07518,2.52957,-0.02919824,1.0476
77.305,12.09721,2.56214,-0.02963261,1.04745
77.905,12.119,2.58783,-0.03101282,1.04729
78.505,12.14095,2.61211,-0.03060995,1.04714
79.105,12.16267,2.64054,-0.02964771,1.04699
79.705,12.18418,2.66621,-0.02876945,1.04683
80.305,12.20575,2.68551,-0.02924559,1.04668
80.905,12.2273,2.70333,-0.02944791,1.04652
81.505,12.24874,2.72766,-0.03024582,1.04637
82.105,12.27028,2.75668,-0.02963853,1.04621
82.705,12.29176,2.76944,-0.02929796,1.04605
83.305,12.31305,2.80034,-0.02941618,1.04589
83.905,12.33431,2.819,-0.02946441,1.04573
84.505,12.3554,2.84106,-0.0295095,1.04557
85.105,12.37646,2.85822,-0.03024292,1.04541
85.705,12.39743,2.88532,-0.02951,1.04525
86.305,12.41838,2.89965,-0.03094862,1.04509
86.905,12.4394,2.92568,-0.03095864,1.04493
87.505,12.46038,2.9456,-0.0321545,1.04477
88.105,12.4812,2.95541,-0.03127448,1.0446
88.705,12.50187,2.97059,-0.03271466,1.04444
89.305,12.52252,2.99185,-0.03252186,1.04427
89.905,12.54318,3.0038,-0.03153688,1.04411
90.505,12.56366,3.02094,-0.03277094,1.04394
91.105,12.58435,3.03588,-0.03272294,1.04378
91.705,12.60498,3.04523,-0.03271025,1.04361
92.305,12.62549,3.07333,-0.03282899,1.04344
92.905,12.6462,3.08288,-0.03281377,1.04327
93.505,12.66669,3.08885,-0.03272407,1.0431
94.105,12.68717,3.10119,-0.03411741,1.04293
94.705,12.70758,3.1217,-0.03413572,1.04276
95.305,12.72805,3.13473,-0.034098,1.04259
95.905,12.74841,3.13817,-0.03538811,1.04242
96.505,12.76874,3.1495,-0.03489106,1.04225
97.105,12.7891,3.1502,-0.03506579,1.04208
97.705,12.80938,3.15951,-0.03546163,1.0419
98.305,12.82961,3.1596,-0.03546007,1.04173
98.905,12.84992,3.1702,-0.03545998,1.04155
99.505,12.87018,3.1717,-0.03546049,1.04138
100.105,12.8904,3.18397,-0.03690482,1.0412
100.705,12.91057,3.18507,-0.03690029,1.04103
101.305,12.93079,3.19612,-0.03833673,1.04085
101.905,12.9509,3.19177,-0.03832044,1.04067
102.505,12.97101,3.20078,-0.03756564,1.04049
103.105,12.99117,3.20257,-0.03699627,1.04031
103.705,13.0113,3.20796,-0.03744005,1.04013
104.305,13.03135,3.21109,-0.03829407,1.03995
104.905,13.05149,3.20547,-0.03830877,1.03977
105.505,13.0716,3.20037,-0.03830983,1.03959
106.105,13.09173,3.20451,-0.03830876,1.03941
106.705,13.11186,3.2044,-0.03829144,1.03923
107.305,13.13195,3.20662,-0.03913209,1.03904
107.905,13.15199,3.2021,-0.03962168,1.03886
108.505,13.1721,3.19994,-0.03909918,1.03868
109.105,13.1921,3.19893,-0.03834163,1.03849
109.705,13.21212,3.19557,-0.03832252,1.0383
110.305,13.23199,3.19551,-0.03833293,1.03812
110.905,13.25196,3.19977,-0.03794676,1.03793
111.505,13.272,3.19535,-0.03833656,1.03774
112.105,13.292,3.20169,-0.03831269,1.03756
112.705,13.312,3.19,-0.0383234,1.03737
113.305,13.33218,3.19499,-0.03971268,1.03718
113.905,13.3522,3.1987,-0.03963599,1.03699
114.505,13.37214,3.19921,-0.03963031,1.0368
115.105,13.3921,3.2036,-0.03962852,1.03661
115.705,13.41206,3.207,-0.03960907,1.03641
116.305,13.43191,3.20624,-0.04044905,1.03622
116.905,13.45178,3.20664,-0.04093973,1.03603
117.505,13.47163,3.20859,-0.04094988,1.03583
118.105,13.4914,3.21193,-0.04095693,1.03564
118.705,13.51118,3.21467,-0.0410306,1.03545
119.305,13.531,3.21188,-0.04227334,1.03525
119.905,13.55075,3.20907,-0.04227019,1.03505
120.505,13.5705,3.2072,-0.04227001,1.03486
121.105,13.59026,3.21071,-0.04227,1.03466
121.705,13.61,3.2171,-0.04227,1.03446
122.305,13.6297,3.21552,-0.04226991,1.03426
122.905,13.64936,3.21244,-0.04226747,1.03407
123.505,13.66915,3.20784,-0.0435244,1.03387
124.105,13.68885,3.20845,-0.04357459,1.03367
124.705,13.70854,3.20579,-0.04357944,1.03346
125.305,13.72816,3.20727,-0.04357918,1.03326
125.905,13.7478,3.21249,-0.04356802,1.03306
126.505,13.76746,3.21436,-0.04312956,1.03286
127.105,13.787,3.20302,-0.04222864,1.03266
127.705,13.8066,3.19848,-0.04225378,1.03245
128.305,13.8261,3.19506,-0.04220795,1.03225
128.905,13.84561,3.19893,-0.04335805,1.03204
129.505,13.8652,3.19556,-0.04356727,1.03184
130.105,13.8847,3.20127,-0.04357904,1.03163
130.705,13.90425,3.19041,-0.04357993,1.03142
131.305,13.92375,3.19174,-0.04357999,1.03122
131.905,13.94325,3.17529,-0.04358,1.03101
132.505,13.9627,3.18582,-0.04357999,1.0308
133.105,13.9821,3.18448,-0.04357989,1.03059
133.705,14.0015,3.19358,-0.04357894,1.03038
134.305,14.0208,3.19348,-0.04357252,1.03017
134.905,14.0401,3.18593,-0.04424989,1.02996
135.505,14.0594,3.18885,-0.04490506,1.02975
136.105,14.0787,3.19069,-0.04488948,1.02954
136.705,14.098,3.19183,-0.04435447,1.02932
137.305,14.1173,3.19205,-0.04431561,1.02911
137.905,14.13667,3.18997,-0.04353305,1.0289
138.505,14.15593,3.19619,-0.04357594,1.02868
139.105,14.1752,3.18849,-0.04357967,1.02847
139.705,14.1944,3.19935,-0.04357997,1.02825
140.305,14.21357,3.20266,-0.04358,1.02804
140.905,14.23276,3.20549,-0.04358,1.02782
141.505,14.25195,3.20849,-0.04358,1.0276
142.105,14.27111,3.21055,-0.04358,1.02738
142.705,14.29026,3.2116,-0.04358,1.02716
143.305,14.3094,3.21366,-0.04358001,1.02695
143.905,14.3284,3.22216,-0.04358037,1.02673
144.505,14.3475,3.21484,-0.04358667,1.02651
145.105,14.3666,3.22308,-0.04255702,1.02629
145.705,14.38565,3.23682,-0.04241263,1.02606
146.305,14.4045,3.24071,-0.04332176,1.02584
146.905,14.42341,3.23678,-0.04326501,1.02562
147.505,14.4423,3.24092,-0.04326467,1.0254
148.105,14.46132,3.24758,-0.0432935,1.02517
148.705,14.4803,3.25294,-0.04358828,1.02495
149.305,14.49956,3.25674,-0.04359019,1.02472
149.905,14.51874,3.25748,-0.04359004,1.0245
150.505,14.53769,3.26844,-0.04359001,1.02427
151.105,14.5566,3.28424,-0.04359004,1.02405
151.705,14.5756,3.28106,-0.04359047,1.02382
152.305,14.59445,3.28544,-0.04359574,1.02359
152.905,14.6133,3.29178,-0.04366422,1.02336
153.505,14.6323,3.30237,-0.0442625,1.02313
154.105,14.65121,3.30821,-0.04423826,1.0229
154.705,14.6702,3.31231,-0.04423552,1.02267
155.305,14.6891,3.31697,-0.04291988,1.02244
155.905,14.70796,3.32716,-0.04361385,1.02221
156.505,14.7269,3.32296,-0.04358385,1.02198
157.105,14.7458,3.32858,-0.04358036,1.02175
157.705,14.76462,3.33815,-0.04358003,1.02152
158.305,14.7836,3.35076,-0.04358,1.02128
158.905,14.80248,3.3498,-0.04357998,1.02105
159.505,14.8213,3.37036,-0.04357988,1.02081
160.105,14.8401,3.36475,-0.04357987,1.02058
160.705,14.85886,3.37068,-0.04382344,1.02034
161.305,14.8776,3.384,-0.04494755,1.02011
161.905,14.8964,3.38116,-0.0449312,1.01987
162.505,14.9152,3.3963,-0.04538301,1.01963
163.105,14.934,3.39735,-0.04622706,1.0194
163.705,14.9527,3.40165,-0.04622048,1.01916
164.305,14.97149,3.41671,-0.04622002,1.01892
164.905,14.9903,3.42046,-0.04622,1.01868
165.505,15.0091,3.43856,-0.04622,1.01844
166.105,15.02786,3.43654,-0.04622,1.0182
166.705,15.04667,3.4451,-0.04622,1.01796
167.305,15.0654,3.45344,-0.04622,1.01771
167.905,15.084,3.45347,-0.04622,1.01747
168.505,15.1027,3.46204,-0.04622,1.01723
169.105,15.12145,3.46321,-0.04622,1.01699
169.705,15.14011,3.4691,-0.04622,1.01674
170.305,15.1588,3.48535,-0.0462197,1.0165
170.905,15.1775,3.48979,-0.04621324,1.01625
171.505,15.1961,3.50424,-0.04719753,1.01601
172.105,15.21476,3.51032,-0.04750542,1.01576
172.705,15.2334,3.51432,-0.04752818,1.01551
173.305,15.25196,3.52554,-0.04752992,1.01527
173.905,15.2706,3.52652,-0.0475301,1.01502
174.505,15.28917,3.55283,-0.04752841,1.01477
175.105,15.30776,3.54623,-0.0474852,1.01452
175.705,15.32645,3.56342,-0.04868215,1.01427
176.305,15.3451,3.57293,-0.04883703,1.01402
176.905,15.3636,3.5696,-0.04884899,1.01377
177.505,15.38219,3.58653,-0.04884994,1.01352
178.105,15.4007,3.59722,-0.04885,1.01327
178.705,15.4193,3.59914,-0.04885,1.01302
179.305,15.43777,3.60963,-0.04885,1.01276
179.905,15.45633,3.61561,-0.04885,1.01251
180.505,15.4748,3.61956,-0.04885,1.01226
181.105,15.49334,3.62646,-0.04885,1.012
181.705,15.51181,3.63538,-0.04885,1.01175
182.305,15.5303,3.65392,-0.04885,1.01149
182.905,15.5487,3.66112,-0.04885,1.01124
183.505,15.5672,3.6633,-0.04885,1.01098
184.105,15.58565,3.678,-0.04885,1.01072
184.705,15.60405,3.67844,-0.04885,1.01046
185.305,15.6225,3.68979,-0.04885,1.01021
185.905,15.64095,3.70779,-0.04885,1.00995
186.505,15.65935,3.70722,-0.04884999,1.00969
187.105,15.67772,3.71199,-0.04884956,1.00943
187.705,15.69609,3.72432,-0.04884295,1.00917
188.305,15.71442,3.72835,-0.04876559,1.00891
188.905,15.73285,3.73778,-0.05002281,1.00865
189.505,15.75125,3.74331,-0.05015912,1.00838
190.105,15.76971,3.75289,-0.05016002,1.00812
190.705,15.7881,3.76554,-0.05016001,1.00786
191.305,15.8065,3.77271,-0.05016002,1.0076
191.905,15.8247,3.77404,-0.05016024,1.00733
192.505,15.84286,3.77914,-0.05016217,1.00707
193.105,15.86105,3.79255,-0.05016984,1.0068
193.705,15.8794,3.81014,-0.04955633,1.00654
194.305,15.89776,3.81862,-0.04882861,1.00627
194.905,15.9163,3.82875,-0.04887339,1.006
195.505,15.93472,3.83488,-0.0492812,1.00574
196.105,15.95307,3.84155,-0.0501819,1.00547
196.705,15.97136,3.84222,-0.05020479,1.0052
197.305,15.9896,3.85208,-0.05050218,1.00493
197.905,16.0078,3.86534,-0.05050082,1.00466
198.505,16.02611,3.87576,-0.05049568,1.00439
199.105,16.04439,3.87458,-0.05044722,1.00412
199.705,16.06266,3.89163,-0.0513002,1.00385
200.305,16.08095,3.89396,-0.05147805,1.00358
200.905,16.0992,3.90057,-0.05148015,1.00331
201.505,16.11741,3.91326,-0.05148011,1.00303
202.105,16.13567,3.91854,-0.051481,1.00276
202.705,16.15395,3.92383,-0.05149094,1.00249
203.305,16.17216,3.93781,-0.05156981,1.00221
203.905,16.19042,3.94386,-0.05281186,1.00194
204.505,16.20871,3.9559,-0.05279669,1.00166
205.105,16.22694,3.95644,-0.05279939,1.00139
205.705,16.24521,3.96879,-0.05279993,1.00111
206.305,16.26347,3.98146,-0.05279998,1.00084
206.905,16.28175,3.98791,-0.05279991,1.00056
207.505,16.3,4.00659,-0.0528,1.00028
208.105,16.3182,4.01335,-0.0528107,1.0
208.705,16.33634,4.01999,-0.05316319,0.99972
209.305,16.35448,4.02506,-0.05417101,0.99945
209.905,16.37267,4.02757,-0.05412451,0.99917
210.505,16.39092,4.03567,-0.05412495,0.99889
211.105,16.40917,4.0483,-0.05537651,0.9986
211.705,16.42739,4.0574,-0.05541661,0.99832
212.305,16.4456,4.06679,-0.05542856,0.99804
212.905,16.4638,4.07122,-0.05543123,0.99776
213.505,16.48195,4.07982,-0.05544194,0.99748
214.105,16.50016,4.10558,-0.05675927,0.99719
214.705,16.51823,4.10177,-0.05674098,0.99691
215.305,16.5364,4.10803,-0.05674864,0.99663
215.905,16.5546,4.12603,-0.05674999,0.99634
216.505,16.57275,4.1299,-0.05675105,0.99606
217.105,16.59093,4.13701,-0.0567547,0.99577
217.705,16.60926,4.15402,-0.05802229,0.99548
218.305,16.62746,4.16413,-0.05805614,0.9952
218.905,16.64561,4.17152,-0.05806154,0.99491
219.505,16.66384,4.17891,-0.05799635,0.99462
220.105,16.682,4.1908,-0.0592005,0.99433
220.705,16.70016,4.19763,-0.05938986,0.99404
221.305,16.71837,4.21298,-0.05938759,0.99375
221.905,16.7365,4.21343,-0.05933936,0.99346
222.505,16.75465,4.22202,-0.06041046,0.99317
223.105,16.77282,4.23671,-0.06068777,0.99288
223.705,16.791,4.24869,-0.06070413,0.99259
224.305,16.8091,4.25741,-0.06065613,0.9923
224.905,16.82731,4.25535,-0.06200022,0.99201
225.505,16.84544,4.28299,-0.06203137,0.99172
226.105,16.8636,4.27326,-0.06218412,0.99142
226.705,16.88166,4.2901,-0.06386325,0.99113
227.305,16.8998,4.3088,-0.0646626,0.99083
227.905,16.91791,4.31301,-0.0646627,0.99054
228.505,16.93605,4.31302,-0.06466459,0.99024
229.105,16.95413,4.32169,-0.06473143,0.98995
229.705,16.97232,4.33177,-0.06568726,0.98965
230.305,16.99044,4.34421,-0.06598911,0.98936
230.905,17.0086,4.3547,-0.06599361,0.98906
231.505,17.02673,4.36667,-0.06538791,0.98876
232.105,17.0449,4.3681,-0.06523833,0.98846
232.705,17.063,4.37993,-0.06649065,0.98816
233.305,17.08117,4.38533,-0.06662743,0.98786
233.905,17.09927,4.39708,-0.06690248,0.98756
234.505,17.11737,4.41348,-0.06800163,0.98726
235.105,17.1355,4.42197,-0.06796835,0.98696
235.705,17.1536,4.42741,-0.06810671,0.98666
236.305,17.1717,4.43637,-0.06939246,0.98636
236.905,17.18981,4.45039,-0.07045991,0.98606
237.505,17.20789,4.45195,-0.07083784,0.98576
238.105,17.22597,4.46033,-0.07225521,0.98545
238.705,17.24409,4.46491,-0.07232932,0.98515
239.305,17.26211,4.47974,-0.07229937,0.98485
239.905,17.28022,4.4947,-0.07334788,0.98454
240.505,17.29832,4.5097,-0.07366362,0.98424
241.105,17.31636,4.51771,-0.07377136,0.98393
241.705,17.33432,4.52656,-0.07507617,0.98362
242.305,17.35238,4.52927,-0.07499344,0.98332
242.905,17.37046,4.53512,-0.07654203,0.98301
243.505,17.38855,4.55239,-0.0764339,0.9827
244.105,17.4067,4.56256,-0.07802117,0.9824
244.705,17.425,4.57265,-0.07855,0.98209
245.305,17.44315,4.58009,-0.07958931,0.98178
245.905,17.4613,4.58622,-0.08045082,0.98147
246.505,17.4794,4.5964,-0.08190657,0.98116
247.105,17.4975,4.60697,-0.08190833,0.98085
247.705,17.5155,4.62198,-0.08219467,0.98054
248.305,17.53366,4.62582,-0.08328162,0.98023
248.905,17.55177,4.63877,-0.08334156,0.97992
249.505,17.56981,4.64484,-0.08452843,0.9796
250.105,17.58795,4.652,-0.08445036,0.97929
250.705,17.60605,4.66123,-0.08580964,0.97898
251.305,17.62414,4.66458,-0.08587497,0.97866
251.905,17.6422,4.67918,-0.0874786,0.97835
252.505,17.66033,4.69048,-0.08774169,0.97804
253.105,17.67837,4.68213,-0.08886352,0.97772
253.705,17.6965,4.68424,-0.08950814,0.9774
254.305,17.71455,4.70683,-0.09039425,0.97709
254.905,17.7327,4.71015,-0.09197432,0.97677
255.505,17.7508,4.72496,-0.09273747,0.97646
256.105,17.76885,4.73044,-0.09349717,0.97614
256.705,17.7869,4.72229,-0.09500433,0.97582
257.305,17.80501,4.72751,-0.09473193,0.9755
257.905,17.82304,4.73875,-0.09581877,0.97518
258.505,17.84094,4.75442,-0.09656708,0.97486
259.105,17.859,4.75107,-0.09717305,0.97455
259.705,17.87705,4.75968,-0.09790824,0.97423
260.305,17.89511,4.76921,-0.09858129,0.9739
260.905,17.91319,4.77184,-0.10027,0.97358
261.505,17.93129,4.78083,-0.10147,0.97326
262.105,17.94923,4.78029,-0.10312,0.97294
262.705,17.9672,4.78962,-0.10484,0.97262
263.305,17.9852,4.79762,-0.10645,0.9723
263.905,18.00336,4.79633,-0.1092,0.97197
264.505,18.02156,4.8094,-0.10956,0.97165
265.105,18.0398,4.82505,-0.11076,0.97132
265.705,18.05799,4.82215,-0.11264,0.971
266.305,18.07621,4.82226,-0.11367,0.97067
266.905,18.09425,4.82988,-0.11415,0.97035
267.505,18.1123,4.8426,-0.11504,0.97002
268.105,18.13025,4.83955,-0.1167,0.9697
268.705,18.1482,4.84419,-0.11848,0.96937
269.305,18.16619,4.85012,-0.12006,0.96904
269.905,18.1842,4.85861,-0.12175,0.96871
270.505,18.2022,4.85669,-0.12468,0.96839
271.105,18.2203,4.8596,-0.12574,0.96806
271.705,18.23837,4.87269,-0.12758,0.96773
272.305,18.25646,4.8664,-0.12925,0.9674
272.905,18.2745,4.87612,-0.13126,0.96707
273.505,18.2926,4.87937,-0.13366,0.96674
274.105,18.31063,4.88213,-0.13634,0.96641
274.705,18.32872,4.88574,-0.13822,0.96608
275.305,18.34679,4.89186,-0.14016,0.96574
275.905,18.3649,4.89233,-0.14218,0.96541
276.505,18.38304,4.89764,-0.14317,0.96508
277.105,18.40108,4.90454,-0.14469,0.96475
277.705,18.41915,4.9164,-0.14683,0.96441
278.305,18.43724,4.90881,-0.14946,0.96408
278.905,18.45528,4.91379,-0.1526,0.96374
279.505,18.47332,4.92438,-0.15451,0.96341
280.105,18.49145,4.92223,-0.15701,0.96307
280.705,18.5095,4.93139,-0.15958,0.96274
281.305,18.52763,4.93223,-0.16148,0.9624
281.905,18.54576,4.93514,-0.16338,0.96207
282.505,18.56384,4.93055,-0.16649,0.96173
283.105,18.582,4.93878,-0.16999,0.96139
283.705,18.60004,4.9346,-0.17226,0.96105
284.305,18.61811,4.9364,-0.17479,0.96071
284.905,18.63617,4.94777,-0.17802,0.96038
285.505,18.65425,4.94344,-0.18082,0.96004
286.105,18.67231,4.9447,-0.18356,0.9597
286.705,18.69041,4.94879,-0.18702,0.95936
287.305,18.70851,4.94589,-0.19119,0.95902
287.905,18.72662,4.94829,-0.1948,0.95868
288.505,18.74475,4.95253,-0.19762,0.95833
289.105,18.76289,4.9444,-0.20153,0.95799
289.705,18.781,4.94275,-0.20711,0.95765
290.305,18.7991,4.93764,-0.21045,0.95731
290.905,18.8172,4.94328,-0.2141,0.95696
291.505,18.83534,4.94294,-0.21889,0.95662
292.105,18.8534,4.9485,-0.22283,0.95628
292.705,18.87153,4.9377,-0.22655,0.95593
293.305,18.88964,4.93496,-0.23027,0.95559
293.905,18.90771,4.93167,-0.23455,0.95524
294.505,18.92584,4.93455,-0.23891,0.9549
295.105,18.9439,4.91885,-0.24298,0.95455
295.705,18.96204,4.92001,-0.24802,0.9542
296.305,18.98015,4.91584,-0.25308,0.95386
296.905,18.99835,4.91384,-0.25781,0.95351
297.505,19.0165,4.91585,-0.26314,0.95316
298.105,19.03465,4.91104,-0.26805,0.95281
298.705,19.05274,4.90111,-0.27451,0.95247
299.305,19.07086,4.89054,-0.27944,0.95212
299.905,19.08899,4.88096,-0.28576,0.95177
300.505,19.10715,4.86271,-0.29054,0.95142
301.105,19.1253,4.86627,-0.2963,0.95107
301.705,19.14348,4.86145,-0.30128,0.95072
302.305,19.1615,4.851,-0.30672,0.95037
302.905,19.1796,4.8349,-0.31223,0.95001
303.505,19.1977,4.8253,-0.31755,0.94966
304.105,19.21571,4.81601,-0.3239,0.94931
304.705,19.23367,4.80801,-0.32971,0.94896
305.305,19.25189,4.79697,-0.3375,0.9486
305.905,19.2701,4.78317,-0.34344,0.94825
306.505,19.28827,4.76223,-0.35054,0.9479
307.105,19.30654,4.75409,-0.35613,0.94754
307.705,19.32484,4.74049,-0.36338,0.94719
308.305,19.343,4.72692,-0.36975,0.94683
308.905,19.36111,4.71674,-0.37673,0.94648
309.505,19.37923,4.70666,-0.38367,0.94612
310.105,19.3974,4.69476,-0.39036,0.94576
310.705,19.41553,4.6755,-0.39807,0.94541
311.305,19.43365,4.66034,-0.40443,0.94505
311.905,19.4518,4.64456,-0.41244,0.94469
312.505,19.46999,4.64068,-0.41738,0.94433
313.105,19.4881,4.62795,-0.42515,0.94398
313.705,19.50627,4.60763,-0.43135,0.94362
314.305,19.52447,4.59927,-0.43908,0.94326
314.905,19.54267,4.5862,-0.44592,0.9429
315.505,19.56087,4.57257,-0.45455,0.94254
316.105,19.57904,4.56247,-0.46242,0.94218
316.705,19.5971,4.54692,-0.46922,0.94182
317.305,19.6152,4.53487,-0.47701,0.94146
317.905,19.63328,4.52755,-0.48318,0.94109
318.505,19.6514,4.5137,-0.49152,0.94073
319.105,19.66957,4.50849,-0.49802,0.94037
319.705,19.68786,4.49806,-0.50637,0.94001
320.305,19.70609,4.48719,-0.51298,0.93964
320.905,19.7243,4.48259,-0.52105,0.93928
321.505,19.74245,4.47649,-0.52825,0.93892
322.105,19.76059,4.47472,-0.53558,0.93855
322.705,19.7788,4.46442,-0.54282,0.93819
323.305,19.79692,4.46245,-0.54946,0.93782
323.905,19.81512,4.46309,-0.55734,0.93746
324.505,19.83332,4.46009,-0.56381,0.93709
325.105,19.85161,4.45737,-0.57276,0.93672
325.705,19.8698,4.45531,-0.58002,0.93636
326.305,19.88804,4.45623,-0.58873,0.93599
326.905,19.90622,4.45915,-0.59579,0.93562
327.505,19.9245,4.46252,-0.60448,0.93525
328.105,19.94276,4.46809,-0.6116,0.93489
328.705,19.96106,4.46758,-0.61915,0.93452
329.305,19.97927,4.46998,-0.62676,0.93415
329.905,19.9975,4.48192,-0.63297,0.93378
330.505,20.0157,4.49346,-0.6419,0.93341
331.105,20.03396,4.50763,-0.64913,0.93304
331.705,20.05216,4.50717,-0.65789,0.93267
332.305,20.07046,4.53092,-0.6646,0.9323
332.905,20.0887,4.55107,-0.67317,0.93193
333.505,20.1069,4.55842,-0.67979,0.93155
334.105,20.12516,4.57286,-0.6885,0.93118
334.705,20.14341,4.58599,-0.6966,0.93081
335.305,20.16166,4.60578,-0.70547,0.93044
335.905,20.1799,4.62889,-0.71312,0.93006
336.505,20.19813,4.65356,-0.72081,0.92969
337.105,20.21629,4.68079,-0.7284,0.92932
337.705,20.23457,4.69965,-0.73782,0.92894
338.305,20.25283,4.72293,-0.74661,0.92857
338.905,20.27114,4.75683,-0.75389,0.92819
339.505,20.28951,4.78823,-0.761,0.92782
340.105,20.3079,4.81922,-0.77137,0.92744
340.705,20.32627,4.85073,-0.78107,0.92706
341.305,20.34458,4.88944,-0.78887,0.92669
341.905,20.36287,4.92219,-0.79712,0.92631
342.505,20.3812,4.96248,-0.80618,0.92593
343.105,20.39947,5.00566,-0.81493,0.92556
343.705,20.41771,5.04272,-0.82252,0.92518
344.305,20.436,5.09246,-0.83121,0.9248
344.905,20.45433,5.13745,-0.84155,0.92442
345.505,20.4726,5.19028,-0.84986,0.92404
346.105,20.4909,5.23775,-0.85937,0.92366
346.705,20.50929,5.28516,-0.86925,0.92328
347.305,20.52758,5.33784,-0.87964,0.9229
347.905,20.5459,5.39941,-0.88887,0.92252
348.505,20.56426,5.45286,-0.9002,0.92214
349.105,20.58265,5.52043,-0.90952,0.92176
349.705,20.601,5.59042,-0.92142,0.92138
350.305,20.61944,5.65157,-0.93053,0.92099
350.905,20.63789,5.73091,-0.94256,0.92061
351.505,20.65628,5.80371,-0.95228,0.92023
352.105,20.67466,5.88097,-0.96423,0.91985
352.705,20.69306,5.96014,-0.97488,0.91946
353.305,20.71141,6.04356,-0.98684,0.91908
353.905,20.72975,6.12679,-0.99825,0.91869
354.505,20.7482,6.21525,-1.00942,0.91831
355.105,20.7666,6.30836,-1.02228,0.91792
355.705,20.785,6.40798,-1.03382,0.91754
356.305,20.80345,6.51377,-1.04845,0.91715
356.905,20.82187,6.61585,-1.06075,0.91677
357.505,20.84027,6.72945,-1.07597,0.91638
358.105,20.85864,6.8387,-1.08774,0.91599
358.705,20.877,6.93801,-1.10302,0.91561
359.305,20.89546,7.07142,-1.11586,0.91522
359.905,20.9139,7.1973,-1.13154,0.91483
360.505,20.93235,7.3263,-1.14554,0.91444
361.105,20.9508,7.45165,-1.16039,0.91406
361.705,20.96925,7.58979,-1.17539,0.91367
362.305,20.98767,7.7329,-1.19037,0.91328
362.905,21.00605,7.86697,-1.2078,0.91289
363.505,21.02451,8.01282,-1.2228,0.9125
364.105,21.043,8.17137,-1.24149,0.91211
364.705,21.0615,8.32365,-1.25655,0.91172
365.305,21.08,8.47744,-1.27648,0.91133
365.905,21.09865,8.6396,-1.2923,0.91093
366.505,21.11723,8.80822,-1.3126,0.91054
367.105,21.13578,8.97441,-1.3293,0.91015
367.705,21.1543,9.13822,-1.35008,0.90976
368.305,21.17292,9.31462,-1.36886,0.90937
368.905,21.19141,9.49083,-1.38939,0.90897
369.505,21.20995,9.6595,-1.40969,0.90858
370.105,21.22852,9.85334,-1.42989,0.90819
370.705,21.24709,10.01638,-1.45203,0.90779
371.305,21.2656,10.19979,-1.47246,0.9074
371.905,21.28422,10.37925,-1.49713,0.907
372.505,21.30275,10.56555,-1.51747,0.90661
373.105,21.32129,10.74018,-1.54363,0.90621
373.705,21.33987,10.9213,-1.5648,0.90582
374.305,21.35845,11.0931,-1.59201,0.90542
374.905,21.377,11.2681,-1.61357,0.90502
375.505,21.39562,11.4389,-1.64077,0.90463
376.105,21.41422,11.59928,-1.66445,0.90423
376.705,21.4328,11.7614,-1.69154,0.90383
377.305,21.45147,11.92112,-1.71692,0.90344
377.905,21.4701,12.0655,-1.74348,0.90304
378.505,21.48876,12.2029,-1.7713,0.90264
379.105,21.50743,12.33847,-1.79789,0.90224
379.705,21.526,12.4643,-1.82774,0.90184
380.305,21.5446,12.57157,-1.85371,0.90144
380.905,21.5632,12.67061,-1.88579,0.90104
381.505,21.5819,12.75125,-1.91191,0.90064
382.105,21.60057,12.8204,-1.9445,0.90024
382.705,21.61929,12.8894,-1.97027,0.89984
383.305,21.63795,12.92199,-2.00371,0.89944
383.905,21.65665,12.94697,-2.03034,0.89904
384.505,21.67527,12.9421,-2.06228,0.89864
385.105,21.69387,12.93869,-2.08966,0.89823
385.705,21.71248,12.89899,-2.12053,0.89783
386.305,21.73108,12.8316,-2.14948,0.89743
386.905,21.74962,12.7479,-2.17864,0.89703
387.505,21.76825,12.65045,-2.20853,0.89662
388.105,21.78689,12.5121,-2.23654,0.89622
388.705,21.8055,12.35175,-2.26783,0.89582
389.305,21.8242,12.1715,-2.29398,0.89541
389.905,21.84281,11.9618,-2.32615,0.89501
390.505,21.8614,11.73744,-2.35102,0.8946
391.105,21.87996,11.47976,-2.38235,0.8942
391.705,21.89858,11.1864,-2.40539,0.89379
392.305,21.9172,10.8855,-2.43393,0.89339
392.905,21.93577,10.55664,-2.45643,0.89298
393.505,21.9543,10.18719,-2.48234,0.89257
394.105,21.97296,9.80963,-2.5045,0.89217
394.705,21.99152,9.42418,-2.52774,0.89176
395.305,22.01008,9.01288,-2.54947,0.89135
395.905,22.02867,8.58025,-2.56988,0.89094
396.505,22.04726,8.1362,-2.59086,0.89054
397.105,22.06581,7.68537,-2.6085,0.89013
397.705,22.08436,7.23023,-2.62824,0.88972
398.305,22.10284,6.76047,-2.64324,0.88931
398.905,22.1212,6.31139,-2.66091,0.8889
399.505,22.13961,5.85292,-2.67326,0.88849
400.105,22.158,5.4015,-2.68867,0.88808
400.705,22.1764,4.96149,-2.70019,0.88767
401.305,22.1949,4.52209,-2.71385,0.88726
401.905,22.2134,4.09362,-2.72406,0.88685
402.505,22.23195,3.69752,-2.73451,0.88644
403.105,22.25047,3.30643,-2.74346,0.88603
403.705,22.2689,2.93924,-2.75173,0.88561
404.305,22.28738,2.5981,-2.75993,0.8852
404.905,22.30579,2.27755,-2.7663,0.88479
405.505,22.3243,1.98508,-2.77276,0.88438
406.105,22.34271,1.69167,-2.7778,0.88396
406.705,22.36112,1.44378,-2.784,0.88355
407.305,22.37966,1.21264,-2.78863,0.88314
407.905,22.39819,1.00861,-2.79387,0.88272
408.505,22.4166,0.83284,-2.79749,0.88231
409.105,22.43505,0.67329,-2.80094,0.88189
409.705,22.4535,0.51806,-2.80319,0.88148
410.305,22.4719,0.39312,-2.80506,0.88106
410.905,22.49032,0.28399,-2.80721,0.88065
411.505,22.50885,0.17096,-2.81022,0.88023
412.105,22.5273,0.08393413,-2.81354,0.87982
412.705,22.54584,-0.004393739,-2.81663,0.8794
413.305,22.56439,-0.06458594,-2.81963,0.87898
413.905,22.58288,-0.13342,-2.8216,0.87857
414.505,22.60142,-0.19318,-2.82285,0.87815
415.105,22.62003,-0.22953,-2.82461,0.87773
415.705,22.63864,-0.28561,-2.82636,0.87732
416.305,22.6572,-0.34435,-2.82888,0.8769
416.905,22.67589,-0.3656,-2.83147,0.87648
417.505,22.6945,-0.40665,-2.83384,0.87606
418.105,22.71317,-0.44772,-2.83604,0.87564
418.705,22.73176,-0.47233,-2.83785,0.87522
419.305,22.7503,-0.50534,-2.83955,0.8748
419.905,22.76892,-0.53106,-2.84126,0.87438
420.505,22.78756,-0.56451,-2.84288,0.87396
421.105,22.8062,-0.5943,-2.84457,0.87354
421.705,22.82475,-0.61469,-2.84625,0.87312
422.305,22.84347,-0.63256,-2.84793,0.8727
422.905,22.86211,-0.65151,-2.84954,0.87228
423.505,22.8808,-0.68267,-2.85104,0.87186
424.105,22.89948,-0.70909,-2.85276,0.87144
424.705,22.91824,-0.7323,-2.85509,0.87101
425.305,22.9369,-0.75191,-2.85741,0.87059
425.905,22.95555,-0.7733,-2.85922,0.87017
426.505,22.97427,-0.79647,-2.86089,0.86975
427.105,22.99295,-0.81131,-2.86129,0.86932
427.705,23.01161,-0.83617,-2.86267,0.8689
428.305,23.03034,-0.85953,-2.86473,0.86848
428.905,23.04909,-0.88502,-2.86664,0.86805
429.505,23.06777,-0.91108,-2.86985,0.86763
430.105,23.08642,-0.92939,-2.87175,0.8672
430.705,23.10513,-0.94428,-2.87362,0.86678
431.305,23.1238,-0.96032,-2.87533,0.86635
431.905,23.14255,-0.98038,-2.87721,0.86593
432.505,23.16129,-1.00047,-2.87803,0.8655
433.105,23.18,-1.02482,-2.87928,0.86508
433.705,23.19876,-1.04623,-2.88089,0.86465
434.305,23.21754,-1.05929,-2.88272,0.86422
434.905,23.2363,-1.07622,-2.88409,0.8638
435.505,23.25509,-1.09451,-2.88577,0.86337
436.105,23.2739,-1.11499,-2.8877,0.86294
436.705,23.29266,-1.13066,-2.88957,0.86252
437.305,23.31145,-1.14956,-2.89127,0.86209
437.905,23.33022,-1.16008,-2.89203,0.86166
438.505,23.34901,-1.17296,-2.89372,0.86123
439.105,23.3678,-1.1884,-2.89633,0.8608
439.705,23.3866,-1.2001,-2.89882,0.86037
440.305,23.40541,-1.21311,-2.90109,0.85994
440.905,23.4243,-1.2222,-2.90319,0.85951
441.505,23.44312,-1.23484,-2.90473,0.85908
442.105,23.4619,-1.25093,-2.90557,0.85865
442.705,23.48074,-1.25653,-2.90726,0.85822
443.305,23.4996,-1.26737,-2.90911,0.85779
443.905,23.51839,-1.27182,-2.91126,0.85736
444.505,23.5372,-1.27984,-2.9127,0.85693
445.105,23.55603,-1.28257,-2.91388,0.8565
445.705,23.57483,-1.28971,-2.91434,0.85607
446.305,23.59366,-1.29359,-2.9159,0.85564
446.905,23.6125,-1.29743,-2.91796,0.85521
447.505,23.63133,-1.29793,-2.91989,0.85477
448.105,23.65025,-1.29864,-2.92179,0.85434
448.705,23.6692,-1.30976,-2.92346,0.85391
449.305,23.68805,-1.30917,-2.9244,0.85347
449.905,23.707,-1.30518,-2.92518,0.85304
450.505,23.72589,-1.3066,-2.92665,0.85261
451.105,23.74481,-1.28801,-2.92794,0.85217
451.705,23.7637,-1.28657,-2.92928,0.85174
452.305,23.78254,-1.28665,-2.93102,0.8513
452.905,23.80144,-1.28995,-2.93283,0.85087
453.505,23.8203,-1.27274,-2.93395,0.85044
454.105,23.83923,-1.25753,-2.93468,0.85
454.705,23.85816,-1.26319,-2.93616,0.84956
455.305,23.8771,-1.23604,-2.93783,0.84913
455.905,23.89601,-1.23309,-2.93945,0.84869
456.505,23.91486,-1.22668,-2.94103,0.84826
457.105,23.93376,-1.21278,-2.9421,0.84782
457.705,23.95271,-1.19698,-2.94365,0.84738
458.305,23.9717,-1.18103,-2.94647,0.84695
458.905,23.99075,-1.15846,-2.9471,0.84651
459.505,24.00979,-1.15251,-2.94821,0.84607
460.105,24.02882,-1.13546,-2.9499,0.84563
460.705,24.04778,-1.11779,-2.95171,0.8452
461.305,24.06671,-1.09319,-2.95337,0.84476
461.905,24.08563,-1.07105,-2.9551,0.84432
462.505,24.1046,-1.057,-2.9566,0.84388
463.105,24.12359,-1.03598,-2.95842,0.84344
463.705,24.14258,-1.01245,-2.96025,0.843
464.305,24.1616,-0.99301,-2.96148,0.84256
464.905,24.18068,-0.96491,-2.96266,0.84212
465.505,24.1997,-0.95109,-2.96487,0.84168
466.105,24.21871,-0.92848,-2.96774,0.84124
466.705,24.23773,-0.90508,-2.96918,0.8408
467.305,24.25674,-0.89555,-2.96966,0.84036
467.905,24.2758,-0.8691,-2.97081,0.83992
468.505,24.2948,-0.84276,-2.97229,0.83948
469.105,24.31387,-0.82531,-2.97277,0.83904
469.705,24.3329,-0.80026,-2.97385,0.8386
470.305,24.35192,-0.77964,-2.97407,0.83816
470.905,24.37095,-0.75545,-2.97489,0.83772
471.505,24.39,-0.72356,-2.976,0.83727
472.105,24.40899,-0.71096,-2.97747,0.83683
472.705,24.42807,-0.68122,-2.97809,0.83639
473.305,24.44717,-0.65717,-2.97912,0.83594
473.905,24.46623,-0.62605,-2.98086,0.8355
474.505,24.4853,-0.60173,-2.98208,0.83506
475.105,24.50442,-0.58655,-2.9829,0.83461
475.705,24.5235,-0.5615,-2.98446,0.83417
476.305,24.54255,-0.5468,-2.9859,0.83373
476.905,24.56167,-0.53076,-2.98672,0.83328
477.505,24.58075,-0.50369,-2.98772,0.83284
478.105,24.59981,-0.48395,-2.98883,0.83239
478.705,24.61894,-0.4616,-2.98924,0.83195
479.305,24.63809,-0.43596,-2.99081,0.8315
479.905,24.65723,-0.42129,-2.99124,0.83106
480.505,24.6764,-0.40859,-2.99229,0.83061
481.105,24.69556,-0.37892,-2.99324,0.83017
481.705,24.71469,-0.35595,-2.9937,0.82972
482.305,24.73386,-0.33843,-2.99519,0.82927
482.905,24.75294,-0.3261,-2.99608,0.82883
483.505,24.77204,-0.30292,-2.99735,0.82838
484.105,24.79124,-0.28039,-2.9997,0.82793
484.705,24.81035,-0.25894,-3.00041,0.82749
485.305,24.8294,-0.24396,-3.00105,0.82704
485.905,24.84861,-0.23614,-3.00164,0.82659
486.505,24.86776,-0.21898,-3.00114,0.82614
487.105,24.8869,-0.19935,-3.00249,0.82569
487.705,24.90602,-0.18614,-3.00298,0.82525
488.305,24.92517,-0.18127,-3.00429,0.8248
488.905,24.9443,-0.16051,-3.0051,0.82435
489.505,24.96347,-0.14756,-3.00574,0.8239
490.105,24.98262,-0.12903,-3.00738,0.82345
490.705,25.00178,-0.11395,-3.00814,0.823
491.305,25.02099,-0.11088,-3.00888,0.82255
491.905,25.0401,-0.09272422,-3.01026,0.8221
492.505,25.0593,-0.07781785,-3.01022,0.82165
493.105,25.07845,-0.06966253,-3.01165,0.8212
493.705,25.09761,-0.05771207,-3.01159,0.82075
494.305,25.1168,-0.04664886,-3.01297,0.8203
494.905,25.13605,-0.04212867,-3.01307,0.81985
495.505,25.15522,-0.02748356,-3.01465,0.8194
496.105,25.17441,-0.02466758,-3.01539,0.81895
496.705,25.1936,-0.008994978,-3.01596,0.8185
497.305,25.21275,-0.003335862,-3.01749,0.81804
497.905,25.2319,0.01063555,-3.01741,0.81759
498.505,25.25112,0.01961208,-3.01876,0.81714
499.105,25.27035,0.02427613,-3.01871,0.81669
499.705,25.28957,0.03262304,-3.02011,0.81623
500.305,25.30878,0.03711644,-3.02008,0.81578
500.905,25.328,0.03519716,-3.02144,0.81533
501.505,25.3472,0.04090421,-3.0214,0.81488
502.105,25.3664,0.05799977,-3.0226,0.81442
502.705,25.38562,0.06120881,-3.02282,0.81397
503.305,25.40481,0.0723218,-3.02438,0.81351
503.905,25.424,0.07237489,-3.02539,0.81306
504.505,25.4432,0.08844498,-3.02586,0.81261
505.105,25.4623,0.09112691,-3.02724,0.81215
505.705,25.4816,0.09028018,-3.02714,0.8117
506.305,25.50081,0.09878255,-3.02821,0.81124
506.905,25.51998,0.09785756,-3.02848,0.81079
507.505,25.5393,0.10769,-3.02873,0.81033
508.105,25.55854,0.11603,-3.03048,0.80988
508.705,25.57767,0.11737,-3.03098,0.80942
509.305,25.59686,0.11895,-3.03219,0.80897
509.905,25.61611,0.13108,-3.03244,0.80851
510.505,25.6353,0.14274,-3.03354,0.80805
511.105,25.65448,0.13838,-3.03465,0.8076
511.705,25.6738,0.14541,-3.0351,0.80714
512.305,25.6931,0.14864,-3.03661,0.80668
512.905,25.71226,0.14914,-3.03684,0.80623
513.505,25.73152,0.14968,-3.03833,0.80577
514.105,25.75078,0.15021,-3.03831,0.80531
514.705,25.77001,0.15925,-3.03979,0.80485
515.305,25.78924,0.15736,-3.04081,0.8044
515.905,25.8085,0.16016,-3.04135,0.80394
516.505,25.8278,0.16992,-3.04212,0.80348
517.105,25.84712,0.16664,-3.04275,0.80302
517.705,25.86644,0.16615,-3.04136,0.80256
518.305,25.8857,0.17227,-3.04128,0.80211
518.905,25.905,0.17028,-3.04243,0.80165
519.505,25.9242,0.17216,-3.04277,0.80119
520.105,25.94346,0.17662,-3.04428,0.80073
520.705,25.96274,0.17197,-3.04481,0.80027
521.305,25.98215,0.17508,-3.04556,0.79981
521.905,26.00147,0.17503,-3.04639,0.79935
522.505,26.02082,0.18196,-3.04691,0.79889
523.105,26.04018,0.19114,-3.04727,0.79843
523.705,26.05944,0.19048,-3.04825,0.79797
524.305,26.07872,0.1795,-3.04847,0.79751
524.905,26.098,0.1745,-3.04971,0.79705
525.505,26.11726,0.17912,-3.04982,0.79659
526.105,26.1366,0.18533,-3.05102,0.79613
526.705,26.1559,0.19098,-3.05135,0.79566
527.305,26.17526,0.18293,-3.0513,0.7952
527.905,26.19463,0.17197,-3.05192,0.79474
528.505,26.21395,0.17488,-3.05302,0.79428
529.105,26.23325,0.17358,-3.05298,0.79382
529.705,26.2525,0.17503,-3.05449,0.79336
530.305,26.27182,0.18311,-3.0544,0.79289
530.905,26.2912,0.17955,-3.05589,0.79243
531.505,26.31055,0.17525,-3.05586,0.79197
532.105,26.32998,0.16869,-3.05735,0.7915
532.705,26.3493,0.17059,-3.05857,0.79104
533.305,26.36872,0.1645,-3.05945,0.79058
533.905,26.38812,0.16705,-3.0594,0.79012
534.505,26.40751,0.16109,-3.06065,0.78965
535.105,26.42687,0.15377,-3.0607,0.78919
535.705,26.44633,0.1444,-3.06197,0.78872
536.305,26.4657,0.15056,-3.062,0.78826
536.905,26.48503,0.15191,-3.06202,0.7878
537.505,26.50432,0.1527,-3.06219,0.78733
538.105,26.5237,0.14624,-3.0625,0.78687
538.705,26.543,0.14405,-3.06354,0.7864
539.305,26.56237,0.14499,-3.06501,0.78594
539.905,26.5818,0.14179,-3.06618,0.78547
540.505,26.6012,0.13212,-3.06613,0.78501
541.105,26.62057,0.13718,-3.06685,0.78454
541.705,26.63996,0.13818,-3.06746,0.78408
542.305,26.6594,0.13983,-3.06743,0.78361
542.905,26.67875,0.13701,-3.06876,0.78314
543.505,26.6982,0.13636,-3.06878,0.78268
544.105,26.7176,0.13248,-3.06923,0.78221
544.705,26.737,0.13024,-3.07013,0.78175
545.305,26.75637,0.12735,-3.07028,0.78128
545.905,26.77575,0.1215,-3.07077,0.78081
546.505,26.79523,0.11686,-3.07075,0.78035
547.105,26.81462,0.11536,-3.07079,0.77988
547.705,26.8341,0.11383,-3.07243,0.77941
548.305,26.8535,0.10587,-3.07262,0.77894
548.905,26.87292,0.10668,-3.07384,0.77848
549.505,26.89232,0.10601,-3.07382,0.77801
550.105,26.91177,0.10553,-3.0738,0.77754
550.705,26.9312,0.10294,-3.07459,0.77707
551.305,26.9506,0.09853111,-3.07524,0.7766
551.905,26.97007,0.10027,-3.07679,0.77614
552.505,26.98957,0.09662226,-3.07679,0.77567
553.105,27.00899,0.09449403,-3.07768,0.7752
553.705,27.0285,0.08777007,-3.0781,0.77473
554.305,27.0479,0.08006529,-3.07829,0.77426
554.905,27.0674,0.0702538,-3.07947,0.77379
555.505,27.0868,0.06640459,-3.07941,0.77332
556.105,27.10626,0.06598271,-3.08037,0.77285
556.705,27.1257,0.05506884,-3.08182,0.77238
557.305,27.1452,0.05531966,-3.08205,0.77191
557.905,27.16465,0.05467787,-3.08206,0.77144
558.505,27.1841,0.05433074,-3.08286,0.77098
559.105,27.2036,0.04961055,-3.08345,0.7705
559.705,27.22298,0.0456675,-3.08361,0.77003
560.305,27.2424,0.0400169,-3.08369,0.76956
560.905,27.2619,0.04515178,-3.08495,0.76909
561.505,27.2813,0.04021307,-3.08492,0.76862
562.105,27.3008,0.03686227,-3.08496,0.76815
562.705,27.3203,0.03493741,-3.08623,0.76768
563.305,27.33983,0.03791715,-3.08623,0.76721
563.905,27.35926,0.03117418,-3.08752,0.76674
564.505,27.3787,0.02449269,-3.08754,0.76627
565.105,27.39827,0.009950211,-3.08748,0.7658
565.705,27.41778,0.005279398,-3.08902,0.76532
566.305,27.43726,0.0075973,-3.09018,0.76485
566.905,27.45672,-0.008028991,-3.09135,0.76438
567.505,27.4762,-0.00885591,-3.09138,0.76391
568.105,27.4956,-0.01042859,-3.09295,0.76344
568.705,27.51505,-0.01056491,-3.09306,0.76296
569.305,27.5347,-0.006427674,-3.09347,0.76249
569.905,27.5542,-0.01032555,-3.09436,0.76202
570.505,27.57371,-0.01186486,-3.09444,0.76155
571.105,27.59328,-0.02299902,-3.09503,0.76107
571.705,27.6128,-0.02236357,-3.09496,0.7606
572.305,27.6323,-0.02833272,-3.09615,0.76013
572.905,27.65178,-0.02796374,-3.09623,0.75965
573.505,27.6713,-0.02692757,-3.09567,0.75918
574.105,27.6908,-0.02428681,-3.0964,0.75871
574.705,27.7103,-0.03748395,-3.09699,0.75823
575.305,27.72983,-0.04729922,-3.09699,0.75776
575.905,27.74932,-0.0431165,-3.09791,0.75728
576.505,27.7688,-0.04598876,-3.0983,0.75681
577.105,27.78838,-0.0388541,-3.09831,0.75634
577.705,27.80795,-0.04131498,-3.09879,0.75586
578.305,27.82752,-0.04368264,-3.09965,0.75539
578.905,27.84708,-0.04927587,-3.09965,0.75491
579.505,27.8667,-0.04766042,-3.10026,0.75444
580.105,27.88615,-0.04354621,-3.10106,0.75396
580.705,27.90567,-0.04975255,-3.10205,0.75349
581.305,27.9252,-0.05907693,-3.10246,0.75301
581.905,27.94465,-0.05675139,-3.10254,0.75254
582.505,27.9642,-0.07061611,-3.10389,0.75206
583.105,27.98374,-0.07060121,-3.10382,0.75158
583.705,28.0033,-0.07254607,-3.10407,0.75111
584.305,28.02293,-0.07222543,-3.10512,0.75063
584.905,28.0425,-0.06256274,-3.10511,0.75016
585.505,28.06206,-0.06937232,-3.10511,0.74968
586.105,28.08163,-0.08116308,-3.10509,0.74921
586.705,28.10121,-0.07753962,-3.10587,0.74873
587.305,28.12073,-0.08292037,-3.10642,0.74825
587.905,28.1403,-0.08354195,-3.10642,0.74778
588.505,28.15985,-0.08672161,-3.10741,0.7473
589.105,28.1794,-0.08314924,-3.10775,0.74682
589.705,28.199,-0.08588902,-3.10799,0.74635
590.305,28.21857,-0.08620059,-3.10909,0.74587
590.905,28.23815,-0.08742854,-3.10908,0.74539
591.505,28.2578,-0.09993761,-3.10982,0.74491
592.105,28.2774,-0.09880655,-3.11051,0.74444
592.705,28.297,-0.10261,-3.1109,0.74396
593.305,28.3165,-0.10443,-3.11185,0.74348
593.905,28.33612,-0.10464,-3.11181,0.743
594.505,28.3557,-0.11483,-3.11181,0.74253
595.105,28.37524,-0.11167,-3.11188,0.74205
595.705,28.39483,-0.11501,-3.11321,0.74157
596.305,28.41446,-0.11516,-3.11313,0.74109
596.905,28.434,-0.11319,-3.11312,0.74061
597.505,28.45362,-0.10899,-3.11312,0.74013
598.105,28.4732,-0.11494,-3.11314,0.73966
598.705,28.4929,-0.12302,-3.11466,0.73918
599.305,28.51243,-0.12997,-3.11465,0.7387
599.905,28.5321,-0.13453,-3.11603,0.73822
600.505,28.55169,-0.13208,-3.11599,0.73774
601.105,28.57126,-0.13441,-3.11607,0.73726
601.705,28.59082,-0.13751,-3.11731,0.73678
602.305,28.6104,-0.14198,-3.11733,0.7363
602.905,28.63001,-0.13686,-3.11861,0.73582
603.505,28.64963,-0.14325,-3.11861,0.73534
604.105,28.66923,-0.14087,-3.11888,0.73486
604.705,28.68892,-0.13805,-3.11995,0.73438
605.305,28.70856,-0.1553,-3.11988,0.7339
605.905,28.72818,-0.14947,-3.12036,0.73342
606.505,28.7477,-0.16167,-3.11993,0.73294
607.105,28.7674,-0.1466,-3.12037,0.73246
607.705,28.787,-0.15103,-3.12129,0.73198
608.305,28.80645,-0.14772,-3.12162,0.7315
608.905,28.82606,-0.14121,-3.1226,0.73102
609.505,28.8456,-0.14644,-3.1235,0.73054
610.105,28.8653,-0.15056,-3.12395,0.73006
610.705,28.88503,-0.15933,-3.12264,0.72958
611.305,28.90486,-0.15573,-3.12281,0.7291
611.905,28.9246,-0.15589,-3.12392,0.72862
612.505,28.9443,-0.15305,-3.12462,0.72814
613.105,28.964,-0.16728,-3.12615,0.72766
613.705,28.98361,-0.15322,-3.12651,0.72717
614.305,29.0033,-0.14659,-3.12655,0.72669
614.905,29.023,-0.14579,-3.12793,0.72621
615.505,29.0427,-0.15608,-3.12784,0.72573
616.105,29.06223,-0.14217,-3.12782,0.72525
616.705,29.0819,-0.15017,-3.12865,0.72477
617.305,29.10152,-0.15411,-3.12914,0.72428
617.905,29.12118,-0.16512,-3.12918,0.7238
618.505,29.1409,-0.15829,-3.12948,0.72332
619.105,29.1606,-0.15832,-3.12948,0.72284
619.705,29.1803,-0.15631,-3.13082,0.72236
620.305,29.2,-0.16593,-3.1308,0.72187
620.905,29.2196,-0.16077,-3.1311,0.72139
621.505,29.2393,-0.15525,-3.13213,0.72091
622.105,29.259,-0.1564,-3.13212,0.72043
622.705,29.27866,-0.15573,-3.13234,0.71994
623.305,29.2984,-0.15137,-3.13346,0.71946
623.905,29.31803,-0.14587,-3.13343,0.71898
624.505,29.3377,-0.1534,-3.1336,0.7185
625.105,29.35735,-0.1586,-3.1348,0.71801
625.705,29.37702,-0.15537,-3.1347,0.71753
626.305,29.39674,-0.1447,-3.13592,0.71705
626.905,29.41647,-0.14676,-3.13606,0.71656
627.505,29.4362,-0.15583,-3.13606,0.71608
628.105,29.45583,-0.14372,-3.13587,0.7156
628.705,29.47549,-0.14997,-3.13666,0.71511
629.305,29.49516,-0.16524,-3.13704,0.71463
629.905,29.5149,-0.15883,-3.13709,0.71414
630.505,29.53459,-0.1588,-3.13871,0.71366
631.105,29.55435,-0.15312,-3.1386,0.71318
631.705,29.57405,-0.15492,-3.13863,0.71269
632.305,29.59378,-0.14988,-3.14001,0.71221
632.905,29.6135,-0.14018,-3.13992,0.71172
633.505,29.6332,-0.1423,-3.13991,0.71124
634.105,29.65294,-0.14492,-3.13991,0.71076
634.705,29.67265,-0.15437,-3.13991,0.71027
635.305,29.69235,-0.13842,-3.14047,0.70979
635.905,29.71208,-0.13964,-3.14121,0.7093
636.505,29.7318,-0.14202,-3.14123,0.70882
637.105,29.7514,-0.14438,-3.14169,0.70833
637.705,29.77112,-0.14027,-3.14252,0.70785
638.305,29.79073,-0.14975,-3.14253,0.70736
638.905,29.8104,-0.14219,-3.14356,0.70688
639.505,29.83013,-0.13605,-3.14386,0.70639
640.105,29.8499,-0.13715,-3.14386,0.70591
640.705,29.86962,-0.13505,-3.14517,0.70542
641.305,29.88937,-0.13999,-3.14517,0.70494
641.905,29.90915,-0.13228,-3.14455,0.70445
642.505,29.92894,-0.14898,-3.14516,0.70397
643.105,29.94868,-0.13928,-3.14518,0.70348
643.705,29.96845,-0.13656,-3.1454,0.703
644.305,29.98808,-0.1358,-3.14654,0.70251
644.605,29.998,-0.13972,-3.14648,0.70227