File: 01_Data/Masonite_Board/STA/N2/30K_min/Masonite_STA_N2_30KData_222706_R3.csv
##Temp./Â°C,Time/min,DSC(subtr.2)/mW,Mass loss(subtr.2)/mg,Sensit./(uV/mW)
48.521,10.01,0.07383202,-0.027,1.05401
49.121,10.5341,0.25209,-0.02623689,1.05389
49.721,10.65434,0.41119,-0.02558898,1.05377
50.321,10.73869,0.53638,-0.02706473,1.05365
50.921,10.80786,0.65656,-0.02644192,1.05352
51.521,10.86738,0.7787,-0.02824137,1.0534
52.121,10.9199,0.8842,-0.02919149,1.05327
52.721,10.9685,0.97631,-0.02989863,1.05315
53.321,11.01447,1.06743,-0.02980346,1.05302
53.921,11.05635,1.16507,-0.02729637,1.05289
54.521,11.09562,1.24332,-0.02727476,1.05277
55.121,11.13317,1.32587,-0.02672673,1.05264
55.721,11.16945,1.39964,-0.02747143,1.05251
56.321,11.20425,1.47646,-0.02782362,1.05238
56.921,11.23765,1.5415,-0.02780539,1.05225
57.521,11.27002,1.60406,-0.02775862,1.05212
58.121,11.3013,1.67771,-0.02689292,1.05199
58.721,11.3317,1.74443,-0.02758671,1.05186
59.321,11.36144,1.80444,-0.02709991,1.05172
59.921,11.39058,1.8616,-0.02733558,1.05159
60.521,11.41912,1.91306,-0.02808675,1.05146
61.121,11.44706,1.96959,-0.02865611,1.05132
61.721,11.47459,2.02288,-0.02757982,1.05119
62.321,11.50177,2.07951,-0.02636503,1.05105
62.921,11.52868,2.13219,-0.02633981,1.05091
63.521,11.5549,2.17585,-0.02667337,1.05078
64.121,11.5807,2.23519,-0.0271009,1.05064
64.721,11.60624,2.27593,-0.02687746,1.0505
65.321,11.63152,2.32453,-0.02671125,1.05036
65.921,11.6565,2.36325,-0.02652814,1.05022
66.521,11.6813,2.41809,-0.02622834,1.05008
67.121,11.70588,2.4577,-0.02716594,1.04994
67.721,11.7301,2.50737,-0.02810819,1.0498
68.321,11.75421,2.53913,-0.02817352,1.04966
68.921,11.7781,2.58822,-0.02845696,1.04951
69.521,11.80175,2.61968,-0.02874237,1.04937
70.121,11.82527,2.65934,-0.02942958,1.04923
70.721,11.84849,2.69757,-0.02996264,1.04908
71.321,11.8712,2.74505,-0.030736,1.04893
71.921,11.89379,2.78266,-0.0309144,1.04879
72.521,11.91646,2.82394,-0.03027166,1.04864
73.121,11.9392,2.85626,-0.02991402,1.04849
73.721,11.96228,2.88847,-0.02945666,1.04835
74.321,11.98512,2.93124,-0.02963146,1.0482
74.921,12.0076,2.9606,-0.03060236,1.04805
75.521,12.03,2.99163,-0.0315,1.0479
76.121,12.05216,3.03873,-0.03114852,1.04775
76.721,12.07438,3.06766,-0.03007623,1.0476
77.321,12.09651,3.08506,-0.03035551,1.04744
77.921,12.1183,3.13205,-0.03031602,1.04729
78.521,12.14001,3.15555,-0.03139087,1.04714
79.121,12.1617,3.19094,-0.03086609,1.04698
79.721,12.18339,3.22068,-0.0316725,1.04683
80.321,12.20513,3.25329,-0.0320047,1.04667
80.921,12.22684,3.27298,-0.03215511,1.04652
81.521,12.2483,3.30719,-0.03216433,1.04636
82.121,12.26977,3.33321,-0.03237673,1.0462
82.721,12.29107,3.3602,-0.03282772,1.04605
83.321,12.31241,3.39837,-0.03393852,1.04589
83.921,12.33362,3.40844,-0.03274632,1.04573
84.521,12.35478,3.43808,-0.03401369,1.04557
85.121,12.3759,3.45899,-0.03415068,1.04541
85.721,12.3969,3.49221,-0.03390662,1.04525
86.321,12.41796,3.51476,-0.03440826,1.04509
86.921,12.4389,3.53459,-0.03524412,1.04492
87.521,12.45975,3.55255,-0.03460427,1.04476
88.121,12.4804,3.57936,-0.03494251,1.0446
88.721,12.50094,3.60508,-0.03523995,1.04443
89.321,12.52171,3.62661,-0.0352505,1.04427
89.921,12.54244,3.64496,-0.03663536,1.0441
90.521,12.5633,3.67148,-0.03655017,1.04394
91.121,12.58408,3.68604,-0.03669245,1.04377
91.721,12.60459,3.70423,-0.03706687,1.0436
92.321,12.6251,3.726,-0.03810661,1.04344
92.921,12.64546,3.73647,-0.03807766,1.04327
93.521,12.66595,3.75275,-0.03775895,1.0431
94.121,12.6865,3.7733,-0.0368556,1.04293
94.721,12.70692,3.7901,-0.03819155,1.04276
95.321,12.72751,3.79909,-0.03680514,1.04259
95.921,12.7479,3.80842,-0.03808323,1.04242
96.521,12.76816,3.82798,-0.038115,1.04224
97.121,12.7885,3.83588,-0.0390036,1.04207
97.721,12.80873,3.85051,-0.03809843,1.0419
98.321,12.82899,3.85591,-0.0380902,1.04172
98.921,12.8493,3.87641,-0.03808744,1.04155
99.521,12.86946,3.88486,-0.03937666,1.04137
100.121,12.88974,3.89525,-0.03940911,1.0412
100.721,12.9099,3.8996,-0.0397314,1.04102
101.321,12.93004,3.90251,-0.0395067,1.04084
101.921,12.95007,3.91711,-0.03950967,1.04067
102.521,12.9702,3.92305,-0.03951096,1.04049
103.121,12.9903,3.92961,-0.03952762,1.04031
103.721,13.01031,3.93155,-0.04083117,1.04013
104.321,13.03023,3.92559,-0.04083006,1.03995
104.921,13.0504,3.93461,-0.04083002,1.03977
105.521,13.07042,3.94181,-0.04083027,1.03959
106.121,13.0905,3.93929,-0.04083466,1.03941
106.721,13.11076,3.94186,-0.04010534,1.03922
107.321,13.13098,3.95064,-0.03993556,1.03904
107.921,13.151,3.9527,-0.0408176,1.03886
108.521,13.17107,3.94856,-0.04082772,1.03867
109.121,13.1911,3.94624,-0.04126181,1.03849
109.721,13.2112,3.95107,-0.04213506,1.0383
110.321,13.2312,3.95303,-0.04214179,1.03811
110.921,13.25124,3.94955,-0.04077239,1.03793
111.521,13.2711,3.95196,-0.0415872,1.03774
112.121,13.29103,3.95918,-0.0421428,1.03755
112.721,13.311,3.96332,-0.04214954,1.03736
113.321,13.33089,3.97144,-0.04215028,1.03717
113.921,13.35085,3.9807,-0.0421544,1.03698
114.521,13.3708,3.98289,-0.04351072,1.03679
115.121,13.3908,3.9857,-0.04347295,1.0366
115.721,13.4107,3.98472,-0.04347019,1.03641
116.321,13.4306,3.99431,-0.04347006,1.03622
116.921,13.4504,3.99899,-0.04347049,1.03602
117.521,13.4703,4.00975,-0.04347516,1.03583
118.121,13.49019,4.00991,-0.04413285,1.03564
118.721,13.50999,4.02012,-0.04412999,1.03544
119.321,13.5299,4.0127,-0.04412999,1.03525
119.921,13.54964,4.01943,-0.04413007,1.03505
120.521,13.5694,4.02376,-0.0441316,1.03485
121.121,13.5891,4.02597,-0.04416128,1.03466
121.721,13.6089,4.01505,-0.04345506,1.03446
122.321,13.6286,4.02522,-0.04346833,1.03426
122.921,13.6483,4.03693,-0.04346494,1.03406
123.521,13.668,4.03038,-0.04463876,1.03386
124.121,13.68767,4.03369,-0.04477797,1.03366
124.721,13.7074,4.03778,-0.04478903,1.03346
125.321,13.72703,4.04534,-0.04478992,1.03326
125.921,13.74673,4.049,-0.04478999,1.03306
126.521,13.76631,4.04742,-0.04479,1.03285
127.121,13.78594,4.05095,-0.04479,1.03265
127.721,13.80556,4.04613,-0.04479,1.03245
128.321,13.8252,4.0411,-0.04479001,1.03224
128.921,13.84472,4.04971,-0.04479009,1.03204
129.521,13.86425,4.06032,-0.04479112,1.03183
130.121,13.88367,4.05217,-0.04480387,1.03162
130.721,13.90311,4.06568,-0.04497411,1.03142
131.321,13.92252,4.05689,-0.04541576,1.03121
131.921,13.94184,4.05621,-0.04579848,1.031
132.521,13.96124,4.06302,-0.04580224,1.03079
133.121,13.98068,4.06584,-0.04609502,1.03058
133.721,14,4.06876,-0.04610022,1.03038
134.321,14.0194,4.07168,-0.0448003,1.03016
134.921,14.0388,4.07088,-0.04478311,1.02995
135.521,14.05815,4.07759,-0.04478047,1.02974
136.121,14.0775,4.08336,-0.04478171,1.02953
136.721,14.0968,4.08505,-0.04480534,1.02932
137.321,14.11612,4.08188,-0.04537121,1.0291
137.921,14.13535,4.10293,-0.0461248,1.02889
138.521,14.1546,4.09404,-0.04639939,1.02868
139.121,14.1739,4.10818,-0.04674108,1.02846
139.721,14.19311,4.10609,-0.04675867,1.02825
140.321,14.21231,4.11577,-0.04675992,1.02803
140.921,14.2316,4.11595,-0.04676,1.02781
141.521,14.2507,4.13123,-0.04676003,1.0276
142.121,14.2699,4.1275,-0.04675994,1.02738
142.721,14.289,4.14193,-0.04675331,1.02716
143.321,14.3082,4.15057,-0.04624965,1.02694
143.921,14.3273,4.15125,-0.04541191,1.02672
144.521,14.3464,4.16141,-0.04543732,1.0265
145.121,14.36558,4.15587,-0.04543977,1.02628
145.721,14.38463,4.17737,-0.04543999,1.02606
146.321,14.40366,4.18256,-0.0454401,1.02584
146.921,14.42275,4.19485,-0.04544102,1.02561
147.521,14.4418,4.19329,-0.04544903,1.02539
148.121,14.46084,4.20219,-0.04549489,1.02517
148.721,14.47988,4.21836,-0.04675951,1.02494
149.321,14.49889,4.22355,-0.04676059,1.02472
149.921,14.51774,4.23438,-0.04678223,1.02449
150.521,14.53655,4.24608,-0.0473982,1.02427
151.121,14.55536,4.24578,-0.04808611,1.02404
151.721,14.5743,4.25983,-0.04808049,1.02381
152.321,14.59325,4.26616,-0.04808006,1.02358
152.921,14.6123,4.28013,-0.04808023,1.02336
153.521,14.63142,4.28129,-0.04808183,1.02313
154.121,14.65041,4.29417,-0.04808669,1.0229
154.721,14.6693,4.30724,-0.04715142,1.02267
155.321,14.6882,4.3162,-0.04676706,1.02244
155.921,14.7071,4.32032,-0.046754,1.02221
156.521,14.726,4.32971,-0.04753094,1.02197
157.121,14.74491,4.34046,-0.04773463,1.02174
157.721,14.7638,4.35068,-0.04774886,1.02151
158.321,14.78268,4.36198,-0.04775029,1.02128
158.921,14.8015,4.37118,-0.04775272,1.02104
159.521,14.82035,4.37896,-0.04775777,1.02081
160.121,14.8392,4.37836,-0.04808494,1.02057
160.721,14.85806,4.39954,-0.04808096,1.02034
161.321,14.8769,4.41012,-0.04808012,1.0201
161.921,14.8957,4.41904,-0.04808001,1.01986
162.521,14.91455,4.43135,-0.04808,1.01963
163.121,14.93334,4.43742,-0.04808,1.01939
163.721,14.9521,4.45429,-0.04808,1.01915
164.321,14.97085,4.45579,-0.04808,1.01891
164.921,14.9895,4.46934,-0.04808,1.01867
165.521,15.00815,4.48574,-0.04808001,1.01843
166.121,15.0269,4.49798,-0.04808013,1.01819
166.721,15.0456,4.50025,-0.04808183,1.01795
167.321,15.0644,4.51228,-0.04810192,1.01771
167.921,15.0832,4.52759,-0.04833879,1.01747
168.521,15.10196,4.53112,-0.04939572,1.01722
169.121,15.1207,4.54006,-0.04939018,1.01698
169.721,15.13936,4.55811,-0.04938996,1.01674
170.321,15.15801,4.56553,-0.04938919,1.01649
170.921,15.17675,4.57153,-0.04937617,1.01625
171.521,15.19539,4.582,-0.04909694,1.016
172.121,15.214,4.58804,-0.04802903,1.01575
172.721,15.23267,4.59992,-0.04807661,1.01551
173.321,15.2513,4.61782,-0.04807984,1.01526
173.921,15.2699,4.62933,-0.04808001,1.01501
174.521,15.28846,4.63257,-0.04808072,1.01476
175.121,15.30706,4.65249,-0.04809395,1.01451
175.721,15.32567,4.6596,-0.04839986,1.01427
176.321,15.34423,4.6744,-0.04965298,1.01402
176.921,15.3627,4.68875,-0.05076166,1.01376
177.521,15.3813,4.6977,-0.05071238,1.01351
178.121,15.39986,4.70589,-0.05070998,1.01326
178.721,15.4184,4.71438,-0.05070998,1.01301
179.321,15.43704,4.73154,-0.05071,1.01276
179.921,15.4556,4.74309,-0.05071,1.0125
180.521,15.4741,4.74051,-0.05071,1.01225
181.121,15.4926,4.7522,-0.05071,1.012
181.721,15.51097,4.77513,-0.05071,1.01174
182.321,15.52929,4.78183,-0.05071,1.01148
182.921,15.54757,4.78626,-0.05071,1.01123
183.521,15.56598,4.80594,-0.05071,1.01097
184.121,15.58441,4.82621,-0.05071,1.01072
184.721,15.603,4.83973,-0.05071,1.01046
185.321,15.6216,4.83773,-0.05071,1.0102
185.921,15.6402,4.84457,-0.05071,1.00994
186.521,15.6587,4.85406,-0.05071,1.00968
187.121,15.6771,4.87184,-0.05071,1.00942
187.721,15.6954,4.88902,-0.05071005,1.00916
188.321,15.71375,4.89447,-0.0507105,1.0089
188.921,15.7321,4.91267,-0.05071384,1.00864
189.521,15.75045,4.92332,-0.05071987,1.00838
190.121,15.76891,4.93993,-0.05105415,1.00811
190.721,15.7873,4.93718,-0.05148097,1.00785
191.321,15.8057,4.9469,-0.05240389,1.00759
191.921,15.824,4.96173,-0.05236374,1.00732
192.521,15.8422,4.96798,-0.05236023,1.00706
193.121,15.86038,4.98205,-0.05236,1.00679
193.721,15.8786,4.9927,-0.05236002,1.00653
194.321,15.8969,5.00548,-0.05236049,1.00626
194.921,15.9152,5.0204,-0.05236667,1.006
195.521,15.9336,5.02176,-0.05242987,1.00573
196.121,15.952,5.03636,-0.05123003,1.00546
196.721,15.97044,5.05453,-0.05103993,1.00519
197.321,15.9887,5.06085,-0.05105541,1.00492
197.921,16.00703,5.06516,-0.05173612,1.00465
198.521,16.0253,5.08231,-0.05247228,1.00438
199.121,16.04364,5.09358,-0.05338664,1.00411
199.721,16.06188,5.10106,-0.05371086,1.00384
200.321,16.08018,5.11191,-0.05368029,1.00357
200.921,16.0985,5.12534,-0.05367966,1.0033
201.521,16.11678,5.13333,-0.05367748,1.00303
202.121,16.13504,5.14199,-0.0536893,1.00275
202.721,16.15328,5.15067,-0.0559253,1.00248
203.321,16.17152,5.162,-0.05598968,1.00221
203.921,16.1897,5.17461,-0.055994,1.00193
204.521,16.20801,5.19907,-0.05679618,1.00166
205.121,16.22625,5.20538,-0.05751855,1.00138
205.721,16.2445,5.20753,-0.05758285,1.00111
206.321,16.26272,5.22349,-0.05856626,1.00083
206.921,16.2809,5.24263,-0.05788128,1.00055
207.521,16.2991,5.24877,-0.05762956,1.00027
208.121,16.31739,5.25484,-0.05763158,1.0
208.721,16.33567,5.27515,-0.05771574,0.99972
209.321,16.35387,5.28575,-0.05904729,0.99944
209.921,16.37211,5.29301,-0.05895572,0.99916
210.521,16.3903,5.30169,-0.05895008,0.99888
211.121,16.40839,5.31787,-0.05894996,0.9986
211.721,16.42657,5.33412,-0.05894999,0.99832
212.321,16.44482,5.34234,-0.05895,0.99803
212.921,16.4631,5.3573,-0.05895001,0.99775
213.521,16.4814,5.36383,-0.05895003,0.99747
214.121,16.4996,5.38055,-0.05894988,0.99719
214.721,16.51781,5.39378,-0.05894421,0.9969
215.321,16.53608,5.40582,-0.05992754,0.99662
215.921,16.55431,5.42494,-0.06024092,0.99633
216.521,16.57252,5.42393,-0.06024155,0.99605
217.121,16.59079,5.4276,-0.06099545,0.99576
217.721,16.6089,5.44538,-0.06158994,0.99548
218.321,16.62709,5.46375,-0.06158215,0.99519
218.921,16.6452,5.46304,-0.06158036,0.9949
219.521,16.66339,5.48542,-0.06158128,0.99461
220.121,16.68155,5.50099,-0.0615888,0.99433
220.721,16.69976,5.51315,-0.06288588,0.99404
221.321,16.71792,5.52653,-0.06288626,0.99375
221.921,16.7361,5.5374,-0.06284626,0.99346
222.521,16.7542,5.5443,-0.06389843,0.99317
223.121,16.7724,5.55912,-0.06420766,0.99288
223.721,16.79048,5.5745,-0.06421989,0.99258
224.321,16.80861,5.58525,-0.06421563,0.99229
224.921,16.82678,5.5913,-0.06527339,0.992
225.521,16.84499,5.60907,-0.06551746,0.99171
226.121,16.8631,5.62652,-0.06556575,0.99141
226.721,16.8813,5.63247,-0.06690909,0.99112
227.321,16.89955,5.63524,-0.06684792,0.99083
227.921,16.91774,5.6638,-0.06684285,0.99053
228.521,16.93592,5.66611,-0.06674796,0.99024
229.121,16.95412,5.67553,-0.06801974,0.98994
229.721,16.97229,5.69012,-0.06889073,0.98964
230.321,16.9905,5.69842,-0.06883284,0.98935
230.921,17.00862,5.71988,-0.06878094,0.98905
231.521,17.0268,5.73336,-0.07058856,0.98875
232.121,17.04489,5.74145,-0.07081412,0.98845
232.721,17.06302,5.75028,-0.07105546,0.98816
233.321,17.08111,5.76283,-0.07213279,0.98786
233.921,17.0992,5.77898,-0.0721353,0.98756
234.521,17.11729,5.78669,-0.0725592,0.98726
235.121,17.13545,5.79303,-0.07348624,0.98696
235.721,17.1536,5.8089,-0.07344511,0.98665
236.321,17.17172,5.82571,-0.07345038,0.98635
236.921,17.18984,5.83774,-0.07475075,0.98605
237.521,17.20799,5.8441,-0.07475123,0.98575
238.121,17.22609,5.8584,-0.07485886,0.98544
238.721,17.24419,5.86852,-0.07617276,0.98514
239.321,17.2623,5.87762,-0.07606194,0.98484
239.921,17.28045,5.88649,-0.07677748,0.98453
240.521,17.2986,5.89215,-0.07743168,0.98423
241.121,17.3167,5.91418,-0.07810982,0.98392
241.721,17.3349,5.93147,-0.07885677,0.98362
242.321,17.35296,5.93049,-0.08011125,0.98331
242.921,17.3711,5.95007,-0.0797991,0.983
243.521,17.38922,5.96449,-0.07983726,0.9827
244.121,17.4073,5.98002,-0.08024346,0.98239
244.721,17.42539,5.98019,-0.08114862,0.98208
245.321,17.44355,6.00017,-0.08154452,0.98177
245.921,17.46171,6.00937,-0.08162684,0.98146
246.521,17.47983,6.02004,-0.08287321,0.98115
247.121,17.49796,6.03457,-0.08395628,0.98084
247.721,17.51605,6.03857,-0.08565961,0.98053
248.321,17.53419,6.05166,-0.08593194,0.98022
248.921,17.55216,6.0602,-0.08722104,0.97991
249.521,17.57023,6.06959,-0.0875215,0.97959
250.121,17.5883,6.08575,-0.08862509,0.97928
250.721,17.60641,6.09224,-0.08976842,0.97897
251.321,17.62446,6.1019,-0.09035274,0.97866
251.921,17.64255,6.11274,-0.09313384,0.97834
252.521,17.66066,6.12385,-0.09338092,0.97803
253.121,17.67876,6.13188,-0.09455251,0.97771
253.721,17.69686,6.14138,-0.09524753,0.9774
254.321,17.71491,6.14395,-0.09596566,0.97708
254.921,17.7331,6.15491,-0.09737901,0.97676
255.521,17.75112,6.1722,-0.09799751,0.97645
256.121,17.76922,6.17544,-0.0978635,0.97613
256.721,17.78728,6.18274,-0.09909205,0.97581
257.321,17.80538,6.19663,-0.09937666,0.97549
257.921,17.82343,6.19777,-0.10101,0.97518
258.521,17.8415,6.21304,-0.1014,0.97486
259.121,17.85952,6.22228,-0.10242,0.97454
259.721,17.8776,6.22624,-0.10319,0.97422
260.321,17.89565,6.23638,-0.10301,0.9739
260.921,17.91372,6.25209,-0.10432,0.97358
261.521,17.9318,6.25359,-0.10527,0.97325
262.121,17.9499,6.26239,-0.10593,0.97293
262.721,17.96792,6.26991,-0.10877,0.97261
263.321,17.98599,6.28126,-0.1105,0.97229
263.921,18.00406,6.28719,-0.1117,0.97196
264.521,18.0221,6.29235,-0.11248,0.97164
265.121,18.04017,6.30419,-0.11418,0.97132
265.721,18.05823,6.30713,-0.11583,0.97099
266.321,18.07627,6.31905,-0.1174,0.97067
266.921,18.09434,6.32585,-0.11837,0.97034
267.521,18.11243,6.33211,-0.12001,0.97001
268.121,18.1305,6.33829,-0.12166,0.96969
268.721,18.14851,6.34672,-0.12325,0.96936
269.321,18.1666,6.34987,-0.12423,0.96903
269.921,18.18467,6.35902,-0.12598,0.96871
270.521,18.20265,6.37173,-0.12772,0.96838
271.121,18.2208,6.3776,-0.12962,0.96805
271.721,18.23892,6.38499,-0.13142,0.96772
272.321,18.257,6.38839,-0.13319,0.96739
272.921,18.27504,6.39716,-0.13501,0.96706
273.521,18.2931,6.40064,-0.13716,0.96673
274.121,18.31105,6.40249,-0.14068,0.9664
274.721,18.32893,6.41278,-0.14248,0.96607
275.321,18.34702,6.41667,-0.14445,0.96574
275.921,18.36506,6.42561,-0.14646,0.9654
276.521,18.38297,6.42365,-0.14829,0.96507
277.121,18.40104,6.43418,-0.15031,0.96474
277.721,18.41913,6.43788,-0.15301,0.9644
278.321,18.43712,6.44381,-0.15467,0.96407
278.921,18.45525,6.44682,-0.15713,0.96374
279.521,18.4735,6.45554,-0.1595,0.9634
280.121,18.49171,6.45779,-0.16163,0.96306
280.721,18.50991,6.45469,-0.16422,0.96273
281.321,18.52804,6.46177,-0.16697,0.96239
281.921,18.5461,6.46798,-0.16907,0.96206
282.521,18.56418,6.47755,-0.17234,0.96172
283.121,18.58225,6.47726,-0.1758,0.96138
283.721,18.60031,6.48043,-0.17703,0.96104
284.321,18.6184,6.48469,-0.17975,0.96071
284.921,18.6364,6.48985,-0.18322,0.96037
285.521,18.6545,6.49001,-0.18607,0.96003
286.121,18.6726,6.49209,-0.18871,0.95969
286.721,18.69077,6.49648,-0.19156,0.95935
287.321,18.70885,6.50052,-0.19636,0.95901
287.921,18.727,6.50882,-0.20019,0.95867
288.521,18.74502,6.51408,-0.20344,0.95832
289.121,18.7631,6.50931,-0.20845,0.95798
289.721,18.78115,6.50964,-0.21363,0.95764
290.321,18.7992,6.50958,-0.21672,0.9573
290.921,18.81726,6.50856,-0.22106,0.95695
291.521,18.83539,6.51237,-0.2258,0.95661
292.121,18.85345,6.51273,-0.23019,0.95627
292.721,18.87146,6.50716,-0.23467,0.95592
293.321,18.88954,6.50698,-0.23869,0.95558
293.921,18.90766,6.51152,-0.24244,0.95523
294.521,18.9257,6.50758,-0.24709,0.95489
295.121,18.94378,6.5026,-0.25095,0.95454
295.721,18.96197,6.49938,-0.25626,0.95419
296.321,18.9801,6.48999,-0.26021,0.95385
296.921,18.9982,6.48484,-0.26557,0.9535
297.521,19.01631,6.48279,-0.27021,0.95315
298.121,19.03441,6.48446,-0.27572,0.9528
298.721,19.05249,6.47895,-0.28071,0.95246
299.321,19.0706,6.46614,-0.28631,0.95211
299.921,19.08878,6.46131,-0.29202,0.95176
300.521,19.1069,6.45326,-0.29745,0.95141
301.121,19.12501,6.43892,-0.30349,0.95106
301.721,19.1431,6.43214,-0.30835,0.95071
302.321,19.16115,6.4308,-0.31459,0.95036
302.921,19.17921,6.419,-0.31997,0.95
303.521,19.19729,6.41028,-0.32699,0.94965
304.121,19.21546,6.3991,-0.33261,0.9493
304.721,19.2336,6.38533,-0.33948,0.94895
305.321,19.25175,6.37232,-0.34594,0.94859
305.921,19.26984,6.36519,-0.35243,0.94824
306.521,19.288,6.35077,-0.36029,0.94789
307.121,19.3061,6.33942,-0.36618,0.94753
307.721,19.32422,6.32122,-0.37277,0.94718
308.321,19.34235,6.31002,-0.37835,0.94682
308.921,19.3605,6.29768,-0.38585,0.94647
309.521,19.3785,6.2812,-0.3919,0.94611
310.121,19.39666,6.26812,-0.3999,0.94575
310.721,19.41481,6.25309,-0.40621,0.9454
311.321,19.43291,6.24302,-0.41348,0.94504
311.921,19.4511,6.23444,-0.42025,0.94468
312.521,19.46931,6.22122,-0.42707,0.94432
313.121,19.48742,6.20015,-0.43465,0.94397
313.721,19.50552,6.19395,-0.44177,0.94361
314.321,19.52369,6.17869,-0.45048,0.94325
314.921,19.54179,6.16787,-0.45708,0.94289
315.521,19.5599,6.14793,-0.46467,0.94253
316.121,19.578,6.14234,-0.47019,0.94217
316.721,19.59618,6.13621,-0.47852,0.94181
317.321,19.61433,6.12512,-0.48572,0.94145
317.921,19.63251,6.11513,-0.49425,0.94108
318.521,19.65063,6.10681,-0.50192,0.94072
319.121,19.6689,6.10277,-0.50918,0.94036
319.721,19.68704,6.09021,-0.51711,0.94
320.321,19.7052,6.07766,-0.52401,0.93963
320.921,19.72336,6.07311,-0.53257,0.93927
321.521,19.74157,6.0721,-0.53935,0.93891
322.121,19.75972,6.07404,-0.54824,0.93854
322.721,19.77794,6.06542,-0.55508,0.93818
323.321,19.7962,6.05775,-0.56349,0.93781
323.921,19.81439,6.05137,-0.57026,0.93745
324.521,19.8326,6.04583,-0.57843,0.93708
325.121,19.85085,6.04832,-0.58733,0.93671
325.721,19.86906,6.05404,-0.59447,0.93635
326.321,19.88721,6.04978,-0.60212,0.93598
326.921,19.9055,6.05842,-0.60919,0.93561
327.521,19.9237,6.06283,-0.61747,0.93524
328.121,19.94192,6.06602,-0.624,0.93488
328.721,19.9602,6.06844,-0.63253,0.93451
329.321,19.97849,6.08383,-0.6399,0.93414
329.921,19.9967,6.09567,-0.6492,0.93377
330.521,20.01494,6.10556,-0.65654,0.9334
331.121,20.0332,6.10996,-0.665,0.93303
331.721,20.05145,6.12073,-0.67263,0.93266
332.321,20.06962,6.1301,-0.68079,0.93229
332.921,20.0879,6.15382,-0.68876,0.93192
333.521,20.10611,6.16758,-0.69548,0.93154
334.121,20.12434,6.17721,-0.70383,0.93117
334.721,20.14255,6.19919,-0.71112,0.9308
335.321,20.1608,6.21864,-0.72054,0.93043
335.921,20.17912,6.23223,-0.72789,0.93005
336.521,20.1974,6.2542,-0.73729,0.92968
337.121,20.2157,6.27841,-0.74516,0.92931
337.721,20.234,6.3086,-0.75453,0.92893
338.321,20.25236,6.33315,-0.7625,0.92856
338.921,20.2707,6.3512,-0.7708,0.92818
339.521,20.28896,6.38554,-0.77918,0.92781
340.121,20.3073,6.42598,-0.78714,0.92743
340.721,20.3256,6.45679,-0.79676,0.92705
341.321,20.3439,6.49275,-0.80531,0.92668
341.921,20.36219,6.52448,-0.8159,0.9263
342.521,20.3805,6.57076,-0.82291,0.92592
343.121,20.39886,6.6113,-0.83254,0.92555
343.721,20.4173,6.64786,-0.84086,0.92517
344.321,20.43562,6.69205,-0.85125,0.92479
344.921,20.45399,6.74226,-0.85981,0.92441
345.521,20.4724,6.78953,-0.86926,0.92403
346.121,20.49075,6.85431,-0.87836,0.92365
346.721,20.50903,6.89883,-0.88795,0.92327
347.321,20.52736,6.95932,-0.89892,0.92289
347.921,20.54575,7.01901,-0.9086,0.92251
348.521,20.5641,7.07695,-0.91968,0.92213
349.121,20.58248,7.13928,-0.92907,0.92175
349.721,20.60089,7.21195,-0.94127,0.92137
350.321,20.6194,7.28621,-0.9521,0.92098
350.921,20.63766,7.35288,-0.96449,0.9206
351.521,20.6561,7.42953,-0.97498,0.92022
352.121,20.67451,7.51453,-0.98747,0.91984
352.721,20.69294,7.59382,-0.99821,0.91945
353.321,20.7113,7.67249,-1.01038,0.91907
353.921,20.72995,7.76797,-1.02292,0.91868
354.521,20.74837,7.86033,-1.0352,0.9183
355.121,20.76688,7.95133,-1.04822,0.91791
355.721,20.78535,8.0497,-1.05974,0.91753
356.321,20.8038,8.16654,-1.07409,0.91714
356.921,20.82224,8.27122,-1.08594,0.91676
357.521,20.84072,8.37261,-1.1012,0.91637
358.121,20.85916,8.49492,-1.11302,0.91598
358.721,20.8776,8.61318,-1.12841,0.9156
359.321,20.89604,8.73735,-1.14121,0.91521
359.921,20.9145,8.8647,-1.15705,0.91482
360.521,20.9329,9.00585,-1.1714,0.91443
361.121,20.95134,9.14805,-1.18724,0.91405
361.721,20.9698,9.28203,-1.20322,0.91366
362.321,20.98832,9.41173,-1.21906,0.91327
362.921,21.00681,9.56032,-1.23672,0.91288
363.521,21.02532,9.71409,-1.25236,0.91249
364.121,21.04382,9.86375,-1.2713,0.9121
364.721,21.0623,10.01905,-1.28646,0.91171
365.321,21.08085,10.17504,-1.30656,0.91132
365.921,21.09936,10.34379,-1.32205,0.91092
366.521,21.11789,10.50853,-1.34251,0.91053
367.121,21.13646,10.68374,-1.35993,0.91014
367.721,21.15503,10.86151,-1.38239,0.90975
368.321,21.17364,11.03934,-1.40155,0.90936
368.921,21.1922,11.2159,-1.42232,0.90896
369.521,21.2107,11.4,-1.44213,0.90857
370.121,21.2292,11.5799,-1.46311,0.90818
370.721,21.24776,11.75056,-1.48635,0.90778
371.321,21.26631,11.93165,-1.50764,0.90739
371.921,21.28496,12.12423,-1.53271,0.90699
372.521,21.3035,12.3088,-1.55368,0.9066
373.121,21.32212,12.48429,-1.58078,0.9062
373.721,21.34072,12.66511,-1.60256,0.90581
374.321,21.3594,12.846,-1.6306,0.90541
374.921,21.37795,13.02098,-1.65268,0.90501
375.521,21.3966,13.20465,-1.68092,0.90462
376.121,21.41528,13.3712,-1.70464,0.90422
376.721,21.43388,13.5381,-1.73267,0.90382
377.321,21.45243,13.6967,-1.75811,0.90342
377.921,21.47106,13.8449,-1.78714,0.90303
378.521,21.4897,13.9873,-1.81565,0.90263
379.121,21.50832,14.12325,-1.84339,0.90223
379.721,21.52704,14.24915,-1.87368,0.90183
380.321,21.5457,14.35801,-1.90044,0.90143
380.921,21.56438,14.4454,-1.93231,0.90103
381.521,21.58301,14.54635,-1.95863,0.90063
382.121,21.6017,14.62866,-1.99231,0.90023
382.721,21.62022,14.67864,-2.01861,0.89983
383.321,21.63877,14.7232,-2.05248,0.89943
383.921,21.6574,14.7439,-2.07917,0.89903
384.521,21.67613,14.74823,-2.11221,0.89863
385.121,21.69481,14.73434,-2.14,0.89822
385.721,21.71359,14.69752,-2.17258,0.89782
386.321,21.7324,14.6235,-2.20205,0.89742
386.921,21.7511,14.5252,-2.23313,0.89702
387.521,21.7698,14.42426,-2.26289,0.89661
388.121,21.7884,14.30117,-2.29152,0.89621
388.721,21.807,14.13427,-2.32245,0.8958
389.321,21.82559,13.9516,-2.3498,0.8954
389.921,21.84419,13.74925,-2.38171,0.895
390.521,21.86281,13.517,-2.40791,0.89459
391.121,21.88145,13.23666,-2.43958,0.89419
391.721,21.9001,12.94855,-2.46357,0.89378
392.321,21.91873,12.6296,-2.49336,0.89337
392.921,21.93737,12.29251,-2.51605,0.89297
393.521,21.9559,11.93184,-2.54279,0.89256
394.121,21.97447,11.55587,-2.56416,0.89215
394.721,21.99304,11.1554,-2.58792,0.89175
395.321,22.01162,10.74019,-2.60829,0.89134
395.921,22.03003,10.30189,-2.62978,0.89093
396.521,22.04853,9.8503,-2.65077,0.89052
397.121,22.06702,9.40812,-2.6696,0.89012
397.721,22.08559,8.94474,-2.6901,0.88971
398.321,22.10408,8.47868,-2.7059,0.8893
398.921,22.12271,7.99559,-2.72364,0.88889
399.521,22.14126,7.53236,-2.73534,0.88848
400.121,22.1598,7.07302,-2.75098,0.88807
400.721,22.17817,6.61803,-2.76237,0.88766
401.321,22.19661,6.17842,-2.77555,0.88725
401.921,22.21504,5.75532,-2.78586,0.88684
402.521,22.2335,5.33805,-2.79641,0.88643
403.121,22.25195,4.94934,-2.80535,0.88602
403.721,22.2704,4.57729,-2.81408,0.8856
404.321,22.28888,4.22553,-2.82216,0.88519
404.921,22.30731,3.8939,-2.82897,0.88478
405.521,22.3258,3.61669,-2.83584,0.88437
406.121,22.3442,3.33694,-2.84114,0.88395
406.721,22.3626,3.07119,-2.84797,0.88354
407.321,22.38099,2.84886,-2.85174,0.88313
407.921,22.39941,2.63827,-2.85654,0.88271
408.521,22.4178,2.44792,-2.85956,0.8823
409.121,22.4363,2.29602,-2.86296,0.88188
409.721,22.4548,2.14563,-2.86664,0.88147
410.321,22.4733,2.01701,-2.86895,0.88105
410.921,22.49183,1.89602,-2.87053,0.88064
411.521,22.51033,1.79894,-2.87261,0.88022
412.121,22.52883,1.71937,-2.87471,0.87981
412.721,22.54733,1.63731,-2.87823,0.87939
413.321,22.56583,1.55416,-2.88239,0.87897
413.921,22.5844,1.49069,-2.88561,0.87856
414.521,22.60295,1.43827,-2.88736,0.87814
415.121,22.62153,1.38151,-2.88899,0.87772
415.721,22.64015,1.32315,-2.89061,0.8773
416.321,22.65876,1.2897,-2.89288,0.87689
416.921,22.67732,1.25433,-2.89485,0.87647
417.521,22.69593,1.21478,-2.8967,0.87605
418.121,22.7145,1.18588,-2.89869,0.87563
418.721,22.73305,1.16511,-2.90119,0.87521
419.321,22.75167,1.12405,-2.90315,0.87479
419.921,22.77027,1.09012,-2.90632,0.87437
420.521,22.7889,1.05889,-2.90812,0.87395
421.121,22.80752,1.04598,-2.90972,0.87353
421.721,22.82619,1.02187,-2.91174,0.87311
422.321,22.8448,0.99784,-2.91382,0.87269
422.921,22.8634,0.96511,-2.9157,0.87227
423.521,22.8821,0.95428,-2.917,0.87185
424.121,22.9008,0.9251,-2.91872,0.87143
424.721,22.91945,0.9004,-2.92021,0.871
425.321,22.9381,0.8778,-2.92197,0.87058
425.921,22.95692,0.85361,-2.92408,0.87016
426.521,22.97561,0.84309,-2.92588,0.86974
427.121,22.9943,0.81516,-2.92754,0.86931
427.721,23.01292,0.7913,-2.92863,0.86889
428.321,23.03161,0.76856,-2.9303,0.86847
428.921,23.05034,0.74401,-2.93199,0.86804
429.521,23.06904,0.72183,-2.9341,0.86762
430.121,23.08772,0.70498,-2.93728,0.86719
430.721,23.10657,0.6799,-2.93918,0.86677
431.321,23.1253,0.67565,-2.94099,0.86634
431.921,23.14408,0.64264,-2.94281,0.86592
432.521,23.1629,0.6234,-2.94465,0.86549
433.121,23.18165,0.61125,-2.94635,0.86507
433.721,23.2004,0.58812,-2.9477,0.86464
434.321,23.2192,0.57829,-2.94865,0.86421
434.921,23.2379,0.55178,-2.95064,0.86379
435.521,23.2567,0.54163,-2.95283,0.86336
436.121,23.2755,0.51641,-2.95506,0.86293
436.721,23.29423,0.50128,-2.95656,0.8625
437.321,23.31302,0.48599,-2.95755,0.86208
437.921,23.3318,0.47117,-2.95946,0.86165
438.521,23.35056,0.45589,-2.96137,0.86122
439.121,23.36928,0.43792,-2.96319,0.86079
439.721,23.3881,0.43034,-2.96549,0.86036
440.321,23.40684,0.41797,-2.96718,0.85993
440.921,23.4256,0.41875,-2.96863,0.8595
441.521,23.4444,0.39669,-2.96965,0.85907
442.121,23.46323,0.39222,-2.97136,0.85864
442.721,23.482,0.38292,-2.97398,0.85821
443.321,23.50088,0.36697,-2.97583,0.85778
443.921,23.51975,0.35955,-2.97707,0.85735
444.521,23.53856,0.35373,-2.97826,0.85692
445.121,23.55744,0.34569,-2.97966,0.85649
445.721,23.57627,0.34526,-2.98165,0.85606
446.321,23.59512,0.34549,-2.9835,0.85563
446.921,23.61395,0.34435,-2.98523,0.85519
447.521,23.63288,0.33738,-2.98654,0.85476
448.121,23.65174,0.33539,-2.98812,0.85433
448.721,23.6706,0.3388,-2.98992,0.8539
449.321,23.68944,0.34593,-2.99081,0.85346
449.921,23.70831,0.34409,-2.99232,0.85303
450.521,23.72704,0.35009,-2.99359,0.8526
451.121,23.7459,0.3582,-2.99533,0.85216
451.721,23.7649,0.3659,-2.99688,0.85173
452.321,23.7838,0.37352,-2.99829,0.85129
452.921,23.80281,0.37518,-2.99951,0.85086
453.521,23.82187,0.38613,-3.00103,0.85042
454.121,23.84082,0.39991,-3.00267,0.84999
454.721,23.85974,0.41205,-3.00592,0.84955
455.321,23.87868,0.42533,-3.00819,0.84912
455.921,23.89761,0.44619,-3.0098,0.84868
456.521,23.91656,0.4496,-3.0115,0.84825
457.121,23.93546,0.4667,-3.01273,0.84781
457.721,23.95446,0.48805,-3.01353,0.84737
458.321,23.9735,0.50027,-3.01509,0.84694
458.921,23.99246,0.51591,-3.0165,0.8465
459.521,24.0114,0.53495,-3.01764,0.84606
460.121,24.0304,0.55339,-3.01875,0.84562
460.721,24.04935,0.56872,-3.01989,0.84518
461.321,24.06834,0.59178,-3.02097,0.84475
461.921,24.08721,0.61372,-3.02189,0.84431
462.521,24.10625,0.63701,-3.02367,0.84387
463.121,24.12525,0.66032,-3.0251,0.84343
463.721,24.14424,0.67317,-3.02612,0.84299
464.321,24.1632,0.70649,-3.0277,0.84255
464.921,24.1824,0.72434,-3.02916,0.84211
465.521,24.20134,0.75212,-3.03069,0.84167
466.121,24.22038,0.7787,-3.03192,0.84123
466.721,24.2394,0.80653,-3.03259,0.84079
467.321,24.25845,0.80744,-3.03404,0.84035
467.921,24.27743,0.84194,-3.03572,0.83991
468.521,24.2965,0.87898,-3.03725,0.83947
469.121,24.31559,0.88946,-3.04036,0.83903
469.721,24.33468,0.92361,-3.04177,0.83859
470.321,24.35369,0.94555,-3.04251,0.83815
470.921,24.3727,0.9655,-3.04418,0.8377
471.521,24.3918,0.99634,-3.04464,0.83726
472.121,24.41089,1.02136,-3.04577,0.83682
472.721,24.42994,1.04895,-3.04725,0.83638
473.321,24.44914,1.06926,-3.04874,0.83593
473.921,24.46821,1.09708,-3.04846,0.83549
474.521,24.48725,1.11274,-3.04916,0.83505
475.121,24.50633,1.1366,-3.05078,0.8346
475.721,24.5255,1.16135,-3.05268,0.83416
476.321,24.54455,1.19043,-3.05429,0.83371
476.921,24.56363,1.20934,-3.05595,0.83327
477.521,24.58275,1.21928,-3.05726,0.83283
478.121,24.60184,1.2566,-3.0585,0.83238
478.721,24.6209,1.27098,-3.05921,0.83194
479.321,24.64,1.30844,-3.06032,0.83149
479.921,24.65914,1.31643,-3.06028,0.83105
480.521,24.67822,1.33819,-3.06185,0.8306
481.121,24.69731,1.35851,-3.06266,0.83015
481.721,24.71643,1.38292,-3.06467,0.82971
482.321,24.73549,1.40004,-3.06637,0.82926
482.921,24.75459,1.42777,-3.06668,0.82881
483.521,24.7737,1.44327,-3.06791,0.82837
484.121,24.7928,1.45161,-3.06884,0.82792
484.721,24.81193,1.47819,-3.06948,0.82747
485.321,24.83109,1.48201,-3.07089,0.82703
485.921,24.85022,1.50384,-3.07086,0.82658
486.521,24.86935,1.52305,-3.07228,0.82613
487.121,24.88851,1.53517,-3.07311,0.82568
487.721,24.9076,1.55539,-3.07362,0.82523
488.321,24.9267,1.56335,-3.07521,0.82479
488.921,24.94586,1.56976,-3.07585,0.82434
489.521,24.965,1.58552,-3.07672,0.82389
490.121,24.9841,1.61615,-3.07743,0.82344
490.721,25.00316,1.63533,-3.07725,0.82299
491.321,25.02234,1.63264,-3.0774,0.82254
491.921,25.04143,1.65588,-3.07852,0.82209
492.521,25.06056,1.68135,-3.07958,0.82164
493.121,25.07977,1.69831,-3.07996,0.82119
493.721,25.09904,1.69745,-3.08139,0.82074
494.321,25.11819,1.70454,-3.08159,0.82029
494.921,25.13737,1.71579,-3.08289,0.81984
495.521,25.1566,1.72746,-3.08319,0.81939
496.121,25.17579,1.73642,-3.08425,0.81893
496.721,25.195,1.74772,-3.08536,0.81848
497.321,25.21423,1.75265,-3.08569,0.81803
497.921,25.23345,1.7614,-3.08729,0.81758
498.521,25.25265,1.76977,-3.08831,0.81713
499.121,25.2718,1.77875,-3.08911,0.81667
499.721,25.29097,1.79087,-3.09063,0.81622
500.321,25.31015,1.80229,-3.09062,0.81577
500.921,25.32913,1.80366,-3.09191,0.81532
501.521,25.3483,1.82122,-3.09187,0.81486
502.121,25.3675,1.82983,-3.09323,0.81441
502.721,25.38676,1.83163,-3.09336,0.81396
503.321,25.40599,1.85064,-3.09477,0.8135
503.921,25.42536,1.85496,-3.09468,0.81305
504.521,25.44465,1.85418,-3.0955,0.81259
505.121,25.46387,1.86238,-3.09598,0.81214
505.721,25.4831,1.86867,-3.09612,0.81169
506.321,25.50234,1.87355,-3.09759,0.81123
506.921,25.52165,1.86745,-3.09803,0.81078
507.521,25.54082,1.88364,-3.09893,0.81032
508.121,25.56007,1.88785,-3.09996,0.80986
508.721,25.57929,1.88716,-3.10066,0.80941
509.321,25.59853,1.8979,-3.10196,0.80895
509.921,25.6177,1.90824,-3.1032,0.8085
510.521,25.63692,1.90293,-3.10456,0.80804
511.121,25.65617,1.90985,-3.10596,0.80758
511.721,25.67539,1.92732,-3.10613,0.80713
512.321,25.69458,1.92151,-3.10722,0.80667
512.921,25.71379,1.91691,-3.10743,0.80621
513.521,25.73301,1.92487,-3.10885,0.80576
514.121,25.75224,1.93123,-3.10906,0.8053
514.721,25.77148,1.93729,-3.11055,0.80484
515.321,25.7908,1.93134,-3.11049,0.80438
515.921,25.81009,1.93978,-3.11181,0.80393
516.521,25.82935,1.9465,-3.11176,0.80347
517.121,25.84866,1.94616,-3.11332,0.80301
517.721,25.86794,1.94918,-3.11459,0.80255
518.321,25.88721,1.94038,-3.11474,0.80209
518.921,25.90652,1.94399,-3.11466,0.80163
519.521,25.92576,1.94431,-3.11603,0.80117
520.121,25.94501,1.95756,-3.1161,0.80072
520.721,25.9643,1.95467,-3.11644,0.80026
521.321,25.98347,1.95094,-3.11709,0.7998
521.921,26.00271,1.95561,-3.11709,0.79934
522.521,26.02199,1.95515,-3.11791,0.79888
523.121,26.04124,1.95519,-3.11871,0.79842
523.721,26.06055,1.95214,-3.11927,0.79796
524.321,26.07989,1.95349,-3.11927,0.7975
524.921,26.09918,1.95904,-3.11986,0.79704
525.521,26.11854,1.96261,-3.12062,0.79657
526.121,26.13785,1.95608,-3.12136,0.79611
526.721,26.1572,1.95883,-3.12199,0.79565
527.321,26.1765,1.95996,-3.12331,0.79519
527.921,26.1957,1.95971,-3.12348,0.79473
528.521,26.215,1.96106,-3.12461,0.79427
529.121,26.23428,1.95218,-3.12485,0.7938
529.721,26.25357,1.95572,-3.12548,0.79334
530.321,26.2729,1.9554,-3.12733,0.79288
530.921,26.29222,1.96378,-3.12751,0.79242
531.521,26.31155,1.95988,-3.12901,0.79196
532.121,26.33088,1.96077,-3.12896,0.79149
532.721,26.35016,1.96365,-3.13024,0.79103
533.321,26.36948,1.96024,-3.13025,0.79057
533.921,26.38878,1.96101,-3.13112,0.7901
534.521,26.4081,1.9575,-3.13156,0.78964
535.121,26.4274,1.95731,-3.13172,0.78918
535.721,26.44677,1.955,-3.13294,0.78871
536.321,26.4661,1.95785,-3.13283,0.78825
536.921,26.48548,1.96031,-3.13397,0.78778
537.521,26.5048,1.95929,-3.13419,0.78732
538.121,26.524,1.9572,-3.1342,0.78685
538.721,26.5433,1.95761,-3.1342,0.78639
539.321,26.56261,1.96469,-3.13552,0.78592
539.921,26.582,1.95891,-3.13439,0.78546
540.521,26.6014,1.95634,-3.13578,0.78499
541.121,26.62077,1.96424,-3.13577,0.78453
541.721,26.64015,1.95582,-3.13706,0.78406
542.321,26.65949,1.95878,-3.13703,0.7836
542.921,26.67881,1.96415,-3.13836,0.78313
543.521,26.69805,1.96678,-3.13833,0.78267
544.121,26.7173,1.96508,-3.13957,0.7822
544.721,26.73667,1.96697,-3.13971,0.78173
545.321,26.75602,1.97167,-3.14025,0.78127
545.921,26.77538,1.97534,-3.14202,0.7808
546.521,26.79487,1.97035,-3.14236,0.78033
547.121,26.8144,1.96463,-3.14344,0.77987
547.721,26.83372,1.95814,-3.14377,0.7794
548.321,26.85312,1.95797,-3.14278,0.77893
548.921,26.87254,1.94787,-3.1436,0.77846
549.521,26.8918,1.95178,-3.14375,0.778
550.121,26.91112,1.95,-3.14373,0.77753
550.721,26.9305,1.94792,-3.14514,0.77706
551.321,26.94985,1.94621,-3.14649,0.77659
551.921,26.96926,1.94932,-3.14779,0.77612
552.521,26.9887,1.94578,-3.14804,0.77566
553.121,27.00817,1.93904,-3.1493,0.77519
553.721,27.02755,1.93255,-3.14998,0.77472
554.321,27.04696,1.93423,-3.15081,0.77425
554.921,27.0663,1.92754,-3.15216,0.77378
555.521,27.0857,1.92431,-3.15339,0.77331
556.121,27.10515,1.92955,-3.15332,0.77284
556.721,27.12456,1.92019,-3.15352,0.77237
557.321,27.14392,1.90613,-3.15448,0.7719
557.921,27.16333,1.90996,-3.15325,0.77143
558.521,27.18269,1.90679,-3.15325,0.77096
559.121,27.2021,1.90529,-3.15279,0.77049
559.721,27.2215,1.90495,-3.15357,0.77002
560.321,27.24087,1.89849,-3.1552,0.76955
560.921,27.2603,1.89365,-3.15519,0.76908
561.521,27.2796,1.89004,-3.15679,0.76861
562.121,27.299,1.90237,-3.15716,0.76814
562.721,27.31843,1.89243,-3.15798,0.76767
563.321,27.33785,1.89351,-3.15846,0.7672
563.921,27.35725,1.89119,-3.15837,0.76673
564.521,27.37674,1.88685,-3.15983,0.76625
565.121,27.39616,1.88166,-3.16025,0.76578
565.721,27.41562,1.88097,-3.16161,0.76531
566.321,27.4351,1.87694,-3.16308,0.76484
566.921,27.45453,1.87547,-3.16323,0.76437
567.521,27.47382,1.87843,-3.16459,0.7639
568.121,27.4933,1.87546,-3.16453,0.76342
568.721,27.5128,1.86751,-3.16618,0.76295
569.321,27.5322,1.8714,-3.16657,0.76248
569.921,27.55173,1.85811,-3.16658,0.76201
570.521,27.57126,1.85924,-3.16656,0.76153
571.121,27.5907,1.86707,-3.16762,0.76106
571.721,27.6102,1.86669,-3.1679,0.76059
572.321,27.6297,1.85811,-3.1679,0.76011
572.921,27.64917,1.84825,-3.1679,0.75964
573.521,27.66866,1.85199,-3.16913,0.75917
574.121,27.68814,1.84968,-3.16921,0.75869
574.721,27.7076,1.84084,-3.16924,0.75822
575.321,27.7271,1.8421,-3.16991,0.75775
575.921,27.7465,1.84686,-3.17054,0.75727
576.521,27.76608,1.8402,-3.17053,0.7568
577.121,27.78555,1.83549,-3.17056,0.75632
577.721,27.805,1.82754,-3.17099,0.75585
578.321,27.8245,1.82715,-3.17186,0.75537
578.921,27.84402,1.83066,-3.17185,0.7549
579.521,27.8635,1.82853,-3.17187,0.75442
580.121,27.883,1.8235,-3.17339,0.75395
580.721,27.90255,1.82524,-3.17333,0.75347
581.321,27.922,1.82455,-3.17385,0.753
581.921,27.94163,1.82505,-3.17331,0.75252
582.521,27.96108,1.81456,-3.17333,0.75205
583.121,27.9806,1.81593,-3.17462,0.75157
583.721,28,1.82334,-3.1746,0.7511
584.321,28.01956,1.82082,-3.1746,0.75062
584.921,28.03909,1.82501,-3.17586,0.75014
585.521,28.0587,1.82506,-3.17591,0.74967
586.121,28.0782,1.81594,-3.17612,0.74919
586.721,28.0978,1.81968,-3.17704,0.74872
587.321,28.11732,1.80839,-3.17652,0.74824
587.921,28.13685,1.81475,-3.17775,0.74776
588.521,28.1564,1.81792,-3.17788,0.74729
589.121,28.17595,1.80702,-3.1778,0.74681
589.721,28.1955,1.81094,-3.17915,0.74633
590.321,28.2151,1.81442,-3.1792,0.74586
590.921,28.2347,1.80677,-3.17912,0.74538
591.521,28.2543,1.81319,-3.18046,0.7449
592.121,28.27389,1.8087,-3.18072,0.74442
592.721,28.2934,1.81288,-3.1822,0.74395
593.321,28.31301,1.80788,-3.18357,0.74347
593.921,28.3326,1.81921,-3.18459,0.74299
594.521,28.3522,1.81453,-3.18459,0.74251
595.121,28.37177,1.81378,-3.18471,0.74203
595.721,28.3914,1.80643,-3.18591,0.74156
596.321,28.4109,1.80224,-3.18596,0.74108
596.921,28.43058,1.80693,-3.18734,0.7406
597.521,28.45015,1.80498,-3.18767,0.74012
598.121,28.46973,1.80715,-3.18887,0.73964
598.721,28.48935,1.80964,-3.18884,0.73916
599.321,28.5089,1.80417,-3.19018,0.73869
599.921,28.52856,1.80868,-3.19019,0.73821
600.521,28.54819,1.80858,-3.19026,0.73773
601.121,28.56785,1.80919,-3.19,0.73725
601.721,28.58745,1.80424,-3.19026,0.73677
602.321,28.6069,1.8039,-3.19021,0.73629
602.921,28.62635,1.80098,-3.19079,0.73581
603.521,28.64585,1.80154,-3.19165,0.73533
604.121,28.6654,1.79781,-3.19212,0.73485
604.721,28.6851,1.79908,-3.19294,0.73437
605.321,28.7049,1.80137,-3.19303,0.73389
605.921,28.7247,1.79973,-3.19399,0.73341
606.521,28.7444,1.79528,-3.19415,0.73293
607.121,28.7641,1.79891,-3.19529,0.73245
607.721,28.7837,1.7982,-3.19524,0.73197
608.321,28.8034,1.80165,-3.19527,0.73149
608.921,28.82302,1.79317,-3.19664,0.73101
609.521,28.84269,1.79488,-3.19656,0.73053
610.121,28.8624,1.79933,-3.19656,0.73005
610.721,28.88205,1.79154,-3.1967,0.72957
611.321,28.9017,1.79715,-3.19788,0.72909
611.921,28.92131,1.79999,-3.19787,0.72861
612.521,28.941,1.80039,-3.19745,0.72812
613.121,28.9606,1.79086,-3.19656,0.72764
613.721,28.98025,1.78906,-3.19788,0.72716
614.321,28.9999,1.79228,-3.19787,0.72668
614.921,29.0195,1.78879,-3.19926,0.7262
615.521,29.0392,1.79476,-3.19928,0.72572
616.121,29.0589,1.79759,-3.20053,0.72524
616.721,29.07855,1.80607,-3.20061,0.72475
617.321,29.0982,1.80971,-3.20102,0.72427
617.921,29.11781,1.7941,-3.20333,0.72379
618.521,29.1375,1.80545,-3.20326,0.72331
619.121,29.15718,1.80968,-3.20326,0.72283
619.721,29.1769,1.81001,-3.20314,0.72234
620.321,29.1966,1.80675,-3.20312,0.72186
620.921,29.2164,1.80792,-3.20248,0.72138
621.521,29.23617,1.80961,-3.20295,0.7209
622.121,29.25587,1.80521,-3.20312,0.72041
622.721,29.27559,1.80461,-3.20304,0.71993
623.321,29.29529,1.80668,-3.2044,0.71945
623.921,29.315,1.80459,-3.20448,0.71897
624.521,29.3347,1.80342,-3.20489,0.71848
625.121,29.35435,1.80651,-3.20579,0.718
625.721,29.3741,1.8078,-3.20579,0.71752
626.321,29.39375,1.81683,-3.20596,0.71703
626.921,29.41344,1.81263,-3.20715,0.71655
627.521,29.43311,1.80323,-3.2071,0.71607
628.121,29.4528,1.8061,-3.2071,0.71558
628.721,29.4725,1.83241,-3.20711,0.7151
629.321,29.4923,1.82504,-3.20862,0.71462
629.921,29.51203,1.81763,-3.20861,0.71413
630.521,29.53182,1.8251,-3.20988,0.71365
631.121,29.55155,1.83338,-3.20984,0.71316
631.721,29.57129,1.83075,-3.20984,0.71268
632.321,29.59105,1.83191,-3.20983,0.7122
632.921,29.61078,1.83103,-3.21057,0.71171
633.521,29.6304,1.83323,-3.21116,0.71123
634.121,29.65018,1.84431,-3.21116,0.71074
634.721,29.66988,1.84012,-3.21214,0.71026
635.321,29.6896,1.84139,-3.21249,0.70977
635.921,29.70942,1.84255,-3.21341,0.70929
636.521,29.7291,1.84448,-3.2138,0.7088
637.121,29.74881,1.84928,-3.21467,0.70832
637.721,29.76855,1.85396,-3.21524,0.70784
638.321,29.78838,1.8438,-3.21606,0.70735
638.921,29.80815,1.8434,-3.21654,0.70687
639.521,29.82807,1.83624,-3.21654,0.70638
640.121,29.8478,1.83777,-3.21656,0.7059
640.721,29.86757,1.84324,-3.21731,0.70541
641.321,29.88731,1.8434,-3.21833,0.70492
641.921,29.90708,1.8403,-3.21885,0.70444
642.521,29.92683,1.84838,-3.2199,0.70395
643.121,29.9466,1.84995,-3.22014,0.70347
643.721,29.9663,1.84154,-3.22016,0.70298
644.321,29.986,1.84545,-3.22016,0.7025
644.721,29.9991,1.84836,-3.22016,0.70217