File: 01_Data/Masonite_Board/STA/N2/30K_min/Masonite_STA_N2_30KData_222706_R1.csv
##Temp./Â°C,Time/min,DSC(subtr.2)/mW,Mass loss(subtr.2)/mg,Sensit./(uV/mW)
48.482,10.01,0.05211658,0.01482,1.05402
49.082,10.52853,0.1925,0.01620917,1.0539
49.682,10.65287,0.31816,0.01689863,1.05378
50.282,10.7386,0.4477,0.01628174,1.05365
50.882,10.80815,0.54145,0.01601786,1.05353
51.482,10.8681,0.65194,0.01850455,1.05341
52.082,10.92116,0.7503,0.01736183,1.05328
52.682,10.96958,0.83581,0.01867975,1.05316
53.282,11.01473,0.93022,0.01717713,1.05303
53.882,11.05671,1.00189,0.01669478,1.0529
54.482,11.096,1.07411,0.01797088,1.05278
55.082,11.13359,1.15435,0.0195169,1.05265
55.682,11.1692,1.2193,0.01806014,1.05252
56.282,11.20378,1.28623,0.01796224,1.05239
56.882,11.2378,1.35103,0.01786213,1.05226
57.482,11.2705,1.41192,0.01768794,1.05213
58.082,11.30212,1.47953,0.018288,1.052
58.682,11.33271,1.53839,0.01731292,1.05187
59.282,11.3626,1.58567,0.01700079,1.05173
59.882,11.39188,1.64342,0.01783282,1.0516
60.482,11.42046,1.69999,0.01690564,1.05147
61.082,11.44846,1.75448,0.01784948,1.05133
61.682,11.47602,1.80103,0.01802892,1.0512
62.282,11.5032,1.8567,0.01840263,1.05106
62.882,11.52997,1.90344,0.01822063,1.05092
63.482,11.5561,1.94864,0.01818128,1.05079
64.082,11.58184,2.00239,0.01691652,1.05065
64.682,11.60741,2.05268,0.01671668,1.05051
65.282,11.63273,2.08946,0.01657229,1.05037
65.882,11.65788,2.1352,0.0166708,1.05023
66.482,11.68268,2.17964,0.0178148,1.05009
67.082,11.70712,2.21202,0.01794107,1.04995
67.682,11.73119,2.25352,0.01837579,1.04981
68.282,11.75504,2.29296,0.01893343,1.04967
68.882,11.7788,2.32837,0.01888287,1.04952
69.482,11.80242,2.37365,0.01838559,1.04938
70.082,11.826,2.40457,0.01812408,1.04923
70.682,11.84938,2.45176,0.01772206,1.04909
71.282,11.8725,2.48172,0.0175523,1.04894
71.882,11.89557,2.52628,0.01779502,1.0488
72.482,11.91849,2.5672,0.01669428,1.04865
73.082,11.9413,2.59853,0.01580252,1.0485
73.682,11.964,2.62502,0.01503501,1.04836
74.282,11.98652,2.65666,0.01514722,1.04821
74.882,12.00891,2.68079,0.01524336,1.04806
75.482,12.03118,2.71922,0.01579994,1.04791
76.082,12.05337,2.76012,0.01638319,1.04776
76.682,12.0755,2.78859,0.01604658,1.04761
77.282,12.09752,2.81179,0.01724268,1.04745
77.882,12.11951,2.84179,0.01697441,1.0473
78.482,12.1413,2.87577,0.01637714,1.04715
79.082,12.163,2.90183,0.01696706,1.04699
79.682,12.18475,2.92203,0.01642914,1.04684
80.282,12.20635,2.95628,0.01699427,1.04668
80.882,12.22798,2.99032,0.01602281,1.04653
81.482,12.2495,3.0204,0.01714431,1.04637
82.082,12.27086,3.04286,0.01596035,1.04621
82.682,12.29214,3.06657,0.01602756,1.04606
83.282,12.31334,3.09922,0.01573759,1.0459
83.882,12.33452,3.12111,0.01551711,1.04574
84.482,12.3557,3.13978,0.01668362,1.04558
85.082,12.37685,3.16204,0.01572071,1.04542
85.682,12.3979,3.18891,0.01629327,1.04526
86.282,12.41888,3.2116,0.01567036,1.0451
86.882,12.43977,3.24504,0.01568646,1.04494
87.482,12.46064,3.26948,0.01465954,1.04477
88.082,12.4815,3.28087,0.01485235,1.04461
88.682,12.50225,3.29389,0.01572211,1.04445
89.282,12.52299,3.3123,0.01454596,1.04428
89.882,12.5436,3.33875,0.01587136,1.04412
90.482,12.56418,3.35855,0.01447882,1.04395
91.082,12.58488,3.37263,0.01438072,1.04378
91.682,12.60543,3.39237,0.01430329,1.04362
92.282,12.62588,3.41083,0.01299056,1.04345
92.882,12.6465,3.42679,0.01326102,1.04328
93.482,12.66686,3.44122,0.01315265,1.04311
94.082,12.68709,3.4532,0.01311686,1.04294
94.682,12.70753,3.46849,0.01200995,1.04277
95.282,12.72783,3.48781,0.01310766,1.0426
95.882,12.74812,3.48752,0.01306293,1.04243
96.482,12.76855,3.50334,0.01306007,1.04226
97.082,12.78888,3.52354,0.01305905,1.04208
97.682,12.80919,3.52729,0.01279338,1.04191
98.282,12.82952,3.53933,0.01173301,1.04174
98.882,12.8498,3.54666,0.01174442,1.04156
99.482,12.86992,3.55539,0.01043205,1.04139
100.082,12.88997,3.55891,0.01042839,1.04121
100.682,12.9099,3.57048,0.01174936,1.04103
101.282,12.93009,3.56898,0.01175148,1.04086
101.882,12.95025,3.58002,0.01073981,1.04068
102.482,12.9704,3.59657,0.01043074,1.0405
103.082,12.99087,3.59779,0.01043996,1.04032
103.682,13.01105,3.59718,0.01145133,1.04014
104.282,13.0312,3.61066,0.01142401,1.03996
104.882,13.05129,3.6109,0.01097118,1.03978
105.482,13.0714,3.59948,0.01011595,1.0396
106.082,13.09142,3.60924,0.01009169,1.03942
106.682,13.1115,3.61782,0.0104532,1.03923
107.282,13.13154,3.6194,0.0104242,1.03905
107.882,13.1516,3.61748,0.01031592,1.03887
108.482,13.1717,3.61464,0.009104886,1.03868
109.082,13.1917,3.62251,0.009111922,1.0385
109.682,13.21175,3.62455,0.009143231,1.03831
110.282,13.23182,3.62602,0.008000591,1.03813
110.882,13.2518,3.62481,0.007929617,1.03794
111.482,13.2717,3.62897,0.009115534,1.03775
112.082,13.29164,3.63919,0.009110387,1.03756
112.682,13.31155,3.64221,0.009110027,1.03737
113.282,13.33155,3.64152,0.009110001,1.03718
113.882,13.3516,3.64938,0.00910999,1.03699
114.482,13.3716,3.64787,0.009109854,1.0368
115.082,13.3915,3.65017,0.009107997,1.03661
115.682,13.4114,3.6592,0.009570017,1.03642
116.282,13.43121,3.66634,0.01041676,1.03623
116.882,13.451,3.67522,0.01000457,1.03604
117.482,13.47091,3.68423,0.009121703,1.03584
118.082,13.49066,3.67132,0.009110649,1.03565
118.682,13.51053,3.67555,0.009110041,1.03545
119.282,13.53041,3.68323,0.009110036,1.03526
119.882,13.55025,3.68124,0.009110285,1.03506
120.482,13.57005,3.68617,0.009110792,1.03487
121.082,13.58995,3.69575,0.008124011,1.03467
121.682,13.6097,3.6896,0.00778965,1.03447
122.282,13.6294,3.6979,0.00778995,1.03427
122.882,13.64909,3.69315,0.007789995,1.03407
123.482,13.66876,3.69793,0.00779,1.03387
124.082,13.68844,3.69892,0.00779,1.03367
124.682,13.7081,3.70411,0.007790008,1.03347
125.282,13.7278,3.70018,0.007790114,1.03327
125.882,13.74748,3.69687,0.00779169,1.03307
126.482,13.76719,3.7014,0.00793692,1.03287
127.082,13.78684,3.70543,0.009171933,1.03266
127.682,13.8064,3.70107,0.009114726,1.03246
128.282,13.82598,3.70038,0.009106487,1.03225
128.882,13.84551,3.7053,0.00905646,1.03205
129.482,13.8651,3.71158,0.008136599,1.03184
130.082,13.8846,3.70858,0.006820957,1.03164
130.682,13.90417,3.71693,0.006801563,1.03143
131.282,13.9237,3.719,0.00680011,1.03122
131.882,13.94312,3.71174,0.006800011,1.03102
132.482,13.9625,3.71307,0.00680004,1.03081
133.082,13.9819,3.72375,0.006800378,1.0306
133.682,14.0013,3.72449,0.006803356,1.03039
134.282,14.02067,3.72791,0.00682275,1.03018
134.882,14.04005,3.73258,0.008121635,1.02997
135.482,14.05945,3.72817,0.008118676,1.02976
136.082,14.07881,3.72644,0.008119505,1.02954
136.682,14.09813,3.74045,0.008114644,1.02933
137.282,14.1174,3.74741,0.00803303,1.02912
137.882,14.1367,3.75052,0.009399871,1.0289
138.482,14.1559,3.75431,0.009428428,1.02869
139.082,14.17516,3.75664,0.009429873,1.02848
139.682,14.1945,3.76033,0.009429988,1.02826
140.282,14.21367,3.76958,0.00942997,1.02804
140.882,14.23289,3.7649,0.009429711,1.02783
141.482,14.2521,3.77168,0.009427079,1.02761
142.082,14.2713,3.78377,0.009405223,1.02739
142.682,14.2905,3.7874,0.00876397,1.02717
143.282,14.3097,3.79763,0.008765406,1.02695
143.882,14.32877,3.80635,0.008119305,1.02673
144.482,14.3478,3.81062,0.00916367,1.02651
145.082,14.3668,3.81489,0.0091159,1.02629
145.682,14.3857,3.8365,0.00911054,1.02607
146.282,14.40479,3.83586,0.009110045,1.02585
146.882,14.42375,3.84576,0.009110006,1.02563
147.482,14.4429,3.84684,0.00911003,1.0254
148.082,14.46205,3.85402,0.009110271,1.02518
148.682,14.4812,3.87129,0.009112084,1.02496
149.282,14.5002,3.87813,0.00911344,1.02473
149.882,14.51925,3.88415,0.009444735,1.02451
150.482,14.5382,3.87998,0.009440916,1.02428
151.082,14.55711,3.89558,0.00944011,1.02405
151.682,14.57605,3.89649,0.009440011,1.02383
152.282,14.59505,3.90908,0.009440001,1.0236
152.882,14.61401,3.92237,0.00944,1.02337
153.482,14.633,3.9322,0.00944,1.02314
154.082,14.65191,3.94242,0.00944,1.02291
154.682,14.6709,3.95086,0.00944,1.02268
155.282,14.6898,3.96145,0.00944,1.02245
155.882,14.70871,3.96872,0.009440001,1.02222
156.482,14.7276,3.97695,0.009440015,1.02199
157.082,14.7464,3.97851,0.009440232,1.02176
157.682,14.76529,3.99237,0.009443111,1.02152
158.282,14.7841,4.01387,0.009476518,1.02129
158.882,14.80294,4.01416,0.00916266,1.02106
159.482,14.82174,4.01278,0.00943105,1.02082
160.082,14.84041,4.02972,0.009439795,1.02059
160.682,14.8592,4.04258,0.009440192,1.02035
161.282,14.878,4.04839,0.009444132,1.02012
161.882,14.89674,4.05476,0.009510279,1.01988
162.482,14.91554,4.06302,0.008719031,1.01964
163.082,14.9345,4.0707,0.008775021,1.0194
163.682,14.9533,4.07855,0.008779637,1.01917
164.282,14.972,4.09038,0.008779978,1.01893
164.882,14.9907,4.09518,0.008779999,1.01869
165.482,15.0095,4.09773,0.00878,1.01845
166.082,15.0281,4.10504,0.00878,1.01821
166.682,15.04676,4.12452,0.00878,1.01797
167.282,15.0656,4.13802,0.00878,1.01772
167.882,15.08424,4.14415,0.00878,1.01748
168.482,15.10295,4.15258,0.00878,1.01724
169.082,15.12169,4.16483,0.00878,1.017
169.682,15.1404,4.17606,0.00878,1.01675
170.282,15.15911,4.1872,0.00878,1.01651
170.882,15.1778,4.19642,0.00878,1.01626
171.482,15.19646,4.20096,0.00878,1.01602
172.082,15.2152,4.21792,0.00878,1.01577
172.682,15.23373,4.22611,0.00878,1.01552
173.282,15.2524,4.23329,0.00878,1.01528
173.882,15.2711,4.2461,0.00878,1.01503
174.482,15.2897,4.25312,0.00878,1.01478
175.082,15.30829,4.26807,0.00878001,1.01453
175.682,15.327,4.2769,0.008780255,1.01428
176.282,15.34556,4.28877,0.008783645,1.01403
176.882,15.3641,4.30198,0.0088217,1.01378
177.482,15.38256,4.31249,0.007908228,1.01353
178.082,15.4009,4.31482,0.007466295,1.01328
178.682,15.4193,4.3282,0.007459595,1.01303
179.282,15.43769,4.33902,0.007461505,1.01277
179.882,15.456,4.34991,0.007486124,1.01252
180.482,15.47445,4.35977,0.00695161,1.01227
181.082,15.493,4.36707,0.00680675,1.01201
181.682,15.5114,4.37258,0.006800324,1.01176
182.282,15.5299,4.38146,0.0068,1.0115
182.882,15.5486,4.39138,0.00680032,1.01125
183.482,15.5672,4.40207,0.006806492,1.01099
184.082,15.58584,4.42008,0.006962037,1.01073
184.682,15.6044,4.43276,0.00748556,1.01047
185.282,15.6231,4.43784,0.00746184,1.01022
185.882,15.6415,4.44211,0.00746009,1.00996
186.482,15.65991,4.45275,0.00746,1.0097
187.082,15.6784,4.46694,0.007460001,1.00944
187.682,15.6967,4.47545,0.007460035,1.00918
188.282,15.715,4.48306,0.00746047,1.00892
188.882,15.73339,4.50043,0.007464715,1.00866
189.482,15.75174,4.51216,0.007494221,1.00839
190.082,15.77009,4.52028,0.008121337,1.00813
190.682,15.78841,4.53091,0.00811789,1.00787
191.282,15.80675,4.54338,0.008119669,1.00761
191.882,15.82499,4.55101,0.00811992,1.00734
192.482,15.84329,4.56618,0.008119541,1.00708
193.082,15.86159,4.57906,0.008117105,1.00681
193.682,15.8799,4.59258,0.008122121,1.00655
194.282,15.89825,4.59116,0.006328659,1.00628
194.882,15.91659,4.60595,0.005808236,1.00601
195.482,15.93491,4.6181,0.00580985,1.00575
196.082,15.95324,4.62743,0.00581025,1.00548
196.682,15.97158,4.64201,0.0058117,1.00521
197.282,15.9899,4.65371,0.00580875,1.00494
197.882,16.0082,4.66431,0.00522757,1.00467
198.482,16.0265,4.68336,0.005528384,1.0044
199.082,16.04469,4.69297,0.00549379,1.00413
199.682,16.0629,4.70128,0.005490269,1.00386
200.282,16.0811,4.70877,0.00549001,1.00359
200.882,16.09929,4.71823,0.00549,1.00332
201.482,16.11756,4.73622,0.00549,1.00304
202.082,16.13563,4.74587,0.00548999,1.00277
202.682,16.15384,4.75383,0.005489896,1.0025
203.282,16.17212,4.76959,0.005489216,1.00222
203.882,16.19037,4.78169,0.005488344,1.00195
204.482,16.20853,4.79671,0.00555488,1.00167
205.082,16.22692,4.80292,0.0041947,1.0014
205.682,16.2452,4.81424,0.004158408,1.00112
206.282,16.26335,4.82325,0.00401407,1.00085
206.882,16.2816,4.84486,0.002813703,1.00057
207.482,16.2999,4.84472,0.00285027,1.00029
208.082,16.31811,4.86073,0.002848925,1.00001
208.682,16.33634,4.87581,0.002824065,0.99974
209.282,16.35454,4.88127,0.00244176,0.99946
209.882,16.3727,4.88992,0.001532535,0.99918
210.482,16.39091,4.90844,0.001567737,0.9989
211.082,16.40909,4.91913,0.002509665,0.99862
211.682,16.42728,4.93145,0.002515885,0.99833
212.282,16.4454,4.93428,0.00249432,0.99805
212.882,16.4636,4.9439,0.002208095,0.99777
213.482,16.48188,4.95773,0.001194533,0.99749
214.082,16.50011,4.96848,0.001199968,0.9972
214.682,16.5183,4.9876,0.001200046,0.99692
215.282,16.53659,5.00095,0.001200042,0.99664
215.882,16.55479,5.01465,0.00120045,0.99635
216.482,16.57292,5.02216,0.00120406,0.99607
217.082,16.59111,5.02962,0.001219611,0.99578
217.682,16.6093,5.04331,0.0002820176,0.99549
218.282,16.62732,5.05955,-0.0001266389,0.99521
218.882,16.64546,5.06784,-0.0004072814,0.99492
219.482,16.66362,5.07549,-0.00148199,0.99463
220.082,16.68178,5.08602,-0.00143285,0.99434
220.682,16.69991,5.10148,-0.001429959,0.99406
221.282,16.71816,5.12321,-0.00142467,0.99377
221.882,16.73627,5.12145,-0.002430054,0.99348
222.482,16.75447,5.14035,-0.00272465,0.99319
223.082,16.77263,5.14387,-0.002748809,0.99289
223.682,16.7908,5.15683,-0.002751827,0.9926
224.282,16.8089,5.17724,-0.002721958,0.99231
224.882,16.82705,5.18896,-0.003937378,0.99202
225.482,16.8451,5.20334,-0.004050501,0.99173
226.082,16.8632,5.20466,-0.004006562,0.99143
226.682,16.88141,5.21645,-0.005151727,0.99114
227.282,16.89958,5.23273,-0.005386438,0.99085
227.882,16.91775,5.24984,-0.00615166,0.99055
228.482,16.93593,5.25109,-0.00670575,0.99026
229.082,16.95411,5.26946,-0.006701994,0.98996
229.682,16.97222,5.28826,-0.00671129,0.98966
230.282,16.9903,5.29163,-0.006717936,0.98937
230.882,17.00826,5.30362,-0.00800925,0.98907
231.482,17.02635,5.31032,-0.00801136,0.98877
232.082,17.04448,5.3182,-0.008814582,0.98847
232.682,17.06265,5.32675,-0.009307289,0.98817
233.282,17.08079,5.33978,-0.009333083,0.98788
233.882,17.09907,5.35643,-0.01058855,0.98758
234.482,17.11722,5.36184,-0.01063547,0.98728
235.082,17.1354,5.37658,-0.01065014,0.98697
235.682,17.15342,5.39223,-0.01068119,0.98667
236.282,17.17155,5.40749,-0.01203643,0.98637
236.882,17.1896,5.41993,-0.01196818,0.98607
237.482,17.20756,5.41909,-0.01196308,0.98577
238.082,17.22565,5.42866,-0.01290293,0.98546
238.682,17.2438,5.44071,-0.0132834,0.98516
239.282,17.26192,5.45018,-0.01342977,0.98486
239.882,17.28011,5.46939,-0.01460068,0.98455
240.482,17.29832,5.47897,-0.01456348,0.98425
241.082,17.3165,5.49448,-0.01582009,0.98394
241.682,17.3346,5.50054,-0.01592847,0.98364
242.282,17.3527,5.5078,-0.01719817,0.98333
242.882,17.37086,5.51912,-0.01735312,0.98302
243.482,17.38907,5.52009,-0.01730526,0.98272
244.082,17.4072,5.54208,-0.01864809,0.98241
244.682,17.42526,5.55038,-0.01866537,0.9821
245.282,17.44335,5.55856,-0.01864133,0.98179
245.882,17.46146,5.56854,-0.01947373,0.98148
246.482,17.47951,5.57635,-0.0201758,0.98117
247.082,17.49758,5.59355,-0.0214483,0.98086
247.682,17.51569,5.60081,-0.02150375,0.98055
248.282,17.53378,5.61728,-0.02284661,0.98024
248.882,17.55188,5.62366,-0.02286826,0.97993
249.482,17.56994,5.62537,-0.02414977,0.97962
250.082,17.58811,5.63477,-0.02462929,0.9793
250.682,17.60623,5.64171,-0.02569118,0.97899
251.282,17.62432,5.65405,-0.02694111,0.97868
251.882,17.64237,5.67128,-0.02752454,0.97836
252.482,17.66052,5.68218,-0.02888395,0.97805
253.082,17.67855,5.683,-0.03027926,0.97773
253.682,17.6966,5.69717,-0.03033548,0.97742
254.282,17.71453,5.69852,-0.03142795,0.9771
254.882,17.7326,5.71652,-0.03169507,0.97678
255.482,17.75064,5.71711,-0.03245641,0.97647
256.082,17.76868,5.72483,-0.03321894,0.97615
256.682,17.78685,5.73209,-0.03495003,0.97583
257.282,17.8051,5.74235,-0.03605087,0.97551
257.882,17.82327,5.74483,-0.03663436,0.9752
258.482,17.84135,5.75756,-0.03837302,0.97488
259.082,17.8596,5.77041,-0.03796055,0.97456
259.682,17.87764,5.78003,-0.03879868,0.97424
260.282,17.89572,5.79464,-0.04044885,0.97392
260.882,17.91381,5.80404,-0.04139973,0.9736
261.482,17.9319,5.81027,-0.04232058,0.97327
262.082,17.94995,5.81837,-0.04401781,0.97295
262.682,17.96791,5.82555,-0.04538312,0.97263
263.282,17.98604,5.83129,-0.04620241,0.97231
263.882,18.0041,5.83897,-0.04756866,0.97198
264.482,18.0222,5.83917,-0.04909486,0.97166
265.082,18.0402,5.84478,-0.0507362,0.97134
265.682,18.05837,5.85817,-0.05261985,0.97101
266.282,18.07643,5.86841,-0.0527598,0.97069
266.882,18.09444,5.88363,-0.0543747,0.97036
267.482,18.11251,5.88366,-0.05564235,0.97004
268.082,18.13056,5.88486,-0.0569378,0.96971
268.682,18.14866,5.89402,-0.05873421,0.96938
269.282,18.16667,5.897,-0.06042789,0.96905
269.882,18.18473,5.91199,-0.06228598,0.96873
270.482,18.20284,5.91883,-0.06413542,0.9684
271.082,18.22097,5.92689,-0.06596175,0.96807
271.682,18.23904,5.93529,-0.06757547,0.96774
272.282,18.2572,5.93677,-0.06921075,0.96741
272.882,18.27531,5.94227,-0.07087708,0.96708
273.482,18.29338,5.95213,-0.07277979,0.96675
274.082,18.3114,5.95661,-0.074862,0.96642
274.682,18.32949,5.96229,-0.07691449,0.96609
275.282,18.34759,5.97118,-0.07896316,0.96576
275.882,18.3657,5.9839,-0.08135202,0.96542
276.482,18.38374,5.9892,-0.08372874,0.96509
277.082,18.40186,5.98299,-0.08588339,0.96476
277.682,18.41996,5.99246,-0.08771561,0.96443
278.282,18.43808,5.99044,-0.08943664,0.96409
278.882,18.4562,5.99815,-0.09147881,0.96376
279.482,18.47437,5.99697,-0.09369563,0.96342
280.082,18.49246,6.00453,-0.0968437,0.96309
280.682,18.51059,6.00851,-0.10022,0.96275
281.282,18.52865,6.02051,-0.10261,0.96241
281.882,18.54675,6.02143,-0.10541,0.96208
282.482,18.56483,6.02736,-0.10875,0.96174
283.082,18.58288,6.03165,-0.11126,0.9614
283.682,18.60096,6.03316,-0.11347,0.96107
284.282,18.6191,6.04057,-0.11606,0.96073
284.882,18.6372,6.04019,-0.11965,0.96039
285.482,18.65535,6.04686,-0.12372,0.96005
286.082,18.67353,6.04547,-0.12705,0.95971
286.682,18.69163,6.04637,-0.13051,0.95937
287.282,18.7097,6.05077,-0.13399,0.95903
287.882,18.7278,6.04752,-0.1368,0.95869
288.482,18.74594,6.04347,-0.14053,0.95835
289.082,18.76406,6.04834,-0.1446,0.95801
289.682,18.78226,6.05202,-0.14762,0.95766
290.282,18.8004,6.05039,-0.15084,0.95732
290.882,18.8185,6.04958,-0.15513,0.95698
291.482,18.83662,6.04882,-0.15955,0.95663
292.082,18.85472,6.04662,-0.16364,0.95629
292.682,18.87278,6.05145,-0.168,0.95595
293.282,18.89091,6.04054,-0.17192,0.9556
293.882,18.90905,6.04674,-0.17684,0.95526
294.482,18.92718,6.04816,-0.18112,0.95491
295.082,18.9453,6.0443,-0.18671,0.95456
295.682,18.96347,6.04662,-0.19115,0.95422
296.282,18.98163,6.04254,-0.19617,0.95387
296.882,18.99975,6.03394,-0.20095,0.95352
297.482,19.01785,6.02923,-0.20593,0.95318
298.082,19.03596,6.02993,-0.21115,0.95283
298.682,19.05406,6.01756,-0.21568,0.95248
299.282,19.07206,6.01559,-0.22182,0.95213
299.882,19.0902,6.01029,-0.22688,0.95178
300.482,19.10835,6.00478,-0.23306,0.95143
301.082,19.12646,5.99898,-0.23724,0.95108
301.682,19.14462,5.98518,-0.24333,0.95073
302.282,19.1629,5.97306,-0.24828,0.95038
302.882,19.18095,5.96993,-0.25396,0.95003
303.482,19.19913,5.96084,-0.26095,0.94968
304.082,19.21726,5.95119,-0.26782,0.94932
304.682,19.23544,5.94301,-0.27495,0.94897
305.282,19.25362,5.9313,-0.28061,0.94862
305.882,19.27177,5.91999,-0.28744,0.94826
306.482,19.28989,5.92067,-0.29308,0.94791
307.082,19.30805,5.89664,-0.30059,0.94756
307.682,19.32616,5.89099,-0.30664,0.9472
308.282,19.3443,5.88059,-0.314,0.94685
308.882,19.3624,5.86698,-0.32046,0.94649
309.482,19.38048,5.84911,-0.32736,0.94613
310.082,19.39851,5.82494,-0.33404,0.94578
310.682,19.41658,5.8253,-0.34075,0.94542
311.282,19.43459,5.81357,-0.34823,0.94506
311.882,19.45271,5.79968,-0.35365,0.94471
312.482,19.47091,5.78955,-0.36132,0.94435
313.082,19.48921,5.77227,-0.36737,0.94399
313.682,19.50747,5.75393,-0.37562,0.94363
314.282,19.52577,5.74603,-0.38245,0.94327
314.882,19.54405,5.72673,-0.3904,0.94291
315.482,19.56221,5.71347,-0.3972,0.94255
316.082,19.58033,5.7078,-0.40463,0.94219
316.682,19.5985,5.69889,-0.41288,0.94183
317.282,19.61671,5.6879,-0.41991,0.94147
317.882,19.6349,5.67715,-0.42811,0.94111
318.482,19.65304,5.67128,-0.43479,0.94075
319.082,19.67129,5.66017,-0.44338,0.94038
319.682,19.6895,5.65156,-0.44967,0.94002
320.282,19.70769,5.64934,-0.45894,0.93966
320.882,19.7259,5.6361,-0.46583,0.93929
321.482,19.74411,5.63264,-0.47385,0.93893
322.082,19.7623,5.6269,-0.48063,0.93857
322.682,19.78043,5.62074,-0.48764,0.9382
323.282,19.79861,5.61755,-0.49509,0.93784
323.882,19.81682,5.62027,-0.5025,0.93747
324.482,19.8351,5.61862,-0.51086,0.9371
325.082,19.8533,5.62236,-0.51725,0.93674
325.682,19.87153,5.62159,-0.52559,0.93637
326.282,19.88982,5.61521,-0.53217,0.936
326.882,19.908,5.63181,-0.54056,0.93564
327.482,19.9263,5.63317,-0.54889,0.93527
328.082,19.94446,5.63611,-0.557,0.9349
328.682,19.96271,5.65303,-0.56416,0.93453
329.282,19.9809,5.65248,-0.57187,0.93416
329.882,19.99921,5.65307,-0.57983,0.93379
330.482,20.01744,5.66249,-0.58702,0.93342
331.082,20.03575,5.66926,-0.59538,0.93305
331.682,20.054,5.68857,-0.60247,0.93268
332.282,20.0723,5.70888,-0.61186,0.93231
332.882,20.09056,5.71384,-0.61921,0.93194
333.482,20.1088,5.73812,-0.62829,0.93157
334.082,20.12707,5.76121,-0.63519,0.9312
334.682,20.14536,5.77517,-0.64387,0.93082
335.282,20.16362,5.79766,-0.65146,0.93045
335.882,20.1819,5.81422,-0.65991,0.93008
336.482,20.2002,5.84153,-0.66767,0.9297
337.082,20.2185,5.86408,-0.67551,0.92933
337.682,20.23675,5.88687,-0.68418,0.92896
338.282,20.25506,5.91548,-0.69219,0.92858
338.882,20.2734,5.95077,-0.70211,0.92821
339.482,20.2917,5.98106,-0.70954,0.92783
340.082,20.31005,6.00765,-0.7191,0.92746
340.682,20.32841,6.03972,-0.72648,0.92708
341.282,20.34669,6.0795,-0.73628,0.9267
341.882,20.36506,6.11675,-0.74416,0.92633
342.482,20.38336,6.156,-0.75336,0.92595
343.082,20.40164,6.19093,-0.76194,0.92557
343.682,20.42,6.23988,-0.77132,0.92519
344.282,20.43835,6.28723,-0.7813,0.92481
344.882,20.45669,6.32616,-0.79031,0.92443
345.482,20.4751,6.37263,-0.80052,0.92406
346.082,20.4935,6.42979,-0.80915,0.92368
346.682,20.51181,6.48387,-0.81999,0.9233
347.282,20.53001,6.53641,-0.82832,0.92292
347.882,20.54832,6.59404,-0.83931,0.92254
348.482,20.5667,6.66085,-0.84831,0.92215
349.082,20.58503,6.73054,-0.85975,0.92177
349.682,20.60344,6.79081,-0.86943,0.92139
350.282,20.622,6.84951,-0.8803,0.92101
350.882,20.6404,6.92883,-0.89087,0.92063
351.482,20.65879,7.00881,-0.90178,0.92024
352.082,20.6772,7.08596,-0.91378,0.91986
352.682,20.69565,7.16598,-0.92476,0.91948
353.282,20.71392,7.26031,-0.93805,0.91909
353.882,20.7322,7.35143,-0.94892,0.91871
354.482,20.75069,7.44494,-0.96282,0.91832
355.082,20.76911,7.53714,-0.97353,0.91794
355.682,20.78749,7.62204,-0.98701,0.91755
356.282,20.8061,7.72561,-0.99825,0.91717
356.882,20.8246,7.84383,-1.01257,0.91678
357.482,20.84295,7.9544,-1.02517,0.9164
358.082,20.86134,8.06123,-1.03969,0.91601
358.682,20.8798,8.18965,-1.05391,0.91562
359.282,20.89827,8.30627,-1.06806,0.91523
359.882,20.91676,8.42994,-1.08343,0.91485
360.482,20.93529,8.55687,-1.09715,0.91446
361.082,20.9538,8.69007,-1.11419,0.91407
361.682,20.97225,8.82482,-1.1284,0.91368
362.282,20.99071,8.96633,-1.14607,0.91329
362.882,21.00914,9.11609,-1.15979,0.9129
363.482,21.0276,9.26345,-1.17806,0.91251
364.082,21.04616,9.41126,-1.19351,0.91212
364.682,21.06467,9.56738,-1.21262,0.91173
365.282,21.08323,9.73334,-1.22945,0.91134
365.882,21.10179,9.88541,-1.24854,0.91095
366.482,21.12032,10.061,-1.26706,0.91056
367.082,21.13889,10.23446,-1.2857,0.91017
367.682,21.15744,10.40028,-1.30557,0.90977
368.282,21.17596,10.5707,-1.32412,0.90938
368.882,21.19446,10.75182,-1.34669,0.90899
369.482,21.213,10.92897,-1.36571,0.90859
370.082,21.23144,11.1053,-1.38974,0.9082
370.682,21.24994,11.27779,-1.40889,0.90781
371.282,21.2685,11.47102,-1.43372,0.90741
371.882,21.2871,11.65087,-1.4537,0.90702
372.482,21.30564,11.82802,-1.47865,0.90662
373.082,21.32431,12.02581,-1.50003,0.90623
373.682,21.34299,12.19835,-1.52523,0.90583
374.282,21.36156,12.37451,-1.54917,0.90544
374.882,21.38014,12.5525,-1.57407,0.90504
375.482,21.39873,12.72747,-1.5998,0.90464
376.082,21.41731,12.88975,-1.62442,0.90425
376.682,21.43586,13.0576,-1.65241,0.90385
377.282,21.4545,13.21574,-1.67725,0.90345
377.882,21.47312,13.36104,-1.70839,0.90305
378.482,21.49176,13.50769,-1.73311,0.90265
379.082,21.5104,13.64037,-1.76426,0.90226
379.682,21.52907,13.76155,-1.78875,0.90186
380.282,21.54769,13.8837,-1.82059,0.90146
380.882,21.56632,13.99557,-1.84663,0.90106
381.482,21.58493,14.07271,-1.8785,0.90066
382.082,21.6036,14.15125,-1.90638,0.90026
382.682,21.6222,14.2106,-1.93727,0.89986
383.282,21.6408,14.2482,-1.96655,0.89945
383.882,21.65946,14.27067,-1.99616,0.89905
384.482,21.67814,14.2866,-2.02754,0.89865
385.082,21.69676,14.27987,-2.05614,0.89825
385.682,21.71539,14.2393,-2.08852,0.89785
386.282,21.734,14.173,-2.11552,0.89744
386.882,21.75265,14.09506,-2.149,0.89704
387.482,21.77124,13.99107,-2.1758,0.89664
388.082,21.78983,13.85591,-2.20989,0.89624
388.682,21.80845,13.6989,-2.23524,0.89583
389.282,21.82713,13.52125,-2.26715,0.89543
389.882,21.84579,13.3149,-2.29238,0.89502
390.482,21.86441,13.08342,-2.32241,0.89462
391.082,21.883,12.82479,-2.34814,0.89421
391.682,21.90158,12.53632,-2.37594,0.89381
392.282,21.92012,12.2295,-2.40219,0.8934
392.882,21.93865,11.8995,-2.42689,0.89299
393.482,21.95721,11.5433,-2.45236,0.89259
394.082,21.97573,11.15855,-2.47432,0.89218
394.682,21.99425,10.7699,-2.49955,0.89177
395.282,22.01282,10.34975,-2.51929,0.89137
395.882,22.03134,9.92586,-2.54343,0.89096
396.482,22.0499,9.47914,-2.56155,0.89055
397.082,22.06839,9.03883,-2.58262,0.89014
397.682,22.08694,8.57314,-2.59817,0.88973
398.282,22.10537,8.12077,-2.61666,0.88932
398.882,22.12388,7.65105,-2.63198,0.88892
399.482,22.14232,7.18101,-2.64727,0.88851
400.082,22.16086,6.73544,-2.66067,0.8881
400.682,22.17933,6.28439,-2.67325,0.88769
401.282,22.1978,5.84183,-2.68565,0.88728
401.882,22.21617,5.41049,-2.69615,0.88686
402.482,22.23442,5.01124,-2.70713,0.88645
403.082,22.2528,4.62403,-2.71515,0.88604
403.682,22.2711,4.2557,-2.72448,0.88563
404.282,22.28955,3.90874,-2.73057,0.88522
404.882,22.30798,3.5847,-2.73844,0.88481
405.482,22.3266,3.27867,-2.74404,0.88439
406.082,22.34508,3.00668,-2.75036,0.88398
406.682,22.36351,2.75115,-2.75508,0.88357
407.282,22.38192,2.50701,-2.76006,0.88315
407.882,22.40035,2.30134,-2.76396,0.88274
408.482,22.41874,2.113,-2.76782,0.88233
409.082,22.43722,1.94218,-2.77003,0.88191
409.682,22.45572,1.79633,-2.77331,0.8815
410.282,22.47417,1.66369,-2.77705,0.88108
410.882,22.49265,1.55374,-2.77961,0.88067
411.482,22.5111,1.43573,-2.78186,0.88025
412.082,22.52957,1.34949,-2.78408,0.87983
412.682,22.5481,1.25937,-2.78642,0.87942
413.282,22.56662,1.19498,-2.7889,0.879
413.882,22.5852,1.12774,-2.79098,0.87858
414.482,22.60371,1.07552,-2.79395,0.87817
415.082,22.62223,1.02114,-2.79641,0.87775
415.682,22.64072,0.97841,-2.79878,0.87733
416.282,22.65926,0.93462,-2.80102,0.87691
416.882,22.6778,0.8942,-2.80279,0.8765
417.482,22.6963,0.85179,-2.80438,0.87608
418.082,22.7149,0.81794,-2.8054,0.87566
418.682,22.7335,0.7908,-2.80673,0.87524
419.282,22.75208,0.7677,-2.80855,0.87482
419.882,22.77074,0.74252,-2.81159,0.8744
420.482,22.7894,0.71726,-2.81432,0.87398
421.082,22.80799,0.69369,-2.81657,0.87356
421.682,22.82665,0.66682,-2.81872,0.87314
422.282,22.8453,0.63227,-2.82051,0.87272
422.882,22.8639,0.61358,-2.82095,0.8723
423.482,22.88257,0.60124,-2.82212,0.87187
424.082,22.9012,0.57165,-2.82376,0.87145
424.682,22.9198,0.54768,-2.82537,0.87103
425.282,22.9385,0.52219,-2.82711,0.87061
425.882,22.9571,0.50725,-2.82948,0.87019
426.482,22.97557,0.48325,-2.83184,0.86976
427.082,22.99419,0.46597,-2.83364,0.86934
427.682,23.01291,0.44514,-2.8345,0.86892
428.282,23.03161,0.41997,-2.83518,0.86849
428.882,23.05034,0.39246,-2.83683,0.86807
429.482,23.06925,0.37999,-2.8386,0.86764
430.082,23.088,0.36384,-2.8406,0.86722
430.682,23.1067,0.33304,-2.84248,0.8668
431.282,23.12544,0.31659,-2.84435,0.86637
431.882,23.14419,0.30017,-2.84629,0.86594
432.482,23.16291,0.29363,-2.84923,0.86552
433.082,23.18176,0.26786,-2.85197,0.86509
433.682,23.20051,0.24682,-2.85267,0.86467
434.282,23.2193,0.22929,-2.85345,0.86424
434.882,23.23805,0.21222,-2.85529,0.86381
435.482,23.25681,0.19237,-2.85704,0.86339
436.082,23.27551,0.17929,-2.85851,0.86296
436.682,23.2943,0.16788,-2.85962,0.86253
437.282,23.3131,0.1586,-2.86156,0.8621
437.882,23.3319,0.1465,-2.86324,0.86168
438.482,23.3507,0.13168,-2.86503,0.86125
439.082,23.36952,0.11653,-2.86523,0.86082
439.682,23.3883,0.11301,-2.86526,0.86039
440.282,23.40714,0.09547529,-2.86611,0.85996
440.882,23.42597,0.0827005,-2.86781,0.85953
441.482,23.4448,0.07199588,-2.87126,0.8591
442.082,23.46357,0.066954,-2.87386,0.85867
442.682,23.4824,0.05358265,-2.87637,0.85824
443.282,23.5012,0.05135265,-2.87866,0.85781
443.882,23.52001,0.04448546,-2.88028,0.85738
444.482,23.5388,0.03875348,-2.88243,0.85695
445.082,23.55772,0.02804191,-2.88407,0.85652
445.682,23.57659,0.02949402,-2.88472,0.85609
446.282,23.5955,0.02662592,-2.88634,0.85565
446.882,23.6143,0.02634589,-2.88776,0.85522
447.482,23.63317,0.02331997,-2.88917,0.85479
448.082,23.65205,0.01985598,-2.89074,0.85436
448.682,23.67085,0.02611214,-2.89243,0.85392
449.282,23.6898,0.03116437,-2.89353,0.85349
449.882,23.70873,0.03413381,-2.89593,0.85306
450.482,23.7276,0.03916196,-2.89786,0.85262
451.082,23.74652,0.05323802,-2.90023,0.85219
451.682,23.76553,0.06445207,-2.90194,0.85176
452.282,23.78438,0.06218688,-2.90356,0.85132
452.882,23.80325,0.06834887,-2.90495,0.85089
453.482,23.82214,0.07793045,-2.90629,0.85045
454.082,23.84105,0.08654597,-2.90768,0.85002
454.682,23.8599,0.11129,-2.90882,0.84958
455.282,23.87891,0.11516,-2.91069,0.84915
455.882,23.89789,0.1335,-2.91236,0.84871
456.482,23.91689,0.14842,-2.91399,0.84827
457.082,23.93584,0.15457,-2.91461,0.84784
457.682,23.95479,0.1779,-2.91573,0.8474
458.282,23.97373,0.19096,-2.91725,0.84696
458.882,23.99269,0.20486,-2.91883,0.84653
459.482,24.01163,0.22322,-2.92018,0.84609
460.082,24.0306,0.24782,-2.92087,0.84565
460.682,24.04958,0.25674,-2.9223,0.84521
461.282,24.06852,0.27997,-2.92423,0.84478
461.882,24.0875,0.30447,-2.92598,0.84434
462.482,24.10652,0.32817,-2.92742,0.8439
463.082,24.12554,0.34671,-2.92842,0.84346
463.682,24.14452,0.36766,-2.93068,0.84302
464.282,24.16349,0.37297,-2.93218,0.84258
464.882,24.1825,0.4046,-2.93256,0.84214
465.482,24.2014,0.43862,-2.9342,0.8417
466.082,24.22041,0.4473,-2.93575,0.84126
466.682,24.23944,0.47105,-2.93637,0.84082
467.282,24.2585,0.49502,-2.93805,0.84038
467.882,24.27751,0.5208,-2.93854,0.83994
468.482,24.29658,0.54979,-2.9396,0.8395
469.082,24.31563,0.56507,-2.94144,0.83906
469.682,24.33464,0.5862,-2.94256,0.83862
470.282,24.35367,0.60826,-2.94344,0.83817
470.882,24.3727,0.63781,-2.94511,0.83773
471.482,24.39171,0.65927,-2.94702,0.83729
472.082,24.41076,0.6849,-2.94765,0.83685
472.682,24.42981,0.7022,-2.94845,0.8364
473.282,24.4489,0.72326,-2.94843,0.83596
473.882,24.46799,0.75852,-2.9498,0.83552
474.482,24.48709,0.78855,-2.95064,0.83508
475.082,24.5062,0.81087,-2.95151,0.83463
475.682,24.52536,0.83556,-2.95294,0.83419
476.282,24.5445,0.86362,-2.95448,0.83374
476.882,24.5636,0.87853,-2.95605,0.8333
477.482,24.58269,0.90921,-2.95667,0.83285
478.082,24.60174,0.93406,-2.95669,0.83241
478.682,24.62079,0.95643,-2.95668,0.83197
479.282,24.63984,0.97879,-2.95733,0.83152
479.882,24.6589,0.9977,-2.95844,0.83107
480.482,24.678,1.01972,-2.96039,0.83063
481.082,24.69707,1.04224,-2.96218,0.83018
481.682,24.7162,1.0749,-2.96383,0.82974
482.282,24.7353,1.07414,-2.96583,0.82929
482.882,24.75444,1.10648,-2.96676,0.82884
483.482,24.77349,1.12139,-2.96845,0.8284
484.082,24.79262,1.15501,-2.96836,0.82795
484.682,24.81171,1.17133,-2.96971,0.8275
485.282,24.83083,1.19076,-2.96963,0.82706
485.882,24.84998,1.20261,-2.97074,0.82661
486.482,24.8691,1.21942,-2.97143,0.82616
487.082,24.8883,1.2363,-2.97272,0.82571
487.682,24.9074,1.25924,-2.97421,0.82526
488.282,24.92654,1.27436,-2.97432,0.82481
488.882,24.94568,1.28279,-2.97449,0.82437
489.482,24.96485,1.30212,-2.97601,0.82392
490.082,24.98404,1.32609,-2.97695,0.82347
490.682,25.00319,1.34325,-2.97759,0.82302
491.282,25.02233,1.36184,-2.9785,0.82257
491.882,25.04145,1.37826,-2.97894,0.82212
492.482,25.06052,1.38337,-2.98001,0.82167
493.082,25.0796,1.40496,-2.98039,0.82122
493.682,25.09884,1.41122,-2.98188,0.82077
494.282,25.11801,1.42723,-2.9821,0.82032
494.882,25.13723,1.43728,-2.98354,0.81987
495.482,25.1564,1.44854,-2.98485,0.81942
496.082,25.17556,1.46506,-2.9852,0.81896
496.682,25.1947,1.48021,-2.98675,0.81851
497.282,25.21385,1.49696,-2.9868,0.81806
497.882,25.23297,1.5023,-2.98809,0.81761
498.482,25.25215,1.51281,-2.98827,0.81716
499.082,25.2713,1.52234,-2.98907,0.8167
499.682,25.29048,1.52869,-2.98961,0.81625
500.282,25.3096,1.54389,-2.99025,0.8158
500.882,25.32891,1.54465,-2.99095,0.81535
501.482,25.34808,1.55675,-2.99094,0.81489
502.082,25.36729,1.5698,-2.99212,0.81444
502.682,25.38649,1.58178,-2.99225,0.81399
503.282,25.40567,1.5904,-2.99384,0.81353
503.882,25.4249,1.59663,-2.99439,0.81308
504.482,25.4441,1.60894,-2.99546,0.81262
505.082,25.46332,1.61783,-2.99546,0.81217
505.682,25.48258,1.62661,-2.99698,0.81171
506.282,25.50178,1.63713,-2.99694,0.81126
506.882,25.52099,1.63346,-2.99833,0.81081
507.482,25.54025,1.63931,-2.9983,0.81035
508.082,25.5595,1.64749,-2.99979,0.80989
508.682,25.5787,1.64916,-2.99976,0.80944
509.282,25.59795,1.66398,-3.00136,0.80898
509.882,25.61715,1.66675,-3.00208,0.80853
510.482,25.63637,1.67712,-3.00271,0.80807
511.082,25.65558,1.6796,-3.00303,0.80761
511.682,25.6748,1.67902,-3.00368,0.80716
512.282,25.6939,1.69505,-3.00367,0.8067
512.882,25.7131,1.70462,-3.00365,0.80624
513.482,25.7323,1.70699,-3.0041,0.80579
514.082,25.75155,1.71511,-3.00508,0.80533
514.682,25.77082,1.71723,-3.00689,0.80487
515.282,25.79007,1.71484,-3.00764,0.80441
515.882,25.80939,1.72428,-3.00851,0.80396
516.482,25.82868,1.72544,-3.00973,0.8035
517.082,25.8479,1.72762,-3.00982,0.80304
517.682,25.8671,1.73302,-3.01024,0.80258
518.282,25.88632,1.7311,-3.01118,0.80212
518.882,25.90557,1.72791,-3.01123,0.80166
519.482,25.92482,1.73268,-3.01255,0.8012
520.082,25.9441,1.74251,-3.01331,0.80075
520.682,25.96337,1.74561,-3.01397,0.80029
521.282,25.98264,1.74838,-3.01565,0.79983
521.882,26.0018,1.75268,-3.01561,0.79937
522.482,26.02109,1.75224,-3.01688,0.79891
523.082,26.04036,1.75755,-3.01684,0.79845
523.682,26.05966,1.76412,-3.01781,0.79799
524.282,26.07892,1.75108,-3.01816,0.79753
524.882,26.09824,1.75453,-3.01815,0.79707
525.482,26.11748,1.75582,-3.01928,0.7966
526.082,26.13676,1.76321,-3.01939,0.79614
526.682,26.1561,1.76286,-3.02134,0.79568
527.282,26.17527,1.76277,-3.02212,0.79522
527.882,26.1946,1.77013,-3.02204,0.79476
528.482,26.21395,1.76894,-3.02334,0.7943
529.082,26.2333,1.7637,-3.02346,0.79383
529.682,26.25262,1.7631,-3.02501,0.79337
530.282,26.27205,1.76459,-3.02371,0.79291
530.882,26.29131,1.76908,-3.02431,0.79245
531.482,26.31042,1.76287,-3.02485,0.79199
532.082,26.3297,1.76023,-3.02583,0.79152
532.682,26.349,1.76307,-3.02631,0.79106
533.282,26.36815,1.75344,-3.0271,0.7906
533.882,26.3875,1.76543,-3.02761,0.79013
534.482,26.4069,1.76473,-3.02772,0.78967
535.082,26.4262,1.77189,-3.02926,0.78921
535.682,26.44568,1.75945,-3.02968,0.78874
536.282,26.46524,1.76581,-3.03061,0.78828
536.882,26.48456,1.76723,-3.03098,0.78781
537.482,26.50388,1.76078,-3.03189,0.78735
538.082,26.5232,1.75922,-3.03186,0.78688
538.682,26.54252,1.75588,-3.03275,0.78642
539.282,26.5618,1.75162,-3.03316,0.78595
539.882,26.58118,1.75156,-3.03427,0.78549
540.482,26.6005,1.75113,-3.03555,0.78502
541.082,26.61982,1.75419,-3.03584,0.78456
541.682,26.63907,1.75284,-3.03582,0.78409
542.282,26.65847,1.75138,-3.03589,0.78363
542.882,26.67785,1.75176,-3.03586,0.78316
543.482,26.69724,1.75123,-3.03627,0.7827
544.082,26.71664,1.76003,-3.0372,0.78223
544.682,26.73606,1.74804,-3.03725,0.78176
545.282,26.7554,1.73928,-3.03867,0.7813
545.882,26.7747,1.7445,-3.0385,0.78083
546.482,26.79409,1.73846,-3.03982,0.78036
547.082,26.8135,1.73811,-3.04005,0.7799
547.682,26.83282,1.74095,-3.04141,0.77943
548.282,26.8521,1.74691,-3.04149,0.77896
548.882,26.87146,1.74609,-3.04266,0.77849
549.482,26.891,1.74742,-3.04271,0.77803
550.082,26.9104,1.74447,-3.04407,0.77756
550.682,26.9299,1.7447,-3.04439,0.77709
551.282,26.9494,1.73556,-3.04551,0.77662
551.882,26.9688,1.73675,-3.04547,0.77615
552.482,26.9881,1.74216,-3.04674,0.77569
553.082,27.00752,1.734,-3.04677,0.77522
553.682,27.02692,1.72845,-3.048,0.77475
554.282,27.04632,1.73572,-3.04813,0.77428
554.882,27.06574,1.72984,-3.04814,0.77381
555.482,27.0851,1.7322,-3.04813,0.77334
556.082,27.1045,1.73584,-3.04806,0.77287
556.682,27.1239,1.7264,-3.04935,0.7724
557.282,27.1433,1.72493,-3.04941,0.77193
557.882,27.16276,1.72068,-3.05034,0.77146
558.482,27.1822,1.71391,-3.05076,0.77099
559.082,27.20165,1.7116,-3.05083,0.77052
559.682,27.2211,1.71833,-3.05212,0.77005
560.282,27.2405,1.71096,-3.05208,0.76958
560.882,27.26,1.70521,-3.05308,0.76911
561.482,27.2794,1.70205,-3.05352,0.76864
562.082,27.2988,1.70733,-3.05407,0.76817
562.682,27.3183,1.70602,-3.05485,0.7677
563.282,27.3377,1.69778,-3.05483,0.76723
563.882,27.35721,1.69616,-3.05593,0.76676
564.482,27.37677,1.70728,-3.05614,0.76629
565.082,27.3963,1.70496,-3.05626,0.76581
565.682,27.41576,1.70609,-3.05756,0.76534
566.282,27.43525,1.70037,-3.05776,0.76487
566.882,27.4547,1.69538,-3.05883,0.7644
567.482,27.47415,1.69355,-3.05883,0.76393
568.082,27.4936,1.68553,-3.0602,0.76345
568.682,27.5131,1.68944,-3.06012,0.76298
569.282,27.5326,1.69226,-3.06031,0.76251
569.882,27.5521,1.68681,-3.06143,0.76204
570.482,27.57165,1.68585,-3.06142,0.76156
571.082,27.5911,1.69253,-3.06141,0.76109
571.682,27.6106,1.69111,-3.06214,0.76062
572.282,27.63007,1.69322,-3.06296,0.76014
572.882,27.64958,1.69536,-3.06338,0.75967
573.482,27.66905,1.68754,-3.0634,0.7592
574.082,27.6886,1.68542,-3.06425,0.75872
574.682,27.7081,1.68287,-3.06471,0.75825
575.282,27.7277,1.6838,-3.06487,0.75778
575.882,27.74717,1.68042,-3.0662,0.7573
576.482,27.76673,1.68777,-3.06609,0.75683
577.082,27.78623,1.68288,-3.06728,0.75635
577.682,27.8057,1.6717,-3.06745,0.75588
578.282,27.82527,1.66791,-3.06745,0.7554
578.882,27.84481,1.66623,-3.06829,0.75493
579.482,27.86437,1.66732,-3.06876,0.75445
580.082,27.88397,1.67265,-3.06896,0.75398
580.682,27.90349,1.6793,-3.07014,0.7535
581.282,27.9231,1.66509,-3.07009,0.75303
581.882,27.94258,1.65842,-3.07009,0.75255
582.482,27.9622,1.65941,-3.07007,0.75208
583.082,27.9817,1.65622,-3.07089,0.7516
583.682,28.0013,1.65234,-3.07141,0.75113
584.282,28.02088,1.65839,-3.07147,0.75065
584.882,28.04038,1.65677,-3.07283,0.75018
585.482,28.0599,1.66292,-3.07283,0.7497
586.082,28.0796,1.6569,-3.07414,0.74922
586.682,28.0991,1.65799,-3.07415,0.74875
587.282,28.11866,1.644,-3.0747,0.74827
587.882,28.1383,1.65075,-3.07549,0.74779
588.482,28.1579,1.64872,-3.07548,0.74732
589.082,28.1775,1.64453,-3.07592,0.74684
589.682,28.19715,1.64155,-3.07681,0.74636
590.282,28.2168,1.63494,-3.0767,0.74589
590.882,28.2364,1.64226,-3.07818,0.74541
591.482,28.2561,1.64668,-3.07785,0.74493
592.082,28.27567,1.63119,-3.07882,0.74445
592.682,28.2953,1.63905,-3.07919,0.74398
593.282,28.31492,1.63966,-3.0792,0.7435
593.882,28.3345,1.64355,-3.08001,0.74302
594.482,28.3541,1.63945,-3.0805,0.74254
595.082,28.3737,1.6317,-3.08053,0.74207
595.682,28.39322,1.63348,-3.08055,0.74159
596.282,28.41279,1.65034,-3.08075,0.74111
596.882,28.4324,1.64483,-3.08179,0.74063
597.482,28.452,1.6517,-3.08154,0.74015
598.082,28.47164,1.65092,-3.08164,0.73967
598.682,28.4913,1.64504,-3.08283,0.7392
599.282,28.5109,1.6479,-3.08283,0.73872
599.882,28.5305,1.64428,-3.08418,0.73824
600.482,28.55019,1.64633,-3.08415,0.73776
601.082,28.56982,1.64122,-3.08415,0.73728
601.682,28.5895,1.63425,-3.0851,0.7368
602.282,28.60918,1.63996,-3.08547,0.73632
602.882,28.62888,1.6342,-3.08548,0.73584
603.482,28.6486,1.6393,-3.08601,0.73536
604.082,28.66828,1.63568,-3.08682,0.73488
604.682,28.68795,1.63367,-3.08726,0.7344
605.282,28.7076,1.62892,-3.08825,0.73392
605.882,28.72727,1.63109,-3.08865,0.73344
606.482,28.7469,1.63619,-3.08956,0.73296
607.082,28.76663,1.6423,-3.08953,0.73248
607.682,28.78635,1.63543,-3.08956,0.732
608.282,28.80603,1.63643,-3.09011,0.73152
608.882,28.8258,1.63747,-3.09085,0.73104
609.482,28.84543,1.63282,-3.09076,0.73056
610.082,28.86491,1.63152,-3.0921,0.73008
610.682,28.88445,1.63107,-3.09213,0.7296
611.282,28.90403,1.63585,-3.09319,0.72912
611.882,28.9237,1.62865,-3.09358,0.72864
612.482,28.9434,1.62216,-3.09375,0.72816
613.082,28.96327,1.62004,-3.09496,0.72767
613.682,28.983,1.61502,-3.09491,0.72719
614.282,29.00263,1.6172,-3.09484,0.72671
614.882,29.02226,1.62208,-3.09471,0.72623
615.482,29.042,1.61977,-3.09523,0.72575
616.082,29.06165,1.62212,-3.0953,0.72527
616.682,29.0815,1.61681,-3.09658,0.72479
617.282,29.1013,1.61643,-3.09655,0.7243
617.882,29.12107,1.61612,-3.09655,0.72382
618.482,29.14084,1.61391,-3.09656,0.72334
619.082,29.16065,1.62189,-3.09721,0.72286
619.682,29.1804,1.62195,-3.09823,0.72237
620.282,29.2002,1.61906,-3.09853,0.72189
620.882,29.21988,1.61809,-3.09853,0.72141
621.482,29.2396,1.62239,-3.09852,0.72093
622.082,29.2593,1.61598,-3.09982,0.72045
622.682,29.279,1.61326,-3.09985,0.71996
623.282,29.29877,1.6136,-3.09985,0.71948
623.882,29.3185,1.60442,-3.09981,0.719
624.482,29.33823,1.60171,-3.10109,0.71851
625.082,29.35793,1.60129,-3.1009,0.71803
625.682,29.37769,1.61617,-3.10134,0.71755
626.282,29.39745,1.6145,-3.10182,0.71706
626.882,29.4173,1.60061,-3.10173,0.71658
627.482,29.43703,1.59746,-3.10312,0.7161
628.082,29.4567,1.59742,-3.10313,0.71561
628.682,29.47645,1.59432,-3.10304,0.71513
629.282,29.49618,1.59347,-3.10441,0.71465
629.882,29.5159,1.59696,-3.10426,0.71416
630.482,29.5356,1.58983,-3.10416,0.71368
631.082,29.5554,1.58958,-3.10464,0.7132
631.682,29.5751,1.57546,-3.10545,0.71271
632.282,29.5949,1.58841,-3.10531,0.71223
632.882,29.6146,1.58899,-3.10554,0.71174
633.482,29.6344,1.59176,-3.10644,0.71126
634.082,29.65408,1.58683,-3.10643,0.71077
634.682,29.6738,1.58615,-3.10642,0.71029
635.282,29.69352,1.58492,-3.10712,0.70981
635.882,29.71327,1.58825,-3.10773,0.70932
636.482,29.7331,1.57926,-3.10776,0.70884
637.082,29.75285,1.57014,-3.10798,0.70835
637.682,29.7726,1.56924,-3.10908,0.70787
638.282,29.7924,1.57298,-3.10908,0.70738
638.882,29.81216,1.57738,-3.10923,0.7069
639.482,29.8319,1.58905,-3.11039,0.70641
640.082,29.8517,1.58217,-3.11036,0.70593
640.682,29.87142,1.58425,-3.10978,0.70544
641.282,29.89116,1.59338,-3.11037,0.70496
641.882,29.91096,1.5911,-3.11038,0.70447
642.482,29.93068,1.5918,-3.11042,0.70399
643.082,29.9504,1.58774,-3.11204,0.7035
643.682,29.97015,1.57244,-3.11203,0.70301
644.282,29.98975,1.58344,-3.11203,0.70253
644.582,29.9996,1.5808,-3.11203,0.70229