File: 02_Data/OSB/Cone/OSB_Cone_HF25Scan_210324_R3.csv
Names,Time,Stack TC,Smoke TC,Exh Press,Smoke Comp,Smoke Meas,CO Meter,CO2 Meter,O2 Meter,Sample Mass,Ext Coeff,Start Test,Flame Verif
Chan Gain,,500,500,1,1,1,1,1,1,1,1,1.0,1.0
Offset,,0,0,0.194005,0,0,0,0,0,0,0,0.0,0.0
Gain,,1,1,25.011,13.5067,16.616,1,1,1,1.00091,1.04608,1.0,1.0
Units,sec,C,C,Pa,%,%,%,%,%,g,/m,,
Baseline,,20.0173,21.3324,168.059,101.08,100.572,0.000154304,0.057551,20.9302,-1.16514,0.0462045,,
11,2.5,17.5231,18.3663,167.011,101.199,100.615,0.00032132,0.0628726,20.9231,587.375,0.05307,0.0,0.0
22,5.25,17.5388,18.5371,168.761,101.175,100.737,0.000416971,0.0629879,20.9259,587.325,0.0398018,0.0,0.0
33,8,17.5328,18.3395,170.29,101.146,100.666,0.000367758,0.0628772,20.9287,587.295,0.0435782,0.0,0.0
44,10.75,17.7141,19.1792,167.753,101.089,100.586,0.00025559,0.0624538,20.9306,587.235,0.0457684,0.0,0.0
55,13.5,17.8236,18.8992,166.592,101.046,100.497,0.000180751,0.0619784,20.9322,587.225,0.0499286,0.0,0.0
66,16.25,17.9366,19.5746,171.293,101,100.4,0.000353057,0.0611197,20.9327,587.205,0.0547132,0.0,0.0
77,19,17.9778,18.7583,168.376,100.957,100.313,0.000477039,0.0603127,20.9328,587.185,0.0586997,0.0,0.0
88,21.75,17.7339,19.1228,165.271,100.909,100.326,0.000395405,0.0598634,20.9329,587.164,0.0532027,0.0,0.0
99,24.5,17.8094,19.6224,170.49,100.855,100.336,0.000321731,0.0593643,20.9324,587.114,0.0473171,0.0,0.0
110,27.25,18.2157,19.0584,165.734,100.807,100.132,0.000335171,0.0589138,20.931,587.084,0.061636,0.0,0.0
121,30,17.9868,18.4083,168.555,100.757,100.092,0.000345348,0.058578,20.9306,587.034,0.06072,0.0,0.0
132,32.75,18.2747,19.5795,172.117,100.704,99.9635,0.000256811,0.0583967,20.9304,587.014,0.0677296,0.0,0.0
143,35.5,18.4261,19.5118,170.48,100.655,99.9858,0.00023283,0.0582671,20.9304,586.964,0.0611732,0.0,0.0
154,38.25,18.2354,19.2165,168.392,100.61,99.71,0.00020807,0.0582179,20.9304,586.924,0.0824645,0.0,0.0
165,41,17.7851,19.7471,171.387,100.537,99.6664,0.00031708,0.0580778,20.9304,586.894,0.0798222,0.0,0.0
176,43.75,18.4814,19.4941,169.603,100.484,99.5964,0.000431407,0.0581546,20.9305,586.854,0.081376,0.0,0.0
187,46.5,18.1648,19.7068,166.812,100.441,99.5462,0.00050094,0.0580863,20.931,586.834,0.0820861,0.0,0.0
198,49.25,17.9711,19.4647,170.435,100.374,99.4352,0.000405913,0.0581098,20.9323,586.804,0.0862255,0.0,0.0
209,52,18.4566,19.6853,168.875,100.312,99.4412,0.000141282,0.0581648,20.933,586.764,0.0800109,0.0,0.0
220,54.75,17.8633,19.9528,168.215,100.267,99.3809,-0.000139403,0.0579464,20.9328,586.714,0.0814324,0.0,0.0
231,57.5,18.6762,19.4852,168.464,100.246,99.352,-0.000153762,0.0579208,20.9326,586.694,0.0822151,0.0,0.0
242,60.25,18.302,19.9669,172.936,100.192,99.1897,4.17456e-05,0.0580465,20.9325,586.664,0.0922703,0.0,0.0
253,63,18.3602,19.7788,166.334,100.145,99.0822,0.000153892,0.0579166,20.9325,586.624,0.0978771,0.0,0.0
264,65.75,18.0223,19.8731,165.047,100.108,99.0072,4.86603e-05,0.0578581,20.9321,586.594,0.101506,0.0,0.0
275,68.5,18.5608,19.8532,164.877,100.072,99.0331,1.22646e-06,0.0578217,20.9318,586.564,0.0957837,0.0,0.0
286,71.25,18.6853,19.9426,169.575,100.045,98.8414,5.56655e-06,0.057995,20.9317,586.504,0.111029,0.0,0.0
297,74,17.9859,19.9507,173.83,100.026,98.9286,5.20512e-05,0.0580867,20.9317,586.474,0.101197,0.0,0.0
308,76.75,17.9825,20.0552,164.37,100.015,98.7364,0.000149888,0.0579483,20.9329,586.424,0.118057,0.0,0.0
319,79.5,18.1972,20.0674,167.385,99.9947,98.7263,0.000219616,0.0578183,20.9342,586.414,0.117146,0.0,0.0
330,82.25,18.9182,20.3242,164.602,99.9894,98.8089,0.000368403,0.0578852,20.9347,586.394,0.108974,0.0,0.0
341,85,18.475,20.4558,167.025,99.9885,98.6918,0.000408591,0.0579659,20.9348,586.344,0.119783,0.0,0.0
352,87.75,18.6383,20.1418,164.818,99.9869,98.7161,0.000276724,0.0579589,20.9348,586.284,0.11737,0.0,0.0
363,90.5,18.3265,19.8624,167.655,99.977,98.6801,0.000155713,0.0580114,20.9348,586.274,0.119809,0.0,0.0
374,93.25,18.1268,20.0717,172.474,99.9737,98.6923,0.000150394,0.0579156,20.9348,586.234,0.118375,0.0,0.0
385,96,19.0282,19.4159,167.092,99.9819,98.6573,0.000215235,0.0579585,20.934,586.234,0.122385,0.0,0.0
396,98.75,18.5929,19.5539,168.398,99.9939,98.5189,0.000312078,0.0580629,20.9335,586.174,0.136367,0.0,0.0
407,101.5,18.1891,19.8482,169.378,99.996,98.5209,0.000445749,0.058332,20.9334,586.134,0.136367,0.0,0.0
418,104.25,19.0325,20.1709,167.472,99.9993,98.491,0.000429761,0.058572,20.9319,586.124,0.139457,0.0,0.0
429,107,17.9987,20.2795,168.419,100.015,98.6203,0.000441732,0.0589922,20.9308,586.064,0.128855,0.0,0.0
440,109.75,18.5463,20.5497,165.027,100.047,98.352,0.000591556,0.059374,20.9294,586.023,0.156835,0.0,0.0
451,112.5,19.0884,20.3939,167.874,100.075,98.3607,0.000626184,0.0600923,20.9289,586.003,0.158525,0.0,0.0
462,115.25,18.8964,20.474,167.884,100.117,98.2572,0.00069413,0.0605087,20.9301,585.953,0.172035,0.0,0.0
473,118,18.1856,20.9732,168.723,100.168,98.4347,0.000682646,0.0606043,20.9309,585.913,0.160159,0.0,0.0
484,120.75,19.3052,20.4905,168.576,100.268,98.3485,0.000484453,0.0605978,20.9314,585.903,0.177331,0.0,0.0
495,123.5,18.8453,20.6235,165.309,100.327,98.6964,0.000411967,0.0604768,20.9316,585.843,0.150325,0.0,0.0
506,126.25,19.0923,20.6318,163.14,100.42,98.458,0.000419594,0.0604329,20.9317,585.813,0.181027,0.0,0.0
517,129,18.4734,20.7108,168.6875,100.502,98.2542,0.000711211,0.0602873,20.9321,585.773,0.207575,0.0,0.0
528,131.75,18.7709,20.3897,165.528,100.588,98.7856,0.00085556,0.0600735,20.9324,585.733,0.165904,0.0,0.0
539,134.5,19.3333,21.1001,169.297,100.684,98.5787,0.000703847,0.0603595,20.9325,585.673,0.193935,0.0,0.0
550,137.25,18.8483,21.1229,167.756,100.798,98.3201,0.00064598,0.0605524,20.9325,585.643,0.228402,0.0,0.0
561,140,19.3354,20.9716,168.207,100.885,98.6705,0.000645574,0.0607794,20.9331,585.623,0.203673,0.0,0.0
572,142.75,19.1668,20.542,167.649,100.98,98.6705,0.000891004,0.0610513,20.9333,585.583,0.212328,0.0,0.0
583,145.5,19.0918,21.1018,164.649,101.061,98.2952,0.00114856,0.0611894,20.9333,585.513,0.254667,0.0,0.0
594,148.25,19.0486,20.8522,165.037,101.12,98.7638,0.00108752,0.0614789,20.9332,585.473,0.216383,0.0,0.0
605,151,18.5582,20.8486,169.332,101.183,98.7415,0.00103078,0.0616787,20.9327,585.413,0.224102,0.0,0.0
616,153.75,19.0989,20.1917,166.024,101.235,98.9925,0.00108097,0.061733,20.9341,585.353,0.205589,0.0,0.0
627,156.5,18.9877,21.4366,163.222,101.265,98.3277,0.00124458,0.0619666,20.9334,585.313,0.270072,0.0,0.0
638,159.25,19.1422,20.976,164.283,101.297,98.0711,0.00146436,0.0621643,20.9322,585.283,0.29696,0.0,0.0
649,162,18.8342,21.4686,164.764,101.334,98.3318,0.00167729,0.0625771,20.9314,585.223,0.276002,0.0,0.0
660,164.75,19.0531,21.2605,167.528,101.32,98.4134,0.0018971,0.0630047,20.931,585.123,0.26708,0.0,0.0
671,167.5,19.0366,20.8706,163.035,101.308,98.3389,0.00195344,0.0634964,20.9303,585.093,0.27295,0.0,0.0
682,170.25,19.1122,21.1556,167.159,101.28,98.0914,0.00210933,0.0640094,20.9284,585.023,0.293494,0.0,0.0
693,173,19.6836,21.3467,169.992,101.256,98.0123,0.00217242,0.0650304,20.9213,584.972,0.298731,0.0,0.0
704,175.75,20.0316,22.8922,158.144,101.197,99.9002,0.00195958,0.0734206,20.8599,584.752,0.118398,0.0,1.0
715,178.5,22.4912,25.4684,152.227,101.136,100.28,0.00175913,0.105116,20.7509,584.382,0.0779232,0.0,1.0
726,181.25,25.2478,30.7113,154.104,101.075,100.152,0.00189344,0.153251,20.6417,584.042,0.0841707,0.0,0.0
737,184,28.1647,35.7131,151.313,100.993,99.1629,0.00229013,0.213022,20.5644,583.691,0.167852,0.0,0.0
748,186.75,31.2705,39.4997,148.829,100.941,99.2699,0.00264133,0.268114,20.5116,583.201,0.153199,0.0,0.0
759,189.5,33.9496,42.8772,149.472,100.886,99.2328,0.00294483,0.319268,20.4696,582.73,0.151636,0.0,0.0
770,192.25,35.2736,47.2796,144.04,100.822,98.2958,0.00349011,0.362862,20.4371,582.27,0.232812,0.0,0.0
781,195,37.3453,49.7821,148.481,100.779,98.2486,0.00405171,0.40382,20.4199,581.81,0.233314,0.0,0.0
792,197.75,38.9027,50.9592,145.856,100.753,97.1802,0.00430315,0.433294,20.4074,581.379,0.331282,0.0,0.0
803,200.5,39.9857,52.9176,147.906,100.944,97.5509,0.00429675,0.456833,20.3994,580.869,0.313788,0.0,0.0
814,203.25,41.2013,54.4733,154.924,101.215,98.7116,0.00413993,0.4734,20.4024,580.438,0.229797,0.0,0.0
825,206,41.3982,54.7111,148.663,101.421,98.4976,0.00401685,0.482683,20.4084,580.018,0.268376,0.0,0.0
836,208.75,42.7028,56.1974,146.52,101.552,99.1314,0.00384466,0.48813,20.4161,579.598,0.22133,0.0,0.0
847,211.5,43.3589,56.645,143.147,101.66,98.2537,0.00381498,0.489124,20.4263,579.207,0.312695,0.0,0.0
858,214.25,43.3953,56.4851,147.01,101.704,98.6477,0.00390784,0.487203,20.4362,578.797,0.279989,0.0,0.0
869,217,43.4461,56.3026,151.94,101.663,99.5929,0.00398914,0.483504,20.4455,578.396,0.188804,0.0,0.0
880,219.75,43.4335,56.6497,150.414,101.574,99.1482,0.00394806,0.47895,20.4548,577.986,0.22183,0.0,0.0
891,222.5,44.3881,56.7713,148.662,101.35,98.9281,0.00392977,0.473516,20.4652,577.626,0.221978,0.0,0.0
902,225.25,43.9678,56.2941,146.138,101.149,97.8399,0.00397556,0.467479,20.4737,577.225,0.305243,0.0,0.0
913,228,44.3038,56.4446,150.031,101.26,98.4129,0.00403978,0.461549,20.4778,576.815,0.261676,0.0,0.0
924,230.75,44.2183,56.068,147.112,101.412,99.1527,0.00390475,0.457423,20.4775,576.445,0.206762,0.0,0.0
935,233.5,44.186,56.2821,149.41,101.595,99.676,0.00382619,0.454814,20.4769,576.064,0.175004,0.0,0.0
946,236.25,44.4218,56.2415,144.986,101.758,99.2805,0.00390147,0.452722,20.4794,575.684,0.226146,0.0,0.0
957,239,44.3581,55.7646,152.039,101.889,99.7222,0.00391676,0.449876,20.4877,575.284,0.197263,0.0,0.0
968,241.75,44.0289,55.7975,149.831,101.946,98.4839,0.00379308,0.445947,20.4945,574.903,0.317079,0.0,0.0
979,244.5,44.0159,56.025,152.447,101.906,97.9078,0.00374847,0.442098,20.498,574.543,0.367309,0.0,0.0
990,247.25,44.7873,55.3402,147.52,101.791,99.8211,0.00368031,0.438167,20.5038,574.163,0.17933,0.0,0.0
1001,250,44.1716,54.8896,152.178,101.589,99.2313,0.00355155,0.433402,20.5163,573.802,0.215478,0.0,0.0
1012,252.75,44.0617,54.6257,147.259,101.304,98.6527,0.00340474,0.426803,20.5266,573.472,0.243335,0.0,0.0
1023,255.5,44.5987,53.3607,151.285,100.995,98.7902,0.00345056,0.419856,20.5366,573.112,0.202517,0.0,0.0
1034,258.25,43.1714,53.2889,146.24,100.655,98.0331,0.00353696,0.412671,20.5448,572.771,0.24216,0.0,0.0
1045,261,43.7825,52.9924,149.097,100.344,97.2887,0.00338369,0.406559,20.5471,572.451,0.283763,0.0,0.0
1056,263.75,43.7329,52.5398,151.022,100.13,97.5681,0.00315387,0.400347,20.5554,572.121,0.237827,0.0,0.0
1067,266.5,43.4456,52.0877,155.266,100.015,97.8886,0.00315671,0.393221,20.5653,571.791,0.197191,0.0,0.0
1078,269.25,43.0547,51.9548,156.07,100.019,97.5448,0.00315048,0.386785,20.5715,571.46,0.229816,0.0,0.0
1089,272,43.1613,51.6766,151.38,100.134,98.1477,0.00312047,0.380475,20.5771,571.15,0.183893,0.0,0.0
1100,274.75,43.0482,51.5037,150.592,100.345,98.6056,0.00301825,0.374774,20.5829,570.85,0.160465,0.0,0.0
1111,277.5,43.0141,50.991,156.501,100.616,99.2222,0.00294182,0.369335,20.5881,570.529,0.128032,0.0,0.0
1122,280.25,42.2765,50.1853,156.639,100.887,99.4123,0.00296064,0.364175,20.5925,570.219,0.135127,0.0,0.0
1133,283,42.4935,49.6735,151.597,101.127,99.7627,0.00290855,0.359921,20.5944,569.929,0.124673,0.0,0.0
1144,285.75,42.4334,50.084,154.368,101.274,99.638,0.00276239,0.356399,20.6003,569.618,0.149459,0.0,0.0
1155,288.5,42.3763,49.7848,151.953,101.323,99.7759,0.00266081,0.351434,20.6096,569.318,0.141208,0.0,0.0
1166,291.25,41.3588,49.3501,150.922,101.278,99.5508,0.00258425,0.346159,20.6151,569.038,0.157868,0.0,0.0
1177,294,41.3367,48.8205,155.713,101.124,99.9144,0.00252929,0.341073,20.6216,568.778,0.110439,0.0,0.0
1188,296.75,42.124,48.7999,154.236,100.903,99.8596,0.00256221,0.336218,20.6259,568.457,0.0953615,0.0,0.0
1199,299.5,41.6815,48.0795,147.446,100.744,99.6258,0.00268906,0.332402,20.629,568.187,0.102425,0.0,0.0
1210,302.25,41.5374,48.0291,154.245,100.945,99.8444,0.00262908,0.32893,20.6303,567.907,0.10062,0.0,0.0
1221,305,41.2458,48.1336,156.469,101.408,100.372,0.00248557,0.325808,20.6322,567.577,0.0941782,0.0,0.0
1232,307.75,41.3775,47.9951,157.161,101.641,101.05,0.00247864,0.323251,20.6353,567.306,0.0535387,0.0,0.0
1243,310.5,41.2563,47.7023,155.54,101.639,100.389,0.00246167,0.320375,20.6387,567.086,0.113549,0.0,0.0
1254,313.25,41.3074,47.4068,154.846,101.418,100.293,0.00249521,0.31785,20.6402,566.786,0.102384,0.0,0.0
1265,316,41.2218,47.6046,154.775,101.143,100.34,0.00256753,0.315515,20.6439,566.496,0.0731224,0.0,0.0
1276,318.75,41.2946,47.3155,156.186,101.311,100.276,0.00249932,0.312894,20.6485,566.225,0.0942594,0.0,0.0
1287,321.5,41.1175,46.9971,154.995,101.533,100.356,0.00242475,0.309499,20.6525,566.025,0.10704,0.0,0.0
1298,324.25,40.9823,46.8491,158.24,101.731,100.501,0.00234073,0.306772,20.6544,565.705,0.111606,0.0,0.0
1309,327,41.0308,47.0664,154.565,101.887,101.212,0.00221318,0.304501,20.6556,565.425,0.0609678,0.0,0.0
1320,329.75,40.5821,46.9519,156.69,101.924,100.592,0.00219479,0.302086,20.6584,565.164,0.12066,0.0,0.0
1331,332.5,40.584,46.481,149.978,101.848,101.107,0.00232624,0.300123,20.66,564.894,0.0669988,0.0,0.0
1342,335.25,40.625,46.5426,154.479,101.657,100.695,0.00238844,0.298424,20.6612,564.614,0.0872798,0.0,0.0
1353,338,40.5336,46.174,157.981,101.37,100.927,0.00228204,0.296362,20.665,564.374,0.0401242,0.0,0.0
1364,340.75,40.5545,45.7173,152.314,101.03,100.723,0.00218468,0.294364,20.6673,564.083,0.0279345,0.0,0.0
1375,343.5,40.3107,45.7521,156.898,100.659,99.7501,0.00213291,0.292809,20.6688,563.833,0.0832515,0.0,0.0
1386,346.25,40.1775,45.8198,153.885,100.349,99.4605,0.001991,0.291189,20.6717,563.563,0.0815874,0.0,0.0
1397,349,40.1678,45.8603,154.248,100.118,99.457,0.00198355,0.289128,20.6737,563.253,0.0607831,0.0,0.0
1408,351.75,40.1389,45.4907,151.854,100.016,99.5807,0.00202545,0.28727,20.6754,563.103,0.0400393,0.0,0.0
1419,354.5,40.4786,45.2887,153.417,100.028,100.373,0.00202846,0.285695,20.6775,562.782,-0.0315617,0.0,0.0
1430,357.25,39.7716,45.015,155.864,100.16,99.7044,0.00199627,0.283503,20.6803,562.572,0.0417958,0.0,0.0
1441,360,39.6603,45.2263,155.809,100.342,100.012,0.00211981,0.282328,20.681,562.332,0.0302723,0.0,0.0
1452,362.75,39.7813,44.7308,158.513,100.568,100.866,0.00224387,0.280861,20.6833,562.042,-0.027147,0.0,0.0
1463,365.5,39.213,44.7559,153.156,100.802,100.957,0.00217431,0.279144,20.685,561.781,-0.0141175,0.0,0.0
1474,368.25,40.1595,44.8194,152.468,100.996,101.49,0.00201407,0.277534,20.6856,561.571,-0.0448029,0.0,0.0
1485,371,40.2009,44.8236,155.9,101.167,101.754,0.00201598,0.276167,20.687,561.331,-0.05313,0.0,0.0
1496,373.75,39.6925,44.822,157.964,101.267,101.262,0.00203799,0.27487,20.6902,561.061,0.000498795,0.0,0.0
1507,376.5,39.5761,44.4121,151.585,101.312,101.28,0.00206438,0.273625,20.6911,560.81,0.0028677,0.0,0.0
1518,379.25,39.5286,43.9742,157.193,101.303,101.498,0.00208961,0.272169,20.692,560.56,-0.0176497,0.0,0.0
1529,382,39.2485,43.7443,152.082,101.239,101.443,0.002094,0.270828,20.6934,560.33,-0.0184318,0.0,0.0
1540,384.75,39.1519,43.6049,156.64,101.141,100.558,0.00222248,0.269042,20.6959,560.09,0.0529808,0.0,0.0
1551,387.5,38.8362,43.4122,153.218,101.003,101.091,0.00228382,0.267381,20.697,559.85,-0.00793843,0.0,0.0
1562,390.25,38.5813,43.4304,156.299,100.87,100.506,0.00213315,0.265534,20.7004,559.639,0.0331829,0.0,0.0
1573,393,38.7375,42.8576,154.519,100.754,100.708,0.00197379,0.26365,20.7016,559.389,0.00415689,0.0,0.0
1584,395.75,38.5567,43.1829,155.451,100.689,100.777,0.00176002,0.262153,20.7022,559.139,-0.00798277,0.0,0.0
1595,398.5,38.6582,42.9272,157.322,100.828,100.818,0.0016833,0.260543,20.7038,558.939,0.000928656,0.0,0.0
1606,401.25,38.1939,42.6847,155.978,101.129,101.401,0.00170274,0.258995,20.7062,558.709,-0.024642,0.0,0.0
1617,404,38.5366,42.9651,161.371,101.348,101.022,0.00171406,0.257708,20.7076,558.458,0.029568,0.0,0.0
1628,406.75,38.3506,43.2318,155.155,101.505,101.487,0.00171325,0.256617,20.7096,558.258,0.00156083,0.0,0.0
1639,409.5,38.8423,42.6705,160.397,101.592,101.48,0.00171364,0.255401,20.7114,558.028,0.0101456,0.0,0.0
1650,412.25,38.2898,42.3073,156.374,101.61,101.816,0.00164882,0.254058,20.7133,557.818,-0.018566,0.0,0.0
1661,415,38.2544,42.3627,158.958,101.569,101.621,0.00166957,0.252835,20.7145,557.547,-0.00468628,0.0,0.0
1672,417.75,38.243,42.21,160.459,101.485,101.735,0.00176296,0.25154,20.716,557.357,-0.0225369,0.0,0.0
1683,420.5,38.077,42.4924,157.196,101.343,101.52,0.0017428,0.250517,20.7165,557.137,-0.0159539,0.0,0.0
1694,423.25,38.2603,42.0175,154.511,101.158,101.015,0.00167905,0.249976,20.716,556.917,0.0130374,0.0,0.0
1705,426,38.0311,42.1849,153.227,101.102,101.096,0.00164106,0.249424,20.7165,556.687,0.000538172,0.0,0.0
1716,428.75,37.8921,42.1059,152.392,101.181,101.544,0.00166059,0.249077,20.7166,556.477,-0.0327868,0.0,0.0
1727,431.5,37.7477,42.3562,152.548,101.288,101.435,0.00175601,0.24841,20.7167,556.276,-0.0133364,0.0,0.0
1738,434.25,37.8382,41.9466,156.167,101.371,101.886,0.00174617,0.247822,20.7167,556.036,-0.0464854,0.0,0.0
1749,437,37.7759,41.7788,159.321,101.454,102.03,0.00169243,0.246821,20.7198,555.826,-0.0519127,0.0,0.0
1760,439.75,37.713,41.9614,153.97,101.541,101.833,0.00149072,0.246043,20.7208,555.596,-0.0263379,0.0,0.0
1771,442.5,38.1585,41.3297,152.644,101.617,102.139,0.00151724,0.245168,20.7214,555.396,-0.0469989,0.0,0.0
1782,445.25,37.3908,41.3474,151.942,101.711,102.228,0.00164967,0.244293,20.7233,555.185,-0.0464843,0.0,0.0
1793,448,37.4607,41.4007,155.809,101.75,102.162,0.00154417,0.243293,20.7244,554.985,-0.0370708,0.0,0.0
1804,450.75,37.2719,41.1142,161.738,101.799,102.105,0.00160907,0.242341,20.726,554.785,-0.027509,0.0,0.0
1815,453.5,37.2658,41.5981,155.787,101.825,102.061,0.00166142,0.241477,20.7265,554.535,-0.0212486,0.0,0.0
1826,456.25,37.2215,40.8526,159.956,101.866,102.106,0.00155418,0.240455,20.727,554.315,-0.0215457,0.0,0.0
1837,459,37.1976,40.8258,154.811,101.877,102.188,0.00164945,0.239547,20.7281,554.154,-0.0279139,0.0,0.0
1848,461.75,36.7468,40.8249,159.014,101.875,102.172,0.0017273,0.238758,20.7285,553.934,-0.0266884,0.0,0.0
1859,464.5,37.3105,41.0843,155.257,101.863,102.105,0.00184162,0.237905,20.7302,553.714,-0.0218341,0.0,0.0
1870,467.25,37.2317,41.04,161.363,101.843,102.017,0.00178812,0.23727,20.7313,553.504,-0.015647,0.0,0.0
1881,470,36.9737,40.698,154.731,101.817,102.293,0.00163206,0.236731,20.7319,553.324,-0.0427201,0.0,0.0
1892,472.75,36.8916,40.6594,155.906,101.756,102.946,0.0014545,0.236211,20.7335,553.113,-0.106702,0.0,0.0
1903,475.5,36.9648,40.1362,160.204,101.707,102.507,0.00129258,0.235679,20.7341,552.903,-0.0718564,0.0,0.0
1914,478.25,36.7244,40.3554,159.739,101.639,102.23,0.00124521,0.235172,20.7342,552.693,-0.0532593,0.0,0.0
1925,481,37.3429,40.0782,154.848,101.561,102.163,0.00135693,0.234604,20.7347,552.473,-0.0542111,0.0,0.0
1936,483.75,36.7534,40.0507,156.492,101.512,101.84,0.00149727,0.233531,20.736,552.303,-0.0295856,0.0,0.0
1947,486.5,36.5937,40.3295,157.619,101.432,101.569,0.00138794,0.232818,20.7364,552.083,-0.0123785,0.0,0.0
1958,489.25,36.2726,39.9769,156.645,101.359,101.973,0.00138786,0.232341,20.7365,551.872,-0.0554194,0.0,0.0
1969,492,36.9347,40.3537,159.852,101.256,101.63,0.00155946,0.232162,20.7374,551.682,-0.0338561,0.0,0.0
1980,494.75,36.4954,39.7621,156.923,101.179,101.625,0.00160505,0.231708,20.7375,551.502,-0.0403482,0.0,0.0
1991,497.5,36.4142,40.343,155.348,101.095,101.254,0.00160667,0.23129,20.7374,551.292,-0.0144374,0.0,0.0
2002,500.25,36.3492,39.8638,158.339,100.998,101.923,0.00142192,0.23063,20.7374,551.112,-0.0836572,0.0,0.0
2013,503,36.389,39.8961,155.413,100.92,101.28,0.00123751,0.230138,20.7374,550.922,-0.0326962,0.0,0.0
2024,505.75,35.824,39.4313,156.505,100.829,101.275,0.00120781,0.229743,20.7374,550.741,-0.0404944,0.0,0.0
2035,508.5,36.2009,39.9382,159.74,100.757,101.018,0.00126021,0.229329,20.7374,550.531,-0.0237378,0.0,0.0
2046,511.25,36.209,39.5452,160.649,100.671,101.135,0.00130157,0.229495,20.7374,550.361,-0.0422206,0.0,0.0
2057,514,35.8881,39.5889,155.91,100.582,100.954,0.00140902,0.229681,20.7374,550.141,-0.0339379,0.0,0.0
2068,516.75,35.8377,39.4196,154.104,100.496,101.453,0.00136704,0.22946,20.738,549.951,-0.0869203,0.0,0.0
2079,519.5,35.9748,39.7099,159.582,100.423,100.632,0.00139953,0.229357,20.7388,549.77,-0.0191508,0.0,0.0
2090,522.25,35.9356,39.4605,156.883,100.338,100.819,0.00155572,0.229207,20.739,549.56,-0.0438741,0.0,0.0
2101,525,35.9376,39.379,159.64,100.266,100.93,0.00161537,0.228906,20.7391,549.37,-0.0604919,0.0,0.0
2112,527.75,35.7231,39.1249,154.836,100.205,100.317,0.00157663,0.228852,20.7386,549.18,-0.0102154,0.0,0.0
2123,530.5,36.0284,39.3532,161.31,100.143,100.441,0.00154894,0.228908,20.7384,549.01,-0.0272649,0.0,0.0
2134,533.25,35.5529,39.0418,153.848,100.108,100.594,0.00152873,0.228961,20.7377,548.81,-0.0444643,0.0,0.0
2145,536,35.8857,39.3407,156.56,100.08,100.468,0.00151906,0.229251,20.7365,548.599,-0.0354631,0.0,0.0
2156,538.75,35.8238,39.5623,160.388,100.06,100.335,0.00168938,0.229223,20.7376,548.439,-0.0251729,0.0,0.0
2167,541.5,35.6942,39.2975,155.479,100.043,100.562,0.00175003,0.228803,20.7385,548.249,-0.0474755,0.0,0.0
2178,544.25,36.2916,39.3487,158.119,100.034,100.524,0.00149954,0.228657,20.7382,548.049,-0.0448826,0.0,0.0
2189,547,35.7117,39.136,157.577,100.016,100.548,0.00129893,0.228546,20.7394,547.859,-0.0486373,0.0,0.0
2200,549.75,35.6635,39.1639,162.951,100.028,100.146,0.00145209,0.228149,20.7401,547.659,-0.0108079,0.0,0.0
2211,552.5,35.4416,38.901,158.107,100.012,100.118,0.00163604,0.227969,20.7403,547.488,-0.00965144,0.0,0.0
2222,555.25,35.6899,39.0977,159.436,100.011,100.386,0.00173656,0.227882,20.7399,547.288,-0.0344018,0.0,0.0
2233,558,35.4807,39.295,160.824,100.021,100.033,0.00159629,0.227625,20.7387,547.098,-0.00109176,0.0,0.0
2244,560.75,35.4032,38.9507,163.29,100.037,100.739,0.00145257,0.227546,20.7383,546.888,-0.0641852,0.0,0.0
2255,563.5,35.9623,39.1814,157.544,100.044,100.535,0.00141448,0.227755,20.7388,546.718,-0.0449474,0.0,0.0
2266,566.25,35.8902,39.1573,155.005,100.065,100.615,0.00128106,0.227796,20.7383,546.537,-0.0502831,0.0,0.0
2277,569,35.426,39.0167,152.621,100.086,100.434,0.00129969,0.227654,20.74,546.377,-0.0318307,0.0,0.0
2288,571.75,35.3742,38.6965,161.033,100.095,100.67,0.00140255,0.226981,20.7409,546.187,-0.0525249,0.0,0.0
2299,574.5,35.3295,38.6832,159.552,100.133,100.33,0.00149275,0.226504,20.7411,545.997,-0.0180213,0.0,0.0
2310,577.25,35.1211,38.6069,157.762,100.153,100.486,0.00154005,0.226096,20.7428,545.817,-0.0304894,0.0,0.0
2321,580,35.2216,38.683,157.766,100.175,100.789,0.0014606,0.225664,20.7429,545.637,-0.056045,0.0,0.0
2332,582.75,35.4618,38.9852,157.477,100.194,101.171,0.00139758,0.225194,20.7428,545.477,-0.0890513,0.0,0.0
2343,585.5,35.0317,38.7774,164.131,100.238,100.808,0.0014238,0.225021,20.7419,545.276,-0.052108,0.0,0.0
2354,588.25,34.862,38.532,158.184,100.265,100.49,0.00137273,0.224711,20.742,545.106,-0.0205935,0.0,0.0
2365,591,34.954,38.7388,158.393,100.307,100.728,0.00131906,0.224677,20.7406,544.926,-0.0383906,0.0,0.0
2376,593.75,35.0834,38.6095,157.26,100.339,100.612,0.00142679,0.224687,20.7409,544.716,-0.0249492,0.0,0.0
2387,596.5,35.259,38.4981,156.775,100.367,100.618,0.00155126,0.224336,20.7407,544.556,-0.0228577,0.0,0.0
2398,599.25,34.4705,38.0329,155.962,100.415,101.133,0.00162993,0.22442,20.7403,544.376,-0.0653976,0.0,0.0
2409,602,34.8637,38.3965,158.397,100.442,100.821,0.00152931,0.224449,20.7399,544.195,-0.0345187,0.0,0.0
2420,604.75,35.0555,38.6533,155.032,100.472,101.091,0.00129249,0.224546,20.7398,543.995,-0.0563736,0.0,0.0
2431,607.5,35.151,38.3456,155.222,100.501,101.129,0.00130794,0.224474,20.7408,543.845,-0.0571605,0.0,0.0
2442,610.25,34.8892,38.3668,161.065,100.545,100.872,0.00139694,0.224387,20.7431,543.635,-0.0297695,0.0,0.0
2453,613,35.2176,38.3522,163.619,100.578,100.517,0.00143806,0.224135,20.7444,543.475,0.00558583,0.0,0.0
2464,615.75,34.9953,38.5171,154.97,100.613,100.809,0.00156663,0.224059,20.7437,543.305,-0.0178054,0.0,0.0
2475,618.5,35.138,38.6237,157.77,100.631,101.199,0.00190332,0.223813,20.7432,543.124,-0.051652,0.0,0.0
2486,621.25,34.8357,38.591,157.654,100.65,101.144,0.00197575,0.223999,20.742,542.934,-0.0449189,0.0,0.0
2497,624,34.8204,38.1099,158.176,100.679,101.403,0.00158777,0.224508,20.7424,542.784,-0.0656829,0.0,0.0
2508,626.75,35.3946,38.7646,153.866,100.703,100.811,0.00147745,0.224711,20.7424,542.604,-0.0098825,0.0,0.0
2519,629.5,34.005,37.197,163.695,100.706,101.061,0.00154941,0.224922,20.742,542.414,-0.0323082,0.0,0.0
2530,632.25,34.7275,37.9772,159.775,100.711,101.891,0.00165987,0.225307,20.7419,542.214,-0.106957,0.0,0.0
2541,635,35.1835,38.4362,152.787,100.73,101.001,0.00166469,0.225606,20.7396,542.053,-0.024687,0.0,0.0
2552,637.75,35.019,38.1393,155.139,100.739,101.416,0.00154144,0.225949,20.7368,541.893,-0.0614675,0.0,0.0
2563,640.5,35.4697,38.4709,157.21,100.756,100.948,0.00140058,0.226204,20.7357,541.693,-0.0174541,0.0,0.0
2574,643.25,33.9234,38.3134,160.63,100.758,100.96,0.00152521,0.226723,20.7357,541.523,-0.0184476,0.0,0.0
2585,646,34.967,38.2114,161.521,100.751,101.273,0.00162356,0.227558,20.7349,541.343,-0.0474783,0.0,0.0
2596,648.75,35.044,38.4717,160.275,100.765,100.988,0.00163917,0.228458,20.735,541.143,-0.020298,0.0,0.0
2607,651.5,34.9783,38.3212,159.19,100.766,100.938,0.00163869,0.228705,20.7357,540.992,-0.015669,0.0,0.0
2618,654.25,34.9147,38.5533,156.315,100.777,101.021,0.00166071,0.228657,20.7355,540.802,-0.0221663,0.0,0.0
2629,657,33.9362,38.1755,156.587,100.78,101.054,0.00179139,0.229072,20.7334,540.632,-0.0249343,0.0,0.0
2640,659.75,35.3077,38.8227,154.187,100.773,101.134,0.001989,0.229676,20.7323,540.442,-0.0328153,0.0,0.0
2651,662.5,34.6884,38.4741,156.352,100.786,101.196,0.0020039,0.230236,20.732,540.272,-0.0372175,0.0,0.0
2662,665.25,35.2912,38.5809,159.958,100.783,100.67,0.00185281,0.230501,20.7319,540.112,0.0102417,0.0,0.0
2673,668,35.0542,38.4177,157.777,100.771,101.566,0.00156323,0.230622,20.7318,539.921,-0.0721105,0.0,0.0
2684,670.75,35.1431,38.8512,154.855,100.776,101.531,0.00145277,0.23097,20.7296,539.741,-0.0685065,0.0,0.0
2695,673.5,35.0372,39.1976,155.664,100.77,100.968,0.00161972,0.231776,20.728,539.551,-0.0180503,0.0,0.0
2706,676.25,35.8306,39.5021,154.523,100.786,101.049,0.00161189,0.232547,20.7274,539.401,-0.0238738,0.0,0.0
2717,679,35.1048,39.3903,154.204,100.777,101.138,0.00159972,0.233394,20.7265,539.201,-0.0328373,0.0,0.0
2728,681.75,35.3012,39.2756,154.895,100.782,100.934,0.00158777,0.234303,20.7261,539.001,-0.0137527,0.0,0.0
2739,684.5,35.1893,38.9419,155.677,100.787,100.951,0.00136704,0.235349,20.726,538.84,-0.0149157,0.0,0.0
2750,687.25,35.8415,39.3727,159.792,100.768,100.67,0.001238,0.236166,20.7246,538.66,0.00892717,0.0,0.0
2761,690,35.7045,39.2287,161.231,100.755,100.814,0.0014395,0.236767,20.7239,538.47,-0.00534406,0.0,0.0
2772,692.75,35.3615,39.3849,158.863,100.747,100.838,0.00163657,0.237123,20.7243,538.25,-0.00827236,0.0,0.0
2783,695.5,35.6679,39.2876,157.594,100.715,100.474,0.00159678,0.237211,20.724,538.07,0.0219901,0.0,0.0
2794,698.25,35.5116,39.3153,156.542,100.684,101.605,0.00145289,0.237516,20.7237,537.88,-0.0836064,0.0,0.0
2805,701,35.1218,39.1298,151.882,100.677,101.137,0.0013712,0.238563,20.7222,537.709,-0.0418783,0.0,0.0
2816,703.75,35.7183,39.3111,159.327,100.653,101.126,0.00143269,0.239316,20.7219,537.519,-0.0430459,0.0,0.0
2827,706.5,35.8926,39.5519,158.56,100.635,100.267,0.00139484,0.239861,20.7224,537.329,0.0336625,0.0,0.0
2838,709.25,35.5059,39.6169,157.609,100.613,101.11,0.00149301,0.240762,20.7209,537.139,-0.0451354,0.0,0.0
2849,712,35.8918,39.569,156.511,100.59,100.43,0.00159964,0.241472,20.7199,536.959,0.0145578,0.0,0.0
2860,714.75,35.6342,39.5298,159.153,100.575,100.533,0.00163417,0.242409,20.7186,536.749,0.00384199,0.0,0.0
2871,717.5,35.6826,39.5407,159.151,100.556,100.396,0.00159618,0.243495,20.7182,536.558,0.0146255,0.0,0.0
2882,720.25,35.6952,39.9365,161.317,100.53,100.847,0.00160879,0.244557,20.718,536.378,-0.0289009,0.0,0.0
2893,723,35.7356,39.7353,159.226,100.491,100.028,0.00168327,0.245524,20.718,536.168,0.0423719,0.0,0.0
2904,725.75,35.28,39.4423,156.556,100.466,100.654,0.00172797,0.245986,20.718,535.988,-0.0171379,0.0,0.0
2915,728.5,35.7682,40.0793,149.606,100.417,100.152,0.00182907,0.247217,20.7137,535.788,0.0242989,0.0,0.0
2926,731.25,35.9461,39.8645,159.245,100.384,100.083,0.00181534,0.248544,20.7105,535.588,0.0275593,0.0,0.0
2937,734,35.8518,39.9913,156.574,100.335,100.307,0.0016017,0.250074,20.7071,535.397,0.00255604,0.0,0.0
2948,736.75,36.3306,40.6604,160.659,100.3,99.9301,0.00150069,0.25136,20.7055,535.207,0.0338826,0.0,0.0
2959,739.5,36.0948,40.4971,157.496,100.262,100.06,0.00158778,0.252634,20.7042,535.007,0.0185007,0.0,0.0
2970,742.25,36.3085,40.698,154.285,100.216,99.711,0.0016943,0.254303,20.703,534.807,0.0463997,0.0,0.0
2981,745,36.4924,40.7233,161.83,100.187,99.9504,0.00180671,0.255253,20.7026,534.597,0.0217195,0.0,0.0
2992,747.75,36.2383,40.792,152.568,100.162,99.4975,0.00191167,0.256223,20.7001,534.396,0.061121,0.0,0.0
3003,750.5,36.754,40.756,156.845,100.105,99.8662,0.00195788,0.257334,20.6984,534.186,0.0219345,0.0,0.0
3014,753.25,36.6472,40.7285,157.093,100.089,99.7526,0.00179373,0.258893,20.697,533.966,0.0308654,0.0,0.0
3025,756,36.7578,41.2555,151.048,100.073,100.348,0.00171914,0.26075,20.693,533.766,-0.0252535,0.0,0.0
3036,758.75,36.7316,41.2714,157.525,100.05,99.6421,0.00154454,0.263174,20.69,533.536,0.0375252,0.0,0.0
3047,761.5,36.8473,41.2749,157.086,100.039,99.7886,0.00143864,0.265133,20.6871,533.345,0.0229809,0.0,0.0
3058,764.25,36.9361,41.8915,159.097,100.02,99.9275,0.00158532,0.2672,20.6855,533.035,0.00847474,0.0,0.0
3069,767,37.2306,41.5331,151.218,100.024,99.1755,0.00167429,0.268549,20.685,532.825,0.0782063,0.0,0.0
3080,769.75,37.329,41.53,149.867,100.019,99.6806,0.00182911,0.270389,20.6812,532.655,0.031066,0.0,0.0
3091,772.5,36.9553,41.6772,155.858,100.01,99.7389,0.00199519,0.272591,20.6773,532.475,0.0249426,0.0,0.0
3102,775.25,37.43,41.7229,158.786,100.015,98.7947,0.00195453,0.274655,20.6753,532.274,0.112676,0.0,0.0
3113,778,37.1777,41.7038,162.75,100.021,98.8079,0.00184947,0.276596,20.6719,532.034,0.111981,0.0,0.0
3124,780.75,37.3979,42.0838,158.927,100.061,99.4767,0.00180811,0.278312,20.6694,531.824,0.0537443,0.0,0.0
3135,783.5,37.4427,42.1775,155.553,100.062,99.0964,0.00174922,0.280141,20.6663,531.604,0.088931,0.0,0.0
3146,786.25,37.6105,41.8819,156.303,100.074,98.4702,0.00175961,0.282229,20.6653,531.374,0.148236,0.0,0.0
3157,789,37.6556,42.6273,156.153,100.085,98.8033,0.00169127,0.283972,20.6628,531.143,0.118226,0.0,0.0
3168,791.75,37.9848,42.9151,155.492,100.12,99.3327,0.00168637,0.285728,20.6596,530.903,0.072442,0.0,0.0
3179,794.5,38.0415,42.8571,155.052,100.13,98.8698,0.0018425,0.287726,20.6569,530.673,0.116254,0.0,0.0
3190,797.25,38.5113,43.0663,153.274,100.174,99.2323,0.00192668,0.289549,20.6554,530.413,0.0866687,0.0,0.0
3201,800,38.1194,43.183,152.844,100.182,98.8434,0.00195673,0.291352,20.6553,530.203,0.123422,0.0,0.0
3212,802.75,38.9377,43.6649,157.682,100.204,98.9585,0.00201771,0.292979,20.6538,529.992,0.114781,0.0,0.0
3223,805.5,38.6145,43.924,150.603,100.252,99.065,0.00213022,0.294994,20.6516,529.722,0.109327,0.0,0.0
3234,808.25,38.7729,43.8411,155.845,100.284,98.9965,0.00207222,0.296813,20.6498,529.472,0.118537,0.0,0.0
3245,811,38.9902,43.8762,153.947,100.315,99.3155,0.0019344,0.298265,20.6491,529.232,0.0919237,0.0,0.0
3256,813.75,38.8901,43.7453,153.914,100.341,98.6756,0.00184449,0.299063,20.6476,528.982,0.15354,0.0,0.0
3267,816.5,38.8406,43.9145,157.722,100.38,99.3378,0.00205564,0.300328,20.6455,528.731,0.0957426,0.0,0.0
3278,819.25,39.1553,44.2174,154.109,100.42,99.1182,0.00233361,0.302375,20.6408,528.521,0.119701,0.0,0.0
3289,822,39.5013,44.6688,156.222,100.472,98.4489,0.0021911,0.30492,20.6372,528.251,0.18666,0.0,0.0
3300,824.75,39.5446,44.3452,155.577,100.498,98.7496,0.00194075,0.307014,20.6345,528.071,0.161084,0.0,0.0
3311,827.5,39.4091,44.4774,152.72,100.54,98.2516,0.00208617,0.308904,20.6344,527.8,0.211311,0.0,0.0
3322,830.25,39.7217,44.4919,150.207,100.604,98.9377,0.00217139,0.310366,20.6339,527.51,0.153286,0.0,0.0
3333,833,39.4696,44.7962,157.57,100.664,98.8601,0.00221147,0.311614,20.6307,527.29,0.165935,0.0,0.0
3344,835.75,40.1848,45.3123,149.525,100.722,98.7349,0.00232202,0.313106,20.6282,527.01,0.182864,0.0,0.0
3355,838.5,39.5991,45.2694,154.409,100.787,98.7623,0.00232018,0.314562,20.6261,526.79,0.186177,0.0,0.0
3366,841.25,40.2588,45.6367,158.459,100.86,98.9326,0.00217472,0.31622,20.6232,526.499,0.177037,0.0,0.0
3377,844,39.9925,45.6624,154.436,100.938,99.6659,0.00208479,0.318006,20.6226,526.269,0.116401,0.0,0.0
3388,846.75,39.9619,45.7744,152.937,101.009,98.6487,0.00213257,0.319659,20.6221,526.009,0.216979,0.0,0.0
3399,849.5,40.1217,45.5863,157.769,101.075,98.6335,0.00212377,0.320951,20.6216,525.739,0.224345,0.0,0.0
3410,852.25,41.016,46.3892,153.498,101.163,98.2623,0.00213404,0.321697,20.6204,525.468,0.266946,0.0,0.0
3421,855,41.2065,46.3164,154.72,101.229,98.9362,0.00225302,0.322715,20.6173,525.198,0.210247,0.0,0.0
3432,857.75,40.4406,46.0121,154.54,101.308,98.5331,0.00237607,0.324076,20.6153,524.918,0.254847,0.0,0.0
3443,860.5,40.4513,45.9708,153.052,101.36,98.5883,0.0025673,0.32533,20.6135,524.668,0.254441,0.0,0.0
3454,863.25,40.5142,46.6236,155.423,101.429,98.6406,0.00260039,0.327166,20.611,524.407,0.25581,0.0,0.0
3465,866,40.782,46.8589,152.576,101.474,98.5336,0.00261104,0.32877,20.6107,524.117,0.269833,0.0,0.0
3476,868.75,40.9643,47.1027,161.952,101.568,98.7547,0.00259476,0.329981,20.6098,523.857,0.257799,0.0,0.0
3487,871.5,41.2686,46.9446,153.304,101.613,99.1532,0.00261002,0.331384,20.6076,523.597,0.224822,0.0,0.0
3498,874.25,41.4488,47.1387,152.954,101.664,98.5173,0.00271902,0.332733,20.6061,523.346,0.288474,0.0,0.0
3509,877,42.0314,47.2373,151.47,101.697,98.4778,0.00278882,0.333859,20.604,523.036,0.295209,0.0,0.0
3520,879.75,41.3916,47.3278,148.845,101.744,99.0472,0.00250462,0.335548,20.5999,522.756,0.246465,0.0,0.0
3531,882.5,42.2579,47.6835,157.021,101.773,98.387,0.00228647,0.337401,20.5975,522.486,0.310437,0.0,0.0
3542,885.25,42.0935,48.173,156.103,101.81,98.6705,0.00224934,0.3386,20.5956,522.205,0.287419,0.0,0.0
3553,888,42.1351,47.862,156.438,101.841,98.6553,0.00235972,0.340153,20.5944,521.935,0.291583,0.0,0.0
3564,890.75,41.9901,48.2137,153.086,101.841,98.4149,0.00245903,0.341851,20.5952,521.655,0.31404,0.0,0.0
3575,893.5,42.7627,48.1993,153.894,101.857,98.7171,0.00262582,0.343166,20.5959,521.345,0.287354,0.0,0.0
3586,896.25,42.1176,48.348,157.837,101.872,97.8576,0.0027932,0.344173,20.5929,521.064,0.368897,0.0,0.0
3597,899,42.266,48.0929,154.772,101.888,98.0975,0.00271604,0.345183,20.589,520.794,0.347881,0.0,0.0
3608,901.75,42.5221,48.1834,147.925,101.888,98.1467,0.00272194,0.346523,20.5874,520.534,0.343244,0.0,0.0
3619,904.5,42.7647,48.9845,151.573,101.903,98.0093,0.00288123,0.34753,20.5881,520.244,0.357475,0.0,0.0
3630,907.25,42.6735,48.734,152.785,101.903,97.9804,0.00278474,0.348393,20.5868,519.973,0.360181,0.0,0.0
3641,910,43.0319,49.1441,145.808,101.895,97.5874,0.00264728,0.349488,20.5863,519.683,0.396392,0.0,0.0
3652,912.75,42.3845,48.2894,153.156,101.903,97.17,0.00288103,0.350045,20.5864,519.423,0.436385,0.0,0.0
3663,915.5,43.3568,49.4335,155.328,101.866,97.7491,0.00326051,0.350267,20.5886,519.103,0.378596,0.0,0.0
3674,918.25,42.6171,49.0228,148.958,101.856,97.4525,0.00323822,0.350341,20.5885,518.832,0.405519,0.0,0.0
3685,921,42.8416,48.9885,155.249,101.843,97.1584,0.00314171,0.350689,20.5885,518.582,0.432065,0.0,0.0
3696,923.75,42.9648,49.0358,149.735,101.81,96.9484,0.0030403,0.350812,20.5865,518.242,0.448941,0.0,0.0
3707,926.5,42.8639,49.1144,152.132,101.78,97.8774,0.00306741,0.351879,20.5833,518.002,0.358795,0.0,0.0
3718,929.25,43.1707,49.0188,151.483,101.763,97.3815,0.00318312,0.35337,20.5802,517.731,0.403847,0.0,0.0
3729,932,43.3174,50.1427,152.885,101.737,97.0336,0.0032592,0.354692,20.5795,517.451,0.434304,0.0,0.0
3740,934.75,43.885,49.9918,148.123,101.708,98.3901,0.00335605,0.355299,20.5803,517.121,0.304316,0.0,0.0
3751,937.5,43.0165,49.2115,148.045,101.691,97.3343,0.00345421,0.355652,20.5792,516.85,0.401822,0.0,0.0
3762,940.25,43.6899,50.1303,152.431,101.648,97.1893,0.00341543,0.356876,20.5772,516.53,0.411599,0.0,0.0
3773,943,42.9785,49.1663,154.612,101.632,97.3323,0.00327212,0.357981,20.5765,516.26,0.396618,0.0,0.0
3784,945.75,43.5046,49.4341,151.724,101.595,97.4307,0.00313701,0.358225,20.5789,516,0.384036,0.0,0.0
3795,948.5,43.4624,49.1109,156.474,101.578,96.7314,0.00295098,0.357824,20.5789,515.709,0.448604,0.0,0.0
3806,951.25,43.6361,50.1729,155.364,101.526,96.3942,0.00307485,0.357975,20.5767,515.419,0.475993,0.0,0.0
3817,954,43.7506,49.5518,152.15,101.487,96.2786,0.00333776,0.358645,20.5758,515.139,0.483428,0.0,0.0
3828,956.75,43.7235,49.9286,152.076,101.473,96.8516,0.00329849,0.3591,20.5742,514.889,0.427711,0.0,0.0
3839,959.5,43.8008,49.8324,149.997,101.43,95.7624,0.00313684,0.3596,20.572,514.528,0.527652,0.0,0.0
3850,962.25,43.9435,50.1136,148.79,101.397,96.4104,0.00330426,0.360432,20.5718,514.278,0.462742,0.0,0.0
3861,965,44.1994,50.1286,150.518,101.352,96.1888,0.00340991,0.360759,20.5724,513.968,0.479754,0.0,0.0
3872,967.75,43.8172,50.2984,153.395,101.314,95.9257,0.00328581,0.360755,20.5726,513.698,0.501461,0.0,0.0
3883,970.5,43.7441,49.7228,147.768,101.287,96.416,0.00328444,0.36042,20.5727,513.447,0.45221,0.0,0.0
3894,973.25,44.0266,50.1268,157.767,101.252,96.5484,0.00332716,0.36025,20.5723,513.097,0.436522,0.0,0.0
3905,976,44.6059,50.1595,150.477,101.221,96.3536,0.00356089,0.36068,20.571,512.827,0.452245,0.0,0.0
3916,978.75,43.9895,50.2245,151.666,101.193,95.8045,0.0036577,0.360881,20.5706,512.577,0.502078,0.0,0.0
3927,981.5,43.6595,50.0423,152.772,101.149,97.0565,0.00360482,0.361226,20.5705,512.256,0.378978,0.0,0.0
3938,984.25,43.9657,49.8976,148.59,101.132,95.5656,0.00363531,0.361304,20.5711,511.936,0.519449,0.0,0.0
3949,987,44.6434,50.3535,148.068,101.104,95.3288,0.00348361,0.361553,20.5707,511.676,0.539671,0.0,0.0
3960,989.75,44.371,50.1828,150.706,101.086,95.7198,0.00326478,0.361887,20.5687,511.375,0.500507,0.0,0.0
3971,992.5,44.5219,50.6746,154.197,101.167,96.3501,0.0031114,0.362426,20.5676,511.125,0.447612,0.0,0.0
3982,995.25,44.8519,51.2511,151.788,101.247,96.1731,0.00298354,0.36331,20.5698,510.835,0.471732,0.0,0.0
3993,998,44.6576,50.9752,148.534,101.338,96.9342,0.0029708,0.362666,20.5727,510.495,0.407649,0.0,0.0
4004,1000.75,44.7212,50.4812,151.274,101.389,95.1721,0.00312944,0.361566,20.5736,510.234,0.580617,0.0,0.0
4015,1003.5,44.3946,50.1116,151.941,101.444,96.3075,0.00355884,0.360554,20.5747,509.974,0.476759,0.0,0.0
4026,1006.25,44.3634,50.329,154.121,101.485,95.307,0.00372839,0.359278,20.5741,509.694,0.576347,0.0,0.0
4037,1009,44.3186,50.561,151.635,101.519,96.6254,0.00337697,0.358958,20.5736,509.414,0.453375,0.0,0.0
4048,1011.75,44.5554,50.467,145.836,101.554,96.0083,0.00300449,0.358809,20.5757,509.143,0.515258,0.0,0.0
4059,1014.5,44.4894,49.9635,152.399,101.58,95.9642,0.00280564,0.35743,20.5785,508.873,0.521897,0.0,0.0
4070,1017.25,44.9799,50.3767,152.256,101.602,96.6832,0.00278215,0.355143,20.584,508.643,0.455372,0.0,0.0
4081,1020,44.2502,49.8865,156.383,101.62,96.4916,0.0028877,0.352334,20.5873,508.383,0.475145,0.0,0.0
4092,1022.75,43.9183,49.4569,151.944,101.615,96.4449,0.00303251,0.349099,20.5901,508.153,0.47921,0.0,0.0
4103,1025.5,44.0839,50.1011,148.263,101.619,96.4434,0.00307876,0.345751,20.5936,507.872,0.47969,0.0,0.0
4114,1028.25,43.7797,49.8262,153.456,101.622,96.2994,0.00324937,0.341938,20.599,507.692,0.4937,0.0,0.0
4125,1031,44.199,48.8249,152.395,101.605,96.3415,0.00329628,0.337317,20.604,507.442,0.488127,0.0,0.0
4136,1033.75,43.7416,48.5409,154.744,101.597,97.0798,0.00324717,0.332243,20.6095,507.242,0.417329,0.0,0.0
4147,1036.5,43.25,48.2776,157.733,101.572,96.1493,0.00317765,0.326394,20.6191,507.032,0.503472,0.0,0.0
4158,1039.25,42.7294,48.3397,157.193,101.554,95.5378,0.00319581,0.320229,20.6248,506.831,0.560382,0.0,0.0
4169,1042,42.8116,47.1668,155.835,101.527,96.702,0.00325611,0.314148,20.6324,506.641,0.446814,0.0,0.0
4180,1044.75,42.6033,46.9593,155.219,101.494,97.9256,0.00329908,0.307048,20.6462,506.481,0.328455,0.0,0.0
4191,1047.5,41.9203,46.0458,153.168,101.437,97.3282,0.00354701,0.299445,20.6534,506.311,0.379456,0.0,0.0
4202,1050.25,41.866,45.4665,158.441,101.391,97.0661,0.00396195,0.291865,20.6571,506.121,0.400029,0.0,0.0
4213,1053,41.2169,45.1399,155.938,101.341,95.3177,0.00432079,0.284968,20.6581,506.001,0.562231,0.0,0.0
4224,1055.75,40.9885,44.7965,160.998,101.282,97.9388,0.00490448,0.279958,20.6607,505.84,0.30797,0.0,0.0
4235,1058.5,41.3205,44.5856,147.504,101.213,96.4799,0.00533906,0.273134,20.666,505.67,0.439482,0.0,0.0
4246,1061.25,40.9475,43.9714,156.703,101.141,96.6178,0.00554093,0.267731,20.6693,505.54,0.419831,0.0,0.0
4257,1064,40.038,43.6603,156.125,101.076,99.3003,0.00566745,0.262549,20.6794,505.35,0.162669,0.0,0.0
4268,1066.75,39.7222,42.7225,155.21,100.989,99.6258,0.00600895,0.25618,20.6927,505.25,0.124699,0.0,0.0
4279,1069.5,39.5387,42.5128,159.054,100.899,100.196,0.00663117,0.248606,20.7083,505.18,0.0641,0.0,0.0
4290,1072.25,38.8097,40.8565,160.743,100.805,100.791,0.00705003,0.237947,20.7289,505.04,0.00128303,0.0,0.0
4301,1075,38.3703,40.5713,160.242,100.72,101.074,0.007286,0.228241,20.7385,504.99,-0.0322198,0.0,0.0
4312,1077.75,36.9352,39.2465,159.14,100.683,100.992,0.00794128,0.218783,20.7482,504.85,-0.0281021,0.0,0.0
4323,1080.5,37.0312,38.1052,156.08,100.702,100.841,0.0085324,0.209013,20.7576,504.78,-0.0126709,0.0,0.0
4334,1083.25,36.4497,37.8977,161.401,100.713,101.294,0.00890602,0.20145,20.7653,504.669,-0.0527323,0.0,0.0
4345,1086,35.6379,37.9608,154.916,100.714,100.803,0.00914014,0.194299,20.7712,504.619,-0.00804572,0.0,0.0
4356,1088.75,35.4828,36.5209,160.947,100.744,100.671,0.00997286,0.188024,20.7806,504.519,0.0066593,0.0,0.0
4367,1091.5,34.2369,35.5921,159.393,100.78,100.577,0.0109436,0.18178,20.7892,504.459,0.0185335,0.0,0.0
4378,1094.25,34.2104,34.5729,163.628,100.783,100.837,0.0114567,0.175155,20.7971,504.379,-0.00490626,0.0,0.0
4389,1097,33.6269,34.3733,155.697,100.8,100.918,0.0111936,0.16939,20.7997,504.289,-0.0107553,0.0,0.0
4400,1099.75,34.0844,33.981,162.376,100.825,100.824,0.0104114,0.165328,20.8004,504.259,7.54773e-05,0.0,0.0
4411,1102.5,32.783,33.134,162.994,100.847,100.762,0.00990715,0.162664,20.7996,504.169,0.00774139,0.0,0.0
4422,1105.25,32.9977,33.0982,161.833,100.886,100.908,0.00967006,0.160683,20.7998,504.089,-0.0019949,0.0,0.0
4433,1108,32.1222,32.3203,169.51,100.919,100.898,0.00944738,0.158794,20.8032,504.039,0.00197205,0.0,0.0
4444,1110.75,31.7227,31.8609,160.629,100.943,100.803,0.00939348,0.157343,20.8052,503.979,0.0127272,0.0,0.0
4455,1113.5,31.9879,31.7311,159.686,100.978,101.015,0.00954388,0.155846,20.8059,503.909,-0.00336265,0.0,0.0
4466,1116.25,31.2375,31.6897,160.457,101.016,100.909,0.0096139,0.154625,20.8061,503.869,0.00972271,0.0,0.0
4477,1119,31.4476,31.1306,167.254,101.033,101.139,0.00973285,0.153348,20.8109,503.799,-0.00966075,0.0,0.0
4488,1121.75,30.8557,30.8903,161.115,101.06,100.931,0.00998622,0.15141,20.8149,503.729,0.0117462,0.0,0.0
4499,1124.5,30.2787,30.2185,165.569,101.093,100.982,0.0101322,0.149674,20.8173,503.698,0.0101226,0.0,0.0
4510,1127.25,30.5168,30.4928,163.054,101.13,100.977,0.010099,0.148347,20.8166,503.618,0.0138665,0.0,0.0
4521,1130,30.0403,29.9621,163.508,101.157,101.154,0.0101243,0.147403,20.8179,503.568,0.000312844,0.0,0.0
4532,1132.75,29.6965,29.9297,164.139,101.196,101.033,0.0103402,0.146028,20.8198,503.518,0.0147347,0.0,0.0
4543,1135.5,29.6917,29.5984,160.119,101.221,101.096,0.0103611,0.144986,20.8193,503.428,0.0113431,0.0,0.0
4554,1138.25,29.9459,30.2422,157.836,101.227,101.022,0.010074,0.14443,20.8187,503.388,0.018552,0.0,0.0
4565,1141,29.464,29.1689,163.902,101.248,101.079,0.0100871,0.144111,20.8184,503.338,0.0153834,0.0,0.0
4576,1143.75,29.1319,29.1439,168.185,101.268,101.041,0.0102565,0.143497,20.8184,503.288,0.0206663,0.0,0.0
4587,1146.5,29.3204,28.4564,163.658,101.287,101.132,0.0101902,0.142728,20.8183,503.238,0.0139779,0.0,0.0
4598,1149.25,28.4924,28.7981,162.35,101.282,101.089,0.0101762,0.14239,20.8181,503.178,0.017516,0.0,0.0
4609,1152,28.9107,28.8414,160.695,101.307,101.141,0.010344,0.142392,20.8181,503.118,0.0149794,0.0,0.0
4620,1154.75,28.1696,28.5567,162.585,101.322,101.3,0.0105064,0.142835,20.8169,503.048,0.0019808,0.0,0.0
4631,1157.5,27.9703,28.1134,163.475,101.332,101.109,0.0105743,0.142996,20.8177,503.078,0.0202854,0.0,0.0
4642,1160.25,27.8089,27.5859,167.272,101.321,101.288,0.010744,0.142703,20.8194,502.988,0.00304595,0.0,0.0
4653,1163,27.9135,27.5202,167.402,101.326,101.014,0.0109712,0.142003,20.8225,502.928,0.0282518,0.0,0.0
4664,1165.75,27.6784,27.7236,167.331,101.336,101.07,0.0108989,0.141142,20.8242,502.888,0.024156,0.0,0.0
4675,1168.5,27.2323,26.7437,160.186,101.333,101.104,0.0107957,0.140038,20.8247,502.848,0.0207362,0.0,0.0
4686,1171.25,27.7035,26.8156,160.359,101.32,101.052,0.0106935,0.139513,20.824,502.798,0.0243208,0.0,0.0
4697,1174,27.4472,26.9888,163.108,101.315,100.989,0.0107275,0.139139,20.8251,502.728,0.0295756,0.0,0.0
4708,1176.75,27.3709,27.202,164.132,101.295,100.917,0.0105231,0.138763,20.8257,502.668,0.0343371,0.0,0.0
4719,1179.5,27.0669,27.3399,153.763,101.309,101.039,0.0104417,0.138248,20.8273,502.638,0.0245019,0.0,0.0
4730,1182.25,27.2495,26.6387,167.131,101.294,100.926,0.0106733,0.138041,20.8279,502.587,0.0334336,0.0,0.0
4741,1185,26.6654,26.5085,169.583,101.276,101.068,0.01056,0.137408,20.8289,502.547,0.0188522,0.0,0.0
4752,1187.75,26.6654,26.4014,168.225,101.262,101.207,0.0102911,0.136806,20.83,502.507,0.00496705,0.0,0.0
4763,1190.5,26.5022,26.7375,165.217,101.242,101.114,0.0102467,0.136632,20.8289,502.477,0.0116009,0.0,0.0
4774,1193.25,26.3345,26.3345,166.631,101.223,100.831,0.0101355,0.136439,20.8282,502.417,0.0355586,0.0,0.0
4785,1196,25.9697,26.5538,163.819,101.184,100.89,0.0100388,0.136622,20.8269,502.387,0.0266475,0.0,0.0
4796,1198.75,26.0076,26.7017,162.888,101.142,101.012,0.0100634,0.136834,20.8265,502.327,0.0118555,0.0,0.0
4807,1201.5,25.9151,26.3045,162.663,101.118,100.996,0.0100323,0.136782,20.8277,502.327,0.0110393,0.0,0.0
4818,1204.25,25.5313,25.5781,159.962,101.075,100.888,0.00977953,0.136571,20.8285,502.257,0.0169209,0.0,0.0
4829,1207,25.5702,26.2148,163.932,101.033,100.733,0.00970153,0.135817,20.8302,502.207,0.0273107,0.0,0.0
4840,1209.75,25.7898,25.8668,162.948,100.979,100.672,0.00981134,0.135243,20.8307,502.177,0.0279039,0.0,0.0
4851,1212.5,25.4641,25.8008,165.818,100.939,100.74,0.00976796,0.134747,20.8293,502.147,0.0181623,0.0,0.0
4862,1215.25,25.937,25.7784,162.036,100.885,100.621,0.00978087,0.134674,20.8288,502.067,0.0240284,0.0,0.0
4873,1218,25.3891,26.1561,161.262,100.837,100.719,0.00982616,0.134795,20.829,502.027,0.0108044,0.0,0.0
4884,1220.75,25.6482,25.5062,165.54,100.799,100.533,0.00988996,0.13518,20.8285,501.997,0.0242771,0.0,0.0
4895,1223.5,25.4566,26.0666,164.214,100.741,100.292,0.0101007,0.135776,20.8273,501.947,0.0409584,0.0,0.0
4906,1226.25,25.7201,25.5193,163.892,100.687,100.289,0.00993055,0.136095,20.8282,501.897,0.036317,0.0,0.0
4917,1229,25.0348,25.63,165.76,100.608,100.389,0.00950754,0.135967,20.8298,501.887,0.0200038,0.0,0.0
4928,1231.75,24.9946,25.481,167.595,100.549,100.218,0.00947695,0.135481,20.8311,501.827,0.0302211,0.0,0.0
4939,1234.5,24.9574,25.252,164.318,100.473,100.433,0.0097061,0.135214,20.832,501.777,0.00367032,0.0,0.0
4950,1237.25,24.9264,25.6484,160.977,100.407,100.132,0.00991584,0.13519,20.8298,501.767,0.0251684,0.0,0.0
4961,1240,24.8388,25.3403,166.429,100.331,100.21,0.00983649,0.135416,20.8277,501.687,0.011035,0.0,0.0
4972,1242.75,25.2563,25.4783,162.752,100.29,99.9843,0.00968573,0.135768,20.8267,501.667,0.0279966,0.0,0.0
4983,1245.5,24.8558,25.9403,168.543,100.232,99.958,0.00955189,0.136024,20.8264,501.587,0.0250975,0.0,0.0
4994,1248.25,24.874,25.4647,165.78,100.182,99.8986,0.00937792,0.136231,20.8276,501.577,0.026016,0.0,0.0
5005,1251,24.8949,25.7574,160.719,100.14,99.8738,0.00924841,0.135809,20.8292,501.537,0.0244473,0.0,0.0
5016,1253.75,24.4965,24.8578,161.875,100.077,99.7247,0.00949473,0.135296,20.8296,501.486,0.0323741,0.0,0.0
5027,1256.5,24.3002,25.2477,159.264,100.071,99.8662,,0.135245,,501.436,0.0187605,0.0,0.0
5038,1259.25,24.032,24.9995,163.421,100.05,99.6289,,,,501.416,0.0387017,0.0,0.0
5049,1262,24.8925,25.098,164.773,100.019,99.6978,,,,501.396,0.0295549,0.0,0.0
5060,1264.75,24.3817,25.3352,167.996,100.012,99.8571,,,,501.336,0.0141919,0.0,0.0
5065,1266,24.1517,25.477,163.351,100.007,99.6517,,,,501.296,0.0326303,0.0,0.0