File: 01_Data/Polyurethane_Foam/FTIR/IS/Polyurethane_Foam_IS_REFLECT_BL_210623_R2.dpt
5996.41,0.02754
5992.55,0.03072
5988.69,0.02191
5984.84,0.01807
5980.98,0.01976
5977.12,0.01999
5973.27,0.01657
5969.41,0.02220
5965.55,0.02864
5961.69,0.01622
5957.84,0.01073
5953.98,0.01196
5950.12,0.01855
5946.26,0.01944
5942.41,0.02145
5938.55,0.01711
5934.69,0.01553
5930.83,0.01548
5926.98,0.02101
5923.12,0.03088
5919.26,0.02126
5915.4,0.02029
5911.55,0.02301
5907.69,0.02194
5903.83,0.01536
5899.97,0.02091
5896.12,0.02456
5892.26,0.02068
5888.4,0.01988
5884.54,0.01993
5880.69,0.01527
5876.83,0.01216
5872.97,0.01780
5869.11,0.02059
5865.26,0.01510
5861.4,0.01703
5857.54,0.01477
5853.68,0.02025
5849.83,0.02067
5845.97,0.01770
5842.11,0.01150
5838.25,0.01618
5834.4,0.01538
5830.54,0.01553
5826.68,0.02223
5822.82,0.01859
5818.97,0.01738
5815.11,0.01428
5811.25,0.01488
5807.39,0.01696
5803.54,0.01728
5799.68,0.01871
5795.82,0.02679
5791.96,0.02210
5788.11,0.02434
5784.25,0.02130
5780.39,0.02166
5776.53,0.02133
5772.68,0.01839
5768.82,0.01615
5764.96,0.02032
5761.11,0.01896
5757.25,0.01934
5753.39,0.02049
5749.53,0.01227
5745.68,0.01536
5741.82,0.02086
5737.96,0.01843
5734.1,0.01689
5730.25,0.01706
5726.39,0.01719
5722.53,0.02230
5718.67,0.01999
5714.82,0.01851
5710.96,0.01745
5707.1,0.01782
5703.24,0.01756
5699.39,0.01373
5695.53,0.01568
5691.67,0.01678
5687.81,0.01231
5683.96,0.01513
5680.1,0.02211
5676.24,0.01869
5672.38,0.02434
5668.53,0.02493
5664.67,0.02309
5660.81,0.02001
5656.95,0.01789
5653.1,0.01970
5649.24,0.01838
5645.38,0.02427
5641.52,0.01988
5637.67,0.01778
5633.81,0.02075
5629.95,0.01831
5626.09,0.01930
5622.24,0.02370
5618.38,0.01951
5614.52,0.01670
5610.66,0.01985
5606.81,0.02122
5602.95,0.01733
5599.09,0.01671
5595.23,0.01250
5591.38,0.01213
5587.52,0.01618
5583.66,0.01609
5579.8,0.01643
5575.95,0.01928
5572.09,0.01323
5568.23,0.01520
5564.38,0.01543
5560.52,0.01611
5556.66,0.02174
5552.8,0.01936
5548.95,0.01757
5545.09,0.01592
5541.23,0.02136
5537.37,0.02162
5533.52,0.01887
5529.66,0.01839
5525.8,0.01747
5521.94,0.01828
5518.09,0.01563
5514.23,0.01617
5510.37,0.01769
5506.51,0.01526
5502.66,0.01755
5498.8,0.01996
5494.94,0.01605
5491.08,0.01333
5487.23,0.01412
5483.37,0.01626
5479.51,0.01644
5475.65,0.02100
5471.8,0.01849
5467.94,0.01246
5464.08,0.01718
5460.22,0.02038
5456.37,0.01235
5452.51,0.01629
5448.65,0.02064
5444.79,0.02116
5440.94,0.01844
5437.08,0.01328
5433.22,0.01663
5429.36,0.02107
5425.51,0.01950
5421.65,0.01953
5417.79,0.01864
5413.93,0.02248
5410.08,0.01800
5406.22,0.01929
5402.36,0.01746
5398.5,0.01729
5394.65,0.01977
5390.79,0.02014
5386.93,0.02195
5383.07,0.01923
5379.22,0.01321
5375.36,0.01680
5371.5,0.01262
5367.65,0.01243
5363.79,0.01645
5359.93,0.01479
5356.07,0.01913
5352.22,0.02118
5348.36,0.01976
5344.5,0.01973
5340.64,0.01857
5336.79,0.02095
5332.93,0.01653
5329.07,0.02160
5325.21,0.02383
5321.36,0.02285
5317.5,0.01812
5313.64,0.01687
5309.78,0.01650
5305.93,0.01576
5302.07,0.01652
5298.21,0.01773
5294.35,0.01861
5290.5,0.01537
5286.64,0.01614
5282.78,0.01667
5278.92,0.01665
5275.07,0.01329
5271.21,0.01407
5267.35,0.01445
5263.49,0.01662
5259.64,0.01666
5255.78,0.01558
5251.92,0.01795
5248.06,0.02109
5244.21,0.01998
5240.35,0.01608
5236.49,0.01771
5232.63,0.02099
5228.78,0.01864
5224.92,0.01819
5221.06,0.01357
5217.2,0.01579
5213.35,0.01730
5209.49,0.01691
5205.63,0.01874
5201.77,0.01798
5197.92,0.01936
5194.06,0.01541
5190.2,0.01380
5186.34,0.01343
5182.49,0.01367
5178.63,0.01652
5174.77,0.01664
5170.91,0.01973
5167.06,0.01779
5163.2,0.01781
5159.34,0.01386
5155.49,0.01474
5151.63,0.01673
5147.77,0.01914
5143.91,0.01581
5140.06,0.01689
5136.2,0.01716
5132.34,0.01592
5128.48,0.01730
5124.63,0.01791
5120.77,0.01825
5116.91,0.01594
5113.05,0.01775
5109.2,0.01782
5105.34,0.01654
5101.48,0.01618
5097.62,0.01988
5093.77,0.01936
5089.91,0.01856
5086.05,0.01847
5082.19,0.01554
5078.34,0.01560
5074.48,0.01867
5070.62,0.01974
5066.76,0.02024
5062.91,0.01790
5059.05,0.01525
5055.19,0.01564
5051.33,0.01632
5047.48,0.01597
5043.62,0.01697
5039.76,0.01603
5035.9,0.01427
5032.05,0.01377
5028.19,0.01323
5024.33,0.01518
5020.47,0.01641
5016.62,0.01591
5012.76,0.01711
5008.9,0.01725
5005.04,0.01867
5001.19,0.02050
4997.33,0.01982
4993.47,0.01691
4989.61,0.01669
4985.76,0.01680
4981.9,0.01505
4978.04,0.01762
4974.18,0.01634
4970.33,0.01723
4966.47,0.01769
4962.61,0.01788
4958.76,0.01672
4954.9,0.01747
4951.04,0.01460
4947.18,0.01618
4943.33,0.01529
4939.47,0.01603
4935.61,0.01856
4931.75,0.01861
4927.9,0.01856
4924.04,0.01772
4920.18,0.01561
4916.32,0.01486
4912.47,0.01707
4908.61,0.01674
4904.75,0.01571
4900.89,0.01688
4897.04,0.01658
4893.18,0.01452
4889.32,0.01370
4885.46,0.01462
4881.61,0.01616
4877.75,0.01781
4873.89,0.01744
4870.03,0.01424
4866.18,0.01469
4862.32,0.01416
4858.46,0.01491
4854.6,0.01339
4850.75,0.01551
4846.89,0.01649
4843.03,0.01668
4839.17,0.01579
4835.32,0.01605
4831.46,0.01596
4827.6,0.01700
4823.74,0.01861
4819.89,0.01692
4816.03,0.01587
4812.17,0.01481
4808.31,0.01386
4804.46,0.01396
4800.6,0.01547
4796.74,0.01622
4792.88,0.01490
4789.03,0.01686
4785.17,0.01753
4781.31,0.01553
4777.45,0.01455
4773.6,0.01514
4769.74,0.01932
4765.88,0.01795
4762.02,0.01568
4758.17,0.01562
4754.31,0.01672
4750.45,0.01448
4746.6,0.01548
4742.74,0.01611
4738.88,0.01499
4735.02,0.01587
4731.17,0.01638
4727.31,0.01629
4723.45,0.01435
4719.59,0.01518
4715.74,0.01534
4711.88,0.01555
4708.02,0.01660
4704.16,0.01585
4700.31,0.01608
4696.45,0.01630
4692.59,0.01673
4688.73,0.01577
4684.88,0.01460
4681.02,0.01588
4677.16,0.01554
4673.3,0.01390
4669.45,0.01493
4665.59,0.01676
4661.73,0.01703
4657.87,0.01661
4654.02,0.01504
4650.16,0.01566
4646.3,0.01597
4642.44,0.01593
4638.59,0.01632
4634.73,0.01527
4630.87,0.01483
4627.01,0.01523
4623.16,0.01573
4619.3,0.01577
4615.44,0.01569
4611.58,0.01541
4607.73,0.01573
4603.87,0.01791
4600.01,0.01644
4596.15,0.01510
4592.3,0.01626
4588.44,0.01534
4584.58,0.01491
4580.72,0.01595
4576.87,0.01684
4573.01,0.01637
4569.15,0.01758
4565.29,0.01523
4561.44,0.01425
4557.58,0.01497
4553.72,0.01502
4549.87,0.01669
4546.01,0.01684
4542.15,0.01540
4538.29,0.01410
4534.44,0.01428
4530.58,0.01364
4526.72,0.01579
4522.86,0.01536
4519.01,0.01579
4515.15,0.01451
4511.29,0.01428
4507.43,0.01557
4503.58,0.01470
4499.72,0.01422
4495.86,0.01522
4492,0.01601
4488.15,0.01680
4484.29,0.01668
4480.43,0.01498
4476.57,0.01453
4472.72,0.01389
4468.86,0.01553
4465,0.01638
4461.14,0.01646
4457.29,0.01644
4453.43,0.01411
4449.57,0.01600
4445.71,0.01611
4441.86,0.01460
4438,0.01579
4434.14,0.01397
4430.28,0.01461
4426.43,0.01595
4422.57,0.01536
4418.71,0.01514
4414.85,0.01680
4411,0.01661
4407.14,0.01511
4403.28,0.01427
4399.42,0.01389
4395.57,0.01408
4391.71,0.01368
4387.85,0.01503
4383.99,0.01344
4380.14,0.01426
4376.28,0.01737
4372.42,0.01564
4368.56,0.01384
4364.71,0.01447
4360.85,0.01404
4356.99,0.01478
4353.14,0.01649
4349.28,0.01622
4345.42,0.01576
4341.56,0.01326
4337.71,0.01514
4333.85,0.01779
4329.99,0.01578
4326.13,0.01348
4322.28,0.01518
4318.42,0.01629
4314.56,0.01557
4310.7,0.01580
4306.85,0.01567
4302.99,0.01564
4299.13,0.01486
4295.27,0.01394
4291.42,0.01559
4287.56,0.01509
4283.7,0.01629
4279.84,0.01593
4275.99,0.01527
4272.13,0.01705
4268.27,0.01639
4264.41,0.01508
4260.56,0.01405
4256.7,0.01449
4252.84,0.01447
4248.98,0.01388
4245.13,0.01481
4241.27,0.01638
4237.41,0.01570
4233.55,0.01485
4229.7,0.01417
4225.84,0.01443
4221.98,0.01558
4218.12,0.01568
4214.27,0.01571
4210.41,0.01525
4206.55,0.01535
4202.69,0.01414
4198.84,0.01390
4194.98,0.01500
4191.12,0.01562
4187.26,0.01505
4183.41,0.01412
4179.55,0.01313
4175.69,0.01353
4171.83,0.01290
4167.98,0.01361
4164.12,0.01378
4160.26,0.01432
4156.4,0.01415
4152.55,0.01384
4148.69,0.01377
4144.83,0.01471
4140.98,0.01455
4137.12,0.01300
4133.26,0.01414
4129.4,0.01391
4125.55,0.01432
4121.69,0.01391
4117.83,0.01405
4113.97,0.01495
4110.12,0.01377
4106.26,0.01520
4102.4,0.01504
4098.54,0.01464
4094.69,0.01366
4090.83,0.01481
4086.97,0.01500
4083.11,0.01475
4079.26,0.01505
4075.4,0.01472
4071.54,0.01479
4067.68,0.01432
4063.83,0.01281
4059.97,0.01397
4056.11,0.01396
4052.25,0.01460
4048.4,0.01586
4044.54,0.01596
4040.68,0.01533
4036.82,0.01481
4032.97,0.01464
4029.11,0.01509
4025.25,0.01457
4021.39,0.01506
4017.54,0.01493
4013.68,0.01378
4009.82,0.01419
4005.96,0.01396
4002.11,0.01397
3998.25,0.01472
3994.39,0.01428
3990.53,0.01367
3986.68,0.01466
3982.82,0.01474
3978.96,0.01418
3975.1,0.01466
3971.25,0.01399
3967.39,0.01374
3963.53,0.01332
3959.67,0.01274
3955.82,0.01384
3951.96,0.01264
3948.1,0.01279
3944.25,0.01291
3940.39,0.01327
3936.53,0.01106
3932.67,0.01529
3928.82,0.01547
3924.96,0.01171
3921.1,0.00855
3917.24,0.01169
3913.39,0.01198
3909.53,0.01181
3905.67,0.01580
3901.81,0.01552
3897.96,0.01424
3894.1,0.01423
3890.24,0.01241
3886.38,0.01220
3882.53,0.01263
3878.67,0.01336
3874.81,0.01008
3870.95,0.00977
3867.1,0.01749
3863.24,0.01650
3859.38,0.00893
3855.52,0.01322
3851.67,0.01859
3847.81,0.01287
3843.95,0.01413
3840.09,0.01376
3836.24,0.01192
3832.38,0.01260
3828.52,0.01647
3824.66,0.01312
3820.81,0.01396
3816.95,0.01471
3813.09,0.01380
3809.23,0.01779
3805.38,0.01957
3801.52,0.02092
3797.66,0.01540
3793.8,0.01475
3789.95,0.01227
3786.09,0.01150
3782.23,0.01375
3778.37,0.01352
3774.52,0.01036
3770.66,0.00782
3766.8,0.00672
3762.94,0.00734
3759.09,0.01113
3755.23,0.00986
3751.37,0.01531
3747.51,0.02137
3743.66,0.01664
3739.8,0.01419
3735.94,0.02654
3732.09,0.01861
3728.23,0.00902
3724.37,0.01714
3720.51,0.01531
3716.66,0.01400
3712.8,0.02000
3708.94,0.01275
3705.08,0.01024
3701.23,0.01577
3697.37,0.01134
3693.51,0.00732
3689.65,0.01202
3685.8,0.01015
3681.94,0.01500
3678.08,0.02089
3674.22,0.02099
3670.37,0.01618
3666.51,0.00543
3662.65,0.00967
3658.79,0.01458
3654.94,0.01665
3651.08,0.02028
3647.22,0.01291
3643.36,0.01030
3639.51,0.01104
3635.65,0.01012
3631.79,0.01321
3627.93,0.01634
3624.08,0.01203
3620.22,0.01684
3616.36,0.01427
3612.5,0.01438
3608.65,0.01460
3604.79,0.00944
3600.93,0.01325
3597.07,0.01595
3593.22,0.01565
3589.36,0.01649
3585.5,0.01210
3581.64,0.00978
3577.79,0.01316
3573.93,0.01339
3570.07,0.01316
3566.21,0.01764
3562.36,0.01249
3558.5,0.01268
3554.64,0.01380
3550.78,0.01498
3546.93,0.01488
3543.07,0.01246
3539.21,0.01149
3535.36,0.01304
3531.5,0.01532
3527.64,0.01487
3523.78,0.01362
3519.93,0.01122
3516.07,0.01184
3512.21,0.01221
3508.35,0.01428
3504.5,0.01470
3500.64,0.01366
3496.78,0.01237
3492.92,0.01282
3489.07,0.01363
3485.21,0.01334
3481.35,0.01345
3477.49,0.01329
3473.64,0.01226
3469.78,0.01199
3465.92,0.01259
3462.06,0.01141
3458.21,0.01178
3454.35,0.01224
3450.49,0.01320
3446.63,0.01447
3442.78,0.01425
3438.92,0.01321
3435.06,0.01188
3431.2,0.01224
3427.35,0.01229
3423.49,0.01221
3419.63,0.01338
3415.77,0.01265
3411.92,0.01216
3408.06,0.01260
3404.2,0.01308
3400.34,0.01276
3396.49,0.01252
3392.63,0.01379
3388.77,0.01401
3384.91,0.01310
3381.06,0.01268
3377.2,0.01234
3373.34,0.01222
3369.48,0.01340
3365.63,0.01398
3361.77,0.01377
3357.91,0.01369
3354.05,0.01295
3350.2,0.01300
3346.34,0.01372
3342.48,0.01265
3338.63,0.01346
3334.77,0.01326
3330.91,0.01333
3327.05,0.01334
3323.2,0.01266
3319.34,0.01259
3315.48,0.01295
3311.62,0.01390
3307.77,0.01253
3303.91,0.01280
3300.05,0.01295
3296.19,0.01304
3292.34,0.01289
3288.48,0.01280
3284.62,0.01323
3280.76,0.01422
3276.91,0.01324
3273.05,0.01344
3269.19,0.01334
3265.33,0.01319
3261.48,0.01297
3257.62,0.01317
3253.76,0.01305
3249.9,0.01366
3246.05,0.01434
3242.19,0.01393
3238.33,0.01239
3234.47,0.01289
3230.62,0.01286
3226.76,0.01318
3222.9,0.01271
3219.04,0.01266
3215.19,0.01254
3211.33,0.01245
3207.47,0.01356
3203.61,0.01368
3199.76,0.01312
3195.9,0.01317
3192.04,0.01382
3188.18,0.01347
3184.33,0.01315
3180.47,0.01348
3176.61,0.01345
3172.75,0.01313
3168.9,0.01230
3165.04,0.01251
3161.18,0.01386
3157.32,0.01336
3153.47,0.01260
3149.61,0.01313
3145.75,0.01275
3141.89,0.01316
3138.04,0.01242
3134.18,0.01242
3130.32,0.01290
3126.47,0.01326
3122.61,0.01349
3118.75,0.01293
3114.89,0.01225
3111.04,0.01255
3107.18,0.01262
3103.32,0.01237
3099.46,0.01314
3095.61,0.01338
3091.75,0.01340
3087.89,0.01380
3084.03,0.01384
3080.18,0.01321
3076.32,0.01295
3072.46,0.01246
3068.6,0.01282
3064.75,0.01294
3060.89,0.01164
3057.03,0.00999
3053.17,0.00927
3049.32,0.00850
3045.46,0.00809
3041.6,0.00741
3037.74,0.00748
3033.89,0.00803
3030.03,0.00410
3026.17,0.00557
3022.31,0.00595
3018.46,0.00510
3014.6,0.00534
3010.74,0.00456
3006.88,0.00495
3003.03,0.00633
2999.17,0.00688
2995.31,0.00702
2991.45,0.00474
2987.6,0.00348
2983.74,0.00744
2979.88,0.00764
2976.02,0.00731
2972.17,0.00766
2968.31,0.00771
2964.45,0.00857
2960.59,0.00944
2956.74,0.01038
2952.88,0.01092
2949.02,0.01106
2945.16,0.01125
2941.31,0.01161
2937.45,0.01180
2933.59,0.01207
2929.74,0.01320
2925.88,0.01350
2922.02,0.01425
2918.16,0.01389
2914.31,0.01316
2910.45,0.01286
2906.59,0.01397
2902.73,0.01392
2898.88,0.01263
2895.02,0.01232
2891.16,0.01238
2887.3,0.01254
2883.45,0.01300
2879.59,0.01300
2875.73,0.01272
2871.87,0.01304
2868.02,0.01341
2864.16,0.01304
2860.3,0.01384
2856.44,0.01410
2852.59,0.01372
2848.73,0.01334
2844.87,0.01400
2841.01,0.01363
2837.16,0.01286
2833.3,0.01313
2829.44,0.01345
2825.58,0.01354
2821.73,0.01324
2817.87,0.01307
2814.01,0.01282
2810.15,0.01313
2806.3,0.01310
2802.44,0.01324
2798.58,0.01365
2794.72,0.01362
2790.87,0.01324
2787.01,0.01314
2783.15,0.01328
2779.29,0.01340
2775.44,0.01278
2771.58,0.01283
2767.72,0.01354
2763.86,0.01362
2760.01,0.01302
2756.15,0.01324
2752.29,0.01373
2748.43,0.01361
2744.58,0.01323
2740.72,0.01351
2736.86,0.01397
2733.01,0.01352
2729.15,0.01327
2725.29,0.01325
2721.43,0.01260
2717.58,0.01267
2713.72,0.01319
2709.86,0.01337
2706,0.01258
2702.15,0.01244
2698.29,0.01243
2694.43,0.01341
2690.57,0.01373
2686.72,0.01334
2682.86,0.01350
2679,0.01364
2675.14,0.01361
2671.29,0.01349
2667.43,0.01390
2663.57,0.01380
2659.71,0.01414
2655.86,0.01376
2652,0.01312
2648.14,0.01303
2644.28,0.01324
2640.43,0.01385
2636.57,0.01377
2632.71,0.01339
2628.85,0.01313
2625,0.01343
2621.14,0.01358
2617.28,0.01324
2613.42,0.01353
2609.57,0.01327
2605.71,0.01360
2601.85,0.01316
2597.99,0.01373
2594.14,0.01354
2590.28,0.01334
2586.42,0.01347
2582.56,0.01330
2578.71,0.01330
2574.85,0.01354
2570.99,0.01360
2567.13,0.01378
2563.28,0.01368
2559.42,0.01316
2555.56,0.01342
2551.7,0.01382
2547.85,0.01331
2543.99,0.01384
2540.13,0.01392
2536.27,0.01389
2532.42,0.01347
2528.56,0.01359
2524.7,0.01359
2520.85,0.01350
2516.99,0.01329
2513.13,0.01323
2509.27,0.01309
2505.42,0.01273
2501.56,0.01327
2497.7,0.01274
2493.84,0.01310
2489.99,0.01333
2486.13,0.01341
2482.27,0.01339
2478.41,0.01345
2474.56,0.01332
2470.7,0.01323
2466.84,0.01344
2462.98,0.01347
2459.13,0.01347
2455.27,0.01322
2451.41,0.01321
2447.55,0.01304
2443.7,0.01312
2439.84,0.01353
2435.98,0.01338
2432.12,0.01347
2428.27,0.01288
2424.41,0.01306
2420.55,0.01313
2416.69,0.01309
2412.84,0.01294
2408.98,0.01307
2405.12,0.01351
2401.26,0.01332
2397.41,0.01192
2393.55,0.00991
2389.69,0.00781
2385.83,0.00512
2381.98,0.00383
2378.12,0.00415
2374.26,0.00522
2370.4,0.00688
2366.55,0.01049
2362.69,0.02847
2358.83,0.03553
2354.97,0.02015
2351.12,0.01121
2347.26,0.01026
2343.4,0.01490
2339.54,0.01589
2335.69,0.01731
2331.83,0.01938
2327.97,0.02440
2324.12,0.02329
2320.26,0.02117
2316.4,0.01969
2312.54,0.01734
2308.69,0.01690
2304.83,0.01551
2300.97,0.01555
2297.11,0.01528
2293.26,0.01451
2289.4,0.01312
2285.54,0.01209
2281.68,0.01174
2277.83,0.01215
2273.97,0.01224
2270.11,0.01205
2266.25,0.01295
2262.4,0.01312
2258.54,0.01282
2254.68,0.01243
2250.82,0.01275
2246.97,0.01273
2243.11,0.01257
2239.25,0.01333
2235.39,0.01313
2231.54,0.01304
2227.68,0.01323
2223.82,0.01335
2219.96,0.01291
2216.11,0.01264
2212.25,0.01327
2208.39,0.01288
2204.53,0.01266
2200.68,0.01310
2196.82,0.01312
2192.96,0.01265
2189.1,0.01276
2185.25,0.01265
2181.39,0.01243
2177.53,0.01263
2173.67,0.01233
2169.82,0.01263
2165.96,0.01286
2162.1,0.01266
2158.24,0.01313
2154.39,0.01348
2150.53,0.01339
2146.67,0.01317
2142.81,0.01351
2138.96,0.01255
2135.1,0.01255
2131.24,0.01293
2127.38,0.01327
2123.53,0.01334
2119.67,0.01301
2115.81,0.01273
2111.96,0.01216
2108.1,0.01248
2104.24,0.01233
2100.38,0.01243
2096.53,0.01234
2092.67,0.01229
2088.81,0.01270
2084.95,0.01253
2081.1,0.01237
2077.24,0.01247
2073.38,0.01278
2069.52,0.01255
2065.67,0.01298
2061.81,0.01240
2057.95,0.01219
2054.09,0.01216
2050.24,0.01221
2046.38,0.01295
2042.52,0.01377
2038.66,0.01335
2034.81,0.01313
2030.95,0.01287
2027.09,0.01220
2023.23,0.01276
2019.38,0.01279
2015.52,0.01277
2011.66,0.01250
2007.8,0.01155
2003.95,0.01169
2000.09,0.01189
1996.23,0.01287
1992.37,0.01410
1988.52,0.01400
1984.66,0.01304
1980.8,0.01231
1976.94,0.01211
1973.09,0.01255
1969.23,0.01352
1965.37,0.01306
1961.51,0.01272
1957.66,0.01268
1953.8,0.01171
1949.94,0.01208
1946.08,0.01341
1942.23,0.01436
1938.37,0.01334
1934.51,0.01236
1930.65,0.01070
1926.8,0.01098
1922.94,0.01368
1919.08,0.01383
1915.23,0.01326
1911.37,0.01331
1907.51,0.01349
1903.65,0.01221
1899.8,0.01152
1895.94,0.01210
1892.08,0.01276
1888.22,0.01409
1884.37,0.01316
1880.51,0.01097
1876.65,0.00936
1872.79,0.01274
1868.94,0.01687
1865.08,0.01395
1861.22,0.01209
1857.36,0.01098
1853.51,0.00880
1849.65,0.01121
1845.79,0.01487
1841.93,0.01299
1838.08,0.00928
1834.22,0.00955
1830.36,0.01407
1826.5,0.01512
1822.65,0.01278
1818.79,0.01038
1814.93,0.01129
1811.07,0.01105
1807.22,0.00992
1803.36,0.01001
1799.5,0.01034
1795.64,0.01335
1791.79,0.01487
1787.93,0.01043
1784.07,0.00940
1780.21,0.00759
1776.36,0.01104
1772.5,0.01658
1768.64,0.01185
1764.78,0.01034
1760.93,0.01016
1757.07,0.00684
1753.21,0.00837
1749.35,0.01209
1745.5,0.01059
1741.64,0.00816
1737.78,0.01293
1733.92,0.02121
1730.07,0.01389
1726.21,0.00604
1722.35,0.00779
1718.5,0.01883
1714.64,0.01339
1710.78,0.00731
1706.92,0.00699
1703.07,0.01140
1699.21,0.02228
1695.35,0.01179
1691.49,0.00532
1687.64,0.01134
1683.78,0.01619
1679.92,0.00905
1676.06,0.00981
1672.21,0.01402
1668.35,0.01377
1664.49,0.01056
1660.63,0.00540
1656.78,0.00755
1652.92,0.01688
1649.06,0.01726
1645.2,0.01127
1641.35,0.00901
1637.49,0.01580
1633.63,0.01149
1629.77,0.00892
1625.92,0.00984
1622.06,0.01215
1618.2,0.01501
1614.34,0.01360
1610.49,0.01199
1606.63,0.01173
1602.77,0.01163
1598.91,0.01136
1595.06,0.01233
1591.2,0.01179
1587.34,0.00992
1583.48,0.00721
1579.63,0.00921
1575.77,0.01175
1571.91,0.01104
1568.05,0.00622
1564.2,0.00475
1560.34,0.01653
1556.48,0.01893
1552.62,0.00817
1548.77,0.00407
1544.91,0.00964
1541.05,0.02211
1537.19,0.01515
1533.34,0.00957
1529.48,0.00649
1525.62,0.00996
1521.76,0.01626
1517.91,0.01094
1514.05,0.00494
1510.19,0.01467
1506.34,0.02297
1502.48,0.01003
1498.62,0.01011
1494.76,0.00980
1490.91,0.01502
1487.05,0.01347
1483.19,0.00696
1479.33,0.00597
1475.48,0.01318
1471.62,0.01255
1467.76,0.00834
1463.9,0.00562
1460.05,0.01056
1456.19,0.01530
1452.33,0.00950
1448.47,0.00910
1444.62,0.00539
1440.76,0.00383
1436.9,0.00401
1433.04,0.00267
1429.19,0.00170
1425.33,0.00063
1421.47,0.00191
1417.61,0.00348
1413.76,0.00252
1409.9,0.00140
1406.04,0.00123
1402.18,0.00271
1398.33,0.00452
1394.47,0.00577
1390.61,0.00591
1386.75,0.00677
1382.9,0.00504
1379.04,0.00432
1375.18,0.00512
1371.32,0.00507
1367.47,0.00437
1363.61,0.00643
1359.75,0.00657
1355.89,0.00715
1352.04,0.00810
1348.18,0.00758
1344.32,0.00728
1340.46,0.01109
1336.61,0.01117
1332.75,0.01043
1328.89,0.01018
1325.03,0.00985
1321.18,0.01041
1317.32,0.01103
1313.46,0.01177
1309.61,0.01108
1305.75,0.01061
1301.89,0.01009
1298.03,0.01050
1294.18,0.01062
1290.32,0.01065
1286.46,0.01100
1282.6,0.01136
1278.75,0.01148
1274.89,0.01067
1271.03,0.01103
1267.17,0.01058
1263.32,0.01163
1259.46,0.01190
1255.6,0.01199
1251.74,0.01191
1247.89,0.01193
1244.03,0.01217
1240.17,0.01174
1236.31,0.01170
1232.46,0.01182
1228.6,0.01201
1224.74,0.01121
1220.88,0.01084
1217.03,0.01111
1213.17,0.01084
1209.31,0.01136
1205.45,0.01047
1201.6,0.01101
1197.74,0.01038
1193.88,0.00913
1190.02,0.00865
1186.17,0.00844
1182.31,0.00699
1178.45,0.00523
1174.59,0.00597
1170.74,0.00510
1166.88,0.00469
1163.02,0.00260
1159.16,0.00148
1155.31,0.00001
1151.45,0.00001
1147.59,0.00075
1143.73,0.00044
1139.88,0.00024
1136.02,0.00001
1132.16,0.00001
1128.3,0.00085
1124.45,0.00257
1120.59,0.00282
1116.73,0.00389
1112.88,0.00488
1109.02,0.00677
1105.16,0.00856
1101.3,0.00783
1097.45,0.00743
1093.59,0.00843
1089.73,0.00857
1085.87,0.00929
1082.02,0.01035
1078.16,0.01043
1074.3,0.01132
1070.44,0.01214
1066.59,0.01074
1062.73,0.01009
1058.87,0.01131
1055.01,0.01270
1051.16,0.01289
1047.3,0.01124
1043.44,0.01177
1039.58,0.01093
1035.73,0.01111
1031.87,0.01197
1028.01,0.01193
1024.15,0.01299
1020.3,0.01217
1016.44,0.01074
1012.58,0.01228
1008.72,0.01307
1004.87,0.01338
1001.01,0.01391
997.151,0.01315
993.294,0.01303
989.437,0.01133
985.579,0.00886
981.722,0.00797
977.864,0.00700
974.007,0.00647
970.149,0.00534
966.292,0.00369
962.434,0.00254
958.577,0.00168
954.719,0.00178
950.862,0.00067
947.005,0.00216
943.147,0.00203
939.29,0.00139
935.432,0.00078
931.575,0.00134
927.717,0.00389
923.86,0.00567
920.002,0.00669
916.145,0.00630
912.287,0.00887
908.43,0.00857
904.573,0.00950
900.715,0.00898
896.858,0.00880
893,0.00789
889.143,0.00782
885.285,0.00945
881.428,0.00855
877.57,0.00824
873.713,0.00762
869.856,0.00802
865.998,0.00978
862.141,0.00882
858.283,0.00976
854.426,0.00956
850.568,0.00940
846.711,0.01019
842.853,0.01150
838.996,0.01169
835.138,0.01135
831.281,0.01065
827.424,0.01003
823.566,0.01018
819.709,0.01033
815.851,0.00958
811.994,0.00904
808.136,0.01094
804.279,0.01030
800.421,0.01158
796.564,0.01134
792.706,0.01042
788.849,0.01091
784.992,0.01156
781.134,0.01221
777.277,0.01060
773.419,0.01110
769.562,0.01107
765.704,0.01217
761.847,0.01096
757.989,0.00955
754.132,0.00876
750.274,0.00807
746.417,0.01097
742.56,0.01066
738.702,0.01109
734.845,0.01135
730.987,0.01071
727.13,0.01024
723.272,0.00892
719.415,0.01006
715.557,0.00962
711.7,0.00995
707.843,0.01002
703.985,0.00836
700.128,0.00983
696.27,0.01109
692.413,0.01069
688.555,0.01114
684.698,0.01166
680.84,0.00827
676.983,0.00891
673.125,0.00781
669.268,0.01614
665.411,0.01030
661.553,0.00691
657.696,0.00665
653.838,0.00678
649.981,0.01227
646.123,0.01488
642.266,0.01390
638.408,0.00997
634.551,0.01216
630.693,0.00989
626.836,0.00760
622.979,0.00986
619.121,0.00921
615.264,0.01129
611.406,0.00981
607.549,0.01179
603.691,0.01152
599.834,0.01068
595.976,0.00971
592.119,0.00777
588.261,0.00909
584.404,0.00853
580.547,0.00833
576.689,0.00494
572.832,0.00695
568.974,0.01029
565.117,0.01110
561.259,0.00940
557.402,0.01248
553.544,0.01336
549.687,0.00932
545.83,0.00774
541.972,0.00756
538.115,0.00401
534.257,0.01029
530.4,0.01224
526.542,0.00937
522.685,0.01289
518.827,0.00884
514.97,0.00553
511.112,0.00848
507.255,0.01004
503.398,0.01005
499.54,0.00790
495.683,0.00803
491.825,0.01085
487.968,0.00043
484.11,0.00525
480.253,0.00844
476.395,0.01573
472.538,0.01931
468.68,0.00837
464.823,0.00846
460.966,0.00013
457.108,0.01065
453.251,0.01097
449.393,0.00320
445.536,0.00626
441.678,0.01233
437.821,0.00782
433.963,0.00848
430.106,0.01489
426.248,0.01536
422.391,0.00858
418.534,0.02346
414.676,0.01905
410.819,0.02258
406.961,0.01162
403.104,0.00522
399.246,0.00001