File: 01_Data/Cotton_Ball/STA/N2/30K_min/Cotton_Ball_STA_N2_30KData_210714_R3.csv
##Temp./Â°C,Time/min,Mass loss(subtr.2)/mg,DSC(subtr.2)/(mW/mg),Sensit./(uV/mW)
50.665,10.00917,-0.05364,0.02438077,0.6235
51.265,11.00922,-0.05288006,0.04877094,0.62349
51.865,11.21798,-0.05979657,0.06911718,0.62349
52.465,11.36404,-0.05380678,0.08633436,0.62348
53.065,11.47725,-0.05372057,0.10721,0.62347
53.665,11.57235,-0.0534388,0.12083,0.62346
54.265,11.6562,-0.05211673,0.13782,0.62346
54.865,11.731,-0.05805754,0.15198,0.62345
55.465,11.79907,-0.04720117,0.1672,0.62344
56.065,11.86278,-0.05210692,0.18016,0.62342
56.665,11.92195,-0.0550565,0.19083,0.62341
57.265,11.97786,-0.0618058,0.20551,0.6234
57.865,12.0311,-0.06661212,0.21261,0.62339
58.465,12.08191,-0.04286457,0.226,0.62338
59.065,12.1306,-0.05360814,0.23784,0.62336
59.665,12.17735,-0.05498965,0.24774,0.62335
60.265,12.22222,-0.05643579,0.25737,0.62333
60.865,12.26566,-0.056988,0.26739,0.62332
61.465,12.30844,-0.05670317,0.27915,0.6233
62.065,12.35007,-0.05723637,0.28524,0.62329
62.665,12.39078,-0.05605832,0.29597,0.62327
63.265,12.43045,-0.05686716,0.30335,0.62325
63.865,12.46888,-0.05682125,0.31078,0.62324
64.465,12.50677,-0.05693583,0.32019,0.62322
65.065,12.5435,-0.05716792,0.32986,0.6232
65.665,12.58042,-0.0580094,0.3383,0.62318
66.265,12.61663,-0.05814783,0.34671,0.62316
66.865,12.6523,-0.05888749,0.35332,0.62314
67.465,12.6875,-0.06004687,0.36238,0.62312
68.065,12.72171,-0.05268591,0.37178,0.6231
68.665,12.75582,-0.04985126,0.37656,0.62308
69.265,12.7898,-0.06913252,0.38481,0.62305
69.865,12.82372,-0.06875809,0.39559,0.62303
70.465,12.85692,-0.06110931,0.4006,0.62301
71.065,12.8896,-0.05986623,0.40892,0.62298
71.665,12.922,-0.06071328,0.41585,0.62296
72.265,12.95429,-0.06096568,0.42375,0.62293
72.865,12.986,-0.06047239,0.43034,0.62291
73.465,13.0176,-0.06066918,0.43739,0.62288
74.065,13.04902,-0.06230876,0.44343,0.62285
74.665,13.08033,-0.06382756,0.44947,0.62283
75.265,13.11139,-0.06315769,0.45638,0.6228
75.865,13.14207,-0.06324326,0.46496,0.62277
76.465,13.17252,-0.07008309,0.46986,0.62274
77.065,13.2027,-0.07303893,0.47706,0.62271
77.665,13.23286,-0.05754067,0.48207,0.62268
78.265,13.26283,-0.05825923,0.49195,0.62265
78.865,13.29261,-0.06519407,0.4994,0.62262
79.465,13.3222,-0.06618444,0.50459,0.62259
80.065,13.3515,-0.06733732,0.50994,0.62256
80.665,13.3806,-0.06735043,0.52024,0.62252
81.265,13.40962,-0.06734624,0.5267,0.62249
81.865,13.43851,-0.06918816,0.53146,0.62246
82.465,13.46735,-0.07072898,0.53896,0.62242
83.065,13.49606,-0.07198498,0.54511,0.62239
83.665,13.52452,-0.07354233,0.55259,0.62235
84.265,13.5528,-0.07225462,0.55942,0.62232
84.865,13.58068,-0.07305643,0.56538,0.62228
85.465,13.60825,-0.07377039,0.57412,0.62224
86.065,13.63589,-0.07422795,0.58114,0.62221
86.665,13.66354,-0.07512496,0.58825,0.62217
87.265,13.6912,-0.0751785,0.59595,0.62213
87.865,13.7188,-0.0738323,0.60502,0.62209
88.465,13.7459,-0.0748663,0.60991,0.62205
89.065,13.7729,-0.07514685,0.61803,0.62201
89.665,13.7998,-0.07514031,0.62506,0.62197
90.265,13.82647,-0.07676839,0.63202,0.62193
90.865,13.85302,-0.07793224,0.6389,0.62189
91.465,13.87934,-0.07810012,0.64461,0.62185
92.065,13.90569,-0.07809308,0.65023,0.62181
92.665,13.93183,-0.07831201,0.66004,0.62176
93.265,13.9579,-0.07942216,0.66794,0.62172
93.865,13.9838,-0.07937293,0.6733,0.62168
94.465,14.0095,-0.08075003,0.68064,0.62163
95.065,14.0351,-0.08073584,0.6862,0.62159
95.665,14.0604,-0.0821134,0.69024,0.62154
96.265,14.0858,-0.08342282,0.69706,0.62149
96.865,14.11111,-0.08350315,0.70286,0.62145
97.465,14.1364,-0.08467847,0.71025,0.6214
98.065,14.16155,-0.08604061,0.71768,0.62135
98.665,14.18643,-0.08730268,0.72347,0.62131
99.265,14.2111,-0.08732038,0.73023,0.62126
99.865,14.23575,-0.08732362,0.73869,0.62121
100.465,14.26041,-0.08819686,0.74274,0.62116
101.065,14.28478,-0.08990698,0.75043,0.62111
101.665,14.3091,-0.09027624,0.75462,0.62106
102.265,14.3332,-0.09124084,0.75772,0.62101
102.865,14.35728,-0.09122805,0.76571,0.62095
103.465,14.38132,-0.09263401,0.76941,0.6209
104.065,14.40521,-0.09316139,0.77436,0.62085
104.665,14.4291,-0.09389135,0.77779,0.6208
105.265,14.4529,-0.09514062,0.78436,0.62074
105.865,14.4767,-0.096572,0.79265,0.62069
106.465,14.50017,-0.09659651,0.79759,0.62063
107.065,14.52374,-0.09786928,0.80308,0.62058
107.665,14.54716,-0.09832977,0.80651,0.62052
108.265,14.57045,-0.0992371,0.81046,0.62047
108.865,14.5938,-0.10065,0.81801,0.62041
109.465,14.61692,-0.10208,0.82014,0.62035
110.065,14.63989,-0.10274,0.82528,0.6203
110.665,14.6629,-0.10404,0.82913,0.62024
111.265,14.6857,-0.10532,0.83187,0.62018
111.865,14.7085,-0.10645,0.83791,0.62012
112.465,14.7313,-0.10777,0.84093,0.62006
113.065,14.75394,-0.10912,0.84525,0.62
113.665,14.77641,-0.11044,0.84758,0.61994
114.265,14.79894,-0.11046,0.85046,0.61988
114.865,14.8214,-0.111,0.85443,0.61982
115.465,14.8437,-0.11174,0.85717,0.61976
116.065,14.866,-0.11177,0.85911,0.61969
116.665,14.88817,-0.11177,0.86262,0.61963
117.265,14.9102,-0.11177,0.86628,0.61957
117.865,14.93219,-0.11254,0.86665,0.6195
118.465,14.9541,-0.11443,0.87053,0.61944
119.065,14.97575,-0.11435,0.87361,0.61938
119.665,14.99729,-0.11682,0.87574,0.61931
120.265,15.0189,-0.11702,0.87745,0.61924
120.865,15.0405,-0.11847,0.88016,0.61918
121.465,15.06218,-0.11909,0.88162,0.61911
122.065,15.0839,-0.11975,0.88138,0.61904
122.665,15.10545,-0.12078,0.88416,0.61898
123.265,15.12685,-0.12109,0.88702,0.61891
123.865,15.14825,-0.1211,0.88816,0.61884
124.465,15.16955,-0.1211,0.88897,0.61877
125.065,15.19072,-0.12127,0.88894,0.6187
125.665,15.2118,-0.12391,0.89156,0.61863
126.265,15.23272,-0.12401,0.8942,0.61856
126.865,15.2536,-0.12521,0.89561,0.61849
127.465,15.2745,-0.12524,0.89435,0.61842
128.065,15.29527,-0.12654,0.89324,0.61834
128.665,15.3161,-0.12642,0.89535,0.61827
129.265,15.3369,-0.1277,0.89773,0.6182
129.865,15.3575,-0.12779,0.89691,0.61813
130.465,15.37824,-0.1278,0.8959,0.61805
131.065,15.3988,-0.12842,0.89665,0.61798
131.665,15.4193,-0.1291,0.89726,0.6179
132.265,15.4398,-0.13044,0.8978,0.61783
132.865,15.4602,-0.13042,0.89785,0.61775
133.465,15.4804,-0.13041,0.90002,0.61768
134.065,15.5007,-0.13121,0.89817,0.6176
134.665,15.5209,-0.13171,0.89978,0.61752
135.265,15.5411,-0.13258,0.89825,0.61744
135.865,15.56122,-0.13318,0.89743,0.61737
136.465,15.5813,-0.13467,0.89661,0.61729
137.065,15.60123,-0.13549,0.89866,0.61721
137.665,15.6212,-0.13598,0.89617,0.61713
138.265,15.64104,-0.13712,0.89589,0.61705
138.865,15.6608,-0.13712,0.89154,0.61697
139.465,15.6806,-0.13849,0.8911,0.61689
140.065,15.7004,-0.13843,0.89337,0.61681
140.665,15.72013,-0.13843,0.88909,0.61672
141.265,15.73981,-0.13842,0.88759,0.61664
141.865,15.75946,-0.13944,0.88892,0.61656
142.465,15.779,-0.13975,0.88816,0.61648
143.065,15.79849,-0.13976,0.88377,0.61639
143.665,15.8179,-0.14062,0.88563,0.61631
144.265,15.83741,-0.14106,0.88591,0.61622
144.865,15.8568,-0.14105,0.88388,0.61614
145.465,15.8762,-0.14097,0.88474,0.61605
146.065,15.8956,-0.14234,0.88361,0.61597
146.665,15.9148,-0.14237,0.8824,0.61588
147.265,15.93401,-0.14238,0.87874,0.61579
147.865,15.95318,-0.14253,0.88144,0.61571
148.465,15.9723,-0.14465,0.87839,0.61562
149.065,15.99138,-0.145,0.87769,0.61553
149.665,16.01053,-0.14501,0.8784,0.61544
150.265,16.02956,-0.14501,0.87815,0.61535
150.865,16.04861,-0.14501,0.87665,0.61526
151.465,16.0676,-0.14624,0.87873,0.61517
152.065,16.08659,-0.14705,0.87653,0.61508
152.665,16.1056,-0.14766,0.87087,0.61499
153.265,16.12453,-0.14773,0.86902,0.6149
153.865,16.14349,-0.14906,0.8676,0.61481
154.465,16.1624,-0.14897,0.86895,0.61472
155.065,16.18129,-0.14898,0.86588,0.61462
155.665,16.20008,-0.15031,0.86218,0.61453
156.265,16.21892,-0.15027,0.86309,0.61444
156.865,16.2377,-0.15027,0.85816,0.61434
157.465,16.2564,-0.15027,0.85939,0.61425
158.065,16.27511,-0.15027,0.86013,0.61415
158.665,16.29381,-0.15027,0.85704,0.61406
159.265,16.31243,-0.15027,0.85649,0.61396
159.865,16.331,-0.15027,0.8559,0.61387
160.465,16.34967,-0.15027,0.8534,0.61377
161.065,16.36823,-0.15085,0.85116,0.61367
161.665,16.38681,-0.15161,0.8515,0.61358
162.265,16.40541,-0.15159,0.85019,0.61348
162.865,16.4239,-0.15242,0.84729,0.61338
163.465,16.44238,-0.15288,0.83906,0.61328
164.065,16.4608,-0.15291,0.83608,0.61318
164.665,16.47927,-0.15291,0.83721,0.61308
165.265,16.49767,-0.15291,0.83845,0.61298
165.865,16.51609,-0.15291,0.83563,0.61288
166.465,16.5345,-0.15291,0.83544,0.61278
167.065,16.5529,-0.15291,0.83726,0.61268
167.665,16.57115,-0.15513,0.83924,0.61258
168.265,16.58946,-0.15555,0.83798,0.61248
168.865,16.60772,-0.15555,0.83718,0.61237
169.465,16.626,-0.15555,0.83654,0.61227
170.065,16.6443,-0.15555,0.83533,0.61217
170.665,16.66254,-0.15555,0.83723,0.61206
171.265,16.68071,-0.15555,0.8364,0.61196
171.865,16.69889,-0.15555,0.83576,0.61185
172.465,16.71707,-0.15555,0.84027,0.61175
173.065,16.73517,-0.15555,0.83824,0.61164
173.665,16.7533,-0.15556,0.83861,0.61154
174.265,16.77147,-0.155,0.84113,0.61143
174.865,16.78956,-0.15424,0.83747,0.61132
175.465,16.80762,-0.15422,0.83797,0.61122
176.065,16.8257,-0.15502,0.84041,0.61111
176.665,16.84362,-0.15516,0.84082,0.611
177.265,16.8615,-0.15557,0.843,0.61089
177.865,16.87944,-0.15554,0.84246,0.61078
178.465,16.89732,-0.15555,0.84346,0.61067
179.065,16.91518,-0.15582,0.84455,0.61056
179.665,16.9331,-0.15789,0.84444,0.61045
180.265,16.951,-0.15817,0.84499,0.61034
180.865,16.96883,-0.15818,0.84586,0.61023
181.465,16.98668,-0.15834,0.84575,0.61012
182.065,17.00443,-0.15958,0.84899,0.61001
182.665,17.02214,-0.1595,0.84489,0.6099
183.265,17.03987,-0.1591,0.84796,0.60978
183.865,17.0576,-0.15815,0.84733,0.60967
184.465,17.07529,-0.15817,0.84736,0.60956
185.065,17.093,-0.15818,0.84772,0.60944
185.665,17.11068,-0.15817,0.84997,0.60933
186.265,17.12839,-0.15876,0.849,0.60922
186.865,17.14609,-0.15983,0.85024,0.6091
187.465,17.1637,-0.16018,0.84887,0.60899
188.065,17.18127,-0.16014,0.85176,0.60887
188.665,17.19884,-0.16014,0.85141,0.60875
189.265,17.21637,-0.16014,0.8511,0.60864
189.865,17.23389,-0.16014,0.85881,0.60852
190.465,17.25134,-0.16014,0.85592,0.6084
191.065,17.2688,-0.16014,0.86167,0.60828
191.665,17.2863,-0.16014,0.86286,0.60817
192.265,17.3036,-0.16015,0.86429,0.60805
192.865,17.32099,-0.16015,0.86813,0.60793
193.465,17.33843,-0.16016,0.86584,0.60781
194.065,17.35582,-0.16053,0.86941,0.60769
194.665,17.37323,-0.16167,0.87115,0.60757
195.265,17.39057,-0.16079,0.87536,0.60745
195.865,17.40791,-0.16025,0.87354,0.60733
196.465,17.42522,-0.16059,0.87916,0.60721
197.065,17.44254,-0.16164,0.87579,0.60708
197.665,17.45983,-0.16162,0.87933,0.60696
198.265,17.47709,-0.16283,0.88224,0.60684
198.865,17.4944,-0.16396,0.8807,0.60672
199.465,17.51163,-0.1642,0.88088,0.60659
200.065,17.52881,-0.16421,0.88586,0.60647
200.665,17.546,-0.1643,0.88383,0.60635
201.265,17.56325,-0.16298,0.887,0.60622
201.865,17.58043,-0.16289,0.88903,0.6061
202.465,17.59763,-0.16289,0.88925,0.60597
203.065,17.6148,-0.1629,0.89213,0.60585
203.665,17.6319,-0.16302,0.89322,0.60572
204.265,17.64905,-0.1642,0.89652,0.60559
204.865,17.6661,-0.16286,0.89894,0.60547
205.465,17.68321,-0.15923,0.89958,0.60534
206.065,17.70032,-0.15531,0.90238,0.60521
206.665,17.71742,-0.15443,0.90276,0.60508
207.265,17.73447,-0.15477,0.90574,0.60496
207.865,17.75154,-0.15675,0.90835,0.60483
208.465,17.7686,-0.15875,0.90862,0.6047
209.065,17.78568,-0.16087,0.91124,0.60457
209.665,17.80272,-0.16282,0.91021,0.60444
210.265,17.81974,-0.16339,0.91328,0.60431
210.865,17.83672,-0.16422,0.91872,0.60418
211.465,17.8537,-0.16795,0.92299,0.60405
212.065,17.87063,-0.17418,0.92533,0.60392
212.665,17.88759,-0.18113,0.92198,0.60378
213.265,17.9045,-0.18141,0.92876,0.60365
213.865,17.92149,-0.176,0.92992,0.60352
214.465,17.93843,-0.17304,0.92751,0.60339
215.065,17.95541,-0.16981,0.92624,0.60325
215.665,17.97233,-0.16876,0.92864,0.60312
216.265,17.9893,-0.16891,0.92944,0.60299
216.865,18.00621,-0.16857,0.92787,0.60285
217.465,18.0231,-0.1684,0.93087,0.60272
218.065,18.03996,-0.16726,0.93296,0.60258
218.665,18.0568,-0.16712,0.93461,0.60245
219.265,18.07366,-0.16592,0.93307,0.60231
219.865,18.09055,-0.16733,0.93656,0.60218
220.465,18.10741,-0.16728,0.93784,0.60204
221.065,18.12425,-0.16761,0.93835,0.6019
221.665,18.1411,-0.16791,0.93806,0.60177
222.265,18.15801,-0.16793,0.93969,0.60163
222.865,18.1749,-0.16793,0.94193,0.60149
223.465,18.19165,-0.16793,0.9419,0.60135
224.065,18.2085,-0.16793,0.94102,0.60122
224.665,18.22524,-0.16794,0.94438,0.60108
225.265,18.24201,-0.16737,0.94139,0.60094
225.865,18.25874,-0.16756,0.94528,0.6008
226.465,18.27555,-0.16829,0.94755,0.60066
227.065,18.2923,-0.16822,0.94725,0.60052
227.665,18.3091,-0.16892,0.94616,0.60038
228.265,18.32592,-0.16856,0.94799,0.60024
228.865,18.3427,-0.16839,0.94841,0.60009
229.465,18.3594,-0.16837,0.94971,0.59995
230.065,18.3761,-0.1685,0.94962,0.59981
230.665,18.3928,-0.16979,0.94829,0.59967
231.265,18.40941,-0.16969,0.948,0.59953
231.865,18.42609,-0.16969,0.94963,0.59938
232.465,18.4428,-0.16968,0.95223,0.59924
233.065,18.45949,-0.16968,0.95497,0.5991
233.665,18.47614,-0.17038,0.9526,0.59895
234.265,18.49285,-0.17102,0.95461,0.59881
234.865,18.5095,-0.17101,0.95654,0.59866
235.465,18.5261,-0.1711,0.95708,0.59852
236.065,18.54276,-0.17337,0.95426,0.59837
236.665,18.5594,-0.17364,0.95782,0.59823
237.265,18.57605,-0.17364,0.96124,0.59808
237.865,18.59265,-0.17365,0.95942,0.59793
238.465,18.6093,-0.1733,0.96105,0.59779
239.065,18.62574,-0.17225,0.96285,0.59764
239.665,18.64226,-0.17231,0.96333,0.59749
240.265,18.65886,-0.17232,0.96753,0.59735
240.865,18.67547,-0.17332,0.96716,0.5972
241.465,18.69209,-0.17362,0.96757,0.59705
242.065,18.70883,-0.17364,0.9677,0.5969
242.665,18.72551,-0.17354,0.9704,0.59675
243.265,18.74211,-0.17482,0.96994,0.5966
243.865,18.7587,-0.17496,0.97318,0.59645
244.465,18.77524,-0.17506,0.97327,0.5963
245.065,18.79176,-0.17637,0.97515,0.59615
245.665,18.8083,-0.17628,0.97512,0.596
246.265,18.82486,-0.17636,0.97856,0.59585
246.865,18.84139,-0.17767,0.97726,0.5957
247.465,18.85794,-0.17759,0.98154,0.59555
248.065,18.87439,-0.17761,0.981,0.59539
248.665,18.89086,-0.17771,0.98003,0.59524
249.265,18.9073,-0.17891,0.98144,0.59509
249.865,18.92385,-0.1793,0.98182,0.59494
250.465,18.94031,-0.1803,0.98278,0.59478
251.065,18.95682,-0.17911,0.98797,0.59463
251.665,18.9734,-0.17903,0.99132,0.59448
252.265,18.9899,-0.17901,0.99324,0.59432
252.865,19.0064,-0.17943,0.98974,0.59417
253.465,19.02293,-0.18062,0.99168,0.59401
254.065,19.0394,-0.1809,0.99301,0.59386
254.665,19.0559,-0.18193,0.99277,0.5937
255.265,19.0724,-0.18181,0.99307,0.59355
255.865,19.08885,-0.18283,0.99206,0.59339
256.465,19.10529,-0.18315,0.9931,0.59323
257.065,19.12175,-0.18411,0.99163,0.59308
257.665,19.1382,-0.18471,0.99145,0.59292
258.265,19.1546,-0.18593,0.99356,0.59276
258.865,19.17107,-0.18621,0.99366,0.5926
259.465,19.18737,-0.18707,0.9936,0.59245
260.065,19.20374,-0.18757,0.99358,0.59229
260.665,19.22018,-0.18756,0.99512,0.59213
261.265,19.2366,-0.18802,0.9942,0.59197
261.865,19.25311,-0.18896,0.9958,0.59181
262.465,19.26959,-0.18892,0.99539,0.59165
263.065,19.2862,-0.1902,0.99014,0.59149
263.665,19.30261,-0.19035,0.99734,0.59133
264.265,19.319,-0.19173,0.99172,0.59117
264.865,19.33545,-0.19309,0.99359,0.59101
265.465,19.35184,-0.19433,0.99607,0.59085
266.065,19.36831,-0.19584,0.99676,0.59069
266.665,19.3847,-0.1976,0.99296,0.59053
267.265,19.40113,-0.19909,0.99514,0.59037
267.865,19.41753,-0.19936,0.99568,0.5902
268.465,19.43391,-0.20065,0.99331,0.59004
269.065,19.45029,-0.20196,0.99173,0.58988
269.665,19.46666,-0.20368,0.99183,0.58972
270.265,19.48305,-0.20412,0.98925,0.58955
270.865,19.49943,-0.20658,0.98931,0.58939
271.465,19.51582,-0.20843,0.9893,0.58922
272.065,19.53221,-0.21013,0.98715,0.58906
272.665,19.5486,-0.21305,0.98745,0.5889
273.265,19.565,-0.215,0.98901,0.58873
273.865,19.58138,-0.21649,0.98224,0.58857
274.465,19.59777,-0.21794,0.98393,0.5884
275.065,19.6142,-0.21862,0.98229,0.58824
275.665,19.63053,-0.21992,0.97694,0.58807
276.265,19.64697,-0.2215,0.97513,0.5879
276.865,19.6633,-0.22115,0.97376,0.58774
277.465,19.67971,-0.2224,0.97155,0.58757
278.065,19.69611,-0.22406,0.96862,0.5874
278.665,19.71248,-0.22647,0.96752,0.58724
279.265,19.72883,-0.22877,0.96194,0.58707
279.865,19.74521,-0.23028,0.94976,0.5869
280.465,19.76153,-0.23261,0.94527,0.58673
281.065,19.77794,-0.23498,0.9434,0.58656
281.665,19.79431,-0.23647,0.93717,0.58639
282.265,19.81074,-0.23841,0.93286,0.58623
282.865,19.82714,-0.24034,0.93057,0.58606
283.465,19.84357,-0.24257,0.92411,0.58589
284.065,19.86,-0.24017,0.91915,0.58572
284.665,19.87633,-0.23551,0.91225,0.58555
285.265,19.8927,-0.23327,0.91132,0.58538
285.865,19.909,-0.24034,0.90869,0.58521
286.465,19.92541,-0.25182,0.90631,0.58503
287.065,19.94173,-0.26442,0.90024,0.58486
287.665,19.95806,-0.26858,0.89477,0.58469
288.265,19.97446,-0.26861,0.88702,0.58452
288.865,19.9908,-0.26781,0.87984,0.58435
289.465,20.00713,-0.2679,0.87505,0.58418
290.065,20.02347,-0.26837,0.86897,0.584
290.665,20.03981,-0.27026,0.86215,0.58383
291.265,20.05617,-0.27298,0.85479,0.58366
291.865,20.07251,-0.27645,0.85009,0.58348
292.465,20.08888,-0.27986,0.84534,0.58331
293.065,20.1052,-0.28445,0.83822,0.58314
293.665,20.1216,-0.28788,0.83274,0.58296
294.265,20.13794,-0.29246,0.82674,0.58279
294.865,20.15428,-0.29571,0.81827,0.58261
295.465,20.17065,-0.29954,0.81248,0.58244
296.065,20.187,-0.30382,0.80291,0.58226
296.665,20.2033,-0.30796,0.79631,0.58209
297.265,20.21968,-0.31319,0.78764,0.58191
297.865,20.236,-0.31711,0.78046,0.58174
298.465,20.25232,-0.32205,0.77407,0.58156
299.065,20.26866,-0.32664,0.76859,0.58138
299.665,20.285,-0.33072,0.75896,0.58121
300.265,20.30136,-0.33514,0.75308,0.58103
300.865,20.31771,-0.33884,0.74264,0.58085
301.465,20.33411,-0.34482,0.7323,0.58068
302.065,20.35046,-0.35054,0.72707,0.5805
302.665,20.36678,-0.35653,0.72118,0.58032
303.265,20.3831,-0.3624,0.71626,0.58014
303.865,20.39944,-0.36677,0.70905,0.57996
304.465,20.4158,-0.37232,0.70168,0.57979
305.065,20.43212,-0.37761,0.69753,0.57961
305.665,20.44848,-0.38431,0.6891,0.57943
306.265,20.4649,-0.38774,0.68308,0.57925
306.865,20.4812,-0.38764,0.67714,0.57907
307.465,20.4975,-0.38915,0.67272,0.57889
308.065,20.51379,-0.39629,0.67171,0.57871
308.665,20.5301,-0.41291,0.66695,0.57853
309.265,20.54637,-0.43209,0.66189,0.57835
309.865,20.56269,-0.44462,0.66251,0.57817
310.465,20.57907,-0.45025,0.65727,0.57799
311.065,20.5955,-0.45332,0.6555,0.5778
311.665,20.61185,-0.45904,0.65313,0.57762
312.265,20.6282,-0.46489,0.65349,0.57744
312.865,20.6446,-0.47404,0.64995,0.57726
313.465,20.6609,-0.48246,0.64707,0.57708
314.065,20.6772,-0.4916,0.64614,0.57689
314.665,20.69351,-0.50183,0.64466,0.57671
315.265,20.70986,-0.51145,0.6458,0.57653
315.865,20.7262,-0.52242,0.64591,0.57635
316.465,20.74257,-0.53145,0.64818,0.57616
317.065,20.75893,-0.54211,0.65114,0.57598
317.665,20.77528,-0.55357,0.65004,0.57579
318.265,20.7916,-0.56301,0.65431,0.57561
318.865,20.80794,-0.57461,0.65638,0.57543
319.465,20.8243,-0.58391,0.65676,0.57524
320.065,20.8406,-0.59653,0.66021,0.57506
320.665,20.85698,-0.60952,0.66315,0.57487
321.265,20.8734,-0.62121,0.6697,0.57469
321.865,20.88975,-0.63507,0.67161,0.5745
322.465,20.90612,-0.64573,0.67385,0.57432
323.065,20.92246,-0.66034,0.67892,0.57413
323.665,20.93887,-0.67414,0.68847,0.57394
324.265,20.95516,-0.68765,0.69078,0.57376
324.865,20.97156,-0.70358,0.69649,0.57357
325.465,20.9879,-0.71584,0.70165,0.57338
326.065,21.00429,-0.73188,0.70527,0.5732
326.665,21.02063,-0.74618,0.71344,0.57301
327.265,21.037,-0.76196,0.71992,0.57282
327.865,21.0534,-0.78039,0.72551,0.57264
328.465,21.0698,-0.7954,0.73074,0.57245
329.065,21.08614,-0.81467,0.73775,0.57226
329.665,21.10254,-0.83062,0.74825,0.57207
330.265,21.1189,-0.84895,0.75472,0.57188
330.865,21.1353,-0.86917,0.76368,0.57169
331.465,21.1516,-0.88699,0.77201,0.57151
332.065,21.16793,-0.90997,0.7772,0.57132
332.665,21.18429,-0.9281,0.78752,0.57113
333.265,21.2006,-0.95033,0.79581,0.57094
333.865,21.217,-0.97335,0.80501,0.57075
334.465,21.23333,-0.99446,0.81665,0.57056
335.065,21.24971,-1.02085,0.82601,0.57037
335.665,21.26608,-1.04087,0.8381,0.57018
336.265,21.28244,-1.06651,0.84852,0.56999
336.865,21.29876,-1.09107,0.86117,0.5698
337.465,21.3151,-1.11614,0.87262,0.56961
338.065,21.33141,-1.14734,0.88318,0.56941
338.665,21.34781,-1.17168,0.89827,0.56922
339.265,21.36414,-1.20247,0.91274,0.56903
339.865,21.38053,-1.22948,0.92702,0.56884
340.465,21.39684,-1.25911,0.94255,0.56865
341.065,21.41314,-1.29389,0.95907,0.56846
341.665,21.42942,-1.32255,0.97646,0.56826
342.265,21.44572,-1.36028,0.99262,0.56807
342.865,21.46201,-1.39126,1.01098,0.56788
343.465,21.47832,-1.42602,1.03015,0.56769
344.065,21.4947,-1.46414,1.0483,0.56749
344.665,21.511,-1.49644,1.06698,0.5673
345.265,21.52733,-1.53855,1.08531,0.56711
345.865,21.54368,-1.57252,1.10305,0.56691
346.465,21.55998,-1.61199,1.1232,0.56672
347.065,21.57633,-1.65324,1.14743,0.56652
347.665,21.5927,-1.69207,1.16471,0.56633
348.265,21.609,-1.73863,1.18507,0.56614
348.865,21.62538,-1.80237,1.20694,0.56594
349.465,21.64166,-1.85091,1.22516,0.56575
350.065,21.65803,-1.88446,1.24376,0.56555
350.665,21.67425,-1.92403,1.26076,0.56536
351.265,21.69055,-1.96827,1.28001,0.56516
351.865,21.70691,-2.01736,1.2956,0.56497
352.465,21.7233,-2.06409,1.30766,0.56477
353.065,21.7397,-2.11036,1.32357,0.56457
353.665,21.75615,-2.1577,1.33784,0.56438
354.265,21.7727,-2.20602,1.3479,0.56418
354.865,21.78914,-2.25354,1.35226,0.56399
355.465,21.80542,-2.29994,1.35651,0.56379
356.065,21.82185,-2.34672,1.36466,0.56359
356.665,21.83832,-2.39455,1.36969,0.5634
357.265,21.85484,-2.44302,1.3732,0.5632
357.865,21.87132,-2.49042,1.37267,0.563
358.465,21.88792,-2.53778,1.37182,0.5628
359.065,21.90457,-2.58427,1.36758,0.56261
359.665,21.92115,-2.63036,1.35987,0.56241
360.265,21.93771,-2.67573,1.34777,0.56221
360.865,21.95431,-2.72108,1.33889,0.56201
361.465,21.97097,-2.76609,1.32561,0.56181
362.065,21.98767,-2.81047,1.3095,0.56162
362.665,22.0043,-2.8535,1.29485,0.56142
363.265,22.021,-2.89547,1.27582,0.56122
363.865,22.0377,-2.93662,1.25504,0.56102
364.465,22.05435,-2.97787,1.23484,0.56082
365.065,22.07102,-3.01904,1.21151,0.56062
365.665,22.08772,-3.05695,1.18136,0.56042
366.265,22.10446,-3.09815,1.15417,0.56022
366.865,22.12122,-3.12636,1.13084,0.56002
367.465,22.13796,-3.16314,1.10049,0.55982
368.065,22.1547,-3.19341,1.06981,0.55962
368.665,22.17154,-3.22773,1.03648,0.55942
369.265,22.18836,-3.25952,1.00522,0.55922
369.865,22.20515,-3.28824,0.97198,0.55902
370.465,22.222,-3.32092,0.93509,0.55882
371.065,22.2389,-3.34552,0.90066,0.55862
371.665,22.2558,-3.37499,0.86597,0.55842
372.265,22.27265,-3.39853,0.8316,0.55822
372.865,22.2896,-3.42366,0.79708,0.55801
373.465,22.3065,-3.44788,0.75929,0.55781
374.065,22.32348,-3.46863,0.72123,0.55761
374.665,22.34038,-3.49256,0.68446,0.55741
375.265,22.35727,-3.5105,0.64541,0.55721
375.865,22.3742,-3.53153,0.60851,0.55701
376.465,22.39112,-3.54858,0.57341,0.5568
377.065,22.40798,-3.56556,0.53649,0.5566
377.665,22.42494,-3.5826,0.50106,0.5564
378.265,22.44191,-3.59514,0.46508,0.5562
378.865,22.45885,-3.61017,0.43111,0.55599
379.465,22.4758,-3.62184,0.39746,0.55579
380.065,22.4928,-3.63555,0.36484,0.55559
380.665,22.50978,-3.64685,0.33583,0.55538
381.265,22.52673,-3.6569,0.30612,0.55518
381.865,22.54371,-3.66759,0.27652,0.55498
382.465,22.56072,-3.67647,0.24935,0.55477
383.065,22.5777,-3.6873,0.22212,0.55457
383.665,22.5947,-3.69415,0.19565,0.55436
384.265,22.61174,-3.70184,0.17221,0.55416
384.865,22.6288,-3.70943,0.14501,0.55396
385.465,22.64575,-3.71637,0.12713,0.55375
386.065,22.66273,-3.72298,0.10545,0.55355
386.665,22.67974,-3.7281,0.08093169,0.55334
387.265,22.69674,-3.73457,0.06840459,0.55314
387.865,22.71378,-3.73937,0.05095535,0.55293
388.465,22.73076,-3.74368,0.03089962,0.55273
389.065,22.7478,-3.7471,0.01730803,0.55252
389.665,22.76478,-3.75032,0.005513073,0.55232
390.265,22.78182,-3.75497,-0.005129175,0.55211
390.865,22.79884,-3.75822,-0.01412481,0.55191
391.465,22.81586,-3.76187,-0.02434067,0.5517
392.065,22.8329,-3.7646,-0.0324286,0.55149
392.665,22.84996,-3.76869,-0.03960445,0.55129
393.265,22.867,-3.76947,-0.04901534,0.55108
393.865,22.88397,-3.77142,-0.05482857,0.55088
394.465,22.90101,-3.77304,-0.06115019,0.55067
395.065,22.918,-3.77585,-0.06590255,0.55046
395.665,22.93509,-3.77919,-0.07333292,0.55026
396.265,22.95216,-3.78157,-0.0737724,0.55005
396.865,22.9693,-3.78541,-0.07722499,0.54984
397.465,22.9863,-3.78872,-0.08217195,0.54963
398.065,23.00335,-3.79016,-0.08715656,0.54943
398.665,23.02039,-3.79111,-0.09047385,0.54922
399.265,23.03741,-3.79282,-0.09382534,0.54901
399.865,23.05445,-3.79587,-0.09802466,0.54881
400.465,23.07149,-3.799,-0.10035,0.5486
401.065,23.08858,-3.80069,-0.10238,0.54839
401.665,23.10568,-3.80153,-0.1044,0.54818
402.265,23.1228,-3.80356,-0.10706,0.54797
402.865,23.13985,-3.80452,-0.11011,0.54777
403.465,23.157,-3.8062,-0.11521,0.54756
404.065,23.1742,-3.80772,-0.11632,0.54735
404.665,23.19135,-3.80951,-0.11614,0.54714
405.265,23.20852,-3.8116,-0.12077,0.54693
405.865,23.2257,-3.81446,-0.12214,0.54672
406.465,23.24287,-3.81674,-0.1229,0.54651
407.065,23.25996,-3.81972,-0.12695,0.54631
407.665,23.27712,-3.82131,-0.12864,0.5461
408.265,23.29426,-3.82245,-0.13315,0.54589
408.865,23.31145,-3.82373,-0.13411,0.54568
409.465,23.32866,-3.82592,-0.13582,0.54547
410.065,23.34573,-3.82872,-0.13746,0.54526
410.665,23.36277,-3.83111,-0.14291,0.54505
411.265,23.37989,-3.83252,-0.14382,0.54484
411.865,23.39708,-3.83432,-0.14469,0.54463
412.465,23.41424,-3.83615,-0.14468,0.54442
413.065,23.43153,-3.83794,-0.15093,0.54421
413.665,23.44889,-3.83998,-0.15312,0.544
414.265,23.46617,-3.84155,-0.15574,0.54379
414.865,23.48341,-3.84306,-0.15702,0.54358
415.465,23.5006,-3.84567,-0.15979,0.54337
416.065,23.51784,-3.84887,-0.16168,0.54316
416.665,23.53507,-3.85088,-0.16458,0.54295
417.265,23.55232,-3.85211,-0.16569,0.54274
417.865,23.56952,-3.85304,-0.16847,0.54253
418.465,23.58679,-3.85407,-0.16918,0.54232
419.065,23.60407,-3.85523,-0.17565,0.54211
419.665,23.62129,-3.85667,-0.17604,0.54189
420.265,23.63855,-3.85872,-0.17815,0.54168
420.865,23.65581,-3.86047,-0.18131,0.54147
421.465,23.67306,-3.86228,-0.18313,0.54126
422.065,23.6903,-3.8641,-0.18428,0.54105
422.665,23.70753,-3.86723,-0.18523,0.54084
423.265,23.72476,-3.8688,-0.18983,0.54063
423.865,23.74203,-3.87098,-0.19116,0.54041
424.465,23.7593,-3.87337,-0.19138,0.5402
425.065,23.77665,-3.8753,-0.19395,0.53999
425.665,23.79397,-3.87721,-0.19593,0.53978
426.265,23.81131,-3.87999,-0.19674,0.53957
426.865,23.82865,-3.88197,-0.19751,0.53935
427.465,23.84595,-3.88372,-0.19826,0.53914
428.065,23.86329,-3.88518,-0.1998,0.53893
428.665,23.88065,-3.88702,-0.20422,0.53872
429.265,23.89795,-3.88802,-0.20463,0.5385
429.865,23.9153,-3.88913,-0.20332,0.53829
430.465,23.93262,-3.88961,-0.20753,0.53808
431.065,23.94995,-3.89164,-0.21089,0.53787
431.665,23.9673,-3.89359,-0.21098,0.53765
432.265,23.98469,-3.89471,-0.21298,0.53744
432.865,24.002,-3.89546,-0.21526,0.53723
433.465,24.0194,-3.89706,-0.21823,0.53701
434.065,24.03677,-3.89886,-0.22042,0.5368
434.665,24.05414,-3.89987,-0.22342,0.53659
435.265,24.07154,-3.9005,-0.22468,0.53637
435.865,24.08902,-3.90283,-0.22785,0.53616
436.465,24.1065,-3.90542,-0.22799,0.53595
437.065,24.12394,-3.9077,-0.22942,0.53573
437.665,24.14141,-3.91035,-0.22897,0.53552
438.265,24.15888,-3.91258,-0.23302,0.53531
438.865,24.17633,-3.91417,-0.23471,0.53509
439.465,24.19377,-3.91557,-0.23482,0.53488
440.065,24.21125,-3.91696,-0.23578,0.53466
440.665,24.2287,-3.91861,-0.23878,0.53445
441.265,24.2462,-3.92036,-0.2405,0.53424
441.865,24.26367,-3.9221,-0.24163,0.53402
442.465,24.28115,-3.92356,-0.2399,0.53381
443.065,24.29862,-3.92507,-0.2415,0.53359
443.665,24.3161,-3.92613,-0.24459,0.53338
444.265,24.33363,-3.92759,-0.2433,0.53317
444.865,24.3511,-3.92852,-0.24638,0.53295
445.465,24.36862,-3.93001,-0.24641,0.53274
446.065,24.38619,-3.93181,-0.24475,0.53252
446.665,24.40369,-3.93403,-0.24607,0.53231
447.265,24.42119,-3.93605,-0.24612,0.53209
447.865,24.43873,-3.93781,-0.24805,0.53188
448.465,24.4563,-3.93992,-0.24682,0.53166
449.065,24.47383,-3.9425,-0.24883,0.53145
449.665,24.49144,-3.94427,-0.2487,0.53123
450.265,24.50906,-3.94606,-0.25062,0.53102
450.865,24.5267,-3.94665,-0.25214,0.5308
451.465,24.5442,-3.94803,-0.25348,0.53059
452.065,24.56181,-3.94958,-0.25602,0.53037
452.665,24.57937,-3.95113,-0.25751,0.53016
453.265,24.597,-3.95291,-0.25919,0.52994
453.865,24.6146,-3.95434,-0.26016,0.52973
454.465,24.63222,-3.95523,-0.26174,0.52951
455.065,24.64984,-3.95674,-0.26096,0.52929
455.665,24.66745,-3.9584,-0.26256,0.52908
456.265,24.68508,-3.96062,-0.2645,0.52886
456.865,24.70269,-3.96309,-0.26907,0.52865
457.465,24.72036,-3.96601,-0.26814,0.52843
458.065,24.73807,-3.96856,-0.27008,0.52822
458.665,24.75574,-3.96905,-0.27622,0.528
459.265,24.77345,-3.97052,-0.27947,0.52778
459.865,24.79117,-3.97216,-0.27888,0.52757
460.465,24.8089,-3.9739,-0.2782,0.52735
461.065,24.8265,-3.97561,-0.27857,0.52714
461.665,24.84429,-3.97748,-0.28039,0.52692
462.265,24.86199,-3.97916,-0.27838,0.5267
462.865,24.87971,-3.98043,-0.28173,0.52649
463.465,24.8975,-3.98231,-0.28209,0.52627
464.065,24.91519,-3.98512,-0.28254,0.52606
464.665,24.93294,-3.98615,-0.28334,0.52584
465.265,24.9507,-3.98553,-0.28376,0.52562
465.865,24.96846,-3.98581,-0.28501,0.52541
466.465,24.98617,-3.98649,-0.28463,0.52519
467.065,25.00391,-3.98927,-0.28371,0.52497
467.665,25.02159,-3.99237,-0.28443,0.52476
468.265,25.0394,-3.99425,-0.28518,0.52454
468.865,25.05715,-3.99613,-0.28546,0.52432
469.465,25.0749,-3.99783,-0.2868,0.52411
470.065,25.09277,-3.99914,-0.28592,0.52389
470.665,25.11061,-4.00086,-0.28493,0.52367
471.265,25.12839,-4.0026,-0.28507,0.52346
471.865,25.14621,-4.00338,-0.28528,0.52324
472.465,25.1641,-4.00378,-0.28466,0.52302
473.065,25.18189,-4.00471,-0.28587,0.52281
473.665,25.1997,-4.00579,-0.28652,0.52259
474.265,25.21751,-4.00669,-0.28537,0.52237
474.865,25.23534,-4.00786,-0.28584,0.52216
475.465,25.25316,-4.01008,-0.28763,0.52194
476.065,25.27104,-4.01188,-0.28802,0.52172
476.665,25.28894,-4.01251,-0.28628,0.52151
477.265,25.30687,-4.01351,-0.28589,0.52129
477.865,25.32473,-4.01647,-0.28731,0.52107
478.465,25.34261,-4.01868,-0.29034,0.52085
479.065,25.3605,-4.02069,-0.28786,0.52064
479.665,25.3784,-4.022,-0.2869,0.52042
480.265,25.3964,-4.02345,-0.2848,0.5202
480.865,25.4144,-4.0252,-0.28421,0.51998
481.465,25.43232,-4.02586,-0.28483,0.51977
482.065,25.4502,-4.0269,-0.28677,0.51955
482.665,25.46817,-4.02891,-0.28419,0.51933
483.265,25.4861,-4.03106,-0.28522,0.51912
483.865,25.504,-4.03296,-0.28431,0.5189
484.465,25.5219,-4.03458,-0.28183,0.51868
485.065,25.53987,-4.03577,-0.2814,0.51846
485.665,25.55784,-4.03689,-0.28461,0.51825
486.265,25.5758,-4.03842,-0.28487,0.51803
486.865,25.59374,-4.04004,-0.28654,0.51781
487.465,25.6117,-4.04038,-0.28398,0.51759
488.065,25.62968,-4.0415,-0.28515,0.51738
488.665,25.6477,-4.04204,-0.28318,0.51716
489.265,25.66572,-4.04285,-0.2822,0.51694
489.865,25.68374,-4.04278,-0.28267,0.51672
490.465,25.7018,-4.04373,-0.28071,0.51651
491.065,25.7199,-4.04429,-0.28257,0.51629
491.665,25.73789,-4.0459,-0.28338,0.51607
492.265,25.75587,-4.04766,-0.28353,0.51585
492.865,25.77391,-4.04957,-0.28189,0.51564
493.465,25.79191,-4.05089,-0.28244,0.51542
494.065,25.8099,-4.05234,-0.2828,0.5152
494.665,25.828,-4.05412,-0.28346,0.51498
495.265,25.84616,-4.0545,-0.28413,0.51476
495.865,25.86423,-4.05562,-0.28482,0.51455
496.465,25.8823,-4.05699,-0.28585,0.51433
497.065,25.90032,-4.0582,-0.28214,0.51411
497.665,25.91841,-4.06017,-0.28565,0.51389
498.265,25.9364,-4.06223,-0.28602,0.51368
498.865,25.9545,-4.06364,-0.28707,0.51346
499.465,25.97268,-4.06424,-0.28563,0.51324
500.065,25.9908,-4.06478,-0.28348,0.51302
500.665,26.00894,-4.06529,-0.28074,0.5128
501.265,26.0271,-4.06625,-0.28275,0.51259
501.865,26.04522,-4.06733,-0.28475,0.51237
502.465,26.06331,-4.06966,-0.28678,0.51215
503.065,26.08149,-4.07174,-0.28731,0.51193
503.665,26.0996,-4.07292,-0.28782,0.51172
504.265,26.1177,-4.07339,-0.28737,0.5115
504.865,26.13588,-4.07459,-0.28664,0.51128
505.465,26.15408,-4.07475,-0.28348,0.51106
506.065,26.1723,-4.07502,-0.28329,0.51084
506.665,26.1905,-4.07632,-0.28606,0.51063
507.265,26.20873,-4.07779,-0.2863,0.51041
507.865,26.22695,-4.07825,-0.28717,0.51019
508.465,26.24519,-4.07928,-0.28484,0.50997
509.065,26.26336,-4.08063,-0.28454,0.50975
509.665,26.28156,-4.08238,-0.28322,0.50954
510.265,26.2997,-4.08401,-0.28271,0.50932
510.865,26.31795,-4.08474,-0.28301,0.5091
511.465,26.3362,-4.08588,-0.28211,0.50888
512.065,26.3544,-4.0859,-0.28308,0.50867
512.665,26.3726,-4.08724,-0.28323,0.50845
513.265,26.3909,-4.08726,-0.2837,0.50823
513.865,26.40914,-4.08845,-0.28258,0.50801
514.465,26.4274,-4.08845,-0.28319,0.50779
515.065,26.4457,-4.08857,-0.28183,0.50758
515.665,26.46395,-4.08987,-0.28513,0.50736
516.265,26.48225,-4.0899,-0.2821,0.50714
516.865,26.50055,-4.0912,-0.28121,0.50692
517.465,26.5188,-4.09225,-0.28218,0.50671
518.065,26.53711,-4.093,-0.28326,0.50649
518.665,26.55544,-4.09464,-0.28234,0.50627
519.265,26.5737,-4.09591,-0.28079,0.50605
519.865,26.5921,-4.09762,-0.28277,0.50583
520.465,26.61042,-4.10058,-0.28492,0.50562
521.065,26.6288,-4.10151,-0.28435,0.5054
521.665,26.6471,-4.10315,-0.28082,0.50518
522.265,26.6654,-4.10418,-0.27913,0.50496
522.865,26.68372,-4.10465,-0.27849,0.50475
523.465,26.70205,-4.10449,-0.27819,0.50453
524.065,26.7204,-4.10618,-0.27843,0.50431
524.665,26.7388,-4.10608,-0.27992,0.50409
525.265,26.75719,-4.10673,-0.28169,0.50388
525.865,26.7756,-4.10817,-0.28138,0.50366
526.465,26.794,-4.10902,-0.28005,0.50344
527.065,26.8124,-4.10949,-0.27871,0.50322
527.665,26.8308,-4.11149,-0.27702,0.50301
528.265,26.8492,-4.11202,-0.27725,0.50279
528.865,26.8676,-4.11284,-0.28087,0.50257
529.465,26.88604,-4.11371,-0.28297,0.50235
530.065,26.90448,-4.11395,-0.28523,0.50214
530.665,26.9229,-4.11518,-0.28295,0.50192
531.265,26.9413,-4.1152,-0.28192,0.5017
531.865,26.95979,-4.11647,-0.28055,0.50148
532.465,26.9782,-4.11739,-0.28054,0.50127
533.065,26.99663,-4.11879,-0.27984,0.50105
533.665,27.015,-4.1201,-0.27936,0.50083
534.265,27.03333,-4.12099,-0.27904,0.50062
534.865,27.0518,-4.12244,-0.2784,0.5004
535.465,27.07028,-4.12426,-0.27945,0.50018
536.065,27.0888,-4.12419,-0.28049,0.49996
536.665,27.10738,-4.12545,-0.28083,0.49975
537.265,27.126,-4.12546,-0.28048,0.49953
537.865,27.1445,-4.12665,-0.28443,0.49931
538.465,27.16303,-4.12681,-0.28318,0.49909
539.065,27.18155,-4.12862,-0.28252,0.49888
539.665,27.2001,-4.12848,-0.28249,0.49866
540.265,27.2186,-4.1291,-0.28256,0.49844
540.865,27.23715,-4.12982,-0.28224,0.49823
541.465,27.2556,-4.12982,-0.28297,0.49801
542.065,27.27412,-4.13019,-0.2861,0.49779
542.665,27.2925,-4.13182,-0.28818,0.49758
543.265,27.311,-4.13267,-0.2853,0.49736
543.865,27.3296,-4.13363,-0.28618,0.49714
544.465,27.3481,-4.13388,-0.28387,0.49693
545.065,27.36676,-4.13524,-0.28356,0.49671
545.665,27.3854,-4.13638,-0.28522,0.49649
546.265,27.4039,-4.13682,-0.28561,0.49628
546.865,27.42248,-4.13848,-0.28615,0.49606
547.465,27.44107,-4.13838,-0.2862,0.49584
548.065,27.4597,-4.1397,-0.28502,0.49563
548.665,27.47823,-4.13964,-0.28372,0.49541
549.265,27.4968,-4.14097,-0.28527,0.49519
549.865,27.5154,-4.14103,-0.28763,0.49498
550.465,27.53401,-4.14169,-0.28732,0.49476
551.065,27.55258,-4.14165,-0.28777,0.49454
551.665,27.57126,-4.14165,-0.28831,0.49433
552.265,27.5899,-4.14299,-0.29104,0.49411
552.865,27.60853,-4.14356,-0.28951,0.4939
553.465,27.6272,-4.14422,-0.29027,0.49368
554.065,27.64582,-4.14557,-0.29033,0.49346
554.665,27.66447,-4.1456,-0.28837,0.49325
555.265,27.6831,-4.14564,-0.28995,0.49303
555.865,27.70178,-4.147,-0.29309,0.49281
556.465,27.72043,-4.14696,-0.29322,0.4926
557.065,27.73909,-4.14845,-0.29475,0.49238
557.665,27.75775,-4.14838,-0.29535,0.49217
558.265,27.77641,-4.14973,-0.29606,0.49195
558.865,27.795,-4.14952,-0.29502,0.49174
559.465,27.8137,-4.1498,-0.29523,0.49152
560.065,27.8324,-4.14973,-0.29653,0.4913
560.665,27.8511,-4.15058,-0.29692,0.49109
561.265,27.86968,-4.15108,-0.30009,0.49087
561.865,27.8882,-4.15108,-0.30167,0.49066
562.465,27.9069,-4.15222,-0.30208,0.49044
563.065,27.9257,-4.15236,-0.30369,0.49023
563.665,27.9444,-4.15229,-0.30442,0.49001
564.265,27.9632,-4.15442,-0.30331,0.4898
564.865,27.9821,-4.15522,-0.30346,0.48958
565.465,28.00083,-4.15669,-0.30347,0.48936
566.065,28.01952,-4.1578,-0.30438,0.48915
566.665,28.03823,-4.15851,-0.30919,0.48893
567.265,28.057,-4.15853,-0.30778,0.48872
567.865,28.07569,-4.15865,-0.30887,0.4885
568.465,28.0944,-4.15995,-0.31138,0.48829
569.065,28.11324,-4.16003,-0.31039,0.48807
569.665,28.132,-4.16145,-0.31049,0.48786
570.265,28.1508,-4.16188,-0.31475,0.48764
570.865,28.16958,-4.1628,-0.31358,0.48743
571.465,28.1884,-4.16417,-0.31457,0.48722
572.065,28.20717,-4.16422,-0.316,0.487
572.665,28.22597,-4.16423,-0.31792,0.48679
573.265,28.24483,-4.16424,-0.32226,0.48657
573.865,28.2636,-4.16445,-0.32491,0.48636
574.465,28.28247,-4.1656,-0.32164,0.48614
575.065,28.30129,-4.1655,-0.32264,0.48593
575.665,28.32015,-4.16655,-0.32365,0.48571
576.265,28.339,-4.16556,-0.32936,0.4855
576.865,28.3578,-4.16556,-0.32855,0.48529
577.465,28.37661,-4.16558,-0.32989,0.48507
578.065,28.39544,-4.16615,-0.3331,0.48486
578.665,28.41425,-4.16702,-0.33253,0.48464
579.265,28.4331,-4.16732,-0.33637,0.48443
579.865,28.45198,-4.16831,-0.33726,0.48422
580.465,28.47079,-4.1683,-0.34147,0.484
581.065,28.48964,-4.16867,-0.33939,0.48379
581.665,28.5085,-4.17034,-0.34009,0.48357
582.265,28.52727,-4.17261,-0.34389,0.48336
582.865,28.54607,-4.17316,-0.34163,0.48315
583.465,28.565,-4.17427,-0.34316,0.48293
584.065,28.58383,-4.17422,-0.34622,0.48272
584.665,28.6028,-4.17422,-0.34698,0.48251
585.265,28.62179,-4.17422,-0.34714,0.48229
585.865,28.6408,-4.17424,-0.34847,0.48208
586.465,28.6597,-4.17353,-0.35327,0.48187
587.065,28.6786,-4.17289,-0.35017,0.48165
587.665,28.6975,-4.17425,-0.35164,0.48144
588.265,28.7164,-4.17445,-0.35295,0.48123
588.865,28.73535,-4.17595,-0.35465,0.48101
589.465,28.7543,-4.17579,-0.35542,0.4808
590.065,28.7733,-4.17709,-0.3561,0.48059
590.665,28.79229,-4.1772,-0.36091,0.48038
591.265,28.81127,-4.17858,-0.36209,0.48016
591.865,28.83023,-4.1785,-0.3651,0.47995
592.465,28.8492,-4.1785,-0.36381,0.47974
593.065,28.86818,-4.1785,-0.36845,0.47953
593.665,28.88717,-4.18016,-0.36723,0.47931
594.265,28.9062,-4.18114,-0.36842,0.4791
594.865,28.92522,-4.18108,-0.36955,0.47889
595.465,28.9442,-4.18218,-0.36988,0.47868
596.065,28.9631,-4.18242,-0.36994,0.47846
596.665,28.9821,-4.18241,-0.37281,0.47825
597.265,29.001,-4.18327,-0.37373,0.47804
597.865,29.0199,-4.18385,-0.37062,0.47783
598.465,29.039,-4.18483,-0.37083,0.47762
599.065,29.05807,-4.1853,-0.36956,0.47741
599.665,29.077,-4.18577,-0.37368,0.47719
600.265,29.096,-4.18666,-0.37397,0.47698
600.865,29.1151,-4.18694,-0.37827,0.47677
601.465,29.1341,-4.18798,-0.37494,0.47656
602.065,29.1531,-4.18793,-0.37557,0.47635
602.665,29.1723,-4.18793,-0.37829,0.47614
603.265,29.19135,-4.18794,-0.38223,0.47593
603.865,29.21035,-4.1893,-0.3848,0.47571
604.465,29.22937,-4.18925,-0.38268,0.4755
605.065,29.2485,-4.19051,-0.38097,0.47529
605.665,29.2675,-4.19055,-0.38277,0.47508
606.265,29.28668,-4.19056,-0.38338,0.47487
606.865,29.3058,-4.19056,-0.38361,0.47466
607.465,29.3249,-4.19063,-0.38694,0.47445
608.065,29.344,-4.19224,-0.38675,0.47424
608.665,29.36311,-4.19252,-0.38982,0.47403
609.265,29.38213,-4.1962,-0.39188,0.47382
609.865,29.40118,-4.19986,-0.39545,0.47361
610.465,29.42023,-4.20007,-0.39504,0.4734
611.065,29.4393,-4.19379,-0.39887,0.47319
611.665,29.4584,-4.18853,-0.39705,0.47298
612.265,29.4776,-4.18824,-0.39849,0.47277
612.865,29.4968,-4.19177,-0.39744,0.47256
613.465,29.516,-4.19356,-0.39789,0.47235
614.065,29.5351,-4.19456,-0.39976,0.47214
614.665,29.5543,-4.19585,-0.4003,0.47193
615.265,29.57338,-4.19713,-0.39901,0.47172
615.865,29.59255,-4.19798,-0.40324,0.47151
616.465,29.61167,-4.19897,-0.40325,0.4713
617.065,29.6307,-4.19902,-0.40107,0.47109
617.665,29.64974,-4.19817,-0.40712,0.47088
618.265,29.66886,-4.19759,-0.40862,0.47067
618.865,29.68802,-4.19658,-0.41072,0.47046
619.465,29.7073,-4.1966,-0.4137,0.47025
620.065,29.72659,-4.19662,-0.41518,0.47005
620.665,29.74567,-4.19717,-0.41474,0.46984
621.265,29.7649,-4.19915,-0.41483,0.46963
621.865,29.78402,-4.19938,-0.41515,0.46942
622.465,29.80317,-4.20072,-0.41424,0.46921
623.065,29.8224,-4.20039,-0.41669,0.469
623.665,29.8417,-4.19934,-0.41863,0.46879
624.265,29.8607,-4.19936,-0.41781,0.46859
624.865,29.87978,-4.20203,-0.41918,0.46838
625.465,29.899,-4.20197,-0.41878,0.46817
626.065,29.91815,-4.20192,-0.41524,0.46796
626.665,29.93737,-4.20327,-0.41885,0.46775
627.265,29.95676,-4.20328,-0.41811,0.46755
627.865,29.976,-4.20316,-0.41868,0.46734
628.465,29.99527,-4.20223,-0.4199,0.46713
629.065,30.0144,-4.20322,-0.41821,0.46692
629.665,30.0337,-4.20488,-0.41853,0.46672
630.265,30.05292,-4.20522,-0.42053,0.46651
630.865,30.0721,-4.20643,-0.42057,0.4663
631.465,30.0912,-4.20599,-0.42358,0.4661
632.065,30.1105,-4.20489,-0.42679,0.46589
632.665,30.12978,-4.20396,-0.42979,0.46568
633.265,30.14905,-4.20395,-0.43103,0.46547
633.865,30.16835,-4.20394,-0.42984,0.46527
634.465,30.18763,-4.20486,-0.42736,0.46506
635.065,30.20692,-4.20492,-0.43043,0.46485
635.665,30.22618,-4.20492,-0.43012,0.46465
636.265,30.24548,-4.20487,-0.43493,0.46444
636.865,30.2646,-4.20626,-0.44001,0.46424
637.465,30.28371,-4.20994,-0.4438,0.46403
638.065,30.30302,-4.21451,-0.43727,0.46382
638.665,30.3223,-4.21384,-0.43643,0.46362
639.265,30.34163,-4.20779,-0.43503,0.46341
639.865,30.3611,-4.20415,-0.43328,0.46321
640.465,30.38055,-4.20437,-0.43399,0.463
641.065,30.3998,-4.20684,-0.43631,0.46279
641.665,30.41913,-4.20844,-0.44269,0.46259
642.265,30.4384,-4.20877,-0.44257,0.46238
642.865,30.4578,-4.2087,-0.44373,0.46218
643.465,30.4771,-4.20982,-0.4439,0.46197
644.065,30.49642,-4.21048,-0.44126,0.46177
644.665,30.5157,-4.21109,-0.44133,0.46156
645.265,30.53513,-4.21108,-0.4415,0.46136
645.865,30.55443,-4.21108,-0.44047,0.46115
646.465,30.57372,-4.21107,-0.44132,0.46095
647.065,30.59311,-4.21101,-0.44357,0.46074
647.665,30.6125,-4.21237,-0.44246,0.46054
648.265,30.63185,-4.21271,-0.44009,0.46034
648.865,30.6512,-4.2127,-0.44227,0.46013
649.465,30.6706,-4.21352,-0.44204,0.45993
650.065,30.6899,-4.21469,-0.44173,0.45972
650.665,30.7092,-4.21469,-0.44034,0.45952
651.265,30.72863,-4.21469,-0.44469,0.45932
651.865,30.7481,-4.21469,-0.44366,0.45911
652.465,30.76752,-4.21469,-0.45422,0.45891
653.065,30.7869,-4.21469,-0.45294,0.45871
653.665,30.80619,-4.21469,-0.45345,0.4585
654.265,30.8256,-4.21469,-0.45303,0.4583
654.865,30.84498,-4.2147,-0.4504,0.4581
655.465,30.8644,-4.21592,-0.45093,0.45789
656.065,30.8838,-4.21663,-0.44888,0.45769
656.665,30.9033,-4.21667,-0.44897,0.45749
657.265,30.9228,-4.21667,-0.45203,0.45728
657.865,30.9422,-4.21667,-0.45228,0.45708
658.465,30.96165,-4.21667,-0.45589,0.45688
659.065,30.98113,-4.21667,-0.45169,0.45668
659.665,31.0006,-4.21664,-0.45341,0.45647
660.265,31.01997,-4.21771,-0.45298,0.45627
660.865,31.0394,-4.21798,-0.45274,0.45607
661.465,31.0589,-4.21734,-0.45421,0.45587
662.065,31.07838,-4.21693,-0.45495,0.45567
662.665,31.09784,-4.21801,-0.45687,0.45546
663.265,31.11727,-4.21787,-0.45326,0.45526
663.865,31.1368,-4.2207,-0.45312,0.45506
664.465,31.1561,-4.22221,-0.45477,0.45486
665.065,31.1756,-4.22256,-0.45815,0.45466
665.665,31.1951,-4.22256,-0.45941,0.45446
666.265,31.2146,-4.22209,-0.45769,0.45426
666.865,31.2341,-4.22127,-0.46166,0.45405
667.465,31.25361,-4.22128,-0.46359,0.45385
668.065,31.27307,-4.22132,-0.46614,0.45365
668.665,31.2926,-4.2227,-0.46743,0.45345
669.265,31.31203,-4.22261,-0.47116,0.45325
669.865,31.3315,-4.2226,-0.4744,0.45305
670.465,31.351,-4.22259,-0.47679,0.45285
671.065,31.3705,-4.22255,-0.47918,0.45265
671.665,31.39003,-4.22126,-0.47896,0.45245
672.265,31.40953,-4.22128,-0.47881,0.45225
672.865,31.42907,-4.22128,-0.48377,0.45205
673.465,31.4486,-4.22125,-0.48668,0.45185
674.065,31.4682,-4.22284,-0.48682,0.45165
674.665,31.48772,-4.22394,-0.48715,0.45145
675.265,31.5073,-4.22391,-0.4859,0.45125
675.865,31.52682,-4.22389,-0.48485,0.45105
676.465,31.54634,-4.2232,-0.48687,0.45085
677.065,31.56587,-4.22254,-0.48802,0.45066
677.665,31.5854,-4.22373,-0.49187,0.45046
678.265,31.6049,-4.22399,-0.49743,0.45026
678.865,31.62446,-4.22265,-0.49896,0.45006
679.465,31.644,-4.22259,-0.49606,0.44986
680.065,31.6637,-4.22251,-0.49164,0.44966
680.665,31.68327,-4.22381,-0.49493,0.44946
681.265,31.70287,-4.22462,-0.49981,0.44927
681.865,31.7224,-4.22522,-0.49811,0.44907
682.465,31.74203,-4.22546,-0.50028,0.44887
683.065,31.7616,-4.22655,-0.50263,0.44867
683.665,31.7812,-4.22654,-0.50072,0.44847
684.265,31.80088,-4.22654,-0.50088,0.44828
684.865,31.8205,-4.22654,-0.50589,0.44808
685.465,31.84,-4.22654,-0.50386,0.44788
686.065,31.85963,-4.22654,-0.5024,0.44768
686.665,31.87925,-4.22654,-0.50702,0.44749
687.265,31.8988,-4.22653,-0.50226,0.44729
687.865,31.9185,-4.22794,-0.50169,0.44709
688.465,31.9381,-4.22792,-0.49992,0.4469
689.065,31.9577,-4.22928,-0.49903,0.4467
689.665,31.97733,-4.22929,-0.4996,0.4465
690.265,31.99697,-4.22929,-0.50355,0.44631
690.865,32.0167,-4.22929,-0.49669,0.44611
691.465,32.03644,-4.22924,-0.50234,0.44591
692.065,32.05601,-4.23046,-0.50269,0.44572
692.665,32.07565,-4.2306,-0.5069,0.44552
693.265,32.09525,-4.23097,-0.51122,0.44533
693.865,32.11485,-4.23423,-0.51113,0.44513
694.465,32.13445,-4.23878,-0.5091,0.44493
695.065,32.15421,-4.23758,-0.50569,0.44474
695.665,32.17391,-4.22943,-0.5079,0.44454
696.265,32.19362,-4.22481,-0.50746,0.44435
696.865,32.21331,-4.22447,-0.50183,0.44415
697.465,32.23301,-4.22695,-0.50573,0.44396
698.065,32.25266,-4.22944,-0.50968,0.44376
698.665,32.2723,-4.23107,-0.50838,0.44357
699.265,32.292,-4.23091,-0.50823,0.44337
699.865,32.3116,-4.23179,-0.51136,0.44318
700.465,32.33128,-4.23224,-0.5154,0.44298
701.065,32.35095,-4.23225,-0.52157,0.44279
701.665,32.37058,-4.23225,-0.51886,0.4426
702.265,32.39018,-4.23225,-0.51914,0.4424
702.865,32.40988,-4.23263,-0.52439,0.44221
703.465,32.4296,-4.23356,-0.52334,0.44201
704.065,32.44931,-4.23488,-0.52325,0.44182
704.665,32.469,-4.23487,-0.52667,0.44163
705.265,32.48873,-4.23487,-0.53175,0.44143
705.865,32.50841,-4.23487,-0.53601,0.44124
706.465,32.52811,-4.23487,-0.53899,0.44105
707.065,32.54782,-4.23487,-0.53915,0.44085
707.665,32.56743,-4.23508,-0.5427,0.44066
708.265,32.58712,-4.23627,-0.54362,0.44047
708.865,32.60686,-4.23498,-0.54539,0.44028
709.465,32.62656,-4.23489,-0.54975,0.44008
710.065,32.64618,-4.23488,-0.55171,0.43989
710.665,32.6658,-4.23488,-0.55491,0.4397
711.265,32.68548,-4.23488,-0.55067,0.43951
711.865,32.70512,-4.23488,-0.55618,0.43932
712.465,32.7249,-4.23489,-0.55759,0.43912
713.065,32.74477,-4.23518,-0.55749,0.43893
713.665,32.7645,-4.23624,-0.5544,0.43874
714.265,32.78425,-4.23619,-0.54663,0.43855
714.865,32.804,-4.23613,-0.53904,0.43836
715.465,32.82365,-4.23479,-0.53586,0.43817
716.065,32.8433,-4.23487,-0.53782,0.43797
716.665,32.86309,-4.23561,-0.53794,0.43778
717.265,32.88279,-4.23617,-0.53485,0.43759
717.865,32.90251,-4.23616,-0.53313,0.4374
718.465,32.9223,-4.23711,-0.53132,0.43721
719.065,32.94206,-4.2375,-0.52821,0.43702
719.665,32.96182,-4.23751,-0.526,0.43683
720.265,32.98157,-4.23751,-0.52668,0.43664
720.865,33.00135,-4.23751,-0.52613,0.43645
721.465,33.0212,-4.23751,-0.52821,0.43626
722.065,33.0409,-4.23751,-0.53072,0.43607
722.665,33.06065,-4.23752,-0.52857,0.43588
723.265,33.0804,-4.23889,-0.52831,0.43569
723.865,33.10014,-4.23883,-0.52956,0.4355
724.465,33.11991,-4.23923,-0.53179,0.43531
725.065,33.13967,-4.24015,-0.53191,0.43512
725.665,33.15947,-4.23948,-0.53529,0.43493
726.265,33.17925,-4.23949,-0.53505,0.43475
726.865,33.199,-4.23949,-0.53432,0.43456
727.465,33.21881,-4.23949,-0.53909,0.43437
728.065,33.23853,-4.24009,-0.54035,0.43418
728.665,33.2583,-4.24081,-0.54259,0.43399
729.265,33.27823,-4.24139,-0.54447,0.4338
729.865,33.29874,-4.24147,-0.54532,0.43361
730.465,33.31924,-4.24146,-0.5473,0.43343
730.865,33.33181,-4.24146,-0.5526,0.4333