File: 01_Data/Cotton_Ball/STA/N2/30K_min/Cotton_Ball_STA_N2_30KData_210714_R2.csv
##Temp./Â°C,Time/min,Mass loss(subtr.2)/mg,DSC(subtr.2)/(mW/mg),Sensit./(uV/mW)
50.664,10.00917,-0.04486,0.04209076,0.6235
51.264,11.00178,-0.04778804,0.07331888,0.62349
51.864,11.21763,-0.04795815,0.09621406,0.62349
52.464,11.3591,-0.04870768,0.11873,0.62348
53.064,11.47384,-0.04635683,0.14336,0.62347
53.664,11.56669,-0.04748911,0.16139,0.62346
54.264,11.65269,-0.04791944,0.17855,0.62346
54.864,11.7281,-0.04700164,0.19577,0.62345
55.464,11.79619,-0.04796315,0.21441,0.62344
56.064,11.86003,-0.04793432,0.23125,0.62342
56.664,11.91945,-0.04871261,0.24824,0.62341
57.264,11.97503,-0.05029688,0.25983,0.6234
57.864,12.02802,-0.04928624,0.27681,0.62339
58.464,12.07917,-0.05012,0.29048,0.62338
59.064,12.12776,-0.05022667,0.30201,0.62336
59.664,12.17474,-0.05010414,0.3148,0.62335
60.264,12.21972,-0.05012174,0.32583,0.62333
60.864,12.26304,-0.05177914,0.33797,0.62332
61.464,12.30589,-0.05168834,0.35154,0.6233
62.064,12.34775,-0.05070649,0.36238,0.62329
62.664,12.3881,-0.05160094,0.37348,0.62327
63.264,12.42747,-0.05216583,0.38651,0.62325
63.864,12.4663,-0.05387034,0.39398,0.62324
64.464,12.50458,-0.05186724,0.4057,0.62322
65.064,12.54198,-0.05132546,0.41386,0.6232
65.664,12.57817,-0.05408618,0.42457,0.62318
66.264,12.61398,-0.053888,0.43507,0.62316
66.864,12.64988,-0.05513018,0.44522,0.62314
67.464,12.68552,-0.05419407,0.45289,0.62312
68.064,12.7201,-0.05440528,0.46456,0.6231
68.664,12.75422,-0.05492385,0.47356,0.62308
69.264,12.78768,-0.05471911,0.47957,0.62305
69.864,12.82113,-0.05474181,0.48884,0.62303
70.464,12.85426,-0.05503746,0.50026,0.62301
71.064,12.8871,-0.05515168,0.50835,0.62298
71.664,12.91947,-0.05515577,0.51668,0.62296
72.264,12.9516,-0.05533281,0.52489,0.62293
72.864,12.9834,-0.05658232,0.53332,0.62291
73.464,13.01499,-0.05584944,0.54042,0.62288
74.064,13.04636,-0.05602551,0.5508,0.62285
74.664,13.07749,-0.05686118,0.55876,0.62283
75.264,13.10834,-0.05704324,0.56719,0.6228
75.864,13.1391,-0.05802247,0.57278,0.62277
76.464,13.1696,-0.05741421,0.58714,0.62274
77.064,13.1999,-0.05918503,0.59417,0.62271
77.664,13.22998,-0.05876182,0.60431,0.62268
78.264,13.2599,-0.05875835,0.61266,0.62265
78.864,13.2896,-0.05890787,0.61762,0.62262
79.464,13.31895,-0.05899944,0.62767,0.62259
80.064,13.3484,-0.05836705,0.63857,0.62256
80.664,13.37754,-0.05901799,0.64479,0.62252
81.264,13.40674,-0.05875958,0.65632,0.62249
81.864,13.43576,-0.05913302,0.66208,0.62246
82.464,13.46456,-0.06051473,0.67056,0.62242
83.064,13.49324,-0.0604672,0.67951,0.62239
83.664,13.52159,-0.06165741,0.68774,0.62235
84.264,13.54972,-0.06156471,0.69971,0.62232
84.864,13.57784,-0.06184494,0.7065,0.62228
85.464,13.60561,-0.06198059,0.71539,0.62224
86.064,13.6334,-0.06361858,0.72478,0.62221
86.664,13.6609,-0.06500607,0.7327,0.62217
87.264,13.68829,-0.06548698,0.73953,0.62213
87.864,13.71553,-0.06683602,0.74877,0.62209
88.464,13.7428,-0.0684347,0.75425,0.62205
89.064,13.7698,-0.06698762,0.76544,0.62201
89.664,13.79659,-0.0682155,0.77039,0.62197
90.264,13.82325,-0.06841277,0.77877,0.62193
90.864,13.84965,-0.06700394,0.78436,0.62189
91.464,13.87584,-0.06817845,0.79285,0.62185
92.064,13.90209,-0.06827441,0.7988,0.62181
92.664,13.92816,-0.07088826,0.80439,0.62176
93.264,13.9543,-0.07096338,0.81279,0.62172
93.864,13.9803,-0.07100021,0.8186,0.62168
94.464,14.0061,-0.07230528,0.82538,0.62163
95.064,14.03188,-0.07249204,0.83037,0.62159
95.664,14.0571,-0.07362929,0.83121,0.62154
96.264,14.08247,-0.07249553,0.83876,0.62149
96.864,14.10777,-0.07359155,0.84643,0.62145
97.464,14.133,-0.0735504,0.84959,0.6214
98.064,14.15806,-0.07486826,0.8589,0.62135
98.664,14.18299,-0.07512741,0.86423,0.62131
99.264,14.20779,-0.07769139,0.87008,0.62126
99.864,14.2325,-0.07767536,0.87429,0.62121
100.464,14.25712,-0.07882258,0.88062,0.62116
101.064,14.28155,-0.07767154,0.88921,0.62111
101.664,14.30589,-0.07765737,0.89495,0.62106
102.264,14.3301,-0.07974243,0.90051,0.62101
102.864,14.3543,-0.08034306,0.90893,0.62095
103.464,14.3784,-0.08161254,0.91833,0.6209
104.064,14.4024,-0.08159817,0.9187,0.62085
104.664,14.42625,-0.08159999,0.92511,0.6208
105.264,14.44989,-0.08159953,0.93123,0.62074
105.864,14.4734,-0.08155697,0.93595,0.62069
106.464,14.4969,-0.0828263,0.94368,0.62063
107.064,14.5205,-0.08338282,0.95203,0.62058
107.664,14.54394,-0.08431196,0.95552,0.62052
108.264,14.56734,-0.08433367,0.96192,0.62047
108.864,14.5905,-0.08572549,0.96674,0.62041
109.464,14.6136,-0.08587893,0.97182,0.62035
110.064,14.63657,-0.08712381,0.97472,0.6203
110.664,14.65949,-0.0870898,0.97845,0.62024
111.264,14.68246,-0.08709469,0.98415,0.62018
111.864,14.7052,-0.08733762,0.98693,0.62012
112.464,14.7279,-0.08972589,0.9914,0.62006
113.064,14.75045,-0.08969706,0.99104,0.62
113.664,14.7729,-0.09092366,0.99522,0.61994
114.264,14.79543,-0.09113501,1.00111,0.61988
114.864,14.8178,-0.09237571,1.00128,0.61982
115.464,14.8401,-0.09234912,1.00503,0.61976
116.064,14.86219,-0.09234915,1.00804,0.61969
116.664,14.8842,-0.09233458,1.01093,0.61963
117.264,14.90635,-0.09319502,1.01471,0.61957
117.864,14.9283,-0.0933726,1.01725,0.6195
118.464,14.9503,-0.09235844,1.01836,0.61944
119.064,14.9722,-0.09272302,1.02396,0.61938
119.664,14.9939,-0.09288647,1.02464,0.61931
120.264,15.0156,-0.09525434,1.02547,0.61924
120.864,15.0371,-0.09561204,1.02447,0.61918
121.464,15.0587,-0.09736753,1.0273,0.61911
122.064,15.08017,-0.09805269,1.03137,0.61904
122.664,15.10166,-0.0980778,1.03381,0.61898
123.264,15.1231,-0.09946737,1.03499,0.61891
123.864,15.14435,-0.09938966,1.03659,0.61884
124.464,15.1656,-0.09974192,1.03517,0.61877
125.064,15.1867,-0.10071,1.03913,0.6187
125.664,15.2078,-0.10068,1.03909,0.61863
126.264,15.2289,-0.10006,1.03954,0.61856
126.864,15.2498,-0.09937747,1.03814,0.61849
127.464,15.2707,-0.10076,1.04018,0.61842
128.064,15.2913,-0.10068,1.04074,0.61834
128.664,15.31204,-0.10171,1.04335,0.61827
129.264,15.3327,-0.10336,1.04462,0.6182
129.864,15.35335,-0.10332,1.04917,0.61813
130.464,15.37398,-0.10332,1.04805,0.61805
131.064,15.3946,-0.10332,1.04856,0.61798
131.664,15.415,-0.10332,1.05058,0.6179
132.264,15.4353,-0.10331,1.0561,0.61783
132.864,15.45531,-0.10325,1.05638,0.61775
133.464,15.4754,-0.10519,1.05518,0.61768
134.064,15.4954,-0.10595,1.05738,0.6176
134.664,15.51568,-0.10595,1.05865,0.61752
135.264,15.536,-0.10595,1.05944,0.61744
135.864,15.55636,-0.10595,1.05975,0.61737
136.464,15.57673,-0.10596,1.06042,0.61729
137.064,15.5967,-0.10641,1.05863,0.61721
137.664,15.61672,-0.10728,1.05899,0.61713
138.264,15.63659,-0.10726,1.06024,0.61705
138.864,15.6564,-0.10739,1.06124,0.61697
139.464,15.6762,-0.10947,1.06038,0.61689
140.064,15.69597,-0.10956,1.05869,0.61681
140.664,15.71566,-0.10957,1.06343,0.61672
141.264,15.73536,-0.10957,1.06045,0.61664
141.864,15.755,-0.10958,1.06169,0.61656
142.464,15.77459,-0.10986,1.06459,0.61648
143.064,15.79405,-0.11094,1.06126,0.61639
143.664,15.81357,-0.1109,1.05865,0.61631
144.264,15.8329,-0.11096,1.05992,0.61622
144.864,15.8523,-0.10971,1.06492,0.61614
145.464,15.87161,-0.10971,1.06407,0.61605
146.064,15.8909,-0.11021,1.05992,0.61597
146.664,15.9102,-0.11027,1.06413,0.61588
147.264,15.92946,-0.11088,1.06079,0.61579
147.864,15.94871,-0.11089,1.0646,0.61571
148.464,15.9679,-0.11176,1.06127,0.61562
149.064,15.9871,-0.11269,1.06196,0.61553
149.664,16.00624,-0.11355,1.0638,0.61544
150.264,16.0254,-0.11352,1.06431,0.61535
150.864,16.04446,-0.11352,1.06124,0.61526
151.464,16.06345,-0.11437,1.06761,0.61517
152.064,16.08234,-0.11586,1.066,0.61508
152.664,16.10128,-0.11583,1.06899,0.61499
153.264,16.12014,-0.11583,1.0683,0.6149
153.864,16.13899,-0.11583,1.06525,0.61481
154.464,16.1579,-0.11583,1.07105,0.61472
155.064,16.17676,-0.11583,1.06958,0.61462
155.664,16.19558,-0.11585,1.06765,0.61453
156.264,16.2144,-0.11511,1.06704,0.61444
156.864,16.23314,-0.11484,1.06683,0.61434
157.464,16.25188,-0.11542,1.07041,0.61425
158.064,16.2705,-0.11608,1.06974,0.61415
158.664,16.2892,-0.11483,1.07182,0.61406
159.264,16.30783,-0.11489,1.06227,0.61396
159.864,16.3264,-0.11353,1.04795,0.61387
160.464,16.345,-0.11351,1.05329,0.61377
161.064,16.3636,-0.11435,1.05558,0.61367
161.664,16.38216,-0.11492,1.05492,0.61358
162.264,16.40075,-0.11497,1.05911,0.61348
162.864,16.41929,-0.11395,1.05863,0.61338
163.464,16.43779,-0.11485,1.06063,0.61328
164.064,16.4562,-0.11493,1.06356,0.61318
164.664,16.47467,-0.11494,1.06718,0.61308
165.264,16.49301,-0.11567,1.08777,0.61298
165.864,16.5114,-0.11624,1.09273,0.61288
166.464,16.52975,-0.11626,1.0937,0.61278
167.064,16.54811,-0.11626,1.09356,0.61268
167.664,16.56629,-0.11626,1.09502,0.61258
168.264,16.58454,-0.11621,1.09176,0.61248
168.864,16.6029,-0.11722,1.09551,0.61237
169.464,16.6212,-0.11756,1.09646,0.61227
170.064,16.63944,-0.11757,1.09758,0.61217
170.664,16.65778,-0.11757,1.09882,0.61206
171.264,16.67608,-0.11756,1.10338,0.61196
171.864,16.6942,-0.11748,1.1015,0.61185
172.464,16.71235,-0.11876,1.10333,0.61175
173.064,16.73045,-0.11889,1.10813,0.61164
173.664,16.7486,-0.11889,1.11272,0.61154
174.264,16.76661,-0.11898,1.11238,0.61143
174.864,16.7847,-0.11762,1.11648,0.61132
175.464,16.80274,-0.11757,1.11781,0.61122
176.064,16.8208,-0.11756,1.12337,0.61111
176.664,16.8388,-0.11759,1.12504,0.611
177.264,16.85681,-0.11619,1.12725,0.61089
177.864,16.87474,-0.11753,1.13052,0.61078
178.464,16.89272,-0.11758,1.12966,0.61067
179.064,16.91064,-0.11758,1.13096,0.61056
179.664,16.92851,-0.11756,1.13756,0.61045
180.264,16.94644,-0.11877,1.14035,0.61034
180.864,16.96438,-0.11888,1.14433,0.61023
181.464,16.98218,-0.11889,1.14353,0.61012
182.064,16.99999,-0.11889,1.14369,0.61001
182.664,17.01775,-0.11889,1.14866,0.6099
183.264,17.03549,-0.11992,1.14928,0.60978
183.864,17.05313,-0.12053,1.15694,0.60967
184.464,17.07085,-0.12153,1.15916,0.60956
185.064,17.08854,-0.12153,1.15856,0.60944
185.664,17.10623,-0.12173,1.16529,0.60933
186.264,17.12389,-0.1222,1.16328,0.60922
186.864,17.1416,-0.12217,1.16482,0.6091
187.464,17.15916,-0.12218,1.17092,0.60899
188.064,17.17675,-0.12088,1.17378,0.60887
188.664,17.19436,-0.12086,1.1806,0.60875
189.264,17.21185,-0.12086,1.18609,0.60864
189.864,17.22938,-0.12086,1.19372,0.60852
190.464,17.24689,-0.12086,1.19421,0.6084
191.064,17.2644,-0.12086,1.1997,0.60828
191.664,17.28189,-0.12082,1.19844,0.60817
192.264,17.29939,-0.12153,1.20388,0.60805
192.864,17.31687,-0.12143,1.20544,0.60793
193.464,17.3343,-0.12278,1.20878,0.60781
194.064,17.35172,-0.12284,1.21276,0.60769
194.664,17.3691,-0.12284,1.21437,0.60757
195.264,17.38642,-0.12212,1.21576,0.60745
195.864,17.4037,-0.12151,1.21896,0.60733
196.464,17.421,-0.12152,1.22465,0.60721
197.064,17.43826,-0.12152,1.22281,0.60708
197.664,17.45552,-0.12151,1.22792,0.60696
198.264,17.47279,-0.12135,1.22914,0.60684
198.864,17.49008,-0.12019,1.23213,0.60672
199.464,17.50737,-0.12021,1.23364,0.60659
200.064,17.5247,-0.12021,1.23411,0.60647
200.664,17.542,-0.12021,1.23627,0.60635
201.264,17.55924,-0.12021,1.24089,0.60622
201.864,17.57647,-0.12021,1.24343,0.6061
202.464,17.59365,-0.12021,1.24425,0.60597
203.064,17.61076,-0.12021,1.24843,0.60585
203.664,17.62792,-0.12021,1.24955,0.60572
204.264,17.64508,-0.1202,1.25587,0.60559
204.864,17.66221,-0.12084,1.25735,0.60547
205.464,17.67934,-0.12152,1.25817,0.60534
206.064,17.69647,-0.12152,1.258,0.60521
206.664,17.7136,-0.12151,1.26639,0.60508
207.264,17.73072,-0.12199,1.27011,0.60496
207.864,17.74781,-0.12286,1.27252,0.60483
208.464,17.76492,-0.12285,1.27356,0.6047
209.064,17.78203,-0.12284,1.27388,0.60457
209.664,17.79903,-0.12284,1.27829,0.60444
210.264,17.8161,-0.12284,1.28351,0.60431
210.864,17.8331,-0.12284,1.28344,0.60418
211.464,17.85011,-0.12284,1.28412,0.60405
212.064,17.86709,-0.12399,1.28844,0.60392
212.664,17.88413,-0.1241,1.2911,0.60378
213.264,17.90111,-0.12401,1.29618,0.60365
213.864,17.9181,-0.12285,1.29657,0.60352
214.464,17.93509,-0.12284,1.30196,0.60339
215.064,17.95199,-0.12284,1.30301,0.60325
215.664,17.96895,-0.12284,1.30227,0.60312
216.264,17.98591,-0.12284,1.30913,0.60299
216.864,18.00281,-0.12284,1.31161,0.60285
217.464,18.01971,-0.12284,1.31217,0.60272
218.064,18.03668,-0.12284,1.31168,0.60258
218.664,18.05357,-0.12284,1.31505,0.60245
219.264,18.0704,-0.12284,1.31871,0.60231
219.864,18.08734,-0.12284,1.31521,0.60218
220.464,18.1042,-0.12283,1.31774,0.60204
221.064,18.12108,-0.12335,1.32285,0.6019
221.664,18.1379,-0.12417,1.32712,0.60177
222.264,18.15476,-0.12424,1.32862,0.60163
222.864,18.17158,-0.12556,1.32747,0.60149
223.464,18.18841,-0.12547,1.33287,0.60135
224.064,18.20522,-0.12547,1.33562,0.60122
224.664,18.22203,-0.12547,1.33538,0.60108
225.264,18.23875,-0.12577,1.33851,0.60094
225.864,18.25556,-0.12686,1.33937,0.6008
226.464,18.27224,-0.12677,1.34014,0.60066
227.064,18.2889,-0.12549,1.34235,0.60052
227.664,18.3055,-0.12548,1.34418,0.60038
228.264,18.32231,-0.12544,1.34804,0.60024
228.864,18.33909,-0.12612,1.34728,0.60009
229.464,18.35584,-0.12682,1.35103,0.59995
230.064,18.37269,-0.12679,1.35136,0.59981
230.664,18.38951,-0.12679,1.35354,0.59967
231.264,18.40624,-0.12679,1.35606,0.59953
231.864,18.42296,-0.12685,1.36251,0.59938
232.464,18.43966,-0.1278,1.36385,0.59924
233.064,18.45636,-0.12778,1.35722,0.5991
233.664,18.47304,-0.1279,1.36338,0.59895
234.264,18.4897,-0.12811,1.3688,0.59881
234.864,18.50638,-0.12811,1.37167,0.59866
235.464,18.52306,-0.12811,1.3723,0.59852
236.064,18.53971,-0.12811,1.37315,0.59837
236.664,18.5564,-0.12811,1.37324,0.59823
237.264,18.57302,-0.12811,1.38029,0.59808
237.864,18.5897,-0.12811,1.3791,0.59793
238.464,18.6063,-0.1282,1.37824,0.59779
239.064,18.6229,-0.12761,1.3809,0.59764
239.664,18.63951,-0.1281,1.38146,0.59749
240.264,18.65611,-0.12813,1.38364,0.59735
240.864,18.6727,-0.12841,1.39187,0.5972
241.464,18.6893,-0.12943,1.38866,0.59705
242.064,18.7059,-0.13059,1.38915,0.5969
242.664,18.72249,-0.13073,1.39086,0.59675
243.264,18.73909,-0.13074,1.39064,0.5966
243.864,18.7556,-0.13074,1.39415,0.59645
244.464,18.77218,-0.13074,1.39684,0.5963
245.064,18.78872,-0.13103,1.3951,0.59615
245.664,18.80528,-0.13312,1.40063,0.596
246.264,18.8218,-0.13336,1.39955,0.59585
246.864,18.83834,-0.13339,1.40077,0.5957
247.464,18.8549,-0.13391,1.39896,0.59555
248.064,18.87128,-0.1347,1.39653,0.5954
248.664,18.88776,-0.13469,1.39908,0.59524
249.264,18.90431,-0.13473,1.39972,0.59509
249.864,18.92084,-0.1349,1.39985,0.59494
250.464,18.9374,-0.1354,1.401,0.59478
251.064,18.95391,-0.13651,1.40214,0.59463
251.664,18.97046,-0.13644,1.40351,0.59448
252.264,18.98697,-0.13643,1.40586,0.59432
252.864,19.00345,-0.13717,1.40552,0.59417
253.464,19.01987,-0.13847,1.40409,0.59401
254.064,19.0363,-0.13911,1.40345,0.59386
254.664,19.05282,-0.13908,1.40392,0.5937
255.264,19.0693,-0.13908,1.40479,0.59355
255.864,19.08576,-0.13907,1.40749,0.59339
256.464,19.10223,-0.13902,1.40805,0.59323
257.064,19.11881,-0.14004,1.41092,0.59308
257.664,19.13526,-0.14045,1.4064,0.59292
258.264,19.15168,-0.13949,1.40908,0.59276
258.864,19.168,-0.13994,1.40981,0.59261
259.464,19.18437,-0.14054,1.40947,0.59245
260.064,19.2007,-0.14221,1.413,0.59229
260.664,19.21716,-0.143,1.41106,0.59213
261.264,19.2336,-0.14361,1.41105,0.59197
261.864,19.25008,-0.14474,1.41604,0.59181
262.464,19.26665,-0.14613,1.41412,0.59165
263.064,19.28319,-0.1463,1.41116,0.59149
263.664,19.29965,-0.14633,1.41256,0.59133
264.264,19.316,-0.14768,1.4098,0.59117
264.864,19.33249,-0.14813,1.41495,0.59101
265.464,19.3489,-0.14939,1.41037,0.59085
266.064,19.3654,-0.15036,1.40916,0.59069
266.664,19.38186,-0.15195,1.40601,0.59053
267.264,19.39827,-0.15361,1.40453,0.59037
267.864,19.41473,-0.15442,1.40501,0.5902
268.464,19.43112,-0.15463,1.4037,0.59004
269.064,19.44751,-0.15587,1.40381,0.58988
269.664,19.4639,-0.15585,1.40417,0.58972
270.264,19.48035,-0.15716,1.40327,0.58955
270.864,19.4968,-0.15802,1.40267,0.58939
271.464,19.51321,-0.15979,1.40253,0.58922
272.064,19.52967,-0.16138,1.40375,0.58906
272.664,19.5461,-0.16258,1.39924,0.5889
273.264,19.56256,-0.16314,1.39947,0.58873
273.864,19.57892,-0.16571,1.39751,0.58857
274.464,19.59532,-0.16608,1.39683,0.5884
275.064,19.6117,-0.16754,1.39855,0.58824
275.664,19.6281,-0.16925,1.39218,0.58807
276.264,19.6445,-0.16996,1.39168,0.5879
276.864,19.66088,-0.17122,1.38911,0.58774
277.464,19.67728,-0.17259,1.38688,0.58757
278.064,19.6937,-0.17294,1.38389,0.5874
278.664,19.71011,-0.17435,1.38496,0.58724
279.264,19.72649,-0.17605,1.3753,0.58707
279.864,19.74288,-0.17823,1.37134,0.5869
280.464,19.75928,-0.18086,1.37025,0.58673
281.064,19.77564,-0.18124,1.36646,0.58656
281.664,19.792,-0.18202,1.35888,0.58639
282.264,19.80834,-0.18364,1.35183,0.58623
282.864,19.8247,-0.18557,1.34618,0.58606
283.464,19.84111,-0.18845,1.3421,0.58589
284.064,19.8575,-0.19057,1.34061,0.58572
284.664,19.87389,-0.19181,1.33537,0.58555
285.264,19.8903,-0.19449,1.33493,0.58538
285.864,19.90669,-0.19647,1.32751,0.58521
286.464,19.9231,-0.19871,1.32178,0.58503
287.064,19.93947,-0.20053,1.31654,0.58486
287.664,19.95584,-0.20225,1.31223,0.58469
288.264,19.97222,-0.20416,1.30809,0.58452
288.864,19.98861,-0.20618,1.30515,0.58435
289.464,20.005,-0.20804,1.29544,0.58418
290.064,20.02141,-0.21009,1.28945,0.584
290.664,20.03783,-0.21285,1.28514,0.58383
291.264,20.05422,-0.21523,1.28789,0.58366
291.864,20.07065,-0.21733,1.28334,0.58348
292.464,20.087,-0.22042,1.28164,0.58331
293.064,20.10339,-0.22369,1.27554,0.58314
293.664,20.11973,-0.2268,1.26439,0.58296
294.264,20.1361,-0.23038,1.26018,0.58279
294.864,20.1524,-0.23285,1.25549,0.58261
295.464,20.16881,-0.23491,1.24763,0.58244
296.064,20.18519,-0.23736,1.2399,0.58226
296.664,20.2015,-0.23981,1.23596,0.58209
297.264,20.21791,-0.24296,1.23002,0.58191
297.864,20.2343,-0.24801,1.22217,0.58174
298.464,20.25069,-0.25237,1.21783,0.58156
299.064,20.267,-0.25664,1.2102,0.58138
299.664,20.28342,-0.26044,1.20485,0.58121
300.264,20.2998,-0.26518,1.20556,0.58103
300.864,20.31615,-0.26931,1.19569,0.58085
301.464,20.33256,-0.27288,1.18867,0.58068
302.064,20.34891,-0.27635,1.18819,0.5805
302.664,20.36525,-0.28005,1.17817,0.58032
303.264,20.3816,-0.28385,1.17519,0.58014
303.864,20.398,-0.28881,1.16771,0.57996
304.464,20.41434,-0.29464,1.16184,0.57979
305.064,20.4307,-0.29926,1.15882,0.57961
305.664,20.4471,-0.30511,1.15161,0.57943
306.264,20.46351,-0.30948,1.14616,0.57925
306.864,20.4799,-0.31498,1.14533,0.57907
307.464,20.49621,-0.32049,1.14264,0.57889
308.064,20.5126,-0.32472,1.14289,0.57871
308.664,20.529,-0.33129,1.13766,0.57853
309.264,20.5453,-0.33537,1.13641,0.57835
309.864,20.56167,-0.34043,1.1341,0.57817
310.464,20.57808,-0.34585,1.13205,0.57799
311.064,20.59445,-0.3517,1.13397,0.5778
311.664,20.61073,-0.36,1.13372,0.57762
312.264,20.6271,-0.36624,1.13222,0.57744
312.864,20.64356,-0.37361,1.13155,0.57726
313.464,20.65989,-0.37964,1.13492,0.57708
314.064,20.67624,-0.38635,1.13298,0.57689
314.664,20.69255,-0.39493,1.13636,0.57671
315.264,20.70883,-0.40183,1.13895,0.57653
315.864,20.7252,-0.41074,1.13833,0.57635
316.464,20.74155,-0.41829,1.14198,0.57616
317.064,20.75796,-0.4266,1.13652,0.57598
317.664,20.77437,-0.43595,1.13974,0.5758
318.264,20.7909,-0.44346,1.14376,0.57561
318.864,20.80736,-0.45303,1.14623,0.57543
319.464,20.82376,-0.46026,1.15317,0.57524
320.064,20.84015,-0.4691,1.15675,0.57506
320.664,20.85653,-0.47898,1.15834,0.57487
321.264,20.87294,-0.48838,1.16851,0.57469
321.864,20.8893,-0.50024,1.17179,0.5745
322.464,20.90569,-0.50834,1.17793,0.57432
323.064,20.9221,-0.51819,1.18179,0.57413
323.664,20.93844,-0.52755,1.19415,0.57394
324.264,20.9547,-0.53692,1.1971,0.57376
324.864,20.97114,-0.54813,1.20301,0.57357
325.464,20.98754,-0.55814,1.20875,0.57338
326.064,21.0039,-0.57121,1.21934,0.5732
326.664,21.02036,-0.5833,1.22748,0.57301
327.264,21.03683,-0.59636,1.23303,0.57282
327.864,21.0533,-0.61034,1.2421,0.57264
328.464,21.06973,-0.62193,1.25281,0.57245
329.064,21.08621,-0.63733,1.26092,0.57226
329.664,21.10262,-0.64962,1.27034,0.57207
330.264,21.11901,-0.66279,1.28217,0.57188
330.864,21.13547,-0.67677,1.29163,0.57169
331.464,21.15184,-0.68922,1.30308,0.57151
332.064,21.16818,-0.70638,1.31594,0.57132
332.664,21.18453,-0.72034,1.32936,0.57113
333.264,21.2009,-0.73817,1.34055,0.57094
333.864,21.21724,-0.75457,1.35605,0.57075
334.464,21.2337,-0.76919,1.36977,0.57056
335.064,21.25019,-0.78687,1.37935,0.57037
335.664,21.26672,-0.80127,1.3899,0.57018
336.264,21.28325,-0.82085,1.41285,0.56999
336.864,21.29978,-0.83838,1.42225,0.5698
337.464,21.31618,-0.85755,1.43758,0.56961
338.064,21.33258,-0.87945,1.45679,0.56941
338.664,21.349,-0.89681,1.47286,0.56922
339.264,21.36544,-0.92013,1.48925,0.56903
339.864,21.38185,-0.93992,1.50619,0.56884
340.464,21.39828,-0.96178,1.52797,0.56865
341.064,21.41468,-0.98544,1.54461,0.56846
341.664,21.43114,-1.00552,1.56626,0.56826
342.264,21.44756,-1.03204,1.5847,0.56807
342.864,21.46399,-1.05345,1.6072,0.56788
343.464,21.4804,-1.0787,1.62181,0.56769
344.064,21.4969,-1.10463,1.64751,0.56749
344.664,21.51331,-1.12875,1.67397,0.5673
345.264,21.52979,-1.1601,1.6929,0.56711
345.864,21.54625,-1.18357,1.71864,0.56691
346.464,21.5627,-1.20841,1.74013,0.56672
347.064,21.57914,-1.229,1.76391,0.56652
347.664,21.5956,-1.25541,1.79005,0.56633
348.264,21.61202,-1.29869,1.80986,0.56614
348.864,21.6284,-1.33763,1.8357,0.56594
349.464,21.64483,-1.37856,1.86291,0.56575
350.064,21.6613,-1.40868,1.88325,0.56555
350.664,21.67775,-1.43686,1.91001,0.56536
351.264,21.69421,-1.47063,1.93747,0.56516
351.864,21.71066,-1.49891,1.96043,0.56497
352.464,21.72713,-1.53477,1.9859,0.56477
353.064,21.74365,-1.56455,2.00905,0.56457
353.664,21.76015,-1.59982,2.03067,0.56438
354.264,21.77664,-1.63676,2.05222,0.56418
354.864,21.79316,-1.6699,2.07122,0.56399
355.464,21.80967,-1.70977,2.09003,0.56379
356.064,21.8262,-1.74089,2.10174,0.56359
356.664,21.8427,-1.77874,2.11982,0.5634
357.264,21.85922,-1.81442,2.12922,0.5632
357.864,21.87579,-1.84901,2.14139,0.563
358.464,21.89234,-1.8884,2.14888,0.5628
359.064,21.9089,-1.91942,2.15866,0.56261
359.664,21.92546,-1.95812,2.16451,0.56241
360.264,21.94205,-1.99112,2.16555,0.56221
360.864,21.9587,-2.02704,2.15784,0.56201
361.464,21.97523,-2.06557,2.15016,0.56181
362.064,21.99188,-2.09751,2.14232,0.56162
362.664,22.00855,-2.137,2.13222,0.56142
363.264,22.0252,-2.16685,2.11949,0.56122
363.864,22.04187,-2.20176,2.10278,0.56102
364.464,22.05858,-2.23422,2.08709,0.56082
365.064,22.07529,-2.26583,2.06302,0.56062
365.664,22.09198,-2.30172,2.03753,0.56042
366.264,22.10872,-2.32891,2.00511,0.56022
366.864,22.12546,-2.36254,1.97424,0.56002
367.464,22.1422,-2.39047,1.94276,0.55982
368.064,22.159,-2.42078,1.90801,0.55962
368.664,22.17578,-2.45251,1.86152,0.55942
369.264,22.19256,-2.47859,1.82383,0.55922
369.864,22.2094,-2.50845,1.78132,0.55902
370.464,22.22628,-2.53037,1.73788,0.55882
371.064,22.24311,-2.55682,1.6891,0.55862
371.664,22.25991,-2.58063,1.64353,0.55842
372.264,22.27682,-2.60448,1.59524,0.55822
372.864,22.29366,-2.63017,1.54646,0.55802
373.464,22.31046,-2.64953,1.49448,0.55781
374.064,22.32723,-2.67284,1.44366,0.55761
374.664,22.3441,-2.68952,1.39022,0.55741
375.264,22.36092,-2.70846,1.3353,0.55721
375.864,22.37784,-2.72666,1.28896,0.55701
376.464,22.3948,-2.7429,1.23882,0.5568
377.064,22.4117,-2.76225,1.18345,0.5566
377.664,22.42875,-2.77536,1.13039,0.5564
378.264,22.4457,-2.79109,1.07482,0.5562
378.864,22.4626,-2.80226,1.0292,0.55599
379.464,22.4795,-2.8154,0.97799,0.55579
380.064,22.49646,-2.82888,0.9326,0.55559
380.664,22.5134,-2.83972,0.88529,0.55538
381.264,22.53036,-2.85178,0.83803,0.55518
381.864,22.54734,-2.86029,0.79494,0.55498
382.464,22.56429,-2.87038,0.74911,0.55477
383.064,22.58124,-2.87897,0.70826,0.55457
383.664,22.5981,-2.88725,0.66813,0.55436
384.264,22.6151,-2.89605,0.6301,0.55416
384.864,22.632,-2.90336,0.59228,0.55396
385.464,22.64891,-2.9113,0.55836,0.55375
386.064,22.6659,-2.91661,0.52764,0.55355
386.664,22.68295,-2.92219,0.49299,0.55334
387.264,22.69993,-2.92625,0.46676,0.55314
387.864,22.71694,-2.93036,0.44234,0.55293
388.464,22.7339,-2.93493,0.41896,0.55273
389.064,22.75088,-2.93815,0.39509,0.55252
389.664,22.76782,-2.94297,0.37222,0.55232
390.264,22.78481,-2.94565,0.35073,0.55211
390.864,22.80175,-2.94934,0.33363,0.55191
391.464,22.81877,-2.95128,0.31697,0.5517
392.064,22.8358,-2.95215,0.30678,0.55149
392.664,22.85281,-2.95374,0.28676,0.55129
393.264,22.86984,-2.95572,0.27823,0.55108
393.864,22.8869,-2.95864,0.26056,0.55088
394.464,22.90387,-2.96167,0.25972,0.55067
395.064,22.92081,-2.96448,0.24876,0.55046
395.664,22.93777,-2.96692,0.24079,0.55026
396.264,22.9548,-2.96882,0.23298,0.55005
396.864,22.97185,-2.9708,0.22502,0.54984
397.464,22.9889,-2.97299,0.218,0.54964
398.064,23.00595,-2.97613,0.21666,0.54943
398.664,23.02305,-2.97728,0.2093,0.54922
399.264,23.0401,-2.97709,0.20008,0.54901
399.864,23.05714,-2.97196,0.20048,0.54881
400.464,23.07416,-2.9677,0.19119,0.5486
401.064,23.0912,-2.96936,0.18691,0.54839
401.664,23.10827,-2.98391,0.19031,0.54818
402.264,23.1253,-2.99519,0.18515,0.54797
402.864,23.14241,-3.0015,0.1845,0.54777
403.464,23.15953,-2.99872,0.18451,0.54756
404.064,23.17664,-2.99524,0.17669,0.54735
404.664,23.19374,-2.99502,0.17506,0.54714
405.264,23.21087,-2.99504,0.17247,0.54693
405.864,23.22801,-2.99684,0.1704,0.54672
406.464,23.24513,-2.99819,0.16814,0.54652
407.064,23.26229,-2.99859,0.16432,0.54631
407.664,23.27944,-2.99992,0.15889,0.5461
408.264,23.29656,-3.00127,0.16003,0.54589
408.864,23.3137,-3.00256,0.15753,0.54568
409.464,23.33084,-3.00392,0.15507,0.54547
410.064,23.34799,-3.00507,0.15411,0.54526
410.664,23.3651,-3.00635,0.15016,0.54505
411.264,23.3823,-3.00687,0.15012,0.54484
411.864,23.39944,-3.00827,0.14374,0.54463
412.464,23.41656,-3.01003,0.14186,0.54442
413.064,23.4337,-3.01196,0.14143,0.54421
413.664,23.4509,-3.0122,0.13601,0.544
414.264,23.46804,-3.01228,0.13388,0.54379
414.864,23.48525,-3.01378,0.13221,0.54358
415.464,23.50245,-3.01531,0.13168,0.54337
416.064,23.51972,-3.0172,0.12615,0.54316
416.664,23.5369,-3.01895,0.12565,0.54295
417.264,23.55419,-3.02205,0.12341,0.54274
417.864,23.57144,-3.02352,0.12155,0.54253
418.464,23.58869,-3.02465,0.12299,0.54232
419.064,23.60589,-3.02523,0.11977,0.54211
419.664,23.62319,-3.0267,0.11694,0.54189
420.264,23.64048,-3.02802,0.12024,0.54168
420.864,23.65774,-3.02839,0.11164,0.54147
421.464,23.675,-3.02953,0.10643,0.54126
422.064,23.69227,-3.02974,0.10576,0.54105
422.664,23.70955,-3.0313,0.1035,0.54084
423.264,23.72682,-3.03293,0.10079,0.54063
423.864,23.74408,-3.03427,0.1012,0.54041
424.464,23.7614,-3.03467,0.0953508,0.5402
425.064,23.7787,-3.03599,0.09457816,0.53999
425.664,23.796,-3.03738,0.09094527,0.53978
426.264,23.8133,-3.03881,0.09134587,0.53957
426.864,23.83064,-3.04093,0.08769168,0.53935
427.464,23.84797,-3.04347,0.08602754,0.53914
428.064,23.86535,-3.04495,0.08352053,0.53893
428.664,23.88264,-3.04562,0.08357479,0.53872
429.264,23.89998,-3.04633,0.08012346,0.5385
429.864,23.91732,-3.04795,0.07579137,0.53829
430.464,23.93466,-3.04814,0.07455541,0.53808
431.064,23.95201,-3.0485,0.07618006,0.53787
431.664,23.9694,-3.05038,0.07385933,0.53765
432.264,23.98678,-3.05191,0.07307094,0.53744
432.864,24.0042,-3.05318,0.06541522,0.53723
433.464,24.02159,-3.0552,0.06417942,0.53701
434.064,24.03893,-3.05661,0.06320523,0.5368
434.664,24.05625,-3.05652,0.061682,0.53659
435.264,24.07364,-3.05786,0.06307714,0.53637
435.864,24.09104,-3.05798,0.0613158,0.53616
436.464,24.10841,-3.05824,0.05985978,0.53595
437.064,24.12585,-3.05915,0.05337278,0.53573
437.664,24.1433,-3.05577,0.04943837,0.53552
438.264,24.16081,-3.05268,0.04752274,0.53531
438.864,24.17824,-3.05401,0.04676133,0.53509
439.464,24.19568,-3.0632,0.04557323,0.53488
440.064,24.2131,-3.07282,0.04586987,0.53466
440.664,24.2306,-3.07884,0.0462155,0.53445
441.264,24.24805,-3.07717,0.0450236,0.53424
441.864,24.26546,-3.07548,0.0450338,0.53402
442.464,24.28279,-3.07458,0.03953893,0.53381
443.064,24.30019,-3.07459,0.03598844,0.53359
443.664,24.31758,-3.07512,0.03504732,0.53338
444.264,24.3351,-3.07603,0.03357311,0.53317
444.864,24.35264,-3.07702,0.02974738,0.53295
445.464,24.37029,-3.07749,0.02752599,0.53274
446.064,24.38789,-3.07892,0.02747315,0.53252
446.664,24.40549,-3.08062,0.02613791,0.53231
447.264,24.423,-3.08211,0.02406344,0.53209
447.864,24.4406,-3.08366,0.02480875,0.53188
448.464,24.45813,-3.08539,0.0251997,0.53166
449.064,24.4757,-3.08683,0.02311893,0.53145
449.664,24.49323,-3.08861,0.01971118,0.53123
450.264,24.51077,-3.0896,0.0180439,0.53102
450.864,24.52832,-3.08992,0.01371082,0.5308
451.464,24.54589,-3.08995,0.01117305,0.53059
452.064,24.5635,-3.09165,0.01103702,0.53037
452.664,24.5811,-3.09264,0.008161559,0.53016
453.264,24.5988,-3.09215,0.00675144,0.52994
453.864,24.61644,-3.09356,0.004684761,0.52973
454.464,24.63409,-3.09442,0.00571094,0.52951
455.064,24.65175,-3.0966,0.00209524,0.5293
455.664,24.66938,-3.09654,0.0007117695,0.52908
456.264,24.68701,-3.09741,-0.0002047002,0.52886
456.864,24.70455,-3.09842,-0.000841692,0.52865
457.464,24.7222,-3.10071,-0.001754544,0.52843
458.064,24.73968,-3.10394,-0.00622883,0.52822
458.664,24.75729,-3.10571,-0.005187775,0.528
459.264,24.77497,-3.10706,-0.00460697,0.52778
459.864,24.79267,-3.10773,-0.004161209,0.52757
460.464,24.8104,-3.10907,-0.00868843,0.52735
461.064,24.82817,-3.10961,-0.005817795,0.52714
461.664,24.84594,-3.11052,-0.007624146,0.52692
462.264,24.8636,-3.11211,-0.008300525,0.5267
462.864,24.8813,-3.11334,-0.00767155,0.52649
463.464,24.89904,-3.11441,-0.0107001,0.52627
464.064,24.91681,-3.11479,-0.00847243,0.52606
464.664,24.93456,-3.11637,-0.006638504,0.52584
465.264,24.95231,-3.11726,-0.006179301,0.52562
465.864,24.97007,-3.11823,-0.01063033,0.52541
466.464,24.98781,-3.11912,-0.01184507,0.52519
467.064,25.00556,-3.1196,-0.007833985,0.52497
467.664,25.02329,-3.12104,-0.006375594,0.52476
468.264,25.0411,-3.1221,-0.01158472,0.52454
468.864,25.0589,-3.12315,-0.0142757,0.52432
469.464,25.07667,-3.12606,-0.01305015,0.52411
470.064,25.09444,-3.12738,-0.01683654,0.52389
470.664,25.11226,-3.12781,-0.01494329,0.52367
471.264,25.13012,-3.12926,-0.01785608,0.52346
471.864,25.14793,-3.12987,-0.02001503,0.52324
472.464,25.16574,-3.13088,-0.01862716,0.52302
473.064,25.18356,-3.132,-0.01965253,0.52281
473.664,25.20137,-3.13247,-0.01952152,0.52259
474.264,25.2192,-3.13395,-0.01973687,0.52237
474.864,25.23699,-3.13441,-0.02636661,0.52216
475.464,25.2548,-3.13546,-0.0257272,0.52194
476.064,25.2727,-3.13568,-0.02338556,0.52172
476.664,25.29052,-3.13668,-0.02749664,0.52151
477.264,25.30838,-3.13737,-0.02944985,0.52129
477.864,25.32626,-3.1386,-0.02773633,0.52107
478.464,25.34414,-3.1401,-0.03014634,0.52085
479.064,25.36209,-3.14146,-0.03173774,0.52064
479.664,25.38,-3.14056,-0.03382944,0.52042
480.264,25.3979,-3.14207,-0.03567489,0.5202
480.864,25.4158,-3.14289,-0.03342747,0.51999
481.464,25.43371,-3.14503,-0.03131461,0.51977
482.064,25.45157,-3.14493,-0.03399057,0.51955
482.664,25.4695,-3.14646,-0.03288328,0.51933
483.264,25.48733,-3.14753,-0.0364735,0.51912
483.864,25.50531,-3.14922,-0.03827577,0.5189
484.464,25.52326,-3.15027,-0.03883641,0.51868
485.064,25.54121,-3.15112,-0.03677077,0.51846
485.664,25.55914,-3.15161,-0.03579675,0.51825
486.264,25.5772,-3.15291,-0.04195146,0.51803
486.864,25.59502,-3.15506,-0.0394686,0.51781
487.464,25.61287,-3.1564,-0.03878472,0.51759
488.064,25.63092,-3.1579,-0.034216,0.51738
488.664,25.64894,-3.15818,-0.03628518,0.51716
489.264,25.66694,-3.15912,-0.03479097,0.51694
489.864,25.68508,-3.16029,-0.03986641,0.51672
490.464,25.7032,-3.16131,-0.03753621,0.51651
491.064,25.72116,-3.16124,-0.03818657,0.51629
491.664,25.7392,-3.16191,-0.04104165,0.51607
492.264,25.7572,-3.16259,-0.04020339,0.51585
492.864,25.77521,-3.16368,-0.04279501,0.51564
493.464,25.79328,-3.16407,-0.03947591,0.51542
494.064,25.81138,-3.16466,-0.0447719,0.5152
494.664,25.82943,-3.16542,-0.03848895,0.51498
495.264,25.84746,-3.16752,-0.04126348,0.51476
495.864,25.86552,-3.17209,-0.04205436,0.51455
496.464,25.88356,-3.176,-0.04481224,0.51433
497.064,25.9015,-3.17127,-0.04812006,0.51411
497.664,25.91959,-3.16659,-0.04926149,0.51389
498.264,25.93764,-3.16138,-0.04551527,0.51368
498.864,25.95569,-3.16491,-0.04773414,0.51346
499.464,25.9738,-3.16764,-0.04658541,0.51324
500.064,25.9919,-3.17091,-0.0500004,0.51302
500.664,26.00999,-3.17207,-0.04694558,0.5128
501.264,26.02814,-3.17302,-0.04786392,0.51259
501.864,26.0463,-3.17309,-0.04388127,0.51237
502.464,26.06444,-3.17469,-0.04968506,0.51215
503.064,26.08256,-3.1773,-0.05015256,0.51193
503.664,26.10071,-3.17761,-0.04805991,0.51172
504.264,26.1188,-3.17889,-0.04867774,0.5115
504.864,26.13694,-3.1789,-0.04707582,0.51128
505.464,26.15513,-3.17889,-0.04661865,0.51106
506.064,26.17331,-3.17955,-0.04807394,0.51084
506.664,26.19151,-3.17995,-0.04889405,0.51063
507.264,26.20975,-3.18022,-0.04886076,0.51041
507.864,26.22798,-3.18077,-0.04739941,0.51019
508.464,26.2462,-3.18173,-0.04720114,0.50997
509.064,26.26427,-3.18348,-0.04796521,0.50976
509.664,26.28245,-3.1848,-0.0505436,0.50954
510.264,26.30065,-3.18621,-0.05164699,0.50932
510.864,26.31887,-3.18646,-0.05015715,0.5091
511.464,26.3372,-3.18774,-0.05231936,0.50888
512.064,26.3555,-3.18894,-0.05244365,0.50867
512.664,26.3738,-3.18796,-0.05124884,0.50845
513.264,26.39211,-3.18794,-0.05277011,0.50823
513.864,26.41038,-3.18928,-0.05228022,0.50801
514.464,26.4285,-3.18918,-0.05073163,0.50779
515.064,26.4466,-3.19073,-0.05486343,0.50758
515.664,26.46485,-3.19106,-0.05564586,0.50736
516.264,26.4831,-3.19225,-0.05656269,0.50714
516.864,26.5014,-3.19215,-0.06015379,0.50692
517.464,26.51972,-3.19322,-0.05770076,0.50671
518.064,26.5381,-3.19357,-0.06097903,0.50649
518.664,26.5564,-3.19498,-0.05775646,0.50627
519.264,26.5747,-3.19595,-0.05974111,0.50605
519.864,26.593,-3.19626,-0.05793046,0.50584
520.464,26.6113,-3.1975,-0.05672862,0.50562
521.064,26.62968,-3.19767,-0.05691031,0.5054
521.664,26.6481,-3.19767,-0.05924074,0.50518
522.264,26.66643,-3.19767,-0.06133582,0.50496
522.864,26.68474,-3.19774,-0.06003271,0.50475
523.464,26.7031,-3.19921,-0.05854125,0.50453
524.064,26.7214,-3.19969,-0.05976549,0.50431
524.664,26.7396,-3.20063,-0.06123614,0.50409
525.264,26.7579,-3.2015,-0.06111739,0.50388
525.864,26.77627,-3.20219,-0.06142127,0.50366
526.464,26.7946,-3.20366,-0.06079098,0.50344
527.064,26.8129,-3.2046,-0.05518687,0.50322
527.664,26.8314,-3.205,-0.05429545,0.50301
528.264,26.8498,-3.20541,-0.05513979,0.50279
528.864,26.8682,-3.20636,-0.06052581,0.50257
529.464,26.8866,-3.20634,-0.06606546,0.50235
530.064,26.90523,-3.20635,-0.06198208,0.50214
530.664,26.9236,-3.20655,-0.06213319,0.50192
531.264,26.9421,-3.20795,-0.06318115,0.5017
531.864,26.9605,-3.20792,-0.06142954,0.50148
532.464,26.9789,-3.20918,-0.05839142,0.50127
533.064,26.99734,-3.20918,-0.06101081,0.50105
533.664,27.0158,-3.20909,-0.06211857,0.50083
534.264,27.0342,-3.21036,-0.06277654,0.50062
534.864,27.0526,-3.21172,-0.06225778,0.5004
535.464,27.07105,-3.21193,-0.06117953,0.50018
536.064,27.08956,-3.21427,-0.05858448,0.49996
536.664,27.108,-3.21591,-0.06262423,0.49975
537.264,27.12647,-3.21611,-0.06158314,0.49953
537.864,27.1449,-3.21762,-0.06285024,0.49931
538.464,27.16344,-3.21762,-0.06363067,0.4991
539.064,27.1819,-3.21774,-0.06851648,0.49888
539.664,27.20035,-3.21773,-0.06908094,0.49866
540.264,27.21892,-3.21872,-0.07064456,0.49844
540.864,27.2374,-3.21907,-0.07046766,0.49823
541.464,27.2559,-3.21907,-0.07173288,0.49801
542.064,27.2744,-3.21908,-0.07510231,0.49779
542.664,27.29294,-3.21839,-0.07211578,0.49758
543.264,27.31145,-3.21916,-0.07549236,0.49736
543.864,27.33,-3.21905,-0.07268841,0.49714
544.464,27.3485,-3.21968,-0.07459815,0.49693
545.064,27.36706,-3.22127,-0.07518673,0.49671
545.664,27.38563,-3.22189,-0.07366149,0.49649
546.264,27.40415,-3.22304,-0.07717629,0.49628
546.864,27.4226,-3.2235,-0.07497143,0.49606
547.464,27.44102,-3.22521,-0.07271864,0.49584
548.064,27.4594,-3.22786,-0.07414219,0.49563
548.664,27.47802,-3.22905,-0.07319338,0.49541
549.264,27.4966,-3.22941,-0.07353742,0.49519
549.864,27.51538,-3.22649,-0.07478573,0.49498
550.464,27.5342,-3.22644,-0.0776175,0.49476
551.064,27.55292,-3.22662,-0.07112351,0.49454
551.664,27.5715,-3.22812,-0.07351779,0.49433
552.264,27.5901,-3.22848,-0.07403533,0.49411
552.864,27.60864,-3.22939,-0.07592731,0.4939
553.464,27.6272,-3.22929,-0.07531018,0.49368
554.064,27.6458,-3.23097,-0.0780957,0.49346
554.664,27.66443,-3.23202,-0.0790975,0.49325
555.264,27.68305,-3.23253,-0.07710358,0.49303
555.864,27.7017,-3.23256,-0.08696103,0.49282
556.464,27.7204,-3.23256,-0.08358047,0.4926
557.064,27.73905,-3.23256,-0.08336916,0.49238
557.664,27.7577,-3.23256,-0.084672,0.49217
558.264,27.77635,-3.23247,-0.08494605,0.49195
558.864,27.795,-3.23389,-0.08562467,0.49174
559.464,27.8137,-3.23393,-0.08458159,0.49152
560.064,27.8324,-3.23491,-0.09264611,0.4913
560.664,27.8512,-3.23529,-0.08850736,0.49109
561.264,27.8699,-3.2353,-0.09039448,0.49087
561.864,27.8886,-3.2353,-0.09095574,0.49066
562.464,27.9073,-3.2355,-0.08907029,0.49044
563.064,27.926,-3.23668,-0.09170297,0.49023
563.664,27.94475,-3.23663,-0.08988533,0.49001
564.264,27.9635,-3.23661,-0.09462649,0.4898
564.864,27.9822,-3.23656,-0.09162507,0.48958
565.464,28.00092,-3.23772,-0.09293819,0.48937
566.064,28.01973,-3.23792,-0.09494967,0.48915
566.664,28.03844,-3.23759,-0.09618396,0.48893
567.264,28.0572,-3.23756,-0.09705976,0.48872
567.864,28.07595,-3.23877,-0.09668204,0.4885
568.464,28.09474,-3.23891,-0.10191,0.48829
569.064,28.1135,-3.23892,-0.09919097,0.48807
569.664,28.13229,-3.23892,-0.10296,0.48786
570.264,28.151,-3.23891,-0.10535,0.48765
570.864,28.16984,-3.23967,-0.10964,0.48743
571.464,28.1887,-3.24177,-0.11259,0.48722
572.064,28.2075,-3.24258,-0.11166,0.487
572.664,28.22632,-3.24317,-0.11575,0.48679
573.264,28.2451,-3.24254,-0.11978,0.48657
573.864,28.26394,-3.24328,-0.11487,0.48636
574.464,28.2827,-3.24352,-0.1172,0.48614
575.064,28.30152,-3.24354,-0.11513,0.48593
575.664,28.32033,-3.24357,-0.12042,0.48571
576.264,28.3392,-3.24484,-0.11853,0.4855
576.864,28.358,-3.24483,-0.12189,0.48529
577.464,28.37685,-3.24607,-0.12422,0.48507
578.064,28.39568,-3.24618,-0.12517,0.48486
578.664,28.4145,-3.24808,-0.12543,0.48464
579.264,28.4333,-3.24902,-0.12884,0.48443
579.864,28.45216,-3.24925,-0.12854,0.48422
580.464,28.471,-3.25033,-0.13149,0.484
581.064,28.48988,-3.25032,-0.13,0.48379
581.664,28.5088,-3.25032,-0.13409,0.48357
582.264,28.5277,-3.24979,-0.13127,0.48336
582.864,28.5465,-3.24902,-0.13065,0.48315
583.464,28.5654,-3.24794,-0.13603,0.48293
584.064,28.5843,-3.24931,-0.13722,0.48272
584.664,28.60323,-3.25031,-0.13624,0.48251
585.264,28.6221,-3.25075,-0.13621,0.48229
585.864,28.64098,-3.25077,-0.13807,0.48208
586.464,28.65987,-3.25076,-0.13783,0.48187
587.064,28.6788,-3.25172,-0.14438,0.48165
587.664,28.69766,-3.25208,-0.14612,0.48144
588.264,28.71661,-3.25203,-0.14621,0.48123
588.864,28.73555,-3.25322,-0.15071,0.48101
589.464,28.75447,-3.25338,-0.1457,0.4808
590.064,28.77342,-3.25344,-0.14857,0.48059
590.664,28.79239,-3.25481,-0.15015,0.48038
591.264,28.8113,-3.25472,-0.14705,0.48016
591.864,28.83029,-3.25472,-0.14976,0.47995
592.464,28.84924,-3.25602,-0.15357,0.47974
593.064,28.86818,-3.25604,-0.15017,0.47953
593.664,28.8871,-3.25479,-0.15233,0.47931
594.264,28.90608,-3.25474,-0.15526,0.4791
594.864,28.925,-3.25526,-0.15816,0.47889
595.464,28.94401,-3.25617,-0.1561,0.47868
596.064,28.963,-3.25633,-0.15947,0.47846
596.664,28.982,-3.25751,-0.16536,0.47825
597.264,29.00109,-3.25746,-0.16534,0.47804
597.864,29.0201,-3.25745,-0.1676,0.47783
598.464,29.0391,-3.2581,-0.1672,0.47762
599.064,29.05805,-3.26005,-0.16809,0.47741
599.664,29.07708,-3.26008,-0.16682,0.47719
600.264,29.096,-3.26008,-0.16947,0.47698
600.864,29.11502,-3.26017,-0.17049,0.47677
601.464,29.13407,-3.26149,-0.17425,0.47656
602.064,29.1531,-3.26141,-0.17266,0.47635
602.664,29.17205,-3.2614,-0.17503,0.47614
603.264,29.19105,-3.26136,-0.17457,0.47593
603.864,29.21006,-3.26246,-0.17678,0.47571
604.464,29.22911,-3.26272,-0.1766,0.4755
605.064,29.24816,-3.26182,-0.18159,0.47529
605.664,29.2674,-3.26141,-0.18151,0.47508
606.264,29.28643,-3.26137,-0.18133,0.47487
606.864,29.3055,-3.26165,-0.17778,0.47466
607.464,29.32452,-3.26282,-0.1798,0.47445
608.064,29.3436,-3.26275,-0.17948,0.47424
608.664,29.36267,-3.26302,-0.18492,0.47403
609.264,29.3818,-3.26406,-0.1838,0.47382
609.864,29.40093,-3.26417,-0.18622,0.47361
610.464,29.42008,-3.26535,-0.18641,0.4734
611.064,29.4392,-3.26535,-0.18658,0.47319
611.664,29.45828,-3.26535,-0.18753,0.47298
612.264,29.4774,-3.26515,-0.19028,0.47277
612.864,29.4964,-3.26399,-0.19202,0.47256
613.464,29.51555,-3.26403,-0.19287,0.47235
614.064,29.53469,-3.26399,-0.19317,0.47214
614.664,29.5539,-3.26509,-0.19691,0.47193
615.264,29.57305,-3.26567,-0.19526,0.47172
615.864,29.5922,-3.26663,-0.19362,0.47151
616.464,29.61135,-3.2675,-0.19248,0.4713
617.064,29.63046,-3.26797,-0.19521,0.47109
617.664,29.64943,-3.26798,-0.20303,0.47088
618.264,29.6686,-3.26798,-0.20307,0.47067
618.864,29.6878,-3.26798,-0.19995,0.47046
619.464,29.70678,-3.26815,-0.19882,0.47026
620.064,29.72605,-3.26936,-0.19993,0.47005
620.664,29.74537,-3.26929,-0.19944,0.46984
621.264,29.7646,-3.26896,-0.20066,0.46963
621.864,29.78378,-3.26896,-0.20074,0.46942
622.464,29.80312,-3.26928,-0.19758,0.46921
623.064,29.8223,-3.26928,-0.1927,0.469
623.664,29.8415,-3.26973,-0.19355,0.4688
624.264,29.86066,-3.26996,-0.20119,0.46859
624.864,29.8799,-3.26998,-0.20602,0.46838
625.464,29.89906,-3.27127,-0.1978,0.46817
626.064,29.91825,-3.27127,-0.20757,0.46796
626.664,29.9375,-3.27127,-0.20872,0.46776
627.264,29.9567,-3.27127,-0.21161,0.46755
627.864,29.97591,-3.27015,-0.21289,0.46734
628.464,29.99516,-3.27064,-0.21557,0.46713
629.064,30.01438,-3.27172,-0.21625,0.46692
629.664,30.03358,-3.27336,-0.21548,0.46672
630.264,30.05279,-3.27345,-0.22178,0.46651
630.864,30.0721,-3.2734,-0.22388,0.4663
631.464,30.0912,-3.27459,-0.22561,0.4661
632.064,30.11052,-3.27478,-0.22585,0.46589
632.664,30.12977,-3.27478,-0.22811,0.46568
633.264,30.14905,-3.27478,-0.23193,0.46547
633.864,30.1683,-3.27478,-0.22906,0.46527
634.464,30.18761,-3.27478,-0.23593,0.46506
635.064,30.2069,-3.27478,-0.2396,0.46486
635.664,30.2262,-3.27478,-0.23808,0.46465
636.264,30.2453,-3.27478,-0.24005,0.46444
636.864,30.2646,-3.27477,-0.24381,0.46424
637.464,30.28388,-3.27468,-0.24596,0.46403
638.064,30.30322,-3.27587,-0.24108,0.46382
638.664,30.32259,-3.27567,-0.23952,0.46362
639.264,30.3419,-3.27537,-0.23603,0.46341
639.864,30.3612,-3.27512,-0.23471,0.46321
640.464,30.38053,-3.27511,-0.23707,0.463
641.064,30.39985,-3.27511,-0.23385,0.4628
641.664,30.4192,-3.27544,-0.23341,0.46259
642.264,30.43848,-3.2754,-0.2348,0.46238
642.864,30.45778,-3.27616,-0.23821,0.46218
643.464,30.47715,-3.27611,-0.23229,0.46197
644.064,30.49648,-3.2761,-0.23014,0.46177
644.664,30.51581,-3.2761,-0.2321,0.46156
645.264,30.5352,-3.27609,-0.23215,0.46136
645.864,30.55452,-3.27601,-0.23385,0.46115
646.464,30.57385,-3.27735,-0.23333,0.46095
647.064,30.59317,-3.27743,-0.22989,0.46075
647.664,30.61249,-3.27764,-0.22902,0.46054
648.264,30.63185,-3.2799,-0.2262,0.46034
648.864,30.65118,-3.28005,-0.22292,0.46013
649.464,30.67047,-3.28005,-0.22139,0.45993
650.064,30.6899,-3.28005,-0.21449,0.45972
650.664,30.70917,-3.28005,-0.20927,0.45952
651.264,30.7285,-3.28003,-0.20714,0.45932
651.864,30.74793,-3.28131,-0.20043,0.45911
652.464,30.76731,-3.28134,-0.20162,0.45891
653.064,30.7867,-3.2809,-0.20111,0.45871
653.664,30.80612,-3.28002,-0.20691,0.4585
654.264,30.8255,-3.28016,-0.20183,0.4583
654.864,30.84491,-3.28145,-0.2028,0.4581
655.464,30.86433,-3.28138,-0.21047,0.45789
656.064,30.8837,-3.28137,-0.21276,0.45769
656.664,30.90315,-3.28137,-0.21187,0.45749
657.264,30.9226,-3.28137,-0.21088,0.45728
657.864,30.94203,-3.28137,-0.20431,0.45708
658.464,30.96143,-3.28137,-0.20402,0.45688
659.064,30.9809,-3.28137,-0.20352,0.45668
659.664,31.0003,-3.28141,-0.20547,0.45647
660.264,31.0197,-3.28269,-0.20277,0.45627
660.864,31.0391,-3.28268,-0.20675,0.45607
661.464,31.05847,-3.28268,-0.20817,0.45587
662.064,31.07785,-3.28269,-0.20601,0.45567
662.664,31.0973,-3.28319,-0.20635,0.45546
663.264,31.1167,-3.28403,-0.20254,0.45526
663.864,31.1362,-3.284,-0.20516,0.45506
664.464,31.15574,-3.284,-0.20238,0.45486
665.064,31.17522,-3.28399,-0.19702,0.45466
665.664,31.19475,-3.28492,-0.19729,0.45446
666.264,31.2143,-3.2853,-0.19649,0.45426
666.864,31.2338,-3.28532,-0.19908,0.45406
667.464,31.25333,-3.28532,-0.1931,0.45385
668.064,31.2729,-3.28532,-0.19598,0.45365
668.664,31.29232,-3.28532,-0.19825,0.45345
669.264,31.3117,-3.28532,-0.19355,0.45325
669.864,31.33127,-3.28532,-0.19933,0.45305
670.464,31.35078,-3.28532,-0.20272,0.45285
671.064,31.37029,-3.28532,-0.204,0.45265
671.664,31.38993,-3.28532,-0.20355,0.45245
672.264,31.4094,-3.28532,-0.20638,0.45225
672.864,31.4289,-3.28532,-0.20692,0.45205
673.464,31.4484,-3.28532,-0.20928,0.45185
674.064,31.46793,-3.28655,-0.2086,0.45165
674.664,31.48753,-3.28662,-0.20812,0.45145
675.264,31.5072,-3.28663,-0.20828,0.45125
675.864,31.52683,-3.28654,-0.19521,0.45105
676.464,31.54627,-3.28326,-0.19226,0.45085
677.064,31.56581,-3.2784,-0.19538,0.45066
677.664,31.5853,-3.27897,-0.19714,0.45046
678.264,31.60482,-3.28553,-0.20027,0.45026
678.864,31.6244,-3.29396,-0.19705,0.45006
679.464,31.644,-3.29485,-0.19633,0.44986
680.064,31.6636,-3.29179,-0.19914,0.44966
680.664,31.68315,-3.28955,-0.19967,0.44946
681.264,31.7027,-3.28844,-0.20036,0.44927
681.864,31.7223,-3.28839,-0.20307,0.44907
682.464,31.7419,-3.28839,-0.20223,0.44887
683.064,31.76152,-3.28839,-0.20468,0.44867
683.664,31.7811,-3.2884,-0.2,0.44847
684.264,31.80067,-3.28845,-0.20032,0.44828
684.864,31.8203,-3.28973,-0.20301,0.44808
685.464,31.83982,-3.2897,-0.20401,0.44788
686.064,31.85946,-3.29104,-0.20972,0.44768
686.664,31.87916,-3.29102,-0.20903,0.44749
687.264,31.89885,-3.29102,-0.21405,0.44729
687.864,31.91852,-3.29102,-0.21337,0.44709
688.464,31.9382,-3.29102,-0.21113,0.4469
689.064,31.95765,-3.29102,-0.205,0.4467
689.664,31.9772,-3.29102,-0.20508,0.4465
690.264,31.9968,-3.29102,-0.20115,0.44631
690.864,32.0165,-3.29102,-0.19951,0.44611
691.464,32.03615,-3.29208,-0.20411,0.44591
692.064,32.0559,-3.29231,-0.20846,0.44572
692.664,32.07566,-3.29235,-0.20186,0.44552
693.264,32.09531,-3.29292,-0.20494,0.44533
693.864,32.1149,-3.29366,-0.21087,0.44513
694.464,32.13458,-3.29366,-0.20812,0.44493
695.064,32.15423,-3.29372,-0.21146,0.44474
695.664,32.17392,-3.29292,-0.21376,0.44454
696.264,32.19358,-3.29298,-0.21131,0.44435
696.864,32.2132,-3.29299,-0.20906,0.44415
697.464,32.2329,-3.29299,-0.2141,0.44396
698.064,32.2526,-3.29303,-0.21441,0.44376
698.664,32.27231,-3.29207,-0.2153,0.44357
699.264,32.292,-3.29168,-0.22292,0.44337
699.864,32.3117,-3.29168,-0.22596,0.44318
700.464,32.33143,-3.29184,-0.22365,0.44299
701.064,32.3511,-3.293,-0.22262,0.44279
701.664,32.3707,-3.29299,-0.22303,0.4426
702.264,32.3904,-3.29299,-0.22187,0.4424
702.864,32.4101,-3.29299,-0.22629,0.44221
703.464,32.42974,-3.29299,-0.22454,0.44202
704.064,32.44937,-3.293,-0.22524,0.44182
704.664,32.46901,-3.2944,-0.22118,0.44163
705.264,32.4887,-3.29378,-0.21834,0.44143
705.864,32.50827,-3.29376,-0.21497,0.44124
706.464,32.52787,-3.29375,-0.21382,0.44105
707.064,32.54757,-3.29323,-0.21297,0.44086
707.664,32.5673,-3.29242,-0.21457,0.44066
708.264,32.58702,-3.29244,-0.21267,0.44047
708.864,32.6068,-3.29244,-0.21269,0.44028
709.464,32.62657,-3.29244,-0.20702,0.44008
710.064,32.64622,-3.29244,-0.20273,0.43989
710.664,32.6659,-3.29244,-0.2034,0.4397
711.264,32.68557,-3.29244,-0.20533,0.43951
711.864,32.7053,-3.29247,-0.20198,0.43932
712.464,32.72503,-3.293,-0.19745,0.43912
713.064,32.74481,-3.29377,-0.19533,0.43893
713.664,32.7645,-3.29375,-0.199,0.43874
714.264,32.78427,-3.29366,-0.19834,0.43855
714.864,32.80388,-3.29492,-0.20195,0.43836
715.464,32.8236,-3.29632,-0.20092,0.43817
716.064,32.8434,-3.2964,-0.2053,0.43798
716.664,32.86318,-3.2964,-0.20804,0.43778
717.264,32.88296,-3.2964,-0.20944,0.43759
717.864,32.90274,-3.2964,-0.21396,0.4374
718.464,32.92248,-3.2964,-0.21524,0.43721
719.064,32.94222,-3.29634,-0.21124,0.43702
719.664,32.96198,-3.29756,-0.21591,0.43683
720.264,32.98175,-3.2977,-0.22154,0.43664
720.864,33.0015,-3.29762,-0.22347,0.43645
721.464,33.02132,-3.29611,-0.22109,0.43626
722.064,33.04105,-3.29429,-0.22107,0.43607
722.664,33.06085,-3.2944,-0.21705,0.43588
723.264,33.08064,-3.2944,-0.22445,0.43569
723.864,33.10041,-3.29517,-0.22254,0.4355
724.464,33.12023,-3.29573,-0.22566,0.43531
725.064,33.14,-3.29578,-0.2251,0.43512
725.664,33.15977,-3.29862,-0.22012,0.43493
726.264,33.17954,-3.29895,-0.22248,0.43475
726.864,33.19932,-3.30001,-0.22696,0.43456
727.464,33.21914,-3.30001,-0.2283,0.43437
728.064,33.2389,-3.30001,-0.22275,0.43418
728.664,33.2588,-3.30001,-0.22935,0.43399
729.264,33.27858,-3.30001,-0.22993,0.4338
729.864,33.2991,-3.30001,-0.23343,0.43362
730.464,33.31955,-3.30001,-0.22783,0.43343
730.864,33.33195,-3.30001,-0.22504,0.4333