File: 01_Data/Cotton_Ball/STA/N2/30K_min/Cotton_Ball_STA_N2_30KData_210714_R1.csv
##Temp./Â°C,Time/min,Mass loss(subtr.2)/mg,DSC(subtr.2)/(mW/mg),Sensit./(uV/mW)
50.575,10.00917,-0.01492,-0.04413119,0.6235
51.175,10.99969,-0.01830558,-0.01524551,0.6235
51.775,11.21105,-0.01978437,0.008897044,0.62349
52.375,11.35627,-0.01669573,0.02890307,0.62348
52.975,11.47001,-0.01787027,0.04628422,0.62347
53.575,11.56615,-0.01913396,0.06561666,0.62347
54.175,11.65025,-0.01942142,0.08881826,0.62346
54.775,11.72569,-0.01767942,0.10453,0.62345
55.375,11.7935,-0.01832715,0.12063,0.62344
55.975,11.8576,-0.02019761,0.13505,0.62343
56.575,11.91685,-0.01829896,0.15283,0.62342
57.175,11.97301,-0.01930783,0.16216,0.6234
57.775,12.02623,-0.01985592,0.18061,0.62339
58.375,12.0762,-0.01907462,0.19448,0.62338
58.975,12.124,-0.01956131,0.20694,0.62337
59.575,12.17218,-0.02002229,0.21857,0.62335
60.175,12.21798,-0.01896115,0.23217,0.62334
60.775,12.26172,-0.01987071,0.24301,0.62332
61.375,12.3045,-0.02061035,0.25472,0.62331
61.975,12.3458,-0.02092468,0.26368,0.62329
62.575,12.386,-0.02063523,0.27599,0.62327
63.175,12.42572,-0.02187122,0.28295,0.62326
63.775,12.46456,-0.02207056,0.29482,0.62324
64.375,12.50266,-0.02217625,0.30428,0.62322
64.975,12.54006,-0.02261367,0.30831,0.6232
65.575,12.57698,-0.02207352,0.32069,0.62318
66.175,12.61311,-0.02028758,0.32951,0.62316
66.775,12.6486,-0.02130949,0.33736,0.62314
67.375,12.6838,-0.02226673,0.34886,0.62312
67.975,12.71835,-0.02321843,0.35953,0.6231
68.575,12.75244,-0.02291548,0.36671,0.62308
69.175,12.78611,-0.02262346,0.37418,0.62306
69.775,12.8195,-0.0218258,0.38414,0.62303
70.375,12.85263,-0.02190812,0.39005,0.62301
70.975,12.8855,-0.02357486,0.39729,0.62299
71.575,12.91793,-0.0239719,0.40506,0.62296
72.175,12.94996,-0.02401947,0.4147,0.62294
72.775,12.98184,-0.02417288,0.42212,0.62291
73.375,13.0135,-0.02395206,0.42436,0.62288
73.975,13.0451,-0.02431669,0.43611,0.62286
74.575,13.07615,-0.02530898,0.44639,0.62283
75.175,13.10704,-0.02591974,0.44733,0.6228
75.775,13.13763,-0.02582092,0.4564,0.62277
76.375,13.16806,-0.0256579,0.46214,0.62275
76.975,13.19832,-0.02678406,0.47018,0.62272
77.575,13.22841,-0.02731171,0.47593,0.62269
78.175,13.2583,-0.02713696,0.48046,0.62266
78.775,13.2881,-0.02622606,0.4882,0.62262
79.375,13.31765,-0.02576762,0.49821,0.62259
79.975,13.34709,-0.02644785,0.50282,0.62256
80.575,13.37635,-0.02569605,0.51307,0.62253
81.175,13.40524,-0.02710251,0.51419,0.6225
81.775,13.43405,-0.02869281,0.52116,0.62246
82.375,13.4626,-0.02737822,0.53015,0.62243
82.975,13.4912,-0.02874531,0.53063,0.62239
83.575,13.5197,-0.02873995,0.53997,0.62236
84.175,13.548,-0.02873916,0.54744,0.62232
84.775,13.5761,-0.02881654,0.55474,0.62229
85.375,13.60395,-0.02881719,0.55902,0.62225
85.975,13.63166,-0.03025197,0.56739,0.62221
86.575,13.6593,-0.03048995,0.57327,0.62217
87.175,13.6866,-0.03160244,0.57932,0.62214
87.775,13.71385,-0.03105701,0.58459,0.6221
88.375,13.7409,-0.03182753,0.59551,0.62206
88.975,13.76781,-0.03042869,0.60149,0.62202
89.575,13.7946,-0.0311312,0.60972,0.62198
90.175,13.82122,-0.03045453,0.6172,0.62194
90.775,13.8477,-0.03191123,0.61918,0.6219
91.375,13.87406,-0.03352009,0.62514,0.62185
91.975,13.90015,-0.03344949,0.63226,0.62181
92.575,13.9263,-0.03346332,0.6344,0.62177
93.175,13.95244,-0.03437798,0.64345,0.62173
93.775,13.97851,-0.03476716,0.64357,0.62168
94.375,14.00436,-0.03504792,0.65277,0.62164
94.975,14.02997,-0.03607787,0.65518,0.62159
95.575,14.05539,-0.03735737,0.66211,0.62155
96.175,14.08063,-0.03763177,0.66896,0.6215
96.775,14.1058,-0.03900593,0.67547,0.62145
97.375,14.1309,-0.03893611,0.67992,0.62141
97.975,14.15594,-0.03998412,0.68901,0.62136
98.575,14.18079,-0.04025435,0.70048,0.62131
99.175,14.20566,-0.04022579,0.70432,0.62126
99.775,14.23034,-0.03917175,0.71057,0.62121
100.375,14.25495,-0.04018358,0.72095,0.62117
100.975,14.2793,-0.04082464,0.72939,0.62112
101.575,14.30362,-0.04177452,0.73471,0.62107
102.175,14.32785,-0.04179616,0.74334,0.62101
102.775,14.35191,-0.04320197,0.74986,0.62096
103.375,14.3759,-0.04311469,0.75235,0.62091
103.975,14.39989,-0.04310997,0.76223,0.62086
104.575,14.4237,-0.04311178,0.76693,0.62081
105.175,14.4475,-0.04313055,0.77534,0.62075
105.775,14.4712,-0.0443781,0.78306,0.6207
106.375,14.49458,-0.04464595,0.78972,0.62064
106.975,14.51808,-0.04464636,0.79743,0.62059
107.575,14.54141,-0.04482069,0.80236,0.62053
108.175,14.5647,-0.04596705,0.80712,0.62048
108.775,14.5879,-0.04596838,0.81262,0.62042
109.375,14.611,-0.04676916,0.81527,0.62036
109.975,14.63384,-0.04726674,0.82197,0.62031
110.575,14.6569,-0.04728042,0.82493,0.62025
111.175,14.6798,-0.04766993,0.83135,0.62019
111.775,14.7025,-0.04868069,0.83755,0.62013
112.375,14.72543,-0.04870474,0.84222,0.62007
112.975,14.74795,-0.0486805,0.84763,0.62001
113.575,14.77055,-0.05005318,0.85555,0.61995
114.175,14.793,-0.05001865,0.85299,0.61989
114.775,14.81531,-0.05100491,0.85977,0.61983
115.375,14.83765,-0.05133236,0.86083,0.61977
115.975,14.8598,-0.05134168,0.8667,0.6197
116.575,14.88202,-0.05146057,0.87187,0.61964
117.175,14.90415,-0.05281636,0.87243,0.61958
117.775,14.9262,-0.05272636,0.8787,0.61951
118.375,14.9481,-0.05308183,0.8806,0.61945
118.975,14.9699,-0.05378047,0.8867,0.61939
119.575,14.9917,-0.05547062,0.88804,0.61932
120.175,15.01339,-0.0553959,0.89089,0.61925
120.775,15.0351,-0.0553833,0.89424,0.61919
121.375,15.05672,-0.05651967,0.90089,0.61912
121.975,15.0782,-0.05671907,0.90359,0.61905
122.575,15.09959,-0.05784009,0.90629,0.61899
123.175,15.12095,-0.05823686,0.91082,0.61892
123.775,15.14221,-0.05824031,0.91062,0.61885
124.375,15.16346,-0.05825162,0.91144,0.61878
124.975,15.18467,-0.0585394,0.91935,0.61871
125.575,15.2058,-0.05959583,0.92535,0.61864
126.175,15.22681,-0.05956188,0.92227,0.61857
126.775,15.24774,-0.05956135,0.92948,0.6185
127.375,15.26859,-0.05956839,0.92797,0.61843
127.975,15.2894,-0.06068568,0.92472,0.61836
128.575,15.31025,-0.06116683,0.93157,0.61828
129.175,15.3309,-0.06263883,0.93369,0.61821
129.775,15.3517,-0.06257985,0.93754,0.61814
130.375,15.37224,-0.06446165,0.9348,0.61806
130.975,15.3927,-0.0653998,0.93739,0.61799
131.575,15.413,-0.06677071,0.93977,0.61791
132.175,15.43344,-0.06707459,0.94311,0.61784
132.775,15.4538,-0.0680231,0.94678,0.61776
133.375,15.4741,-0.06908349,0.9447,0.61769
133.975,15.4945,-0.07003364,0.94642,0.61761
134.575,15.51474,-0.07154068,0.95222,0.61753
135.175,15.53491,-0.07265121,0.95306,0.61746
135.775,15.55502,-0.0733715,0.95103,0.61738
136.375,15.5751,-0.0751132,0.95417,0.6173
136.975,15.59498,-0.07544584,0.95791,0.61722
137.575,15.6149,-0.07432828,0.95989,0.61714
138.175,15.63478,-0.0725494,0.95947,0.61706
138.775,15.65466,-0.07074398,0.95941,0.61698
139.375,15.6746,-0.07023139,0.95997,0.6169
139.975,15.6944,-0.06884062,0.9583,0.61682
140.575,15.71415,-0.06878358,0.9611,0.61674
141.175,15.73388,-0.06883799,0.96204,0.61665
141.775,15.7535,-0.07019635,0.96624,0.61657
142.375,15.77305,-0.07010742,0.96388,0.61649
142.975,15.7926,-0.07010529,0.96174,0.6164
143.575,15.81204,-0.07015652,0.96454,0.61632
144.175,15.83155,-0.06894811,0.96608,0.61624
144.775,15.85092,-0.06878132,0.96502,0.61615
145.375,15.87028,-0.06877997,0.96302,0.61607
145.975,15.8897,-0.06877942,0.96359,0.61598
146.575,15.90889,-0.06878406,0.96454,0.61589
147.175,15.9282,-0.06967265,0.96964,0.61581
147.775,15.9475,-0.07009234,0.96996,0.61572
148.375,15.9666,-0.07009027,0.97267,0.61563
148.975,15.98581,-0.07009004,0.97214,0.61554
149.575,16.0049,-0.07009016,0.97147,0.61546
150.175,16.02394,-0.07009198,0.97527,0.61537
150.775,16.04301,-0.07011311,0.97589,0.61528
151.375,16.06204,-0.07036565,0.9727,0.61519
151.975,16.081,-0.07245296,0.97666,0.6151
152.575,16.10011,-0.07240263,0.97697,0.61501
153.175,16.11911,-0.07239978,0.97733,0.61491
153.775,16.138,-0.07234668,0.97764,0.61482
154.375,16.15691,-0.07369462,0.97955,0.61473
154.975,16.1758,-0.07371057,0.97999,0.61464
155.575,16.19458,-0.07378765,0.98328,0.61454
156.175,16.21336,-0.07512531,0.98239,0.61445
156.775,16.23219,-0.07503712,0.98559,0.61436
157.375,16.251,-0.07503369,0.98373,0.61426
157.975,16.2697,-0.07504166,0.98647,0.61417
158.575,16.28839,-0.07536486,0.98289,0.61407
159.175,16.30706,-0.07536107,0.98782,0.61398
159.775,16.32562,-0.07536026,0.99104,0.61388
160.375,16.34423,-0.07536174,0.98826,0.61378
160.975,16.3628,-0.07537865,0.98875,0.61369
161.575,16.3813,-0.07552152,0.98941,0.61359
162.175,16.39985,-0.0770653,0.9896,0.61349
162.775,16.41844,-0.07795566,0.99227,0.61339
163.375,16.437,-0.07928821,0.99182,0.6133
163.975,16.45545,-0.07929898,0.99445,0.6132
164.575,16.47395,-0.07929991,0.99158,0.6131
165.175,16.4924,-0.0793,0.98968,0.613
165.775,16.51078,-0.07930002,0.98626,0.6129
166.375,16.5291,-0.0793,0.99295,0.6128
166.975,16.54748,-0.07929748,0.99172,0.61269
167.575,16.56586,-0.07925203,0.98927,0.61259
168.175,16.58415,-0.08041019,0.9954,0.61249
168.775,16.60238,-0.08071314,0.99556,0.61239
169.375,16.62067,-0.08072937,0.9976,0.61229
169.975,16.63889,-0.08072962,0.99741,0.61218
170.575,16.65704,-0.08070029,1.00079,0.61208
171.175,16.67525,-0.08108778,1.00009,0.61197
171.775,16.69345,-0.08106224,0.99666,0.61187
172.375,16.7116,-0.08105785,1.00065,0.61176
172.975,16.72976,-0.08105315,1.00238,0.61166
173.575,16.74791,-0.08142732,0.99782,0.61155
174.175,16.76605,-0.08020961,1.00056,0.61145
174.775,16.78415,-0.08027561,0.99989,0.61134
175.375,16.80224,-0.08023535,1.00338,0.61123
175.975,16.82021,-0.08138384,1.00261,0.61112
176.575,16.8382,-0.081957,1.00141,0.61102
177.175,16.8561,-0.08241909,1.00619,0.61091
177.775,16.87399,-0.08258043,1.00303,0.6108
178.375,16.89189,-0.08258509,1.01045,0.61069
178.975,16.90983,-0.08294732,1.01147,0.61058
179.575,16.9277,-0.08325727,1.01465,0.61047
180.175,16.94557,-0.08325136,1.01312,0.61036
180.775,16.96348,-0.08325014,1.01439,0.61025
181.375,16.98134,-0.08325001,1.01601,0.61014
181.975,16.99912,-0.08325,1.01794,0.61003
182.575,17.0169,-0.08325,1.01549,0.60991
183.175,17.0347,-0.08324997,1.01759,0.6098
183.775,17.05236,-0.08324973,1.02521,0.60969
184.375,17.07006,-0.08324904,1.02296,0.60958
184.975,17.08775,-0.08326423,1.03174,0.60946
185.575,17.10545,-0.08380555,1.04358,0.60935
186.175,17.1231,-0.08555373,1.04602,0.60923
186.775,17.14078,-0.08588055,1.04396,0.60912
187.375,17.15833,-0.08589032,1.04471,0.609
187.975,17.1759,-0.08588301,1.04576,0.60889
188.575,17.19341,-0.08665848,1.05018,0.60877
189.175,17.21094,-0.08718081,1.05192,0.60865
189.775,17.22844,-0.08720089,1.05351,0.60854
190.375,17.24592,-0.08720058,1.05948,0.60842
190.975,17.26345,-0.08720309,1.06086,0.6083
191.575,17.2809,-0.08721704,1.06083,0.60818
192.175,17.29834,-0.08661854,1.06016,0.60807
192.775,17.31575,-0.08585495,1.05512,0.60795
193.375,17.3332,-0.08589721,1.05763,0.60783
193.975,17.35056,-0.08594216,1.06516,0.60771
194.575,17.36797,-0.08716587,1.05983,0.60759
195.175,17.3854,-0.08719937,1.06679,0.60747
195.775,17.40273,-0.08720898,1.0685,0.60735
196.375,17.42005,-0.08720997,1.07092,0.60722
196.975,17.43736,-0.08721001,1.07151,0.6071
197.575,17.4546,-0.08721,1.0734,0.60698
198.175,17.47188,-0.08721,1.07045,0.60686
198.775,17.4891,-0.08721,1.07435,0.60674
199.375,17.50633,-0.08721,1.07662,0.60661
199.975,17.5235,-0.08721,1.07922,0.60649
200.575,17.54074,-0.08721,1.07949,0.60636
201.175,17.55793,-0.08721,1.08717,0.60624
201.775,17.5751,-0.08721,1.08804,0.60612
202.375,17.59233,-0.08720999,1.09002,0.60599
202.975,17.6095,-0.08720999,1.09268,0.60586
203.575,17.62663,-0.08721089,1.08831,0.60574
204.175,17.64376,-0.08722204,1.09214,0.60561
204.775,17.66089,-0.08727642,1.09303,0.60549
205.375,17.67801,-0.08847757,1.09458,0.60536
205.975,17.69513,-0.08850883,1.09837,0.60523
206.575,17.7122,-0.08851903,1.10005,0.6051
207.175,17.72937,-0.08851999,1.09984,0.60498
207.775,17.7465,-0.08851953,1.10516,0.60485
208.375,17.76352,-0.08851393,1.10357,0.60472
208.975,17.78056,-0.08897782,1.10036,0.60459
209.575,17.7976,-0.08985797,1.10708,0.60446
210.175,17.81459,-0.08983613,1.10628,0.60433
210.775,17.8316,-0.08983051,1.10855,0.6042
211.375,17.84865,-0.08982985,1.10849,0.60407
211.975,17.8657,-0.08982307,1.11324,0.60394
212.575,17.88268,-0.08976142,1.11219,0.6038
213.175,17.89965,-0.09085887,1.11242,0.60367
213.775,17.91662,-0.09115358,1.11791,0.60354
214.375,17.93352,-0.09115049,1.12123,0.60341
214.975,17.95045,-0.09114999,1.12029,0.60327
215.575,17.9674,-0.09115037,1.12658,0.60314
216.175,17.98433,-0.09115662,1.12328,0.60301
216.775,18.00123,-0.09118949,1.12457,0.60287
217.375,18.01815,-0.09025161,1.13021,0.60274
217.975,18.03505,-0.08983481,1.12995,0.6026
218.575,18.0519,-0.08983685,1.12843,0.60247
219.175,18.06879,-0.0898439,1.1306,0.60233
219.775,18.0856,-0.09030398,1.13061,0.6022
220.375,18.10254,-0.0910653,1.13271,0.60206
220.975,18.11944,-0.09104029,1.13395,0.60192
221.575,18.13627,-0.09103971,1.1372,0.60179
222.175,18.15311,-0.09103996,1.14138,0.60165
222.775,18.16994,-0.09104,1.14438,0.60151
223.375,18.1867,-0.09104,1.14472,0.60137
223.975,18.20351,-0.09104,1.14263,0.60124
224.575,18.22029,-0.09103999,1.14744,0.6011
225.175,18.23711,-0.09104011,1.1496,0.60096
225.775,18.25391,-0.09104169,1.14694,0.60082
226.375,18.2707,-0.09104753,1.14957,0.60068
226.975,18.28746,-0.09096922,1.15007,0.60054
227.575,18.30423,-0.09229612,1.15408,0.6004
228.175,18.32096,-0.09235732,1.15379,0.60026
228.775,18.33771,-0.09236918,1.15396,0.60012
229.375,18.3544,-0.09264181,1.15609,0.59997
229.975,18.37111,-0.09371973,1.15379,0.59983
230.575,18.38779,-0.0936842,1.1535,0.59969
231.175,18.4045,-0.09394515,1.15872,0.59955
231.775,18.42117,-0.0952671,1.15362,0.5994
232.375,18.4378,-0.09522123,1.15754,0.59926
232.975,18.45456,-0.09571479,1.16042,0.59912
233.575,18.4712,-0.09653546,1.16092,0.59897
234.175,18.48793,-0.09652951,1.16185,0.59883
234.775,18.5046,-0.09652805,1.16387,0.59868
235.375,18.5213,-0.09651601,1.16641,0.59854
235.975,18.538,-0.09528964,1.16771,0.59839
236.575,18.55464,-0.09523285,1.16841,0.59825
237.175,18.57129,-0.09521156,1.17018,0.5981
237.775,18.58792,-0.09520988,1.17166,0.59796
238.375,18.60458,-0.09520997,1.17198,0.59781
238.975,18.6212,-0.09520998,1.17187,0.59766
239.575,18.63776,-0.09521009,1.17555,0.59752
240.175,18.65437,-0.09521175,1.1721,0.59737
240.775,18.67097,-0.09521891,1.16905,0.59722
241.375,18.68755,-0.09514245,1.1698,0.59707
241.975,18.70412,-0.09647551,1.17178,0.59692
242.575,18.72071,-0.09658858,1.17155,0.59677
243.175,18.7373,-0.09776138,1.17385,0.59662
243.775,18.75386,-0.09773951,1.17537,0.59647
244.375,18.77042,-0.09892348,1.17414,0.59632
244.975,18.78686,-0.0991631,1.1813,0.59617
245.575,18.8034,-0.09915937,1.18128,0.59602
246.175,18.81999,-0.09915728,1.18406,0.59587
246.775,18.8365,-0.09922531,1.18324,0.59572
247.375,18.85302,-0.09844113,1.18925,0.59557
247.975,18.8696,-0.09851068,1.18911,0.59542
248.575,18.88624,-0.09842137,1.19101,0.59527
249.175,18.9027,-0.09973706,1.19654,0.59511
249.775,18.91928,-0.09992785,1.19477,0.59496
250.375,18.93584,-0.10058,1.1966,0.59481
250.975,18.95232,-0.10126,1.20093,0.59465
251.575,18.9688,-0.10125,1.20095,0.5945
252.175,18.9853,-0.10125,1.20179,0.59435
252.775,19.00175,-0.10125,1.20506,0.59419
253.375,19.01822,-0.10126,1.20642,0.59404
253.975,19.03473,-0.1016,1.20755,0.59388
254.575,19.05123,-0.1023,1.20986,0.59373
255.175,19.0677,-0.10257,1.20649,0.59357
255.775,19.08418,-0.10257,1.21091,0.59341
256.375,19.1007,-0.10262,1.20877,0.59326
256.975,19.1172,-0.10389,1.20922,0.5931
257.575,19.13363,-0.10397,1.20807,0.59294
258.175,19.15011,-0.10441,1.20739,0.59279
258.775,19.1665,-0.1055,1.20427,0.59263
259.375,19.18295,-0.10575,1.20762,0.59247
259.975,19.19939,-0.10673,1.20673,0.59231
260.575,19.21584,-0.10672,1.21009,0.59215
261.175,19.2322,-0.10667,1.20929,0.592
261.775,19.2486,-0.10767,1.20725,0.59184
262.375,19.26507,-0.10801,1.20868,0.59168
262.975,19.2815,-0.10892,1.21061,0.59152
263.575,19.29789,-0.10949,1.20511,0.59136
264.175,19.3143,-0.10975,1.20385,0.5912
264.775,19.33074,-0.11083,1.20745,0.59104
265.375,19.3472,-0.11071,1.20641,0.59087
265.975,19.36364,-0.11202,1.20522,0.59071
266.575,19.38006,-0.11209,1.20328,0.59055
267.175,19.39635,-0.11322,1.20665,0.59039
267.775,19.4129,-0.11492,1.20001,0.59023
268.375,19.42923,-0.11649,1.2054,0.59007
268.975,19.4456,-0.11666,1.20312,0.5899
269.575,19.46196,-0.11684,1.20273,0.58974
270.175,19.47842,-0.1166,1.19755,0.58958
270.775,19.49482,-0.1178,1.19988,0.58941
271.375,19.5112,-0.11841,1.19994,0.58925
271.975,19.52763,-0.12014,1.19977,0.58909
272.575,19.54404,-0.12073,1.19513,0.58892
273.175,19.56043,-0.12199,1.19105,0.58876
273.775,19.57685,-0.12329,1.19071,0.58859
274.375,19.59321,-0.12354,1.1854,0.58843
274.975,19.60959,-0.12641,1.18349,0.58826
275.575,19.626,-0.12628,1.18075,0.58809
276.175,19.6424,-0.12736,1.17784,0.58793
276.775,19.65878,-0.12787,1.18003,0.58776
277.375,19.67515,-0.12935,1.17022,0.58759
277.975,19.69155,-0.13084,1.169,0.58743
278.575,19.7079,-0.13252,1.16875,0.58726
279.175,19.72423,-0.13484,1.15553,0.58709
279.775,19.74061,-0.13554,1.15528,0.58692
280.375,19.757,-0.13568,1.14886,0.58676
280.975,19.77338,-0.13634,1.14428,0.58659
281.575,19.78976,-0.13849,1.13752,0.58642
282.175,19.8062,-0.14023,1.12999,0.58625
282.775,19.82256,-0.14167,1.13168,0.58608
283.375,19.8389,-0.14301,1.12361,0.58591
283.975,19.85531,-0.14392,1.12002,0.58574
284.575,19.87169,-0.14582,1.11267,0.58557
285.175,19.88808,-0.14793,1.10996,0.5854
285.775,19.9044,-0.14938,1.10838,0.58523
286.375,19.92077,-0.15195,1.10147,0.58506
286.975,19.93714,-0.15429,1.09588,0.58489
287.575,19.9535,-0.15661,1.08815,0.58472
288.175,19.96985,-0.15845,1.07972,0.58455
288.775,19.98625,-0.15979,1.07355,0.58437
289.375,20.00262,-0.16044,1.07019,0.5842
289.975,20.01901,-0.16167,1.05875,0.58403
290.575,20.0354,-0.16352,1.05053,0.58386
291.175,20.0518,-0.16655,1.04663,0.58368
291.775,20.06814,-0.16901,1.03729,0.58351
292.375,20.08451,-0.1722,1.0252,0.58334
292.975,20.10083,-0.17563,1.01887,0.58316
293.575,20.11703,-0.17742,1.01047,0.58299
294.175,20.13329,-0.17974,1.00035,0.58281
294.775,20.14963,-0.18248,0.99553,0.58264
295.375,20.166,-0.18461,0.98494,0.58247
295.975,20.18232,-0.18765,0.97848,0.58229
296.575,20.19877,-0.191,0.96594,0.58211
297.175,20.21526,-0.19286,0.95587,0.58194
297.775,20.23165,-0.19537,0.94794,0.58176
298.375,20.24803,-0.19821,0.93851,0.58159
298.975,20.26438,-0.20014,0.93387,0.58141
299.575,20.28081,-0.20327,0.92673,0.58123
300.175,20.29709,-0.20733,0.91736,0.58106
300.775,20.31346,-0.21068,0.90632,0.58088
301.375,20.32976,-0.21485,0.89963,0.5807
301.975,20.3461,-0.21933,0.89353,0.58053
302.575,20.3624,-0.22298,0.88143,0.58035
303.175,20.3788,-0.22813,0.87142,0.58017
303.775,20.3951,-0.23237,0.86633,0.57999
304.375,20.41149,-0.23669,0.8574,0.57981
304.975,20.42788,-0.24103,0.84538,0.57963
305.575,20.44426,-0.24546,0.84164,0.57945
306.175,20.46059,-0.25068,0.83331,0.57928
306.775,20.47695,-0.25434,0.82774,0.5791
307.375,20.4933,-0.25915,0.81627,0.57892
307.975,20.50969,-0.26383,0.81003,0.57874
308.575,20.52603,-0.26904,0.80501,0.57856
309.175,20.54239,-0.27468,0.80057,0.57837
309.775,20.5588,-0.27893,0.79597,0.57819
310.375,20.57514,-0.28515,0.79337,0.57801
310.975,20.59145,-0.29037,0.78863,0.57783
311.575,20.60776,-0.29641,0.78763,0.57765
312.175,20.6241,-0.30263,0.77863,0.57747
312.775,20.64046,-0.30727,0.77826,0.57729
313.375,20.65684,-0.3139,0.77546,0.5771
313.975,20.6732,-0.31958,0.77286,0.57692
314.575,20.6896,-0.32687,0.77295,0.57674
315.175,20.70596,-0.33448,0.77387,0.57656
315.775,20.72235,-0.34104,0.76654,0.57637
316.375,20.73871,-0.34873,0.77054,0.57619
316.975,20.75504,-0.35427,0.77137,0.57601
317.575,20.77136,-0.36111,0.77189,0.57582
318.175,20.7877,-0.3685,0.77237,0.57564
318.775,20.804,-0.37658,0.7716,0.57545
319.375,20.82035,-0.38651,0.7679,0.57527
319.975,20.83672,-0.39404,0.77009,0.57509
320.575,20.85306,-0.40325,0.76874,0.5749
321.175,20.8694,-0.41155,0.77297,0.57471
321.775,20.88575,-0.41967,0.77348,0.57453
322.375,20.90209,-0.42933,0.77352,0.57434
322.975,20.91844,-0.43723,0.77535,0.57416
323.575,20.93479,-0.44817,0.77422,0.57397
324.175,20.95116,-0.45748,0.77378,0.57379
324.775,20.9675,-0.46749,0.77771,0.5736
325.375,20.98385,-0.48006,0.77518,0.57341
325.975,21.00021,-0.48886,0.77634,0.57323
326.575,21.01665,-0.50079,0.77735,0.57304
327.175,21.03303,-0.51034,0.78175,0.57285
327.775,21.0494,-0.52233,0.78481,0.57266
328.375,21.06585,-0.53521,0.7833,0.57248
328.975,21.08222,-0.54608,0.78858,0.57229
329.575,21.09858,-0.55918,0.7907,0.5721
330.175,21.1149,-0.5691,0.79107,0.57191
330.775,21.13133,-0.58197,0.79748,0.57172
331.375,21.14769,-0.59609,0.7991,0.57153
331.975,21.16408,-0.60963,0.80303,0.57134
332.575,21.18048,-0.62602,0.80424,0.57116
333.175,21.1968,-0.63976,0.80997,0.57097
333.775,21.21323,-0.65648,0.81376,0.57078
334.375,21.22963,-0.67177,0.81799,0.57059
334.975,21.24604,-0.68754,0.82423,0.5704
335.575,21.26245,-0.70582,0.82907,0.57021
336.175,21.2788,-0.72047,0.8291,0.57002
336.775,21.29518,-0.74011,0.83445,0.56983
337.375,21.31157,-0.75574,0.84477,0.56963
337.975,21.3279,-0.7737,0.84955,0.56944
338.575,21.34424,-0.7947,0.85309,0.56925
339.175,21.36062,-0.81291,0.86119,0.56906
339.775,21.37705,-0.83596,0.87213,0.56887
340.375,21.39344,-0.85468,0.87075,0.56868
340.975,21.40984,-0.87602,0.88136,0.56848
341.575,21.42625,-0.89932,0.89217,0.56829
342.175,21.44266,-0.92067,0.90125,0.5681
342.775,21.45908,-0.94723,0.91282,0.56791
343.375,21.47546,-0.96716,0.92183,0.56771
343.975,21.49183,-0.99212,0.92886,0.56752
344.575,21.50822,-1.01618,0.94337,0.56733
345.175,21.5246,-1.03991,0.95486,0.56714
345.775,21.54101,-1.0698,0.96707,0.56694
346.375,21.55738,-1.09277,0.97489,0.56675
346.975,21.57374,-1.12251,0.99298,0.56655
347.575,21.59015,-1.14875,1.00785,0.56636
348.175,21.6066,-1.17722,1.01856,0.56617
348.775,21.62296,-1.20803,1.03026,0.56597
349.375,21.63936,-1.22632,1.04289,0.56578
349.975,21.6558,-1.25235,1.05938,0.56558
350.575,21.6722,-1.28248,1.07731,0.56539
351.175,21.6886,-1.32269,1.09518,0.56519
351.775,21.705,-1.36846,1.10975,0.565
352.375,21.72145,-1.4044,1.12289,0.5648
352.975,21.7378,-1.43482,1.13964,0.5646
353.575,21.75413,-1.45898,1.1501,0.56441
354.175,21.77058,-1.48901,1.16439,0.56421
354.775,21.7871,-1.521,1.17896,0.56402
355.375,21.8035,-1.55079,1.18982,0.56382
355.975,21.8201,-1.5884,1.19769,0.56362
356.575,21.83667,-1.61705,1.2079,0.56342
357.175,21.8533,-1.65151,1.2194,0.56323
357.775,21.8698,-1.68041,1.22145,0.56303
358.375,21.88629,-1.71018,1.23018,0.56283
358.975,21.90289,-1.74516,1.23445,0.56264
359.575,21.91949,-1.77324,1.23573,0.56244
360.175,21.9361,-1.80768,1.23555,0.56224
360.775,21.9527,-1.83518,1.23375,0.56204
361.375,21.9694,-1.86553,1.23026,0.56184
361.975,21.98604,-1.89631,1.22566,0.56164
362.575,22.00265,-1.92329,1.21677,0.56145
363.175,22.01925,-1.95595,1.20816,0.56125
363.775,22.03591,-1.98102,1.19765,0.56105
364.375,22.05252,-2.01052,1.18417,0.56085
364.975,22.06922,-2.0364,1.17411,0.56065
365.575,22.08592,-2.06081,1.15466,0.56045
366.175,22.10265,-2.08918,1.13497,0.56025
366.775,22.11929,-2.11164,1.11347,0.56005
367.375,22.13598,-2.13913,1.09538,0.55985
367.975,22.15257,-2.15977,1.07447,0.55965
368.575,22.16926,-2.1818,1.04946,0.55945
369.175,22.18604,-2.20426,1.02091,0.55925
369.775,22.20297,-2.22373,0.99344,0.55905
370.375,22.2199,-2.24679,0.97102,0.55885
370.975,22.23689,-2.26359,0.94221,0.55865
371.575,22.25385,-2.28434,0.9166,0.55845
372.175,22.27059,-2.30177,0.89119,0.55825
372.775,22.28741,-2.31945,0.85855,0.55805
373.375,22.30425,-2.33746,0.82758,0.55784
373.975,22.32105,-2.35067,0.79983,0.55764
374.575,22.33793,-2.36654,0.76988,0.55744
375.175,22.35493,-2.37842,0.73596,0.55724
375.775,22.3719,-2.39259,0.70673,0.55704
376.375,22.38878,-2.40508,0.67649,0.55683
376.975,22.4057,-2.41675,0.64439,0.55663
377.575,22.42259,-2.43013,0.61336,0.55643
378.175,22.43949,-2.44117,0.58188,0.55623
378.775,22.45626,-2.45342,0.55282,0.55602
379.375,22.47316,-2.46247,0.52514,0.55582
379.975,22.4901,-2.47166,0.48813,0.55562
380.575,22.5071,-2.4801,0.46491,0.55541
381.175,22.52396,-2.48672,0.43243,0.55521
381.775,22.54101,-2.49428,0.40419,0.55501
382.375,22.55797,-2.50059,0.37546,0.5548
382.975,22.57487,-2.50788,0.35032,0.5546
383.575,22.59178,-2.51366,0.31887,0.5544
384.175,22.60877,-2.51976,0.29194,0.55419
384.775,22.62579,-2.52531,0.27155,0.55399
385.375,22.6428,-2.52934,0.25178,0.55378
385.975,22.65979,-2.5347,0.22376,0.55358
386.575,22.67675,-2.53903,0.2005,0.55337
387.175,22.69365,-2.54381,0.17881,0.55317
387.775,22.7105,-2.54751,0.15538,0.55296
388.375,22.7275,-2.55058,0.13766,0.55276
388.975,22.74445,-2.55335,0.11736,0.55255
389.575,22.76141,-2.55716,0.10254,0.55235
390.175,22.77841,-2.55919,0.08469982,0.55214
390.775,22.79543,-2.55683,0.0710983,0.55194
391.375,22.8125,-2.55123,0.05899467,0.55173
391.975,22.8294,-2.54962,0.04826639,0.55152
392.575,22.8464,-2.56127,0.04332695,0.55132
393.175,22.8634,-2.57554,0.03325252,0.55111
393.775,22.8804,-2.58542,0.02682413,0.55091
394.375,22.8974,-2.58497,0.01535165,0.5507
394.975,22.9144,-2.58232,0.01019574,0.55049
395.575,22.9314,-2.58079,0.00146406,0.55029
396.175,22.9484,-2.58094,-0.004308963,0.55008
396.775,22.96539,-2.58152,-0.007345152,0.54987
397.375,22.98242,-2.58223,-0.01368172,0.54967
397.975,22.99943,-2.58423,-0.02053775,0.54946
398.575,23.0165,-2.58599,-0.02024756,0.54925
399.175,23.03346,-2.58775,-0.03157182,0.54904
399.775,23.0505,-2.58966,-0.03188282,0.54884
400.375,23.06758,-2.591,-0.03405217,0.54863
400.975,23.0846,-2.59275,-0.03346089,0.54842
401.575,23.1017,-2.59372,-0.03666262,0.54821
402.175,23.11875,-2.5947,-0.04443518,0.54801
402.775,23.13586,-2.59615,-0.04186489,0.5478
403.375,23.15295,-2.59767,-0.05112612,0.54759
403.975,23.17004,-2.5988,-0.04984722,0.54738
404.575,23.18713,-2.59995,-0.0527114,0.54717
405.175,23.20429,-2.60281,-0.05858187,0.54696
405.775,23.2214,-2.60492,-0.06105871,0.54675
406.375,23.2385,-2.60673,-0.06348617,0.54655
406.975,23.25565,-2.60831,-0.07182367,0.54634
407.575,23.2728,-2.60819,-0.07134251,0.54613
408.175,23.2899,-2.60937,-0.07102539,0.54592
408.775,23.30702,-2.61093,-0.07460522,0.54571
409.375,23.32416,-2.61197,-0.07579598,0.5455
409.975,23.34133,-2.61249,-0.07628526,0.54529
410.575,23.35845,-2.61418,-0.08346723,0.54508
411.175,23.37561,-2.61621,-0.08496518,0.54487
411.775,23.3928,-2.6173,-0.08664055,0.54466
412.375,23.40995,-2.61889,-0.09054594,0.54445
412.975,23.42708,-2.61973,-0.09473716,0.54424
413.575,23.44428,-2.6207,-0.09198296,0.54403
414.175,23.46143,-2.62257,-0.09769727,0.54382
414.775,23.47861,-2.6243,-0.09877089,0.54361
415.375,23.4958,-2.62574,-0.10491,0.5434
415.975,23.51302,-2.62698,-0.10398,0.54319
416.575,23.53023,-2.62682,-0.10753,0.54298
417.175,23.54745,-2.6282,-0.11269,0.54277
417.775,23.56464,-2.62945,-0.11329,0.54256
418.375,23.5819,-2.63079,-0.11695,0.54235
418.975,23.59907,-2.63235,-0.11688,0.54214
419.575,23.61629,-2.63535,-0.11921,0.54193
420.175,23.63355,-2.63656,-0.12377,0.54171
420.775,23.6508,-2.637,-0.12083,0.5415
421.375,23.66807,-2.63846,-0.12113,0.54129
421.975,23.6853,-2.63913,-0.12479,0.54108
422.575,23.70261,-2.64006,-0.12868,0.54087
423.175,23.7199,-2.6416,-0.13696,0.54066
423.775,23.73713,-2.64264,-0.13283,0.54045
424.375,23.7544,-2.6432,-0.13859,0.54023
424.975,23.77166,-2.64473,-0.13892,0.54002
425.575,23.78885,-2.64637,-0.14256,0.53981
426.175,23.8061,-2.64727,-0.14034,0.5396
426.775,23.82346,-2.64847,-0.14582,0.53939
427.375,23.8408,-2.64982,-0.15302,0.53917
427.975,23.85813,-2.65078,-0.14703,0.53896
428.575,23.87546,-2.65137,-0.15012,0.53875
429.175,23.89281,-2.65164,-0.15729,0.53854
429.775,23.9101,-2.65263,-0.15829,0.53832
430.375,23.92742,-2.65376,-0.16047,0.53811
430.975,23.9448,-2.65525,-0.15993,0.5379
431.575,23.9621,-2.65686,-0.16528,0.53768
432.175,23.97945,-2.65838,-0.16447,0.53747
432.775,23.9968,-2.66108,-0.16815,0.53726
433.375,24.01419,-2.66305,-0.17122,0.53705
433.975,24.0316,-2.66492,-0.16816,0.53683
434.575,24.0489,-2.666,-0.17181,0.53662
435.175,24.06626,-2.66682,-0.17057,0.53641
435.775,24.08364,-2.66928,-0.17521,0.53619
436.375,24.101,-2.67032,-0.1791,0.53598
436.975,24.11844,-2.67152,-0.1763,0.53577
437.575,24.13588,-2.67285,-0.1814,0.53555
438.175,24.15333,-2.67304,-0.1835,0.53534
438.775,24.17078,-2.67486,-0.18714,0.53512
439.375,24.1881,-2.67631,-0.18876,0.53491
439.975,24.20554,-2.67795,-0.1891,0.5347
440.575,24.22295,-2.67916,-0.19197,0.53448
441.175,24.2404,-2.68054,-0.18921,0.53427
441.775,24.25785,-2.68105,-0.19127,0.53405
442.375,24.2754,-2.68229,-0.19319,0.53384
442.975,24.29285,-2.67892,-0.19651,0.53363
443.575,24.3103,-2.67386,-0.19842,0.53341
444.175,24.3278,-2.67276,-0.19717,0.5332
444.775,24.34524,-2.6831,-0.19708,0.53298
445.375,24.3627,-2.69439,-0.19499,0.53277
445.975,24.38024,-2.69996,-0.20027,0.53255
446.575,24.39775,-2.69741,-0.19308,0.53234
447.175,24.41526,-2.69536,-0.19718,0.53212
447.775,24.43275,-2.69375,-0.19545,0.53191
448.375,24.45028,-2.69356,-0.20051,0.53169
448.975,24.46779,-2.69356,-0.20008,0.53148
449.575,24.4853,-2.69358,-0.20169,0.53126
450.175,24.50284,-2.6946,-0.20555,0.53105
450.775,24.52038,-2.69713,-0.20449,0.53083
451.375,24.53795,-2.69824,-0.20299,0.53062
451.975,24.55548,-2.7001,-0.20613,0.5304
452.575,24.57305,-2.70055,-0.21152,0.53019
453.175,24.59068,-2.70179,-0.21127,0.52997
453.775,24.60829,-2.70348,-0.20936,0.52976
454.375,24.6259,-2.70441,-0.21566,0.52954
454.975,24.64351,-2.70564,-0.21515,0.52933
455.575,24.66113,-2.70731,-0.21271,0.52911
456.175,24.6787,-2.70853,-0.21604,0.5289
456.775,24.6963,-2.70923,-0.21652,0.52868
457.375,24.7137,-2.71107,-0.21317,0.52846
457.975,24.73135,-2.7123,-0.21548,0.52825
458.575,24.74899,-2.71253,-0.21827,0.52803
459.175,24.76669,-2.71368,-0.2176,0.52782
459.775,24.78442,-2.71247,-0.21838,0.5276
460.375,24.80225,-2.71436,-0.21791,0.52739
460.975,24.81997,-2.71574,-0.21855,0.52717
461.575,24.83764,-2.71861,-0.2165,0.52695
462.175,24.85531,-2.71968,-0.21899,0.52674
462.775,24.87296,-2.72096,-0.21912,0.52652
463.375,24.8906,-2.72089,-0.21795,0.5263
463.975,24.9084,-2.72234,-0.22269,0.52609
464.575,24.92609,-2.72246,-0.22046,0.52587
465.175,24.94383,-2.7243,-0.21489,0.52566
465.775,24.9616,-2.72593,-0.2191,0.52544
466.375,24.97937,-2.7277,-0.21949,0.52522
466.975,24.99713,-2.72928,-0.22366,0.52501
467.575,25.0149,-2.73052,-0.22263,0.52479
468.175,25.03264,-2.73184,-0.22169,0.52457
468.775,25.05037,-2.73182,-0.22373,0.52436
469.375,25.06811,-2.73315,-0.22338,0.52414
469.975,25.08586,-2.73444,-0.22548,0.52392
470.575,25.10364,-2.73659,-0.22033,0.52371
471.175,25.12141,-2.73801,-0.22303,0.52349
471.775,25.13922,-2.73941,-0.21712,0.52327
472.375,25.15704,-2.73934,-0.22342,0.52306
472.975,25.17485,-2.74003,-0.22017,0.52284
473.575,25.1927,-2.74018,-0.22175,0.52262
474.175,25.21048,-2.74075,-0.22954,0.52241
474.775,25.22834,-2.73727,-0.23233,0.52219
475.375,25.2461,-2.73252,-0.22526,0.52197
475.975,25.26398,-2.73393,-0.22298,0.52175
476.575,25.28182,-2.74476,-0.22263,0.52154
477.175,25.29971,-2.75731,-0.22085,0.52132
477.775,25.31755,-2.76062,-0.2161,0.5211
478.375,25.33547,-2.75573,-0.21536,0.52089
478.975,25.35332,-2.75268,-0.21535,0.52067
479.575,25.37114,-2.75173,-0.21643,0.52045
480.175,25.38906,-2.7517,-0.21358,0.52023
480.775,25.40697,-2.75233,-0.21152,0.52002
481.375,25.42483,-2.75471,-0.21117,0.5198
481.975,25.44278,-2.75471,-0.21138,0.51958
482.575,25.4607,-2.75609,-0.21568,0.51937
483.175,25.4786,-2.75734,-0.21051,0.51915
483.775,25.4966,-2.75846,-0.2093,0.51893
484.375,25.51454,-2.75972,-0.20826,0.51871
484.975,25.53248,-2.76083,-0.21227,0.5185
485.575,25.55046,-2.76138,-0.21058,0.51828
486.175,25.56843,-2.76275,-0.20871,0.51806
486.775,25.5864,-2.76355,-0.20792,0.51784
487.375,25.60441,-2.7644,-0.20549,0.51763
487.975,25.62239,-2.76572,-0.20024,0.51741
488.575,25.64037,-2.76563,-0.1967,0.51719
489.175,25.65835,-2.76619,-0.19868,0.51697
489.775,25.6763,-2.76751,-0.19645,0.51676
490.375,25.69425,-2.76865,-0.20085,0.51654
490.975,25.71221,-2.7695,-0.19385,0.51632
491.575,25.73027,-2.77093,-0.19485,0.5161
492.175,25.74831,-2.77237,-0.19776,0.51589
492.775,25.7664,-2.77327,-0.19239,0.51567
493.375,25.78443,-2.77408,-0.19218,0.51545
493.975,25.80255,-2.77409,-0.18929,0.51523
494.575,25.8206,-2.77417,-0.18904,0.51501
495.175,25.8386,-2.77539,-0.19021,0.5148
495.775,25.85676,-2.77582,-0.19284,0.51458
496.375,25.87486,-2.77689,-0.18838,0.51436
496.975,25.8929,-2.77826,-0.18748,0.51414
497.575,25.91101,-2.77944,-0.19254,0.51393
498.175,25.92919,-2.78022,-0.18666,0.51371
498.775,25.94727,-2.78042,-0.19133,0.51349
499.375,25.96538,-2.7816,-0.18768,0.51327
499.975,25.98355,-2.7815,-0.19026,0.51305
500.575,26.00166,-2.78246,-0.18938,0.51284
501.175,26.0196,-2.7831,-0.18414,0.51262
501.775,26.0377,-2.78469,-0.18554,0.5124
502.375,26.05583,-2.78461,-0.18419,0.51218
502.975,26.074,-2.78596,-0.19169,0.51197
503.575,26.09208,-2.78603,-0.19274,0.51175
504.175,26.11038,-2.78649,-0.18558,0.51153
504.775,26.12854,-2.78757,-0.19074,0.51131
505.375,26.1467,-2.78916,-0.18599,0.51109
505.975,26.16493,-2.78939,-0.18775,0.51088
506.575,26.1831,-2.79075,-0.1896,0.51066
507.175,26.20135,-2.7908,-0.18841,0.51044
507.775,26.21957,-2.79206,-0.18374,0.51022
508.375,26.23775,-2.7931,-0.18675,0.51001
508.975,26.2559,-2.79378,-0.18378,0.50979
509.575,26.27412,-2.79487,-0.18437,0.50957
510.175,26.2923,-2.79511,-0.18008,0.50935
510.775,26.31048,-2.79559,-0.18112,0.50913
511.375,26.3287,-2.79657,-0.18122,0.50892
511.975,26.34702,-2.7978,-0.18276,0.5087
512.575,26.36528,-2.79786,-0.17934,0.50848
513.175,26.38356,-2.7994,-0.17619,0.50826
513.775,26.4018,-2.79967,-0.17602,0.50805
514.375,26.42003,-2.8002,-0.17695,0.50783
514.975,26.43822,-2.80146,-0.17398,0.50761
515.575,26.4564,-2.80141,-0.17066,0.50739
516.175,26.4747,-2.80282,-0.17508,0.50717
516.775,26.493,-2.80295,-0.17438,0.50696
517.375,26.51125,-2.80432,-0.17896,0.50674
517.975,26.5295,-2.80424,-0.17696,0.50652
518.575,26.54785,-2.80447,-0.17343,0.5063
519.175,26.5661,-2.80576,-0.17329,0.50609
519.775,26.58444,-2.80616,-0.18047,0.50587
520.375,26.6028,-2.80699,-0.17366,0.50565
520.975,26.6211,-2.80699,-0.17586,0.50543
521.575,26.63937,-2.80699,-0.17113,0.50521
522.175,26.65778,-2.80937,-0.17718,0.505
522.775,26.6761,-2.80939,-0.17607,0.50478
523.375,26.6944,-2.81076,-0.16975,0.50456
523.975,26.71268,-2.81082,-0.17248,0.50434
524.575,26.73105,-2.81083,-0.17107,0.50413
525.175,26.7494,-2.81215,-0.17081,0.50391
525.775,26.7677,-2.81214,-0.17632,0.50369
526.375,26.78608,-2.81254,-0.17181,0.50347
526.975,26.8044,-2.81365,-0.17173,0.50326
527.575,26.8228,-2.81387,-0.17124,0.50304
528.175,26.84109,-2.81502,-0.17077,0.50282
528.775,26.85947,-2.81501,-0.16116,0.5026
529.375,26.87793,-2.81652,-0.1525,0.50239
529.975,26.8964,-2.81694,-0.15418,0.50217
530.575,26.91483,-2.81812,-0.15978,0.50195
531.175,26.93327,-2.81807,-0.15511,0.50173
531.775,26.95168,-2.81807,-0.15598,0.50152
532.375,26.97001,-2.81811,-0.15255,0.5013
532.975,26.98835,-2.81948,-0.15327,0.50108
533.575,27.0068,-2.8208,-0.15712,0.50086
534.175,27.02512,-2.82132,-0.15719,0.50065
534.775,27.04352,-2.82251,-0.15164,0.50043
535.375,27.06198,-2.82247,-0.15241,0.50021
535.975,27.0805,-2.82254,-0.14965,0.5
536.575,27.09889,-2.82377,-0.14721,0.49978
537.175,27.1174,-2.82369,-0.14656,0.49956
537.775,27.13585,-2.82524,-0.14494,0.49934
538.375,27.1543,-2.82529,-0.14349,0.49913
538.975,27.1728,-2.82527,-0.14391,0.49891
539.575,27.1913,-2.82619,-0.13885,0.49869
540.175,27.2097,-2.82693,-0.13867,0.49848
540.775,27.2282,-2.82694,-0.13639,0.49826
541.375,27.24682,-2.82693,-0.134,0.49804
541.975,27.2653,-2.82792,-0.13501,0.49783
542.575,27.28383,-2.82818,-0.13176,0.49761
543.175,27.3024,-2.82917,-0.13835,0.49739
543.775,27.32092,-2.82956,-0.13965,0.49718
544.375,27.33946,-2.82957,-0.13804,0.49696
544.975,27.35805,-2.82952,-0.14036,0.49674
545.575,27.3766,-2.83089,-0.13675,0.49653
546.175,27.39518,-2.83146,-0.14277,0.49631
546.775,27.41377,-2.83217,-0.14608,0.49609
547.375,27.4323,-2.83311,-0.14488,0.49588
547.975,27.4509,-2.83348,-0.14459,0.49566
548.575,27.4694,-2.83465,-0.14405,0.49544
549.175,27.488,-2.83504,-0.14561,0.49523
549.775,27.50658,-2.83643,-0.14388,0.49501
550.375,27.52522,-2.83652,-0.14485,0.49479
550.975,27.5439,-2.83763,-0.14109,0.49458
551.575,27.56261,-2.8379,-0.14035,0.49436
552.175,27.58128,-2.83791,-0.13944,0.49414
552.775,27.59993,-2.83791,-0.14177,0.49393
553.375,27.6185,-2.83791,-0.14606,0.49371
553.975,27.6372,-2.83793,-0.13586,0.4935
554.575,27.6558,-2.83856,-0.14008,0.49328
555.175,27.6745,-2.83925,-0.14018,0.49306
555.775,27.69315,-2.83942,-0.14359,0.49285
556.375,27.71187,-2.84059,-0.14003,0.49263
556.975,27.7305,-2.84054,-0.14299,0.49242
557.575,27.7492,-2.84054,-0.1478,0.4922
558.175,27.7679,-2.84141,-0.14359,0.49198
558.775,27.78655,-2.84182,-0.13792,0.49177
559.375,27.8052,-2.84311,-0.14569,0.49155
559.975,27.82382,-2.84328,-0.14082,0.49134
560.575,27.84246,-2.84458,-0.14401,0.49112
561.175,27.8611,-2.84471,-0.14273,0.4909
561.775,27.8798,-2.84471,-0.13907,0.49069
562.375,27.8985,-2.84609,-0.14073,0.49047
562.975,27.9172,-2.84613,-0.13588,0.49026
563.575,27.93595,-2.84627,-0.1404,0.49004
564.175,27.9547,-2.84753,-0.1407,0.48983
564.775,27.9734,-2.84746,-0.14221,0.48961
565.375,27.9921,-2.84747,-0.14111,0.4894
565.975,28.01084,-2.84757,-0.14503,0.48918
566.575,28.0296,-2.84877,-0.14193,0.48897
567.175,28.04829,-2.84877,-0.14725,0.48875
567.775,28.06705,-2.84877,-0.1509,0.48854
568.375,28.08584,-2.84877,-0.15208,0.48832
568.975,28.10462,-2.84885,-0.15814,0.48811
569.575,28.1234,-2.85019,-0.15562,0.48789
570.175,28.14217,-2.85011,-0.15476,0.48768
570.775,28.16095,-2.85016,-0.15495,0.48746
571.375,28.1797,-2.85143,-0.15717,0.48725
571.975,28.19847,-2.85269,-0.15851,0.48703
572.575,28.2173,-2.85264,-0.1532,0.48682
573.175,28.236,-2.85401,-0.1574,0.4866
573.775,28.25487,-2.85403,-0.15465,0.48639
574.375,28.2737,-2.85484,-0.15389,0.48617
574.975,28.29247,-2.85532,-0.15937,0.48596
575.575,28.3113,-2.85535,-0.15613,0.48575
576.175,28.3301,-2.85535,-0.15762,0.48553
576.775,28.3489,-2.85534,-0.15761,0.48532
577.375,28.36781,-2.85662,-0.15911,0.4851
577.975,28.38666,-2.85668,-0.15657,0.48489
578.575,28.4055,-2.85703,-0.16284,0.48468
579.175,28.4243,-2.85801,-0.16221,0.48446
579.775,28.44308,-2.85766,-0.16115,0.48425
580.375,28.46183,-2.85668,-0.16253,0.48403
580.975,28.4807,-2.85804,-0.1662,0.48382
581.575,28.49952,-2.85798,-0.16473,0.48361
582.175,28.5184,-2.85798,-0.1673,0.48339
582.775,28.5372,-2.85817,-0.16418,0.48318
583.375,28.55609,-2.86042,-0.16955,0.48296
583.975,28.57498,-2.86055,-0.17165,0.48275
584.575,28.59382,-2.86165,-0.17552,0.48254
585.175,28.6127,-2.86193,-0.17265,0.48232
585.775,28.63157,-2.86195,-0.17183,0.48211
586.375,28.65045,-2.86331,-0.17548,0.4819
586.975,28.6693,-2.86325,-0.17279,0.48169
587.575,28.68828,-2.86321,-0.1788,0.48147
588.175,28.7072,-2.86456,-0.18061,0.48126
588.775,28.7261,-2.86457,-0.18034,0.48105
589.375,28.74499,-2.86457,-0.17575,0.48083
589.975,28.7638,-2.86457,-0.18161,0.48062
590.575,28.7827,-2.86457,-0.18023,0.48041
591.175,28.80155,-2.86457,-0.18493,0.4802
591.775,28.8205,-2.86457,-0.18626,0.47998
592.375,28.83955,-2.86458,-0.18809,0.47977
592.975,28.8586,-2.86586,-0.1929,0.47956
593.575,28.8775,-2.86613,-0.19737,0.47935
594.175,28.89651,-2.86741,-0.19478,0.47913
594.775,28.9154,-2.86752,-0.19953,0.47892
595.375,28.9344,-2.86752,-0.19405,0.47871
595.975,28.9533,-2.86747,-0.19861,0.4785
596.575,28.9722,-2.86819,-0.19325,0.47828
597.175,28.99121,-2.86932,-0.1984,0.47807
597.775,29.0102,-2.8695,-0.19994,0.47786
598.375,29.02923,-2.8695,-0.19725,0.47765
598.975,29.0482,-2.8695,-0.20126,0.47744
599.575,29.06728,-2.86948,-0.20359,0.47723
600.175,29.0862,-2.869,-0.20852,0.47701
600.775,29.1052,-2.86941,-0.20803,0.4768
601.375,29.12418,-2.86945,-0.20902,0.47659
601.975,29.14319,-2.87048,-0.2112,0.47638
602.575,29.16217,-2.87081,-0.2141,0.47617
603.175,29.18125,-2.87083,-0.21384,0.47596
603.775,29.2003,-2.87231,-0.21745,0.47575
604.375,29.21935,-2.87225,-0.21312,0.47554
604.975,29.2384,-2.87225,-0.22029,0.47532
605.575,29.25747,-2.87254,-0.21597,0.47511
606.175,29.27654,-2.8726,-0.22216,0.4749
606.775,29.2956,-2.8732,-0.22631,0.47469
607.375,29.31464,-2.8739,-0.23071,0.47448
607.975,29.3337,-2.87389,-0.22896,0.47427
608.575,29.3527,-2.87389,-0.22966,0.47406
609.175,29.37182,-2.87389,-0.22798,0.47385
609.775,29.39088,-2.87389,-0.23083,0.47364
610.375,29.41,-2.87388,-0.23277,0.47343
610.975,29.42912,-2.87486,-0.22774,0.47322
611.575,29.4482,-2.87618,-0.23743,0.47301
612.175,29.46732,-2.87619,-0.23474,0.4728
612.775,29.48644,-2.87619,-0.23328,0.47259
613.375,29.5055,-2.87622,-0.2308,0.47238
613.975,29.5247,-2.87671,-0.2358,0.47217
614.575,29.54385,-2.87751,-0.23512,0.47196
615.175,29.563,-2.87751,-0.22992,0.47175
615.775,29.58212,-2.87763,-0.23669,0.47154
616.375,29.6013,-2.87886,-0.23629,0.47133
616.975,29.6204,-2.87881,-0.23769,0.47112
617.575,29.6396,-2.87951,-0.24001,0.47091
618.175,29.65868,-2.88015,-0.24101,0.4707
618.775,29.67773,-2.8802,-0.24434,0.4705
619.375,29.69688,-2.87885,-0.24596,0.47029
619.975,29.716,-2.87883,-0.24337,0.47008
620.575,29.73517,-2.87883,-0.2448,0.46987
621.175,29.7543,-2.87883,-0.23992,0.46966
621.775,29.7735,-2.87884,-0.23882,0.46945
622.375,29.79255,-2.87898,-0.24017,0.46924
622.975,29.8117,-2.88018,-0.23635,0.46903
623.575,29.83087,-2.88011,-0.23356,0.46883
624.175,29.8501,-2.88118,-0.23812,0.46862
624.775,29.8692,-2.88244,-0.24298,0.46841
625.375,29.88842,-2.88244,-0.24166,0.4682
625.975,29.9076,-2.88272,-0.24054,0.46799
626.575,29.9268,-2.88268,-0.23886,0.46779
627.175,29.94606,-2.88406,-0.2435,0.46758
627.775,29.96531,-2.88407,-0.23983,0.46737
628.375,29.98456,-2.88394,-0.24429,0.46716
628.975,30.0038,-2.88341,-0.24742,0.46696
629.575,30.0229,-2.88344,-0.24822,0.46675
630.175,30.04202,-2.88356,-0.2516,0.46654
630.775,30.06113,-2.88478,-0.24528,0.46633
631.375,30.08013,-2.88473,-0.25171,0.46613
631.975,30.0992,-2.8854,-0.25412,0.46592
632.575,30.1183,-2.88607,-0.25317,0.46571
633.175,30.1375,-2.88606,-0.24666,0.46551
633.775,30.15685,-2.88606,-0.25534,0.4653
634.375,30.1763,-2.88606,-0.24982,0.46509
634.975,30.1956,-2.88606,-0.24601,0.46489
635.575,30.215,-2.88606,-0.25749,0.46468
636.175,30.23428,-2.88604,-0.25341,0.46447
636.775,30.25354,-2.88658,-0.25762,0.46427
637.375,30.27277,-2.88694,-0.25504,0.46406
637.975,30.29206,-2.88736,-0.25595,0.46385
638.575,30.3114,-2.88738,-0.25796,0.46365
639.175,30.33062,-2.88739,-0.26474,0.46344
639.775,30.34992,-2.88873,-0.26739,0.46324
640.375,30.36921,-2.88869,-0.26245,0.46303
640.975,30.38853,-2.88869,-0.26874,0.46283
641.575,30.4078,-2.88875,-0.26752,0.46262
642.175,30.4269,-2.8874,-0.26439,0.46241
642.775,30.4462,-2.88738,-0.27258,0.46221
643.375,30.4655,-2.88738,-0.27469,0.462
643.975,30.4848,-2.88746,-0.28253,0.4618
644.575,30.5042,-2.88874,-0.27928,0.46159
645.175,30.5237,-2.88972,-0.28749,0.46139
645.775,30.543,-2.89,-0.28753,0.46118
646.375,30.56232,-2.89,-0.28912,0.46098
646.975,30.58163,-2.88996,-0.28617,0.46078
647.575,30.60095,-2.89113,-0.28014,0.46057
648.175,30.62026,-2.89133,-0.28395,0.46037
648.775,30.6396,-2.89133,-0.28438,0.46016
649.375,30.659,-2.89133,-0.27955,0.45996
649.975,30.6784,-2.89133,-0.2783,0.45975
650.575,30.6978,-2.89133,-0.2763,0.45955
651.175,30.71715,-2.89253,-0.27898,0.45935
651.775,30.73655,-2.89143,-0.28638,0.45914
652.375,30.75593,-2.89134,-0.28199,0.45894
652.975,30.7753,-2.89133,-0.29068,0.45874
653.575,30.7946,-2.89133,-0.28911,0.45853
654.175,30.814,-2.89133,-0.29459,0.45833
654.775,30.8334,-2.89133,-0.28788,0.45813
655.375,30.8527,-2.89133,-0.29548,0.45792
655.975,30.8722,-2.89133,-0.29549,0.45772
656.575,30.8915,-2.89135,-0.29584,0.45752
657.175,30.91096,-2.89273,-0.2923,0.45731
657.775,30.93045,-2.8927,-0.29375,0.45711
658.375,30.94991,-2.89401,-0.29853,0.45691
658.975,30.9693,-2.89527,-0.29846,0.45671
659.575,30.98878,-2.89527,-0.29071,0.4565
660.175,31.00822,-2.89402,-0.30459,0.4563
660.775,31.02764,-2.89396,-0.30062,0.4561
661.375,31.04707,-2.89392,-0.31063,0.4559
661.975,31.06653,-2.89515,-0.30608,0.4557
662.575,31.08594,-2.89526,-0.3061,0.45549
663.175,31.10544,-2.8953,-0.31103,0.45529
663.775,31.12487,-2.89581,-0.30129,0.45509
664.375,31.14432,-2.8966,-0.30329,0.45489
664.975,31.16378,-2.89659,-0.30724,0.45469
665.575,31.18327,-2.89659,-0.29549,0.45449
666.175,31.2027,-2.89659,-0.29558,0.45429
666.775,31.2221,-2.8966,-0.2944,0.45409
667.375,31.24155,-2.89677,-0.29328,0.45388
667.975,31.26107,-2.89803,-0.29309,0.45368
668.575,31.2805,-2.89802,-0.30185,0.45348
669.175,31.30006,-2.89802,-0.3039,0.45328
669.775,31.3196,-2.89802,-0.30365,0.45308
670.375,31.33912,-2.89802,-0.30747,0.45288
670.975,31.3586,-2.89802,-0.31312,0.45268
671.575,31.3781,-2.89802,-0.31891,0.45248
672.175,31.39759,-2.89799,-0.31804,0.45228
672.775,31.41713,-2.89934,-0.31989,0.45208
673.375,31.4366,-2.89943,-0.32579,0.45188
673.975,31.45614,-2.89944,-0.32669,0.45168
674.575,31.4757,-2.89944,-0.32647,0.45148
675.175,31.4951,-2.89944,-0.33011,0.45128
675.775,31.51462,-2.89947,-0.32707,0.45108
676.375,31.5342,-2.89991,-0.32906,0.45088
676.975,31.5538,-2.90077,-0.32724,0.45069
677.575,31.5733,-2.90076,-0.32404,0.45049
678.175,31.5929,-2.90076,-0.31964,0.45029
678.775,31.61245,-2.90076,-0.32238,0.45009
679.375,31.632,-2.90076,-0.32702,0.44989
679.975,31.6516,-2.90077,-0.3246,0.44969
680.575,31.6711,-2.90084,-0.33,0.44949
681.175,31.69055,-2.90211,-0.32992,0.4493
681.775,31.71009,-2.90208,-0.33376,0.4491
682.375,31.72959,-2.90208,-0.32772,0.4489
682.975,31.74914,-2.90208,-0.33309,0.4487
683.575,31.76875,-2.90208,-0.33793,0.4485
684.175,31.78833,-2.90208,-0.3423,0.44831
684.775,31.8079,-2.90208,-0.33704,0.44811
685.375,31.82742,-2.90208,-0.33305,0.44791
685.975,31.847,-2.90208,-0.33481,0.44771
686.575,31.8665,-2.90207,-0.33975,0.44752
687.175,31.8861,-2.90199,-0.33653,0.44732
687.775,31.90575,-2.90336,-0.33918,0.44712
688.375,31.92535,-2.90339,-0.34137,0.44693
688.975,31.945,-2.90339,-0.34016,0.44673
689.575,31.96466,-2.90339,-0.34723,0.44653
690.175,31.98429,-2.90339,-0.34851,0.44634
690.775,32.00396,-2.90338,-0.3574,0.44614
691.375,32.0236,-2.90331,-0.36317,0.44594
691.975,32.04314,-2.90461,-0.36992,0.44575
692.575,32.0627,-2.90471,-0.36452,0.44555
693.175,32.08228,-2.9047,-0.36724,0.44535
693.775,32.10192,-2.90459,-0.36416,0.44516
694.375,32.12154,-2.90336,-0.37652,0.44496
694.975,32.1411,-2.9034,-0.37724,0.44477
695.575,32.16081,-2.9034,-0.37181,0.44457
696.175,32.18042,-2.90338,-0.37501,0.44438
696.775,32.20002,-2.90445,-0.37236,0.44418
697.375,32.21962,-2.90471,-0.36837,0.44399
697.975,32.2393,-2.90471,-0.36401,0.44379
698.575,32.2589,-2.90471,-0.36192,0.4436
699.175,32.2785,-2.90471,-0.36124,0.4434
699.775,32.29823,-2.90471,-0.35722,0.44321
700.375,32.31794,-2.90471,-0.36112,0.44301
700.975,32.33766,-2.90471,-0.36186,0.44282
701.575,32.35731,-2.90473,-0.3621,0.44263
702.175,32.37697,-2.90548,-0.36287,0.44243
702.775,32.39662,-2.90603,-0.36693,0.44224
703.375,32.41626,-2.90616,-0.3681,0.44204
703.975,32.43591,-2.90741,-0.37117,0.44185
704.575,32.45554,-2.90634,-0.37156,0.44166
705.175,32.47521,-2.90605,-0.37612,0.44146
705.775,32.4949,-2.90603,-0.37949,0.44127
706.375,32.5146,-2.90603,-0.38433,0.44108
706.975,32.5343,-2.90603,-0.3834,0.44088
707.575,32.55404,-2.90609,-0.38124,0.44069
708.175,32.57376,-2.90744,-0.38853,0.4405
708.775,32.59342,-2.90736,-0.38061,0.44031
709.375,32.61308,-2.90735,-0.38563,0.44011
709.975,32.63279,-2.90735,-0.38812,0.43992
710.575,32.6524,-2.90735,-0.39175,0.43973
711.175,32.67215,-2.90735,-0.40171,0.43954
711.775,32.69188,-2.90735,-0.39502,0.43934
712.375,32.7116,-2.90735,-0.40438,0.43915
712.975,32.73137,-2.90734,-0.4011,0.43896
713.575,32.7511,-2.90723,-0.405,0.43877
714.175,32.77086,-2.90749,-0.411,0.43858
714.775,32.79064,-2.90799,-0.42648,0.43839
715.375,32.8103,-2.908,-0.43362,0.43819
715.975,32.8301,-2.908,-0.43878,0.438
716.575,32.8498,-2.908,-0.43583,0.43781
717.175,32.8695,-2.908,-0.43299,0.43762
717.775,32.88923,-2.90834,-0.42168,0.43743
718.375,32.90896,-2.90931,-0.42238,0.43724
718.975,32.92868,-2.90931,-0.41655,0.43705
719.575,32.94846,-2.90931,-0.41514,0.43686
720.175,32.96817,-2.90931,-0.41678,0.43667
720.775,32.98796,-2.90931,-0.42261,0.43648
721.375,33.0077,-2.90931,-0.42283,0.43629
721.975,33.0274,-2.90931,-0.41737,0.4361
722.575,33.0472,-2.90931,-0.41349,0.43591
723.175,33.06692,-2.90817,-0.40762,0.43572
723.775,33.08667,-2.90801,-0.40391,0.43553
724.375,33.10645,-2.90799,-0.39176,0.43534
724.975,33.12622,-2.90908,-0.39695,0.43515
725.575,33.14602,-2.90929,-0.40152,0.43496
726.175,33.16579,-2.91026,-0.39936,0.43477
726.775,33.18553,-2.91191,-0.40694,0.43459
727.375,33.20531,-2.91229,-0.41319,0.4344
727.975,33.22506,-2.9133,-0.41109,0.43421
728.575,33.24481,-2.91327,-0.41553,0.43402
729.175,33.26463,-2.91335,-0.41502,0.43383
729.775,33.2843,-2.91201,-0.41767,0.43364
730.375,33.30518,-2.91195,-0.42859,0.43346
730.975,33.32639,-2.91195,-0.42568,0.43327
731.175,33.3316,-2.91195,-0.42955,0.4332