File: 01_Data/PETG/STA/N2/30K_min/PETG_STA_N2_30KData_210902_R2.csv
##Temp./Â°C,Time/min,DSC(subtr.2)/(mW/mg),Mass loss(subtr.2)/mg,Sensit./(uV/mW)
48.95,10.01,0.01680914,-0.00165,1.054
49.45,10.94951,0.03515977,0.002625599,1.05401
49.95,11.16574,0.05170353,0.003352864,1.05402
50.45,11.31135,0.06425999,0.002090619,1.05403
50.95,11.42879,0.07785393,0.00438296,1.05404
51.45,11.52367,0.09152732,0.003762974,1.05405
51.95,11.60941,0.10271,-0.00711837,1.05405
52.45,11.68573,0.11584,0.01259644,1.05406
52.95,11.75412,0.12568,0.00568433,1.05406
53.45,11.81558,0.13695,0.008607069,1.05406
53.95,11.87515,0.1469,0.009693025,1.05406
54.45,11.93251,0.15693,0.009075379,1.05406
54.95,11.9856,0.16559,0.00829688,1.05406
55.45,12.03625,0.17429,0.007411945,1.05406
55.95,12.0847,0.18309,0.00658695,1.05405
56.45,12.13176,0.19172,0.006868329,1.05405
56.95,12.17708,0.19852,0.00781071,1.05404
57.45,12.22115,0.20613,0.006864972,1.05403
57.95,12.26378,0.21412,0.00629519,1.05403
58.45,12.30511,0.22227,0.0059998,1.05402
58.95,12.34498,0.22959,0.005752007,1.054
59.45,12.38413,0.23667,0.006677975,1.05399
59.95,12.42332,0.24252,0.008042356,1.05398
60.45,12.46151,0.24908,0.00667671,1.05396
60.95,12.4986,0.25381,0.006292842,1.05395
61.45,12.53485,0.26056,0.007838272,1.05393
61.95,12.57087,0.26683,0.007503593,1.05391
62.45,12.60627,0.27252,0.0072327,1.05389
62.95,12.641,0.27862,0.008683287,1.05387
63.45,12.6752,0.28308,0.009526049,1.05385
63.95,12.70937,0.28777,0.008673056,1.05383
64.45,12.74313,0.29372,0.009411075,1.0538
64.95,12.77634,0.29972,0.01101049,1.05377
65.45,12.80914,0.30423,0.01054999,1.05375
65.95,12.84152,0.3091,0.01069587,1.05372
66.45,12.87369,0.31385,0.01084822,1.05369
66.95,12.90536,0.32023,0.01161689,1.05366
67.45,12.93704,0.32382,0.0123166,1.05363
67.95,12.96851,0.32911,0.01089561,1.0536
68.45,12.99958,0.33367,0.009782915,1.05356
68.95,13.03024,0.3391,0.008883002,1.05353
69.45,13.0605,0.34403,0.009927124,1.05349
69.95,13.0905,0.34901,0.009006057,1.05345
70.45,13.12036,0.35247,-0.000958481,1.05341
70.95,13.15015,0.35732,0.004478216,1.05337
71.45,13.17976,0.36015,0.01728319,1.05333
71.95,13.2089,0.36696,0.01484704,1.05329
72.45,13.2378,0.37087,0.009882883,1.05325
72.95,13.2666,0.37398,0.008945847,1.0532
73.45,13.29541,0.37744,0.009185578,1.05315
73.95,13.324,0.37874,0.01004564,1.05311
74.45,13.3524,0.38165,0.009917891,1.05306
74.95,13.38026,0.38443,0.009085601,1.05301
75.45,13.40809,0.38551,0.008849501,1.05296
75.95,13.43574,0.38728,0.009625126,1.05291
76.45,13.4633,0.38765,0.009960047,1.05285
76.95,13.49076,0.38809,0.008578767,1.0528
77.45,13.51795,0.39011,0.00764651,1.05274
77.95,13.5451,0.38988,0.007060165,1.05269
78.45,13.5719,0.38953,0.00865216,1.05263
78.95,13.59854,0.38959,0.008736399,1.05257
79.45,13.6249,0.39033,0.008647306,1.05251
79.95,13.65125,0.38981,0.00683441,1.05245
80.45,13.67735,0.39002,0.006400188,1.05239
80.95,13.7034,0.38971,0.00671768,1.05232
81.45,13.7294,0.38966,0.00742933,1.05226
81.95,13.75515,0.39039,0.00774933,1.05219
82.45,13.7807,0.39035,0.007162376,1.05213
82.95,13.8061,0.39069,0.006849848,1.05206
83.45,13.8313,0.38987,0.00814872,1.05199
83.95,13.8564,0.39047,0.008327659,1.05192
84.45,13.88145,0.38985,0.008881931,1.05185
84.95,13.9063,0.39106,0.009699206,1.05177
85.45,13.93096,0.39153,0.009044217,1.0517
85.95,13.95546,0.39262,0.01016515,1.05163
86.45,13.9798,0.39208,0.01018795,1.05155
86.95,14.00392,0.39248,0.01088417,1.05147
87.45,14.02795,0.39382,0.01199783,1.05139
87.95,14.05189,0.39486,0.0111393,1.05131
88.45,14.0758,0.39636,0.01057926,1.05123
88.95,14.09929,0.3965,0.01082302,1.05115
89.45,14.123,0.39634,0.01092517,1.05107
89.95,14.14647,0.39768,0.01097755,1.05098
90.45,14.1698,0.39959,0.01118793,1.0509
90.95,14.19304,0.39911,0.00937483,1.05081
91.45,14.21614,0.40039,0.00878567,1.05073
91.95,14.23911,0.4023,0.00931933,1.05064
92.45,14.26181,0.4024,0.01039009,1.05055
92.95,14.28465,0.40357,0.00963557,1.05046
93.45,14.30703,0.40451,0.011117,1.05036
93.95,14.32942,0.40493,0.01129201,1.05027
94.45,14.35188,0.40646,0.01180537,1.05018
94.95,14.3741,0.40741,0.0109214,1.05008
95.45,14.396,0.40826,0.0109866,1.04998
95.95,14.41799,0.41098,0.009609867,1.04989
96.45,14.44,0.41082,0.01075037,1.04979
96.95,14.4618,0.4131,0.009546552,1.04969
97.45,14.48388,0.41442,0.01042294,1.04959
97.95,14.50561,0.41609,0.01035626,1.04948
98.45,14.5271,0.41662,0.01094031,1.04938
98.95,14.5486,0.41838,0.0115821,1.04928
99.45,14.57001,0.41912,0.01172986,1.04917
99.95,14.59126,0.41961,0.01076529,1.04907
100.45,14.6123,0.42385,0.01051147,1.04896
100.95,14.63335,0.42756,0.008882922,1.04885
101.45,14.65429,0.4276,0.009085009,1.04874
101.95,14.6752,0.43097,0.008726282,1.04863
102.45,14.6962,0.43305,0.009822335,1.04852
102.95,14.71703,0.43588,0.009968829,1.0484
103.45,14.7378,0.43928,0.01020121,1.04829
103.95,14.75844,0.44075,0.01159313,1.04817
104.45,14.7788,0.44273,0.01074936,1.04806
104.95,14.79931,0.44598,0.01018047,1.04794
105.45,14.8197,0.44914,0.01009195,1.04782
105.95,14.8402,0.45262,0.01075866,1.0477
106.45,14.86059,0.45473,0.01159438,1.04758
106.95,14.88081,0.45992,0.01187584,1.04746
107.45,14.9009,0.46405,0.01223366,1.04733
107.95,14.9208,0.46624,0.012017,1.04721
108.45,14.94084,0.47042,0.01278601,1.04709
108.95,14.9607,0.47444,0.01335509,1.04696
109.45,14.98056,0.47796,0.01183083,1.04683
109.95,15.00032,0.4816,0.01336031,1.0467
110.45,15.02011,0.4853,0.01273011,1.04657
110.95,15.03974,0.4891,0.01349457,1.04644
111.45,15.0594,0.49143,0.01409519,1.04631
111.95,15.079,0.49745,0.01504672,1.04618
112.45,15.09854,0.4997,0.01586668,1.04605
112.95,15.11806,0.50499,0.01645212,1.04591
113.45,15.13744,0.50878,0.01757612,1.04577
113.95,15.1568,0.51252,0.01670525,1.04564
114.45,15.1762,0.51667,0.01662422,1.0455
114.95,15.19544,0.52067,0.01670962,1.04536
115.45,15.2146,0.52408,0.01645711,1.04522
115.95,15.23373,0.52721,0.01669974,1.04508
116.45,15.25274,0.53233,0.01592888,1.04494
116.95,15.27166,0.5367,0.01594946,1.04479
117.45,15.29059,0.53953,0.01433,1.04465
117.95,15.3094,0.54146,0.01514869,1.0445
118.45,15.3283,0.54533,0.01425471,1.04436
118.95,15.3471,0.55039,0.01395158,1.04421
119.45,15.3658,0.55375,0.01396691,1.04406
119.95,15.38444,0.55773,0.012735,1.04391
120.45,15.4032,0.56181,0.01402157,1.04376
120.95,15.42179,0.56538,0.01279733,1.04361
121.45,15.44036,0.56845,0.01330041,1.04346
121.95,15.4589,0.57215,0.01395221,1.0433
122.45,15.4775,0.57414,0.0145088,1.04315
122.95,15.49591,0.57881,0.01381034,1.04299
123.45,15.51428,0.58274,0.01409571,1.04283
123.95,15.53266,0.5864,0.01383097,1.04268
124.45,15.5509,0.58987,0.01384219,1.04252
124.95,15.56905,0.59282,0.01509537,1.04236
125.45,15.58712,0.59595,0.01498415,1.0422
125.95,15.6052,0.59947,0.01372123,1.04203
126.45,15.62315,0.60324,0.0144331,1.04187
126.95,15.64119,0.60511,0.01374427,1.04171
127.45,15.6592,0.60969,0.0137883,1.04154
127.95,15.67715,0.61458,0.01458017,1.04138
128.45,15.69503,0.61857,0.01378404,1.04121
128.95,15.71294,0.62156,0.0140523,1.04104
129.45,15.73075,0.62547,0.01513857,1.04087
129.95,15.7485,0.62818,0.01393327,1.0407
130.45,15.7662,0.63148,0.01416209,1.04053
130.95,15.78398,0.63494,0.01484838,1.04036
131.45,15.8016,0.63855,0.01386853,1.04018
131.95,15.81918,0.64183,0.01510046,1.04001
132.45,15.8367,0.64535,0.01509163,1.03983
132.95,15.8542,0.64958,0.01471775,1.03966
133.45,15.87166,0.6513,0.01461193,1.03948
133.95,15.8891,0.65528,0.01513792,1.0393
134.45,15.9065,0.65737,0.01512061,1.03912
134.95,15.9239,0.66029,0.01498062,1.03894
135.45,15.9412,0.66361,0.01515612,1.03876
135.95,15.95854,0.66642,0.01513037,1.03858
136.45,15.97586,0.67017,0.01413478,1.0384
136.95,15.99315,0.67301,0.01398609,1.03821
137.45,16.0104,0.67535,0.0147846,1.03803
137.95,16.0275,0.67719,0.01368232,1.03784
138.45,16.0446,0.68216,0.0150477,1.03765
138.95,16.06169,0.68352,0.01513785,1.03746
139.45,16.07865,0.68725,0.01506116,1.03728
139.95,16.0957,0.69091,0.01608639,1.03709
140.45,16.11264,0.69358,0.01507229,1.03689
140.95,16.12966,0.69614,0.01514194,1.0367
141.45,16.14659,0.69897,0.01420811,1.03651
141.95,16.16335,0.7012,0.01499183,1.03631
142.45,16.18,0.70369,0.01492014,1.03612
142.95,16.19676,0.70628,0.01491131,1.03592
143.45,16.21358,0.70939,0.01557132,1.03573
143.95,16.2303,0.71216,0.01488769,1.03553
144.45,16.24709,0.71391,0.01495398,1.03533
144.95,16.2639,0.71703,0.01525463,1.03513
145.45,16.2807,0.71962,0.01623372,1.03493
145.95,16.29736,0.72251,0.01620452,1.03473
146.45,16.31404,0.72517,0.01587069,1.03452
146.95,16.33057,0.72668,0.01489825,1.03432
147.45,16.3472,0.73017,0.01562233,1.03412
147.95,16.36369,0.73346,0.01549045,1.03391
148.45,16.38019,0.73496,0.01480322,1.0337
148.95,16.39665,0.73515,0.01478781,1.0335
149.45,16.41304,0.73909,0.01543364,1.03329
149.95,16.4295,0.74122,0.01613063,1.03308
150.45,16.44589,0.74568,0.0162182,1.03287
150.95,16.46227,0.74877,0.01495117,1.03266
151.45,16.47859,0.74985,0.01534018,1.03244
151.95,16.4949,0.7518,0.01616816,1.03223
152.45,16.5112,0.75556,0.01612251,1.03202
152.95,16.52747,0.75717,0.01611312,1.0318
153.45,16.54372,0.76022,0.016047,1.03158
153.95,16.55995,0.76201,0.01709572,1.03137
154.45,16.57613,0.76578,0.01645977,1.03115
154.95,16.59225,0.76875,0.01614974,1.03093
155.45,16.60836,0.77195,0.01607619,1.03071
155.95,16.62444,0.77424,0.0170532,1.03049
156.45,16.6405,0.77526,0.01845894,1.03027
156.95,16.65662,0.7777,0.01875043,1.03005
157.45,16.6727,0.78188,0.01869775,1.02982
157.95,16.6889,0.7824,0.01963635,1.0296
158.45,16.70494,0.78582,0.02008882,1.02937
158.95,16.721,0.78925,0.02010533,1.02915
159.45,16.73702,0.79031,0.02124545,1.02892
159.95,16.753,0.79274,0.02136642,1.02869
160.45,16.76894,0.79414,0.02138085,1.02846
160.95,16.78483,0.79621,0.02138327,1.02823
161.45,16.80069,0.79903,0.0209827,1.028
161.95,16.81651,0.80022,0.01964229,1.02777
162.45,16.83236,0.805,0.02081003,1.02754
162.95,16.84819,0.80558,0.01986413,1.0273
163.45,16.864,0.81002,0.0198516,1.02707
163.95,16.87977,0.80936,0.01985053,1.02683
164.45,16.8956,0.81216,0.01886955,1.0266
164.95,16.91133,0.81604,0.0184507,1.02636
165.45,16.927,0.8171,0.01692176,1.02612
165.95,16.94274,0.81979,0.01776538,1.02588
166.45,16.95843,0.82119,0.01652679,1.02564
166.95,16.97411,0.82231,0.01646576,1.0254
167.45,16.9897,0.82404,0.01613185,1.02516
167.95,17.00544,0.82757,0.01504614,1.02492
168.45,17.02112,0.83069,0.01512887,1.02467
168.95,17.0367,0.83256,0.01508403,1.02443
169.45,17.05228,0.83604,0.01540624,1.02418
169.95,17.06786,0.83795,0.01499308,1.02394
170.45,17.08343,0.83804,0.01498025,1.02369
170.95,17.09897,0.84037,0.01559456,1.02344
171.45,17.1144,0.8443,0.01639121,1.0232
171.95,17.12988,0.84723,0.01633973,1.02295
172.45,17.14538,0.84939,0.01633733,1.0227
172.95,17.16085,0.85133,0.01633607,1.02244
173.45,17.17625,0.8508,0.01643743,1.02219
173.95,17.19162,0.85127,0.01523442,1.02194
174.45,17.2071,0.85526,0.0150255,1.02169
174.95,17.22245,0.85775,0.01502379,1.02143
175.45,17.2378,0.86046,0.01506824,1.02117
175.95,17.25314,0.8638,0.01475623,1.02092
176.45,17.26847,0.86509,0.01503272,1.02066
176.95,17.28379,0.8676,0.01502317,1.0204
177.45,17.299,0.86985,0.01501993,1.02014
177.95,17.31429,0.87294,0.01502192,1.01988
178.45,17.32956,0.87369,0.01501789,1.01962
178.95,17.34473,0.87687,0.01487416,1.01936
179.45,17.35991,0.87706,0.01468766,1.0191
179.95,17.37509,0.87952,0.01504264,1.01884
180.45,17.3903,0.8832,0.01501521,1.01857
180.95,17.4055,0.88564,0.01563107,1.01831
181.45,17.42065,0.88746,0.01677785,1.01804
181.95,17.43582,0.89002,0.01731085,1.01778
182.45,17.45094,0.89403,0.01819072,1.01751
182.95,17.46605,0.89418,0.01880303,1.01724
183.45,17.48108,0.89615,0.01959593,1.01697
183.95,17.49607,0.8982,0.02079854,1.0167
184.45,17.5111,0.89959,0.020839,1.01643
184.95,17.52613,0.90041,0.02083944,1.01616
185.45,17.54116,0.90551,0.02083663,1.01589
185.95,17.55614,0.90674,0.01978504,1.01561
186.45,17.57113,0.90909,0.0194243,1.01534
186.95,17.58606,0.91262,0.01950234,1.01506
187.45,17.60096,0.91614,0.02035996,1.01479
187.95,17.61589,0.91748,0.01930935,1.01451
188.45,17.6308,0.91751,0.01940661,1.01423
188.95,17.64566,0.92027,0.01934783,1.01396
189.45,17.6605,0.92228,0.01783354,1.01368
189.95,17.67537,0.92459,0.01798793,1.0134
190.45,17.6903,0.92652,0.01686371,1.01312
190.95,17.70505,0.92811,0.01682056,1.01284
191.45,17.7198,0.93204,0.01787504,1.01255
191.95,17.73461,0.93452,0.01787325,1.01227
192.45,17.74929,0.93468,0.01786992,1.01199
192.95,17.76393,0.93608,0.01750536,1.0117
193.45,17.7786,0.9396,0.01635634,1.01142
193.95,17.79337,0.94065,0.0163441,1.01113
194.45,17.80806,0.94337,0.01633967,1.01084
194.95,17.82281,0.94706,0.01634084,1.01056
195.45,17.83762,0.94859,0.01633478,1.01027
195.95,17.85249,0.95146,0.01692373,1.00998
196.45,17.86719,0.9517,0.01761609,1.00969
196.95,17.8818,0.95564,0.01879202,1.0094
197.45,17.8965,0.95779,0.01909187,1.00911
197.95,17.91112,0.961,0.01908065,1.00881
198.45,17.92576,0.96331,0.01907986,1.00852
198.95,17.94035,0.96653,0.01908011,1.00823
199.45,17.95496,0.96921,0.01907348,1.00793
199.95,17.96956,0.96973,0.01937438,1.00764
200.45,17.98409,0.97106,0.02049656,1.00734
200.95,17.99869,0.97523,0.02039305,1.00704
201.45,18.0132,0.97629,0.02038881,1.00675
201.95,18.02777,0.97916,0.02044619,1.00645
202.45,18.0424,0.98268,0.0195567,1.00615
202.95,18.05688,0.98532,0.01895282,1.00585
203.45,18.07143,0.98877,0.02017325,1.00555
203.95,18.08594,0.99107,0.02040642,1.00525
204.45,18.1005,0.99446,0.02040024,1.00494
204.95,18.11496,0.99626,0.02039582,1.00464
205.45,18.12939,0.99803,0.02040521,1.00434
205.95,18.1438,0.99989,0.02060775,1.00403
206.45,18.15827,1.00502,0.02135697,1.00373
206.95,18.1727,1.00761,0.02136598,1.00342
207.45,18.1871,1.00978,0.02018109,1.00312
207.95,18.20146,1.01318,0.02031807,1.00281
208.45,18.21594,1.01685,0.02031712,1.0025
208.95,18.23041,1.01919,0.0195955,1.00219
209.45,18.24488,1.0219,0.01892252,1.00188
209.95,18.2593,1.02416,0.01896918,1.00157
210.45,18.27374,1.02825,0.01889966,1.00126
210.95,18.28824,1.03141,0.01979209,1.00095
211.45,18.30261,1.03656,0.02029633,1.00064
211.95,18.31694,1.03838,0.02028885,1.00032
212.45,18.33135,1.04178,0.02028983,1.00001
212.95,18.3457,1.04766,0.02029138,0.99969
213.45,18.36,1.04833,0.02029001,0.99938
213.95,18.37429,1.05264,0.02020369,0.99906
214.45,18.38859,1.05692,0.01938639,0.99875
214.95,18.40289,1.06024,0.01897496,0.99843
215.45,18.41716,1.06505,0.02006439,0.99811
215.95,18.43149,1.06729,0.02027304,0.99779
216.45,18.44577,1.07303,0.02029568,0.99747
216.95,18.4601,1.07614,0.02029002,0.99715
217.45,18.47437,1.08043,0.02028987,0.99683
217.95,18.48864,1.08268,0.02029001,0.99651
218.45,18.50291,1.08785,0.02029001,0.99618
218.95,18.5171,1.09341,0.02028997,0.99586
219.45,18.53134,1.09777,0.02028988,0.99554
219.95,18.54554,1.10282,0.02029179,0.99521
220.45,18.5597,1.10565,0.02028893,0.99489
220.95,18.57386,1.11067,0.0202167,0.99456
221.45,18.58802,1.11791,0.02108155,0.99424
221.95,18.60218,1.12488,0.02160623,0.99391
222.45,18.61639,1.13022,0.02159858,0.99358
222.95,18.6306,1.13587,0.02159996,0.99325
223.45,18.64477,1.14127,0.02160005,0.99292
223.95,18.659,1.14576,0.02159997,0.99259
224.45,18.67318,1.15416,0.02159956,0.99226
224.95,18.68739,1.16057,0.02160239,0.99193
225.45,18.70158,1.16719,0.02161093,0.9916
225.95,18.71568,1.17318,0.02140551,0.99127
226.45,18.7299,1.1817,0.02126998,0.99093
226.95,18.74401,1.18965,0.02139785,0.9906
227.45,18.75814,1.1986,0.02162358,0.99026
227.95,18.77222,1.20599,0.0216123,0.98993
228.45,18.78629,1.21449,0.02160947,0.98959
228.95,18.80044,1.22308,0.02160999,0.98925
229.45,18.81449,1.23185,0.02160989,0.98892
229.95,18.82855,1.23915,0.02161033,0.98858
230.45,18.84261,1.25237,0.02161372,0.98824
230.95,18.8567,1.2617,0.02148396,0.9879
231.45,18.87077,1.27316,0.02025186,0.98756
231.95,18.88485,1.28389,0.02031471,0.98722
232.45,18.8989,1.29731,0.0202886,0.98688
232.95,18.913,1.30938,0.02028952,0.98654
233.45,18.92706,1.32387,0.02029008,0.9862
233.95,18.9411,1.33874,0.02029002,0.98585
234.45,18.95516,1.35355,0.02028983,0.98551
234.95,18.96924,1.36835,0.02029027,0.98516
235.45,18.98329,1.38171,0.02029625,0.98482
235.95,18.99731,1.39868,0.02025677,0.98447
236.45,19.01131,1.41988,0.02064154,0.98413
236.95,19.02528,1.4391,0.0206135,0.98378
237.45,19.0393,1.45967,0.02061738,0.98343
237.95,19.05326,1.48008,0.02054628,0.98308
238.45,19.0672,1.50101,0.02138408,0.98274
238.95,19.08116,1.52462,0.02166358,0.98239
239.45,19.09514,1.54517,0.02286648,0.98204
239.95,19.10905,1.57135,0.02292077,0.98168
240.45,19.12298,1.59704,0.02292031,0.98133
240.95,19.1369,1.62363,0.02291994,0.98098
241.45,19.15083,1.65382,0.02292,0.98063
241.95,19.16478,1.68417,0.02292001,0.98028
242.45,19.1787,1.71256,0.02291999,0.97992
242.95,19.19272,1.74381,0.02291985,0.97957
243.45,19.20668,1.77589,0.022921,0.97921
243.95,19.2207,1.81116,0.02292171,0.97886
244.45,19.23469,1.84599,0.02287291,0.9785
244.95,19.24869,1.88443,0.02347106,0.97814
245.45,19.26268,1.92497,0.02429191,0.97779
245.95,19.2767,1.9639,0.02410749,0.97743
246.45,19.2907,2.0049,0.02288551,0.97707
246.95,19.30465,2.04593,0.02294567,0.97671
247.45,19.3186,2.08488,0.02291786,0.97635
247.95,19.33258,2.12405,0.02291595,0.97599
248.45,19.3465,2.16043,0.02294584,0.97563
248.95,19.36045,2.19335,0.02294759,0.97527
249.45,19.3744,2.22308,0.02415554,0.97491
249.95,19.38834,2.25063,0.02424224,0.97455
250.45,19.40221,2.27105,0.02424046,0.97418
250.95,19.41617,2.28862,0.02423963,0.97382
251.45,19.43011,2.30144,0.02423994,0.97345
251.95,19.444,2.30638,0.02425094,0.97309
252.45,19.45797,2.30245,0.02419845,0.97272
252.95,19.4719,2.29037,0.02504247,0.97236
253.45,19.48578,2.26366,0.02568352,0.97199
253.95,19.4997,2.23275,0.02684952,0.97162
254.45,19.5135,2.19602,0.02684316,0.97126
254.95,19.52739,2.15217,0.02687381,0.97089
255.45,19.5412,2.10566,0.02687042,0.97052
255.95,19.55507,2.05406,0.02686807,0.97015
256.45,19.5689,2.00326,0.02687373,0.96978
256.95,19.58276,1.95574,0.02626818,0.96941
257.45,19.59662,1.90711,0.02549467,0.96904
257.95,19.61038,1.85864,0.02555883,0.96867
258.45,19.62415,1.81423,0.02554827,0.9683
258.95,19.6379,1.77033,0.02577414,0.96792
259.45,19.65168,1.72841,0.02658352,0.96755
259.95,19.66544,1.68909,0.02652703,0.96718
260.45,19.6792,1.6489,0.02653856,0.9668
260.95,19.69296,1.61594,0.02649866,0.96643
261.45,19.7068,1.58457,0.02699801,0.96605
261.95,19.72054,1.55174,0.02718453,0.96568
262.45,19.7343,1.52067,0.02719548,0.9653
262.95,19.74801,1.49168,0.02718783,0.96492
263.45,19.76176,1.46804,0.02718017,0.96455
263.95,19.77546,1.4434,0.02734798,0.96417
264.45,19.7892,1.42159,0.02756572,0.96379
264.95,19.8029,1.40358,0.02635794,0.96341
265.45,19.8166,1.38564,0.02620453,0.96303
265.95,19.8303,1.36454,0.02620992,0.96265
266.45,19.8439,1.35038,0.0262096,0.96227
266.95,19.85761,1.33748,0.02621229,0.96189
267.45,19.87135,1.32284,0.02621921,0.96151
267.95,19.88512,1.3102,0.02603712,0.96113
268.45,19.89883,1.29961,0.02588014,0.96074
268.95,19.91262,1.289,0.02599066,0.96036
269.45,19.92635,1.28078,0.02702669,0.95998
269.95,19.94012,1.27136,0.02719903,0.95959
270.45,19.9538,1.26316,0.02720904,0.95921
270.95,19.96744,1.25743,0.02717577,0.95882
271.45,19.98115,1.25005,0.02712216,0.95844
271.95,19.99483,1.24419,0.02594974,0.95805
272.45,20.0085,1.23933,0.0258781,0.95767
272.95,20.0222,1.23521,0.02587965,0.95728
273.45,20.03586,1.23005,0.0258796,0.95689
273.95,20.0496,1.22578,0.02588045,0.9565
274.45,20.06324,1.22301,0.02589738,0.95612
274.95,20.07691,1.22149,0.02567445,0.95573
275.45,20.09056,1.21824,0.02520898,0.95534
275.95,20.10422,1.2143,0.02535944,0.95495
276.45,20.11787,1.21181,0.02557204,0.95456
276.95,20.1315,1.21069,0.02559064,0.95417
277.45,20.1451,1.21121,0.02591204,0.95378
277.95,20.15876,1.20817,0.02587786,0.95338
278.45,20.17238,1.2058,0.02587941,0.95299
278.95,20.18601,1.2022,0.02588014,0.9526
279.45,20.19966,1.20136,0.02588,0.95221
279.95,20.21335,1.20141,0.02588,0.95181
280.45,20.227,1.2012,0.02587998,0.95142
280.95,20.24062,1.19859,0.02587997,0.95102
281.45,20.2543,1.20003,0.02588083,0.95063
281.95,20.26795,1.19905,0.02587696,0.95023
282.45,20.28163,1.19504,0.0258625,0.94984
282.95,20.29523,1.19438,0.02513538,0.94944
283.45,20.3089,1.19717,0.0251795,0.94905
283.95,20.32254,1.19627,0.02520719,0.94865
284.45,20.33608,1.19593,0.02522292,0.94825
284.95,20.34966,1.19493,0.02521994,0.94785
285.45,20.3633,1.19449,0.02522001,0.94746
285.95,20.37695,1.19309,0.02521956,0.94706
286.45,20.3906,1.19302,0.0252193,0.94666
286.95,20.4042,1.19253,0.02526559,0.94626
287.45,20.41797,1.1919,0.02638745,0.94586
287.95,20.43166,1.19263,0.02652114,0.94546
288.45,20.4453,1.19261,0.02654631,0.94506
288.95,20.45897,1.18973,0.02653971,0.94465
289.45,20.4726,1.19009,0.02654086,0.94425
289.95,20.48627,1.19046,0.02653298,0.94385
290.45,20.49992,1.18984,0.02686346,0.94345
290.95,20.51354,1.18859,0.02795682,0.94304
291.45,20.5272,1.1886,0.02784534,0.94264
291.95,20.54083,1.18914,0.02785921,0.94224
292.45,20.55445,1.18911,0.02786049,0.94183
292.95,20.5681,1.18754,0.02785995,0.94143
293.45,20.5817,1.18882,0.02785999,0.94102
293.95,20.59528,1.18744,0.02785999,0.94062
294.45,20.6089,1.18734,0.02786002,0.94021
294.95,20.62252,1.1875,0.02786025,0.9398
295.45,20.63614,1.18616,0.02785814,0.9394
295.95,20.64976,1.18681,0.02786093,0.93899
296.45,20.66336,1.18618,0.0271883,0.93858
296.95,20.677,1.18674,0.026481,0.93818
297.45,20.6906,1.18609,0.02653708,0.93777
297.95,20.70425,1.18698,0.02658884,0.93736
298.45,20.7179,1.18641,0.0277012,0.93695
298.95,20.73154,1.18786,0.02784221,0.93654
299.45,20.7452,1.186,0.02786639,0.93613
299.95,20.75879,1.18684,0.02785958,0.93572
300.45,20.77245,1.18749,0.02785988,0.93531
300.95,20.7861,1.18778,0.02786003,0.9349
301.45,20.79969,1.18611,0.02786,0.93449
301.95,20.81326,1.18521,0.02785983,0.93407
302.45,20.82689,1.18749,0.02786095,0.93366
302.95,20.84054,1.18897,0.02786124,0.93325
303.45,20.8541,1.18731,0.02781861,0.93284
303.95,20.8677,1.1846,0.02832184,0.93242
304.45,20.8813,1.18393,0.02920155,0.93201
304.95,20.89494,1.18534,0.02915687,0.9316
305.45,20.90856,1.18773,0.02917102,0.93118
305.95,20.9222,1.18751,0.02917024,0.93077
306.45,20.9358,1.18726,0.02916987,0.93035
306.95,20.94941,1.18802,0.02917009,0.92994
307.45,20.96303,1.18689,0.02917229,0.92952
307.95,20.97666,1.18513,0.02915616,0.92911
308.45,20.9903,1.18776,0.0291603,0.92869
308.95,21.00394,1.18661,0.02819111,0.92827
309.45,21.0175,1.18683,0.02782457,0.92785
309.95,21.03119,1.18824,0.02784791,0.92744
310.45,21.04482,1.1879,0.02785107,0.92702
310.95,21.05842,1.18703,0.02784958,0.9266
311.45,21.07205,1.18767,0.02784723,0.92618
311.95,21.08563,1.1875,0.02787526,0.92576
312.45,21.09925,1.19034,0.0278132,0.92535
312.95,21.11287,1.18829,0.02904845,0.92493
313.45,21.12644,1.1885,0.03019147,0.92451
313.95,21.14002,1.18781,0.03048977,0.92409
314.45,21.15365,1.18945,0.03049686,0.92367
314.95,21.16726,1.18978,0.03048887,0.92324
315.45,21.18084,1.18837,0.03048966,0.92282
315.95,21.19444,1.1882,0.03049615,0.9224
316.45,21.20806,1.18911,0.03029623,0.92198
316.95,21.22168,1.18758,0.02910021,0.92156
317.45,21.2353,1.18837,0.02919333,0.92114
317.95,21.2489,1.18823,0.02916864,0.92071
318.45,21.26255,1.18863,0.02916955,0.92029
318.95,21.27618,1.18688,0.0291701,0.91987
319.45,21.2898,1.18978,0.02917,0.91944
319.95,21.3034,1.1884,0.02917,0.91902
320.45,21.31703,1.18729,0.02917,0.91859
320.95,21.33066,1.18796,0.02917,0.91817
321.45,21.3443,1.1887,0.02917,0.91775
321.95,21.35791,1.18968,0.02917,0.91732
322.45,21.3716,1.18763,0.02917,0.91689
322.95,21.38518,1.18685,0.02917,0.91647
323.45,21.39885,1.19045,0.02917,0.91604
323.95,21.4125,1.18784,0.02917,0.91562
324.45,21.4261,1.18833,0.02917,0.91519
324.95,21.43969,1.18822,0.02917,0.91476
325.45,21.4533,1.18911,0.02916991,0.91434
325.95,21.46694,1.19036,0.02917047,0.91391
326.45,21.48059,1.19035,0.02917069,0.91348
326.95,21.4942,1.18951,0.02914907,0.91305
327.45,21.5078,1.18776,0.02940853,0.91262
327.95,21.5215,1.19039,0.02983757,0.9122
328.45,21.53518,1.18937,0.02999038,0.91177
328.95,21.54885,1.18931,0.03015772,0.91134
329.45,21.56249,1.18876,0.03015236,0.91091
329.95,21.5761,1.18817,0.03014945,0.91048
330.45,21.58973,1.18925,0.03015001,0.91005
330.95,21.6034,1.19072,0.03015001,0.90962
331.45,21.61703,1.18899,0.03015,0.90919
331.95,21.63064,1.18919,0.03015,0.90876
332.45,21.6443,1.1885,0.03015,0.90833
332.95,21.658,1.18871,0.03015,0.9079
333.45,21.6717,1.18835,0.03015,0.90746
333.95,21.68534,1.1885,0.03015,0.90703
334.45,21.69898,1.18973,0.03015,0.9066
334.95,21.71264,1.19021,0.03014996,0.90617
335.45,21.72632,1.18826,0.03015026,0.90574
335.95,21.73992,1.18742,0.03014995,0.9053
336.45,21.7534,1.18927,0.03014037,0.90487
336.95,21.76701,1.18814,0.03019935,0.90444
337.45,21.78069,1.18656,0.02944261,0.904
337.95,21.7943,1.19071,0.02878861,0.90357
338.45,21.80797,1.18956,0.02884584,0.90314
338.95,21.82163,1.18915,0.02884229,0.9027
339.45,21.83535,1.18905,0.02882155,0.90227
339.95,21.84917,1.18984,0.02886969,0.90183
340.45,21.86284,1.19062,0.02811278,0.9014
340.95,21.87657,1.18944,0.02819285,0.90096
341.45,21.89027,1.18766,0.02818009,0.90053
341.95,21.90397,1.18768,0.02818709,0.90009
342.45,21.91766,1.18926,0.02814907,0.89966
342.95,21.93132,1.18748,0.02853186,0.89922
343.45,21.94493,1.18749,0.02850082,0.89878
343.95,21.95861,1.18742,0.02851131,0.89835
344.45,21.97225,1.18839,0.02852017,0.89791
344.95,21.98594,1.18739,0.02953971,0.89748
345.45,21.99962,1.18978,0.02994728,0.89704
345.95,22.0133,1.19035,0.02997336,0.8966
346.45,22.0271,1.18692,0.03101059,0.89616
346.95,22.04082,1.18921,0.03123887,0.89573
347.45,22.05452,1.18964,0.03125705,0.89529
347.95,22.06825,1.18716,0.03124895,0.89485
348.45,22.08182,1.18546,0.03124725,0.89441
348.95,22.09556,1.18814,0.0312772,0.89397
349.45,22.10925,1.18788,0.0312098,0.89353
349.95,22.12293,1.18545,0.03305199,0.8931
350.45,22.13665,1.18531,0.03395974,0.89266
350.95,22.15038,1.18662,0.03389155,0.89222
351.45,22.16414,1.18645,0.03388805,0.89178
351.95,22.17795,1.18702,0.03389022,0.89134
352.45,22.1917,1.18567,0.03389003,0.8909
352.95,22.20545,1.18643,0.03388999,0.89046
353.45,22.2192,1.18711,0.03389001,0.89002
353.95,22.23289,1.18671,0.03389014,0.88958
354.45,22.24661,1.18739,0.03388909,0.88914
354.95,22.26031,1.18684,0.03388934,0.8887
355.45,22.27404,1.18929,0.03392836,0.88826
355.95,22.28774,1.18721,0.0334298,0.88782
356.45,22.30144,1.18615,0.03243138,0.88737
356.95,22.31521,1.18604,0.03221859,0.88693
357.45,22.32897,1.18768,0.0309818,0.88649
357.95,22.3428,1.18837,0.03094843,0.88605
358.45,22.35656,1.1892,0.03092664,0.88561
358.95,22.37037,1.18916,0.03093015,0.88517
359.45,22.3842,1.1891,0.03091873,0.88472
359.95,22.39797,1.18784,0.030972,0.88428
360.45,22.41173,1.18824,0.03012649,0.88384
360.95,22.42549,1.1894,0.02956419,0.8834
361.45,22.43929,1.18948,0.02961211,0.88295
361.95,22.45303,1.19002,0.02961945,0.88251
362.45,22.46681,1.19028,0.02955891,0.88207
362.95,22.48057,1.18804,0.03031766,0.88162
363.45,22.49439,1.18779,0.03098113,0.88118
363.95,22.50815,1.1893,0.03092498,0.88074
364.45,22.52194,1.18857,0.03092917,0.88029
364.95,22.5357,1.1893,0.03093053,0.87985
365.45,22.5495,1.18953,0.0309297,0.87941
365.95,22.56333,1.1912,0.03091902,0.87896
366.45,22.57715,1.1905,0.0309882,0.87852
366.95,22.59092,1.19204,0.03021516,0.87807
367.45,22.60476,1.19176,0.0299241,0.87763
367.95,22.6186,1.19339,0.0299412,0.87718
368.45,22.6324,1.19498,0.02994028,0.87674
368.95,22.64621,1.19524,0.02993994,0.87629
369.45,22.66003,1.19492,0.02994,0.87585
369.95,22.67381,1.19434,0.02994,0.8754
370.45,22.68768,1.19583,0.02994,0.87496
370.95,22.7015,1.19648,0.02994,0.87451
371.45,22.71538,1.19619,0.02994,0.87407
371.95,22.72924,1.19588,0.02994,0.87362
372.45,22.74312,1.19848,0.02993992,0.87318
372.95,22.75699,1.19942,0.02994048,0.87273
373.45,22.77083,1.20051,0.02994102,0.87228
373.95,22.7847,1.2014,0.02991673,0.87184
374.45,22.79852,1.20235,0.0300045,0.87139
374.95,22.81237,1.20213,0.02878968,0.87095
375.45,22.82617,1.203,0.02861473,0.8705
375.95,22.84007,1.20545,0.02861998,0.87005
376.45,22.85395,1.20572,0.02862013,0.86961
376.95,22.8678,1.20708,0.02861999,0.86916
377.45,22.88168,1.2094,0.02862,0.86871
377.95,22.89556,1.20797,0.02861999,0.86827
378.45,22.90943,1.20779,0.02862002,0.86782
378.95,22.92331,1.20931,0.02862057,0.86737
379.45,22.9372,1.21075,0.02861699,0.86692
379.95,22.95103,1.21273,0.02861172,0.86648
380.45,22.96491,1.21418,0.02881116,0.86603
380.95,22.97879,1.21447,0.02866527,0.86558
381.45,22.99265,1.21545,0.02873242,0.86514
381.95,23.00657,1.21597,0.02993818,0.86469
382.45,23.02044,1.21842,0.03016655,0.86424
382.95,23.03432,1.21907,0.03130521,0.86379
383.45,23.04821,1.21738,0.03205639,0.86334
383.95,23.06212,1.21762,0.03446556,0.8629
384.45,23.0761,1.21846,0.03577288,0.86245
384.95,23.08997,1.22024,0.03771685,0.862
385.45,23.10388,1.21982,0.03842796,0.86155
385.95,23.1178,1.21761,0.03835803,0.8611
386.45,23.13175,1.21896,0.03828015,0.86066
386.95,23.1457,1.22149,0.03662132,0.86021
387.45,23.15951,1.22207,0.03458664,0.85976
387.95,23.17345,1.22405,0.03247539,0.85931
388.45,23.18741,1.22619,0.03008127,0.85886
388.95,23.20139,1.22762,0.02842115,0.85841
389.45,23.21518,1.22875,0.02855802,0.85796
389.95,23.22915,1.23126,0.02851854,0.85752
390.45,23.24314,1.23497,0.02852359,0.85707
390.95,23.2572,1.2371,0.02837437,0.85662
391.45,23.27111,1.23888,0.02714837,0.85617
391.95,23.28509,1.24141,0.02722208,0.85572
392.45,23.29916,1.24315,0.02720192,0.85527
392.95,23.31322,1.24759,0.02726266,0.85482
393.45,23.3272,1.25123,0.02648858,0.85437
393.95,23.34121,1.25185,0.025876,0.85392
394.45,23.3552,1.25459,0.02588206,0.85347
394.95,23.36917,1.25685,0.02587935,0.85303
395.45,23.38317,1.26119,0.02588813,0.85258
395.95,23.39718,1.26499,0.02587925,0.85213
396.45,23.4112,1.26882,0.02588,0.85168
396.95,23.42519,1.27407,0.02587908,0.85123
397.45,23.43921,1.27779,0.0258815,0.85078
397.95,23.4532,1.28227,0.02591334,0.85033
398.45,23.46715,1.28932,0.02545418,0.84988
398.95,23.48112,1.29381,0.02453188,0.84943
399.45,23.4951,1.30015,0.02457346,0.84898
399.95,23.50904,1.30832,0.02455843,0.84853
400.45,23.52303,1.31726,0.02453404,0.84808
400.95,23.537,1.32518,0.02348942,0.84763
401.45,23.55105,1.33022,0.023263,0.84718
401.95,23.56503,1.33642,0.02320323,0.84673
402.45,23.5791,1.34296,0.02178099,0.84628
402.95,23.59311,1.35055,0.02160057,0.84583
403.45,23.60705,1.35736,0.02007306,0.84538
403.95,23.6209,1.36442,0.01940563,0.84494
404.45,23.63498,1.37136,0.01722525,0.84449
404.95,23.64904,1.37995,0.01555362,0.84404
405.45,23.6631,1.38811,0.01454557,0.84359
405.95,23.6771,1.39602,0.01319318,0.84314
406.45,23.69117,1.40032,0.01103062,0.84269
406.95,23.70541,1.41344,0.008785867,0.84224
407.45,23.71953,1.41563,0.00674392,0.84179
407.95,23.73358,1.41927,0.004193578,0.84134
408.45,23.7477,1.42432,0.00217942,0.84089
408.95,23.76183,1.42907,-0.0006180157,0.84044
409.45,23.77599,1.43245,-0.00357144,0.83999
409.95,23.7901,1.43463,-0.00605163,0.83954
410.45,23.8042,1.43804,-0.00809658,0.83909
410.95,23.8184,1.44119,-0.00984567,0.83864
411.45,23.83253,1.4443,-0.0124466,0.83819
411.95,23.84668,1.44574,-0.0146447,0.83774
412.45,23.86084,1.45165,-0.01702372,0.83729
412.95,23.87495,1.45877,-0.01871906,0.83684
413.45,23.8891,1.48579,-0.02127955,0.83639
413.95,23.90326,1.49478,-0.02348086,0.83594
414.45,23.91739,1.50077,-0.0259606,0.83549
414.95,23.9315,1.51254,-0.02844862,0.83504
415.45,23.94567,1.52538,-0.03110155,0.83459
415.95,23.95985,1.53378,-0.03454187,0.83414
416.45,23.97407,1.53844,-0.03511197,0.83369
416.95,23.98824,1.54224,-0.03822702,0.83325
417.45,24.00241,1.5481,-0.04085313,0.8328
417.95,24.01662,1.55518,-0.04469724,0.83235
418.45,24.03078,1.56471,-0.04805072,0.8319
418.95,24.04491,1.56562,-0.05299407,0.83145
419.45,24.05905,1.56975,-0.0574523,0.831
419.95,24.07321,1.57452,-0.0616574,0.83055
420.45,24.0874,1.5853,-0.06684952,0.8301
420.95,24.10153,1.59125,-0.07108387,0.82965
421.45,24.11572,1.59723,-0.0758313,0.8292
421.95,24.1299,1.6033,-0.08125129,0.82875
422.45,24.1441,1.61089,-0.08554694,0.8283
422.95,24.15823,1.61762,-0.09081251,0.82786
423.45,24.17236,1.62486,-0.09707325,0.82741
423.95,24.1865,1.63789,-0.10184,0.82696
424.45,24.20068,1.64993,-0.10807,0.82651
424.95,24.2148,1.66296,-0.11471,0.82606
425.45,24.22899,1.67686,-0.12021,0.82561
425.95,24.2432,1.69009,-0.12726,0.82516
426.45,24.25734,1.70473,-0.13413,0.82471
426.95,24.27153,1.72207,-0.14098,0.82427
427.45,24.28574,1.73675,-0.14966,0.82382
427.95,24.3,1.75258,-0.15707,0.82337
428.45,24.3141,1.77503,-0.16434,0.82292
428.95,24.3283,1.79727,-0.17343,0.82247
429.45,24.3425,1.81904,-0.18126,0.82202
429.95,24.35663,1.83925,-0.18892,0.82158
430.45,24.3708,1.86012,-0.19834,0.82113
430.95,24.38495,1.87533,-0.20543,0.82068
431.45,24.3992,1.88875,-0.21457,0.82023
431.95,24.41339,1.90843,-0.22491,0.81978
432.45,24.42765,1.92916,-0.23115,0.81934
432.95,24.44191,1.94785,-0.24014,0.81889
433.45,24.45619,1.96418,-0.248,0.81844
433.95,24.47044,1.98894,-0.25562,0.81799
434.45,24.4847,2.01455,-0.26566,0.81755
434.95,24.49897,2.03891,-0.27451,0.8171
435.45,24.51321,2.06148,-0.2845,0.81665
435.95,24.52749,2.08564,-0.2961,0.8162
436.45,24.5417,2.10695,-0.30524,0.81576
436.95,24.556,2.13582,-0.31554,0.81531
437.45,24.57028,2.15947,-0.32741,0.81486
437.95,24.5846,2.1854,-0.33597,0.81442
438.45,24.59889,2.21653,-0.34746,0.81397
438.95,24.61317,2.24044,-0.36174,0.81352
439.45,24.6275,2.26593,-0.37253,0.81308
439.95,24.6418,2.29187,-0.38688,0.81263
440.45,24.6561,2.32387,-0.40024,0.81218
440.95,24.67044,2.354,-0.41172,0.81174
441.45,24.68479,2.37971,-0.427,0.81129
441.95,24.69915,2.41166,-0.44144,0.81084
442.45,24.71349,2.44757,-0.45483,0.8104
442.95,24.72784,2.47914,-0.47181,0.80995
443.45,24.74222,2.51484,-0.48462,0.80951
443.95,24.75657,2.54702,-0.50119,0.80906
444.45,24.77091,2.57783,-0.5222,0.80862
444.95,24.78525,2.60495,-0.5385,0.80817
445.45,24.79961,2.6341,-0.55844,0.80772
445.95,24.814,2.66307,-0.58099,0.80728
446.45,24.8283,2.68645,-0.59863,0.80683
446.95,24.8427,2.71928,-0.62104,0.80639
447.45,24.85701,2.74645,-0.64283,0.80594
447.95,24.87138,2.77563,-0.66221,0.8055
448.45,24.8857,2.80502,-0.68834,0.80505
448.95,24.90007,2.83007,-0.71021,0.80461
449.45,24.91444,2.85738,-0.73288,0.80417
449.95,24.92882,2.89209,-0.76077,0.80372
450.45,24.94322,2.92055,-0.78212,0.80328
450.95,24.95766,2.94948,-0.80771,0.80283
451.45,24.9721,2.98014,-0.83829,0.80239
451.95,24.98657,3.01004,-0.86213,0.80195
452.45,25.00105,3.0466,-0.89269,0.8015
452.95,25.01548,3.07607,-0.92422,0.80106
453.45,25.02994,3.10072,-0.95042,0.80061
453.95,25.04438,3.12431,-0.98449,0.80017
454.45,25.05882,3.14572,-1.01606,0.79973
454.95,25.07323,3.16869,-1.04624,0.79928
455.45,25.08762,3.19176,-1.08406,0.79884
455.95,25.1021,3.2123,-1.11376,0.7984
456.45,25.11656,3.23932,-1.14668,0.79796
456.95,25.13101,3.25209,-1.18671,0.79751
457.45,25.14545,3.26183,-1.21619,0.79707
457.95,25.15989,3.2835,-1.25224,0.79663
458.45,25.17438,3.29927,-1.28579,0.79619
458.95,25.18883,3.30137,-1.32722,0.79575
459.45,25.20326,3.30651,-1.37325,0.7953
459.95,25.21771,3.29926,-1.43436,0.79486
460.45,25.23217,3.28814,-1.47456,0.79442
460.95,25.24663,3.28934,-1.5036,0.79398
461.45,25.26107,3.27912,-1.54102,0.79354
461.95,25.27552,3.26485,-1.58135,0.7931
462.45,25.29,3.26209,-1.62348,0.79266
462.95,25.3045,3.26534,-1.66655,0.79222
463.45,25.31897,3.27077,-1.71006,0.79178
463.95,25.33344,3.28329,-1.75193,0.79134
464.45,25.34796,3.2859,-1.79576,0.79089
464.95,25.3625,3.28397,-1.84223,0.79045
465.45,25.37696,3.28397,-1.88711,0.79001
465.95,25.39143,3.28464,-1.92982,0.78958
466.45,25.40587,3.28762,-1.97705,0.78914
466.95,25.42034,3.28893,-2.02637,0.7887
467.45,25.43477,3.28942,-2.0731,0.78826
467.95,25.4492,3.29021,-2.11959,0.78782
468.45,25.46365,3.28701,-2.16919,0.78738
468.95,25.47815,3.28393,-2.21749,0.78694
469.45,25.49266,3.27974,-2.26311,0.7865
469.95,25.5072,3.27114,-2.31042,0.78606
470.45,25.5217,3.26056,-2.35984,0.78563
470.95,25.5363,3.24905,-2.40715,0.78519
471.45,25.5508,3.22832,-2.45398,0.78475
471.95,25.56537,3.20095,-2.50262,0.78431
472.45,25.57992,3.17704,-2.5506,0.78387
472.95,25.59445,3.14523,-2.59524,0.78344
473.45,25.60904,3.11117,-2.63947,0.783
473.95,25.62363,3.07451,-2.68634,0.78256
474.45,25.63821,3.02931,-2.73265,0.78213
474.95,25.65276,2.97945,-2.77495,0.78169
475.45,25.6674,2.92953,-2.81813,0.78125
475.95,25.68199,2.8723,-2.86268,0.78082
476.45,25.6966,2.81218,-2.90249,0.78038
476.95,25.71118,2.74996,-2.94051,0.77995
477.45,25.72578,2.68216,-2.98034,0.77951
477.95,25.74041,2.61008,-3.01847,0.77907
478.45,25.75497,2.53841,-3.05181,0.77864
478.95,25.76953,2.46148,-3.09259,0.7782
479.45,25.78414,2.38476,-3.11468,0.77777
479.95,25.79872,2.30607,-3.14275,0.77733
480.45,25.81334,2.22347,-3.17273,0.7769
480.95,25.82799,2.14163,-3.19618,0.77647
481.45,25.8427,2.06083,-3.22284,0.77603
481.95,25.8575,1.97874,-3.24791,0.7756
482.45,25.8722,1.89663,-3.26929,0.77516
482.95,25.8871,1.81298,-3.29358,0.77473
483.45,25.90196,1.73085,-3.31167,0.7743
483.95,25.91689,1.64807,-3.33025,0.77386
484.45,25.93187,1.56461,-3.35034,0.77343
484.95,25.94688,1.48058,-3.36467,0.773
485.45,25.96193,1.39656,-3.38087,0.77257
485.95,25.97701,1.31606,-3.39599,0.77213
486.45,25.99214,1.23241,-3.4086,0.7717
486.95,26.00722,1.14928,-3.42317,0.77127
487.45,26.02231,1.06634,-3.43394,0.77084
487.95,26.03736,0.98708,-3.44518,0.77041
488.45,26.05245,0.90933,-3.45736,0.76998
488.95,26.0675,0.83189,-3.46714,0.76955
489.45,26.08257,0.76009,-3.4778,0.76911
489.95,26.09763,0.68648,-3.4879,0.76868
490.45,26.11269,0.61586,-3.49665,0.76825
490.95,26.12775,0.55166,-3.5065,0.76782
491.45,26.14271,0.48562,-3.51386,0.76739
491.95,26.15766,0.42623,-3.52148,0.76696
492.45,26.1726,0.36741,-3.52964,0.76653
492.95,26.1875,0.31306,-3.53534,0.76611
493.45,26.20239,0.26296,-3.54215,0.76568
493.95,26.2173,0.21373,-3.54914,0.76525
494.45,26.23211,0.1662,-3.5559,0.76482
494.95,26.247,0.12114,-3.56326,0.76439
495.45,26.2618,0.08081081,-3.56839,0.76396
495.95,26.2766,0.0425094,-3.57405,0.76354
496.45,26.29143,0.00303776,-3.58022,0.76311
496.95,26.30622,-0.03233373,-3.58461,0.76268
497.45,26.32108,-0.06872781,-3.5898,0.76225
497.95,26.33591,-0.10206,-3.59477,0.76183
498.45,26.3507,-0.13113,-3.59907,0.7614
498.95,26.3655,-0.16121,-3.60478,0.76097
499.45,26.38032,-0.1899,-3.60843,0.76055
499.95,26.39511,-0.21661,-3.61209,0.76012
500.45,26.40985,-0.24095,-3.6173,0.7597
500.95,26.42458,-0.26486,-3.6208,0.75927
501.45,26.43938,-0.28685,-3.62439,0.75885
501.95,26.45417,-0.30853,-3.6296,0.75842
502.45,26.46893,-0.32973,-3.6331,0.758
502.95,26.48371,-0.34911,-3.63696,0.75757
503.45,26.4985,-0.36608,-3.6406,0.75715
503.95,26.5133,-0.38255,-3.64422,0.75672
504.45,26.5281,-0.40058,-3.64877,0.7563
504.95,26.54283,-0.41682,-3.65157,0.75588
505.45,26.5576,-0.43141,-3.65424,0.75545
505.95,26.57238,-0.44319,-3.65636,0.75503
506.45,26.5872,-0.45684,-3.65684,0.75461
506.95,26.60196,-0.46967,-3.65737,0.75419
507.45,26.61678,-0.4816,-3.65741,0.75376
507.95,26.63158,-0.49157,-3.65759,0.75334
508.45,26.64645,-0.50218,-3.65844,0.75292
508.95,26.6613,-0.51227,-3.65857,0.7525
509.45,26.67615,-0.51983,-3.66008,0.75208
509.95,26.691,-0.52825,-3.66299,0.75166
510.45,26.7059,-0.53716,-3.66565,0.75124
510.95,26.72076,-0.54229,-3.66991,0.75081
511.45,26.7356,-0.54993,-3.67257,0.75039
511.95,26.7506,-0.55688,-3.67523,0.74998
512.45,26.7654,-0.5608,-3.67868,0.74956
512.95,26.7803,-0.56811,-3.68033,0.74914
513.45,26.79518,-0.5719,-3.68259,0.74872
513.95,26.81005,-0.57677,-3.68437,0.7483
514.45,26.82491,-0.58083,-3.68619,0.74788
514.95,26.8397,-0.5846,-3.68653,0.74746
515.45,26.8547,-0.58864,-3.68807,0.74704
515.95,26.8696,-0.59252,-3.68905,0.74663
516.45,26.8845,-0.59538,-3.69034,0.74621
516.95,26.8994,-0.59772,-3.69164,0.74579
517.45,26.91436,-0.59979,-3.69447,0.74537
517.95,26.92936,-0.60028,-3.69694,0.74496
518.45,26.94432,-0.6044,-3.70011,0.74454
518.95,26.9593,-0.60515,-3.70299,0.74413
519.45,26.97424,-0.60521,-3.70492,0.74371
519.95,26.98923,-0.60629,-3.70708,0.74329
520.45,27.00422,-0.60871,-3.70846,0.74288
520.95,27.01922,-0.60955,-3.71029,0.74246
521.45,27.0342,-0.61027,-3.71022,0.74205
521.95,27.04921,-0.61097,-3.71094,0.74164
522.45,27.06425,-0.61234,-3.71255,0.74122
522.95,27.07927,-0.61258,-3.71286,0.74081
523.45,27.0943,-0.6138,-3.71391,0.74039
523.95,27.10928,-0.61597,-3.714,0.73998
524.45,27.1243,-0.61572,-3.71493,0.73957
524.95,27.13928,-0.61454,-3.71527,0.73916
525.45,27.15427,-0.61496,-3.71595,0.73874
525.95,27.16927,-0.61567,-3.71711,0.73833
526.45,27.18429,-0.61531,-3.71855,0.73792
526.95,27.19932,-0.61469,-3.7195,0.73751
527.45,27.2143,-0.61409,-3.72065,0.7371
527.95,27.22925,-0.6149,-3.72234,0.73669
528.45,27.24428,-0.61479,-3.72298,0.73627
528.95,27.25937,-0.61419,-3.72284,0.73586
529.45,27.27445,-0.6119,-3.72452,0.73545
529.95,27.2895,-0.61131,-3.72544,0.73504
530.45,27.3047,-0.60845,-3.72679,0.73464
530.95,27.31992,-0.60802,-3.72976,0.73423
531.45,27.33505,-0.60701,-3.73036,0.73382
531.95,27.3502,-0.60632,-3.73166,0.73341
532.45,27.3653,-0.60585,-3.73422,0.733
532.95,27.38043,-0.60472,-3.73553,0.73259
533.45,27.39552,-0.602,-3.73777,0.73218
533.95,27.41065,-0.6026,-3.73952,0.73178
534.45,27.4258,-0.60004,-3.74071,0.73137
534.95,27.44088,-0.60143,-3.74106,0.73096
535.45,27.45598,-0.60036,-3.74128,0.73056
535.95,27.4711,-0.59997,-3.74121,0.73015
536.45,27.4863,-0.5984,-3.74123,0.72975
536.95,27.5015,-0.59754,-3.7418,0.72934
537.45,27.5167,-0.59438,-3.74243,0.72893
537.95,27.53189,-0.59319,-3.74376,0.72853
538.45,27.54705,-0.59388,-3.74395,0.72813
538.95,27.56223,-0.59353,-3.74521,0.72772
539.45,27.5774,-0.5941,-3.74535,0.72732
539.95,27.5925,-0.5941,-3.7469,0.72691
540.45,27.6076,-0.59261,-3.74737,0.72651
540.95,27.6228,-0.59314,-3.74887,0.72611
541.45,27.63803,-0.59317,-3.74865,0.7257
541.95,27.65325,-0.59287,-3.74993,0.7253
542.45,27.6685,-0.59074,-3.75007,0.7249
542.95,27.68375,-0.59004,-3.75022,0.7245
543.45,27.699,-0.58952,-3.75139,0.7241
543.95,27.71418,-0.58842,-3.75013,0.7237
544.45,27.72938,-0.58791,-3.75133,0.72329
544.95,27.74462,-0.58732,-3.7504,0.72289
545.45,27.7598,-0.58589,-3.75092,0.72249
545.95,27.7751,-0.58495,-3.75127,0.72209
546.45,27.7903,-0.58588,-3.75073,0.72169
546.95,27.80557,-0.5859,-3.75146,0.7213
547.45,27.8208,-0.58443,-3.75184,0.7209
547.95,27.83604,-0.58469,-3.75447,0.7205
548.45,27.85128,-0.58464,-3.75445,0.7201
548.95,27.86655,-0.58377,-3.75563,0.7197
549.45,27.8818,-0.58166,-3.75597,0.7193
549.95,27.8971,-0.58008,-3.75595,0.71891
550.45,27.91238,-0.57926,-3.75684,0.71851
550.95,27.9277,-0.57759,-3.75732,0.71811
551.45,27.94298,-0.57867,-3.75727,0.71772
551.95,27.9582,-0.57728,-3.75781,0.71732
552.45,27.9736,-0.57758,-3.75867,0.71693
552.95,27.98889,-0.57582,-3.75861,0.71653
553.45,28.00426,-0.57453,-3.75939,0.71614
553.95,28.01957,-0.57469,-3.75994,0.71574
554.45,28.03493,-0.5728,-3.75994,0.71535
554.95,28.05027,-0.57037,-3.75993,0.71495
555.45,28.0656,-0.57161,-3.76085,0.71456
555.95,28.0809,-0.57249,-3.76122,0.71417
556.45,28.09628,-0.57018,-3.76192,0.71377
556.95,28.1116,-0.56868,-3.76278,0.71338
557.45,28.12698,-0.56756,-3.76324,0.71299
557.95,28.1423,-0.56849,-3.76329,0.7126
558.45,28.15767,-0.56806,-3.76275,0.7122
558.95,28.173,-0.56641,-3.76278,0.71181
559.45,28.1884,-0.56532,-3.76278,0.71142
559.95,28.20378,-0.5651,-3.7628,0.71103
560.45,28.2192,-0.56405,-3.76274,0.71064
560.95,28.23457,-0.56431,-3.76423,0.71025
561.45,28.24993,-0.56191,-3.76431,0.70986
561.95,28.2653,-0.56106,-3.76696,0.70947
562.45,28.28074,-0.56039,-3.76738,0.70908
562.95,28.29614,-0.5593,-3.76839,0.70869
563.45,28.3115,-0.55989,-3.76877,0.70831
563.95,28.3269,-0.55806,-3.76936,0.70792
564.45,28.3424,-0.55835,-3.77027,0.70753
564.95,28.35782,-0.55822,-3.77132,0.70714
565.45,28.37322,-0.5586,-3.77135,0.70676
565.95,28.38865,-0.55738,-3.77128,0.70637
566.45,28.4041,-0.55758,-3.77262,0.70598
566.95,28.41951,-0.55611,-3.77276,0.7056
567.45,28.43492,-0.55471,-3.77386,0.70521
567.95,28.45035,-0.55436,-3.77497,0.70483
568.45,28.4657,-0.55642,-3.77526,0.70444
568.95,28.48103,-0.55525,-3.77631,0.70406
569.45,28.4964,-0.55451,-3.77623,0.70367
569.95,28.5117,-0.55446,-3.77712,0.70329
570.45,28.52712,-0.55508,-3.77823,0.70291
570.95,28.5425,-0.55487,-3.77831,0.70252
571.45,28.5579,-0.5543,-3.78026,0.70214
571.95,28.5734,-0.5538,-3.78089,0.70176
572.45,28.5888,-0.55348,-3.78083,0.70138
572.95,28.6043,-0.55287,-3.78212,0.701
573.45,28.6198,-0.55339,-3.7822,0.70062
573.95,28.63523,-0.55268,-3.78211,0.70023
574.45,28.65072,-0.55445,-3.78323,0.69985
574.95,28.6662,-0.55371,-3.78359,0.69947
575.45,28.6817,-0.55298,-3.78284,0.69909
575.95,28.6972,-0.55594,-3.78346,0.69871
576.45,28.7127,-0.55649,-3.78341,0.69834
576.95,28.7283,-0.55615,-3.78356,0.69796
577.45,28.74385,-0.55628,-3.78358,0.69758
577.95,28.75937,-0.55751,-3.78395,0.6972
578.45,28.7748,-0.55779,-3.78358,0.69682
578.95,28.79035,-0.55963,-3.78362,0.69645
579.45,28.8059,-0.56036,-3.78458,0.69607
579.95,28.8214,-0.561,-3.78492,0.69569
580.45,28.8369,-0.56221,-3.78507,0.69532
580.95,28.8524,-0.56254,-3.78588,0.69494
581.45,28.86787,-0.56235,-3.78488,0.69456
581.95,28.8833,-0.56231,-3.7849,0.69419
582.45,28.8988,-0.56337,-3.78473,0.69381
582.95,28.9143,-0.56496,-3.78382,0.69344
583.45,28.92977,-0.56676,-3.78276,0.69307
583.95,28.9452,-0.56748,-3.78223,0.69269
584.45,28.96061,-0.56902,-3.78073,0.69232
584.95,28.97617,-0.56974,-3.78179,0.69195
585.45,28.99168,-0.57056,-3.78207,0.69157
585.95,29.00726,-0.5727,-3.78241,0.6912
586.45,29.0229,-0.57142,-3.78505,0.69083
586.95,29.03854,-0.57273,-3.78569,0.69046
587.45,29.0542,-0.57413,-3.78847,0.69009
587.95,29.0697,-0.57436,-3.78822,0.68972
588.45,29.08523,-0.57577,-3.78989,0.68935
588.95,29.10077,-0.57493,-3.79132,0.68898
589.45,29.11631,-0.57454,-3.79323,0.68861
589.95,29.13188,-0.57517,-3.7956,0.68824
590.45,29.14745,-0.57534,-3.79641,0.68787
590.95,29.16303,-0.57761,-3.7966,0.6875
591.45,29.17863,-0.57881,-3.79765,0.68713
591.95,29.1942,-0.5783,-3.79768,0.68676
592.45,29.20979,-0.5776,-3.79765,0.6864
592.95,29.22537,-0.57817,-3.79898,0.68603
593.45,29.24093,-0.58022,-3.79907,0.68566
593.95,29.25647,-0.58236,-3.79971,0.6853
594.45,29.272,-0.58352,-3.80052,0.68493
594.95,29.2877,-0.58299,-3.80068,0.68457
595.45,29.3033,-0.5835,-3.80192,0.6842
595.95,29.31887,-0.587,-3.80161,0.68384
596.45,29.3344,-0.58942,-3.80027,0.68347
596.95,29.35,-0.5895,-3.80096,0.68311
597.45,29.36566,-0.59119,-3.80012,0.68274
597.95,29.38127,-0.59261,-3.80019,0.68238
598.45,29.39687,-0.59391,-3.80137,0.68202
598.95,29.41255,-0.59604,-3.803,0.68166
599.45,29.4283,-0.59824,-3.80293,0.68129
599.95,29.4439,-0.60103,-3.80312,0.68093
600.45,29.45952,-0.6024,-3.80423,0.68057
600.95,29.47513,-0.60407,-3.80415,0.68021
601.45,29.4908,-0.60553,-3.80531,0.67985
601.95,29.50637,-0.60651,-3.80577,0.67949
602.45,29.52197,-0.60828,-3.80731,0.67913
602.95,29.53762,-0.60859,-3.8071,0.67877
603.45,29.55325,-0.60934,-3.80908,0.67841
603.95,29.5689,-0.6114,-3.80997,0.67805
604.45,29.5845,-0.61296,-3.81,0.67769
604.95,29.6002,-0.61529,-3.81139,0.67734
605.45,29.61583,-0.61709,-3.81138,0.67698
605.95,29.63147,-0.6215,-3.81148,0.67662
606.45,29.64705,-0.62177,-3.8115,0.67626
606.95,29.6627,-0.62171,-3.81128,0.67591
607.45,29.6784,-0.62285,-3.81128,0.67555
607.95,29.69398,-0.62313,-3.81115,0.6752
608.45,29.7096,-0.6249,-3.81116,0.67484
608.95,29.72526,-0.62396,-3.81138,0.67449
609.45,29.74095,-0.62364,-3.81135,0.67413
609.95,29.7566,-0.62317,-3.81202,0.67378
610.45,29.77233,-0.62344,-3.81269,0.67342
610.95,29.78807,-0.62273,-3.81308,0.67307
611.45,29.80381,-0.62268,-3.81552,0.67272
611.95,29.81952,-0.6239,-3.81533,0.67237
612.45,29.8352,-0.62056,-3.81561,0.67201
612.95,29.85088,-0.62016,-3.81666,0.67166
613.45,29.86655,-0.61772,-3.81665,0.67131
613.95,29.8822,-0.61427,-3.81676,0.67096
614.45,29.8979,-0.6124,-3.81884,0.67061
614.95,29.9136,-0.60975,-3.81954,0.67026
615.45,29.92932,-0.60989,-3.82088,0.66991
615.95,29.94505,-0.60673,-3.82085,0.66956
616.45,29.96074,-0.6033,-3.82163,0.66921
616.95,29.97648,-0.6008,-3.82239,0.66886
617.45,29.9921,-0.59745,-3.82364,0.66851
617.65,29.9985,-0.59801,-3.8236,0.66838