File: 01_Data/PETG/STA/N2/30K_min/PETG_STA_N2_30KData_210902_R4.csv
##Temp./Â°C,Time/min,DSC(subtr.2)/(mW/mg),Mass loss(subtr.2)/mg,Sensit./(uV/mW)
49.338,10.01,-0.02118988,0.01042,1.05401
49.838,10.9746,0.00144871,0.007831664,1.05402
50.338,11.1907,0.01938341,0.00880863,1.05403
50.838,11.3329,0.03628815,0.007480604,1.05404
51.338,11.44519,0.04836813,0.008145839,1.05404
51.838,11.54086,0.06313071,0.00778115,1.05405
52.338,11.62544,0.07450383,0.008924493,1.05405
52.838,11.69928,0.08536418,0.009574368,1.05406
53.338,11.7674,0.0959071,0.01065238,1.05406
53.838,11.831,0.10726,0.009084905,1.05406
54.338,11.89034,0.11648,0.009222889,1.05406
54.838,11.9459,0.12731,0.01051755,1.05406
55.338,11.99879,0.13723,0.00878082,1.05406
55.838,12.04959,0.1454,0.009410817,1.05405
56.338,12.09791,0.15524,0.01055546,1.05405
56.838,12.1448,0.16056,0.0101164,1.05404
57.338,12.18966,0.16914,0.009764435,1.05404
57.838,12.23317,0.17414,0.009568035,1.05403
58.338,12.27605,0.18324,0.009876622,1.05402
58.838,12.31761,0.19037,0.01008321,1.05401
59.338,12.35806,0.19586,0.01007226,1.05399
59.838,12.39759,0.20062,0.01004866,1.05398
60.338,12.43626,0.20847,0.009997804,1.05397
60.838,12.4743,0.21571,0.008734313,1.05395
61.338,12.5116,0.22039,0.00832866,1.05393
61.838,12.54813,0.2278,0.009711925,1.05392
62.338,12.58421,0.23335,0.0099389,1.0539
62.838,12.61973,0.23717,0.01008628,1.05388
63.338,12.65444,0.24415,0.01090511,1.05385
63.838,12.68879,0.24903,0.01212627,1.05383
64.338,12.72293,0.25469,0.01255317,1.05381
64.838,12.75654,0.25981,0.01380317,1.05378
65.338,12.78958,0.26515,0.01295961,1.05375
65.838,12.82227,0.26761,0.01154037,1.05373
66.338,12.85476,0.27493,0.01053847,1.0537
66.838,12.88675,0.27807,0.0110515,1.05367
67.338,12.91827,0.28156,0.01083264,1.05364
67.838,12.94968,0.2862,0.009785314,1.0536
68.338,12.98098,0.2916,0.008313591,1.05357
68.838,13.0121,0.29665,0.007710255,1.05353
69.338,13.0429,0.30011,0.008248571,1.0535
69.838,13.07325,0.30473,0.007617874,1.05346
70.338,13.10335,0.31076,0.009183702,1.05342
70.838,13.13304,0.31691,0.01855036,1.05338
71.338,13.16264,0.32071,0.01707914,1.05334
71.838,13.19214,0.32207,0.002881943,1.0533
72.338,13.22163,0.32584,0.00555178,1.05326
72.838,13.2508,0.32958,0.00953864,1.05321
73.338,13.27975,0.33215,0.01052186,1.05316
73.838,13.3083,0.33578,0.00993621,1.05312
74.338,13.33686,0.33976,0.01008217,1.05307
74.838,13.36498,0.34277,0.01032667,1.05302
75.338,13.393,0.34476,0.01051051,1.05297
75.838,13.4208,0.34623,0.009755288,1.05292
76.338,13.44875,0.34733,0.008901904,1.05287
76.838,13.4764,0.34791,0.00873989,1.05281
77.338,13.5038,0.34967,0.008468092,1.05276
77.838,13.5311,0.35062,0.01082026,1.0527
78.338,13.55816,0.35157,0.01814337,1.05264
78.838,13.5845,0.34958,0.01724848,1.05258
79.338,13.61137,0.34986,0.005302569,1.05252
79.838,13.6378,0.34724,-6.57429e-05,1.05246
80.338,13.6643,0.34822,0.00346874,1.0524
80.838,13.69059,0.34734,0.00508998,1.05234
81.338,13.71645,0.34807,0.005512445,1.05227
81.838,13.7423,0.34895,0.005445696,1.05221
82.338,13.76796,0.34873,0.00582641,1.05214
82.838,13.79341,0.34778,0.006945926,1.05207
83.338,13.8186,0.34969,0.00738888,1.05201
83.838,13.8439,0.34914,0.00714133,1.05193
84.338,13.86905,0.34657,0.006789971,1.05186
84.838,13.894,0.34792,0.007179906,1.05179
85.338,13.91893,0.34789,0.00756654,1.05172
85.838,13.9436,0.34781,0.007730975,1.05164
86.338,13.9681,0.34805,0.00756732,1.05157
86.838,13.9923,0.35089,0.00673904,1.05149
87.338,14.0165,0.34975,0.007889053,1.05141
87.838,14.04059,0.34966,0.008119569,1.05133
88.338,14.0645,0.34931,0.007856703,1.05125
88.838,14.08844,0.35143,0.00707227,1.05117
89.338,14.1119,0.35111,0.0073458,1.05109
89.838,14.13538,0.35301,0.007942827,1.051
90.338,14.1586,0.35606,0.008744014,1.05092
90.838,14.1818,0.35352,0.008919335,1.05083
91.338,14.205,0.35614,0.008833552,1.05074
91.838,14.2281,0.35702,0.0103537,1.05066
92.338,14.25109,0.35801,0.01034401,1.05057
92.838,14.2738,0.35865,0.01065186,1.05048
93.338,14.29638,0.36064,0.009264047,1.05038
93.838,14.3188,0.36015,0.008347885,1.05029
94.338,14.3413,0.36094,0.00869668,1.0502
94.838,14.36359,0.36208,0.007208934,1.0501
95.338,14.3858,0.36324,0.008845321,1.05001
95.838,14.40799,0.36369,0.007562327,1.04991
96.338,14.4299,0.36556,0.008679384,1.04981
96.838,14.45188,0.36677,0.0072247,1.04971
97.338,14.4737,0.36921,0.00645832,1.04961
97.838,14.4954,0.36986,0.00574541,1.04951
98.338,14.51702,0.36933,0.004634834,1.0494
98.838,14.53845,0.37317,0.004380025,1.0493
99.338,14.55991,0.3743,0.004931738,1.0492
99.838,14.58129,0.37586,0.00496354,1.04909
100.338,14.6025,0.37772,0.00442764,1.04898
100.838,14.6236,0.37904,0.00563256,1.04887
101.338,14.6447,0.38251,0.004494735,1.04876
101.838,14.66566,0.38622,0.0052993,1.04865
102.338,14.6866,0.38909,0.00480737,1.04854
102.838,14.7074,0.39109,0.00494058,1.04843
103.338,14.72821,0.39332,0.00546525,1.04831
103.838,14.7489,0.39579,0.004982442,1.0482
104.338,14.76939,0.39951,0.006218517,1.04808
104.838,14.78996,0.401,0.00702192,1.04797
105.338,14.81032,0.40643,0.008567979,1.04785
105.838,14.83068,0.41044,0.008694425,1.04773
106.338,14.851,0.41233,0.009511401,1.04761
106.838,14.87115,0.41512,0.008775202,1.04749
107.338,14.89125,0.42028,0.009417936,1.04736
107.838,14.91138,0.42458,0.00877319,1.04724
108.338,14.9313,0.4275,0.009077168,1.04711
108.838,14.9513,0.43121,0.00864777,1.04699
109.338,14.9711,0.43485,0.009315077,1.04686
109.838,14.9908,0.43809,0.00868095,1.04673
110.338,15.0106,0.44247,0.008676175,1.0466
110.838,15.0304,0.44675,0.008346641,1.04647
111.338,15.0501,0.44911,0.008879297,1.04634
111.838,15.06979,0.45304,0.008888161,1.04621
112.338,15.0894,0.45808,0.00898146,1.04608
112.838,15.10886,0.4618,0.01034589,1.04594
113.338,15.12827,0.46563,0.009779728,1.04581
113.838,15.14765,0.46996,0.01072317,1.04567
114.338,15.1669,0.47428,0.009622241,1.04553
114.838,15.1862,0.47985,0.01102602,1.04539
115.338,15.2054,0.48141,0.009615579,1.04525
115.838,15.22451,0.48592,0.00959765,1.04511
116.338,15.24361,0.49013,0.008595929,1.04497
116.838,15.26265,0.4937,0.008244907,1.04483
117.338,15.2816,0.49798,0.00773962,1.04468
117.838,15.3004,0.50355,0.007615485,1.04454
118.338,15.31931,0.5071,0.00763834,1.04439
118.838,15.33813,0.50944,0.006968628,1.04424
119.338,15.35687,0.51327,0.00832131,1.04409
119.838,15.3756,0.51826,0.00872147,1.04394
120.338,15.3942,0.52056,0.008325574,1.04379
120.838,15.41274,0.52715,0.009396519,1.04364
121.338,15.4313,0.52994,0.008759853,1.04349
121.838,15.4498,0.53339,0.009530403,1.04334
122.338,15.46834,0.53862,0.009863726,1.04318
122.838,15.4869,0.54174,0.00920632,1.04303
123.338,15.5053,0.5451,0.008553899,1.04287
123.838,15.5236,0.54881,0.008559628,1.04271
124.338,15.54195,0.55231,0.00854422,1.04255
124.838,15.56006,0.5583,0.008548149,1.04239
125.338,15.57821,0.55958,0.007219876,1.04223
125.838,15.5963,0.56442,0.007190747,1.04207
126.338,15.6143,0.5683,0.00608048,1.04191
126.838,15.63234,0.57295,0.006677339,1.04174
127.338,15.65041,0.57538,0.00713074,1.04158
127.838,15.66833,0.57784,0.0066042,1.04141
128.338,15.68626,0.57991,0.006776634,1.04125
128.838,15.7041,0.58507,0.007153641,1.04108
129.338,15.72184,0.58927,0.006388817,1.04091
129.838,15.7395,0.59254,0.007109988,1.04074
130.338,15.7573,0.59541,0.007103646,1.04057
130.838,15.7749,0.59927,0.007773846,1.0404
131.338,15.79256,0.60197,0.00715418,1.04022
131.838,15.81013,0.60578,0.00723263,1.04005
132.338,15.8277,0.61034,0.005780532,1.03987
132.838,15.84496,0.61356,0.007110425,1.0397
133.338,15.86231,0.61504,0.006230188,1.03952
133.838,15.87981,0.62021,0.006888964,1.03934
134.338,15.89722,0.62467,0.00745946,1.03916
134.838,15.9146,0.62539,0.00919966,1.03898
135.338,15.9321,0.63017,0.009976614,1.0388
135.838,15.94951,0.63429,0.01064736,1.03862
136.338,15.9666,0.6371,0.01069598,1.03844
136.838,15.98381,0.6397,0.009671517,1.03825
137.338,16.00094,0.64372,0.009327067,1.03807
137.838,16.01819,0.64529,0.00930813,1.03788
138.338,16.03529,0.64685,0.00903364,1.0377
138.838,16.0525,0.65296,0.008539028,1.03751
139.338,16.0695,0.65608,0.00933272,1.03732
139.838,16.0865,0.66001,0.008705361,1.03713
140.338,16.10339,0.66194,0.008032707,1.03694
140.838,16.1203,0.66513,0.009337234,1.03675
141.338,16.13726,0.66851,0.009236439,1.03655
141.838,16.15413,0.66985,0.009995178,1.03636
142.338,16.171,0.67186,0.009430851,1.03616
142.838,16.18781,0.67537,0.01067563,1.03597
143.338,16.20458,0.67793,0.01084289,1.03577
143.838,16.22133,0.6819,0.01237823,1.03557
144.338,16.2381,0.68532,0.01127602,1.03537
144.838,16.2548,0.68806,0.01249286,1.03517
145.338,16.27145,0.68988,0.01240456,1.03497
145.838,16.28805,0.69502,0.0123995,1.03477
146.338,16.30471,0.69522,0.0124032,1.03457
146.838,16.32124,0.69651,0.01241189,1.03437
147.338,16.33781,0.70098,0.01192193,1.03416
147.838,16.35424,0.70358,0.01103417,1.03396
148.338,16.37066,0.70524,0.01108977,1.03375
148.838,16.3871,0.70753,0.01039018,1.03354
149.338,16.40348,0.71156,0.009765193,1.03333
149.838,16.41968,0.71184,0.009767735,1.03312
150.338,16.4361,0.71442,0.009437691,1.03291
150.838,16.45255,0.71593,0.008497211,1.0327
151.338,16.46885,0.72283,0.009922398,1.03249
151.838,16.48517,0.72386,0.009981363,1.03228
152.338,16.50154,0.72814,0.01043898,1.03206
152.838,16.51785,0.73074,0.01088002,1.03185
153.338,16.53407,0.73057,0.01203544,1.03163
153.838,16.55027,0.73385,0.0119609,1.03142
154.338,16.56644,0.7372,0.01195338,1.0312
154.838,16.5825,0.73909,0.01191498,1.03098
155.338,16.5987,0.74292,0.01128174,1.03076
155.838,16.61478,0.74325,0.01203422,1.03054
156.338,16.6309,0.74437,0.0119625,1.03032
156.838,16.64696,0.74967,0.01195725,1.0301
157.338,16.66301,0.75201,0.01193499,1.02987
157.838,16.67911,0.75684,0.01069741,1.02965
158.338,16.69515,0.75817,0.01059388,1.02942
158.838,16.71111,0.76121,0.009268146,1.0292
159.338,16.72711,0.76371,0.009355035,1.02897
159.838,16.743,0.76566,0.008827396,1.02874
160.338,16.7589,0.76645,0.009270472,1.02851
160.838,16.7747,0.76914,0.00930827,1.02828
161.338,16.79062,0.77094,0.009326734,1.02805
161.838,16.80645,0.77488,0.009426529,1.02782
162.338,16.82227,0.77693,0.008184791,1.02759
162.838,16.83811,0.77774,0.008007852,1.02736
163.338,16.85395,0.7792,0.008014958,1.02712
163.838,16.86973,0.78294,0.008006048,1.02689
164.338,16.88545,0.78494,0.00749574,1.02665
164.838,16.90118,0.78845,0.006684151,1.02641
165.338,16.91691,0.79072,0.00672566,1.02617
165.838,16.93261,0.79379,0.006966455,1.02594
166.338,16.94836,0.79562,0.0073746,1.0257
166.838,16.96406,0.79826,0.00689892,1.02546
167.338,16.9798,0.79872,0.006910175,1.02521
167.838,16.9954,0.79988,0.006917347,1.02497
168.338,17.011,0.80329,0.00648915,1.02473
168.838,17.02657,0.80611,0.005530421,1.02448
169.338,17.04213,0.80844,0.005576166,1.02424
169.838,17.05767,0.81069,0.00603628,1.02399
170.338,17.07316,0.81222,0.007174272,1.02375
170.838,17.08857,0.81417,0.007657361,1.0235
171.338,17.10407,0.81767,0.00862188,1.02325
171.838,17.1195,0.82175,0.008842638,1.023
172.338,17.13489,0.82345,0.01020887,1.02275
172.838,17.15033,0.82692,0.009734,1.0225
173.338,17.1658,0.82852,0.00864017,1.02225
173.838,17.18123,0.83137,0.00953943,1.022
174.338,17.19663,0.83409,0.01024116,1.02174
174.838,17.21203,0.83595,0.01075225,1.02149
175.338,17.2274,0.83996,0.01191675,1.02123
175.838,17.24276,0.84227,0.01081738,1.02098
176.338,17.258,0.84539,0.01193055,1.02072
176.838,17.27335,0.84685,0.01195523,1.02046
177.338,17.28862,0.84962,0.01196034,1.0202
177.838,17.30382,0.85055,0.0119602,1.01994
178.338,17.319,0.85459,0.01195976,1.01968
178.838,17.3342,0.85602,0.01195429,1.01942
179.338,17.34947,0.85519,0.01196739,1.01916
179.838,17.3646,0.86061,0.01237718,1.0189
180.338,17.37973,0.86368,0.01327893,1.01863
180.838,17.39487,0.86533,0.01328472,1.01837
181.338,17.41,0.86819,0.01328,1.0181
181.838,17.42509,0.87178,0.01280216,1.01783
182.338,17.44011,0.87374,0.01195786,1.01757
182.838,17.4552,0.87429,0.01243721,1.0173
183.338,17.47021,0.87883,0.01327088,1.01703
183.838,17.48527,0.88128,0.01326644,1.01676
184.338,17.50027,0.88241,0.01326883,1.01649
184.838,17.5153,0.88481,0.01336351,1.01622
185.338,17.53029,0.88712,0.01225604,1.01595
185.838,17.54524,0.88965,0.01194388,1.01567
186.338,17.56017,0.89147,0.01194995,1.0154
186.838,17.57506,0.89563,0.01194987,1.01513
187.338,17.59,0.89737,0.01195,1.01485
187.838,17.60489,0.90102,0.01196289,1.01457
188.338,17.61974,0.9019,0.01163723,1.0143
188.838,17.63459,0.90476,0.01013579,1.01402
189.338,17.6494,0.90581,0.00933578,1.01374
189.838,17.66421,0.90795,0.009333805,1.01346
190.338,17.67896,0.91235,0.0093298,1.01318
190.838,17.69368,0.91571,0.009329926,1.0129
191.338,17.70845,0.91947,0.009330006,1.01262
191.838,17.72321,0.91776,0.009330001,1.01233
192.338,17.73796,0.92368,0.00933,1.01205
192.838,17.75264,0.92496,0.00933002,1.01177
193.338,17.76735,0.92876,0.009329866,1.01148
193.838,17.7821,0.92823,0.009329165,1.0112
194.338,17.79676,0.92963,0.009337453,1.01091
194.838,17.81137,0.93147,0.009357225,1.01062
195.338,17.82602,0.93594,0.008717689,1.01033
195.838,17.84071,0.94035,0.00835381,1.01004
196.338,17.85535,0.94352,0.009224917,1.00975
196.838,17.87,0.94819,0.009650354,1.00946
197.338,17.88462,0.94861,0.009656839,1.00917
197.838,17.8993,0.95222,0.009649763,1.00888
198.338,17.91389,0.95462,0.00964986,1.00859
198.838,17.92849,0.95623,0.009650011,1.00829
199.338,17.94304,0.95989,0.009650001,1.008
199.838,17.95755,0.96234,0.009650012,1.0077
200.338,17.9721,0.96437,0.009650076,1.00741
200.838,17.98666,0.96913,0.009649318,1.00711
201.338,18.00122,0.9724,0.009647849,1.00681
201.838,18.01572,0.97439,0.009685672,1.00652
202.338,18.03024,0.9776,0.00931529,1.00622
202.838,18.04478,0.98111,0.009316567,1.00592
203.338,18.05929,0.98197,0.0093387,1.00562
203.838,18.07377,0.98485,0.00835437,1.00531
204.338,18.08822,0.98746,0.00798192,1.00501
204.838,18.10267,0.99048,0.00799652,1.00471
205.338,18.11712,0.99394,0.008000585,1.00441
205.838,18.13157,0.99776,0.00800005,1.0041
206.338,18.14604,0.99917,0.007999982,1.0038
206.838,18.1604,1.00308,0.007999997,1.00349
207.338,18.1749,1.00578,0.008000123,1.00318
207.838,18.1893,1.00907,0.007999819,1.00288
208.338,18.20378,1.01374,0.007994786,1.00257
208.838,18.21815,1.01522,0.008020072,1.00226
209.338,18.23245,1.01837,0.008192042,1.00195
209.838,18.24682,1.02287,0.009290944,1.00164
210.338,18.26119,1.02684,0.00931328,1.00133
210.838,18.27555,1.03155,0.009414649,1.00102
211.338,18.28988,1.03467,0.00835013,1.00071
211.838,18.30421,1.03792,0.00795966,1.00039
212.338,18.31857,1.04196,0.008551656,1.00008
212.838,18.33292,1.04498,0.009380041,0.99976
213.338,18.34722,1.04973,0.009322174,0.99945
213.838,18.36153,1.05312,0.00932932,0.99913
214.338,18.3758,1.05631,0.009330221,0.99882
214.838,18.39011,1.06081,0.009330001,0.9985
215.338,18.4044,1.06599,0.009330027,0.99818
215.838,18.41866,1.07071,0.009329913,0.99786
216.338,18.4329,1.0753,0.00932885,0.99754
216.838,18.44715,1.08025,0.009337016,0.99722
217.338,18.46142,1.08373,0.008868385,0.9969
217.838,18.47561,1.08757,0.007924084,0.99658
218.338,18.48985,1.09252,0.008011827,0.99626
218.838,18.50406,1.09784,0.00820832,0.99593
219.338,18.51835,1.10294,0.009255061,0.99561
219.838,18.53254,1.10741,0.009308135,0.99529
220.338,18.54678,1.11409,0.009315415,0.99496
220.838,18.561,1.1205,0.00974258,0.99464
221.338,18.5752,1.12351,0.01072955,0.99431
221.838,18.58946,1.12941,0.0106355,0.99398
222.338,18.60359,1.13524,0.01133252,0.99365
222.838,18.61777,1.14212,0.01199236,0.99333
223.338,18.6319,1.14908,0.01195559,0.993
223.838,18.64604,1.15416,0.01194694,0.99267
224.338,18.66017,1.16053,0.01194936,0.99234
224.838,18.67428,1.1677,0.01118598,0.992
225.338,18.68835,1.1746,0.01060662,0.99167
225.838,18.70251,1.18295,0.01060752,0.99134
226.338,18.71663,1.19133,0.01102762,0.99101
226.838,18.73079,1.19967,0.01197073,0.99067
227.338,18.7449,1.20736,0.0119351,0.99034
227.838,18.759,1.21543,0.01195441,0.99
228.338,18.77316,1.22665,0.01201697,0.98967
228.838,18.78728,1.23762,0.01119676,0.98933
229.338,18.80136,1.24443,0.01097752,0.98899
229.838,18.81546,1.25552,0.01095568,0.98866
230.338,18.82951,1.26557,0.01095771,0.98832
230.838,18.8436,1.27588,0.01085266,0.98798
231.338,18.85764,1.28583,0.01062373,0.98764
231.838,18.87164,1.29981,0.01063824,0.9873
232.338,18.88574,1.31261,0.01064055,0.98696
232.838,18.89977,1.32363,0.01063999,0.98661
233.338,18.9138,1.33874,0.01063996,0.98627
233.838,18.92786,1.35348,0.01064011,0.98593
234.338,18.9419,1.36863,0.01064068,0.98559
234.838,18.95593,1.38349,0.01063305,0.98524
235.338,18.9699,1.40332,0.01096381,0.9849
235.838,18.9839,1.41951,0.01205652,0.98455
236.338,18.99792,1.44113,0.0119495,0.9842
236.838,19.01195,1.46013,0.01195857,0.98386
237.338,19.02591,1.47983,0.0119599,0.98351
237.838,19.03989,1.50005,0.01196011,0.98316
238.338,19.05389,1.52482,0.01198017,0.98281
238.838,19.0679,1.54878,0.01187933,0.98246
239.338,19.0819,1.5731,0.0130825,0.98211
239.838,19.09584,1.60003,0.0132858,0.98176
240.338,19.1098,1.62918,0.01327991,0.98141
240.838,19.12363,1.65435,0.01327851,0.98106
241.338,19.13758,1.68516,0.01328618,0.98071
241.838,19.15156,1.71738,0.01330864,0.98036
242.338,19.16548,1.7486,0.01276326,0.98
242.838,19.1794,1.78096,0.01196277,0.97965
243.338,19.19334,1.81857,0.01196185,0.97929
243.838,19.2074,1.85631,0.01195974,0.97894
244.338,19.22136,1.89226,0.01195998,0.97858
244.838,19.2353,1.93236,0.01196003,0.97822
245.338,19.24924,1.97326,0.01195997,0.97787
245.838,19.26321,2.01281,0.01195931,0.97751
246.338,19.27717,2.05332,0.01196378,0.97715
246.838,19.29107,2.09129,0.01197086,0.97679
247.338,19.305,2.13531,0.01168337,0.97643
247.838,19.31895,2.17589,0.01070467,0.97607
248.338,19.33288,2.21371,0.009756374,0.97571
248.838,19.3468,2.2492,0.009283902,0.97535
249.338,19.36066,2.28007,0.009318605,0.97499
249.838,19.3746,2.30462,0.009321039,0.97463
250.338,19.3885,2.32457,0.009319925,0.97426
250.838,19.4024,2.33711,0.009320045,0.9739
251.338,19.41629,2.34125,0.009319508,0.97354
251.838,19.43018,2.33951,0.009319797,0.97317
252.338,19.44408,2.32514,0.009363096,0.97281
252.838,19.45799,2.301,0.01048912,0.97244
253.338,19.47184,2.2692,0.01062006,0.97207
253.838,19.48571,2.2328,0.01064591,0.97171
254.338,19.49956,2.18896,0.01063986,0.97134
254.838,19.5135,2.14037,0.01063986,0.97097
255.338,19.52725,2.08897,0.01064002,0.9706
255.838,19.54104,2.03924,0.01064,0.97023
256.338,19.55483,1.98853,0.01064001,0.96986
256.838,19.56861,1.93675,0.01063996,0.96949
257.338,19.58238,1.8885,0.01063958,0.96912
257.838,19.59605,1.84335,0.01064336,0.96875
258.338,19.60974,1.79959,0.0106382,0.96838
258.838,19.62349,1.75767,0.01049093,0.96801
259.338,19.63726,1.71833,0.009280256,0.96763
259.838,19.65096,1.68173,0.009125877,0.96726
260.338,19.6647,1.64913,0.008675234,0.96689
260.838,19.67844,1.61431,0.007701665,0.96651
261.338,19.69217,1.58125,0.007684066,0.96614
261.838,19.70591,1.54951,0.00767901,0.96576
262.338,19.7196,1.52117,0.007679975,0.96538
262.838,19.73333,1.49579,0.00767794,0.96501
263.338,19.74705,1.47454,0.007691221,0.96463
263.838,19.76073,1.45124,0.007701038,0.96425
264.338,19.77448,1.42884,0.008801038,0.96387
264.838,19.78816,1.40864,0.009001853,0.9635
265.338,19.80183,1.3923,0.00867341,0.96312
265.838,19.8155,1.37584,0.009551215,0.96274
266.338,19.82921,1.36227,0.009397554,0.96236
266.838,19.84292,1.34763,0.01060483,0.96198
267.338,19.85659,1.33536,0.01075533,0.96159
267.838,19.87025,1.32386,0.01075006,0.96121
268.338,19.88395,1.3148,0.01075123,0.96083
268.838,19.8977,1.3044,0.01074427,0.96045
269.338,19.9113,1.29595,0.01119764,0.96006
269.838,19.9249,1.28806,0.01212795,0.95968
270.338,19.9386,1.2824,0.01211182,0.9593
270.838,19.95223,1.27736,0.01089785,0.95891
271.338,19.9659,1.27171,0.01062447,0.95853
271.838,19.97952,1.26568,0.0084154,0.95814
272.338,19.99315,1.26061,0.007907165,0.95775
272.838,20.0068,1.25669,0.007898742,0.95737
273.338,20.02046,1.25366,0.007899964,0.95698
273.838,20.03408,1.24896,0.007900038,0.95659
274.338,20.0477,1.24538,0.007899994,0.9562
274.838,20.0614,1.24488,0.007899994,0.95581
275.338,20.07505,1.24327,0.007900064,0.95543
275.838,20.0887,1.24116,0.007899846,0.95504
276.338,20.10235,1.2387,0.007898349,0.95465
276.838,20.11598,1.23744,0.00798381,0.95426
277.338,20.12965,1.23396,0.0093065,0.95386
277.838,20.1433,1.23281,0.009303659,0.95347
278.338,20.15695,1.23314,0.009319727,0.95308
278.838,20.1706,1.23287,0.009700178,0.95269
279.338,20.18425,1.23123,0.01031932,0.95229
279.838,20.19792,1.23119,0.01081152,0.9519
280.338,20.2116,1.23066,0.01130008,0.95151
280.838,20.2252,1.23069,0.01129529,0.95111
281.338,20.23884,1.22802,0.01127054,0.95072
281.838,20.25251,1.22628,0.01165239,0.95032
282.338,20.26614,1.22553,0.01161264,0.94993
282.838,20.27976,1.22631,0.01162011,0.94953
283.338,20.2934,1.22732,0.01162054,0.94914
283.838,20.30706,1.22851,0.0116181,0.94874
284.338,20.32068,1.22742,0.01161667,0.94834
284.838,20.33432,1.2274,0.01084348,0.94794
285.338,20.34797,1.22619,0.01027181,0.94754
285.838,20.3615,1.22493,0.01030528,0.94715
286.338,20.37516,1.22493,0.01031167,0.94675
286.838,20.3888,1.22496,0.01030993,0.94635
287.338,20.40244,1.22581,0.0103104,0.94595
287.838,20.41609,1.22615,0.01030671,0.94555
288.338,20.42969,1.22536,0.01031212,0.94515
288.838,20.44333,1.22768,0.01044879,0.94474
289.338,20.45702,1.22714,0.01165769,0.94434
289.838,20.47069,1.22892,0.01184266,0.94394
290.338,20.48428,1.2278,0.01185563,0.94354
290.838,20.49792,1.2286,0.01184864,0.94313
291.338,20.51158,1.23145,0.01184603,0.94273
291.838,20.52521,1.2317,0.01189611,0.94233
292.338,20.5388,1.22957,0.01129702,0.94192
292.838,20.5524,1.22953,0.01036353,0.94152
293.338,20.56606,1.22945,0.01043331,0.94111
293.838,20.5797,1.22892,0.01041979,0.94071
294.338,20.59335,1.22837,0.01041967,0.9403
294.838,20.60696,1.22996,0.01042007,0.9399
295.338,20.62058,1.23272,0.01042003,0.93949
295.838,20.63427,1.2313,0.01041924,0.93908
296.338,20.64787,1.23193,0.01042285,0.93867
296.838,20.6615,1.23263,0.01043331,0.93827
297.338,20.6751,1.23263,0.01016806,0.93786
297.838,20.6887,1.23549,0.009061753,0.93745
298.338,20.7023,1.23506,0.009014882,0.93704
298.838,20.71586,1.23411,0.008996242,0.93663
299.338,20.7295,1.23452,0.009000111,0.93622
299.838,20.74307,1.23696,0.009000088,0.93581
300.338,20.75669,1.23877,0.00899997,0.9354
300.838,20.77029,1.23636,0.008999991,0.93499
301.338,20.78389,1.23827,0.00900053,0.93458
301.838,20.79753,1.23893,0.008997724,0.93417
302.338,20.81119,1.24141,0.008992221,0.93376
302.838,20.8248,1.23946,0.00915705,0.93334
303.338,20.83839,1.23797,0.0093414,0.93293
303.838,20.85203,1.23999,0.009335847,0.93252
304.338,20.86565,1.24038,0.009294329,0.9321
304.838,20.87927,1.24066,0.009642965,0.93169
305.338,20.89284,1.24092,0.009653544,0.93128
305.838,20.90646,1.24185,0.009645022,0.93086
306.338,20.92004,1.24128,0.009992437,0.93045
306.838,20.9337,1.2408,0.01071139,0.93003
307.338,20.94722,1.24274,0.01058178,0.92961
307.838,20.9608,1.24414,0.01136867,0.9292
308.338,20.9744,1.2453,0.01201122,0.92878
308.838,20.988,1.24346,0.01195453,0.92837
309.338,21.00158,1.24259,0.01195931,0.92795
309.838,21.0152,1.24404,0.01196018,0.92753
310.338,21.02879,1.24765,0.01196013,0.92711
310.838,21.04245,1.24812,0.01196171,0.9267
311.338,21.0561,1.24801,0.01194687,0.92628
311.838,21.06971,1.24975,0.01196792,0.92586
312.338,21.0834,1.2491,0.01099031,0.92544
312.838,21.097,1.24958,0.01049222,0.92502
313.338,21.11058,1.25157,0.01013967,0.9246
313.838,21.12415,1.25244,0.008882004,0.92418
314.338,21.13769,1.25301,0.008863645,0.92376
314.838,21.15127,1.25363,0.007393394,0.92334
315.338,21.16481,1.25299,0.007397771,0.92292
315.838,21.17835,1.25436,0.006542799,0.9225
316.338,21.19192,1.2553,0.00648238,0.92207
316.838,21.20553,1.25586,0.006466301,0.92165
317.338,21.21915,1.2559,0.00647023,0.92123
317.838,21.2328,1.25562,0.0064712,0.92081
318.338,21.24635,1.25647,0.00646241,0.92038
318.838,21.25999,1.25795,0.006470196,0.91996
319.338,21.27362,1.25767,0.00680619,0.91954
319.838,21.28727,1.25798,0.007982407,0.91911
320.338,21.30088,1.25837,0.008039078,0.91869
320.838,21.31448,1.25928,0.009025401,0.91827
321.338,21.3281,1.25868,0.009338667,0.91784
321.838,21.34175,1.25865,0.009322698,0.91742
322.338,21.35535,1.26052,0.00931913,0.91699
322.838,21.36895,1.2609,0.00932005,0.91656
323.338,21.38256,1.26034,0.009320017,0.91614
323.838,21.39623,1.26199,0.009319996,0.91571
324.338,21.40984,1.26109,0.00932,0.91529
324.838,21.4235,1.26241,0.00932,0.91486
325.338,21.4371,1.26412,0.00932,0.91443
325.838,21.4508,1.26252,0.00932,0.914
326.338,21.46444,1.26388,0.00932,0.91358
326.838,21.47806,1.26559,0.00932,0.91315
327.338,21.4917,1.26242,0.00932,0.91272
327.838,21.50534,1.26517,0.00932,0.91229
328.338,21.51902,1.26626,0.00932,0.91186
328.838,21.5326,1.26608,0.009320003,0.91143
329.338,21.5462,1.26459,0.009319977,0.91101
329.838,21.55987,1.26482,0.009320006,0.91058
330.338,21.5735,1.2669,0.009320838,0.91015
330.838,21.58716,1.26687,0.009315806,0.90972
331.338,21.60079,1.26644,0.009311301,0.90929
331.838,21.6144,1.26823,0.00957337,0.90885
332.338,21.62807,1.27144,0.01028439,0.90842
332.838,21.64169,1.2705,0.01030675,0.90799
333.338,21.65535,1.27168,0.01031155,0.90756
333.838,21.66901,1.27238,0.01030901,0.90713
334.338,21.68262,1.27238,0.01029005,0.9067
334.838,21.6963,1.27013,0.009310331,0.90627
335.338,21.70995,1.27107,0.008988934,0.90583
335.838,21.72362,1.27221,0.00891275,0.9054
336.338,21.73724,1.27248,0.009707158,0.90497
336.838,21.7509,1.27411,0.01031309,0.90453
337.338,21.76454,1.27514,0.0103084,0.9041
337.838,21.7782,1.27415,0.01030942,0.90367
338.338,21.79187,1.27656,0.01030497,0.90323
338.838,21.80552,1.27807,0.01036117,0.9028
339.338,21.8192,1.27717,0.009716585,0.90237
339.838,21.83289,1.2787,0.008940424,0.90193
340.338,21.84659,1.27892,0.00899953,0.9015
340.838,21.86016,1.27762,0.008990072,0.90106
341.338,21.87378,1.2813,0.008991986,0.90063
341.838,21.8874,1.28294,0.008979871,0.90019
342.338,21.90113,1.28427,0.008957173,0.89975
342.838,21.91481,1.28536,0.00780001,0.89932
343.338,21.9285,1.28555,0.007325022,0.89888
343.838,21.94219,1.28743,0.00734472,0.89845
344.338,21.95598,1.28587,0.00735134,0.89801
344.838,21.96967,1.28642,0.00734998,0.89757
345.338,21.98335,1.2845,0.007349968,0.89714
345.838,21.997,1.28633,0.007350004,0.8967
346.338,22.01071,1.287,0.00735,0.89626
346.838,22.02437,1.28885,0.00735006,0.89582
347.338,22.03805,1.29124,0.0073498,0.89539
347.838,22.05174,1.28833,0.007348819,0.89495
348.338,22.06546,1.28874,0.007362829,0.89451
348.838,22.07922,1.28805,0.00733056,0.89407
349.338,22.09291,1.28729,0.008273109,0.89363
349.838,22.10661,1.28867,0.00882662,0.89319
350.338,22.12037,1.29072,0.008783021,0.89276
350.838,22.13407,1.29251,0.00975816,0.89232
351.338,22.14779,1.29205,0.01011272,0.89188
351.838,22.1615,1.29155,0.0100925,0.89144
352.338,22.17524,1.29231,0.01008909,0.891
352.838,22.18897,1.29348,0.01009005,0.89056
353.338,22.2027,1.29224,0.01009002,0.89012
353.838,22.21645,1.29141,0.01009002,0.88968
354.338,22.23028,1.29344,0.01009001,0.88924
354.838,22.24403,1.29774,0.01008921,0.8888
355.338,22.25778,1.29668,0.01009317,0.88836
355.838,22.2715,1.29444,0.01010494,0.88791
356.338,22.28525,1.29597,0.00980901,0.88747
356.838,22.299,1.29577,0.00880563,0.88703
357.338,22.31277,1.29805,0.008783183,0.88659
357.838,22.32651,1.29792,0.00876737,0.88615
358.338,22.34025,1.29971,0.008769963,0.88571
358.838,22.35399,1.29876,0.008770014,0.88526
359.338,22.36776,1.3004,0.008770228,0.88482
359.838,22.38154,1.3024,0.00877113,0.88438
360.338,22.39529,1.30353,0.008708689,0.88394
360.838,22.40905,1.30341,0.007509423,0.8835
361.338,22.4228,1.3044,0.00723877,0.88305
361.838,22.43659,1.30653,0.00639611,0.88261
362.338,22.45042,1.30866,0.00647181,0.88217
362.838,22.46416,1.3086,0.006265066,0.88172
363.338,22.47796,1.30809,0.005233301,0.88128
363.838,22.4917,1.3092,0.005160129,0.88084
364.338,22.50551,1.31127,0.00514677,0.88039
364.838,22.51931,1.31038,0.00515012,0.87995
365.338,22.53306,1.31063,0.00515007,0.87951
365.838,22.5469,1.3141,0.005149988,0.87906
366.338,22.56073,1.31641,0.00515,0.87862
366.838,22.57457,1.31715,0.00515,0.87817
367.338,22.5884,1.31751,0.00515,0.87773
367.838,22.60224,1.3169,0.005150012,0.87728
368.338,22.61608,1.31802,0.005149904,0.87684
368.838,22.62996,1.32009,0.005150008,0.87639
369.338,22.64378,1.32107,0.005153788,0.87595
369.838,22.65762,1.32361,0.005133432,0.8755
370.338,22.6715,1.32319,0.005075878,0.87506
370.838,22.6853,1.323,0.004436972,0.87461
371.338,22.69912,1.32399,0.004502948,0.87417
371.838,22.71292,1.3259,0.004501291,0.87372
372.338,22.72674,1.32674,0.00449976,0.87328
372.838,22.74053,1.32771,0.004499992,0.87283
373.338,22.7544,1.32728,0.004500007,0.87238
373.838,22.76822,1.32727,0.004499999,0.87194
374.338,22.7821,1.3292,0.0045,0.87149
374.838,22.79597,1.33152,0.0045,0.87105
375.338,22.80985,1.33233,0.0045,0.8706
375.838,22.82374,1.33576,0.0045,0.87015
376.338,22.83764,1.33674,0.0045,0.86971
376.838,22.85151,1.33918,0.0045,0.86926
377.338,22.86538,1.33761,0.0045,0.86881
377.838,22.8793,1.34024,0.0045,0.86837
378.338,22.89316,1.34141,0.004500001,0.86792
378.838,22.90706,1.34148,0.004499994,0.86747
379.338,22.92095,1.3413,0.004499986,0.86702
379.838,22.93485,1.34419,0.004500274,0.86658
380.338,22.94874,1.34708,0.004499338,0.86613
380.838,22.96261,1.34929,0.0044859,0.86568
381.338,22.97653,1.35216,0.00341001,0.86524
381.838,22.99044,1.35209,0.00309073,0.86479
382.338,23.00434,1.356,0.002853618,0.86434
382.838,23.01826,1.35618,0.001829374,0.86389
383.338,23.03215,1.35699,0.001771756,0.86344
383.838,23.04606,1.35946,0.001757048,0.863
384.338,23.05997,1.3622,0.001760004,0.86255
384.838,23.07387,1.3619,0.00176007,0.8621
385.338,23.0878,1.36325,0.00175999,0.86165
385.838,23.10172,1.36591,0.001759999,0.8612
386.338,23.11565,1.3679,0.00176,0.86076
386.838,23.1296,1.37168,0.001760001,0.86031
387.338,23.14358,1.37493,0.00176003,0.85986
387.838,23.15754,1.37851,0.00175987,0.85941
388.338,23.17149,1.38404,0.00175943,0.85896
388.838,23.18543,1.38797,0.00176731,0.85851
389.338,23.19939,1.39207,0.001750911,0.85806
389.838,23.21337,1.3943,0.001453325,0.85762
390.338,23.22736,1.39638,0.0002464091,0.85717
390.838,23.24132,1.39952,0.0001740812,0.85672
391.338,23.25529,1.4047,-0.0008470866,0.85627
391.838,23.2693,1.40907,-0.001096525,0.85582
392.338,23.28325,1.41305,-0.00109042,0.85537
392.838,23.29724,1.42029,-0.001106842,0.85492
393.338,23.31118,1.42415,-0.001147195,0.85447
393.838,23.3251,1.42804,-0.00184007,0.85402
394.338,23.33915,1.43307,-0.00170579,0.85358
394.838,23.3532,1.43575,-0.002938108,0.85313
395.338,23.3672,1.44021,-0.003074147,0.85268
395.838,23.38117,1.44335,-0.003070223,0.85223
396.338,23.3952,1.44758,-0.003070977,0.85178
396.838,23.40925,1.45009,-0.00306834,0.85133
397.338,23.4233,1.45417,-0.003763119,0.85088
397.838,23.43727,1.45896,-0.004549015,0.85043
398.338,23.4513,1.46189,-0.004969617,0.84998
398.838,23.46535,1.46976,-0.00609396,0.84953
399.338,23.47937,1.47484,-0.006623088,0.84908
399.838,23.49338,1.47981,-0.007565694,0.84863
400.338,23.50742,1.48537,-0.00843619,0.84818
400.838,23.52143,1.4921,-0.009333367,0.84773
401.338,23.5355,1.49981,-0.01041124,0.84728
401.838,23.5496,1.50447,-0.01098167,0.84683
402.338,23.56361,1.50977,-0.01184984,0.84638
402.838,23.5777,1.51428,-0.01267209,0.84594
403.338,23.59173,1.52039,-0.01421196,0.84549
403.838,23.6058,1.52506,-0.01493136,0.84504
404.338,23.6199,1.52739,-0.01644582,0.84459
404.838,23.63393,1.53111,-0.01684247,0.84414
405.338,23.648,1.53497,-0.01813048,0.84369
405.838,23.66209,1.54165,-0.01920465,0.84324
406.338,23.67619,1.5481,-0.02047348,0.84279
406.838,23.69033,1.55497,-0.02174817,0.84234
407.338,23.7044,1.55853,-0.02300277,0.84189
407.838,23.71855,1.56002,-0.02442803,0.84144
408.338,23.7327,1.56472,-0.02643873,0.84099
408.838,23.74679,1.57054,-0.02824211,0.84054
409.338,23.7609,1.57729,-0.03118228,0.84009
409.838,23.77504,1.57746,-0.03262461,0.83964
410.338,23.7892,1.57944,-0.03512204,0.83919
410.838,23.80335,1.58791,-0.03622338,0.83874
411.338,23.81746,1.59294,-0.03732783,0.83829
411.838,23.83165,1.59934,-0.03899914,0.83784
412.338,23.8458,1.60742,-0.04086316,0.83739
412.838,23.85998,1.61545,-0.04233857,0.83694
413.338,23.87412,1.62109,-0.04440234,0.83649
413.838,23.88826,1.62658,-0.04556565,0.83604
414.338,23.9024,1.63623,-0.04766316,0.83559
414.838,23.91657,1.64677,-0.04979483,0.83514
415.338,23.93069,1.65825,-0.05163763,0.83469
415.838,23.94485,1.67145,-0.05466281,0.83425
416.338,23.95905,1.67985,-0.05734248,0.8338
416.838,23.9732,1.7,-0.06175541,0.83335
417.338,23.98744,1.71982,-0.06475599,0.8329
417.838,24.00166,1.72865,-0.06945201,0.83245
418.338,24.01588,1.73244,-0.07476091,0.832
418.838,24.0301,1.74156,-0.07910714,0.83155
419.338,24.04423,1.7515,-0.08432777,0.8311
419.838,24.0584,1.76338,-0.08877293,0.83065
420.338,24.07262,1.77126,-0.09312442,0.8302
420.838,24.08681,1.77995,-0.09921033,0.82975
421.338,24.10099,1.78476,-0.10427,0.8293
421.838,24.11519,1.79495,-0.11057,0.82885
422.338,24.1294,1.80053,-0.117,0.8284
422.838,24.1435,1.80927,-0.12133,0.82796
423.338,24.15776,1.81893,-0.12657,0.82751
423.838,24.17197,1.82868,-0.13327,0.82706
424.338,24.18617,1.84067,-0.13824,0.82661
424.838,24.20039,1.85023,-0.14467,0.82616
425.338,24.2147,1.8621,-0.15185,0.82571
425.838,24.2289,1.87405,-0.15757,0.82526
426.338,24.24315,1.88929,-0.16446,0.82481
426.838,24.2574,1.90379,-0.17071,0.82437
427.338,24.2716,1.92027,-0.17682,0.82392
427.838,24.2859,1.9362,-0.18519,0.82347
428.338,24.3001,1.94939,-0.19255,0.82302
428.838,24.31435,1.96494,-0.20003,0.82257
429.338,24.32862,1.98065,-0.20836,0.82212
429.838,24.3429,1.99615,-0.21438,0.82168
430.338,24.3571,2.0137,-0.22192,0.82123
430.838,24.3714,2.02731,-0.23162,0.82078
431.338,24.38566,2.04167,-0.23946,0.82033
431.838,24.39992,2.06064,-0.24893,0.81988
432.338,24.41424,2.07632,-0.25929,0.81944
432.838,24.42855,2.09426,-0.26735,0.81899
433.338,24.44285,2.11372,-0.27785,0.81854
433.838,24.45714,2.13275,-0.288,0.81809
434.338,24.47148,2.15336,-0.29708,0.81765
434.838,24.48582,2.17558,-0.30894,0.8172
435.338,24.50011,2.19434,-0.31982,0.81675
435.838,24.51444,2.21553,-0.33104,0.8163
436.338,24.5288,2.24075,-0.34446,0.81586
436.838,24.54315,2.26036,-0.35455,0.81541
437.338,24.5575,2.28537,-0.36604,0.81496
437.838,24.57183,2.31048,-0.38044,0.81452
438.338,24.58616,2.33541,-0.3917,0.81407
438.838,24.60049,2.36211,-0.40574,0.81362
439.338,24.61487,2.39166,-0.42131,0.81318
439.838,24.62924,2.41803,-0.43281,0.81273
440.338,24.6436,2.43959,-0.44787,0.81228
440.838,24.65794,2.46387,-0.46263,0.81184
441.338,24.67235,2.48894,-0.47717,0.81139
441.838,24.6868,2.52038,-0.49631,0.81094
442.338,24.70117,2.54375,-0.51165,0.8105
442.838,24.7156,2.5729,-0.52803,0.81005
443.338,24.73002,2.60243,-0.5479,0.80961
443.838,24.74447,2.63078,-0.56287,0.80916
444.338,24.75893,2.65611,-0.58088,0.80871
444.838,24.7732,2.68368,-0.60128,0.80827
445.338,24.78761,2.71108,-0.61749,0.80782
445.838,24.80207,2.74191,-0.6385,0.80738
446.338,24.8166,2.77262,-0.66026,0.80693
446.838,24.831,2.80318,-0.67948,0.80649
447.338,24.8455,2.82588,-0.70377,0.80604
447.838,24.86,2.86091,-0.72351,0.8056
448.338,24.8746,2.88889,-0.74487,0.80515
448.838,24.88905,2.91729,-0.77189,0.80471
449.338,24.90351,2.94727,-0.79206,0.80426
449.838,24.91796,2.97394,-0.81593,0.80382
450.338,24.9325,2.99892,-0.84448,0.80338
450.838,24.947,3.02267,-0.86656,0.80293
451.338,24.96151,3.0455,-0.8938,0.80249
451.838,24.97607,3.07147,-0.9213,0.80204
452.338,24.99057,3.09746,-0.94537,0.8016
452.838,25.0051,3.1222,-0.97698,0.80116
453.338,25.01969,3.13773,-1.00441,0.80071
453.838,25.03424,3.15941,-1.03271,0.80027
454.338,25.04885,3.17693,-1.06762,0.79983
454.838,25.06343,3.18806,-1.09323,0.79938
455.338,25.07801,3.20587,-1.12306,0.79894
455.838,25.09262,3.21173,-1.1584,0.7985
456.338,25.1072,3.21302,-1.18616,0.79806
456.838,25.1218,3.22282,-1.22107,0.79761
457.338,25.13631,3.23257,-1.25634,0.79717
457.838,25.1509,3.23507,-1.28689,0.79673
458.338,25.16545,3.23344,-1.32516,0.79629
458.838,25.17999,3.23223,-1.35724,0.79584
459.338,25.19461,3.23045,-1.39023,0.7954
459.838,25.2092,3.22936,-1.43098,0.79496
460.338,25.2238,3.2262,-1.4621,0.79452
460.838,25.2384,3.22665,-1.50269,0.79408
461.338,25.25303,3.22618,-1.53949,0.79364
461.838,25.26771,3.22978,-1.60363,0.7932
462.338,25.2823,3.23708,-1.64462,0.79276
462.838,25.297,3.24632,-1.67797,0.79231
463.338,25.31165,3.25629,-1.71227,0.79187
463.838,25.32627,3.2676,-1.74997,0.79143
464.338,25.34094,3.27815,-1.79468,0.79099
464.838,25.35555,3.28738,-1.83506,0.79055
465.338,25.3702,3.2937,-1.87559,0.79011
465.838,25.38484,3.29635,-1.91874,0.78967
466.338,25.39951,3.30318,-1.96236,0.78923
466.838,25.41412,3.30557,-2.0042,0.78879
467.338,25.4287,3.30635,-2.04632,0.78836
467.838,25.44341,3.30137,-2.09101,0.78792
468.338,25.45806,3.29395,-2.13453,0.78748
468.838,25.47271,3.28004,-2.17573,0.78704
469.338,25.48736,3.26319,-2.21901,0.7866
469.838,25.50204,3.24734,-2.26388,0.78616
470.338,25.51681,3.22817,-2.30773,0.78572
470.838,25.53154,3.19892,-2.34862,0.78529
471.338,25.5463,3.16774,-2.39074,0.78485
471.838,25.56103,3.13377,-2.433,0.78441
472.338,25.57574,3.09275,-2.47263,0.78397
472.838,25.59048,3.04855,-2.51089,0.78353
473.338,25.60515,3.00234,-2.55028,0.7831
473.838,25.61982,2.9504,-2.58859,0.78266
474.338,25.6345,2.89516,-2.62376,0.78222
474.838,25.6492,2.83752,-2.659,0.78179
475.338,25.66386,2.77693,-2.69651,0.78135
475.838,25.67855,2.7134,-2.73095,0.78091
476.338,25.69325,2.64456,-2.76434,0.78048
476.838,25.70794,2.57525,-2.79642,0.78004
477.338,25.72265,2.50042,-2.82027,0.77961
477.838,25.7374,2.42751,-2.84557,0.77917
478.338,25.75212,2.35181,-2.87611,0.77874
478.838,25.7668,2.27674,-2.898,0.7783
479.338,25.78152,2.19753,-2.92352,0.77787
479.838,25.79624,2.12213,-2.9476,0.77743
480.338,25.8109,2.04618,-2.96696,0.777
480.838,25.82554,1.97334,-2.98947,0.77656
481.338,25.84019,1.89851,-3.00758,0.77613
481.838,25.85492,1.82577,-3.02615,0.77569
482.338,25.8696,1.75532,-3.04692,0.77526
482.838,25.88428,1.68838,-3.06135,0.77483
483.338,25.89894,1.62173,-3.07668,0.77439
483.838,25.9136,1.55771,-3.09254,0.77396
484.338,25.92835,1.49608,-3.10419,0.77353
484.838,25.94302,1.43443,-3.11838,0.7731
485.338,25.9577,1.37778,-3.13111,0.77266
485.838,25.97241,1.32313,-3.14173,0.77223
486.338,25.98715,1.26875,-3.15276,0.7718
486.838,26.0019,1.21689,-3.16144,0.77137
487.338,26.0167,1.16936,-3.17084,0.77094
487.838,26.03136,1.12433,-3.18138,0.7705
488.338,26.04603,1.0778,-3.18879,0.77007
488.838,26.06063,1.0327,-3.19697,0.76964
489.338,26.07529,0.98926,-3.20494,0.76921
489.838,26.09,0.95104,-3.2115,0.76878
490.338,26.10475,0.91067,-3.21952,0.76835
490.838,26.11956,0.87364,-3.22635,0.76792
491.338,26.1344,0.83837,-3.23303,0.76749
491.838,26.14934,0.8005,-3.24061,0.76706
492.338,26.1642,0.76685,-3.24543,0.76663
492.838,26.17896,0.73453,-3.25069,0.7662
493.338,26.19368,0.70549,-3.25659,0.76577
493.838,26.2085,0.67433,-3.26164,0.76534
494.338,26.22327,0.64222,-3.26768,0.76492
494.838,26.23805,0.61383,-3.27362,0.76449
495.338,26.25289,0.58584,-3.27781,0.76406
495.838,26.2677,0.56072,-3.28296,0.76363
496.338,26.28255,0.53486,-3.28732,0.7632
496.838,26.29737,0.51005,-3.29139,0.76278
497.338,26.3122,0.48474,-3.29521,0.76235
497.838,26.32702,0.46067,-3.29751,0.76192
498.338,26.3418,0.43745,-3.30125,0.7615
498.838,26.35667,0.4158,-3.30546,0.76107
499.338,26.37153,0.39711,-3.30794,0.76064
499.838,26.38638,0.37622,-3.31014,0.76022
500.338,26.40121,0.35792,-3.31236,0.75979
500.838,26.4161,0.33846,-3.31384,0.75937
501.338,26.43103,0.32238,-3.31708,0.75894
501.838,26.4459,0.30425,-3.32045,0.75852
502.338,26.4608,0.28762,-3.32248,0.75809
502.838,26.47577,0.27253,-3.32502,0.75767
503.338,26.49073,0.25625,-3.32693,0.75724
503.838,26.5057,0.24348,-3.3301,0.75682
504.338,26.5206,0.23064,-3.33283,0.75639
504.838,26.53547,0.21949,-3.33549,0.75597
505.338,26.5504,0.20371,-3.33857,0.75555
505.838,26.56533,0.19074,-3.33983,0.75512
506.338,26.58022,0.17696,-3.34182,0.7547
506.838,26.59518,0.17084,-3.34327,0.75428
507.338,26.61017,0.15891,-3.34467,0.75386
507.838,26.6251,0.14812,-3.34677,0.75344
508.338,26.6401,0.13755,-3.34828,0.75301
508.838,26.65502,0.12809,-3.35019,0.75259
509.338,26.67006,0.12017,-3.35212,0.75217
509.838,26.685,0.1117,-3.35347,0.75175
510.338,26.69988,0.10611,-3.35485,0.75133
510.838,26.7148,0.09850388,-3.35684,0.75091
511.338,26.72972,0.08992579,-3.35865,0.75049
511.838,26.7446,0.08179791,-3.3605,0.75007
512.338,26.7595,0.07730244,-3.36269,0.74965
512.838,26.7744,0.07272227,-3.364,0.74923
513.338,26.78946,0.06744962,-3.36589,0.74881
513.838,26.80449,0.06303725,-3.36814,0.74839
514.338,26.8195,0.05753311,-3.36961,0.74797
514.838,26.8345,0.05353138,-3.3713,0.74756
515.338,26.8495,0.05156698,-3.37225,0.74714
515.838,26.8646,0.04568765,-3.37338,0.74672
516.338,26.8796,0.04272099,-3.3749,0.7463
516.838,26.89459,0.0370497,-3.3754,0.74588
517.338,26.9096,0.03763592,-3.37657,0.74547
517.838,26.92465,0.03292312,-3.37648,0.74505
518.338,26.93972,0.0281157,-3.37753,0.74463
518.838,26.95471,0.02700138,-3.37803,0.74422
519.338,26.9698,0.0240576,-3.37974,0.7438
519.838,26.98483,0.02099376,-3.38024,0.74339
520.338,26.99987,0.01877364,-3.38151,0.74297
520.838,27.015,0.01732495,-3.38155,0.74256
521.338,27.03,0.01492655,-3.38294,0.74214
521.838,27.04505,0.01527448,-3.38355,0.74173
522.338,27.0601,0.01324576,-3.38492,0.74131
522.838,27.07514,0.01241314,-3.3867,0.7409
523.338,27.0902,0.01010415,-3.38822,0.74049
523.838,27.1052,0.00892466,-3.38879,0.74007
524.338,27.1203,0.003543513,-3.39052,0.73966
524.838,27.13543,0.004367627,-3.39117,0.73925
525.338,27.15049,0.005356585,-3.39242,0.73884
525.838,27.1656,0.00501837,-3.39402,0.73842
526.338,27.1807,0.003785246,-3.39595,0.73801
526.838,27.19582,0.001220784,-3.39728,0.7376
527.338,27.21084,-0.001357748,-3.39841,0.73719
527.838,27.22591,-0.002825733,-3.39956,0.73678
528.338,27.241,-0.004488471,-3.40004,0.73637
528.838,27.2562,-0.00567132,-3.40104,0.73596
529.338,27.2713,-0.006053359,-3.40134,0.73555
529.838,27.2865,-0.00596623,-3.40136,0.73514
530.338,27.30162,-0.006794218,-3.40136,0.73473
530.838,27.3168,-0.00892677,-3.40136,0.73432
531.338,27.33189,-0.01087393,-3.40136,0.73391
531.838,27.34708,-0.01072516,-3.40271,0.7335
532.338,27.3622,-0.01170678,-3.40316,0.73309
532.838,27.37743,-0.013532,-3.40459,0.73268
533.338,27.39263,-0.01302285,-3.40531,0.73228
533.838,27.4078,-0.01346604,-3.40638,0.73187
534.338,27.423,-0.01444908,-3.40655,0.73146
534.838,27.43818,-0.01463659,-3.4077,0.73105
535.338,27.45337,-0.01486946,-3.40787,0.73065
535.838,27.4686,-0.01711403,-3.40898,0.73024
536.338,27.48378,-0.01910178,-3.40899,0.72984
536.838,27.499,-0.01845716,-3.40961,0.72943
537.338,27.5142,-0.01795692,-3.41049,0.72903
537.838,27.5294,-0.01815167,-3.41107,0.72862
538.338,27.5446,-0.0182434,-3.41183,0.72822
538.838,27.55977,-0.01888566,-3.41178,0.72781
539.338,27.57497,-0.01965098,-3.41178,0.72741
539.838,27.59018,-0.02015312,-3.41178,0.727
540.338,27.6054,-0.01881657,-3.41207,0.7266
540.838,27.6206,-0.01789716,-3.41312,0.7262
541.338,27.63575,-0.01786622,-3.41314,0.72579
541.838,27.65093,-0.01921324,-3.4148,0.72539
542.338,27.6661,-0.01911589,-3.41479,0.72499
542.838,27.68132,-0.01879956,-3.41635,0.72459
543.338,27.6965,-0.01988806,-3.41626,0.72419
543.838,27.7118,-0.02279554,-3.41628,0.72379
544.338,27.72703,-0.01922758,-3.41628,0.72338
544.838,27.7423,-0.02001748,-3.4163,0.72298
545.338,27.75755,-0.0200413,-3.41741,0.72258
545.838,27.77283,-0.01937513,-3.41755,0.72218
546.338,27.7881,-0.02047234,-3.41807,0.72178
546.838,27.8034,-0.02118141,-3.41917,0.72138
547.338,27.8186,-0.02129538,-3.41967,0.72099
547.838,27.8339,-0.02152119,-3.4205,0.72059
548.338,27.8492,-0.02111234,-3.42045,0.72019
548.838,27.86443,-0.01965694,-3.42129,0.71979
549.338,27.8797,-0.02008451,-3.42188,0.71939
549.838,27.8949,-0.0204726,-3.42283,0.719
550.338,27.91021,-0.02213593,-3.42341,0.7186
550.838,27.9255,-0.02075378,-3.42344,0.7182
551.338,27.9408,-0.01708176,-3.42346,0.71781
551.838,27.9561,-0.01867178,-3.42469,0.71741
552.338,27.97137,-0.01938416,-3.42521,0.71701
552.838,27.98667,-0.0207316,-3.42629,0.71662
553.338,28.00198,-0.02208927,-3.42711,0.71622
553.838,28.01728,-0.02170247,-3.42772,0.71583
554.338,28.03262,-0.02261414,-3.42769,0.71543
554.838,28.04797,-0.02374497,-3.42769,0.71504
555.338,28.06328,-0.02171328,-3.42769,0.71465
555.838,28.07863,-0.02379166,-3.42769,0.71425
556.338,28.09395,-0.02340889,-3.4277,0.71386
556.838,28.1093,-0.02329081,-3.42767,0.71347
557.338,28.12455,-0.02346261,-3.42876,0.71308
557.838,28.13986,-0.0240799,-3.42911,0.71268
558.338,28.15525,-0.02329082,-3.42902,0.71229
558.838,28.1706,-0.02486454,-3.43015,0.7119
559.338,28.186,-0.02434079,-3.43046,0.71151
559.838,28.2013,-0.02091589,-3.43052,0.71112
560.338,28.2167,-0.02139586,-3.43183,0.71073
560.838,28.23204,-0.02236355,-3.43204,0.71034
561.338,28.24735,-0.02263852,-3.43346,0.70995
561.838,28.2627,-0.0225459,-3.43346,0.70956
562.338,28.278,-0.02130357,-3.43402,0.70917
562.838,28.2933,-0.02404455,-3.43451,0.70878
563.338,28.3087,-0.02067076,-3.43449,0.70839
563.838,28.324,-0.02321107,-3.4345,0.70801
564.338,28.33935,-0.02282732,-3.43448,0.70762
564.838,28.3548,-0.02289663,-3.43481,0.70723
565.338,28.37016,-0.02374582,-3.4356,0.70684
565.838,28.38557,-0.02271974,-3.43659,0.70646
566.338,28.40097,-0.02196347,-3.43732,0.70607
566.838,28.41641,-0.0213841,-3.43804,0.70568
567.338,28.43184,-0.02305862,-3.43797,0.7053
567.838,28.4472,-0.02464536,-3.43878,0.70491
568.338,28.4626,-0.02318758,-3.43956,0.70453
568.838,28.478,-0.02342821,-3.43945,0.70415
569.338,28.49345,-0.02313224,-3.44073,0.70376
569.838,28.50887,-0.02387306,-3.44085,0.70338
570.338,28.52429,-0.02375377,-3.44087,0.70299
570.838,28.5397,-0.02360305,-3.44083,0.70261
571.338,28.5552,-0.02723638,-3.44211,0.70223
571.838,28.5706,-0.02645117,-3.44217,0.70185
572.338,28.58602,-0.02656718,-3.44217,0.70146
572.838,28.60146,-0.02649895,-3.44217,0.70108
573.338,28.61688,-0.02461517,-3.44217,0.7007
573.838,28.6323,-0.0248752,-3.44219,0.70032
574.338,28.6477,-0.02687111,-3.4433,0.69994
574.838,28.6631,-0.02740595,-3.44346,0.69956
575.338,28.67855,-0.02601282,-3.44348,0.69918
575.838,28.69401,-0.02680244,-3.44431,0.6988
576.338,28.70947,-0.02708374,-3.44504,0.69842
576.838,28.7248,-0.03065639,-3.44528,0.69804
577.338,28.74029,-0.03020423,-3.44634,0.69766
577.838,28.75573,-0.03112452,-3.44632,0.69729
578.338,28.77125,-0.03162527,-3.44633,0.69691
578.838,28.78674,-0.03310701,-3.44634,0.69653
579.338,28.80224,-0.03284196,-3.44638,0.69615
579.838,28.81785,-0.03418621,-3.44552,0.69578
580.338,28.8334,-0.03534893,-3.44531,0.6954
580.838,28.84885,-0.03585636,-3.44623,0.69502
581.338,28.8643,-0.03517836,-3.44668,0.69465
581.838,28.8798,-0.03474917,-3.44667,0.69427
582.338,28.8953,-0.03581751,-3.44657,0.6939
582.838,28.9108,-0.03403216,-3.44785,0.69352
583.338,28.9264,-0.03562637,-3.44821,0.69315
583.838,28.94189,-0.03526902,-3.44872,0.69278
584.338,28.9574,-0.03525107,-3.44972,0.6924
584.838,28.97294,-0.03557993,-3.45093,0.69203
585.338,28.9884,-0.03435878,-3.45082,0.69166
585.838,29.0039,-0.03617704,-3.45156,0.69129
586.338,29.01935,-0.03698948,-3.45216,0.69091
586.838,29.0348,-0.03610653,-3.45206,0.69054
587.338,29.05035,-0.03520235,-3.45328,0.69017
587.838,29.0658,-0.0368479,-3.45368,0.6898
588.338,29.08137,-0.0381766,-3.45414,0.68943
588.838,29.0969,-0.03638725,-3.45506,0.68906
589.338,29.1124,-0.03823746,-3.455,0.68869
589.838,29.128,-0.03799757,-3.45519,0.68832
590.338,29.14345,-0.03640747,-3.45642,0.68795
590.838,29.15895,-0.03853186,-3.45632,0.68758
591.338,29.1744,-0.03898494,-3.45632,0.68721
591.838,29.18993,-0.04110295,-3.45632,0.68685
592.338,29.2055,-0.04122535,-3.45631,0.68648
592.838,29.221,-0.04231028,-3.4563,0.68611
593.338,29.23658,-0.04192451,-3.45695,0.68575
593.838,29.25214,-0.03979421,-3.45764,0.68538
594.338,29.26772,-0.03909993,-3.45763,0.68501
594.838,29.28332,-0.03822699,-3.45766,0.68465
595.338,29.2989,-0.03981545,-3.45888,0.68428
595.838,29.3145,-0.04159359,-3.45893,0.68392
596.338,29.33,-0.04208366,-3.45895,0.68355
596.838,29.3456,-0.04233712,-3.45988,0.68319
597.338,29.3612,-0.04118812,-3.46025,0.68283
597.838,29.3768,-0.03989125,-3.46027,0.68246
598.338,29.3924,-0.04077025,-3.46027,0.6821
598.838,29.408,-0.04341677,-3.46028,0.68174
599.338,29.4236,-0.04419446,-3.46044,0.68138
599.838,29.4392,-0.04439466,-3.46155,0.68101
600.338,29.45481,-0.04549761,-3.46147,0.68065
600.838,29.47042,-0.04569847,-3.46272,0.68029
601.338,29.48606,-0.04764967,-3.46304,0.67993
601.838,29.50165,-0.04949512,-3.46423,0.67957
602.338,29.51724,-0.05276926,-3.46454,0.67921
602.838,29.5328,-0.05422464,-3.46515,0.67885
603.338,29.5484,-0.05297,-3.46589,0.67849
603.838,29.56405,-0.05363191,-3.46583,0.67813
604.338,29.57967,-0.055588,-3.46649,0.67777
604.838,29.59532,-0.05540045,-3.46723,0.67742
605.338,29.611,-0.05791289,-3.46718,0.67706
605.838,29.62667,-0.0583719,-3.46838,0.6767
606.338,29.6424,-0.05964671,-3.46823,0.67634
606.838,29.658,-0.05934142,-3.46853,0.67599
607.338,29.6737,-0.05975406,-3.46956,0.67563
607.838,29.6894,-0.06178003,-3.46945,0.67528
608.338,29.7051,-0.06485391,-3.47072,0.67492
608.838,29.72073,-0.06532536,-3.47079,0.67457
609.338,29.73638,-0.06316361,-3.47079,0.67421
609.838,29.75204,-0.06772182,-3.47079,0.67386
610.338,29.76768,-0.06795936,-3.4708,0.6735
610.838,29.78335,-0.0699409,-3.47012,0.67315
611.338,29.799,-0.07029899,-3.46946,0.6728
611.838,29.8146,-0.07029559,-3.46947,0.67245
612.338,29.83036,-0.07448832,-3.46948,0.67209
612.838,29.84605,-0.07286456,-3.46951,0.67174
613.338,29.86174,-0.0756263,-3.46961,0.67139
613.838,29.87745,-0.07554851,-3.47078,0.67104
614.338,29.8932,-0.07444636,-3.47081,0.67069
614.838,29.909,-0.07467356,-3.47078,0.67034
615.338,29.9247,-0.07430863,-3.47193,0.66999
615.838,29.9404,-0.07528372,-3.47232,0.66964
616.338,29.95615,-0.07554524,-3.47282,0.66929
616.838,29.9719,-0.07551828,-3.47226,0.66894
617.338,29.98753,-0.07951354,-3.47234,0.66859
617.738,29.99997,-0.0796711,-3.47233,0.66831