File: 01_Data/PETG/STA/N2/30K_min/PETG_STA_N2_30KData_210902_R3.csv
##Temp./Â°C,Time/min,DSC(subtr.2)/(mW/mg),Mass loss(subtr.2)/mg,Sensit./(uV/mW)
49.377,10.01,-0.007547204,-0.00208,1.05401
49.877,10.98119,0.01536952,-0.00503331,1.05402
50.377,11.1914,0.03389095,-0.00870459,1.05403
50.877,11.337,0.05020793,-0.00957414,1.05404
51.377,11.44881,0.06513237,-0.008321857,1.05404
51.877,11.54388,0.07882067,-0.00841227,1.05405
52.377,11.62776,0.09047891,-0.006614757,1.05406
52.877,11.70237,0.10543,-0.00366356,1.05406
53.377,11.77015,0.11614,-0.009304172,1.05406
53.877,11.83395,0.12505,-0.01507588,1.05406
54.377,11.89281,0.13538,-0.01052891,1.05406
54.877,11.9484,0.14511,-0.002487851,1.05406
55.377,12.0021,0.156,-0.004290018,1.05406
55.877,12.05246,0.16376,-0.008292615,1.05405
56.377,12.10091,0.17289,-0.01268804,1.05405
56.877,12.14745,0.18113,-0.01287558,1.05404
57.377,12.19241,0.18928,-0.01160552,1.05404
57.877,12.2361,0.19723,-0.00891092,1.05403
58.377,12.27885,0.20487,-0.01048048,1.05402
58.877,12.32039,0.21171,-0.01213332,1.05401
59.377,12.36097,0.21927,-0.006686295,1.05399
59.877,12.40082,0.22619,-0.001981703,1.05398
60.377,12.4391,0.23258,-0.002409434,1.05397
60.877,12.47687,0.23779,-0.008179185,1.05395
61.377,12.51383,0.2431,-0.0133331,1.05393
61.877,12.55057,0.24878,-0.01602111,1.05391
62.377,12.58647,0.25587,-0.01595121,1.05389
62.877,12.622,0.26222,-0.01454534,1.05387
63.377,12.65675,0.26694,-0.0117059,1.05385
63.877,12.6914,0.2727,-0.008191398,1.05383
64.377,12.72545,0.2789,-0.004138315,1.0538
64.877,12.75895,0.2841,-0.00382277,1.05378
65.377,12.79209,0.28765,-0.004017789,1.05375
65.877,12.82436,0.29143,-0.006035405,1.05372
66.377,12.85655,0.30029,-0.00830736,1.05369
66.877,12.88843,0.30346,-0.007509516,1.05366
67.377,12.9209,0.30969,-0.003394582,1.05363
67.877,12.95252,0.31507,-0.0005693194,1.0536
68.377,12.98358,0.31888,-0.003289136,1.05357
68.877,13.0146,0.32337,-0.008458791,1.05353
69.377,13.04532,0.32897,-0.009350419,1.05349
69.877,13.07583,0.33459,-0.00966171,1.05346
70.377,13.1058,0.33657,-0.01014238,1.05342
70.877,13.1357,0.34146,-0.01125629,1.05338
71.377,13.16536,0.34553,-0.01115647,1.05334
71.877,13.19479,0.35147,-0.01002489,1.0533
72.377,13.22381,0.3544,-0.008178589,1.05325
72.877,13.25273,0.35793,-0.00683266,1.05321
73.377,13.28139,0.36259,-0.005792933,1.05316
73.877,13.3101,0.36653,-0.005041149,1.05311
74.377,13.3386,0.36906,-0.00362717,1.05307
74.877,13.36713,0.37263,-0.004796349,1.05302
75.377,13.39525,0.3757,-0.005971243,1.05297
75.877,13.4232,0.37622,-0.006731826,1.05291
76.377,13.45079,0.37657,-0.007620794,1.05286
76.877,13.47824,0.37776,-0.00755516,1.05281
77.377,13.5055,0.37849,-0.00887217,1.05275
77.877,13.5326,0.37893,-0.009795681,1.0527
78.377,13.55971,0.38008,-0.01051279,1.05264
78.877,13.5865,0.38004,-0.009619854,1.05258
79.377,13.61325,0.38024,-0.00916734,1.05252
79.877,13.63979,0.38049,-0.01029807,1.05246
80.377,13.6663,0.37908,-0.01128639,1.0524
80.877,13.6925,0.37934,-0.01361881,1.05233
81.377,13.7186,0.37803,-0.01531375,1.05227
81.877,13.74446,0.37675,-0.01722634,1.0522
82.377,13.77015,0.37651,-0.01721005,1.05214
82.877,13.7958,0.37673,-0.01725621,1.05207
83.377,13.82121,0.37521,-0.018655,1.052
83.877,13.8461,0.37576,-0.01858787,1.05193
84.377,13.871,0.37638,-0.01872404,1.05186
84.877,13.89589,0.37871,-0.01645278,1.05179
85.377,13.92066,0.37768,-0.01594335,1.05171
85.877,13.94556,0.37867,-0.01593585,1.05164
86.377,13.9701,0.37911,-0.01381593,1.05156
86.877,13.99431,0.37908,-0.01249414,1.05148
87.377,14.01847,0.38197,-0.01102417,1.05141
87.877,14.04243,0.38368,-0.00987434,1.05133
88.377,14.0662,0.38145,-0.009791269,1.05125
88.877,14.0899,0.38301,-0.009433539,1.05116
89.377,14.1135,0.38543,-0.01096408,1.05108
89.877,14.137,0.3873,-0.0101668,1.051
90.377,14.16044,0.38798,-0.00932088,1.05091
90.877,14.1838,0.38818,-0.008564597,1.05083
91.377,14.2068,0.38868,-0.008415866,1.05074
91.877,14.22974,0.39194,-0.00911133,1.05065
92.377,14.25249,0.39405,-0.0076005,1.05056
92.877,14.2752,0.39438,-0.007890031,1.05047
93.377,14.29786,0.39716,-0.00748811,1.05038
93.877,14.3205,0.39602,-0.008875645,1.05028
94.377,14.343,0.39689,-0.009402338,1.05019
94.877,14.36534,0.39918,-0.01047683,1.05009
95.377,14.38751,0.39925,-0.01214398,1.05
95.877,14.40947,0.39986,-0.01138647,1.0499
96.377,14.4315,0.40166,-0.01235488,1.0498
96.877,14.4533,0.40342,-0.01097183,1.0497
97.377,14.47521,0.40513,-0.01238983,1.0496
97.877,14.4971,0.40537,-0.01210253,1.0495
98.377,14.5188,0.40689,-0.01243671,1.0494
98.877,14.5403,0.41013,-0.0125143,1.04929
99.377,14.56175,0.41217,-0.01281333,1.04919
99.877,14.58295,0.41464,-0.01243771,1.04908
100.377,14.60409,0.41705,-0.0121888,1.04897
100.877,14.62529,0.41742,-0.01238132,1.04886
101.377,14.6464,0.42052,-0.01238912,1.04875
101.877,14.6674,0.42301,-0.01238534,1.04864
102.377,14.6883,0.42475,-0.01233871,1.04853
102.877,14.709,0.42803,-0.01298524,1.04842
103.377,14.7297,0.43076,-0.01332939,1.04831
103.877,14.7502,0.43329,-0.0132629,1.04819
104.377,14.7705,0.43633,-0.01455342,1.04807
104.877,14.791,0.43973,-0.01411988,1.04796
105.377,14.81148,0.44326,-0.01333164,1.04784
105.877,14.83195,0.44666,-0.01424865,1.04772
106.377,14.85251,0.44893,-0.0136198,1.0476
106.877,14.87285,0.45259,-0.01356779,1.04748
107.377,14.893,0.45741,-0.01399744,1.04735
107.877,14.91298,0.46213,-0.0133945,1.04723
108.377,14.933,0.46432,-0.01283426,1.0471
108.877,14.9528,0.46821,-0.01182015,1.04698
109.377,14.9725,0.47308,-0.01270858,1.04685
109.877,14.99211,0.47683,-0.01241678,1.04672
110.377,15.0119,0.48103,-0.01271067,1.04659
110.877,15.03169,0.48554,-0.01272174,1.04646
111.377,15.05158,0.4867,-0.01224165,1.04633
111.877,15.0714,0.49392,-0.01141728,1.0462
112.377,15.0909,0.49725,-0.01140783,1.04606
112.877,15.11024,0.50376,-0.01071601,1.04593
113.377,15.1296,0.50802,-0.009885986,1.04579
113.877,15.1489,0.51158,-0.008450021,1.04566
114.377,15.16823,0.51563,-0.008386457,1.04552
114.877,15.1876,0.51943,-0.009004357,1.04538
115.377,15.20685,0.52502,-0.008958997,1.04524
115.877,15.22595,0.53017,-0.00893132,1.0451
116.377,15.24506,0.53226,-0.009983946,1.04496
116.877,15.2641,0.53768,-0.0102478,1.04481
117.377,15.28289,0.54098,-0.01101904,1.04467
117.877,15.3017,0.54497,-0.01100483,1.04452
118.377,15.32039,0.55003,-0.01273629,1.04438
118.877,15.3391,0.55419,-0.01421426,1.04423
119.377,15.3577,0.55702,-0.01356347,1.04408
119.877,15.37655,0.5622,-0.0146612,1.04393
120.377,15.3954,0.56601,-0.01501258,1.04378
120.877,15.4142,0.56996,-0.01446941,1.04363
121.377,15.43281,0.57377,-0.01435617,1.04348
121.877,15.4514,0.57815,-0.01314922,1.04332
122.377,15.4699,0.58263,-0.01447959,1.04317
122.877,15.48826,0.58527,-0.01306706,1.04301
123.377,15.50659,0.59017,-0.01305118,1.04286
123.877,15.5249,0.59336,-0.01303742,1.0427
124.377,15.5431,0.59912,-0.01291027,1.04254
124.877,15.56126,0.60279,-0.01171049,1.04238
125.377,15.57937,0.60734,-0.01173747,1.04222
125.877,15.5975,0.61128,-0.01130918,1.04206
126.377,15.6155,0.61581,-0.0105319,1.0419
126.877,15.6336,0.61984,-0.01194668,1.04173
127.377,15.6516,0.6246,-0.01154308,1.04157
127.877,15.66947,0.62731,-0.01195847,1.0414
128.377,15.68733,0.62958,-0.01186012,1.04123
128.877,15.70524,0.63281,-0.01126187,1.04107
129.377,15.723,0.63726,-0.01170349,1.0409
129.877,15.7408,0.64115,-0.01090765,1.04073
130.377,15.7586,0.64526,-0.01150608,1.04055
130.877,15.77629,0.64971,-0.01148961,1.04038
131.377,15.79388,0.65222,-0.01020122,1.04021
131.877,15.81149,0.656,-0.01029579,1.04004
132.377,15.829,0.65913,-0.01029687,1.03986
132.877,15.8465,0.66267,-0.01020228,1.03968
133.377,15.86396,0.66617,-0.01176256,1.03951
133.877,15.8814,0.66955,-0.01074875,1.03933
134.377,15.8988,0.67464,-0.01186969,1.03915
134.877,15.9161,0.67719,-0.01204757,1.03897
135.377,15.93346,0.68097,-0.0109152,1.03879
135.877,15.95071,0.683,-0.0119695,1.03861
136.377,15.9679,0.68887,-0.01195136,1.03842
136.877,15.9851,0.69064,-0.01110151,1.03824
137.377,16.00231,0.69412,-0.01082986,1.03805
137.877,16.01943,0.69652,-0.01194672,1.03787
138.377,16.03646,0.69989,-0.01194829,1.03768
138.877,16.05351,0.70327,-0.01194979,1.03749
139.377,16.07057,0.70556,-0.01194992,1.0373
139.877,16.0875,0.70737,-0.01195256,1.03711
140.377,16.10448,0.71195,-0.01198427,1.03692
140.877,16.1214,0.71754,-0.01162795,1.03673
141.377,16.13842,0.71934,-0.01188364,1.03654
141.877,16.15527,0.72262,-0.01070643,1.03634
142.377,16.17205,0.7256,-0.01041427,1.03615
142.877,16.18881,0.72868,-0.01046022,1.03595
143.377,16.20559,0.72957,-0.009057809,1.03576
143.877,16.22224,0.73309,-0.01028752,1.03556
144.377,16.2389,0.7373,-0.009532612,1.03536
144.877,16.25558,0.74118,-0.009121515,1.03516
145.377,16.2723,0.74468,-0.00928553,1.03496
145.877,16.2889,0.74732,-0.01041297,1.03476
146.377,16.30547,0.74984,-0.00960797,1.03455
146.877,16.322,0.75274,-0.01072737,1.03435
147.377,16.33856,0.75495,-0.009543526,1.03415
147.877,16.3551,0.75761,-0.009875248,1.03394
148.377,16.3716,0.76065,-0.01170591,1.03373
148.877,16.38801,0.76417,-0.01267207,1.03353
149.377,16.40446,0.76562,-0.0145189,1.03332
149.877,16.4209,0.76745,-0.01641936,1.03311
150.377,16.43722,0.77032,-0.01774035,1.0329
150.877,16.4536,0.77343,-0.01803081,1.03269
151.377,16.46988,0.77659,-0.01810992,1.03247
151.877,16.48616,0.77766,-0.0170426,1.03226
152.377,16.50246,0.7811,-0.01770865,1.03205
152.877,16.51867,0.78221,-0.01678252,1.03183
153.377,16.53494,0.78748,-0.01637586,1.03162
153.877,16.55121,0.79082,-0.01555543,1.0314
154.377,16.5673,0.79301,-0.01481128,1.03118
154.877,16.58344,0.79564,-0.01438909,1.03096
155.377,16.59957,0.79854,-0.01330296,1.03074
155.877,16.6157,0.80285,-0.01396713,1.03052
156.377,16.63176,0.80596,-0.01331343,1.0303
156.877,16.64775,0.80761,-0.01273067,1.03008
157.377,16.66388,0.81061,-0.01162899,1.02985
157.877,16.6799,0.81262,-0.01183227,1.02963
158.377,16.69594,0.81402,-0.01191304,1.02941
158.877,16.71186,0.8163,-0.01301717,1.02918
159.377,16.72777,0.82005,-0.01316922,1.02895
159.877,16.7436,0.82396,-0.01545482,1.02872
160.377,16.75949,0.82516,-0.01624022,1.02849
160.877,16.77541,0.82906,-0.01628353,1.02827
161.377,16.7913,0.82931,-0.01529188,1.02803
161.877,16.80722,0.83242,-0.01535545,1.0278
162.377,16.82307,0.83606,-0.01461135,1.02757
162.877,16.83899,0.83838,-0.01366691,1.02734
163.377,16.85475,0.84235,-0.01369921,1.0271
163.877,16.87044,0.84297,-0.01202985,1.02687
164.377,16.88625,0.84747,-0.01210337,1.02663
164.877,16.90198,0.8513,-0.01207254,1.02639
165.377,16.91773,0.8534,-0.01206971,1.02616
165.877,16.93344,0.85563,-0.01207102,1.02592
166.377,16.94916,0.85661,-0.01206751,1.02568
166.877,16.96483,0.86152,-0.01289723,1.02544
167.377,16.98046,0.86343,-0.01337343,1.0252
167.877,16.99606,0.86603,-0.01338552,1.02495
168.377,17.01162,0.86787,-0.01338036,1.02471
168.877,17.02719,0.87128,-0.01337992,1.02447
169.377,17.04279,0.87369,-0.01337999,1.02422
169.877,17.05829,0.87518,-0.01338,1.02397
170.377,17.07384,0.87856,-0.01338,1.02373
170.877,17.0894,0.88135,-0.01338001,1.02348
171.377,17.10492,0.88427,-0.01338025,1.02323
171.877,17.12043,0.88604,-0.01338028,1.02298
172.377,17.13586,0.88837,-0.01329939,1.02273
172.877,17.1513,0.89067,-0.01188305,1.02248
173.377,17.16676,0.89167,-0.01196913,1.02223
173.877,17.1821,0.89476,-0.01195197,1.02198
174.377,17.19748,0.89885,-0.01194802,1.02172
174.877,17.21285,0.90288,-0.01192734,1.02147
175.377,17.2282,0.90597,-0.01077054,1.02121
175.877,17.24344,0.90818,-0.01064614,1.02096
176.377,17.2588,0.91043,-0.01069947,1.0207
176.877,17.27405,0.91218,-0.00924889,1.02044
177.377,17.28933,0.91419,-0.00910081,1.02018
177.877,17.30461,0.91631,-0.00919075,1.01992
178.377,17.31991,0.91931,-0.00811582,1.01966
178.877,17.33521,0.92237,-0.008248326,1.0194
179.377,17.3504,0.92517,-0.00686447,1.01914
179.877,17.3655,0.92945,-0.006062215,1.01887
180.377,17.38066,0.93352,-0.004790883,1.01861
180.877,17.3958,0.93278,-0.004905614,1.01835
181.377,17.4109,0.93705,-0.004548808,1.01808
181.877,17.4259,0.94052,-0.006389781,1.01781
182.377,17.44098,0.93953,-0.009133566,1.01755
182.877,17.45607,0.9427,-0.01127552,1.01728
183.377,17.4711,0.94699,-0.01312037,1.01701
183.877,17.48609,0.94764,-0.01528611,1.01674
184.377,17.5011,0.94956,-0.01589191,1.01647
184.877,17.51604,0.95381,-0.01537884,1.0162
185.377,17.53104,0.95753,-0.01368801,1.01593
185.877,17.54597,0.95954,-0.01225608,1.01565
186.377,17.5609,0.96126,-0.009751291,1.01538
186.877,17.5758,0.96202,-0.00954128,1.0151
187.377,17.59064,0.966,-0.009524976,1.01483
187.877,17.60557,0.96778,-0.009821795,1.01455
188.377,17.6204,0.96923,-0.01097349,1.01427
188.877,17.6353,0.97442,-0.01097193,1.014
189.377,17.6502,0.97664,-0.01097089,1.01372
189.877,17.66504,0.97838,-0.01239866,1.01344
190.377,17.67987,0.97874,-0.01280625,1.01316
190.877,17.69464,0.98331,-0.01416559,1.01288
191.377,17.70947,0.98636,-0.01528635,1.0126
191.877,17.72416,0.98826,-0.01572006,1.01231
192.377,17.73885,0.99085,-0.01667461,1.01203
192.877,17.75357,0.99428,-0.0171168,1.01174
193.377,17.76829,0.99703,-0.01710944,1.01146
193.877,17.78296,1.00019,-0.01711039,1.01117
194.377,17.7976,1.00292,-0.01710718,1.01089
194.877,17.81241,1.00508,-0.01708863,1.0106
195.377,17.82714,1.00631,-0.01738958,1.01031
195.877,17.84181,1.00937,-0.0170759,1.01002
196.377,17.85644,1.01134,-0.01711724,1.00973
196.877,17.87112,1.01636,-0.01710601,1.00944
197.377,17.88577,1.01954,-0.01614384,1.00915
197.877,17.9004,1.01913,-0.01577572,1.00886
198.377,17.9149,1.02371,-0.0143016,1.00856
198.877,17.92945,1.02683,-0.0129665,1.00827
199.377,17.944,1.03044,-0.01296042,1.00798
199.877,17.95861,1.03326,-0.01293742,1.00768
200.377,17.97314,1.03572,-0.01292316,1.00738
200.877,17.98763,1.03861,-0.01317224,1.00709
201.377,18.00216,1.03984,-0.01362215,1.00679
201.877,18.01671,1.04354,-0.01359177,1.00649
202.377,18.0312,1.04833,-0.01358844,1.00619
202.877,18.04566,1.0514,-0.0138489,1.00589
203.377,18.06012,1.05375,-0.01336474,1.00559
203.877,18.07459,1.05993,-0.01346989,1.00529
204.377,18.08905,1.06148,-0.01247891,1.00499
204.877,18.10351,1.06372,-0.0119157,1.00469
205.377,18.11795,1.066,-0.01201569,1.00438
205.877,18.13242,1.06916,-0.01127886,1.00408
206.377,18.14686,1.0721,-0.01188711,1.00377
206.877,18.1613,1.07655,-0.01193483,1.00347
207.377,18.17575,1.08017,-0.01225737,1.00316
207.877,18.19013,1.08439,-0.01338484,1.00285
208.377,18.20449,1.08577,-0.01340635,1.00255
208.877,18.21885,1.09066,-0.01471405,1.00224
209.377,18.2332,1.0941,-0.01477314,1.00193
209.877,18.24758,1.09629,-0.01479767,1.00162
210.377,18.2619,1.10159,-0.01531195,1.00131
210.877,18.27629,1.10526,-0.01619242,1.00099
211.377,18.29061,1.10834,-0.01612299,1.00068
211.877,18.30491,1.11146,-0.01609417,1.00037
212.377,18.31924,1.11568,-0.01615771,1.00005
212.877,18.33353,1.12083,-0.01491836,0.99974
213.377,18.34779,1.12417,-0.01480638,0.99942
213.877,18.36204,1.12826,-0.01479959,0.99911
214.377,18.37634,1.1324,-0.01377788,0.99879
214.877,18.39065,1.13497,-0.01345748,0.99847
215.377,18.40494,1.14033,-0.01223019,0.99816
215.877,18.41921,1.14425,-0.01216932,0.99784
216.377,18.4335,1.14898,-0.01216977,0.99752
216.877,18.44783,1.1536,-0.0121695,0.9972
217.377,18.46213,1.15801,-0.01216626,0.99688
217.877,18.47638,1.16265,-0.01228892,0.99655
218.377,18.49059,1.16763,-0.01313831,0.99623
218.877,18.5048,1.17287,-0.01206396,0.99591
219.377,18.51904,1.17958,-0.01215414,0.99559
219.877,18.53321,1.18468,-0.01315966,0.99526
220.377,18.54735,1.18959,-0.01361544,0.99494
220.877,18.5614,1.19456,-0.01209072,0.99461
221.377,18.5756,1.19972,-0.01228685,0.99428
221.877,18.58979,1.20511,-0.01120929,0.99396
222.377,18.60396,1.21267,-0.01073142,0.99363
222.877,18.61814,1.21837,-0.01074779,0.9933
223.377,18.6323,1.22352,-0.01071286,0.99297
223.877,18.64649,1.231,-0.01009192,0.99264
224.377,18.6607,1.23852,-0.01088219,0.99231
224.877,18.6749,1.24516,-0.01084052,0.99198
225.377,18.68901,1.2482,-0.01082504,0.99165
225.877,18.7031,1.25689,-0.01198239,0.99131
226.377,18.7172,1.26817,-0.01275762,0.99098
226.877,18.73135,1.2734,-0.0143077,0.99065
227.377,18.7454,1.283,-0.01482341,0.99031
227.877,18.7595,1.2912,-0.01600408,0.98998
228.377,18.77357,1.30067,-0.01681602,0.98964
228.877,18.78766,1.30863,-0.01766843,0.9893
229.377,18.80177,1.31746,-0.01847986,0.98897
229.877,18.81586,1.3262,-0.01912956,0.98863
230.377,18.82992,1.33826,-0.01940156,0.98829
230.877,18.844,1.3497,-0.02014322,0.98795
231.377,18.858,1.36168,-0.01908121,0.98761
231.877,18.87207,1.37276,-0.01849168,0.98727
232.377,18.88605,1.38481,-0.01730872,0.98693
232.877,18.90002,1.39821,-0.01545741,0.98659
233.377,18.9141,1.41119,-0.01467076,0.98625
233.877,18.92811,1.42634,-0.01388109,0.9859
234.377,18.94216,1.4407,-0.01391905,0.98556
234.877,18.95618,1.45513,-0.01395817,0.98521
235.377,18.97026,1.47366,-0.01394536,0.98487
235.877,18.98432,1.49071,-0.0151592,0.98452
236.377,18.99827,1.50928,-0.01524355,0.98418
236.877,19.01226,1.52797,-0.01525359,0.98383
237.377,19.0262,1.54754,-0.01512849,0.98348
237.877,19.04019,1.56893,-0.01635569,0.98313
238.377,19.05416,1.59327,-0.0173665,0.98279
238.877,19.0681,1.61527,-0.01855866,0.98244
239.377,19.0821,1.64144,-0.01964563,0.98209
239.877,19.09609,1.66533,-0.02046703,0.98174
240.377,19.1101,1.69192,-0.02040038,0.98139
240.877,19.12407,1.7216,-0.02039681,0.98103
241.377,19.13802,1.74885,-0.02040585,0.98068
241.877,19.152,1.77977,-0.01987926,0.98033
242.377,19.16591,1.81247,-0.01900142,0.97997
242.877,19.17985,1.8465,-0.01908062,0.97962
243.377,19.19377,1.87763,-0.01908342,0.97927
243.877,19.20769,1.91636,-0.01907317,0.97891
244.377,19.2216,1.95272,-0.01904704,0.97855
244.877,19.23554,1.99108,-0.01963822,0.9782
245.377,19.24944,2.02911,-0.02008023,0.97784
245.877,19.26334,2.06864,-0.0200762,0.97748
246.377,19.27727,2.11168,-0.0200759,0.97712
246.877,19.2912,2.15388,-0.02009345,0.97676
247.377,19.30513,2.19262,-0.01955066,0.97641
247.877,19.31906,2.2337,-0.01853455,0.97604
248.377,19.33301,2.27246,-0.01841414,0.97568
248.877,19.34694,2.31108,-0.01718293,0.97532
249.377,19.3609,2.34132,-0.01698104,0.97496
249.877,19.37479,2.37097,-0.01585214,0.9746
250.377,19.38871,2.39562,-0.01543438,0.97424
250.877,19.4025,2.4166,-0.0153541,0.97387
251.377,19.41636,2.42839,-0.01424061,0.97351
251.877,19.43025,2.42882,-0.01403149,0.97314
252.377,19.44419,2.42155,-0.01327078,0.97278
252.877,19.45809,2.40342,-0.01268453,0.97241
253.377,19.472,2.37637,-0.01271446,0.97205
253.877,19.4859,2.3429,-0.01272148,0.97168
254.377,19.49985,2.2996,-0.01271999,0.97131
254.877,19.5137,2.25182,-0.01272002,0.97094
255.377,19.52753,2.20496,-0.01271977,0.97057
255.877,19.5413,2.15792,-0.01271909,0.9702
256.377,19.555,2.10736,-0.01277441,0.96984
256.877,19.5688,2.05553,-0.01405263,0.96946
257.377,19.5826,2.00585,-0.01414922,0.96909
257.877,19.59639,1.95993,-0.01492944,0.96872
258.377,19.61017,1.91423,-0.01435956,0.96835
258.877,19.6239,1.86906,-0.0147351,0.96798
259.377,19.63778,1.82805,-0.01567203,0.9676
259.877,19.65157,1.78802,-0.01568879,0.96723
260.377,19.66531,1.7529,-0.01568522,0.96686
260.877,19.67898,1.71669,-0.0159323,0.96648
261.377,19.69271,1.68325,-0.01709116,0.96611
261.877,19.70639,1.64928,-0.016981,0.96573
262.377,19.72004,1.62083,-0.01699996,0.96536
262.877,19.73369,1.59245,-0.01700045,0.96498
263.377,19.74735,1.5673,-0.0170002,0.9646
263.877,19.76106,1.54286,-0.01700076,0.96422
264.377,19.77479,1.51782,-0.01695011,0.96385
264.877,19.78849,1.49898,-0.01569879,0.96347
265.377,19.80217,1.48134,-0.01560352,0.96309
265.877,19.81587,1.46204,-0.01558107,0.96271
266.377,19.82959,1.44739,-0.01528303,0.96233
266.877,19.84326,1.43472,-0.01415501,0.96195
267.377,19.85688,1.42017,-0.01432729,0.96156
267.877,19.87053,1.40856,-0.01355662,0.96118
268.377,19.88416,1.39777,-0.01288244,0.9608
268.877,19.89783,1.38723,-0.01312607,0.96042
269.377,19.91152,1.37984,-0.01432689,0.96003
269.877,19.92516,1.37172,-0.01423548,0.95965
270.377,19.93883,1.36416,-0.01426242,0.95927
270.877,19.95252,1.35511,-0.014277,0.95888
271.377,19.96619,1.35225,-0.01526406,0.9585
271.877,19.97985,1.34736,-0.01557797,0.95811
272.377,19.99351,1.34291,-0.01651689,0.95772
272.877,20.00714,1.34059,-0.01694478,0.95734
273.377,20.0208,1.33572,-0.01694643,0.95695
273.877,20.0345,1.33142,-0.01891378,0.95656
274.377,20.04813,1.32665,-0.01955801,0.95617
274.877,20.06179,1.32642,-0.01952567,0.95578
275.377,20.07541,1.32349,-0.01951835,0.9554
275.877,20.08907,1.32218,-0.01951986,0.95501
276.377,20.1027,1.32068,-0.01951625,0.95462
276.877,20.11634,1.31812,-0.01954624,0.95422
277.377,20.1299,1.3177,-0.0195162,0.95383
277.877,20.1436,1.31766,-0.02072484,0.95344
278.377,20.15726,1.31755,-0.0208569,0.95305
278.877,20.17088,1.31685,-0.02087146,0.95266
279.377,20.18453,1.31474,-0.02185751,0.95226
279.877,20.1982,1.31508,-0.02216846,0.95187
280.377,20.21186,1.3159,-0.02215569,0.95148
280.877,20.22547,1.31387,-0.02212008,0.95108
281.377,20.23909,1.3133,-0.02220006,0.95069
281.877,20.2528,1.31365,-0.02111193,0.95029
282.377,20.2664,1.3151,-0.02197699,0.9499
282.877,20.28001,1.31494,-0.02214993,0.9495
283.377,20.29363,1.31591,-0.0221438,0.9491
283.877,20.30724,1.31705,-0.02219755,0.94871
284.377,20.32089,1.31517,-0.02142596,0.94831
284.877,20.33447,1.3155,-0.0207879,0.94791
285.377,20.34814,1.31358,-0.02084948,0.94751
285.877,20.36178,1.31532,-0.02086896,0.94711
286.377,20.3754,1.31323,-0.02038461,0.94672
286.877,20.38909,1.31496,-0.01884808,0.94632
287.377,20.4027,1.31622,-0.01778237,0.94592
287.877,20.41638,1.31771,-0.01564255,0.94552
288.377,20.43,1.31742,-0.01492025,0.94511
288.877,20.44364,1.31823,-0.01394661,0.94471
289.377,20.4573,1.31882,-0.01357564,0.94431
289.877,20.47093,1.31901,-0.0136016,0.94391
290.377,20.48459,1.32018,-0.01353821,0.94351
290.877,20.4983,1.32012,-0.01416727,0.9431
291.377,20.5119,1.31908,-0.01424522,0.9427
291.877,20.52552,1.3202,-0.01426407,0.9423
292.377,20.53921,1.32199,-0.01426036,0.94189
292.877,20.55283,1.32161,-0.01427069,0.94149
293.377,20.5665,1.32139,-0.01418926,0.94108
293.877,20.58013,1.32091,-0.01492534,0.94068
294.377,20.59376,1.32214,-0.01490074,0.94027
294.877,20.60741,1.32364,-0.01505792,0.93986
295.377,20.62104,1.32263,-0.01650653,0.93946
295.877,20.6346,1.32385,-0.01650274,0.93905
296.377,20.64826,1.32471,-0.01563486,0.93864
296.877,20.66188,1.32598,-0.0149963,0.93823
297.377,20.67548,1.32689,-0.01511776,0.93783
297.877,20.68915,1.32672,-0.01410793,0.93742
298.377,20.70277,1.32736,-0.01372224,0.93701
298.877,20.71637,1.32756,-0.0133362,0.9366
299.377,20.72999,1.33036,-0.01239026,0.93619
299.877,20.7436,1.32841,-0.01236891,0.93578
300.377,20.75722,1.32977,-0.01280125,0.93537
300.877,20.77083,1.33083,-0.01383681,0.93496
301.377,20.78446,1.32937,-0.01382086,0.93455
301.877,20.79809,1.33077,-0.01518891,0.93414
302.377,20.81172,1.33221,-0.01540828,0.93372
302.877,20.8253,1.33182,-0.01762436,0.93331
303.377,20.8389,1.334,-0.01845557,0.9329
303.877,20.85249,1.33407,-0.01843245,0.93248
304.377,20.86607,1.33252,-0.01840997,0.93207
304.877,20.87966,1.33347,-0.01842518,0.93166
305.377,20.89327,1.33757,-0.01870459,0.93124
305.877,20.90691,1.33826,-0.01954438,0.93083
306.377,20.92055,1.33741,-0.01874163,0.93041
306.877,20.93419,1.33888,-0.01877662,0.93
307.377,20.94781,1.33821,-0.01875807,0.92958
307.877,20.96144,1.33973,-0.0187598,0.92917
308.377,20.9751,1.34246,-0.01875995,0.92875
308.877,20.98869,1.34294,-0.01876032,0.92833
309.377,21.0023,1.34203,-0.01876331,0.92792
309.877,21.01594,1.34273,-0.01866394,0.9275
310.377,21.02948,1.34221,-0.017472,0.92708
310.877,21.0431,1.34477,-0.01746501,0.92666
311.377,21.0567,1.3431,-0.01743521,0.92624
311.877,21.0703,1.3447,-0.01743974,0.92583
312.377,21.08395,1.3448,-0.01744957,0.92541
312.877,21.09755,1.34587,-0.01739948,0.92499
313.377,21.1111,1.34852,-0.01819668,0.92457
313.877,21.12477,1.34994,-0.01881875,0.92415
314.377,21.1384,1.35024,-0.01986555,0.92373
314.877,21.15202,1.34937,-0.02063853,0.92331
315.377,21.16565,1.35153,-0.02061807,0.92288
315.877,21.1793,1.35124,-0.02061535,0.92246
316.377,21.1929,1.35136,-0.02049955,0.92204
316.877,21.20652,1.35189,-0.01938245,0.92162
317.377,21.22015,1.35221,-0.01918916,0.9212
317.877,21.23377,1.35417,-0.01951054,0.92077
318.377,21.24735,1.35476,-0.02049089,0.92035
318.877,21.26096,1.35531,-0.02050917,0.91993
319.377,21.27455,1.35578,-0.02051046,0.9195
319.877,21.28819,1.35587,-0.02050996,0.91908
320.377,21.3018,1.35677,-0.02051,0.91866
320.877,21.31545,1.35437,-0.02050997,0.91823
321.377,21.3291,1.35622,-0.02051006,0.91781
321.877,21.3427,1.35656,-0.02051098,0.91738
322.377,21.3562,1.35847,-0.02050304,0.91696
322.877,21.36969,1.35872,-0.02051442,0.91653
323.377,21.3832,1.36,-0.02077597,0.91611
323.877,21.3967,1.36198,-0.02178754,0.91568
324.377,21.41023,1.3568,-0.0214651,0.91525
324.877,21.42376,1.35761,-0.02006217,0.91483
325.377,21.4373,1.35759,-0.01848549,0.9144
325.877,21.45091,1.3596,-0.01700756,0.91397
326.377,21.46459,1.36109,-0.01499884,0.91354
326.877,21.47824,1.36176,-0.01385139,0.91312
327.377,21.49188,1.36137,-0.01381089,0.91269
327.877,21.50554,1.36176,-0.01535618,0.91226
328.377,21.5192,1.36281,-0.01675203,0.91183
328.877,21.53292,1.36486,-0.01738318,0.9114
329.377,21.54648,1.36359,-0.01844488,0.91097
329.877,21.56012,1.36483,-0.01742066,0.91054
330.377,21.57377,1.36278,-0.01450392,0.91011
330.877,21.58744,1.36629,-0.01161272,0.90968
331.377,21.6011,1.36567,-0.01060047,0.90925
331.877,21.6147,1.36248,-0.0117715,0.90882
332.377,21.62837,1.36574,-0.01371204,0.90839
332.877,21.6421,1.36657,-0.0172426,0.90796
333.377,21.6557,1.36922,-0.01897909,0.90753
333.877,21.66939,1.36931,-0.02120937,0.9071
334.377,21.683,1.37256,-0.0213679,0.90666
334.877,21.69667,1.37114,-0.02157704,0.90623
335.377,21.71032,1.37184,-0.02192511,0.9058
335.877,21.724,1.37209,-0.02088392,0.90537
336.377,21.73763,1.37004,-0.02036339,0.90493
336.877,21.7513,1.3716,-0.02039661,0.9045
337.377,21.76495,1.36939,-0.02040141,0.90407
337.877,21.77863,1.37191,-0.0203999,0.90363
338.377,21.7923,1.37314,-0.02040001,0.9032
338.877,21.806,1.3748,-0.02039974,0.90277
339.377,21.81962,1.37669,-0.02040021,0.90233
339.877,21.83326,1.37733,-0.02040917,0.9019
340.377,21.84695,1.37645,-0.02034955,0.90146
340.877,21.86064,1.37539,-0.02111361,0.90103
341.377,21.87433,1.37454,-0.02174819,0.90059
341.877,21.88803,1.37555,-0.02174657,0.90016
342.377,21.9017,1.37683,-0.02038891,0.89972
342.877,21.91544,1.37727,-0.0187088,0.89928
343.377,21.92916,1.37722,-0.01886692,0.89885
343.877,21.9429,1.37873,-0.01886316,0.89841
344.377,21.95656,1.37855,-0.01885939,0.89798
344.877,21.9702,1.37757,-0.01886,0.89754
345.377,21.9839,1.37856,-0.01885963,0.8971
345.877,21.99758,1.37923,-0.01886165,0.89666
346.377,22.01124,1.37971,-0.01886595,0.89623
346.877,22.02494,1.37991,-0.01877086,0.89579
347.377,22.03866,1.38021,-0.01971708,0.89535
347.877,22.05238,1.38445,-0.02017639,0.89491
348.377,22.06608,1.38406,-0.02016849,0.89448
348.877,22.07986,1.38458,-0.02017001,0.89404
349.377,22.09355,1.38543,-0.02017006,0.8936
349.877,22.10729,1.38537,-0.02016988,0.89316
350.377,22.12096,1.38619,-0.0201697,0.89272
350.877,22.13469,1.38608,-0.02017571,0.89228
351.377,22.14848,1.38547,-0.02015401,0.89184
351.877,22.16218,1.386,-0.02002004,0.8914
352.377,22.1759,1.38737,-0.01986451,0.89096
352.877,22.18967,1.38925,-0.02018492,0.89052
353.377,22.2034,1.3872,-0.02018642,0.89008
353.877,22.21715,1.38917,-0.02017903,0.88964
354.377,22.2309,1.39017,-0.02017998,0.8892
354.877,22.24469,1.39111,-0.0201792,0.88876
355.377,22.2585,1.39106,-0.02018235,0.88832
355.877,22.27223,1.38972,-0.02020121,0.88788
356.377,22.286,1.39205,-0.01985826,0.88744
356.877,22.29978,1.39155,-0.0187671,0.887
357.377,22.31356,1.39129,-0.01862905,0.88656
357.877,22.32733,1.39133,-0.01737007,0.88611
358.377,22.34114,1.39127,-0.01718198,0.88567
358.877,22.3549,1.39191,-0.01632699,0.88523
359.377,22.36855,1.39362,-0.01622606,0.88479
359.877,22.38234,1.39376,-0.01622995,0.88435
360.377,22.39615,1.39622,-0.01622314,0.8839
360.877,22.40994,1.39528,-0.0165549,0.88346
361.377,22.42369,1.3932,-0.01764757,0.88302
361.877,22.43743,1.39467,-0.01753694,0.88258
362.377,22.45137,1.39616,-0.01754931,0.88213
362.877,22.46526,1.39841,-0.01754395,0.88169
363.377,22.47907,1.39833,-0.01780841,0.88125
363.877,22.4929,1.40056,-0.01896319,0.8808
364.377,22.50676,1.40193,-0.01885484,0.88036
364.877,22.52064,1.40225,-0.01887216,0.87991
365.377,22.5345,1.40294,-0.01878922,0.87947
365.877,22.54833,1.40322,-0.01968603,0.87903
366.377,22.5622,1.40303,-0.0203088,0.87858
366.877,22.576,1.40345,-0.02018904,0.87814
367.377,22.58982,1.40603,-0.01898085,0.87769
367.877,22.6036,1.40546,-0.01898949,0.87725
368.377,22.61749,1.40649,-0.01913568,0.8768
368.877,22.6313,1.40665,-0.01989507,0.87636
369.377,22.64518,1.4072,-0.01886434,0.87591
369.877,22.659,1.40684,-0.01896312,0.87547
370.377,22.67286,1.41148,-0.01874026,0.87502
370.877,22.68672,1.41124,-0.01768412,0.87458
371.377,22.70059,1.41289,-0.01805066,0.87413
371.877,22.71438,1.41433,-0.01955992,0.87369
372.377,22.7282,1.4156,-0.02095792,0.87324
372.877,22.74205,1.4174,-0.02174069,0.8728
373.377,22.75584,1.41962,-0.02399982,0.87235
373.877,22.76967,1.41869,-0.02424298,0.8719
374.377,22.78355,1.42253,-0.02424392,0.87146
374.877,22.7974,1.42113,-0.02423956,0.87101
375.377,22.81125,1.42272,-0.02424034,0.87056
375.877,22.825,1.42494,-0.02423427,0.87012
376.377,22.8389,1.42686,-0.02425204,0.86967
376.877,22.85281,1.42774,-0.02444034,0.86922
377.377,22.86666,1.43074,-0.02589019,0.86878
377.877,22.88052,1.43327,-0.02723062,0.86833
378.377,22.89436,1.43388,-0.02849272,0.86788
378.877,22.9083,1.4374,-0.02977849,0.86744
379.377,22.92219,1.43983,-0.03124188,0.86699
379.877,22.9361,1.44009,-0.03223192,0.86654
380.377,22.94996,1.44076,-0.03268091,0.8661
380.877,22.9638,1.44223,-0.03276154,0.86565
381.377,22.97777,1.44219,-0.03191571,0.8652
381.877,22.99171,1.44228,-0.03123617,0.86475
382.377,23.0057,1.44358,-0.03125532,0.86431
382.877,23.01959,1.44474,-0.03124902,0.86386
383.377,23.03351,1.44428,-0.03121161,0.86341
383.877,23.04748,1.44828,-0.03175542,0.86296
384.377,23.0614,1.44929,-0.03306419,0.86251
384.877,23.07535,1.45226,-0.03299361,0.86207
385.377,23.08928,1.45097,-0.03300532,0.86162
385.877,23.10325,1.45264,-0.03213298,0.86117
386.377,23.11722,1.45414,-0.03105749,0.86072
386.877,23.13121,1.45218,-0.02959266,0.86027
387.377,23.14516,1.4546,-0.02889883,0.85982
387.877,23.1591,1.45651,-0.02759807,0.85938
388.377,23.1731,1.45835,-0.02643239,0.85893
388.877,23.18704,1.45986,-0.02513516,0.85848
389.377,23.20102,1.46101,-0.02385417,0.85803
389.877,23.21499,1.46172,-0.02392398,0.85758
390.377,23.22901,1.46452,-0.02389703,0.85713
390.877,23.24307,1.46865,-0.02386747,0.85668
391.377,23.25708,1.47479,-0.02432026,0.85623
391.877,23.2711,1.47788,-0.02524668,0.85579
392.377,23.28504,1.48183,-0.02520596,0.85534
392.877,23.29901,1.48556,-0.0252228,0.85489
393.377,23.313,1.49536,-0.02595593,0.85444
393.877,23.32695,1.49952,-0.02684931,0.85399
394.377,23.3409,1.50554,-0.02804466,0.85354
394.877,23.3549,1.51233,-0.02880078,0.85309
395.377,23.36886,1.52086,-0.03036539,0.85264
395.877,23.3828,1.52889,-0.03157456,0.85219
396.377,23.39682,1.53578,-0.03301576,0.85174
396.877,23.41081,1.54317,-0.03469044,0.85129
397.377,23.42476,1.55148,-0.03496729,0.85084
397.877,23.4387,1.55677,-0.03527032,0.8504
398.377,23.45253,1.5585,-0.03676426,0.84995
398.877,23.46646,1.56283,-0.03707834,0.8495
399.377,23.48048,1.5682,-0.03706153,0.84905
399.877,23.49449,1.57291,-0.03752338,0.8486
400.377,23.50851,1.57832,-0.03855989,0.84815
400.877,23.52267,1.58433,-0.03973793,0.8477
401.377,23.53681,1.5938,-0.04072203,0.84725
401.877,23.55097,1.5975,-0.04253137,0.8468
402.377,23.56506,1.60386,-0.04240754,0.84635
402.877,23.57911,1.60903,-0.04448673,0.8459
403.377,23.59315,1.61533,-0.04531599,0.84545
403.877,23.6072,1.62219,-0.04538046,0.845
404.377,23.6213,1.62984,-0.04710486,0.84455
404.877,23.6354,1.63635,-0.04769827,0.8441
405.377,23.64945,1.64502,-0.04896681,0.84365
405.877,23.66354,1.6525,-0.05070522,0.8432
406.377,23.6777,1.6585,-0.05130159,0.84275
406.877,23.69174,1.66244,-0.05247739,0.8423
407.377,23.7058,1.665,-0.05424099,0.84185
407.877,23.71989,1.66714,-0.05581885,0.8414
408.377,23.73401,1.67207,-0.05705911,0.84095
408.877,23.74812,1.67826,-0.05891721,0.8405
409.377,23.7622,1.68123,-0.06237593,0.84005
409.877,23.77637,1.68559,-0.06520207,0.8396
410.377,23.79052,1.69253,-0.07027579,0.83916
410.877,23.8047,1.69853,-0.07341627,0.83871
411.377,23.8188,1.70422,-0.07447585,0.83826
411.877,23.83294,1.71166,-0.07545467,0.83781
412.377,23.84713,1.71433,-0.07653155,0.83736
412.877,23.86129,1.7175,-0.07799904,0.83691
413.377,23.87549,1.72447,-0.07960337,0.83646
413.877,23.8897,1.72967,-0.08157055,0.83601
414.377,23.90386,1.73713,-0.08333479,0.83556
414.877,23.91805,1.74863,-0.08536605,0.83511
415.377,23.9322,1.7566,-0.0876844,0.83466
415.877,23.94633,1.76292,-0.09013961,0.83421
416.377,23.96055,1.77199,-0.09378441,0.83376
416.877,23.9747,1.79426,-0.09584983,0.83331
417.377,23.98883,1.80652,-0.09946341,0.83286
417.877,24.00305,1.81561,-0.10258,0.83241
418.377,24.0172,1.82194,-0.10649,0.83196
418.877,24.03146,1.83181,-0.10962,0.83151
419.377,24.04561,1.84108,-0.11416,0.83106
419.877,24.05979,1.86007,-0.11981,0.83062
420.377,24.07403,1.87415,-0.12453,0.83017
420.877,24.0882,1.88392,-0.12949,0.82972
421.377,24.10237,1.8945,-0.13334,0.82927
421.877,24.11657,1.90782,-0.13773,0.82882
422.377,24.13075,1.91569,-0.14294,0.82837
422.877,24.14495,1.91728,-0.14687,0.82792
423.377,24.15914,1.92665,-0.15129,0.82747
423.877,24.1734,1.93639,-0.15632,0.82702
424.377,24.18766,1.9462,-0.16105,0.82657
424.877,24.2019,1.957,-0.16675,0.82613
425.377,24.2162,1.9687,-0.17308,0.82568
425.877,24.23036,1.98104,-0.17895,0.82523
426.377,24.24458,1.99338,-0.18596,0.82478
426.877,24.25881,2.00278,-0.19177,0.82433
427.377,24.27296,2.01698,-0.19724,0.82388
427.877,24.28722,2.02795,-0.20447,0.82343
428.377,24.3015,2.03993,-0.21011,0.82299
428.877,24.31575,2.04842,-0.21649,0.82254
429.377,24.33,2.06086,-0.22575,0.82209
429.877,24.3443,2.07966,-0.23269,0.82164
430.377,24.35859,2.09711,-0.24092,0.82119
430.877,24.37288,2.11022,-0.25024,0.82075
431.377,24.38711,2.12291,-0.25759,0.8203
431.877,24.4014,2.14062,-0.26668,0.81985
432.377,24.4157,2.16203,-0.27593,0.8194
432.877,24.42999,2.1813,-0.28407,0.81895
433.377,24.4443,2.19975,-0.29459,0.81851
433.877,24.4586,2.21583,-0.30412,0.81806
434.377,24.47287,2.23142,-0.3137,0.81761
434.877,24.48713,2.25329,-0.326,0.81716
435.377,24.50144,2.27559,-0.33584,0.81672
435.877,24.51575,2.30219,-0.3473,0.81627
436.377,24.53004,2.32384,-0.36178,0.81582
436.877,24.5443,2.34823,-0.37293,0.81537
437.377,24.55869,2.37419,-0.38616,0.81493
437.877,24.57312,2.39548,-0.4004,0.81448
438.377,24.58745,2.41926,-0.41065,0.81403
438.877,24.6018,2.44644,-0.42362,0.81359
439.377,24.6162,2.47252,-0.43706,0.81314
439.877,24.6307,2.49833,-0.44925,0.81269
440.377,24.64505,2.52198,-0.4656,0.81225
440.877,24.6593,2.54872,-0.47941,0.8118
441.377,24.67371,2.57439,-0.49287,0.81136
441.877,24.6881,2.60451,-0.50932,0.81091
442.377,24.70252,2.63471,-0.52228,0.81046
442.877,24.7169,2.66568,-0.53748,0.81002
443.377,24.73135,2.69391,-0.55719,0.80957
443.877,24.74592,2.71974,-0.57305,0.80913
444.377,24.76035,2.74759,-0.5923,0.80868
444.877,24.7748,2.77498,-0.61248,0.80823
445.377,24.78922,2.80069,-0.62863,0.80779
445.877,24.80365,2.82799,-0.64899,0.80734
446.377,24.81805,2.85571,-0.66843,0.8069
446.877,24.83249,2.88224,-0.68719,0.80645
447.377,24.84695,2.90219,-0.71163,0.80601
447.877,24.86146,2.93139,-0.73057,0.80556
448.377,24.87591,2.95841,-0.75069,0.80512
448.877,24.8904,2.98803,-0.77612,0.80467
449.377,24.90493,3.01395,-0.79492,0.80423
449.877,24.91948,3.03567,-0.81802,0.80379
450.377,24.93401,3.06342,-0.84528,0.80334
450.877,24.94849,3.08955,-0.86687,0.8029
451.377,24.9631,3.1151,-0.89504,0.80245
451.877,24.97755,3.13873,-0.92181,0.80201
452.377,24.99205,3.17122,-0.94639,0.80157
452.877,25.00655,3.20423,-0.97695,0.80112
453.377,25.02109,3.23828,-1.00342,0.80068
453.877,25.0356,3.25817,-1.03168,0.80024
454.377,25.0502,3.27996,-1.0671,0.79979
454.877,25.06472,3.30404,-1.09447,0.79935
455.377,25.0793,3.32777,-1.12562,0.79891
455.877,25.0939,3.35543,-1.16099,0.79846
456.377,25.10838,3.35507,-1.18871,0.79802
456.877,25.12294,3.35373,-1.22324,0.79758
457.377,25.13745,3.3488,-1.25568,0.79714
457.877,25.15201,3.34823,-1.28415,0.79669
458.377,25.16659,3.34947,-1.32144,0.79625
458.877,25.18114,3.35866,-1.35203,0.79581
459.377,25.1957,3.3613,-1.38415,0.79537
459.877,25.21019,3.36373,-1.42429,0.79493
460.377,25.22469,3.36749,-1.45421,0.79449
460.877,25.23931,3.37231,-1.49014,0.79404
461.377,25.2539,3.37548,-1.52818,0.7936
461.877,25.26851,3.37824,-1.56146,0.79316
462.377,25.28315,3.38144,-1.60135,0.79272
462.877,25.29782,3.38966,-1.64318,0.79228
463.377,25.31253,3.39645,-1.7077,0.79184
463.877,25.32714,3.40483,-1.73952,0.7914
464.377,25.34173,3.41092,-1.77407,0.79096
464.877,25.3564,3.41827,-1.80843,0.79052
465.377,25.37094,3.4258,-1.84859,0.79008
465.877,25.38559,3.42939,-1.88679,0.78964
466.377,25.40023,3.43092,-1.93215,0.7892
466.877,25.41486,3.43089,-1.97328,0.78876
467.377,25.42951,3.42373,-2.0141,0.78832
467.877,25.44415,3.4178,-2.05678,0.78788
468.377,25.4588,3.40957,-2.09943,0.78744
468.877,25.47352,3.39632,-2.14053,0.787
469.377,25.4882,3.3771,-2.18308,0.78657
469.877,25.5029,3.35782,-2.22757,0.78613
470.377,25.51762,3.33306,-2.26996,0.78569
470.877,25.53237,3.30769,-2.30962,0.78525
471.377,25.54707,3.27521,-2.35043,0.78481
471.877,25.56176,3.24141,-2.39327,0.78438
472.377,25.57646,3.20115,-2.43388,0.78394
472.877,25.5912,3.15857,-2.47254,0.7835
473.377,25.60581,3.11428,-2.51286,0.78306
473.877,25.62048,3.06426,-2.55128,0.78263
474.377,25.63516,3.01069,-2.58712,0.78219
474.877,25.6498,2.95219,-2.62342,0.78175
475.377,25.66447,2.89465,-2.66143,0.78132
475.877,25.67915,2.83197,-2.69581,0.78088
476.377,25.6938,2.76658,-2.72889,0.78044
476.877,25.70853,2.69913,-2.76109,0.78001
477.377,25.72317,2.62745,-2.78512,0.77957
477.877,25.73789,2.55539,-2.81137,0.77914
478.377,25.7526,2.4811,-2.84275,0.7787
478.877,25.76725,2.40389,-2.8656,0.77827
479.377,25.7819,2.32481,-2.89351,0.77783
479.877,25.79656,2.24889,-2.91892,0.7774
480.377,25.81125,2.16861,-2.93955,0.77696
480.877,25.8259,2.09111,-2.96448,0.77653
481.377,25.84057,2.01411,-2.98401,0.77609
481.877,25.85526,1.93871,-3.00293,0.77566
482.377,25.87,1.86467,-3.02281,0.77523
482.877,25.88464,1.7926,-3.03507,0.77479
483.377,25.89932,1.72276,-3.04744,0.77436
483.877,25.91406,1.65691,-3.06015,0.77393
484.377,25.92876,1.5909,-3.07211,0.77349
484.877,25.94344,1.52676,-3.08683,0.77306
485.377,25.95819,1.46763,-3.10085,0.77263
485.877,25.9729,1.40725,-3.11228,0.7722
486.377,25.98772,1.35356,-3.12557,0.77177
486.877,26.00248,1.29889,-3.13472,0.77133
487.377,26.01718,1.24554,-3.14557,0.7709
487.877,26.03195,1.1948,-3.15631,0.77047
488.377,26.04668,1.14798,-3.1643,0.77004
488.877,26.06145,1.10055,-3.17255,0.76961
489.377,26.0762,1.05691,-3.1804,0.76918
489.877,26.09093,1.01476,-3.18692,0.76875
490.377,26.1057,0.97477,-3.19432,0.76832
490.877,26.1205,0.93289,-3.20039,0.76789
491.377,26.1353,0.89595,-3.20665,0.76746
491.877,26.15007,0.85922,-3.21416,0.76703
492.377,26.16479,0.8238,-3.21937,0.7666
492.877,26.1796,0.79074,-3.22485,0.76617
493.377,26.1943,0.75788,-3.22952,0.76574
493.877,26.20898,0.72664,-3.23416,0.76531
494.377,26.22366,0.69747,-3.23862,0.76488
494.877,26.2384,0.66871,-3.24341,0.76445
495.377,26.25325,0.64139,-3.24816,0.76403
495.877,26.26805,0.61285,-3.25309,0.7636
496.377,26.28283,0.58676,-3.25575,0.76317
496.877,26.2978,0.56196,-3.25812,0.76274
497.377,26.3128,0.53702,-3.25986,0.76232
497.877,26.32762,0.51249,-3.26075,0.76189
498.377,26.3425,0.48869,-3.26434,0.76146
498.877,26.35735,0.4677,-3.26592,0.76104
499.377,26.37227,0.44724,-3.26911,0.76061
499.877,26.38712,0.42715,-3.27202,0.76018
500.377,26.402,0.40735,-3.27481,0.75976
500.877,26.4169,0.38916,-3.27717,0.75933
501.377,26.43177,0.37224,-3.2806,0.75891
501.877,26.4465,0.35667,-3.28409,0.75848
502.377,26.4614,0.34105,-3.28769,0.75806
502.877,26.47635,0.32553,-3.29167,0.75763
503.377,26.4912,0.31123,-3.29516,0.75721
503.877,26.50617,0.29817,-3.29717,0.75679
504.377,26.5211,0.28354,-3.30059,0.75636
504.877,26.53612,0.27239,-3.30338,0.75594
505.377,26.551,0.26259,-3.30654,0.75551
505.877,26.5659,0.25305,-3.30911,0.75509
506.377,26.5808,0.24081,-3.31195,0.75467
506.877,26.59569,0.23017,-3.31521,0.75425
507.377,26.6106,0.21733,-3.31775,0.75382
507.877,26.6255,0.2104,-3.32229,0.7534
508.377,26.64037,0.20167,-3.32577,0.75298
508.877,26.6553,0.19106,-3.32941,0.75256
509.377,26.67029,0.18278,-3.33108,0.75214
509.877,26.6853,0.17433,-3.33216,0.75172
510.377,26.70024,0.16568,-3.33328,0.7513
510.877,26.7152,0.16118,-3.33528,0.75088
511.377,26.73035,0.15468,-3.33639,0.75046
511.877,26.7453,0.14713,-3.33867,0.75004
512.377,26.76032,0.14072,-3.34041,0.74962
512.877,26.7753,0.13656,-3.34102,0.7492
513.377,26.7903,0.13292,-3.34226,0.74878
513.877,26.80531,0.12554,-3.34223,0.74836
514.377,26.82031,0.12133,-3.34225,0.74794
514.877,26.8353,0.11936,-3.34306,0.74752
515.377,26.8503,0.11147,-3.34213,0.7471
515.877,26.86535,0.10991,-3.34359,0.74669
516.377,26.88035,0.10553,-3.34436,0.74627
516.877,26.8954,0.10255,-3.34586,0.74585
517.377,26.91044,0.09833067,-3.34598,0.74544
517.877,26.9255,0.09392542,-3.34653,0.74502
518.377,26.9405,0.09242658,-3.3481,0.7446
518.877,26.95552,0.08901195,-3.34949,0.74419
519.377,26.97059,0.08564352,-3.3511,0.74377
519.877,26.98565,0.08283977,-3.3531,0.74336
520.377,27.0007,0.08216591,-3.3549,0.74294
520.877,27.01568,0.07987295,-3.35595,0.74252
521.377,27.03077,0.07816181,-3.35647,0.74211
521.877,27.0458,0.07647741,-3.35708,0.7417
522.377,27.0609,0.07480814,-3.35786,0.74128
522.877,27.07597,0.07362892,-3.35893,0.74087
523.377,27.0911,0.07269415,-3.35911,0.74045
523.877,27.1062,0.07099221,-3.35946,0.74004
524.377,27.1213,0.06744314,-3.36071,0.73963
524.877,27.13634,0.06531211,-3.36066,0.73922
525.377,27.1514,0.06479604,-3.36068,0.7388
525.877,27.16651,0.06516486,-3.36168,0.73839
526.377,27.18158,0.06587105,-3.36196,0.73798
526.877,27.1967,0.06214689,-3.36208,0.73757
527.377,27.2117,0.06030116,-3.36376,0.73716
527.877,27.22682,0.06254814,-3.36551,0.73675
528.377,27.24192,0.06180972,-3.36667,0.73633
528.877,27.25702,0.06163862,-3.36823,0.73592
529.377,27.2721,0.06246471,-3.3691,0.73551
529.877,27.2872,0.06218261,-3.37041,0.7351
530.377,27.30234,0.06160488,-3.37201,0.73469
530.877,27.3175,0.05932745,-3.37222,0.73429
531.377,27.33258,0.05712099,-3.37345,0.73388
531.877,27.3477,0.05763931,-3.37361,0.73347
532.377,27.3629,0.05756813,-3.37361,0.73306
532.877,27.3781,0.05728711,-3.37377,0.73265
533.377,27.39327,0.0558233,-3.37602,0.73224
533.877,27.4085,0.0538883,-3.37667,0.73184
534.377,27.42369,0.05484889,-3.37903,0.73143
534.877,27.43887,0.05462589,-3.38009,0.73102
535.377,27.45403,0.05593876,-3.38111,0.73062
535.877,27.4691,0.05547018,-3.38139,0.73021
536.377,27.4841,0.0560705,-3.38102,0.7298
536.877,27.4992,0.05299643,-3.38107,0.7294
537.377,27.5144,0.05251555,-3.38103,0.72899
537.877,27.5296,0.0528717,-3.38179,0.72859
538.377,27.54482,0.05231895,-3.38247,0.72818
538.877,27.5602,0.05266273,-3.38151,0.72778
539.377,27.5756,0.05162642,-3.38269,0.72738
539.877,27.5909,0.05030132,-3.38176,0.72697
540.377,27.606,0.04788911,-3.38159,0.72657
540.877,27.6211,0.04855717,-3.38299,0.72617
541.377,27.63617,0.04819933,-3.38193,0.72576
541.877,27.6513,0.04873431,-3.38164,0.72536
542.377,27.66654,0.04728491,-3.38156,0.72496
542.877,27.68177,0.04932771,-3.38242,0.72456
543.377,27.69708,0.04982972,-3.38424,0.72416
543.877,27.71248,0.05101366,-3.38466,0.72375
544.377,27.7279,0.05017082,-3.38596,0.72335
544.877,27.7431,0.04830192,-3.38772,0.72295
545.377,27.7584,0.04799883,-3.38869,0.72255
545.877,27.7736,0.04813128,-3.38986,0.72215
546.377,27.7889,0.04846753,-3.39072,0.72175
546.877,27.804,0.04862737,-3.39116,0.72135
547.377,27.81924,0.04814405,-3.39116,0.72095
547.877,27.8344,0.04790376,-3.39121,0.72056
548.377,27.84962,0.04745758,-3.39246,0.72016
548.877,27.86485,0.04859448,-3.39241,0.71976
549.377,27.8801,0.04876,-3.39314,0.71936
549.877,27.89534,0.05019677,-3.39396,0.71896
550.377,27.91055,0.05007476,-3.39429,0.71857
550.877,27.92587,0.05002378,-3.39549,0.71817
551.377,27.9412,0.05007661,-3.39635,0.71777
551.877,27.9565,0.04758533,-3.39713,0.71738
552.377,27.9719,0.04799245,-3.39859,0.71698
552.877,27.98725,0.0488417,-3.39907,0.71659
553.377,28.00263,0.04931688,-3.40086,0.71619
553.877,28.018,0.04900396,-3.4003,0.7158
554.377,28.03333,0.04921387,-3.40063,0.7154
554.877,28.04867,0.04793074,-3.39917,0.71501
555.377,28.064,0.04643212,-3.39983,0.71462
555.877,28.0793,0.04585882,-3.40011,0.71422
556.377,28.0947,0.04456983,-3.39896,0.71383
556.877,28.10997,0.04358731,-3.39905,0.71344
557.377,28.1253,0.0441842,-3.39714,0.71304
557.877,28.14068,0.04409124,-3.39619,0.71265
558.377,28.156,0.04253804,-3.39457,0.71226
558.877,28.17134,0.04366852,-3.39533,0.71187
559.377,28.1867,0.04760312,-3.39478,0.71148
559.877,28.20205,0.04574285,-3.39728,0.71109
560.377,28.21745,0.04408107,-3.39856,0.7107
560.877,28.2329,0.0453508,-3.40104,0.71031
561.377,28.24835,0.04483096,-3.40172,0.70992
561.877,28.26377,0.04596487,-3.40225,0.70953
562.377,28.27918,0.04568015,-3.40357,0.70914
562.877,28.29451,0.04660832,-3.40503,0.70875
563.377,28.30987,0.04696675,-3.40672,0.70836
563.877,28.32525,0.04561521,-3.40876,0.70798
564.377,28.3406,0.04333854,-3.40968,0.70759
564.877,28.356,0.04111567,-3.40808,0.7072
565.377,28.37142,0.04166979,-3.40846,0.70681
565.877,28.3869,0.04234785,-3.40754,0.70643
566.377,28.40229,0.04173081,-3.40701,0.70604
566.877,28.4177,0.04355423,-3.40607,0.70565
567.377,28.43313,0.0427071,-3.40491,0.70527
567.877,28.44857,0.04207908,-3.40401,0.70488
568.377,28.46402,0.0416236,-3.40219,0.7045
568.877,28.47945,0.04140488,-3.40207,0.70412
569.377,28.49489,0.03929625,-3.40121,0.70373
569.877,28.5103,0.04091207,-3.40236,0.70335
570.377,28.52572,0.04100862,-3.4023,0.70296
570.877,28.5412,0.03973882,-3.40313,0.70258
571.377,28.5566,0.0375985,-3.40392,0.7022
571.877,28.57201,0.03675545,-3.40488,0.70182
572.377,28.5874,0.03784116,-3.40664,0.70143
572.877,28.6028,0.03795959,-3.40731,0.70105
573.377,28.61823,0.03715667,-3.40812,0.70067
573.877,28.6336,0.03762231,-3.41017,0.70029
574.377,28.64892,0.03838882,-3.41233,0.69991
574.877,28.6643,0.03945099,-3.41338,0.69953
575.377,28.67977,0.04160115,-3.41473,0.69915
575.877,28.6952,0.04159681,-3.41463,0.69877
576.377,28.7106,0.03978184,-3.41577,0.69839
576.877,28.7261,0.03841803,-3.41607,0.69801
577.377,28.7416,0.0369622,-3.41606,0.69763
577.877,28.757,0.03576971,-3.41605,0.69726
578.377,28.77255,0.03599625,-3.41595,0.69688
578.877,28.78802,0.03793066,-3.41482,0.6965
579.377,28.80358,0.03657509,-3.41473,0.69612
579.877,28.8191,0.03652435,-3.41557,0.69575
580.377,28.83452,0.03512273,-3.41776,0.69537
580.877,28.85002,0.03563895,-3.41792,0.69499
581.377,28.8655,0.03513601,-3.42015,0.69462
581.877,28.881,0.03564835,-3.42088,0.69424
582.377,28.89645,0.03576369,-3.42202,0.69387
582.877,28.91194,0.03529123,-3.42282,0.6935
583.377,28.92744,0.03917841,-3.42445,0.69312
583.877,28.94293,0.03900916,-3.4247,0.69275
584.377,28.95845,0.03916498,-3.42604,0.69237
584.877,28.97392,0.03993322,-3.42463,0.692
585.377,28.98943,0.03794249,-3.42452,0.69163
585.877,29.0049,0.03734576,-3.42365,0.69126
586.377,29.0204,0.03900942,-3.4236,0.69088
586.877,29.0359,0.03815045,-3.42197,0.69051
587.377,29.05145,0.03609424,-3.42185,0.69014
587.877,29.067,0.03337863,-3.42129,0.68977
588.377,29.08248,0.03242287,-3.42124,0.6894
588.877,29.09802,0.03088192,-3.42114,0.68903
589.377,29.1136,0.03192488,-3.42242,0.68866
589.877,29.12913,0.03206859,-3.42253,0.68829
590.377,29.14462,0.03064638,-3.42253,0.68792
590.877,29.1602,0.02917322,-3.42253,0.68755
591.377,29.1758,0.02854127,-3.42256,0.68719
591.877,29.1913,0.02879655,-3.42262,0.68682
592.377,29.20686,0.02967599,-3.42503,0.68645
592.877,29.22237,0.0282802,-3.42535,0.68608
593.377,29.23795,0.02571732,-3.4254,0.68572
593.877,29.2535,0.02384247,-3.42567,0.68535
594.377,29.269,0.02459892,-3.42656,0.68499
594.877,29.2846,0.02040496,-3.42508,0.68462
595.377,29.30019,0.01952236,-3.42472,0.68425
595.877,29.31577,0.01860755,-3.42339,0.68389
596.377,29.3313,0.01901086,-3.42274,0.68353
596.877,29.3469,0.02028299,-3.42249,0.68316
597.377,29.36249,0.01821765,-3.42112,0.6828
597.877,29.3781,0.01815015,-3.42092,0.68243
598.377,29.3936,0.01885889,-3.42214,0.68207
598.877,29.40925,0.01877082,-3.42496,0.68171
599.377,29.4249,0.01813294,-3.42793,0.68135
599.877,29.4405,0.01778939,-3.4313,0.68099
600.377,29.4561,0.01790359,-3.43298,0.68062
600.877,29.4717,0.01713122,-3.43366,0.68026
601.377,29.48736,0.01654782,-3.43454,0.6799
601.877,29.50295,0.01610376,-3.43442,0.67954
602.377,29.51854,0.01659971,-3.4354,0.67918
602.877,29.53415,0.01794896,-3.43458,0.67882
603.377,29.5497,0.01627308,-3.43448,0.67846
603.877,29.56527,0.01518709,-3.43439,0.6781
604.377,29.58087,0.01314351,-3.43554,0.67775
604.877,29.59648,0.01041627,-3.4358,0.67739
605.377,29.61213,0.01163099,-3.43578,0.67703
605.877,29.62779,0.01116553,-3.43564,0.67667
606.377,29.64347,0.01345151,-3.43438,0.67632
606.877,29.65918,0.01283637,-3.43471,0.67596
607.377,29.67485,0.0132355,-3.43314,0.6756
607.877,29.6905,0.01198833,-3.43441,0.67525
608.377,29.70615,0.01034265,-3.4347,0.67489
608.877,29.7218,0.00964169,-3.43467,0.67454
609.377,29.7374,0.007913045,-3.43544,0.67418
609.877,29.7531,0.007517969,-3.43602,0.67383
610.377,29.7688,0.0067729,-3.43603,0.67348
610.877,29.7845,0.00587057,-3.43643,0.67312
611.377,29.80013,0.00619376,-3.43734,0.67277
611.877,29.81574,0.00685296,-3.43852,0.67242
612.377,29.83137,0.00659623,-3.43879,0.67207
612.877,29.847,0.003009066,-3.43802,0.67171
613.377,29.86269,0.001445047,-3.4377,0.67136
613.877,29.8784,0.001130441,-3.4368,0.67101
614.377,29.89405,0.001681599,-3.43678,0.67066
614.877,29.9099,0.00325227,-3.43657,0.67031
615.377,29.92555,0.00107707,-3.43661,0.66996
615.877,29.94122,0.002488573,-3.43666,0.66961
616.377,29.9569,0.00346986,-3.43785,0.66926
616.877,29.9726,0.003629498,-3.43912,0.66891
617.377,29.98832,0.003243636,-3.44037,0.66857
617.677,29.9977,0.003062945,-3.4406,0.66836