File: 01_Data/Engineered_Wood_Furniture/STA/N2/10K_min/Engineered_Wood_Furniture_STA_N2_10KData_2284_R1.csv
##Temp./Â°C,Time/min,Mass loss(subtr.2)/mg,DSC(subtr.2)/(mW/mg),Sensit./(uV/mW)
49.776,10.01,-0.01514,0.02106476,1.0605
50.476,10.7747,-0.01608429,0.05988442,1.06036
51.176,10.97587,-0.0163935,0.09116875,1.06021
51.876,11.12854,-0.01733521,0.11007,1.06007
52.576,11.25713,-0.0159901,0.12886,1.05992
53.276,11.3718,-0.01523154,0.14242,1.05977
53.976,11.47788,-0.01533678,0.15843,1.05963
54.676,11.57755,-0.01514493,0.17024,1.05948
55.376,11.67223,-0.01632855,0.18189,1.05933
56.076,11.76344,-0.01520929,0.19209,1.05917
56.776,11.85171,-0.0166979,0.19949,1.05902
57.476,11.93795,-0.01554187,0.20621,1.05887
58.176,12.02254,-0.0169025,0.21482,1.05872
58.876,12.1053,-0.01734351,0.2198,1.05856
59.576,12.18672,-0.01700834,0.22576,1.0584
60.276,12.26741,-0.01773912,0.22877,1.05825
60.976,12.34736,-0.01773913,0.23449,1.05809
61.676,12.42632,-0.01689252,0.23976,1.05793
62.376,12.50469,-0.0182315,0.2416,1.05777
63.076,12.58264,-0.01768679,0.24753,1.05761
63.776,12.6602,-0.01821001,0.25118,1.05745
64.476,12.7371,-0.01862111,0.25417,1.05729
65.176,12.81365,-0.0182098,0.2591,1.05713
65.876,12.8896,-0.01952836,0.26228,1.05696
66.576,12.96527,-0.0195217,0.26508,1.0568
67.276,13.0405,-0.01821104,0.26776,1.05663
67.976,13.1165,-0.01952927,0.27322,1.05646
68.676,13.1917,-0.01953937,0.27591,1.0563
69.376,13.2669,-0.02217307,0.27905,1.05613
70.076,13.3419,-0.02208601,0.28194,1.05596
70.776,13.4165,-0.02084004,0.28596,1.05579
71.476,13.4908,-0.0207859,0.28978,1.05562
72.176,13.565,-0.02092235,0.29425,1.05545
72.876,13.63954,-0.02227055,0.29653,1.05527
73.576,13.71381,-0.02226508,0.29932,1.0551
74.276,13.7877,-0.02363474,0.30318,1.05492
74.976,13.8612,-0.02166499,0.30585,1.05475
75.676,13.9344,-0.02357636,0.30723,1.05457
76.376,14.0075,-0.02359,0.31059,1.05439
77.076,14.0802,-0.02358982,0.31282,1.05422
77.776,14.15289,-0.02491784,0.31407,1.05404
78.476,14.2256,-0.02720283,0.31924,1.05386
79.176,14.29815,-0.02590231,0.31817,1.05368
79.876,14.3705,-0.02589017,0.32294,1.05349
80.576,14.44261,-0.02720831,0.32465,1.05331
81.276,14.51491,-0.02721,0.32572,1.05313
81.976,14.587,-0.02734866,0.32664,1.05294
82.676,14.6588,-0.02851995,0.33031,1.05276
83.376,14.7301,-0.02918854,0.32893,1.05257
84.076,14.8015,-0.02984171,0.32776,1.05238
84.776,14.87297,-0.03073573,0.32944,1.0522
85.476,14.94435,-0.02984102,0.33095,1.05201
86.176,15.01544,-0.03074271,0.33196,1.05182
86.876,15.0861,-0.02975506,0.33326,1.05163
87.576,15.15673,-0.02973399,0.33219,1.05144
88.276,15.2274,-0.03115002,0.33349,1.05124
88.976,15.29793,-0.03117133,0.33123,1.05105
89.676,15.3684,-0.03246996,0.33189,1.05086
90.376,15.4386,-0.03247,0.33095,1.05066
91.076,15.5091,-0.03246725,0.33196,1.05046
91.776,15.57929,-0.03377996,0.33272,1.05027
92.476,15.64916,-0.0351077,0.33262,1.05007
93.176,15.71884,-0.0351,0.33343,1.04987
93.876,15.7888,-0.0351,0.33152,1.04967
94.576,15.8587,-0.0351,0.32775,1.04947
95.276,15.9285,-0.03509532,0.32691,1.04927
95.976,15.99816,-0.03523629,0.32761,1.04907
96.676,16.06766,-0.03632041,0.32656,1.04887
97.376,16.13715,-0.03510795,0.32517,1.04866
98.076,16.20626,-0.0350995,0.32286,1.04846
98.776,16.27511,-0.0364264,0.32358,1.04825
99.476,16.34422,-0.03641604,0.32347,1.04805
100.176,16.41328,-0.03643726,0.32173,1.04784
100.876,16.4825,-0.036724,0.31961,1.04763
101.576,16.55119,-0.03837537,0.32247,1.04742
102.276,16.62,-0.03839,0.3198,1.04721
102.976,16.689,-0.0397267,0.32225,1.047
103.676,16.75807,-0.03839067,0.32228,1.04679
104.376,16.82704,-0.03839001,0.32646,1.04658
105.076,16.89581,-0.03832017,0.32781,1.04636
105.776,16.9646,-0.03905116,0.32941,1.04615
106.476,17.03343,-0.03942892,0.33068,1.04593
107.176,17.10221,-0.03840001,0.33124,1.04572
107.876,17.17079,-0.0384,0.33189,1.0455
108.576,17.23948,-0.03838573,0.33292,1.04528
109.276,17.30813,-0.0397101,0.33175,1.04507
109.976,17.37668,-0.03970633,0.33243,1.04485
110.676,17.44518,-0.04103344,0.33252,1.04463
111.376,17.51364,-0.0410299,0.33066,1.04441
112.076,17.5821,-0.03989299,0.32893,1.04418
112.776,17.6503,-0.04102006,0.32769,1.04396
113.476,17.71854,-0.04102,0.32728,1.04374
114.176,17.7869,-0.04102001,0.32415,1.04351
114.876,17.85535,-0.0409516,0.32503,1.04329
115.576,17.92385,-0.04200037,0.32324,1.04306
116.276,17.99231,-0.04200992,0.3231,1.04284
116.976,18.0607,-0.04233671,0.3201,1.04261
117.676,18.1289,-0.04234092,0.32192,1.04238
118.376,18.19697,-0.04365885,0.3194,1.04215
119.076,18.26509,-0.04365904,0.32067,1.04192
119.776,18.33336,-0.04364791,0.32039,1.04169
120.476,18.4018,-0.04495033,0.31727,1.04146
121.176,18.47017,-0.04495989,0.31692,1.04122
121.876,18.53833,-0.04366002,0.31493,1.04099
122.576,18.60673,-0.04227572,0.31854,1.04076
123.276,18.67478,-0.04370975,0.31555,1.04052
123.976,18.7433,-0.04365999,0.31774,1.04029
124.676,18.81136,-0.04365986,0.31698,1.04005
125.376,18.87966,-0.04497846,0.31592,1.03981
126.076,18.9474,-0.04498025,0.31841,1.03957
126.776,19.01551,-0.04360806,0.3161,1.03933
127.476,19.08333,-0.04497051,0.31719,1.03909
128.176,19.1516,-0.04499925,0.31955,1.03885
128.876,19.2196,-0.04366001,0.31816,1.03861
129.576,19.2871,-0.04366013,0.31999,1.03837
130.276,19.35493,-0.04490341,0.32012,1.03812
130.976,19.42292,-0.04502649,0.32252,1.03788
131.676,19.4916,-0.04365996,0.31995,1.03763
132.376,19.55986,-0.0436521,0.32138,1.03739
133.076,19.62797,-0.04498001,0.32247,1.03714
133.776,19.69582,-0.04498,0.32375,1.03689
134.476,19.7637,-0.04499042,0.32531,1.03665
135.176,19.83136,-0.04628939,0.32478,1.0364
135.876,19.89933,-0.04629,0.32388,1.03615
136.576,19.9671,-0.04629,0.3267,1.0359
137.276,20.03483,-0.04628988,0.32676,1.03564
137.976,20.1022,-0.04499206,0.32624,1.03539
138.676,20.16984,-0.04496933,0.33088,1.03514
139.376,20.23731,-0.04629026,0.3307,1.03488
140.076,20.305,-0.04634418,0.33022,1.03463
140.776,20.37262,-0.04662329,0.32932,1.03437
141.476,20.44053,-0.04662,0.33252,1.03412
142.176,20.50827,-0.04662,0.33139,1.03386
142.876,20.57592,-0.04662013,0.33445,1.0336
143.576,20.6436,-0.04781667,0.33358,1.03334
144.276,20.711,-0.04759872,0.33503,1.03308
144.976,20.7785,-0.0476,0.33699,1.03282
145.676,20.84577,-0.04760347,0.33825,1.03256
146.376,20.91315,-0.04697193,0.3398,1.0323
147.076,20.9803,-0.04695,0.34155,1.03203
147.776,21.04751,-0.04695009,0.34483,1.03177
148.476,21.11457,-0.04767881,0.34568,1.03151
149.176,21.18155,-0.04654712,0.34658,1.03124
149.876,21.24885,-0.04661972,0.34754,1.03097
150.576,21.31609,-0.04794544,0.34828,1.03071
151.276,21.3837,-0.04793963,0.34903,1.03044
151.976,21.4509,-0.04926304,0.35376,1.03017
152.676,21.51826,-0.04925862,0.35231,1.0299
153.376,21.58533,-0.04794161,0.35403,1.02963
154.076,21.65261,-0.04794096,0.35452,1.02936
154.776,21.71979,-0.04925011,0.35799,1.02909
155.476,21.7869,-0.04826263,0.35848,1.02882
156.176,21.85409,-0.04825583,0.3607,1.02854
156.876,21.92136,-0.04856703,0.36237,1.02827
157.576,21.989,-0.04926318,0.36582,1.02799
158.276,22.05627,-0.04926381,0.36653,1.02772
158.976,22.1234,-0.05056901,0.36917,1.02744
159.676,22.19037,-0.05056223,0.37247,1.02716
160.376,22.2576,-0.05056982,0.37359,1.02689
161.076,22.3248,-0.05182007,0.37544,1.02661
161.776,22.39197,-0.05124516,0.37586,1.02633
162.476,22.45911,-0.05123,0.37887,1.02605
163.176,22.52605,-0.05122296,0.3826,1.02577
163.876,22.59306,-0.05254047,0.38751,1.02548
164.576,22.66011,-0.05254,0.38888,1.0252
165.276,22.7271,-0.05254112,0.39084,1.02492
165.976,22.79424,-0.05351984,0.39227,1.02463
166.676,22.86124,-0.0548503,0.39568,1.02435
167.376,22.92833,-0.05485,0.39897,1.02406
168.076,22.9955,-0.05485,0.40182,1.02377
168.776,23.06267,-0.05485,0.40166,1.02349
169.476,23.1301,-0.0548497,0.40816,1.0232
170.176,23.19744,-0.05420728,0.40985,1.02291
170.876,23.26465,-0.05556261,0.41339,1.02262
171.576,23.33175,-0.05681859,0.41758,1.02233
172.276,23.39865,-0.05682,0.42003,1.02204
172.976,23.4659,-0.05682,0.42448,1.02175
173.676,23.53291,-0.05682168,0.42717,1.02145
174.376,23.60004,-0.05944967,0.43012,1.02116
175.076,23.66715,-0.06015768,0.43385,1.02087
175.776,23.73402,-0.06076001,0.43619,1.02057
176.476,23.8012,-0.06070136,0.43969,1.02027
177.176,23.86798,-0.06010694,0.44641,1.01998
177.876,23.93514,-0.0614334,0.45085,1.01968
178.576,24.00219,-0.06159653,0.45428,1.01938
179.276,24.06951,-0.06274,0.45701,1.01908
179.976,24.137,-0.06273998,0.46062,1.01878
180.676,24.2041,-0.06288905,0.4647,1.01848
181.376,24.27101,-0.0643722,0.46939,1.01818
182.076,24.33786,-0.06570311,0.4749,1.01788
182.776,24.4051,-0.06801487,0.47782,1.01758
183.476,24.47234,-0.0685692,0.48279,1.01727
184.176,24.5397,-0.06933015,0.48676,1.01697
184.876,24.60666,-0.07063085,0.49159,1.01666
185.576,24.67362,-0.07064003,0.4973,1.01636
186.276,24.74054,-0.0726926,0.49907,1.01605
186.976,24.80762,-0.07440515,0.50563,1.01575
187.676,24.8746,-0.0756046,0.5087,1.01544
188.376,24.94151,-0.0766932,0.51627,1.01513
189.076,25.00845,-0.07854013,0.51767,1.01482
189.776,25.07548,-0.07848924,0.5249,1.01451
190.476,25.14249,-0.07980527,0.52686,1.0142
191.176,25.20946,-0.08050868,0.53167,1.01389
191.876,25.27636,-0.08112561,0.53708,1.01357
192.576,25.3432,-0.08338402,0.54229,1.01326
193.276,25.4101,-0.08446556,0.54594,1.01295
193.976,25.47704,-0.08707326,0.55273,1.01263
194.676,25.54403,-0.08843473,0.55715,1.01232
195.376,25.61107,-0.08972857,0.56272,1.012
196.076,25.6781,-0.09104082,0.56824,1.01168
196.776,25.7452,-0.0923601,0.57291,1.01137
197.476,25.81221,-0.09367681,0.5763,1.01105
198.176,25.87922,-0.09498711,0.58249,1.01073
198.876,25.94618,-0.09729144,0.58505,1.01041
199.576,26.013,-0.09910415,0.58935,1.01009
200.276,26.07982,-0.10168,0.59267,1.00977
200.976,26.1468,-0.10339,0.59945,1.00944
201.676,26.21378,-0.10706,0.60274,1.00912
202.376,26.28091,-0.10825,0.60766,1.0088
203.076,26.3478,-0.10965,0.61118,1.00847
203.776,26.4147,-0.11057,0.61602,1.00815
204.476,26.4815,-0.11189,0.6217,1.00782
205.176,26.54832,-0.11313,0.62223,1.0075
205.876,26.61508,-0.11613,0.62847,1.00717
206.576,26.68181,-0.11979,0.63412,1.00684
207.276,26.74877,-0.12189,0.63527,1.00651
207.976,26.81578,-0.12297,0.64004,1.00618
208.676,26.8827,-0.1249,0.64039,1.00586
209.376,26.94916,-0.12701,0.64329,1.00552
210.076,27.01582,-0.12703,0.64376,1.00519
210.776,27.08261,-0.12857,0.64737,1.00486
211.476,27.1494,-0.13238,0.64966,1.00453
212.176,27.21616,-0.13392,0.65036,1.00419
212.876,27.28293,-0.13576,0.65145,1.00386
213.576,27.3498,-0.13862,0.65122,1.00353
214.276,27.4164,-0.14282,0.65181,1.00319
214.976,27.4832,-0.14575,0.6561,1.00285
215.676,27.5499,-0.14709,0.65452,1.00252
216.376,27.61672,-0.15062,0.65239,1.00218
217.076,27.68352,-0.15268,0.65161,1.00184
217.776,27.7503,-0.15269,0.6524,1.0015
218.476,27.8171,-0.15413,0.65132,1.00116
219.176,27.8839,-0.15782,0.6509,1.00082
219.876,27.9506,-0.16092,0.65104,1.00048
220.576,28.01745,-0.16236,0.64682,1.00014
221.276,28.08408,-0.16529,0.64782,0.99979
221.976,28.15098,-0.16537,0.64624,0.99945
222.676,28.2177,-0.16685,0.64594,0.99911
223.376,28.28453,-0.17129,0.64414,0.99876
224.076,28.35105,-0.17388,0.64103,0.99842
224.776,28.4177,-0.1781,0.64057,0.99807
225.476,28.4842,-0.17948,0.63867,0.99772
226.176,28.5508,-0.18082,0.63754,0.99738
226.876,28.61747,-0.18348,0.63335,0.99703
227.576,28.6842,-0.18644,0.63319,0.99668
228.276,28.75102,-0.18959,0.62979,0.99633
228.976,28.81796,-0.19294,0.62951,0.99598
229.676,28.88488,-0.19462,0.62688,0.99563
230.376,28.95167,-0.19695,0.62525,0.99528
231.076,29.01851,-0.2,0.62079,0.99492
231.776,29.08545,-0.20364,0.62173,0.99457
232.476,29.15226,-0.20598,0.61964,0.99422
233.176,29.219,-0.20896,0.61803,0.99386
233.876,29.2856,-0.21078,0.61748,0.99351
234.576,29.3525,-0.21322,0.61488,0.99315
235.276,29.4196,-0.21692,0.61311,0.9928
235.976,29.4866,-0.21919,0.60974,0.99244
236.676,29.55337,-0.22181,0.6069,0.99208
237.376,29.62003,-0.2242,0.60342,0.99172
238.076,29.687,-0.22682,0.60418,0.99136
238.776,29.754,-0.23053,0.60397,0.991
239.476,29.82108,-0.23286,0.60014,0.99064
240.176,29.8879,-0.23644,0.5966,0.99028
240.876,29.95448,-0.23995,0.59436,0.98992
241.576,30.0213,-0.24308,0.59048,0.98956
242.276,30.08815,-0.24629,0.58987,0.98919
242.976,30.15506,-0.2478,0.59018,0.98883
243.676,30.2217,-0.25134,0.58812,0.98846
244.376,30.2883,-0.25431,0.58663,0.9881
245.076,30.3548,-0.25761,0.58207,0.98773
245.776,30.4215,-0.26174,0.583,0.98737
246.476,30.48837,-0.26208,0.58197,0.987
247.176,30.555,-0.268,0.58067,0.98663
247.876,30.6219,-0.27166,0.57895,0.98626
248.576,30.68845,-0.27594,0.57686,0.98589
249.276,30.7552,-0.27906,0.57322,0.98552
249.976,30.8217,-0.28195,0.57171,0.98515
250.676,30.8883,-0.285,0.57259,0.98478
251.376,30.9548,-0.28934,0.56964,0.98441
252.076,31.0214,-0.29209,0.56779,0.98404
252.776,31.08803,-0.29648,0.56285,0.98367
253.476,31.1547,-0.30164,0.56107,0.98329
254.176,31.22113,-0.3047,0.55832,0.98292
254.876,31.288,-0.30966,0.55692,0.98254
255.576,31.35496,-0.31355,0.55454,0.98217
256.276,31.4222,-0.31846,0.55229,0.98179
256.976,31.48912,-0.32354,0.54839,0.98141
257.676,31.5557,-0.32667,0.54659,0.98104
258.376,31.62235,-0.33136,0.54208,0.98066
259.076,31.68908,-0.33656,0.53743,0.98028
259.776,31.7558,-0.34145,0.53205,0.9799
260.476,31.82232,-0.3468,0.52982,0.97952
261.176,31.8892,-0.35091,0.52785,0.97914
261.876,31.956,-0.35708,0.52406,0.97876
262.576,32.02303,-0.36127,0.52052,0.97837
263.276,32.08964,-0.36427,0.51503,0.97799
263.976,32.15631,-0.36962,0.51321,0.97761
264.676,32.22292,-0.3753,0.50894,0.97722
265.376,32.2896,-0.3819,0.50714,0.97684
266.076,32.3564,-0.38743,0.50342,0.97645
266.776,32.423,-0.39287,0.50022,0.97607
267.476,32.48973,-0.39967,0.49675,0.97568
268.176,32.55653,-0.40546,0.49412,0.97529
268.876,32.6234,-0.40984,0.48687,0.97491
269.576,32.6902,-0.41585,0.48528,0.97452
270.276,32.75717,-0.42267,0.48123,0.97413
270.976,32.82419,-0.42928,0.47573,0.97374
271.676,32.89103,-0.43503,0.47145,0.97335
272.376,32.95791,-0.44409,0.46912,0.97296
273.076,33.0248,-0.45085,0.4634,0.97257
273.776,33.09178,-0.45538,0.46055,0.97217
274.476,33.15868,-0.46274,0.45501,0.97178
275.176,33.22555,-0.46896,0.45425,0.97139
275.876,33.2923,-0.47668,0.44797,0.97099
276.576,33.35927,-0.48538,0.44452,0.9706
277.276,33.4261,-0.49186,0.44026,0.9702
277.976,33.49324,-0.49911,0.43476,0.96981
278.676,33.56022,-0.50667,0.43426,0.96941
279.376,33.6272,-0.51435,0.4292,0.96901
280.076,33.69429,-0.52193,0.42532,0.96861
280.776,33.7611,-0.53119,0.42104,0.96822
281.476,33.8281,-0.54103,0.41714,0.96782
282.176,33.89503,-0.54911,0.41327,0.96742
282.876,33.96196,-0.55707,0.40986,0.96702
283.576,34.0289,-0.56405,0.40485,0.96662
284.276,34.09568,-0.57447,0.40248,0.96621
284.976,34.1626,-0.58259,0.39909,0.96581
285.676,34.22951,-0.59179,0.39343,0.96541
286.376,34.29635,-0.59994,0.39235,0.96501
287.076,34.36319,-0.61056,0.38899,0.9646
287.776,34.42991,-0.61917,0.38308,0.9642
288.476,34.4967,-0.62765,0.37758,0.96379
289.176,34.56361,-0.63836,0.37691,0.96339
289.876,34.6306,-0.64711,0.37298,0.96298
290.576,34.69761,-0.65537,0.36941,0.96257
291.276,34.76477,-0.66821,0.36425,0.96217
291.976,34.83177,-0.67854,0.36288,0.96176
292.676,34.8987,-0.68799,0.35878,0.96135
293.376,34.9655,-0.69729,0.35641,0.96094
294.076,35.03222,-0.70802,0.35401,0.96053
294.776,35.09877,-0.71801,0.34954,0.96012
295.476,35.16539,-0.72875,0.34828,0.95971
296.176,35.23284,-0.73796,0.34552,0.9593
296.876,35.3003,-0.74726,0.34473,0.95889
297.576,35.36806,-0.75975,0.34141,0.95847
298.276,35.43526,-0.76989,0.33932,0.95806
298.976,35.50241,-0.78228,0.34224,0.95765
299.676,35.56946,-0.79287,0.33884,0.95723
300.376,35.63645,-0.80572,0.3348,0.95682
301.076,35.70357,-0.8172,0.33422,0.9564
301.776,35.7705,-0.82787,0.33689,0.95598
302.476,35.83748,-0.83994,0.33462,0.95557
303.176,35.90459,-0.85114,0.3337,0.95515
303.876,35.97172,-0.86252,0.33505,0.95473
304.576,36.0389,-0.87418,0.33426,0.95431
305.276,36.106,-0.88647,0.33478,0.95389
305.976,36.17326,-0.9003,0.33386,0.95347
306.676,36.24038,-0.91091,0.33334,0.95305
307.376,36.30753,-0.92352,0.33817,0.95263
308.076,36.3746,-0.93411,0.33651,0.95221
308.776,36.4417,-0.94783,0.33724,0.95179
309.476,36.50888,-0.95977,0.34104,0.95137
310.176,36.57607,-0.97099,0.34066,0.95094
310.876,36.64329,-0.98496,0.33955,0.95052
311.576,36.71046,-0.99833,0.34202,0.95009
312.276,36.7776,-1.00895,0.34364,0.94967
312.976,36.84479,-1.02276,0.34512,0.94924
313.676,36.91214,-1.03649,0.34772,0.94882
314.376,36.97934,-1.04745,0.349,0.94839
315.076,37.04663,-1.06093,0.35159,0.94796
315.776,37.1138,-1.07499,0.35247,0.94754
316.476,37.18128,-1.08862,0.35606,0.94711
317.176,37.24876,-1.10209,0.35714,0.94668
317.876,37.3161,-1.11559,0.36019,0.94625
318.576,37.3833,-1.12893,0.36149,0.94582
319.276,37.45042,-1.14238,0.36321,0.94539
319.976,37.51805,-1.157,0.36771,0.94496
320.676,37.58559,-1.1704,0.36894,0.94453
321.376,37.65307,-1.18458,0.37011,0.94409
322.076,37.72033,-1.1998,0.37254,0.94366
322.776,37.78776,-1.21421,0.37644,0.94323
323.476,37.85536,-1.22937,0.38024,0.94279
324.176,37.9227,-1.24507,0.38399,0.94236
324.876,37.9901,-1.25922,0.38571,0.94192
325.576,38.0574,-1.27612,0.38862,0.94149
326.276,38.12484,-1.29007,0.3904,0.94105
326.976,38.19195,-1.30719,0.39544,0.94062
327.676,38.25913,-1.32357,0.3969,0.94018
328.376,38.326,-1.33803,0.39945,0.93974
329.076,38.39314,-1.35448,0.40269,0.9393
329.776,38.46024,-1.37081,0.40632,0.93886
330.476,38.52762,-1.38726,0.4108,0.93843
331.176,38.59509,-1.40458,0.41344,0.93799
331.876,38.66268,-1.42292,0.41257,0.93755
332.576,38.73019,-1.44013,0.41836,0.9371
333.276,38.79781,-1.45643,0.42264,0.93666
333.976,38.86529,-1.47453,0.42369,0.93622
334.676,38.93284,-1.49254,0.42838,0.93578
335.376,39.00029,-1.51067,0.43222,0.93534
336.076,39.0683,-1.52933,0.43317,0.93489
336.776,39.13635,-1.54778,0.43976,0.93445
337.476,39.2045,-1.56616,0.44307,0.934
338.176,39.2722,-1.58688,0.4456,0.93356
338.876,39.3399,-1.60742,0.44817,0.93311
339.576,39.40742,-1.62726,0.45228,0.93267
340.276,39.47502,-1.64715,0.45663,0.93222
340.976,39.54274,-1.66833,0.45677,0.93177
341.676,39.61051,-1.68803,0.45936,0.93132
342.376,39.67832,-1.70849,0.46255,0.93088
343.076,39.74606,-1.72941,0.46474,0.93043
343.776,39.8136,-1.75224,0.46687,0.92998
344.476,39.88122,-1.77105,0.46805,0.92953
345.176,39.9488,-1.79517,0.47148,0.92908
345.876,40.0167,-1.81732,0.47222,0.92863
346.576,40.0845,-1.83898,0.47417,0.92818
347.276,40.15234,-1.86091,0.47418,0.92772
347.976,40.22007,-1.88366,0.47715,0.92727
348.676,40.28758,-1.90679,0.47703,0.92682
349.376,40.35515,-1.9307,0.47613,0.92636
350.076,40.4227,-1.95384,0.47556,0.92591
350.776,40.49041,-1.97594,0.47335,0.92546
351.476,40.5583,-1.99715,0.47396,0.925
352.176,40.62618,-2.0201,0.4718,0.92455
352.876,40.69403,-2.04301,0.46902,0.92409
353.576,40.76177,-2.06498,0.46418,0.92363
354.276,40.82926,-2.08866,0.46212,0.92318
354.976,40.89696,-2.11137,0.45688,0.92272
355.676,40.96432,-2.1328,0.45282,0.92226
356.376,41.03229,-2.15562,0.44562,0.9218
357.076,41.1002,-2.17798,0.4395,0.92134
357.776,41.16814,-2.19889,0.43297,0.92088
358.476,41.23595,-2.21653,0.42382,0.92042
359.176,41.30303,-2.23642,0.41684,0.91996
359.876,41.37048,-2.25739,0.40394,0.9195
360.576,41.43777,-2.27618,0.3981,0.91904
361.276,41.5056,-2.29451,0.38941,0.91858
361.976,41.57338,-2.30979,0.37716,0.91812
362.676,41.64105,-2.32507,0.36887,0.91765
363.376,41.70881,-2.34063,0.35784,0.91719
364.076,41.77652,-2.35502,0.34742,0.91673
364.776,41.84427,-2.37045,0.33797,0.91626
365.476,41.91207,-2.38237,0.32728,0.9158
366.176,41.9797,-2.39234,0.31908,0.91533
366.876,42.04743,-2.40428,0.31027,0.91486
367.576,42.11542,-2.41282,0.30194,0.9144
368.276,42.18367,-2.42211,0.29311,0.91393
368.976,42.2519,-2.42874,0.28596,0.91346
369.676,42.31992,-2.43623,0.28057,0.913
370.376,42.38775,-2.44325,0.27903,0.91253
371.076,42.4557,-2.44799,0.27616,0.91206
371.776,42.52347,-2.45463,0.27119,0.91159
372.476,42.5912,-2.45885,0.26465,0.91112
373.176,42.65894,-2.46405,0.2635,0.91065
373.876,42.7267,-2.46707,0.25972,0.91018
374.576,42.79446,-2.47079,0.25643,0.90971
375.276,42.86228,-2.47662,0.25487,0.90924
375.976,42.9301,-2.47991,0.25101,0.90876
376.676,42.99819,-2.48342,0.24916,0.90829
377.376,43.0661,-2.48624,0.25138,0.90782
378.076,43.13415,-2.48947,0.24666,0.90735
378.776,43.2021,-2.49498,0.2423,0.90687
379.476,43.27022,-2.4969,0.24207,0.9064
380.176,43.33826,-2.49848,0.23994,0.90592
380.876,43.40632,-2.50089,0.23925,0.90545
381.576,43.47404,-2.50194,0.23863,0.90497
382.276,43.54186,-2.5054,0.23603,0.90449
382.976,43.6096,-2.50901,0.23694,0.90402
383.676,43.6774,-2.51246,0.2356,0.90354
384.376,43.74553,-2.51527,0.23464,0.90306
385.076,43.81361,-2.519,0.23001,0.90258
385.776,43.88171,-2.52111,0.23158,0.90211
386.476,43.94945,-2.52411,0.23179,0.90163
387.176,44.01736,-2.52595,0.22925,0.90115
387.876,44.08529,-2.52932,0.22617,0.90067
388.576,44.15343,-2.53173,0.23022,0.90019
389.276,44.22144,-2.53451,0.2306,0.89971
389.976,44.28955,-2.53748,0.23036,0.89922
390.676,44.35758,-2.5389,0.2274,0.89874
391.376,44.42566,-2.54117,0.22638,0.89826
392.076,44.4937,-2.5444,0.22434,0.89778
392.776,44.56192,-2.54585,0.22476,0.89729
393.476,44.63002,-2.54834,0.22482,0.89681
394.176,44.69823,-2.55039,0.22318,0.89633
394.876,44.7663,-2.55271,0.224,0.89584
395.576,44.83444,-2.55576,0.22109,0.89536
396.276,44.90273,-2.55849,0.22025,0.89487
396.976,44.9711,-2.56154,0.22014,0.89439
397.676,45.0393,-2.56434,0.21954,0.8939
398.376,45.10767,-2.56685,0.21552,0.89341
399.076,45.17581,-2.5682,0.2177,0.89293
399.776,45.2442,-2.56949,0.21742,0.89244
400.476,45.3125,-2.57159,0.21718,0.89195
401.176,45.38077,-2.57524,0.21503,0.89146
401.876,45.44919,-2.5779,0.21437,0.89097
402.576,45.51771,-2.58014,0.21302,0.89048
403.276,45.58643,-2.58343,0.21559,0.88999
403.976,45.65488,-2.58493,0.21667,0.8895
404.676,45.72306,-2.58662,0.21576,0.88901
405.376,45.7908,-2.58959,0.2159,0.88852
406.076,45.85886,-2.5909,0.21566,0.88803
406.776,45.92712,-2.59367,0.21687,0.88754
407.476,45.9956,-2.59616,0.21449,0.88705
408.176,46.064,-2.59741,0.21838,0.88655
408.876,46.13212,-2.60013,0.21963,0.88606
409.576,46.20037,-2.60023,0.21847,0.88557
410.276,46.26855,-2.60299,0.21943,0.88507
410.976,46.33676,-2.6046,0.21867,0.88458
411.676,46.4048,-2.60721,0.22026,0.88408
412.376,46.47292,-2.61067,0.21991,0.88359
413.076,46.54116,-2.61285,0.22044,0.88309
413.776,46.6094,-2.61351,0.22107,0.8826
414.476,46.6776,-2.61617,0.22133,0.8821
415.176,46.74581,-2.61852,0.21999,0.8816
415.876,46.81398,-2.62146,0.2215,0.88111
416.576,46.88199,-2.62337,0.22266,0.88061
417.276,46.9501,-2.62469,0.2209,0.88011
417.976,47.01834,-2.62733,0.22457,0.87961
418.676,47.08663,-2.62902,0.22614,0.87911
419.376,47.1547,-2.6312,0.22333,0.87861
420.076,47.2228,-2.6327,0.22513,0.87811
420.776,47.29115,-2.63498,0.22739,0.87761
421.476,47.35965,-2.63784,0.23078,0.87711
422.176,47.428,-2.64032,0.23234,0.87661
422.876,47.49623,-2.64186,0.23079,0.87611
423.576,47.56447,-2.64427,0.23265,0.87561
424.276,47.6325,-2.64598,0.23382,0.87511
424.976,47.70082,-2.64596,0.23351,0.8746
425.676,47.76914,-2.64786,0.23384,0.8741
426.376,47.83777,-2.65199,0.23655,0.8736
427.076,47.90616,-2.65459,0.2369,0.87309
427.776,47.97448,-2.65345,0.23861,0.87259
428.476,48.0431,-2.65564,0.24045,0.87208
429.176,48.11156,-2.65737,0.23912,0.87158
429.876,48.1802,-2.66012,0.24227,0.87107
430.576,48.2487,-2.66277,0.24578,0.87057
431.276,48.3171,-2.66686,0.24677,0.87006
431.976,48.3855,-2.66554,0.24552,0.86955
432.676,48.45398,-2.66646,0.2478,0.86905
433.376,48.52274,-2.66821,0.24835,0.86854
434.076,48.59154,-2.67122,0.24952,0.86803
434.776,48.6602,-2.67317,0.25008,0.86752
435.476,48.7288,-2.67317,0.25224,0.86702
436.176,48.79746,-2.67508,0.25464,0.86651
436.876,48.8664,-2.67763,0.25326,0.866
437.576,48.93505,-2.68053,0.25326,0.86549
438.276,49.00391,-2.6827,0.25769,0.86498
438.976,49.07251,-2.68411,0.255,0.86447
439.676,49.1413,-2.68409,0.25515,0.86396
440.376,49.20981,-2.68466,0.25694,0.86344
441.076,49.27852,-2.68671,0.25947,0.86293
441.776,49.34715,-2.69047,0.2601,0.86242
442.476,49.41587,-2.69171,0.26069,0.86191
443.176,49.48442,-2.69353,0.26468,0.8614
443.876,49.55288,-2.69445,0.26608,0.86088
444.576,49.62143,-2.69577,0.26522,0.86037
445.276,49.68998,-2.6984,0.26839,0.85986
445.976,49.75865,-2.6998,0.26919,0.85934
446.676,49.82721,-2.70222,0.27207,0.85883
447.376,49.89584,-2.703,0.27201,0.85831
448.076,49.96416,-2.70565,0.27435,0.8578
448.776,50.03284,-2.70704,0.2757,0.85728
449.476,50.1015,-2.70785,0.27433,0.85676
450.176,50.17047,-2.7099,0.27761,0.85625
450.876,50.23927,-2.71122,0.27547,0.85573
451.576,50.3079,-2.71114,0.27406,0.85521
452.276,50.37666,-2.71254,0.27722,0.8547
452.976,50.44542,-2.71387,0.27874,0.85418
453.676,50.51423,-2.71616,0.27928,0.85366
454.376,50.5831,-2.71914,0.27988,0.85314
455.076,50.65182,-2.72041,0.2815,0.85262
455.776,50.7207,-2.72175,0.28215,0.8521
456.476,50.78944,-2.72176,0.28047,0.85158
457.176,50.85835,-2.723,0.28506,0.85106
457.876,50.92708,-2.72434,0.28535,0.85054
458.576,50.99589,-2.72705,0.28784,0.85002
459.276,51.06463,-2.72837,0.28762,0.8495
459.976,51.13355,-2.72897,0.28929,0.84898
460.676,51.20258,-2.73018,0.29135,0.84846
461.376,51.27163,-2.7327,0.29367,0.84794
462.076,51.3407,-2.73387,0.29256,0.84741
462.776,51.41001,-2.73514,0.29485,0.84689
463.476,51.4786,-2.736,0.29474,0.84637
464.176,51.5471,-2.73764,0.29515,0.84584
464.876,51.6162,-2.73883,0.29463,0.84532
465.576,51.6858,-2.7402,0.29894,0.8448
466.276,51.75567,-2.74034,0.29887,0.84427
466.976,51.82495,-2.74313,0.29886,0.84375
467.676,51.89419,-2.74304,0.29653,0.84322
468.376,51.96389,-2.74437,0.29869,0.8427
469.076,52.03331,-2.74563,0.29909,0.84217
469.776,52.103,-2.74933,0.301,0.84164
470.476,52.17215,-2.74919,0.29969,0.84112
471.176,52.24142,-2.74929,0.30074,0.84059
471.876,52.3106,-2.75133,0.30332,0.84006
472.576,52.37942,-2.75434,0.30454,0.83954
473.276,52.4487,-2.75434,0.30362,0.83901
473.976,52.518,-2.75566,0.30614,0.83848
474.676,52.5878,-2.75696,0.30594,0.83795
475.376,52.6569,-2.75699,0.30565,0.83742
476.076,52.72625,-2.75824,0.3065,0.83689
476.776,52.79511,-2.76091,0.30455,0.83636
477.476,52.8642,-2.76222,0.30732,0.83583
478.176,52.9332,-2.76355,0.30769,0.8353
478.876,53.0025,-2.76366,0.30858,0.83477
479.576,53.0715,-2.76596,0.30907,0.83424
480.276,53.1403,-2.76619,0.30925,0.83371
480.976,53.2092,-2.76618,0.31017,0.83318
481.676,53.2783,-2.76605,0.31249,0.83265
482.376,53.3475,-2.76749,0.3115,0.83212
483.076,53.41664,-2.76879,0.31261,0.83158
483.776,53.4856,-2.77148,0.31217,0.83105
484.476,53.5546,-2.77277,0.31817,0.83052
485.176,53.62336,-2.77428,0.31522,0.82998
485.876,53.6923,-2.77683,0.31599,0.82945
486.576,53.7608,-2.77814,0.31972,0.82892
487.276,53.8292,-2.77814,0.31899,0.82838
487.976,53.89755,-2.77943,0.32197,0.82785
488.676,53.96618,-2.78075,0.32324,0.82731
489.376,54.03501,-2.78209,0.32479,0.82678
490.076,54.1039,-2.78339,0.3273,0.82624
490.776,54.17278,-2.78325,0.33187,0.8257
491.476,54.2417,-2.7834,0.33004,0.82517
492.176,54.31081,-2.78578,0.33323,0.82463
492.876,54.3804,-2.78602,0.33269,0.82409
493.576,54.4499,-2.78602,0.33538,0.82356
494.276,54.5196,-2.78866,0.33497,0.82302
494.976,54.58895,-2.78998,0.33898,0.82248
495.676,54.6584,-2.78864,0.33812,0.82194
496.376,54.72775,-2.79077,0.33616,0.82141
497.076,54.79713,-2.79258,0.33848,0.82087
497.776,54.8665,-2.79226,0.33903,0.82033
498.476,54.9362,-2.79397,0.34212,0.81979
499.176,55.00594,-2.7956,0.3437,0.81925
499.876,55.07561,-2.79689,0.34428,0.81871
500.576,55.14541,-2.79689,0.34448,0.81817
501.276,55.21495,-2.7983,0.34706,0.81763
501.976,55.2843,-2.7982,0.345,0.81709
502.676,55.35351,-2.79952,0.34849,0.81655
503.376,55.42286,-2.80083,0.35127,0.81601
504.076,55.4928,-2.80216,0.35109,0.81546
504.776,55.56247,-2.80347,0.34941,0.81492
505.476,55.6323,-2.80478,0.35385,0.81438
506.176,55.702,-2.80494,0.35319,0.81384
506.876,55.77199,-2.80625,0.3543,0.8133
507.576,55.84157,-2.80705,0.35597,0.81275
508.276,55.9113,-2.80742,0.35595,0.81221
508.976,55.9808,-2.80873,0.35733,0.81167
509.676,56.0512,-2.80873,0.35754,0.81112
510.376,56.12125,-2.80945,0.35646,0.81058
511.076,56.19158,-2.81005,0.3617,0.81003
511.776,56.26115,-2.81135,0.3624,0.80949
512.476,56.3309,-2.81268,0.36008,0.80894
513.176,56.40036,-2.814,0.36055,0.8084
513.876,56.4699,-2.81432,0.36441,0.80785
514.576,56.53935,-2.81531,0.36192,0.80731
515.276,56.6089,-2.81664,0.36476,0.80676
515.976,56.6783,-2.81783,0.36375,0.80621
516.676,56.7475,-2.81795,0.36303,0.80567
517.376,56.8169,-2.81925,0.3615,0.80512
518.076,56.8864,-2.81926,0.3627,0.80457
518.776,56.95601,-2.81926,0.35818,0.80403
519.476,57.02548,-2.82053,0.35477,0.80348
520.176,57.09483,-2.8219,0.35236,0.80293
520.876,57.1643,-2.82322,0.34984,0.80238
521.576,57.2337,-2.82352,0.34943,0.80183
522.276,57.3032,-2.82357,0.34833,0.80128
522.976,57.3726,-2.82487,0.34887,0.80074
523.676,57.4419,-2.82748,0.34565,0.80019
524.376,57.5115,-2.82749,0.34383,0.79964
525.076,57.5809,-2.82748,0.34443,0.79909
525.776,57.65065,-2.8288,0.34316,0.79854
526.476,57.72015,-2.82914,0.34214,0.79799
527.176,57.7899,-2.83012,0.34234,0.79744
527.876,57.85944,-2.83144,0.33836,0.79688
528.576,57.92896,-2.83402,0.34087,0.79633
529.276,57.99856,-2.83407,0.34047,0.79578
529.976,58.0681,-2.83407,0.33931,0.79523
530.676,58.13788,-2.83575,0.33914,0.79468
531.376,58.2076,-2.8362,0.34114,0.79413
532.076,58.2774,-2.83675,0.34113,0.79357
532.776,58.34704,-2.83675,0.33959,0.79302
533.476,58.4166,-2.83801,0.34119,0.79247
534.176,58.48608,-2.83933,0.33977,0.79191
534.876,58.5559,-2.83933,0.3387,0.79136
535.576,58.62574,-2.83933,0.34076,0.79081
536.276,58.6955,-2.84042,0.33979,0.79025
536.976,58.76492,-2.84065,0.3374,0.7897
537.676,58.8345,-2.84061,0.33861,0.78915
538.376,58.90426,-2.84066,0.33832,0.78859
539.076,58.9741,-2.84329,0.33865,0.78804
539.776,59.0439,-2.84328,0.33716,0.78748
540.476,59.1136,-2.8446,0.33749,0.78693
541.176,59.18337,-2.8459,0.34159,0.78637
541.876,59.2531,-2.84591,0.33767,0.78581
542.576,59.32266,-2.846,0.33747,0.78526
543.276,59.39229,-2.84592,0.33904,0.7847
543.976,59.4619,-2.84863,0.33998,0.78414
544.676,59.5316,-2.84993,0.34147,0.78359
545.376,59.6013,-2.84986,0.33748,0.78303
546.076,59.6709,-2.85123,0.33972,0.78247
546.776,59.7407,-2.84991,0.34042,0.78192
547.476,59.8104,-2.85122,0.33841,0.78136
548.176,59.88009,-2.8525,0.33994,0.7808
548.876,59.9498,-2.85348,0.3426,0.78024
549.576,60.01953,-2.85532,0.34077,0.77968
550.276,60.08947,-2.85512,0.33955,0.77913
550.976,60.1592,-2.85381,0.33925,0.77857
551.676,60.22889,-2.85381,0.34129,0.77801
552.376,60.29857,-2.85513,0.33879,0.77745
553.076,60.3686,-2.85513,0.34112,0.77689
553.776,60.43864,-2.85513,0.34002,0.77633
554.476,60.5088,-2.85645,0.34462,0.77577
555.176,60.5786,-2.85645,0.3402,0.77521
555.876,60.64844,-2.85697,0.34278,0.77465
556.576,60.7182,-2.8591,0.34114,0.77409
557.276,60.78835,-2.85908,0.33955,0.77353
557.976,60.85841,-2.8604,0.34341,0.77297
558.676,60.92861,-2.86303,0.34155,0.7724
559.376,60.99872,-2.86303,0.34495,0.77184
560.076,61.06896,-2.86023,0.34251,0.77128
560.776,61.1391,-2.86272,0.3458,0.77072
561.476,61.2091,-2.86457,0.34578,0.77016
562.176,61.279,-2.86453,0.34335,0.76959
562.876,61.34899,-2.86586,0.34183,0.76903
563.576,61.4191,-2.86588,0.34314,0.76847
564.276,61.4893,-2.8672,0.34292,0.76791
564.976,61.5594,-2.8672,0.34187,0.76734
565.676,61.6293,-2.86851,0.34169,0.76678
566.376,61.6991,-2.86851,0.34413,0.76622
567.076,61.7691,-2.86849,0.34427,0.76565
567.776,61.839,-2.86983,0.34644,0.76509
568.476,61.9089,-2.86983,0.34208,0.76452
569.176,61.97869,-2.87019,0.34448,0.76396
569.876,62.04865,-2.87171,0.34333,0.76339
570.576,62.1185,-2.87272,0.34433,0.76283
571.276,62.18826,-2.87325,0.34313,0.76226
571.976,62.25801,-2.87334,0.34508,0.7617
572.676,62.32767,-2.87359,0.34663,0.76113
573.376,62.39751,-2.87498,0.34425,0.76057
574.076,62.4671,-2.87368,0.33977,0.76
574.776,62.53691,-2.87369,0.34383,0.75944
575.476,62.6066,-2.87499,0.34865,0.75887
576.176,62.6766,-2.87498,0.34422,0.7583
576.876,62.74637,-2.8763,0.34652,0.75774
577.576,62.8162,-2.87759,0.3458,0.75717
578.276,62.88604,-2.87893,0.34554,0.7566
578.976,62.95593,-2.87828,0.34653,0.75604
579.676,63.02587,-2.87818,0.34471,0.75547
580.376,63.09584,-2.87857,0.34527,0.7549
581.076,63.16596,-2.8799,0.34431,0.75433
581.776,63.23591,-2.88157,0.34307,0.75377
582.476,63.30579,-2.88166,0.34643,0.7532
583.176,63.3758,-2.88421,0.3431,0.75263
583.876,63.44576,-2.88109,0.34491,0.75206
584.576,63.51574,-2.87971,0.34677,0.75149
585.276,63.58574,-2.88144,0.34501,0.75092
585.976,63.6557,-2.88338,0.34513,0.75035
586.676,63.7257,-2.88376,0.3455,0.74979
587.376,63.7956,-2.88516,0.34563,0.74922
588.076,63.86563,-2.88507,0.34532,0.74865
588.776,63.93558,-2.88639,0.34409,0.74808
589.476,64.0056,-2.88543,0.34577,0.74751
590.176,64.07568,-2.88697,0.347,0.74694
590.876,64.14584,-2.88738,0.34639,0.74637
591.576,64.21584,-2.88849,0.34747,0.7458
592.276,64.28566,-2.88737,0.34497,0.74523
592.976,64.35566,-2.88831,0.34461,0.74466
593.676,64.42543,-2.88869,0.34744,0.74408
594.376,64.49547,-2.88869,0.3453,0.74351
595.076,64.56568,-2.88869,0.34566,0.74294
595.776,64.63625,-2.89001,0.34572,0.74237
596.476,64.7068,-2.89132,0.34734,0.7418
597.176,64.77701,-2.89132,0.34692,0.74123
597.876,64.84719,-2.89264,0.34467,0.74066
598.576,64.91733,-2.89329,0.34526,0.74008
599.276,64.98743,-2.89462,0.34678,0.73951
599.976,65.05753,-2.89539,0.34738,0.73894
600.676,65.12761,-2.89514,0.34545,0.73837
601.376,65.19779,-2.89428,0.35035,0.73779
602.076,65.26786,-2.89594,0.34782,0.73722
602.776,65.33802,-2.89725,0.34688,0.73665
603.476,65.40809,-2.89659,0.34581,0.73607
604.176,65.47831,-2.89652,0.348,0.7355
604.876,65.54852,-2.89791,0.34863,0.73493
605.576,65.6188,-2.89788,0.34913,0.73435
606.276,65.68899,-2.89922,0.34914,0.73378
606.976,65.75926,-2.89922,0.35199,0.73321
607.676,65.8296,-2.89989,0.35458,0.73263
608.376,65.89999,-2.89989,0.35326,0.73206
609.076,65.9704,-2.89988,0.35353,0.73148
609.776,66.04081,-2.90122,0.35083,0.73091
610.476,66.11115,-2.9012,0.35595,0.73033
611.176,66.18159,-2.90252,0.35195,0.72976
611.876,66.25171,-2.90252,0.35059,0.72918
612.576,66.32203,-2.90248,0.35471,0.72861
613.276,66.39225,-2.90383,0.35525,0.72803
613.976,66.46257,-2.90383,0.35816,0.72746
614.676,66.53275,-2.90515,0.35802,0.72688
615.376,66.60282,-2.90515,0.35958,0.72631
616.076,66.6734,-2.90515,0.36024,0.72573
616.776,66.74385,-2.90515,0.36574,0.72515
617.476,66.81439,-2.90646,0.36404,0.72458
618.176,66.88459,-2.90647,0.36462,0.724
618.876,66.95478,-2.90778,0.36573,0.72342
619.576,67.02494,-2.90915,0.36505,0.72285
620.276,67.0952,-2.90778,0.37116,0.72227
620.976,67.16546,-2.90919,0.37197,0.72169
621.676,67.23571,-2.90914,0.37372,0.72112
622.376,67.306,-2.90909,0.37221,0.72054
623.076,67.37634,-2.91048,0.37344,0.71996
623.776,67.44683,-2.9117,0.37316,0.71939
624.476,67.51733,-2.91173,0.37262,0.71881
625.176,67.5877,-2.91043,0.37332,0.71823
625.876,67.65808,-2.91042,0.37695,0.71765
626.576,67.7286,-2.91042,0.37447,0.71707
627.276,67.7988,-2.91173,0.37443,0.7165
627.976,67.86879,-2.91404,0.37477,0.71592
628.676,67.9389,-2.91401,0.37304,0.71534
629.376,68.0095,-2.91435,0.37667,0.71476
630.076,68.07995,-2.91469,0.37508,0.71418
630.776,68.15031,-2.91469,0.37566,0.7136
631.476,68.2207,-2.91535,0.37561,0.71303
632.176,68.29127,-2.91535,0.37639,0.71245
632.876,68.3619,-2.91666,0.37457,0.71187
633.576,68.43217,-2.91862,0.37851,0.71129
634.276,68.50245,-2.91864,0.37381,0.71071
634.976,68.57268,-2.91864,0.37725,0.71013
635.676,68.64321,-2.91746,0.37463,0.70955
636.376,68.71369,-2.91863,0.37812,0.70897
637.076,68.784,-2.91996,0.37475,0.70839
637.776,68.85405,-2.91998,0.37417,0.70781
638.476,68.92449,-2.92127,0.37295,0.70723
639.176,68.99504,-2.92127,0.37266,0.70665
639.876,69.06574,-2.9226,0.37065,0.70607
640.576,69.13614,-2.92259,0.37169,0.70549
641.276,69.2064,-2.9236,0.37128,0.70491
641.976,69.2766,-2.92391,0.37155,0.70433
642.676,69.34679,-2.92391,0.37005,0.70375
643.376,69.41707,-2.92488,0.37266,0.70317
644.076,69.48753,-2.92488,0.36793,0.70259
644.776,69.55802,-2.92621,0.3673,0.70201
645.476,69.62847,-2.92617,0.3672,0.70143
646.176,69.6986,-2.92752,0.36924,0.70084
646.876,69.7688,-2.92758,0.36492,0.70026
647.576,69.83917,-2.92785,0.36733,0.69968
648.276,69.90957,-2.92654,0.36477,0.6991
648.976,69.98004,-2.92785,0.36588,0.69852
649.676,70.05056,-2.92917,0.36418,0.69794
650.376,70.12108,-2.92917,0.36706,0.69736
651.076,70.19171,-2.93049,0.36744,0.69677
651.776,70.26219,-2.92913,0.36787,0.69619
652.476,70.3327,-2.93049,0.36881,0.69561
653.176,70.40318,-2.93116,0.36493,0.69503
653.876,70.4737,-2.93319,0.3671,0.69445
654.576,70.5441,-2.93316,0.3656,0.69386
655.276,70.6143,-2.93443,0.36312,0.69328
655.976,70.6847,-2.93443,0.36169,0.6927
656.676,70.75516,-2.93444,0.35743,0.69212
657.376,70.8256,-2.93312,0.36125,0.69153
658.076,70.8956,-2.93386,0.35802,0.69095
658.776,70.9659,-2.93411,0.35816,0.69037
659.476,71.03627,-2.93447,0.35701,0.68978
660.176,71.10681,-2.93549,0.35031,0.6892
660.876,71.1773,-2.93575,0.34974,0.68862
661.576,71.24781,-2.93574,0.34913,0.68803
662.276,71.31832,-2.93445,0.34895,0.68745
662.976,71.38835,-2.93575,0.34887,0.68687
663.676,71.45871,-2.93575,0.34777,0.68628
664.376,71.5291,-2.93575,0.34948,0.6857
665.076,71.6,-2.93575,0.34872,0.68512
665.776,71.67,-2.9374,0.35068,0.68453
666.476,71.74038,-2.93839,0.34791,0.68395
667.176,71.81064,-2.93839,0.35097,0.68337
667.876,71.8814,-2.93871,0.34715,0.68278
668.576,71.952,-2.93871,0.34978,0.6822
669.276,72.02234,-2.93871,0.35025,0.68161
669.976,72.093,-2.93871,0.35309,0.68103
670.676,72.1636,-2.94,0.34866,0.68045
671.376,72.23438,-2.94003,0.3541,0.67986
672.076,72.3048,-2.9414,0.35223,0.67928
672.776,72.37515,-2.94182,0.35116,0.67869
673.476,72.44577,-2.94233,0.35332,0.67811
674.176,72.5167,-2.94233,0.3541,0.67752
674.876,72.58723,-2.94233,0.35048,0.67694
675.576,72.6579,-2.94369,0.35075,0.67635
676.276,72.72853,-2.94233,0.35279,0.67577
676.976,72.7993,-2.94234,0.35219,0.67518
677.676,72.87,-2.94365,0.35332,0.6746
678.376,72.9405,-2.94496,0.35211,0.67401
679.076,73.01108,-2.94424,0.35418,0.67343
679.776,73.08176,-2.94397,0.35342,0.67284
680.476,73.1525,-2.94394,0.3539,0.67226
681.176,73.22321,-2.94496,0.3568,0.67167
681.876,73.29388,-2.94496,0.35512,0.67109
682.576,73.36457,-2.94529,0.35376,0.6705
683.276,73.43535,-2.94666,0.35341,0.66992
683.976,73.50612,-2.9467,0.3565,0.66933
684.676,73.577,-2.9476,0.3574,0.66875
685.376,73.6478,-2.94663,0.36158,0.66816
686.076,73.71849,-2.94628,0.36243,0.66758
686.776,73.7892,-2.94628,0.36089,0.66699
687.476,73.86006,-2.94694,0.36363,0.6664
688.176,73.93087,-2.9476,0.35963,0.66582
688.876,74.00152,-2.9476,0.36555,0.66523
689.576,74.0722,-2.9476,0.36373,0.66465
690.276,74.143,-2.94628,0.36207,0.66406
690.976,74.21389,-2.94628,0.36577,0.66347
691.676,74.28486,-2.94761,0.36846,0.66289
692.376,74.35559,-2.94824,0.36743,0.6623
693.076,74.42622,-2.94955,0.36717,0.66172
693.776,74.4967,-2.94829,0.3694,0.66113
694.476,74.56741,-2.9496,0.3688,0.66054
695.176,74.63837,-2.94957,0.371,0.65996
695.876,74.70926,-2.94957,0.37192,0.65937
696.576,74.78013,-2.94956,0.37412,0.65879
697.276,74.85093,-2.95023,0.37461,0.6582
697.976,74.92182,-2.95104,0.37381,0.65761
698.676,74.99261,-2.95158,0.37501,0.65703
699.376,75.06339,-2.95203,0.37799,0.65644
700.076,75.13426,-2.95122,0.37494,0.65585
700.776,75.20496,-2.95123,0.37506,0.65527
701.476,75.2756,-2.95181,0.38061,0.65468
702.176,75.3463,-2.95254,0.38036,0.65409
702.876,75.4171,-2.9538,0.3791,0.65351
703.576,75.48812,-2.95518,0.38231,0.65292
704.276,75.55906,-2.9551,0.38557,0.65233
704.976,75.63,-2.95516,0.38168,0.65175
705.676,75.70089,-2.95385,0.38131,0.65116
706.376,75.7718,-2.95385,0.38355,0.65057
707.076,75.8426,-2.95501,0.386,0.64999
707.776,75.91336,-2.95517,0.38203,0.6494
708.476,75.9842,-2.95544,0.38264,0.64881
709.176,76.05501,-2.95616,0.37999,0.64822
709.876,76.1259,-2.95486,0.38613,0.64764
710.576,76.19659,-2.95484,0.38406,0.64705
711.276,76.2675,-2.95533,0.38668,0.64646
711.976,76.33825,-2.95648,0.38593,0.64588
712.676,76.40902,-2.95648,0.38876,0.64529
713.376,76.47974,-2.95649,0.38763,0.6447
714.076,76.5504,-2.95516,0.38911,0.64412
714.776,76.62116,-2.95624,0.38867,0.64353
715.476,76.6919,-2.95778,0.39289,0.64294
716.176,76.76273,-2.95911,0.39035,0.64235
716.876,76.83357,-2.95779,0.39472,0.64177
717.576,76.90427,-2.95651,0.39222,0.64118
718.276,76.9749,-2.95779,0.3942,0.64059
718.976,77.0455,-2.9583,0.39491,0.64
719.676,77.11587,-2.95912,0.39558,0.63942
720.376,77.18655,-2.9598,0.39787,0.63883
721.076,77.25723,-2.96179,0.39613,0.63824
721.776,77.32814,-2.96094,0.4005,0.63766
722.476,77.39899,-2.96043,0.39226,0.63707
723.176,77.4696,-2.96138,0.39738,0.63648
723.876,77.54029,-2.96174,0.40195,0.63589
724.576,77.6108,-2.96214,0.4011,0.63531
725.276,77.68155,-2.96196,0.40126,0.63472
725.976,77.7521,-2.96108,0.40364,0.63413
726.676,77.8231,-2.96249,0.40187,0.63354
727.376,77.89398,-2.96104,0.40373,0.63296
728.076,77.96522,-2.96109,0.40773,0.63237
728.776,78.0359,-2.96249,0.40902,0.63178
729.476,78.10624,-2.96241,0.40898,0.6312
730.176,78.17705,-2.96241,0.40757,0.63061
730.876,78.2481,-2.96371,0.4091,0.63002
731.576,78.31945,-2.96372,0.40609,0.62943
732.276,78.3902,-2.96372,0.40916,0.62885
732.976,78.46096,-2.96438,0.40823,0.62826
733.676,78.5317,-2.96438,0.41042,0.62767
734.376,78.60243,-2.96452,0.40894,0.62708
735.076,78.67312,-2.9649,0.40891,0.6265
735.776,78.74375,-2.96382,0.41024,0.62591
736.476,78.81439,-2.96504,0.41125,0.62532
737.176,78.88514,-2.9647,0.41369,0.62473
737.876,78.95585,-2.9644,0.41262,0.62415
738.576,79.0265,-2.96471,0.41533,0.62356
739.276,79.09716,-2.96573,0.41732,0.62297
739.976,79.16776,-2.96602,0.41456,0.62238
740.676,79.23846,-2.96602,0.41171,0.6218
741.376,79.30905,-2.96602,0.41688,0.62121
742.076,79.3798,-2.96734,0.41734,0.62062
742.776,79.45067,-2.96734,0.42254,0.62004
743.476,79.52168,-2.96734,0.41772,0.61945
744.176,79.5925,-2.96865,0.41901,0.61886
744.876,79.6631,-2.96833,0.41638,0.61827
745.576,79.73369,-2.96832,0.4172,0.61769
746.276,79.80465,-2.96832,0.41627,0.6171
746.976,79.8756,-2.96962,0.4185,0.61651
747.676,79.94644,-2.96865,0.41855,0.61593
748.376,80.01715,-2.96866,0.42272,0.61534
749.076,80.0882,-2.96998,0.42761,0.61475
749.776,80.15925,-2.96998,0.42223,0.61416
750.476,80.23034,-2.97063,0.42339,0.61358
751.176,80.30125,-2.96997,0.42474,0.61299
751.876,80.37229,-2.96997,0.4227,0.6124
752.576,80.4435,-2.96997,0.42706,0.61182
753.276,80.51477,-2.96997,0.42495,0.61123
753.976,80.58585,-2.96997,0.42651,0.61064
754.676,80.65663,-2.97133,0.42508,0.61006
755.376,80.7277,-2.97127,0.42497,0.60947
756.076,80.799,-2.97393,0.42305,0.60888
756.776,80.8703,-2.97261,0.42512,0.60829
757.476,80.94122,-2.97261,0.42192,0.60771
758.176,81.01215,-2.97374,0.42388,0.60712
758.876,81.0831,-2.97392,0.42034,0.60653
759.576,81.15419,-2.97392,0.41967,0.60595
760.276,81.22528,-2.97392,0.41928,0.60536
760.976,81.2964,-2.97392,0.42035,0.60477
761.676,81.36724,-2.97524,0.42156,0.60419
762.376,81.43812,-2.97402,0.41921,0.6036
763.076,81.50904,-2.97523,0.42399,0.60301
763.776,81.57996,-2.97655,0.41985,0.60243
764.476,81.65089,-2.97656,0.42052,0.60184
765.176,81.7215,-2.97392,0.41961,0.60125
765.876,81.79271,-2.97392,0.42124,0.60067
766.576,81.86358,-2.97523,0.42452,0.60008
767.276,81.93481,-2.97509,0.42296,0.5995
767.976,82.0055,-2.97557,0.42311,0.59891
768.676,82.07658,-2.97663,0.42702,0.59832
769.376,82.14761,-2.97656,0.43146,0.59774
770.076,82.21871,-2.97716,0.42824,0.59715
770.776,82.2897,-2.97852,0.42841,0.59657
771.476,82.36062,-2.97849,0.42842,0.59598
772.176,82.43138,-2.97721,0.42695,0.59539
772.876,82.50222,-2.97721,0.4334,0.59481
773.576,82.57313,-2.97721,0.42933,0.59422
774.276,82.6439,-2.97721,0.42904,0.59364
774.976,82.71465,-2.97726,0.42977,0.59305
775.676,82.78533,-2.97886,0.43291,0.59246
776.376,82.85608,-2.97889,0.43222,0.59188
777.076,82.9265,-2.97885,0.43023,0.59129
777.776,82.99714,-2.97886,0.43497,0.59071
778.476,83.06779,-2.97886,0.43805,0.59012
779.176,83.13886,-2.97886,0.43418,0.58954
779.876,83.20982,-2.97886,0.44073,0.58895
780.576,83.2807,-2.98017,0.44281,0.58836
781.276,83.3516,-2.98017,0.44355,0.58778
781.976,83.42249,-2.98005,0.44049,0.58719
782.676,83.4936,-2.97919,0.44318,0.58661
783.376,83.5646,-2.98022,0.44028,0.58602
784.076,83.6356,-2.98042,0.44168,0.58544
784.776,83.70665,-2.98182,0.44623,0.58485
785.476,83.77768,-2.98182,0.44812,0.58427
786.176,83.84878,-2.98312,0.44928,0.58368
786.876,83.91974,-2.98443,0.45028,0.5831
787.576,83.99093,-2.98445,0.44797,0.58251
788.276,84.062,-2.98306,0.45273,0.58193
788.976,84.13327,-2.98056,0.45277,0.58134
789.676,84.20435,-2.98204,0.45575,0.58076
790.376,84.2756,-2.98314,0.45237,0.58018
791.076,84.34671,-2.98179,0.44991,0.57959
791.776,84.41776,-2.98314,0.45386,0.57901
792.476,84.4889,-2.98315,0.45492,0.57842
793.176,84.56,-2.98346,0.45736,0.57784
793.876,84.63117,-2.9828,0.45805,0.57725
794.576,84.70214,-2.9828,0.45859,0.57667
795.276,84.77319,-2.98413,0.45946,0.57609
795.976,84.84437,-2.98412,0.4638,0.5755
796.676,84.91561,-2.98412,0.46104,0.57492
797.376,84.9868,-2.98544,0.464,0.57433
797.476,84.99669,-2.98544,0.46449,0.57425