File: 01_Data/Engineered_Wood_Furniture/STA/N2/10K_min/Engineered_Wood_Furniture_STA_N2_10KData_2284_R3.csv
##Temp./Â°C,Time/min,Mass loss(subtr.2)/mg,DSC(subtr.2)/(mW/mg),Sensit./(uV/mW)
49.87,10.00917,-0.05562,0.01160367,1.06048
50.57,10.77251,-0.0588932,0.0469553,1.06034
51.27,10.9741,-0.05953531,0.07162877,1.06019
51.97,11.12705,-0.06073904,0.09272475,1.06005
52.67,11.25632,-0.060543,0.11093,1.0599
53.37,11.37063,-0.06162549,0.13004,1.05975
54.07,11.47593,-0.06270245,0.14302,1.05961
54.77,11.57578,-0.06274727,0.1559,1.05946
55.47,11.67036,-0.06207826,0.16786,1.05931
56.17,11.76169,-0.06398787,0.17747,1.05915
56.87,11.85014,-0.06380652,0.18669,1.059
57.57,11.9361,-0.06412571,0.19403,1.05885
58.27,12.01982,-0.06473266,0.20164,1.05869
58.97,12.1022,-0.06371982,0.2083,1.05854
59.67,12.18357,-0.06395423,0.2145,1.05838
60.37,12.26395,-0.06343925,0.22041,1.05823
61.07,12.34351,-0.06422845,0.22397,1.05807
61.77,12.42248,-0.06668809,0.22798,1.05791
62.47,12.501,-0.06708554,0.23545,1.05775
63.17,12.5792,-0.06823,0.23682,1.05759
63.87,12.65659,-0.06694164,0.24424,1.05743
64.57,12.73316,-0.06787055,0.2462,1.05727
65.27,12.80919,-0.06823001,0.24947,1.0571
65.97,12.88486,-0.06963308,0.25255,1.05694
66.67,12.96062,-0.06859325,0.25528,1.05677
67.37,13.03628,-0.06822335,0.25762,1.05661
68.07,13.1119,-0.06955121,0.26043,1.05644
68.77,13.1867,-0.06954309,0.26305,1.05627
69.47,13.26171,-0.06956261,0.26463,1.05611
70.17,13.33655,-0.07086994,0.26913,1.05594
70.87,13.41175,-0.07219685,0.27159,1.05577
71.57,13.48678,-0.07349661,0.2746,1.05559
72.27,13.56144,-0.07463561,0.27641,1.05542
72.97,13.6353,-0.07349051,0.2809,1.05525
73.67,13.7089,-0.07217178,0.28548,1.05508
74.37,13.7825,-0.0735012,0.28702,1.0549
75.07,13.85591,-0.07481878,0.29028,1.05472
75.77,13.92936,-0.07481,0.293,1.05455
76.47,14.0023,-0.07480544,0.29543,1.05437
77.17,14.07533,-0.076234,0.29628,1.05419
77.87,14.14778,-0.07744999,0.2998,1.05401
78.57,14.22049,-0.07751568,0.30007,1.05383
79.27,14.29292,-0.07743999,0.30257,1.05365
79.97,14.3652,-0.07744656,0.30408,1.05347
80.67,14.43716,-0.07744677,0.30513,1.05329
81.37,14.5092,-0.07876022,0.30562,1.0531
82.07,14.58115,-0.08008718,0.30983,1.05292
82.77,14.65277,-0.08074037,0.30856,1.05273
83.47,14.724,-0.08073829,0.3097,1.05255
84.17,14.7949,-0.08140169,0.3096,1.05236
84.87,14.8659,-0.0826794,0.31022,1.05217
85.57,14.93695,-0.08270842,0.31098,1.05198
86.27,15.00836,-0.08139027,0.31276,1.05179
86.97,15.07944,-0.08139062,0.31143,1.0516
87.67,15.15029,-0.08268984,0.31009,1.05141
88.37,15.22057,-0.08540178,0.31355,1.05122
89.07,15.2912,-0.08542093,0.31157,1.05102
89.77,15.36134,-0.08581949,0.31061,1.05083
90.47,15.4317,-0.08535315,0.3132,1.05063
91.17,15.5015,-0.08666223,0.30995,1.05044
91.87,15.57175,-0.08600127,0.31234,1.05024
92.57,15.6417,-0.08599315,0.31265,1.05004
93.27,15.7118,-0.08698323,0.3112,1.04984
93.97,15.78147,-0.08693573,0.30963,1.04965
94.67,15.85094,-0.08825186,0.30743,1.04944
95.37,15.92056,-0.08930044,0.30718,1.04924
96.07,15.9897,-0.08797805,0.30962,1.04904
96.77,16.05891,-0.08927446,0.30827,1.04884
97.47,16.12789,-0.08797165,0.30731,1.04863
98.17,16.19724,-0.08928931,0.30861,1.04843
98.87,16.2665,-0.08944375,0.30957,1.04822
99.57,16.3355,-0.0906099,0.31137,1.04802
100.27,16.40474,-0.09061095,0.3135,1.04781
100.97,16.47387,-0.09259166,0.31397,1.0476
101.67,16.5432,-0.09332987,0.31684,1.04739
102.37,16.61208,-0.09390004,0.31731,1.04718
103.07,16.68112,-0.09389019,0.31678,1.04697
103.77,16.75015,-0.09121344,0.3189,1.04676
104.47,16.81921,-0.09258019,0.31856,1.04655
105.17,16.88833,-0.09388628,0.31732,1.04633
105.87,16.95703,-0.09521296,0.31735,1.04612
106.57,17.02585,-0.09518464,0.31613,1.04591
107.27,17.0947,-0.09390019,0.31766,1.04569
107.97,17.16379,-0.09493021,0.31344,1.04547
108.67,17.23273,-0.09518247,0.31354,1.04526
109.37,17.30128,-0.09653021,0.31281,1.04504
110.07,17.36978,-0.09652541,0.3133,1.04482
110.77,17.43846,-0.09960281,0.31256,1.0446
111.47,17.50733,-0.09766989,0.31034,1.04438
112.17,17.5762,-0.09544343,0.30945,1.04415
112.87,17.6447,-0.09674914,0.30806,1.04393
113.57,17.7132,-0.09672822,0.30883,1.04371
114.27,17.78143,-0.09806166,0.30761,1.04348
114.97,17.8499,-0.09807711,0.30617,1.04326
115.67,17.91828,-0.09838688,0.30583,1.04303
116.37,17.98675,-0.09971041,0.30705,1.04281
117.07,18.05519,-0.09938753,0.30552,1.04258
117.77,18.12335,-0.0993796,0.30769,1.04235
118.47,18.19156,-0.10063,0.30919,1.04212
119.17,18.25995,-0.10037,0.30917,1.04189
119.87,18.32809,-0.10062,0.30736,1.04166
120.57,18.39637,-0.10037,0.30791,1.04143
121.27,18.4645,-0.10037,0.30844,1.04119
121.97,18.53298,-0.1003,0.30454,1.04096
122.67,18.6011,-0.10169,0.30858,1.04073
123.37,18.6693,-0.10169,0.3073,1.04049
124.07,18.73734,-0.10168,0.30735,1.04025
124.77,18.80548,-0.10168,0.30634,1.04002
125.47,18.87337,-0.10168,0.30854,1.03978
126.17,18.9413,-0.10164,0.30642,1.03954
126.87,19.00939,-0.103,0.30711,1.0393
127.57,19.07757,-0.10432,0.30818,1.03906
128.27,19.14566,-0.10301,0.30986,1.03882
128.97,19.21349,-0.10442,0.30838,1.03858
129.67,19.28144,-0.10432,0.30956,1.03833
130.37,19.34914,-0.10563,0.30857,1.03809
131.07,19.41689,-0.1043,0.31125,1.03785
131.77,19.48476,-0.10432,0.3119,1.0376
132.47,19.55256,-0.10564,0.31275,1.03736
133.17,19.61984,-0.10465,0.31026,1.03711
133.87,19.68693,-0.10467,0.3124,1.03686
134.57,19.7544,-0.10597,0.31506,1.03661
135.27,19.82227,-0.10465,0.31528,1.03636
135.97,19.89023,-0.10563,0.31362,1.03611
136.67,19.95788,-0.10564,0.31522,1.03586
137.37,20.02555,-0.10564,0.31436,1.03561
138.07,20.09309,-0.10529,0.3164,1.03536
138.77,20.16052,-0.1066,0.31589,1.0351
139.47,20.22802,-0.10662,0.31967,1.03485
140.17,20.2955,-0.10721,0.31887,1.03459
140.87,20.36275,-0.10728,0.32071,1.03434
141.57,20.43025,-0.10727,0.32333,1.03408
142.27,20.49774,-0.10466,0.32312,1.03382
142.97,20.56535,-0.10579,0.32456,1.03357
143.67,20.63286,-0.10597,0.32522,1.03331
144.37,20.70046,-0.10728,0.32697,1.03305
145.07,20.768,-0.10728,0.32839,1.03279
145.77,20.83579,-0.10728,0.33049,1.03252
146.47,20.90305,-0.10742,0.33143,1.03226
147.17,20.9702,-0.10893,0.33072,1.032
147.87,21.03721,-0.10893,0.33256,1.03174
148.57,21.104,-0.10895,0.33419,1.03147
149.27,21.17137,-0.10889,0.33668,1.0312
149.97,21.23864,-0.10893,0.3388,1.03094
150.67,21.30644,-0.11024,0.33866,1.03067
151.37,21.3734,-0.10949,0.33918,1.0304
152.07,21.44077,-0.11024,0.34053,1.03013
152.77,21.5082,-0.11024,0.34221,1.02987
153.47,21.57568,-0.11014,0.34343,1.02959
154.17,21.6428,-0.11156,0.34784,1.02932
154.87,21.70985,-0.11156,0.34536,1.02905
155.57,21.7776,-0.1129,0.34878,1.02878
156.27,21.84526,-0.11287,0.35167,1.02851
156.97,21.9129,-0.1142,0.35383,1.02823
157.67,21.9801,-0.11416,0.35665,1.02796
158.37,22.04738,-0.11109,0.35647,1.02768
159.07,22.11466,-0.11111,0.35792,1.0274
159.77,22.18186,-0.11332,0.36134,1.02713
160.47,22.2489,-0.11452,0.36284,1.02685
161.17,22.316,-0.1132,0.36506,1.02657
161.87,22.38308,-0.11321,0.36687,1.02629
162.57,22.4504,-0.11457,0.37081,1.02601
163.27,22.5175,-0.11584,0.37332,1.02573
163.97,22.58485,-0.11716,0.37635,1.02545
164.67,22.65181,-0.11721,0.3784,1.02516
165.37,22.71889,-0.11584,0.38311,1.02488
166.07,22.78586,-0.117,0.3852,1.02459
166.77,22.85323,-0.11741,0.38753,1.02431
167.47,22.92039,-0.11781,0.38899,1.02402
168.17,22.9876,-0.11847,0.39322,1.02374
168.87,23.0544,-0.11847,0.39678,1.02345
169.57,23.1215,-0.11843,0.39899,1.02316
170.27,23.1885,-0.1211,0.40295,1.02287
170.97,23.25572,-0.1211,0.40511,1.02258
171.67,23.32289,-0.12242,0.40775,1.02229
172.37,23.39004,-0.12333,0.41218,1.022
173.07,23.4572,-0.12241,0.41596,1.02171
173.77,23.52434,-0.12373,0.4207,1.02141
174.47,23.59169,-0.12504,0.42247,1.02112
175.17,23.65889,-0.12569,0.42593,1.02083
175.87,23.7262,-0.12637,0.43073,1.02053
176.57,23.79325,-0.12636,0.43409,1.02023
177.27,23.86024,-0.12768,0.44021,1.01994
177.97,23.92703,-0.13003,0.44369,1.01964
178.67,23.99406,-0.12999,0.44711,1.01934
179.37,24.06128,-0.12999,0.4517,1.01904
180.07,24.12854,-0.12999,0.45644,1.01874
180.77,24.19568,-0.1313,0.46027,1.01844
181.47,24.26269,-0.133,0.4632,1.01814
182.17,24.32955,-0.13295,0.46946,1.01784
182.87,24.39636,-0.13418,0.47418,1.01754
183.57,24.46325,-0.13558,0.47578,1.01723
184.27,24.53031,-0.13696,0.48451,1.01693
184.97,24.59721,-0.13953,0.48707,1.01662
185.67,24.66439,-0.13958,0.49082,1.01632
186.37,24.73106,-0.13953,0.49629,1.01601
187.07,24.79822,-0.14042,0.50108,1.0157
187.77,24.86519,-0.14329,0.5051,1.0154
188.47,24.93246,-0.14441,0.51101,1.01509
189.17,24.99928,-0.14479,0.51363,1.01478
189.87,25.06616,-0.14659,0.51846,1.01447
190.57,25.13327,-0.1481,0.52401,1.01416
191.27,25.2003,-0.1494,0.53028,1.01384
191.97,25.26759,-0.15072,0.53433,1.01353
192.67,25.33464,-0.15194,0.53872,1.01322
193.37,25.40175,-0.15247,0.54504,1.0129
194.07,25.4687,-0.15368,0.55091,1.01259
194.77,25.53574,-0.15503,0.55219,1.01227
195.47,25.60267,-0.15739,0.55664,1.01196
196.17,25.6697,-0.15894,0.56388,1.01164
196.87,25.73658,-0.16017,0.56821,1.01132
197.57,25.80353,-0.16442,0.57355,1.011
198.27,25.87044,-0.1684,0.57784,1.01069
198.97,25.93745,-0.16968,0.58238,1.01037
199.67,26.00435,-0.17217,0.58882,1.01004
200.37,26.07145,-0.17397,0.59395,1.00972
201.07,26.1385,-0.17397,0.59485,1.0094
201.77,26.2057,-0.17767,0.60071,1.00908
202.47,26.2728,-0.17801,0.60388,1.00876
203.17,26.33985,-0.17935,0.60953,1.00843
203.87,26.40679,-0.18062,0.61313,1.00811
204.57,26.47369,-0.1844,0.61582,1.00778
205.27,26.54075,-0.18636,0.61947,1.00745
205.97,26.6077,-0.18891,0.62242,1.00713
206.67,26.67468,-0.19046,0.62507,1.0068
207.37,26.7415,-0.19239,0.629,1.00647
208.07,26.80831,-0.19442,0.6336,1.00614
208.77,26.87523,-0.19721,0.63451,1.00581
209.47,26.94218,-0.19985,0.63793,1.00548
210.17,27.00889,-0.2026,0.64242,1.00515
210.87,27.0757,-0.20414,0.64217,1.00482
211.57,27.1422,-0.20625,0.64492,1.00448
212.27,27.2087,-0.20907,0.64517,1.00415
212.97,27.27504,-0.2115,0.64634,1.00382
213.67,27.3416,-0.21405,0.64817,1.00348
214.37,27.40843,-0.21617,0.64763,1.00314
215.07,27.4753,-0.2199,0.64864,1.00281
215.77,27.54219,-0.22137,0.64817,1.00247
216.47,27.6088,-0.22399,0.64948,1.00213
217.17,27.6755,-0.22541,0.64822,1.00179
217.87,27.74227,-0.22787,0.64768,1.00146
218.57,27.809,-0.23088,0.64713,1.00112
219.27,27.87568,-0.23234,0.64732,1.00077
219.97,27.9422,-0.23373,0.6481,1.00043
220.67,28.0088,-0.23748,0.64604,1.00009
221.37,28.0755,-0.24029,0.64212,0.99975
222.07,28.14221,-0.2427,0.64235,0.9994
222.77,28.2089,-0.24613,0.64144,0.99906
223.47,28.27566,-0.24907,0.6379,0.99872
224.17,28.3422,-0.25026,0.6381,0.99837
224.87,28.4089,-0.25237,0.63609,0.99802
225.57,28.47567,-0.25607,0.63133,0.99768
226.27,28.54243,-0.25871,0.62975,0.99733
226.97,28.6091,-0.26117,0.62873,0.99698
227.67,28.6758,-0.26433,0.62879,0.99663
228.37,28.74255,-0.2667,0.62344,0.99628
229.07,28.8088,-0.27014,0.6222,0.99593
229.77,28.8756,-0.2731,0.62072,0.99558
230.47,28.94217,-0.27532,0.61786,0.99523
231.17,29.0092,-0.27818,0.61692,0.99488
231.87,29.07596,-0.28109,0.61476,0.99452
232.57,29.1426,-0.28379,0.61224,0.99417
233.27,29.2092,-0.28531,0.60844,0.99381
233.97,29.2758,-0.28825,0.60949,0.99346
234.67,29.3422,-0.29244,0.60652,0.9931
235.37,29.4088,-0.29561,0.60364,0.99275
236.07,29.47529,-0.29841,0.5997,0.99239
236.77,29.54203,-0.30209,0.59865,0.99203
237.47,29.6086,-0.30472,0.59577,0.99167
238.17,29.6753,-0.30891,0.59306,0.99131
238.87,29.7417,-0.31178,0.59221,0.99095
239.57,29.8083,-0.3144,0.59071,0.99059
240.27,29.8746,-0.31774,0.58961,0.99023
240.97,29.94115,-0.32281,0.58419,0.98987
241.67,30.00775,-0.32499,0.58211,0.98951
242.37,30.0746,-0.32831,0.58116,0.98914
243.07,30.14135,-0.33241,0.57863,0.98878
243.77,30.20778,-0.33563,0.57467,0.98842
244.47,30.27432,-0.33846,0.57151,0.98805
245.17,30.3408,-0.34208,0.57064,0.98768
245.87,30.40745,-0.34521,0.57102,0.98732
246.57,30.47413,-0.34825,0.56734,0.98695
247.27,30.5407,-0.35262,0.56661,0.98658
247.97,30.6075,-0.3578,0.56348,0.98621
248.67,30.67414,-0.36115,0.55963,0.98584
249.37,30.741,-0.36571,0.55641,0.98547
250.07,30.80773,-0.3692,0.55574,0.9851
250.77,30.8745,-0.37316,0.55407,0.98473
251.47,30.9412,-0.37602,0.55188,0.98436
252.17,31.0079,-0.38072,0.54695,0.98399
252.87,31.07449,-0.38422,0.54498,0.98362
253.57,31.14122,-0.39005,0.54256,0.98324
254.27,31.20792,-0.39312,0.53846,0.98287
254.97,31.27461,-0.39675,0.53499,0.98249
255.67,31.34112,-0.4017,0.532,0.98212
256.37,31.40755,-0.40595,0.52776,0.98174
257.07,31.47415,-0.4111,0.52372,0.98136
257.77,31.5412,-0.41588,0.51937,0.98098
258.47,31.60827,-0.42124,0.51403,0.98061
259.17,31.6752,-0.42716,0.50823,0.98023
259.87,31.74199,-0.43144,0.50332,0.97985
260.57,31.80845,-0.43747,0.50489,0.97947
261.27,31.875,-0.44216,0.50444,0.97909
261.97,31.9417,-0.44782,0.50457,0.9787
262.67,32.0086,-0.45264,0.50258,0.97832
263.37,32.07571,-0.45768,0.49917,0.97794
264.07,32.14221,-0.4638,0.49767,0.97756
264.77,32.20901,-0.46802,0.49423,0.97717
265.47,32.27556,-0.47285,0.49059,0.97679
266.17,32.34239,-0.48004,0.48879,0.9764
266.87,32.40885,-0.48568,0.4858,0.97602
267.57,32.47571,-0.49142,0.48131,0.97563
268.27,32.54262,-0.49818,0.47874,0.97524
268.97,32.60948,-0.50602,0.47169,0.97485
269.67,32.67624,-0.51317,0.46987,0.97446
270.37,32.7431,-0.51932,0.46479,0.97408
271.07,32.81007,-0.52408,0.46012,0.97369
271.77,32.87682,-0.53311,0.45636,0.9733
272.47,32.9436,-0.54046,0.45212,0.9729
273.17,33.01032,-0.54729,0.44686,0.97251
273.87,33.07717,-0.55443,0.44218,0.97212
274.57,33.144,-0.56156,0.43808,0.97173
275.27,33.2108,-0.56831,0.43544,0.97133
275.97,33.27704,-0.57651,0.43005,0.97094
276.67,33.34368,-0.58398,0.42945,0.97054
277.37,33.4103,-0.59168,0.42557,0.97015
278.07,33.47744,-0.59978,0.41843,0.96975
278.77,33.54443,-0.60676,0.41701,0.96936
279.47,33.61149,-0.61572,0.41279,0.96896
280.17,33.67846,-0.62502,0.41181,0.96856
280.87,33.74552,-0.63398,0.40463,0.96816
281.57,33.81222,-0.64414,0.40081,0.96776
282.27,33.8792,-0.65198,0.39551,0.96736
282.97,33.9461,-0.66035,0.39175,0.96696
283.67,34.01313,-0.6699,0.38464,0.96656
284.37,34.07992,-0.67928,0.3839,0.96616
285.07,34.14682,-0.68778,0.38064,0.96576
285.77,34.21379,-0.69738,0.37575,0.96536
286.47,34.28085,-0.70889,0.371,0.96495
287.17,34.34798,-0.71836,0.3673,0.96455
287.87,34.41505,-0.72663,0.36356,0.96414
288.57,34.48205,-0.73664,0.36196,0.96374
289.27,34.54913,-0.74729,0.35825,0.96333
289.97,34.61614,-0.75799,0.35299,0.96293
290.67,34.68342,-0.76851,0.34822,0.96252
291.37,34.75063,-0.77893,0.34598,0.96211
292.07,34.81787,-0.7896,0.34114,0.9617
292.77,34.88496,-0.80038,0.33749,0.96129
293.47,34.95199,-0.81216,0.33416,0.96089
294.17,35.01907,-0.82351,0.32916,0.96048
294.87,35.08605,-0.8343,0.32847,0.96007
295.57,35.15314,-0.84458,0.32487,0.95965
296.27,35.2203,-0.85622,0.32236,0.95924
296.97,35.28745,-0.86862,0.31934,0.95883
297.67,35.35437,-0.87926,0.31722,0.95842
298.37,35.42137,-0.88996,0.31599,0.958
299.07,35.48835,-0.90234,0.31379,0.95759
299.77,35.55539,-0.91269,0.30984,0.95717
300.47,35.6227,-0.92446,0.3122,0.95676
301.17,35.6897,-0.93663,0.30794,0.95634
301.87,35.75663,-0.94768,0.30792,0.95593
302.57,35.8234,-0.96083,0.30555,0.95551
303.27,35.8902,-0.97209,0.30427,0.95509
303.97,35.9573,-0.98397,0.30495,0.95467
304.67,36.02398,-0.99738,0.30202,0.95426
305.37,36.09121,-1.01062,0.30298,0.95384
306.07,36.1581,-1.02251,0.30317,0.95342
306.77,36.22562,-1.03661,0.30365,0.953
307.47,36.2926,-1.04814,0.30518,0.95258
308.17,36.35988,-1.06053,0.30473,0.95215
308.87,36.427,-1.07416,0.30454,0.95173
309.57,36.49382,-1.08741,0.30684,0.95131
310.27,36.56071,-1.09955,0.30677,0.95089
310.97,36.62773,-1.11335,0.30914,0.95046
311.67,36.695,-1.12681,0.30965,0.95004
312.37,36.76229,-1.14039,0.31109,0.94961
313.07,36.82969,-1.15376,0.31152,0.94919
313.77,36.8969,-1.16773,0.31251,0.94876
314.47,36.9642,-1.1811,0.31419,0.94833
315.17,37.0315,-1.19553,0.31311,0.94791
315.87,37.09848,-1.21005,0.31724,0.94748
316.57,37.16572,-1.22353,0.32069,0.94705
317.27,37.23305,-1.23709,0.31977,0.94662
317.97,37.30092,-1.25213,0.3251,0.94619
318.67,37.3683,-1.26678,0.32542,0.94576
319.37,37.43575,-1.28091,0.3261,0.94533
320.07,37.50293,-1.29581,0.32658,0.9449
320.77,37.57035,-1.31222,0.32954,0.94447
321.47,37.63773,-1.32628,0.32961,0.94404
322.17,37.7052,-1.34149,0.3341,0.9436
322.87,37.7725,-1.35777,0.33929,0.94317
323.57,37.83992,-1.37294,0.342,0.94274
324.27,37.9073,-1.38848,0.3423,0.9423
324.97,37.9747,-1.40598,0.34552,0.94187
325.67,38.04214,-1.42143,0.34568,0.94143
326.37,38.10952,-1.4361,0.35006,0.94099
327.07,38.17694,-1.4532,0.35255,0.94056
327.77,38.24442,-1.47162,0.3552,0.94012
328.47,38.31197,-1.48804,0.35969,0.93968
329.17,38.37942,-1.50529,0.36161,0.93924
329.87,38.44681,-1.52352,0.3643,0.93881
330.57,38.51429,-1.54028,0.36842,0.93837
331.27,38.58167,-1.55844,0.37101,0.93793
331.97,38.6493,-1.57712,0.373,0.93749
332.67,38.7168,-1.59535,0.37844,0.93705
333.37,38.7844,-1.61408,0.38146,0.9366
334.07,38.85179,-1.63447,0.3828,0.93616
334.77,38.91925,-1.65125,0.38461,0.93572
335.47,38.98697,-1.67193,0.39003,0.93528
336.17,39.05475,-1.69163,0.39268,0.93483
336.87,39.12242,-1.71055,0.39788,0.93439
337.57,39.18993,-1.73086,0.39788,0.93394
338.27,39.25745,-1.7515,0.40293,0.9335
338.97,39.32515,-1.77359,0.40408,0.93305
339.67,39.39287,-1.79374,0.40829,0.93261
340.37,39.46042,-1.81682,0.41061,0.93216
341.07,39.528,-1.84015,0.41466,0.93171
341.77,39.59567,-1.86003,0.41638,0.93126
342.47,39.66339,-1.88314,0.42022,0.93082
343.17,39.73114,-1.90705,0.42087,0.93037
343.87,39.79887,-1.92882,0.4243,0.92992
344.57,39.86667,-1.95197,0.42509,0.92947
345.27,39.93453,-1.97646,0.42744,0.92902
345.97,40.00237,-2.00185,0.42973,0.92857
346.67,40.07031,-2.02623,0.43045,0.92811
347.37,40.13803,-2.04962,0.43119,0.92766
348.07,40.2057,-2.07317,0.42976,0.92721
348.77,40.27285,-2.094,0.42833,0.92676
349.47,40.34016,-2.12041,0.42594,0.9263
350.17,40.40772,-2.14089,0.42637,0.92585
350.87,40.47605,-2.16175,0.42374,0.92539
351.57,40.54444,-2.19183,0.42206,0.92494
352.27,40.61254,-2.21769,0.41938,0.92448
352.97,40.68035,-2.24289,0.41757,0.92403
353.67,40.74774,-2.26814,0.41458,0.92357
354.37,40.81547,-2.29176,0.40651,0.92311
355.07,40.88317,-2.31644,0.40108,0.92266
355.77,40.95133,-2.33805,0.39506,0.9222
356.47,41.0193,-2.36322,0.38733,0.92174
357.17,41.08701,-2.38602,0.38051,0.92128
357.87,41.15448,-2.4098,0.37427,0.92082
358.57,41.2219,-2.42921,0.36245,0.92036
359.27,41.28948,-2.4495,0.3527,0.9199
359.97,41.3572,-2.46887,0.34065,0.91944
360.67,41.42479,-2.48909,0.32802,0.91898
361.37,41.49244,-2.50977,0.31401,0.91852
362.07,41.56005,-2.52356,0.30005,0.91805
362.77,41.6275,-2.54679,0.28664,0.91759
363.47,41.69514,-2.56111,0.26999,0.91713
364.17,41.76259,-2.57713,0.25731,0.91666
364.87,41.83034,-2.59361,0.24704,0.9162
365.57,41.8979,-2.60522,0.23199,0.91573
366.27,41.96583,-2.61645,0.21756,0.91527
366.97,42.03365,-2.6296,0.2037,0.9148
367.67,42.10155,-2.64001,0.19471,0.91434
368.37,42.16946,-2.64873,0.17982,0.91387
369.07,42.2373,-2.65541,0.17004,0.9134
369.77,42.305,-2.66356,0.16068,0.91293
370.47,42.37256,-2.67059,0.15341,0.91247
371.17,42.44014,-2.67718,0.14778,0.912
371.87,42.50788,-2.6842,0.14273,0.91153
372.57,42.57558,-2.68896,0.13624,0.91106
373.27,42.64342,-2.69199,0.131,0.91059
373.97,42.71132,-2.69582,0.12755,0.91012
374.67,42.7793,-2.70312,0.12281,0.90964
375.37,42.84738,-2.70464,0.11865,0.90917
376.07,42.91532,-2.70771,0.11758,0.9087
376.77,42.98341,-2.7091,0.1115,0.90823
377.47,43.0514,-2.71169,0.11094,0.90776
378.17,43.11935,-2.71452,0.10597,0.90728
378.87,43.18737,-2.71762,0.10434,0.90681
379.57,43.25507,-2.72223,0.10487,0.90633
380.27,43.32308,-2.72734,0.10342,0.90586
380.97,43.391,-2.73159,0.09936972,0.90538
381.67,43.45942,-2.73461,0.09790034,0.90491
382.37,43.5276,-2.73777,0.09800235,0.90443
383.07,43.59571,-2.744,0.09607188,0.90395
383.77,43.66372,-2.7443,0.09210706,0.90348
384.47,43.7318,-2.74725,0.08785424,0.903
385.17,43.79974,-2.7506,0.0887281,0.90252
385.87,43.8676,-2.75192,0.08700932,0.90204
386.57,43.93582,-2.75341,0.08463153,0.90156
387.27,44.00392,-2.75742,0.08361521,0.90108
387.97,44.07228,-2.76075,0.0840376,0.9006
388.67,44.1403,-2.7648,0.08165358,0.90012
389.37,44.20837,-2.76758,0.08062053,0.89964
390.07,44.27643,-2.76731,0.08038932,0.89916
390.77,44.3444,-2.77053,0.07967014,0.89868
391.47,44.4126,-2.77369,0.07885062,0.8982
392.17,44.4809,-2.7777,0.07862322,0.89771
392.87,44.54935,-2.78012,0.07407254,0.89723
393.57,44.61779,-2.78013,0.07691655,0.89675
394.27,44.68588,-2.78472,0.07421817,0.89626
394.97,44.754,-2.78736,0.07640375,0.89578
395.67,44.82175,-2.78794,0.07427568,0.89529
396.37,44.88998,-2.79026,0.07384988,0.89481
397.07,44.95811,-2.79046,0.07380462,0.89432
397.77,45.02647,-2.79043,0.0721841,0.89383
398.47,45.09453,-2.79405,0.07085853,0.89335
399.17,45.16276,-2.79877,0.07184138,0.89286
399.87,45.231,-2.80289,0.07456579,0.89237
400.57,45.29943,-2.80743,0.07216858,0.89188
401.27,45.3678,-2.80885,0.0729843,0.8914
401.97,45.43613,-2.80895,0.0719465,0.89091
402.67,45.5043,-2.80982,0.07060091,0.89042
403.37,45.57253,-2.81153,0.0704299,0.88993
404.07,45.64085,-2.81401,0.06989618,0.88944
404.77,45.70924,-2.8184,0.06984576,0.88895
405.47,45.7774,-2.82084,0.06828518,0.88846
406.17,45.84568,-2.82327,0.06737009,0.88796
406.87,45.91393,-2.82551,0.06660465,0.88747
407.57,45.98225,-2.82671,0.06711697,0.88698
408.27,46.05069,-2.82746,0.06784108,0.88649
408.97,46.11893,-2.83153,0.06894392,0.88599
409.67,46.1873,-2.83316,0.07055345,0.8855
410.37,46.2556,-2.83692,0.06954705,0.88501
411.07,46.3238,-2.84056,0.07246336,0.88451
411.77,46.39182,-2.84236,0.07287402,0.88402
412.47,46.45971,-2.84506,0.07368508,0.88352
413.17,46.5282,-2.84637,0.07129518,0.88303
413.87,46.59683,-2.84767,0.07362897,0.88253
414.57,46.6659,-2.85053,0.07366426,0.88203
415.27,46.73451,-2.85173,0.07312672,0.88154
415.97,46.80325,-2.85307,0.07324856,0.88104
416.67,46.8717,-2.85567,0.07715893,0.88054
417.37,46.9402,-2.85786,0.07829876,0.88004
418.07,47.00846,-2.86008,0.07833677,0.87954
418.77,47.07683,-2.86309,0.08272489,0.87905
419.47,47.145,-2.86496,0.0836455,0.87855
420.17,47.2136,-2.86764,0.08469272,0.87805
420.87,47.2819,-2.87037,0.08488921,0.87755
421.57,47.35073,-2.87254,0.08603658,0.87704
422.27,47.4193,-2.87389,0.0855186,0.87654
422.97,47.48812,-2.87518,0.08730169,0.87604
423.67,47.55676,-2.87642,0.08831887,0.87554
424.37,47.6254,-2.87786,0.08856775,0.87504
425.07,47.69409,-2.87903,0.09269252,0.87454
425.77,47.76254,-2.88178,0.0920229,0.87403
426.47,47.83101,-2.886,0.09320229,0.87353
427.17,47.89946,-2.89022,0.09605848,0.87302
427.87,47.9681,-2.8909,0.0942741,0.87252
428.57,48.0367,-2.8909,0.09599255,0.87202
429.27,48.10541,-2.89362,0.09614267,0.87151
429.97,48.17411,-2.89695,0.09857992,0.87101
430.67,48.24285,-2.90001,0.09978606,0.8705
431.37,48.31154,-2.90125,0.10206,0.86999
432.07,48.38025,-2.90126,0.10271,0.86949
432.77,48.44911,-2.90329,0.10348,0.86898
433.47,48.51775,-2.90485,0.10574,0.86847
434.17,48.58618,-2.90614,0.10513,0.86796
434.87,48.65463,-2.90744,0.10696,0.86746
435.57,48.7231,-2.90876,0.10779,0.86695
436.27,48.79167,-2.91009,0.11007,0.86644
436.97,48.86009,-2.91215,0.10805,0.86593
437.67,48.92848,-2.91476,0.11606,0.86542
438.37,48.99694,-2.91825,0.11434,0.86491
439.07,49.0655,-2.91986,0.1141,0.8644
439.77,49.1342,-2.92135,0.11944,0.86389
440.47,49.20292,-2.92248,0.11788,0.86338
441.17,49.2716,-2.9238,0.11887,0.86286
441.87,49.34033,-2.9238,0.12056,0.86235
442.57,49.4088,-2.92663,0.1218,0.86184
443.27,49.47739,-2.92997,0.12293,0.86133
443.97,49.546,-2.9314,0.12319,0.86081
444.67,49.61482,-2.93268,0.12364,0.8603
445.37,49.6834,-2.93396,0.12347,0.85979
446.07,49.7522,-2.93546,0.12448,0.85927
446.77,49.82115,-2.93793,0.12635,0.85876
447.47,49.89027,-2.93928,0.12693,0.85824
448.17,49.95915,-2.94212,0.12779,0.85773
448.87,50.02782,-2.94348,0.12908,0.85721
449.57,50.09663,-2.94492,0.12974,0.8567
450.27,50.1655,-2.94635,0.13153,0.85618
450.97,50.2346,-2.94891,0.13043,0.85566
451.67,50.30356,-2.95027,0.1333,0.85515
452.37,50.37279,-2.95042,0.13614,0.85463
453.07,50.44175,-2.95362,0.13468,0.85411
453.77,50.51056,-2.95583,0.13674,0.85359
454.47,50.57932,-2.95748,0.1327,0.85307
455.17,50.64819,-2.95879,0.13838,0.85255
455.87,50.71713,-2.95925,0.13755,0.85203
456.57,50.78575,-2.96111,0.13903,0.85151
457.27,50.85471,-2.96239,0.13925,0.85099
457.97,50.9238,-2.96372,0.14037,0.85047
458.67,50.99302,-2.96538,0.14058,0.84995
459.37,51.06193,-2.96766,0.14117,0.84943
460.07,51.13064,-2.9677,0.13931,0.84891
460.77,51.19939,-2.96803,0.14059,0.84839
461.47,51.268,-2.969,0.14115,0.84787
462.17,51.33697,-2.97031,0.14369,0.84734
462.87,51.40587,-2.97161,0.14578,0.84682
463.57,51.47485,-2.97295,0.14413,0.8463
464.27,51.5435,-2.97448,0.14785,0.84577
464.97,51.6121,-2.97572,0.14499,0.84525
465.67,51.68098,-2.97607,0.14601,0.84473
466.37,51.74958,-2.97922,0.14662,0.8442
467.07,51.81831,-2.98084,0.14496,0.84368
467.77,51.8867,-2.98328,0.14707,0.84315
468.47,51.95556,-2.98614,0.14798,0.84263
469.17,52.0243,-2.98616,0.14824,0.8421
469.87,52.09332,-2.98895,0.1523,0.84157
470.57,52.16211,-2.98909,0.15072,0.84105
471.27,52.23121,-2.99095,0.15008,0.84052
471.97,52.3003,-2.99299,0.15257,0.83999
472.67,52.36926,-2.9952,0.15584,0.83946
473.37,52.43804,-2.99647,0.15212,0.83894
474.07,52.50701,-2.99781,0.15563,0.83841
474.77,52.57615,-2.99782,0.15546,0.83788
475.47,52.6453,-2.99782,0.15688,0.83735
476.17,52.714,-2.99785,0.15599,0.83682
476.87,52.783,-2.99988,0.1562,0.83629
477.57,52.852,-3.0007,0.1552,0.83576
478.27,52.92134,-3.00288,0.15843,0.83523
478.97,52.9899,-3.00557,0.16182,0.8347
479.67,53.05905,-3.00716,0.16027,0.83417
480.37,53.12816,-3.00716,0.15882,0.83364
481.07,53.19786,-3.00714,0.16203,0.83311
481.77,53.26699,-3.00716,0.16668,0.83258
482.47,53.33615,-3.00967,0.16834,0.83204
483.17,53.40535,-3.01111,0.17108,0.83151
483.87,53.47456,-3.01219,0.1753,0.83098
484.57,53.54379,-3.01384,0.17829,0.83044
485.27,53.61314,-3.01386,0.18248,0.82991
485.97,53.68238,-3.01478,0.18582,0.82938
486.67,53.75141,-3.01649,0.18537,0.82884
487.37,53.82076,-3.0186,0.1895,0.82831
488.07,53.89,-3.01923,0.19087,0.82777
488.77,53.95945,-3.02054,0.19141,0.82724
489.47,54.02845,-3.02049,0.19148,0.8267
490.17,54.0979,-3.02054,0.19291,0.82617
490.87,54.16731,-3.0219,0.19715,0.82563
491.57,54.2367,-3.02316,0.19465,0.8251
492.27,54.30575,-3.02446,0.19918,0.82456
492.97,54.375,-3.02449,0.19859,0.82402
493.67,54.4443,-3.02576,0.19717,0.82349
494.37,54.5134,-3.02865,0.19936,0.82295
495.07,54.58245,-3.02988,0.19958,0.82241
495.77,54.65146,-3.02987,0.20088,0.82187
496.47,54.72087,-3.03098,0.20197,0.82133
497.17,54.7902,-3.03348,0.20363,0.82079
497.87,54.85963,-3.03349,0.20644,0.82026
498.57,54.92886,-3.0348,0.20553,0.81972
499.27,54.9981,-3.03748,0.20359,0.81918
499.97,55.06717,-3.03888,0.20579,0.81864
500.67,55.1366,-3.03748,0.2072,0.8181
501.37,55.20585,-3.03886,0.20443,0.81756
502.07,55.27466,-3.04013,0.20533,0.81702
502.77,55.34325,-3.0415,0.20197,0.81647
503.47,55.4124,-3.04135,0.20373,0.81593
504.17,55.48223,-3.04018,0.2025,0.81539
504.87,55.55185,-3.04143,0.2021,0.81485
505.57,55.62095,-3.04424,0.20375,0.81431
506.27,55.6898,-3.04566,0.20329,0.81377
506.97,55.7586,-3.04695,0.20686,0.81322
507.67,55.82751,-3.04829,0.20292,0.81268
508.37,55.8965,-3.04961,0.20261,0.81214
509.07,55.96575,-3.04992,0.20467,0.81159
509.77,56.03529,-3.04996,0.2043,0.81105
510.47,56.1052,-3.05125,0.20536,0.8105
511.17,56.1752,-3.05124,0.20328,0.80996
511.87,56.24485,-3.05356,0.20609,0.80941
512.57,56.3141,-3.05356,0.20197,0.80887
513.27,56.3834,-3.05488,0.20093,0.80832
513.97,56.4526,-3.05487,0.20225,0.80778
514.67,56.5221,-3.05606,0.19945,0.80723
515.37,56.59179,-3.0562,0.19466,0.80669
516.07,56.66145,-3.05752,0.19373,0.80614
516.77,56.7309,-3.05651,0.19245,0.80559
517.47,56.80004,-3.05725,0.1906,0.80505
518.17,56.869,-3.05915,0.18871,0.8045
518.87,56.93799,-3.06101,0.18833,0.80395
519.57,57.0072,-3.06189,0.18685,0.8034
520.27,57.07656,-3.06323,0.18596,0.80286
520.97,57.1462,-3.06384,0.18545,0.80231
521.67,57.21586,-3.06395,0.18651,0.80176
522.37,57.2855,-3.06454,0.18643,0.80121
523.07,57.355,-3.06443,0.18386,0.80066
523.77,57.42511,-3.0658,0.18317,0.80011
524.47,57.4952,-3.06857,0.18574,0.79956
525.17,57.5652,-3.06838,0.1847,0.79901
525.87,57.63475,-3.06705,0.183,0.79846
526.57,57.7044,-3.06639,0.18447,0.79791
527.27,57.77405,-3.06634,0.1857,0.79736
527.97,57.84375,-3.06802,0.18661,0.79681
528.67,57.91325,-3.07035,0.1846,0.79626
529.37,57.9828,-3.07166,0.18585,0.79571
530.07,58.0523,-3.07166,0.18381,0.79516
530.77,58.1221,-3.07298,0.18388,0.7946
531.47,58.1919,-3.075,0.18074,0.79405
532.17,58.2615,-3.07572,0.18399,0.7935
532.87,58.33126,-3.07703,0.18424,0.79295
533.57,58.4009,-3.07682,0.18478,0.79239
534.27,58.47056,-3.07703,0.18047,0.79184
534.97,58.5402,-3.07835,0.18164,0.79129
535.67,58.61003,-3.07965,0.18129,0.79073
536.37,58.6799,-3.08038,0.17908,0.79018
537.07,58.74963,-3.08098,0.18049,0.78963
537.77,58.8194,-3.08229,0.17945,0.78907
538.47,58.8891,-3.08131,0.17767,0.78852
539.17,58.95885,-3.08131,0.17904,0.78796
539.87,59.0285,-3.08131,0.17597,0.78741
540.57,59.09802,-3.08163,0.1786,0.78685
541.27,59.16777,-3.08163,0.1773,0.78629
541.97,59.23737,-3.08436,0.17678,0.78574
542.67,59.3072,-3.08449,0.17938,0.78518
543.37,59.37687,-3.0858,0.18066,0.78463
544.07,59.44656,-3.0868,0.1781,0.78407
544.77,59.51645,-3.08841,0.17797,0.78351
545.47,59.58615,-3.08975,0.17712,0.78296
546.17,59.656,-3.08975,0.1771,0.7824
546.87,59.7257,-3.08975,0.17767,0.78184
547.57,59.79545,-3.09015,0.17745,0.78128
548.27,59.86529,-3.09105,0.17606,0.78073
548.97,59.93495,-3.09107,0.17482,0.78017
549.67,60.0049,-3.08977,0.17471,0.77961
550.37,60.0747,-3.08974,0.17677,0.77905
551.07,60.1447,-3.09248,0.17818,0.77849
551.77,60.21435,-3.09433,0.17615,0.77793
552.47,60.28425,-3.09651,0.17662,0.77737
553.17,60.35399,-3.09678,0.17945,0.77681
553.87,60.4237,-3.09809,0.17839,0.77625
554.57,60.4932,-3.09942,0.17801,0.77569
555.27,60.56296,-3.10044,0.17837,0.77513
555.97,60.6328,-3.09908,0.1803,0.77457
556.67,60.70284,-3.09908,0.17927,0.77401
557.37,60.77234,-3.09908,0.17796,0.77345
558.07,60.84205,-3.10069,0.17852,0.77289
558.77,60.91166,-3.10193,0.18021,0.77233
559.47,60.9816,-3.1019,0.17989,0.77177
560.17,61.0515,-3.10439,0.17954,0.77121
560.87,61.12138,-3.10324,0.18103,0.77064
561.57,61.1913,-3.10324,0.18161,0.77008
562.27,61.26119,-3.10391,0.18115,0.76952
562.97,61.33101,-3.10724,0.18456,0.76896
563.67,61.4008,-3.10719,0.17996,0.76839
564.37,61.47062,-3.10719,0.18035,0.76783
565.07,61.54031,-3.10718,0.18097,0.76727
565.77,61.6102,-3.10588,0.18196,0.7667
566.47,61.6801,-3.10588,0.18204,0.76614
567.17,61.75023,-3.1072,0.18448,0.76558
567.87,61.82,-3.11039,0.18704,0.76501
568.57,61.8899,-3.11109,0.19017,0.76445
569.27,61.9598,-3.11082,0.19441,0.76388
569.97,62.02969,-3.11082,0.19512,0.76332
570.67,62.09956,-3.11049,0.20121,0.76275
571.37,62.16973,-3.1112,0.19809,0.76219
572.07,62.23978,-3.11312,0.20263,0.76162
572.77,62.30984,-3.11351,0.20113,0.76106
573.47,62.37966,-3.11309,0.1975,0.76049
574.17,62.44975,-3.11312,0.19922,0.75993
574.87,62.5197,-3.11546,0.19698,0.75936
575.57,62.58968,-3.11575,0.2001,0.75879
576.27,62.6596,-3.11675,0.19693,0.75823
576.97,62.72964,-3.11839,0.19571,0.75766
577.67,62.79974,-3.11708,0.19673,0.75709
578.37,62.86991,-3.11638,0.19889,0.75653
579.07,62.93999,-3.11641,0.19731,0.75596
579.77,63.01,-3.11641,0.19702,0.75539
580.47,63.08,-3.11682,0.19956,0.75483
581.17,63.15,-3.11945,0.19917,0.75426
581.87,63.22,-3.11943,0.19871,0.75369
582.57,63.29,-3.12164,0.20061,0.75312
583.27,63.3599,-3.12168,0.19688,0.75255
583.97,63.4299,-3.12168,0.19607,0.75199
584.67,63.4999,-3.12299,0.20089,0.75142
585.37,63.56994,-3.12299,0.19658,0.75085
586.07,63.63989,-3.12299,0.19637,0.75028
586.77,63.70991,-3.12299,0.19727,0.74971
587.47,63.78012,-3.12298,0.19637,0.74914
588.17,63.8504,-3.12592,0.19701,0.74857
588.87,63.9206,-3.12738,0.19942,0.748
589.57,63.99064,-3.12869,0.19913,0.74743
590.27,64.06071,-3.12867,0.19783,0.74686
590.97,64.13091,-3.13023,0.19881,0.74629
591.67,64.20087,-3.1287,0.19999,0.74572
592.37,64.27095,-3.1287,0.19744,0.74515
593.07,64.341,-3.1287,0.19792,0.74458
593.77,64.41124,-3.1287,0.1986,0.74401
594.47,64.48146,-3.13163,0.19817,0.74344
595.17,64.55166,-3.1316,0.19888,0.74287
595.87,64.62174,-3.13173,0.19733,0.74229
596.57,64.69197,-3.12917,0.19828,0.74172
597.27,64.76214,-3.13035,0.19869,0.74115
597.97,64.83241,-3.13228,0.19998,0.74058
598.67,64.90261,-3.13221,0.20185,0.74001
599.37,64.9727,-3.13094,0.20307,0.73943
600.07,65.04285,-3.13162,0.20187,0.73886
600.77,65.11296,-3.13331,0.20238,0.73829
601.47,65.18301,-3.13594,0.20426,0.73772
602.17,65.25309,-3.13604,0.20227,0.73714
602.87,65.32326,-3.13604,0.20505,0.73657
603.57,65.39368,-3.13746,0.21003,0.736
604.27,65.46398,-3.13872,0.20964,0.73542
604.97,65.53416,-3.13872,0.21034,0.73485
605.67,65.60424,-3.13736,0.2087,0.73428
606.37,65.6745,-3.13733,0.21081,0.7337
607.07,65.74478,-3.13735,0.21184,0.73313
607.77,65.815,-3.13679,0.21243,0.73255
608.47,65.88506,-3.13726,0.21251,0.73198
609.17,65.9552,-3.1398,0.21434,0.73141
609.87,66.0253,-3.13999,0.21544,0.73083
610.57,66.09557,-3.13999,0.21587,0.73026
611.27,66.1658,-3.13999,0.21761,0.72968
611.97,66.23591,-3.13984,0.21953,0.72911
612.67,66.3062,-3.14126,0.21592,0.72853
613.37,66.37639,-3.14263,0.2169,0.72796
614.07,66.4466,-3.14275,0.21883,0.72738
614.77,66.51658,-3.14447,0.22064,0.7268
615.47,66.58672,-3.1446,0.22018,0.72623
616.17,66.65678,-3.14495,0.22203,0.72565
616.87,66.7269,-3.14397,0.22687,0.72508
617.57,66.7971,-3.14394,0.22555,0.7245
618.27,66.86745,-3.14659,0.22845,0.72392
618.97,66.93776,-3.14711,0.22922,0.72335
619.67,67.008,-3.148,0.22886,0.72277
620.37,67.07796,-3.14669,0.23122,0.72219
621.07,67.1482,-3.14758,0.23057,0.72162
621.77,67.21834,-3.14865,0.23246,0.72104
622.47,67.2888,-3.14865,0.23799,0.72046
623.17,67.35897,-3.14865,0.23669,0.71989
623.87,67.42899,-3.14801,0.23767,0.71931
624.57,67.4992,-3.14932,0.23864,0.71873
625.27,67.56959,-3.14899,0.23999,0.71815
625.97,67.63995,-3.15031,0.2438,0.71758
626.67,67.70993,-3.15161,0.2421,0.717
627.37,67.7798,-3.15294,0.24001,0.71642
628.07,67.84997,-3.15294,0.24592,0.71584
628.77,67.92027,-3.15262,0.24474,0.71526
629.47,67.99065,-3.1527,0.24969,0.71468
630.17,68.06098,-3.15392,0.24871,0.71411
630.87,68.1314,-3.1539,0.24536,0.71353
631.57,68.20181,-3.15425,0.25066,0.71295
632.27,68.2722,-3.15566,0.2453,0.71237
632.97,68.3425,-3.15759,0.24894,0.71179
633.67,68.41286,-3.15783,0.24827,0.71121
634.37,68.4833,-3.15826,0.24836,0.71063
635.07,68.55368,-3.15919,0.25209,0.71005
635.77,68.62398,-3.15926,0.25114,0.70947
636.47,68.69449,-3.15717,0.25138,0.70889
637.17,68.7651,-3.15722,0.25164,0.70831
637.87,68.83543,-3.15843,0.25227,0.70773
638.57,68.90572,-3.16048,0.25533,0.70715
639.27,68.9761,-3.16111,0.25416,0.70657
639.97,69.0467,-3.16248,0.25802,0.70599
640.67,69.1172,-3.16247,0.25817,0.70541
641.37,69.18767,-3.16313,0.25992,0.70483
642.07,69.25815,-3.16369,0.26419,0.70425
642.77,69.32866,-3.16378,0.26138,0.70367
643.47,69.39921,-3.16379,0.26253,0.70309
644.17,69.4698,-3.16379,0.2643,0.70251
644.87,69.5402,-3.16379,0.26201,0.70193
645.57,69.61065,-3.16378,0.26655,0.70135
646.27,69.68096,-3.16511,0.26395,0.70077
646.97,69.75143,-3.16512,0.26792,0.70019
647.67,69.8218,-3.16733,0.26567,0.6996
648.37,69.89232,-3.16785,0.26318,0.69902
649.07,69.96239,-3.16782,0.26475,0.69844
649.77,70.03272,-3.16919,0.26605,0.69786
650.47,70.10299,-3.17056,0.26504,0.69728
651.17,70.17357,-3.16917,0.2612,0.6967
651.87,70.2438,-3.17048,0.25833,0.69611
652.57,70.3141,-3.16964,0.25955,0.69553
653.27,70.38414,-3.16919,0.25732,0.69495
653.97,70.45432,-3.17048,0.25822,0.69437
654.67,70.52456,-3.17171,0.25633,0.69378
655.37,70.59487,-3.17311,0.25604,0.6932
656.07,70.66508,-3.17311,0.25104,0.69262
656.77,70.73552,-3.17443,0.25005,0.69204
657.47,70.80604,-3.17443,0.24431,0.69145
658.17,70.8767,-3.17443,0.24292,0.69087
658.87,70.94711,-3.17572,0.24202,0.69029
659.57,71.0174,-3.17674,0.23963,0.68971
660.27,71.08781,-3.17811,0.2364,0.68912
660.97,71.15822,-3.17676,0.23532,0.68854
661.67,71.22864,-3.17444,0.23677,0.68796
662.37,71.29903,-3.17508,0.23629,0.68737
663.07,71.36961,-3.17575,0.23347,0.68679
663.77,71.44026,-3.17707,0.23175,0.68621
664.47,71.5108,-3.17773,0.23319,0.68562
665.17,71.5813,-3.17773,0.23178,0.68504
665.87,71.65185,-3.17773,0.22902,0.68446
666.57,71.72243,-3.17847,0.23033,0.68387
667.27,71.79305,-3.1797,0.22988,0.68329
667.97,71.8635,-3.1797,0.23162,0.6827
668.67,71.93419,-3.18067,0.23104,0.68212
669.37,72.00479,-3.1807,0.23109,0.68154
670.07,72.07526,-3.18145,0.23602,0.68095
670.77,72.1456,-3.18145,0.23308,0.68037
671.47,72.21592,-3.18014,0.23679,0.67978
672.17,72.28647,-3.1797,0.23478,0.6792
672.87,72.3571,-3.18005,0.23372,0.67861
673.57,72.42751,-3.1808,0.23752,0.67803
674.27,72.49794,-3.18211,0.23368,0.67744
674.97,72.56835,-3.18343,0.23708,0.67686
675.67,72.63901,-3.18343,0.23489,0.67628
676.37,72.70966,-3.18343,0.23627,0.67569
677.07,72.78024,-3.18344,0.24131,0.67511
677.77,72.85083,-3.18167,0.24064,0.67452
678.47,72.9214,-3.18146,0.23993,0.67394
679.17,72.99181,-3.18408,0.23868,0.67335
679.87,73.06231,-3.18408,0.23656,0.67277
680.57,73.13294,-3.18611,0.24,0.67218
681.27,73.20356,-3.18638,0.24087,0.6716
681.97,73.27408,-3.18555,0.24197,0.67101
682.67,73.3445,-3.18503,0.24087,0.67042
683.37,73.41521,-3.1854,0.24091,0.66984
684.07,73.48578,-3.1854,0.24356,0.66925
684.77,73.5562,-3.18573,0.23948,0.66867
685.47,73.62661,-3.18573,0.24524,0.66808
686.17,73.69717,-3.18573,0.24569,0.6675
686.87,73.7679,-3.1867,0.24799,0.66691
687.57,73.8385,-3.18672,0.25448,0.66633
688.27,73.90913,-3.18771,0.25366,0.66574
688.97,73.97991,-3.18771,0.2544,0.66515
689.67,74.05065,-3.18771,0.25478,0.66457
690.37,74.1213,-3.18767,0.25535,0.66398
691.07,74.19159,-3.18634,0.25391,0.6634
691.77,74.26172,-3.18639,0.25426,0.66281
692.47,74.33189,-3.18808,0.25279,0.66222
693.17,74.40234,-3.18836,0.25519,0.66164
693.87,74.47286,-3.18869,0.25356,0.66105
694.57,74.5436,-3.18883,0.25583,0.66047
695.27,74.61453,-3.18903,0.25837,0.65988
695.97,74.68561,-3.19172,0.25536,0.65929
696.67,74.75666,-3.19044,0.25805,0.65871
697.37,74.82751,-3.19033,0.25743,0.65812
698.07,74.89839,-3.19034,0.25736,0.65753
698.77,74.96931,-3.19033,0.26198,0.65695
699.47,75.04018,-3.19034,0.2589,0.65636
700.17,75.11103,-3.19035,0.258,0.65577
700.87,75.1817,-3.19297,0.25951,0.65519
701.57,75.25243,-3.19166,0.2603,0.6546
702.27,75.32315,-3.19033,0.26145,0.65401
702.97,75.394,-3.19059,0.25965,0.65343
703.67,75.46474,-3.19165,0.26046,0.65284
704.37,75.5355,-3.19165,0.25789,0.65225
705.07,75.6062,-3.193,0.26037,0.65167
705.77,75.677,-3.19431,0.26434,0.65108
706.47,75.74763,-3.19429,0.26336,0.65049
707.17,75.81819,-3.19297,0.25905,0.64991
707.87,75.88866,-3.19325,0.26343,0.64932
708.57,75.95943,-3.19494,0.26669,0.64873
709.27,76.0303,-3.19494,0.26384,0.64815
709.97,76.10125,-3.19494,0.26375,0.64756
710.67,76.17186,-3.19494,0.25873,0.64697
711.37,76.24247,-3.19362,0.26432,0.64638
712.07,76.31313,-3.19395,0.26311,0.6458
712.77,76.38396,-3.19275,0.26173,0.64521
713.47,76.45472,-3.19297,0.26333,0.64462
714.17,76.52556,-3.19427,0.26401,0.64404
714.87,76.59646,-3.19563,0.26072,0.64345
715.57,76.6674,-3.19561,0.26351,0.64286
716.27,76.73827,-3.19626,0.26382,0.64228
716.97,76.8092,-3.19626,0.26316,0.64169
717.67,76.88014,-3.19626,0.26292,0.6411
718.37,76.95101,-3.19729,0.2656,0.64051
719.07,77.02186,-3.19857,0.26518,0.63993
719.77,77.09252,-3.19857,0.26396,0.63934
720.47,77.16341,-3.19752,0.26382,0.63875
721.17,77.23421,-3.19714,0.26792,0.63816
721.87,77.30507,-3.19709,0.26764,0.63758
722.57,77.37598,-3.19977,0.26972,0.63699
723.27,77.4469,-3.19843,0.26724,0.6364
723.97,77.51793,-3.19844,0.27074,0.63582
724.67,77.58869,-3.1991,0.26848,0.63523
725.37,77.65942,-3.19977,0.27231,0.63464
726.07,77.73018,-3.19977,0.27134,0.63405
726.77,77.80105,-3.20023,0.27192,0.63347
727.47,77.87183,-3.19996,0.27504,0.63288
728.17,77.9425,-3.19977,0.27332,0.63229
728.87,78.0133,-3.20107,0.2757,0.6317
729.57,78.08416,-3.20108,0.27455,0.63112
730.27,78.15504,-3.20219,0.27651,0.63053
730.97,78.22587,-3.20263,0.27794,0.62994
731.67,78.29658,-3.20273,0.27616,0.62935
732.37,78.3674,-3.20142,0.27868,0.62877
733.07,78.4382,-3.20267,0.278,0.62818
733.77,78.50922,-3.20273,0.27663,0.62759
734.47,78.58,-3.20363,0.27609,0.627
735.17,78.6508,-3.20273,0.27414,0.62642
735.87,78.7218,-3.20273,0.28068,0.62583
736.57,78.79271,-3.20273,0.27947,0.62524
737.27,78.8634,-3.20534,0.2765,0.62466
737.97,78.93422,-3.20399,0.27656,0.62407
738.67,79.00511,-3.20537,0.27723,0.62348
739.37,79.07653,-3.20462,0.27345,0.62289
740.07,79.14763,-3.20473,0.27668,0.62231
740.77,79.2186,-3.20635,0.27646,0.62172
741.47,79.2898,-3.20635,0.2784,0.62113
742.17,79.36083,-3.20503,0.27408,0.62054
742.87,79.43207,-3.20505,0.28046,0.61996
743.57,79.50313,-3.20632,0.27891,0.61937
744.27,79.57405,-3.20667,0.27811,0.61878
744.97,79.64496,-3.20659,0.28098,0.6182
745.67,79.7159,-3.208,0.27926,0.61761
746.37,79.78689,-3.208,0.28059,0.61702
747.07,79.8579,-3.20756,0.2806,0.61643
747.77,79.929,-3.208,0.28153,0.61585
748.47,80,-3.20928,0.28258,0.61526
749.17,80.07122,-3.208,0.2827,0.61467
749.87,80.14228,-3.20828,0.28694,0.61409
750.57,80.21342,-3.20898,0.28565,0.6135
751.27,80.28455,-3.20898,0.28443,0.61291
751.97,80.35568,-3.20882,0.28169,0.61232
752.67,80.42681,-3.20767,0.28357,0.61174
753.37,80.4978,-3.20768,0.28292,0.61115
754.07,80.5689,-3.2103,0.28897,0.61056
754.77,80.6397,-3.21068,0.27955,0.60998
755.47,80.71061,-3.2116,0.28376,0.60939
756.17,80.78138,-3.2103,0.28563,0.6088
756.87,80.8528,-3.2103,0.28626,0.60822
757.57,80.92385,-3.20939,0.28747,0.60763
758.27,80.99485,-3.2103,0.28923,0.60704
758.97,81.0656,-3.21163,0.28983,0.60646
759.67,81.13638,-3.21153,0.28857,0.60587
760.37,81.20729,-3.21293,0.28814,0.60528
761.07,81.27811,-3.21293,0.28902,0.6047
761.77,81.34909,-3.21293,0.2883,0.60411
762.47,81.41955,-3.21195,0.28908,0.60352
763.17,81.4902,-3.21202,0.29196,0.60294
763.87,81.56079,-3.21437,0.2911,0.60235
764.57,81.63167,-3.21458,0.29344,0.60176
765.27,81.70254,-3.21586,0.29538,0.60118
765.97,81.77335,-3.21457,0.29056,0.60059
766.67,81.84421,-3.21457,0.29296,0.6
767.37,81.91508,-3.21457,0.29308,0.59942
768.07,81.98598,-3.21516,0.2939,0.59883
768.77,82.05716,-3.2172,0.29262,0.59824
769.47,82.12821,-3.21721,0.29641,0.59766
770.17,82.19926,-3.21853,0.29172,0.59707
770.87,82.27024,-3.21721,0.29912,0.59649
771.57,82.34108,-3.21721,0.3005,0.5959
772.27,82.41216,-3.21721,0.29817,0.59531
772.97,82.48335,-3.21727,0.29853,0.59473
773.67,82.55462,-3.21721,0.30049,0.59414
774.37,82.62567,-3.21721,0.30113,0.59356
775.07,82.6966,-3.21721,0.29993,0.59297
775.77,82.76773,-3.21721,0.30293,0.59239
776.47,82.839,-3.21721,0.30322,0.5918
777.17,82.91031,-3.21762,0.30066,0.59121
777.87,82.98131,-3.21853,0.30225,0.59063
778.57,83.05195,-3.21853,0.29858,0.59004
779.27,83.12258,-3.21995,0.30295,0.58946
779.97,83.1934,-3.21984,0.30446,0.58887
780.67,83.26436,-3.21984,0.29993,0.58829
781.37,83.33536,-3.21984,0.30565,0.5877
782.07,83.40661,-3.22116,0.30271,0.58712
782.77,83.47787,-3.22061,0.30637,0.58653
783.47,83.54916,-3.2205,0.30791,0.58595
784.17,83.62008,-3.22116,0.31435,0.58536
784.87,83.69102,-3.21998,0.31021,0.58478
785.57,83.76216,-3.22115,0.31316,0.58419
786.27,83.83341,-3.22389,0.31738,0.58361
786.97,83.9047,-3.22384,0.31537,0.58302
787.67,83.97585,-3.22247,0.31387,0.58244
788.37,84.04717,-3.22378,0.31532,0.58185
789.07,84.11872,-3.22247,0.31727,0.58127
789.77,84.19,-3.22247,0.3161,0.58068
790.47,84.26089,-3.22248,0.31656,0.5801
791.17,84.33204,-3.22337,0.31803,0.57951
791.87,84.4032,-3.22305,0.31735,0.57893
792.57,84.47453,-3.22248,0.3153,0.57834
793.27,84.5455,-3.22272,0.31538,0.57776
793.97,84.61662,-3.22247,0.3173,0.57718
794.67,84.68754,-3.22247,0.32003,0.57659
795.37,84.75874,-3.22277,0.32134,0.57601
796.07,84.82983,-3.22379,0.31995,0.57542
796.77,84.90117,-3.2238,0.31891,0.57484
797.47,84.9722,-3.22513,0.31545,0.57426
797.67,84.9924,-3.22474,0.31999,0.57409