File: 01_Data/Engineered_Wood_Furniture/STA/N2/10K_min/Engineered_Wood_Furniture_STA_N2_10KData_2284_R2.csv
##Temp./Â°C,Time/min,Mass loss(subtr.2)/mg,DSC(subtr.2)/(mW/mg),Sensit./(uV/mW)
49.739,10.01,-0.0273,0.012866,1.06051
50.439,10.77542,-0.0267146,0.0529102,1.06037
51.139,10.97465,-0.02770201,0.08399512,1.06022
51.839,11.12774,-0.02699739,0.10816,1.06008
52.539,11.25657,-0.02719786,0.12639,1.05993
53.239,11.37088,-0.02873908,0.14497,1.05978
53.939,11.47616,-0.02849074,0.16088,1.05963
54.639,11.5757,-0.02867389,0.17365,1.05948
55.339,11.67033,-0.02995643,0.18691,1.05933
56.039,11.7613,-0.03061347,0.19886,1.05918
56.739,11.84951,-0.03035421,0.2061,1.05903
57.439,11.93544,-0.03014527,0.21339,1.05888
58.139,12.01951,-0.0287058,0.22313,1.05872
58.839,12.10181,-0.0287955,0.23117,1.05857
59.539,12.18338,-0.03093834,0.23712,1.05841
60.239,12.26378,-0.03153911,0.24319,1.05826
60.939,12.3432,-0.03131124,0.24627,1.0581
61.639,12.42187,-0.03034556,0.25227,1.05794
62.339,12.50022,-0.03016216,0.25779,1.05778
63.039,12.57794,-0.03029711,0.26118,1.05762
63.739,12.65502,-0.03015127,0.26388,1.05746
64.439,12.7319,-0.03095364,0.26759,1.0573
65.139,12.80846,-0.03059474,0.27272,1.05713
65.839,12.88468,-0.03130649,0.27644,1.05697
66.539,12.96044,-0.03221183,0.28011,1.05681
67.239,13.0358,-0.03189669,0.28354,1.05664
67.939,13.1112,-0.03277169,0.28391,1.05647
68.639,13.1866,-0.03365429,0.28726,1.05631
69.339,13.26167,-0.03438373,0.29137,1.05614
70.039,13.3367,-0.03431877,0.29466,1.05597
70.739,13.41095,-0.03442044,0.29548,1.0558
71.439,13.48507,-0.03575084,0.29982,1.05563
72.139,13.5591,-0.03575203,0.30352,1.05545
72.839,13.6331,-0.03588799,0.30705,1.05528
73.539,13.70633,-0.03819002,0.31111,1.05511
74.239,13.78014,-0.03706028,0.31208,1.05493
74.939,13.8538,-0.03742065,0.31582,1.05476
75.639,13.9276,-0.03576804,0.32004,1.05458
76.339,14.00079,-0.03706147,0.32036,1.0544
77.039,14.07395,-0.03706149,0.32093,1.05423
77.739,14.1471,-0.03789043,0.32538,1.05405
78.439,14.2198,-0.03771954,0.3266,1.05387
79.139,14.2925,-0.03832563,0.32726,1.05369
79.839,14.36469,-0.03847431,0.33003,1.0535
80.539,14.43675,-0.03707011,0.3332,1.05332
81.239,14.50847,-0.03837006,0.33301,1.05314
81.939,14.58019,-0.03969989,0.33548,1.05295
82.639,14.65206,-0.03970055,0.33909,1.05277
83.339,14.7237,-0.04036547,0.33724,1.05258
84.039,14.79507,-0.04101525,0.33817,1.05239
84.739,14.86651,-0.04232861,0.33914,1.05221
85.439,14.9375,-0.04112469,0.34249,1.05202
86.139,15.0089,-0.04232995,0.34153,1.05183
86.839,15.0797,-0.04364519,0.3401,1.05164
87.539,15.1507,-0.04364195,0.33967,1.05145
88.239,15.2211,-0.04463172,0.34087,1.05125
88.939,15.29142,-0.04496701,0.33885,1.05106
89.639,15.36159,-0.04627566,0.3398,1.05087
90.339,15.43174,-0.04509741,0.34083,1.05067
91.039,15.5019,-0.0449596,0.33849,1.05047
91.739,15.572,-0.0449598,0.33979,1.05028
92.439,15.64199,-0.04628554,0.34081,1.05008
93.139,15.7119,-0.0452416,0.34018,1.04988
93.839,15.78176,-0.04627326,0.33553,1.04968
94.539,15.8513,-0.04626999,0.33776,1.04948
95.239,15.92071,-0.04762603,0.33656,1.04928
95.939,15.98971,-0.04759002,0.33542,1.04908
96.639,16.0591,-0.04890554,0.33382,1.04888
97.339,16.12831,-0.04891,0.33565,1.04867
98.039,16.1978,-0.04890955,0.33508,1.04847
98.739,16.267,-0.0503128,0.33567,1.04826
99.439,16.33621,-0.04766287,0.34045,1.04806
100.139,16.40522,-0.04888899,0.34114,1.04785
100.839,16.47411,-0.05010607,0.34159,1.04764
101.539,16.543,-0.05147999,0.34517,1.04743
102.239,16.61194,-0.05143,0.34614,1.04722
102.939,16.68091,-0.05184114,0.34771,1.04701
103.639,16.74963,-0.0527514,0.34826,1.0468
104.339,16.8188,-0.05143989,0.34775,1.04659
105.039,16.88784,-0.05152202,0.34751,1.04637
105.739,16.95672,-0.05012141,0.34803,1.04616
106.439,17.02529,-0.05185558,0.34803,1.04595
107.139,17.0941,-0.0520844,0.34682,1.04573
107.839,17.16291,-0.05341058,0.34338,1.04551
108.539,17.2314,-0.05471396,0.34185,1.0453
109.239,17.30007,-0.05473007,0.34129,1.04508
109.939,17.3686,-0.05341939,0.34221,1.04486
110.639,17.4372,-0.05471944,0.3412,1.04464
111.339,17.50545,-0.05472001,0.34071,1.04442
112.039,17.57369,-0.05464832,0.34041,1.0442
112.739,17.6421,-0.05603964,0.34142,1.04397
113.439,17.71051,-0.05543609,0.3391,1.04375
114.139,17.77896,-0.05605024,0.33982,1.04353
114.839,17.84714,-0.05472613,0.34029,1.0433
115.539,17.91546,-0.05473097,0.33999,1.04307
116.239,17.98392,-0.05602599,0.33671,1.04285
116.939,18.05226,-0.05603904,0.33567,1.04262
117.639,18.12019,-0.05472101,0.33684,1.04239
118.339,18.18816,-0.05604015,0.33626,1.04216
119.039,18.2564,-0.05669867,0.33637,1.04193
119.739,18.32469,-0.0569479,0.33913,1.0417
120.439,18.39286,-0.05701949,0.33868,1.04147
121.139,18.46079,-0.0559783,0.33949,1.04124
121.839,18.52885,-0.05570593,0.33831,1.041
122.539,18.5973,-0.05670238,0.33779,1.04077
123.239,18.66552,-0.05537681,0.33771,1.04053
123.939,18.73396,-0.05535202,0.33904,1.0403
124.639,18.80187,-0.05781909,0.33811,1.04006
125.339,18.87005,-0.05769,0.34005,1.03982
126.039,18.9382,-0.05769001,0.3407,1.03959
126.739,19.00636,-0.05759397,0.34101,1.03935
127.439,19.07435,-0.05897812,0.34128,1.03911
128.139,19.14184,-0.05767384,0.34216,1.03886
128.839,19.20981,-0.05768958,0.3427,1.03862
129.539,19.27756,-0.05866796,0.34141,1.03838
130.239,19.3456,-0.05865358,0.34024,1.03814
130.939,19.4132,-0.05966034,0.34028,1.03789
131.639,19.48099,-0.06000725,0.34307,1.03765
132.339,19.54887,-0.05999377,0.34445,1.0374
133.039,19.61686,-0.0586761,0.34455,1.03715
133.739,19.68486,-0.05999357,0.34657,1.03691
134.439,19.75265,-0.05999001,0.34486,1.03666
135.139,19.82033,-0.06033762,0.34901,1.03641
135.839,19.8877,-0.05998982,0.34722,1.03616
136.539,19.95522,-0.06002193,0.35059,1.03591
137.239,20.02281,-0.06195944,0.34888,1.03566
137.939,20.0908,-0.06193206,0.34948,1.0354
138.639,20.15869,-0.06063993,0.35252,1.03515
139.339,20.2264,-0.06064185,0.35366,1.0349
140.039,20.2939,-0.06195814,0.35427,1.03464
140.739,20.36134,-0.06194687,0.35591,1.03439
141.439,20.42905,-0.06327983,0.35508,1.03413
142.139,20.49648,-0.06328702,0.35571,1.03387
142.839,20.564,-0.06196951,0.35613,1.03361
143.539,20.63157,-0.06197,0.35826,1.03336
144.239,20.6992,-0.06197,0.3576,1.0331
144.939,20.76664,-0.06188482,0.36189,1.03284
145.639,20.83394,-0.06360427,0.35993,1.03257
146.339,20.90149,-0.06458967,0.36264,1.03231
147.039,20.96912,-0.06328224,0.36473,1.03205
147.739,21.0366,-0.06456968,0.36556,1.03178
148.439,21.10405,-0.06459989,0.36773,1.03152
149.139,21.17163,-0.0634919,0.36896,1.03125
149.839,21.23899,-0.06328,0.36911,1.03099
150.539,21.30629,-0.06328,0.37033,1.03072
151.239,21.37345,-0.06327836,0.37182,1.03045
151.939,21.44073,-0.06329325,0.3739,1.03019
152.639,21.50791,-0.06329059,0.3749,1.02992
153.339,21.5751,-0.06397531,0.37492,1.02965
154.039,21.64248,-0.06450233,0.38004,1.02937
154.739,21.70988,-0.06525,0.38004,1.0291
155.439,21.77712,-0.06525,0.38324,1.02883
156.139,21.84424,-0.06525,0.38349,1.02856
156.839,21.91143,-0.06525377,0.38563,1.02828
157.539,21.97871,-0.0665709,0.38753,1.02801
158.239,22.04587,-0.06666438,0.39174,1.02773
158.939,22.1131,-0.06787987,0.39375,1.02746
159.639,22.1803,-0.06788,0.397,1.02718
160.339,22.2475,-0.06788008,0.39773,1.0269
161.039,22.3147,-0.06860975,0.39905,1.02662
161.739,22.38171,-0.06984982,0.40304,1.02634
162.439,22.44882,-0.06929832,0.40535,1.02606
163.139,22.5159,-0.06993887,0.40687,1.02578
163.839,22.5831,-0.0698599,0.40856,1.0255
164.539,22.65,-0.06887039,0.41295,1.02522
165.239,22.71718,-0.06819996,0.41428,1.02493
165.939,22.78416,-0.06822011,0.41674,1.02465
166.639,22.85131,-0.06952428,0.42218,1.02436
167.339,22.9182,-0.06954136,0.42347,1.02408
168.039,22.98516,-0.07087259,0.42712,1.02379
168.739,23.05225,-0.07215988,0.42888,1.0235
169.439,23.1193,-0.07216001,0.43276,1.02321
170.139,23.18645,-0.07078143,0.43697,1.02293
170.839,23.2536,-0.07150929,0.44277,1.02264
171.539,23.32074,-0.07479942,0.44398,1.02235
172.239,23.38794,-0.0748,0.44849,1.02205
172.939,23.45487,-0.07479997,0.45555,1.02176
173.639,23.52201,-0.07494888,0.45646,1.02147
174.339,23.58884,-0.07611001,0.45989,1.02118
175.039,23.6558,-0.07610998,0.46568,1.02088
175.739,23.7226,-0.07621806,0.46962,1.02059
176.439,23.78959,-0.07874989,0.47384,1.02029
177.139,23.85662,-0.07875008,0.4797,1.01999
177.839,23.9234,-0.07957291,0.48231,1.0197
178.539,23.99025,-0.07973007,0.48853,1.0194
179.239,24.05729,-0.08105381,0.49215,1.0191
179.939,24.12464,-0.08105012,0.49666,1.0188
180.639,24.19194,-0.08216613,0.50092,1.0185
181.339,24.25901,-0.08235535,0.5047,1.0182
182.039,24.32595,-0.08434167,0.51075,1.0179
182.739,24.3929,-0.0866575,0.51543,1.01759
183.439,24.45984,-0.08796018,0.51778,1.01729
184.139,24.5268,-0.09051714,0.52388,1.01699
184.839,24.59372,-0.09060001,0.52678,1.01668
185.539,24.66059,-0.0906,0.53332,1.01638
186.239,24.72733,-0.09059607,0.53656,1.01607
186.939,24.79424,-0.09206708,0.54111,1.01576
187.639,24.86116,-0.09334542,0.54713,1.01545
188.339,24.92866,-0.09466017,0.55105,1.01514
189.039,24.99573,-0.09575546,0.55325,1.01484
189.739,25.06279,-0.09657723,0.55867,1.01453
190.439,25.12961,-0.09953318,0.56496,1.01421
191.139,25.1966,-0.10095,0.57034,1.0139
191.839,25.26363,-0.10224,0.57642,1.01359
192.539,25.33052,-0.1039,0.57926,1.01328
193.239,25.39753,-0.1064,0.58483,1.01296
193.939,25.46432,-0.10781,0.5892,1.01265
194.639,25.53111,-0.10783,0.59526,1.01233
195.339,25.59781,-0.10905,0.60105,1.01202
196.039,25.66434,-0.11177,0.60669,1.0117
196.739,25.73105,-0.11349,0.61322,1.01138
197.439,25.79801,-0.1157,0.61519,1.01106
198.139,25.86542,-0.11698,0.62266,1.01075
198.839,25.9324,-0.11702,0.62662,1.01043
199.539,25.9994,-0.12104,0.63111,1.01011
200.239,26.0661,-0.12142,0.63682,1.00978
200.939,26.1331,-0.12514,0.64059,1.00946
201.639,26.19998,-0.12745,0.64539,1.00914
202.339,26.26691,-0.1292,0.64938,1.00882
203.039,26.33375,-0.13177,0.65221,1.00849
203.739,26.40065,-0.13387,0.65704,1.00817
204.439,26.46756,-0.13602,0.66233,1.00784
205.139,26.53452,-0.13645,0.66679,1.00751
205.839,26.60143,-0.13864,0.66927,1.00719
206.539,26.66814,-0.1401,0.67115,1.00686
207.239,26.7347,-0.14172,0.67495,1.00653
207.939,26.8015,-0.14464,0.68005,1.0062
208.639,26.86825,-0.14879,0.68465,1.00587
209.339,26.9351,-0.15066,0.68172,1.00554
210.039,27.00155,-0.15171,0.68633,1.00521
210.739,27.06842,-0.15561,0.68932,1.00488
211.439,27.1352,-0.15688,0.68869,1.00455
212.139,27.2021,-0.1611,0.69047,1.00421
212.839,27.26885,-0.163,0.69285,1.00388
213.539,27.33565,-0.1638,0.69232,1.00354
214.239,27.4026,-0.16518,0.69329,1.00321
214.939,27.46935,-0.16921,0.69427,1.00287
215.639,27.53625,-0.17205,0.69324,1.00253
216.339,27.603,-0.17365,0.6945,1.0022
217.039,27.66987,-0.17494,0.69247,1.00186
217.739,27.7365,-0.17761,0.69067,1.00152
218.439,27.80306,-0.17903,0.6898,1.00118
219.139,27.8697,-0.1824,0.68934,1.00084
219.839,27.93652,-0.18603,0.68769,1.0005
220.539,28.00331,-0.19004,0.68772,1.00016
221.239,28.07023,-0.1916,0.68787,0.99981
221.939,28.1369,-0.19318,0.6859,0.99947
222.639,28.20368,-0.19461,0.68385,0.99913
223.339,28.27018,-0.19732,0.6829,0.99878
224.039,28.3368,-0.19993,0.67941,0.99843
224.739,28.40345,-0.20431,0.67876,0.99809
225.439,28.47017,-0.20599,0.67453,0.99774
226.139,28.537,-0.20862,0.67271,0.99739
226.839,28.6038,-0.21312,0.6737,0.99705
227.539,28.6705,-0.21485,0.67119,0.9967
228.239,28.7373,-0.21738,0.66849,0.99635
228.939,28.80398,-0.22016,0.66617,0.996
229.639,28.87053,-0.22216,0.66468,0.99565
230.339,28.93729,-0.22645,0.66211,0.99529
231.039,29.00392,-0.23098,0.66044,0.99494
231.739,29.0707,-0.23387,0.65673,0.99459
232.439,29.1373,-0.23417,0.65771,0.99424
233.139,29.20402,-0.23713,0.65254,0.99388
233.839,29.2708,-0.23999,0.65063,0.99353
234.539,29.3376,-0.24254,0.64748,0.99317
235.239,29.40423,-0.24648,0.64606,0.99281
235.939,29.471,-0.24839,0.64488,0.99246
236.639,29.5377,-0.25174,0.64012,0.9921
237.339,29.60425,-0.25632,0.63768,0.99174
238.039,29.67075,-0.25918,0.63599,0.99138
238.739,29.7375,-0.26147,0.63187,0.99102
239.439,29.8042,-0.26588,0.62864,0.99066
240.139,29.87085,-0.2692,0.62833,0.9903
240.839,29.9376,-0.27215,0.627,0.98994
241.539,30.00443,-0.27395,0.62471,0.98958
242.239,30.07132,-0.2763,0.6238,0.98921
242.939,30.1378,-0.27933,0.62077,0.98885
243.639,30.20427,-0.28396,0.61746,0.98848
244.339,30.27096,-0.28905,0.6158,0.98812
245.039,30.3375,-0.29163,0.61311,0.98775
245.739,30.40437,-0.29487,0.61185,0.98739
246.439,30.4711,-0.29792,0.60695,0.98702
247.139,30.53802,-0.30163,0.60587,0.98665
247.839,30.6045,-0.30461,0.60503,0.98628
248.539,30.6712,-0.30914,0.60335,0.98591
249.239,30.7378,-0.31395,0.59834,0.98554
249.939,30.80456,-0.31852,0.59798,0.98517
250.639,30.87097,-0.32154,0.59356,0.9848
251.339,30.93753,-0.32587,0.59272,0.98443
252.039,31.0043,-0.3306,0.5912,0.98406
252.739,31.0709,-0.33341,0.58603,0.98369
253.439,31.1375,-0.33792,0.58333,0.98331
254.139,31.204,-0.34125,0.58036,0.98294
254.839,31.2708,-0.34725,0.57545,0.98256
255.539,31.3377,-0.35162,0.5737,0.98219
256.239,31.40431,-0.35471,0.57047,0.98181
256.939,31.471,-0.35912,0.56784,0.98143
257.639,31.5376,-0.36313,0.56357,0.98106
258.339,31.60424,-0.36877,0.56308,0.98068
259.039,31.67055,-0.37254,0.55909,0.9803
259.739,31.7368,-0.37659,0.5532,0.97992
260.439,31.80316,-0.38166,0.55154,0.97954
261.139,31.86992,-0.38685,0.54759,0.97916
261.839,31.93702,-0.39396,0.5436,0.97878
262.539,32.00372,-0.39869,0.53989,0.97839
263.239,32.0702,-0.40432,0.53602,0.97801
263.939,32.1368,-0.40931,0.53004,0.97763
264.639,32.2034,-0.41474,0.52776,0.97724
265.339,32.27013,-0.42066,0.5231,0.97686
266.039,32.3367,-0.42703,0.52018,0.97647
266.739,32.40315,-0.43275,0.51448,0.97609
267.439,32.46989,-0.43861,0.51091,0.9757
268.139,32.53675,-0.44426,0.50698,0.97531
268.839,32.60357,-0.45121,0.5036,0.97493
269.539,32.67022,-0.45795,0.4985,0.97454
270.239,32.73686,-0.4651,0.49803,0.97415
270.939,32.8038,-0.47239,0.49391,0.97376
271.639,32.87065,-0.47858,0.49059,0.97337
272.339,32.9377,-0.48473,0.48605,0.97298
273.039,33.00465,-0.49073,0.48232,0.97259
273.739,33.07152,-0.49923,0.47855,0.97219
274.439,33.13817,-0.50627,0.47231,0.9718
275.139,33.205,-0.51332,0.4696,0.97141
275.839,33.27192,-0.5215,0.46699,0.97101
276.539,33.33896,-0.52836,0.46251,0.97062
277.239,33.4058,-0.53643,0.45902,0.97022
277.939,33.47254,-0.54492,0.45532,0.96983
278.639,33.53942,-0.55338,0.45134,0.96943
279.339,33.60637,-0.56119,0.44614,0.96903
280.039,33.67347,-0.56999,0.44325,0.96864
280.739,33.74061,-0.57876,0.44198,0.96824
281.439,33.8076,-0.58587,0.43812,0.96784
282.139,33.8743,-0.59544,0.43338,0.96744
282.839,33.94133,-0.60378,0.43184,0.96704
283.539,34.0083,-0.61337,0.42686,0.96664
284.239,34.07548,-0.62427,0.42165,0.96624
284.939,34.14236,-0.63433,0.41996,0.96583
285.639,34.2092,-0.64243,0.41566,0.96543
286.339,34.27602,-0.65156,0.41283,0.96503
287.039,34.34292,-0.66029,0.40714,0.96462
287.739,34.40999,-0.67094,0.40679,0.96422
288.439,34.47699,-0.6803,0.40208,0.96381
289.139,34.54405,-0.68969,0.39513,0.96341
289.839,34.611,-0.69838,0.39489,0.963
290.539,34.67781,-0.70934,0.39006,0.9626
291.239,34.7449,-0.71926,0.38726,0.96219
291.939,34.81192,-0.72984,0.3836,0.96178
292.639,34.87908,-0.74335,0.37953,0.96137
293.339,34.94562,-0.75255,0.37583,0.96096
294.039,35.0122,-0.76253,0.37045,0.96055
294.739,35.07927,-0.77328,0.36922,0.96014
295.439,35.14686,-0.78618,0.36559,0.95973
296.139,35.21445,-0.79677,0.36259,0.95932
296.839,35.28175,-0.80719,0.35848,0.95891
297.539,35.34887,-0.81763,0.35442,0.95849
298.239,35.41622,-0.83071,0.35587,0.95808
298.939,35.48357,-0.84359,0.35292,0.95767
299.639,35.55093,-0.8538,0.35191,0.95725
300.339,35.61777,-0.8647,0.35066,0.95684
301.039,35.68482,-0.8755,0.35001,0.95642
301.739,35.75183,-0.88997,0.3476,0.95601
302.439,35.81908,-0.90131,0.34632,0.95559
303.139,35.88619,-0.91304,0.34655,0.95517
303.839,35.95324,-0.92558,0.34385,0.95475
304.539,36.0204,-0.93831,0.34464,0.95433
305.239,36.0876,-0.95036,0.34409,0.95391
305.939,36.15475,-0.96296,0.34451,0.9535
306.639,36.22202,-0.97524,0.34264,0.95307
307.339,36.28928,-0.98668,0.34356,0.95265
308.039,36.35665,-0.99851,0.34387,0.95223
308.739,36.42373,-1.01323,0.34256,0.95181
309.439,36.49102,-1.02607,0.34552,0.95139
310.139,36.55808,-1.03883,0.34599,0.95096
310.839,36.62546,-1.05336,0.34453,0.95054
311.539,36.69273,-1.06695,0.34912,0.95012
312.239,36.76013,-1.07922,0.35009,0.94969
312.939,36.8275,-1.0948,0.34981,0.94927
313.639,36.89464,-1.1065,0.35187,0.94884
314.339,36.96198,-1.12017,0.35402,0.94841
315.039,37.02915,-1.13491,0.35495,0.94799
315.739,37.09646,-1.15036,0.35667,0.94756
316.439,37.16353,-1.16336,0.35936,0.94713
317.139,37.23086,-1.17695,0.36237,0.9467
317.839,37.29811,-1.19028,0.36412,0.94627
318.539,37.36546,-1.20521,0.36826,0.94584
319.239,37.43275,-1.22176,0.36799,0.94541
319.939,37.5,-1.23781,0.36931,0.94498
320.639,37.56731,-1.254,0.37395,0.94455
321.339,37.63453,-1.26798,0.37761,0.94412
322.039,37.7017,-1.28137,0.37624,0.94368
322.739,37.76912,-1.29545,0.37753,0.94325
323.439,37.83639,-1.30998,0.38028,0.94282
324.139,37.9037,-1.32579,0.38422,0.94238
324.839,37.9709,-1.34265,0.38733,0.94195
325.539,38.03828,-1.35973,0.38914,0.94151
326.239,38.10561,-1.37551,0.38934,0.94108
326.939,38.1729,-1.39129,0.39185,0.94064
327.639,38.24023,-1.40796,0.3963,0.9402
328.339,38.30762,-1.42164,0.39859,0.93976
329.039,38.37498,-1.44253,0.40069,0.93933
329.739,38.44245,-1.45966,0.40419,0.93889
330.439,38.50987,-1.47699,0.40524,0.93845
331.139,38.57737,-1.49535,0.41111,0.93801
331.839,38.64483,-1.51248,0.41157,0.93757
332.539,38.71239,-1.5309,0.41646,0.93713
333.239,38.77998,-1.55018,0.41874,0.93669
333.939,38.84776,-1.56852,0.42124,0.93624
334.639,38.91539,-1.58798,0.42478,0.9358
335.339,38.98298,-1.60681,0.42895,0.93536
336.039,39.0503,-1.6276,0.43067,0.93492
336.739,39.11792,-1.64612,0.43576,0.93447
337.439,39.18568,-1.66641,0.43898,0.93403
338.139,39.25363,-1.68803,0.44225,0.93358
338.839,39.32124,-1.70729,0.44616,0.93314
339.539,39.38888,-1.72751,0.45001,0.93269
340.239,39.45642,-1.74963,0.45282,0.93224
340.939,39.52435,-1.77299,0.4528,0.9318
341.639,39.592,-1.79343,0.45788,0.93135
342.339,39.65972,-1.81576,0.4607,0.9309
343.039,39.7274,-1.83827,0.46153,0.93045
343.739,39.79522,-1.86043,0.46246,0.93
344.439,39.86302,-1.88288,0.46659,0.92955
345.139,39.93085,-1.90596,0.47031,0.9291
345.839,39.9987,-1.9306,0.47114,0.92865
346.539,40.06661,-1.95144,0.47277,0.9282
347.239,40.13449,-1.97565,0.47253,0.92775
347.939,40.20221,-2.00094,0.47308,0.92729
348.639,40.26977,-2.02263,0.47376,0.92684
349.339,40.33728,-2.04823,0.47486,0.92639
350.039,40.4049,-2.07202,0.47486,0.92593
350.739,40.47245,-2.09582,0.47355,0.92548
351.439,40.5405,-2.12005,0.4702,0.92503
352.139,40.60824,-2.1458,0.46721,0.92457
352.839,40.67622,-2.16887,0.46453,0.92411
353.539,40.744,-2.19357,0.46043,0.92366
354.239,40.81175,-2.2182,0.45753,0.9232
354.939,40.87931,-2.24081,0.44948,0.92274
355.639,40.94697,-2.26352,0.44281,0.92228
356.339,41.01475,-2.2875,0.4357,0.92183
357.039,41.08254,-2.31064,0.42637,0.92137
357.739,41.15017,-2.33284,0.41611,0.92091
358.439,41.2177,-2.3549,0.40665,0.92045
359.139,41.2855,-2.37669,0.3975,0.91999
359.839,41.35325,-2.39709,0.38572,0.91953
360.539,41.42118,-2.41666,0.37282,0.91906
361.239,41.48895,-2.43819,0.36097,0.9186
361.939,41.5567,-2.45507,0.34519,0.91814
362.639,41.62461,-2.47228,0.33212,0.91768
363.339,41.69242,-2.49048,0.31729,0.91721
364.039,41.7602,-2.5089,0.3025,0.91675
364.739,41.82817,-2.52149,0.28999,0.91629
365.439,41.89595,-2.53313,0.27209,0.91582
366.139,41.9638,-2.54591,0.25896,0.91536
366.839,42.03139,-2.55688,0.24799,0.91489
367.539,42.09896,-2.56726,0.23407,0.91442
368.239,42.16641,-2.57662,0.22237,0.91396
368.939,42.23413,-2.58454,0.21197,0.91349
369.639,42.302,-2.59176,0.2022,0.91302
370.339,42.36981,-2.59865,0.19355,0.91255
371.039,42.43755,-2.60485,0.1847,0.91208
371.739,42.50537,-2.61132,0.18149,0.91161
372.439,42.57331,-2.61677,0.17425,0.91114
373.139,42.64113,-2.62116,0.17167,0.91067
373.839,42.70884,-2.62556,0.16286,0.9102
374.539,42.7767,-2.62883,0.15992,0.90973
375.239,42.84467,-2.63274,0.15621,0.90926
375.939,42.91274,-2.63504,0.15314,0.90879
376.639,42.9798,-2.63947,0.15147,0.90832
377.339,43.04763,-2.64257,0.14524,0.90784
378.039,43.11549,-2.64659,0.14641,0.90737
378.739,43.1843,-2.65004,0.14143,0.9069
379.439,43.25246,-2.65329,0.14063,0.90642
380.139,43.32076,-2.65593,0.1378,0.90595
380.839,43.3887,-2.65966,0.13621,0.90547
381.539,43.4569,-2.66237,0.13438,0.905
382.239,43.52498,-2.66521,0.13024,0.90452
382.939,43.59324,-2.66826,0.13034,0.90404
383.639,43.6614,-2.67257,0.12862,0.90357
384.339,43.72955,-2.67476,0.12602,0.90309
385.039,43.79793,-2.678,0.12522,0.90261
385.739,43.86586,-2.67919,0.12746,0.90213
386.439,43.93411,-2.68118,0.12621,0.90165
387.139,44.00217,-2.68388,0.12494,0.90117
387.839,44.07056,-2.68701,0.12207,0.90069
388.539,44.13859,-2.68974,0.11844,0.90021
389.239,44.20666,-2.69241,0.12043,0.89973
389.939,44.27475,-2.69549,0.11916,0.89925
390.639,44.34313,-2.69829,0.11697,0.89877
391.339,44.41144,-2.69981,0.11373,0.89829
392.039,44.47983,-2.70276,0.11257,0.8978
392.739,44.54809,-2.70543,0.11583,0.89732
393.439,44.61632,-2.70802,0.11092,0.89684
394.139,44.68453,-2.7087,0.11467,0.89635
394.839,44.75284,-2.71265,0.11347,0.89587
395.539,44.82121,-2.71527,0.11081,0.89538
396.239,44.88964,-2.71527,0.11003,0.8949
396.939,44.9581,-2.71947,0.10847,0.89441
397.639,45.02642,-2.72208,0.10902,0.89393
398.339,45.0946,-2.72462,0.1063,0.89344
399.039,45.16267,-2.72669,0.10642,0.89295
399.739,45.2309,-2.72954,0.10431,0.89246
400.439,45.2992,-2.73122,0.10682,0.89198
401.139,45.3677,-2.73242,0.10787,0.89149
401.839,45.43581,-2.73578,0.10932,0.891
402.539,45.504,-2.73794,0.10809,0.89051
403.239,45.57209,-2.74104,0.10766,0.89002
403.939,45.64049,-2.7435,0.10618,0.88953
404.639,45.70885,-2.74527,0.10616,0.88904
405.339,45.77707,-2.74815,0.10625,0.88855
406.039,45.8455,-2.75123,0.10677,0.88806
406.739,45.9137,-2.75347,0.10547,0.88756
407.439,45.98202,-2.75466,0.10962,0.88707
408.139,46.05024,-2.75632,0.11059,0.88658
408.839,46.11842,-2.75863,0.10914,0.88609
409.539,46.1867,-2.75947,0.11122,0.88559
410.239,46.2548,-2.76213,0.1102,0.8851
410.939,46.3231,-2.76315,0.11152,0.8846
411.639,46.3914,-2.76638,0.11074,0.88411
412.339,46.45971,-2.76912,0.1107,0.88361
413.039,46.52799,-2.77168,0.11511,0.88312
413.739,46.5964,-2.77345,0.11585,0.88262
414.439,46.66475,-2.77572,0.11472,0.88213
415.139,46.73312,-2.77792,0.11677,0.88163
415.839,46.80157,-2.7801,0.11591,0.88113
416.539,46.87011,-2.78175,0.11566,0.88063
417.239,46.93865,-2.78556,0.11717,0.88014
417.939,47.007,-2.78848,0.11737,0.87964
418.639,47.07533,-2.79104,0.1195,0.87914
419.339,47.14375,-2.7927,0.11878,0.87864
420.039,47.21219,-2.79261,0.11988,0.87814
420.739,47.28089,-2.79433,0.12213,0.87764
421.439,47.3495,-2.79656,0.12378,0.87714
422.139,47.41802,-2.79921,0.12469,0.87664
422.839,47.48668,-2.80149,0.12552,0.87614
423.539,47.55536,-2.8038,0.12291,0.87563
424.239,47.62389,-2.80519,0.12628,0.87513
424.939,47.6926,-2.80639,0.12887,0.87463
425.639,47.76129,-2.80819,0.12979,0.87413
426.339,47.83037,-2.81049,0.13194,0.87362
427.039,47.89891,-2.81175,0.13213,0.87312
427.739,47.9676,-2.81459,0.13683,0.87261
428.439,48.0363,-2.81658,0.13652,0.87211
429.139,48.10475,-2.81795,0.14098,0.87161
429.839,48.1731,-2.82055,0.1372,0.8711
430.539,48.24146,-2.82197,0.1394,0.87059
431.239,48.30997,-2.82364,0.14003,0.87009
431.939,48.37811,-2.82593,0.1407,0.86958
432.639,48.44658,-2.82762,0.14376,0.86907
433.339,48.51522,-2.83122,0.1451,0.86857
434.039,48.58424,-2.83364,0.14506,0.86806
434.739,48.65296,-2.83505,0.14979,0.86755
435.439,48.72166,-2.83703,0.1508,0.86704
436.139,48.7903,-2.83733,0.15099,0.86653
436.839,48.8589,-2.83829,0.15307,0.86602
437.539,48.92759,-2.84117,0.15165,0.86551
438.239,48.99623,-2.84186,0.15627,0.865
438.939,49.0648,-2.84417,0.15851,0.86449
439.639,49.1334,-2.84552,0.15746,0.86398
440.339,49.20192,-2.84676,0.15944,0.86347
441.039,49.27063,-2.84964,0.15938,0.86296
441.739,49.33935,-2.85092,0.16126,0.86245
442.439,49.40821,-2.85229,0.16339,0.86194
443.139,49.47701,-2.8532,0.16359,0.86142
443.839,49.5457,-2.85548,0.16319,0.86091
444.539,49.61456,-2.85852,0.16848,0.8604
445.239,49.68342,-2.85975,0.16645,0.85988
445.939,49.75248,-2.86413,0.16681,0.85937
446.639,49.82145,-2.86412,0.17032,0.85885
447.339,49.89028,-2.86279,0.16883,0.85834
448.039,49.95932,-2.86435,0.17063,0.85782
448.739,50.02823,-2.86695,0.17129,0.85731
449.439,50.09729,-2.86697,0.17281,0.85679
450.139,50.1661,-2.8696,0.17392,0.85628
450.839,50.23499,-2.87118,0.17244,0.85576
451.539,50.3039,-2.87356,0.1719,0.85524
452.239,50.37288,-2.87484,0.17301,0.85472
452.939,50.44191,-2.87533,0.17276,0.85421
453.639,50.51086,-2.87651,0.17635,0.85369
454.339,50.57971,-2.87934,0.17522,0.85317
455.039,50.64846,-2.87937,0.1761,0.85265
455.739,50.7172,-2.88056,0.17675,0.85213
456.439,50.78614,-2.88165,0.17803,0.85161
457.139,50.8551,-2.88349,0.17913,0.85109
457.839,50.92398,-2.88645,0.17983,0.85057
458.539,50.99295,-2.88868,0.18124,0.85005
459.239,51.0618,-2.88868,0.18298,0.84953
459.939,51.13065,-2.89,0.18489,0.84901
460.639,51.19934,-2.89262,0.18442,0.84849
461.339,51.2682,-2.89531,0.18786,0.84796
462.039,51.33703,-2.89658,0.18402,0.84744
462.739,51.40586,-2.89788,0.18286,0.84692
463.439,51.47466,-2.89922,0.18488,0.8464
464.139,51.54352,-2.90062,0.18069,0.84587
464.839,51.61252,-2.90093,0.1865,0.84535
465.539,51.68142,-2.9023,0.18296,0.84482
466.239,51.7504,-2.90316,0.18394,0.8443
466.939,51.81937,-2.90587,0.18503,0.84377
467.639,51.88843,-2.90722,0.18687,0.84325
468.339,51.95755,-2.90986,0.18588,0.84272
469.039,52.02667,-2.9112,0.1868,0.8422
469.739,52.09575,-2.91106,0.18675,0.84167
470.439,52.1648,-2.91182,0.18824,0.84115
471.139,52.23377,-2.9125,0.18904,0.84062
471.839,52.3029,-2.91378,0.18736,0.84009
472.539,52.3718,-2.91643,0.19093,0.83956
473.239,52.4409,-2.91907,0.19189,0.83904
473.939,52.5098,-2.92039,0.18932,0.83851
474.639,52.57897,-2.92183,0.19122,0.83798
475.339,52.64799,-2.92045,0.19299,0.83745
476.039,52.7169,-2.92181,0.19478,0.83692
476.739,52.7858,-2.92236,0.19689,0.83639
477.439,52.8547,-2.92415,0.19474,0.83586
478.139,52.9239,-2.92347,0.20008,0.83533
478.839,52.99304,-2.9251,0.20007,0.8348
479.539,53.06213,-2.92641,0.20095,0.83427
480.239,53.13129,-2.92641,0.20175,0.83374
480.939,53.2004,-2.92773,0.20202,0.83321
481.639,53.26945,-2.92813,0.20695,0.83268
482.339,53.3383,-2.93034,0.20716,0.83214
483.039,53.4071,-2.9322,0.21143,0.83161
483.739,53.47526,-2.93594,0.21648,0.83108
484.439,53.5442,-2.93596,0.21995,0.83054
485.139,53.61326,-2.93727,0.22415,0.83001
485.839,53.68319,-2.93727,0.22442,0.82948
486.539,53.7523,-2.9386,0.2267,0.82894
487.239,53.82119,-2.9399,0.22636,0.82841
487.939,53.89001,-2.94023,0.22981,0.82787
488.639,53.95909,-2.94251,0.22997,0.82734
489.339,54.02815,-2.94251,0.23504,0.8268
490.039,54.0974,-2.94385,0.2379,0.82627
490.739,54.1665,-2.94385,0.23731,0.82573
491.439,54.2357,-2.94526,0.23851,0.8252
492.139,54.30469,-2.94644,0.23948,0.82466
492.839,54.37367,-2.94781,0.24312,0.82412
493.539,54.44282,-2.94815,0.24181,0.82359
494.239,54.5119,-2.94923,0.24274,0.82305
494.939,54.58139,-2.95052,0.24239,0.82251
495.639,54.65051,-2.95188,0.24661,0.82197
496.339,54.71989,-2.95318,0.24614,0.82143
497.039,54.78892,-2.95449,0.24913,0.8209
497.739,54.8583,-2.95434,0.24689,0.82036
498.439,54.92734,-2.95444,0.24921,0.81982
499.139,54.9964,-2.95682,0.24989,0.81928
499.839,55.0655,-2.95848,0.24787,0.81874
500.539,55.13485,-2.95844,0.24966,0.8182
501.239,55.2042,-2.95974,0.25071,0.81766
501.939,55.27335,-2.96123,0.24815,0.81712
502.639,55.3425,-2.96571,0.24756,0.81658
503.339,55.41194,-2.96391,0.24463,0.81603
504.039,55.48126,-2.9636,0.2455,0.81549
504.739,55.5505,-2.96492,0.24572,0.81495
505.439,55.61959,-2.96722,0.24488,0.81441
506.139,55.6889,-2.96852,0.24491,0.81387
506.839,55.7582,-2.96715,0.24347,0.81332
507.539,55.82755,-2.96952,0.24449,0.81278
508.239,55.8967,-2.9709,0.24382,0.81224
508.939,55.96585,-2.97248,0.2465,0.81169
509.639,56.0352,-2.97368,0.24525,0.81115
510.339,56.1049,-2.97369,0.24248,0.81061
511.039,56.1744,-2.97502,0.24101,0.81006
511.739,56.2438,-2.97596,0.23806,0.80952
512.439,56.3133,-2.97632,0.23073,0.80897
513.139,56.38284,-2.97632,0.22934,0.80843
513.839,56.45267,-2.97492,0.22841,0.80788
514.539,56.52242,-2.97633,0.22629,0.80734
515.239,56.5923,-2.97762,0.22416,0.80679
515.939,56.66194,-2.97765,0.22144,0.80624
516.639,56.7315,-2.97896,0.21745,0.8057
517.339,56.80073,-2.98028,0.21673,0.80515
518.039,56.86985,-2.98159,0.21469,0.8046
518.739,56.9391,-2.98291,0.21735,0.80405
519.439,57.00858,-2.98422,0.21504,0.80351
520.139,57.07812,-2.98422,0.21473,0.80296
520.839,57.14768,-2.98535,0.21253,0.80241
521.539,57.21734,-2.98688,0.21199,0.80186
522.239,57.2872,-2.98587,0.21177,0.80131
522.939,57.3571,-2.98657,0.21245,0.80076
523.639,57.42719,-2.98721,0.2092,0.80021
524.339,57.49734,-2.98809,0.20663,0.79967
525.039,57.56763,-2.98572,0.207,0.79912
525.739,57.63768,-2.98678,0.20558,0.79857
526.439,57.7076,-2.9895,0.20253,0.79801
527.139,57.77743,-2.99085,0.20495,0.79746
527.839,57.84701,-2.99214,0.20124,0.79691
528.539,57.91635,-2.99344,0.20136,0.79636
529.239,57.98548,-2.99272,0.20129,0.79581
529.939,58.0548,-2.99408,0.20078,0.79526
530.639,58.1243,-2.99467,0.19886,0.79471
531.339,58.1939,-2.99475,0.20005,0.79416
532.039,58.26333,-2.99607,0.19869,0.7936
532.739,58.33291,-2.99736,0.19657,0.79305
533.439,58.4024,-2.99824,0.19731,0.7925
534.139,58.4724,-2.99865,0.19882,0.79194
534.839,58.54235,-3.00138,0.19684,0.79139
535.539,58.61189,-3.00113,0.19687,0.79084
536.239,58.6812,-3.00142,0.19502,0.79028
536.939,58.75082,-3.00232,0.19639,0.78973
537.639,58.82075,-3.00232,0.19323,0.78917
538.339,58.8904,-3.00233,0.19535,0.78862
539.039,58.95978,-3.00396,0.1978,0.78807
539.739,59.0295,-3.00264,0.19696,0.78751
540.439,59.0992,-3.00397,0.19378,0.78695
541.139,59.16882,-3.00661,0.19335,0.7864
541.839,59.2383,-3.0066,0.19252,0.78584
542.539,59.30797,-3.00664,0.19447,0.78529
543.239,59.3776,-3.00529,0.19139,0.78473
543.939,59.44724,-3.0066,0.1931,0.78417
544.639,59.517,-3.00794,0.19583,0.78362
545.339,59.5869,-3.00974,0.19393,0.78306
546.039,59.6569,-3.00988,0.19037,0.7825
546.739,59.7268,-3.01127,0.19365,0.78195
547.439,59.7966,-3.01121,0.19128,0.78139
548.139,59.8663,-3.01121,0.19034,0.78083
548.839,59.936,-3.01242,0.19006,0.78027
549.539,60.0056,-3.01378,0.19398,0.77971
550.239,60.0751,-3.01513,0.19343,0.77915
550.939,60.14481,-3.01525,0.19352,0.7786
551.639,60.21451,-3.0151,0.19229,0.77804
552.339,60.2845,-3.01516,0.19084,0.77748
553.039,60.35411,-3.01647,0.19119,0.77692
553.739,60.4239,-3.01788,0.19129,0.77636
554.439,60.4938,-3.0191,0.18873,0.7758
555.139,60.56381,-3.01908,0.18819,0.77524
555.839,60.6337,-3.0192,0.18859,0.77468
556.539,60.7034,-3.0191,0.1909,0.77412
557.239,60.7732,-3.0191,0.18722,0.77356
557.939,60.8431,-3.01969,0.18648,0.773
558.639,60.9125,-3.01976,0.18601,0.77243
559.339,60.98214,-3.02107,0.18739,0.77187
560.039,61.05158,-3.02107,0.18246,0.77131
560.739,61.1215,-3.02107,0.18281,0.77075
561.439,61.19125,-3.02237,0.18482,0.77019
562.139,61.2612,-3.02374,0.18401,0.76962
562.839,61.3309,-3.02371,0.18384,0.76906
563.539,61.40064,-3.02371,0.18408,0.7685
564.239,61.47036,-3.02502,0.18191,0.76794
564.939,61.5399,-3.02502,0.18156,0.76737
565.639,61.6097,-3.02634,0.18445,0.76681
566.339,61.6793,-3.02765,0.18276,0.76625
567.039,61.7493,-3.02897,0.18587,0.76568
567.739,61.81919,-3.02963,0.18302,0.76512
568.439,61.88899,-3.03094,0.18306,0.76455
569.139,61.9588,-3.03094,0.18526,0.76399
569.839,62.0285,-3.03095,0.18491,0.76342
570.539,62.0985,-3.03222,0.18442,0.76286
571.239,62.1685,-3.03358,0.18204,0.76229
571.939,62.2385,-3.03483,0.18531,0.76173
572.639,62.30819,-3.03489,0.18431,0.76116
573.339,62.37791,-3.03358,0.18269,0.7606
574.039,62.4478,-3.03358,0.18499,0.76003
574.739,62.5178,-3.0349,0.18479,0.75947
575.439,62.5876,-3.03628,0.18792,0.7589
576.139,62.6573,-3.03752,0.18892,0.75833
576.839,62.7271,-3.03884,0.1896,0.75777
577.539,62.79695,-3.03882,0.19297,0.7572
578.239,62.86693,-3.03891,0.19385,0.75663
578.939,62.9369,-3.03838,0.19354,0.75607
579.639,63.00671,-3.0382,0.20017,0.7555
580.339,63.0762,-3.03996,0.20348,0.75493
581.039,63.1456,-3.04093,0.20561,0.75436
581.739,63.21533,-3.04021,0.20385,0.7538
582.439,63.28532,-3.04157,0.20159,0.75323
583.139,63.3557,-3.04159,0.20053,0.75266
583.839,63.4259,-3.04289,0.20034,0.75209
584.539,63.49641,-3.0429,0.20106,0.75152
585.239,63.56666,-3.04355,0.19701,0.75095
585.939,63.6368,-3.04368,0.19902,0.75039
586.639,63.70685,-3.04422,0.20177,0.74982
587.339,63.777,-3.04422,0.19934,0.74925
588.039,63.84726,-3.04421,0.19821,0.74868
588.739,63.9175,-3.04507,0.19752,0.74811
589.439,63.9878,-3.04521,0.19808,0.74754
590.139,64.0579,-3.04554,0.19538,0.74697
590.839,64.12816,-3.04554,0.19463,0.7464
591.539,64.19834,-3.04645,0.19512,0.74583
592.239,64.2685,-3.04787,0.19482,0.74526
592.939,64.33876,-3.04915,0.19718,0.74469
593.639,64.40898,-3.0505,0.19597,0.74411
594.339,64.4795,-3.05014,0.19694,0.74354
595.039,64.54978,-3.05014,0.19556,0.74297
595.739,64.62018,-3.05014,0.19727,0.7424
596.439,64.69041,-3.05014,0.19396,0.74183
597.139,64.76056,-3.04981,0.19563,0.74126
597.839,64.8305,-3.0505,0.19482,0.74069
598.539,64.90055,-3.05179,0.19386,0.74011
599.239,64.97063,-3.0508,0.1957,0.73954
599.939,65.04104,-3.05211,0.19517,0.73897
600.639,65.1114,-3.05244,0.19457,0.7384
601.339,65.18167,-3.05244,0.1929,0.73782
602.039,65.25166,-3.05318,0.19532,0.73725
602.739,65.32176,-3.05301,0.19658,0.73668
603.439,65.39183,-3.05377,0.19559,0.7361
604.139,65.46205,-3.05377,0.19419,0.73553
604.839,65.53227,-3.05506,0.19621,0.73496
605.539,65.60245,-3.05508,0.19531,0.73438
606.239,65.67257,-3.05706,0.19949,0.73381
606.939,65.7425,-3.05705,0.20052,0.73324
607.639,65.81257,-3.05705,0.20109,0.73266
608.339,65.88253,-3.05705,0.20021,0.73209
609.039,65.95271,-3.05836,0.20189,0.73151
609.739,66.02277,-3.05968,0.19976,0.73094
610.439,66.09285,-3.06055,0.20321,0.73036
611.139,66.16292,-3.05971,0.20549,0.72979
611.839,66.23305,-3.061,0.20487,0.72921
612.539,66.30333,-3.06233,0.20922,0.72864
613.239,66.37366,-3.06232,0.20892,0.72806
613.939,66.444,-3.06364,0.21016,0.72749
614.639,66.5142,-3.06343,0.20954,0.72691
615.339,66.58443,-3.06237,0.2121,0.72634
616.039,66.6547,-3.06363,0.21263,0.72576
616.739,66.72497,-3.06232,0.21207,0.72518
617.439,66.79527,-3.06332,0.2115,0.72461
618.139,66.86555,-3.06331,0.21255,0.72403
618.839,66.93576,-3.0635,0.21297,0.72346
619.539,67.00601,-3.06495,0.21379,0.72288
620.239,67.07627,-3.06626,0.21541,0.7223
620.939,67.14672,-3.06617,0.21755,0.72173
621.639,67.21706,-3.07037,0.21886,0.72115
622.339,67.2873,-3.06765,0.22001,0.72057
623.039,67.35757,-3.06747,0.22357,0.71999
623.739,67.42787,-3.06801,0.22398,0.71942
624.439,67.4983,-3.06883,0.22347,0.71884
625.139,67.56837,-3.07012,0.21941,0.71826
625.839,67.63877,-3.07143,0.22203,0.71768
626.539,67.70904,-3.07143,0.2189,0.71711
627.239,67.7793,-3.07143,0.21843,0.71653
627.939,67.84937,-3.07143,0.21893,0.71595
628.639,67.91936,-3.07176,0.21627,0.71537
629.339,67.98956,-3.07307,0.22138,0.71479
630.039,68.05897,-3.07302,0.22247,0.71421
630.739,68.12859,-3.0757,0.22123,0.71364
631.439,68.19855,-3.07569,0.22337,0.71306
632.139,68.26909,-3.07714,0.22317,0.71248
632.839,68.33968,-3.07712,0.22051,0.7119
633.539,68.40995,-3.07844,0.22182,0.71132
634.239,68.48042,-3.07844,0.22027,0.71074
634.939,68.55076,-3.07739,0.22002,0.71016
635.639,68.621,-3.07712,0.2197,0.70958
636.339,68.69136,-3.07712,0.21778,0.709
637.039,68.7612,-3.07716,0.21643,0.70842
637.739,68.83121,-3.07844,0.21625,0.70784
638.439,68.90162,-3.07941,0.21782,0.70726
639.139,68.97265,-3.08074,0.21772,0.70668
639.839,69.04356,-3.08203,0.21915,0.7061
640.539,69.1139,-3.08206,0.22264,0.70552
641.239,69.18428,-3.08206,0.21944,0.70494
641.939,69.2547,-3.08337,0.22091,0.70436
642.639,69.3252,-3.08337,0.22386,0.70378
643.339,69.39562,-3.08479,0.2252,0.7032
644.039,69.46592,-3.08612,0.22681,0.70262
644.739,69.53624,-3.08513,0.22441,0.70204
645.439,69.60661,-3.08514,0.22977,0.70146
646.139,69.67711,-3.08514,0.22741,0.70088
646.839,69.7475,-3.08647,0.22501,0.70029
647.539,69.8177,-3.08777,0.22513,0.69971
648.239,69.8879,-3.08777,0.22468,0.69913
648.939,69.95822,-3.08645,0.22412,0.69855
649.639,70.0286,-3.08776,0.22197,0.69797
650.339,70.0989,-3.08776,0.22268,0.69739
651.039,70.16915,-3.08908,0.21895,0.6968
651.739,70.23953,-3.0904,0.21827,0.69622
652.439,70.3096,-3.0904,0.21718,0.69564
653.139,70.3799,-3.09171,0.21785,0.69506
653.839,70.4502,-3.09171,0.21439,0.69448
654.539,70.52093,-3.09171,0.21403,0.69389
655.239,70.59164,-3.09383,0.21103,0.69331
655.939,70.6624,-3.09303,0.2119,0.69273
656.639,70.73291,-3.09432,0.20784,0.69215
657.339,70.8032,-3.09435,0.2052,0.69156
658.039,70.87363,-3.09466,0.20643,0.69098
658.739,70.94421,-3.09501,0.20599,0.6904
659.439,71.0149,-3.09498,0.20644,0.68981
660.139,71.0853,-3.09434,0.20074,0.68923
660.839,71.1558,-3.09433,0.20046,0.68865
661.539,71.22622,-3.09144,0.20015,0.68807
662.239,71.2966,-3.09428,0.19885,0.68748
662.939,71.36709,-3.09675,0.20419,0.6869
663.639,71.43765,-3.09611,0.20287,0.68632
664.339,71.50843,-3.09632,0.20332,0.68573
665.039,71.57921,-3.09746,0.20205,0.68515
665.739,71.64986,-3.09807,0.20072,0.68456
666.439,71.7204,-3.09841,0.19946,0.68398
667.139,71.79095,-3.09841,0.19796,0.6834
667.839,71.8615,-3.0984,0.19992,0.68281
668.539,71.93194,-3.09873,0.19845,0.68223
669.239,72.00235,-3.09874,0.20264,0.68164
669.939,72.07293,-3.10067,0.19991,0.68106
670.639,72.1437,-3.10291,0.20201,0.68048
671.339,72.2144,-3.10111,0.20309,0.67989
672.039,72.28444,-3.0994,0.20203,0.67931
672.739,72.3548,-3.10246,0.20047,0.67872
673.439,72.42529,-3.10333,0.20422,0.67814
674.139,72.4962,-3.10246,0.19983,0.67755
674.839,72.56665,-3.10378,0.19968,0.67697
675.539,72.63696,-3.10378,0.20313,0.67638
676.239,72.7073,-3.10378,0.20202,0.6758
676.939,72.77785,-3.10378,0.20168,0.67522
677.639,72.8483,-3.10258,0.20192,0.67463
678.339,72.91883,-3.10246,0.20322,0.67405
679.039,72.9892,-3.10246,0.201,0.67346
679.739,73.05976,-3.10378,0.20502,0.67288
680.439,73.13033,-3.10378,0.20813,0.67229
681.139,73.20108,-3.10378,0.20837,0.6717
681.839,73.27169,-3.10507,0.20762,0.67112
682.539,73.34235,-3.10565,0.20862,0.67053
683.239,73.41288,-3.10641,0.20744,0.66995
683.939,73.48348,-3.10611,0.20835,0.66936
684.639,73.554,-3.10584,0.20989,0.66878
685.339,73.62446,-3.10641,0.2078,0.66819
686.039,73.69532,-3.10613,0.20942,0.66761
686.739,73.7661,-3.1051,0.21052,0.66702
687.439,73.83704,-3.10639,0.20706,0.66644
688.139,73.9074,-3.10641,0.21053,0.66585
688.839,73.97787,-3.10659,0.20644,0.66526
689.539,74.0483,-3.10773,0.21075,0.66468
690.239,74.1191,-3.10773,0.20974,0.66409
690.939,74.19021,-3.10905,0.21289,0.66351
691.639,74.26134,-3.10773,0.21224,0.66292
692.339,74.3323,-3.10773,0.20787,0.66233
693.039,74.40294,-3.10703,0.20846,0.66175
693.739,74.47358,-3.10772,0.21104,0.66116
694.439,74.5441,-3.10772,0.20994,0.66057
695.139,74.6146,-3.10772,0.21052,0.65999
695.839,74.68535,-3.10913,0.21374,0.6594
696.539,74.75619,-3.11025,0.21349,0.65882
697.239,74.827,-3.10766,0.21167,0.65823
697.939,74.89785,-3.10771,0.21351,0.65764
698.639,74.9687,-3.10906,0.21272,0.65706
699.339,75.03954,-3.11036,0.21321,0.65647
700.039,75.11029,-3.11168,0.21515,0.65588
700.739,75.18121,-3.11167,0.21437,0.6553
701.439,75.25191,-3.1117,0.21247,0.65471
702.139,75.32261,-3.11036,0.21303,0.65412
702.839,75.39335,-3.11036,0.21568,0.65354
703.539,75.4641,-3.11168,0.21939,0.65295
704.239,75.53483,-3.11174,0.21554,0.65236
704.939,75.60552,-3.11069,0.21633,0.65178
705.639,75.6763,-3.11069,0.21587,0.65119
706.339,75.7472,-3.11065,0.21423,0.6506
707.039,75.8181,-3.11069,0.21418,0.65002
707.739,75.8891,-3.11069,0.21182,0.64943
708.439,75.9603,-3.112,0.21271,0.64884
709.139,76.0313,-3.11408,0.21091,0.64826
709.839,76.10206,-3.11464,0.21274,0.64767
710.539,76.17282,-3.11617,0.21148,0.64708
711.239,76.24368,-3.11301,0.20993,0.64649
711.939,76.3147,-3.11185,0.21387,0.64591
712.639,76.38552,-3.11282,0.21142,0.64532
713.339,76.4563,-3.11398,0.21394,0.64473
714.039,76.52686,-3.11393,0.2079,0.64415
714.739,76.59748,-3.11562,0.20873,0.64356
715.439,76.66821,-3.11994,0.21087,0.64297
716.139,76.73902,-3.12056,0.21237,0.64238
716.839,76.80982,-3.11609,0.21143,0.6418
717.539,76.8804,-3.1165,0.20743,0.64121
718.239,76.9508,-3.11655,0.20814,0.64062
718.939,77.02109,-3.11782,0.20985,0.64004
719.639,77.09183,-3.11782,0.21198,0.63945
720.339,77.1626,-3.11782,0.21011,0.63886
721.039,77.23351,-3.11782,0.21106,0.63827
721.739,77.30402,-3.11914,0.20961,0.63769
722.439,77.3745,-3.11914,0.21005,0.6371
723.139,77.44538,-3.12045,0.21094,0.63651
723.839,77.5163,-3.12045,0.212,0.63593
724.539,77.5873,-3.12044,0.21306,0.63534
725.239,77.658,-3.11913,0.20933,0.63475
725.939,77.72885,-3.11913,0.20807,0.63416
726.639,77.79969,-3.11913,0.21138,0.63358
727.339,77.8704,-3.12045,0.21444,0.63299
728.039,77.94119,-3.12045,0.21117,0.6324
728.739,78.01204,-3.12046,0.20882,0.63181
729.439,78.083,-3.12144,0.21302,0.63123
730.139,78.15392,-3.12176,0.20968,0.63064
730.839,78.22499,-3.12179,0.21252,0.63005
731.539,78.296,-3.1244,0.21709,0.62946
732.239,78.36684,-3.12545,0.21136,0.62888
732.939,78.43762,-3.12295,0.21184,0.62829
733.639,78.5085,-3.12166,0.21558,0.6277
734.339,78.57973,-3.12166,0.21352,0.62711
735.039,78.651,-3.12067,0.21481,0.62653
735.739,78.722,-3.12285,0.21625,0.62594
736.439,78.7928,-3.12524,0.2177,0.62535
737.139,78.86357,-3.1232,0.22105,0.62477
737.839,78.9346,-3.12354,0.21985,0.62418
738.539,79.0055,-3.12462,0.22399,0.62359
739.239,79.0766,-3.12462,0.22238,0.623
739.939,79.14775,-3.12462,0.22807,0.62242
740.639,79.219,-3.12462,0.22384,0.62183
741.339,79.29047,-3.12433,0.22809,0.62124
742.039,79.36184,-3.12462,0.22523,0.62065
742.739,79.4332,-3.12464,0.22304,0.62007
743.439,79.50437,-3.12524,0.2223,0.61948
744.139,79.5758,-3.12527,0.22495,0.61889
744.839,79.64711,-3.12527,0.22682,0.61831
745.539,79.7184,-3.12611,0.22254,0.61772
746.239,79.7897,-3.12527,0.22332,0.61713
746.939,79.86085,-3.12658,0.22514,0.61654
747.639,79.93194,-3.12609,0.22468,0.61596
748.339,80.0031,-3.12657,0.22342,0.61537
749.039,80.07414,-3.12701,0.2262,0.61478
749.739,80.14532,-3.12908,0.22708,0.6142
750.439,80.2165,-3.12777,0.22631,0.61361
751.139,80.2877,-3.1266,0.23263,0.61302
751.839,80.3588,-3.12715,0.23207,0.61243
752.539,80.4299,-3.12791,0.22801,0.61185
753.239,80.50097,-3.12923,0.22958,0.61126
753.939,80.57216,-3.13193,0.23355,0.61067
754.639,80.64294,-3.13314,0.23229,0.61009
755.339,80.71386,-3.13127,0.22703,0.6095
756.039,80.78435,-3.13131,0.22968,0.60891
756.739,80.85544,-3.13131,0.22695,0.60833
757.439,80.92642,-3.12998,0.23084,0.60774
758.139,80.99745,-3.129,0.22869,0.60715
758.839,81.0681,-3.1295,0.23022,0.60657
759.539,81.13889,-3.13032,0.23116,0.60598
760.239,81.2097,-3.13032,0.22977,0.60539
760.939,81.28056,-3.12901,0.22653,0.60481
761.639,81.3514,-3.13011,0.22939,0.60422
762.339,81.42225,-3.13033,0.228,0.60363
763.039,81.49298,-3.13033,0.22832,0.60305
763.739,81.56376,-3.13198,0.22914,0.60246
764.439,81.63472,-3.13197,0.23167,0.60187
765.139,81.70583,-3.13225,0.23599,0.60129
765.839,81.77675,-3.13363,0.23467,0.6007
766.539,81.8478,-3.1323,0.2379,0.60011
767.239,81.91878,-3.13296,0.2421,0.59953
767.939,81.9901,-3.13428,0.23839,0.59894
768.639,82.06119,-3.13558,0.23978,0.59835
769.339,82.1323,-3.13559,0.23405,0.59777
770.039,82.20334,-3.13559,0.23519,0.59718
770.739,82.27428,-3.1358,0.24097,0.5966
771.439,82.34527,-3.1355,0.2361,0.59601
772.139,82.41629,-3.13559,0.24058,0.59542
772.839,82.48744,-3.13559,0.24159,0.59484
773.539,82.5585,-3.13562,0.23601,0.59425
774.239,82.62971,-3.13468,0.24334,0.59367
774.939,82.70076,-3.1369,0.24129,0.59308
775.639,82.772,-3.1369,0.24471,0.59249
776.339,82.8431,-3.13558,0.24271,0.59191
777.039,82.91424,-3.1356,0.24419,0.59132
777.739,82.98518,-3.13738,0.24571,0.59074
778.439,83.05625,-3.13822,0.24358,0.59015
779.139,83.12734,-3.13822,0.24105,0.58957
779.839,83.19848,-3.1395,0.23996,0.58898
780.539,83.26953,-3.13953,0.24431,0.5884
781.239,83.34062,-3.13953,0.24128,0.58781
781.939,83.41165,-3.13953,0.24236,0.58723
782.639,83.48274,-3.13953,0.2439,0.58664
783.339,83.55379,-3.13831,0.24311,0.58605
784.039,83.62483,-3.13672,0.24677,0.58547
784.739,83.69587,-3.13976,0.2418,0.58488
785.439,83.76687,-3.14108,0.2424,0.5843
786.139,83.83784,-3.13975,0.23715,0.58371
786.839,83.90893,-3.13878,0.24312,0.58313
787.539,83.98007,-3.13877,0.23684,0.58255
788.239,84.05126,-3.13877,0.23713,0.58196
788.939,84.12245,-3.13877,0.23951,0.58138
789.639,84.19351,-3.14008,0.24231,0.58079
790.339,84.26473,-3.14149,0.23679,0.58021
791.039,84.3358,-3.1414,0.24066,0.57962
791.739,84.40698,-3.14421,0.24184,0.57904
792.439,84.47825,-3.14249,0.24428,0.57845
793.139,84.54926,-3.14129,0.243,0.57787
793.839,84.6203,-3.14129,0.247,0.57729
794.539,84.69122,-3.1403,0.24443,0.5767
795.239,84.76245,-3.14163,0.2446,0.57612
795.939,84.83369,-3.14294,0.24609,0.57553
796.639,84.90478,-3.14294,0.24271,0.57495
797.339,84.9757,-3.14426,0.24344,0.57437
797.539,84.99591,-3.14426,0.24888,0.5742