File: 01_Data/Polyester_Fabric/FTIR/IS/Polyester_Fabric_IS_REFLECT_BL_210623_R4.dpt
5996.41,0.02384
5992.55,0.01777
5988.69,0.02317
5984.84,0.02320
5980.98,0.01573
5977.12,0.01401
5973.27,0.01684
5969.41,0.01800
5965.55,0.01771
5961.69,0.01988
5957.84,0.02259
5953.98,0.02362
5950.12,0.02446
5946.26,0.01836
5942.41,0.01739
5938.55,0.02089
5934.69,0.02079
5930.83,0.02246
5926.98,0.02720
5923.12,0.01830
5919.26,0.01247
5915.4,0.01786
5911.55,0.02239
5907.69,0.01966
5903.83,0.01757
5899.97,0.02014
5896.12,0.02502
5892.26,0.02476
5888.4,0.02037
5884.54,0.01937
5880.69,0.02232
5876.83,0.02324
5872.97,0.01601
5869.11,0.01943
5865.26,0.01378
5861.4,0.01152
5857.54,0.01686
5853.68,0.02005
5849.83,0.02039
5845.97,0.01645
5842.11,0.01355
5838.25,0.01271
5834.4,0.01805
5830.54,0.02481
5826.68,0.02115
5822.82,0.01816
5818.97,0.01897
5815.11,0.02043
5811.25,0.02641
5807.39,0.02026
5803.54,0.01579
5799.68,0.01775
5795.82,0.01648
5791.96,0.01918
5788.11,0.01667
5784.25,0.01870
5780.39,0.02620
5776.53,0.02259
5772.68,0.02018
5768.82,0.02066
5764.96,0.02166
5761.11,0.01710
5757.25,0.01491
5753.39,0.01662
5749.53,0.01743
5745.68,0.01732
5741.82,0.01347
5737.96,0.01161
5734.1,0.02255
5730.25,0.02556
5726.39,0.02031
5722.53,0.01717
5718.67,0.02499
5714.82,0.02137
5710.96,0.02101
5707.1,0.01747
5703.24,0.01730
5699.39,0.01599
5695.53,0.01545
5691.67,0.01236
5687.81,0.01139
5683.96,0.01821
5680.1,0.02488
5676.24,0.01692
5672.38,0.01825
5668.53,0.02022
5664.67,0.01742
5660.81,0.01841
5656.95,0.01694
5653.1,0.01831
5649.24,0.01772
5645.38,0.01633
5641.52,0.02181
5637.67,0.02202
5633.81,0.01630
5629.95,0.02050
5626.09,0.02139
5622.24,0.01913
5618.38,0.02086
5614.52,0.02064
5610.66,0.01731
5606.81,0.01691
5602.95,0.01900
5599.09,0.02035
5595.23,0.01918
5591.38,0.01906
5587.52,0.01570
5583.66,0.01726
5579.8,0.02113
5575.95,0.01721
5572.09,0.01596
5568.23,0.01712
5564.38,0.01587
5560.52,0.01506
5556.66,0.01781
5552.8,0.01454
5548.95,0.01511
5545.09,0.01238
5541.23,0.01771
5537.37,0.01951
5533.52,0.01899
5529.66,0.01660
5525.8,0.01571
5521.94,0.01633
5518.09,0.01496
5514.23,0.01689
5510.37,0.01808
5506.51,0.01843
5502.66,0.01965
5498.8,0.02136
5494.94,0.02222
5491.08,0.02037
5487.23,0.01800
5483.37,0.01858
5479.51,0.01732
5475.65,0.01832
5471.8,0.01524
5467.94,0.01272
5464.08,0.01518
5460.22,0.01642
5456.37,0.01415
5452.51,0.01772
5448.65,0.02045
5444.79,0.01971
5440.94,0.01642
5437.08,0.01643
5433.22,0.01617
5429.36,0.01447
5425.51,0.01983
5421.65,0.01632
5417.79,0.01701
5413.93,0.01790
5410.08,0.01538
5406.22,0.01493
5402.36,0.01218
5398.5,0.01550
5394.65,0.01942
5390.79,0.01728
5386.93,0.01980
5383.07,0.02000
5379.22,0.01469
5375.36,0.01421
5371.5,0.01164
5367.65,0.01433
5363.79,0.01351
5359.93,0.01569
5356.07,0.01797
5352.22,0.01363
5348.36,0.01670
5344.5,0.01754
5340.64,0.01981
5336.79,0.02019
5332.93,0.01636
5329.07,0.02123
5325.21,0.01848
5321.36,0.01567
5317.5,0.01411
5313.64,0.02151
5309.78,0.01918
5305.93,0.01419
5302.07,0.01425
5298.21,0.01563
5294.35,0.01618
5290.5,0.01654
5286.64,0.01511
5282.78,0.01386
5278.92,0.01740
5275.07,0.01834
5271.21,0.01666
5267.35,0.01547
5263.49,0.01520
5259.64,0.01500
5255.78,0.01445
5251.92,0.01429
5248.06,0.01504
5244.21,0.01661
5240.35,0.01589
5236.49,0.01550
5232.63,0.01209
5228.78,0.01250
5224.92,0.01417
5221.06,0.01726
5217.2,0.01400
5213.35,0.01330
5209.49,0.01696
5205.63,0.01918
5201.77,0.01737
5197.92,0.01812
5194.06,0.01521
5190.2,0.01524
5186.34,0.01677
5182.49,0.02030
5178.63,0.01650
5174.77,0.01392
5170.91,0.01510
5167.06,0.01465
5163.2,0.01416
5159.34,0.01530
5155.49,0.01663
5151.63,0.01798
5147.77,0.01686
5143.91,0.01581
5140.06,0.01584
5136.2,0.01835
5132.34,0.01588
5128.48,0.01477
5124.63,0.01492
5120.77,0.01636
5116.91,0.01768
5113.05,0.01673
5109.2,0.01715
5105.34,0.01780
5101.48,0.01569
5097.62,0.01586
5093.77,0.01774
5089.91,0.01894
5086.05,0.01817
5082.19,0.01421
5078.34,0.01335
5074.48,0.01700
5070.62,0.01731
5066.76,0.01652
5062.91,0.01702
5059.05,0.01926
5055.19,0.01509
5051.33,0.01286
5047.48,0.01521
5043.62,0.01583
5039.76,0.01671
5035.9,0.01463
5032.05,0.01433
5028.19,0.01560
5024.33,0.01573
5020.47,0.01701
5016.62,0.01504
5012.76,0.01852
5008.9,0.02040
5005.04,0.01728
5001.19,0.01746
4997.33,0.01859
4993.47,0.01768
4989.61,0.01526
4985.76,0.01428
4981.9,0.01490
4978.04,0.01574
4974.18,0.01615
4970.33,0.01631
4966.47,0.01578
4962.61,0.01620
4958.76,0.01805
4954.9,0.01780
4951.04,0.01405
4947.18,0.01400
4943.33,0.01393
4939.47,0.01369
4935.61,0.01673
4931.75,0.01759
4927.9,0.01654
4924.04,0.01618
4920.18,0.01620
4916.32,0.01431
4912.47,0.01563
4908.61,0.01523
4904.75,0.01639
4900.89,0.01483
4897.04,0.01469
4893.18,0.01565
4889.32,0.01567
4885.46,0.01450
4881.61,0.01424
4877.75,0.01547
4873.89,0.01610
4870.03,0.01791
4866.18,0.01604
4862.32,0.01445
4858.46,0.01396
4854.6,0.01401
4850.75,0.01681
4846.89,0.01677
4843.03,0.01754
4839.17,0.01695
4835.32,0.01707
4831.46,0.01798
4827.6,0.01475
4823.74,0.01589
4819.89,0.01531
4816.03,0.01360
4812.17,0.01399
4808.31,0.01579
4804.46,0.01571
4800.6,0.01431
4796.74,0.01500
4792.88,0.01460
4789.03,0.01410
4785.17,0.01636
4781.31,0.01505
4777.45,0.01436
4773.6,0.01506
4769.74,0.01620
4765.88,0.01756
4762.02,0.01736
4758.17,0.01610
4754.31,0.01505
4750.45,0.01384
4746.6,0.01419
4742.74,0.01605
4738.88,0.01552
4735.02,0.01477
4731.17,0.01501
4727.31,0.01412
4723.45,0.01436
4719.59,0.01581
4715.74,0.01667
4711.88,0.01547
4708.02,0.01651
4704.16,0.01732
4700.31,0.01613
4696.45,0.01563
4692.59,0.01686
4688.73,0.01634
4684.88,0.01484
4681.02,0.01588
4677.16,0.01618
4673.3,0.01559
4669.45,0.01698
4665.59,0.01564
4661.73,0.01404
4657.87,0.01500
4654.02,0.01450
4650.16,0.01544
4646.3,0.01604
4642.44,0.01537
4638.59,0.01662
4634.73,0.01544
4630.87,0.01493
4627.01,0.01532
4623.16,0.01546
4619.3,0.01517
4615.44,0.01387
4611.58,0.01524
4607.73,0.01580
4603.87,0.01435
4600.01,0.01496
4596.15,0.01620
4592.3,0.01511
4588.44,0.01379
4584.58,0.01425
4580.72,0.01443
4576.87,0.01397
4573.01,0.01399
4569.15,0.01539
4565.29,0.01441
4561.44,0.01417
4557.58,0.01539
4553.72,0.01662
4549.87,0.01569
4546.01,0.01501
4542.15,0.01415
4538.29,0.01424
4534.44,0.01481
4530.58,0.01524
4526.72,0.01383
4522.86,0.01399
4519.01,0.01400
4515.15,0.01405
4511.29,0.01349
4507.43,0.01285
4503.58,0.01362
4499.72,0.01464
4495.86,0.01494
4492,0.01521
4488.15,0.01412
4484.29,0.01443
4480.43,0.01570
4476.57,0.01575
4472.72,0.01481
4468.86,0.01509
4465,0.01634
4461.14,0.01484
4457.29,0.01283
4453.43,0.01431
4449.57,0.01679
4445.71,0.01541
4441.86,0.01425
4438,0.01520
4434.14,0.01507
4430.28,0.01434
4426.43,0.01443
4422.57,0.01544
4418.71,0.01537
4414.85,0.01380
4411,0.01331
4407.14,0.01274
4403.28,0.01264
4399.42,0.01293
4395.57,0.01380
4391.71,0.01450
4387.85,0.01510
4383.99,0.01482
4380.14,0.01489
4376.28,0.01517
4372.42,0.01484
4368.56,0.01542
4364.71,0.01477
4360.85,0.01343
4356.99,0.01417
4353.14,0.01478
4349.28,0.01515
4345.42,0.01489
4341.56,0.01478
4337.71,0.01402
4333.85,0.01445
4329.99,0.01355
4326.13,0.01466
4322.28,0.01506
4318.42,0.01467
4314.56,0.01495
4310.7,0.01448
4306.85,0.01439
4302.99,0.01437
4299.13,0.01482
4295.27,0.01534
4291.42,0.01597
4287.56,0.01541
4283.7,0.01349
4279.84,0.01384
4275.99,0.01456
4272.13,0.01318
4268.27,0.01413
4264.41,0.01386
4260.56,0.01502
4256.7,0.01524
4252.84,0.01404
4248.98,0.01359
4245.13,0.01453
4241.27,0.01535
4237.41,0.01548
4233.55,0.01533
4229.7,0.01477
4225.84,0.01386
4221.98,0.01408
4218.12,0.01583
4214.27,0.01528
4210.41,0.01380
4206.55,0.01339
4202.69,0.01442
4198.84,0.01432
4194.98,0.01366
4191.12,0.01446
4187.26,0.01554
4183.41,0.01401
4179.55,0.01390
4175.69,0.01444
4171.83,0.01469
4167.98,0.01526
4164.12,0.01508
4160.26,0.01423
4156.4,0.01524
4152.55,0.01491
4148.69,0.01463
4144.83,0.01411
4140.98,0.01342
4137.12,0.01292
4133.26,0.01378
4129.4,0.01411
4125.55,0.01465
4121.69,0.01425
4117.83,0.01325
4113.97,0.01397
4110.12,0.01452
4106.26,0.01288
4102.4,0.01419
4098.54,0.01407
4094.69,0.01433
4090.83,0.01468
4086.97,0.01353
4083.11,0.01341
4079.26,0.01426
4075.4,0.01455
4071.54,0.01383
4067.68,0.01433
4063.83,0.01421
4059.97,0.01433
4056.11,0.01483
4052.25,0.01428
4048.4,0.01270
4044.54,0.01374
4040.68,0.01510
4036.82,0.01487
4032.97,0.01463
4029.11,0.01520
4025.25,0.01406
4021.39,0.01346
4017.54,0.01444
4013.68,0.01543
4009.82,0.01496
4005.96,0.01481
4002.11,0.01420
3998.25,0.01482
3994.39,0.01439
3990.53,0.01444
3986.68,0.01487
3982.82,0.01552
3978.96,0.01466
3975.1,0.01451
3971.25,0.01438
3967.39,0.01544
3963.53,0.01556
3959.67,0.01556
3955.82,0.01714
3951.96,0.01513
3948.1,0.01189
3944.25,0.01241
3940.39,0.01807
3936.53,0.01927
3932.67,0.01718
3928.82,0.01746
3924.96,0.01310
3921.1,0.01146
3917.24,0.01425
3913.39,0.01408
3909.53,0.01490
3905.67,0.01793
3901.81,0.01436
3897.96,0.01593
3894.1,0.01305
3890.24,0.01687
3886.38,0.01848
3882.53,0.01112
3878.67,0.01620
3874.81,0.01352
3870.95,0.01130
3867.1,0.01622
3863.24,0.01345
3859.38,0.01044
3855.52,0.01480
3851.67,0.01633
3847.81,0.01303
3843.95,0.01273
3840.09,0.01135
3836.24,0.01424
3832.38,0.01790
3828.52,0.01477
3824.66,0.00902
3820.81,0.00768
3816.95,0.01031
3813.09,0.01409
3809.23,0.01462
3805.38,0.01558
3801.52,0.01622
3797.66,0.01460
3793.8,0.01892
3789.95,0.01610
3786.09,0.01999
3782.23,0.02477
3778.37,0.02180
3774.52,0.01549
3770.66,0.01417
3766.8,0.01004
3762.94,0.00935
3759.09,0.01106
3755.23,0.00833
3751.37,0.00624
3747.51,0.01202
3743.66,0.01560
3739.8,0.01157
3735.94,0.01368
3732.09,0.01022
3728.23,0.00799
3724.37,0.01797
3720.51,0.01578
3716.66,0.01281
3712.8,0.01610
3708.94,0.01760
3705.08,0.01503
3701.23,0.01711
3697.37,0.01120
3693.51,0.00662
3689.65,0.00958
3685.8,0.01342
3681.94,0.03258
3678.08,0.01795
3674.22,0.01158
3670.37,0.00983
3666.51,0.00691
3662.65,0.01891
3658.79,0.01869
3654.94,0.01552
3651.08,0.01644
3647.22,0.01098
3643.36,0.01361
3639.51,0.01448
3635.65,0.01108
3631.79,0.01272
3627.93,0.01172
3624.08,0.01192
3620.22,0.01649
3616.36,0.01286
3612.5,0.01069
3608.65,0.01163
3604.79,0.01071
3600.93,0.01694
3597.07,0.01596
3593.22,0.01368
3589.36,0.01313
3585.5,0.00930
3581.64,0.01038
3577.79,0.01488
3573.93,0.01339
3570.07,0.01209
3566.21,0.01324
3562.36,0.01311
3558.5,0.01475
3554.64,0.01459
3550.78,0.01341
3546.93,0.01225
3543.07,0.01228
3539.21,0.01295
3535.36,0.01464
3531.5,0.01403
3527.64,0.01313
3523.78,0.01297
3519.93,0.01273
3516.07,0.01309
3512.21,0.01300
3508.35,0.01329
3504.5,0.01249
3500.64,0.01243
3496.78,0.01280
3492.92,0.01360
3489.07,0.01299
3485.21,0.01261
3481.35,0.01337
3477.49,0.01373
3473.64,0.01365
3469.78,0.01333
3465.92,0.01268
3462.06,0.01244
3458.21,0.01305
3454.35,0.01400
3450.49,0.01363
3446.63,0.01307
3442.78,0.01292
3438.92,0.01214
3435.06,0.01289
3431.2,0.01311
3427.35,0.01315
3423.49,0.01343
3419.63,0.01264
3415.77,0.01283
3411.92,0.01255
3408.06,0.01275
3404.2,0.01317
3400.34,0.01428
3396.49,0.01412
3392.63,0.01277
3388.77,0.01285
3384.91,0.01259
3381.06,0.01249
3377.2,0.01285
3373.34,0.01296
3369.48,0.01246
3365.63,0.01292
3361.77,0.01268
3357.91,0.01266
3354.05,0.01248
3350.2,0.01267
3346.34,0.01293
3342.48,0.01233
3338.63,0.01317
3334.77,0.01290
3330.91,0.01329
3327.05,0.01317
3323.2,0.01267
3319.34,0.01186
3315.48,0.01185
3311.62,0.01286
3307.77,0.01301
3303.91,0.01285
3300.05,0.01303
3296.19,0.01263
3292.34,0.01259
3288.48,0.01201
3284.62,0.01222
3280.76,0.01229
3276.91,0.01301
3273.05,0.01301
3269.19,0.01288
3265.33,0.01283
3261.48,0.01323
3257.62,0.01333
3253.76,0.01251
3249.9,0.01217
3246.05,0.01248
3242.19,0.01265
3238.33,0.01260
3234.47,0.01248
3230.62,0.01263
3226.76,0.01312
3222.9,0.01322
3219.04,0.01337
3215.19,0.01397
3211.33,0.01324
3207.47,0.01302
3203.61,0.01273
3199.76,0.01240
3195.9,0.01289
3192.04,0.01262
3188.18,0.01334
3184.33,0.01342
3180.47,0.01354
3176.61,0.01305
3172.75,0.01311
3168.9,0.01345
3165.04,0.01279
3161.18,0.01272
3157.32,0.01244
3153.47,0.01297
3149.61,0.01377
3145.75,0.01273
3141.89,0.01362
3138.04,0.01338
3134.18,0.01297
3130.32,0.01374
3126.47,0.01345
3122.61,0.01292
3118.75,0.01269
3114.89,0.01251
3111.04,0.01319
3107.18,0.01299
3103.32,0.01296
3099.46,0.01267
3095.61,0.01264
3091.75,0.01319
3087.89,0.01326
3084.03,0.01306
3080.18,0.01253
3076.32,0.01262
3072.46,0.01223
3068.6,0.01192
3064.75,0.01280
3060.89,0.01232
3057.03,0.01133
3053.17,0.01016
3049.32,0.00878
3045.46,0.00783
3041.6,0.00773
3037.74,0.00816
3033.89,0.00705
3030.03,0.00417
3026.17,0.00639
3022.31,0.00692
3018.46,0.00634
3014.6,0.00681
3010.74,0.00591
3006.88,0.00585
3003.03,0.00655
2999.17,0.00789
2995.31,0.00855
2991.45,0.00510
2987.6,0.00404
2983.74,0.00826
2979.88,0.00860
2976.02,0.00739
2972.17,0.00718
2968.31,0.00710
2964.45,0.00839
2960.59,0.00991
2956.74,0.01036
2952.88,0.01097
2949.02,0.01189
2945.16,0.01240
2941.31,0.01220
2937.45,0.01195
2933.59,0.01258
2929.74,0.01246
2925.88,0.01245
2922.02,0.01299
2918.16,0.01241
2914.31,0.01282
2910.45,0.01311
2906.59,0.01246
2902.73,0.01281
2898.88,0.01304
2895.02,0.01288
2891.16,0.01267
2887.3,0.01259
2883.45,0.01270
2879.59,0.01288
2875.73,0.01285
2871.87,0.01213
2868.02,0.01189
2864.16,0.01232
2860.3,0.01203
2856.44,0.01267
2852.59,0.01277
2848.73,0.01294
2844.87,0.01330
2841.01,0.01273
2837.16,0.01257
2833.3,0.01285
2829.44,0.01327
2825.58,0.01364
2821.73,0.01256
2817.87,0.01293
2814.01,0.01267
2810.15,0.01285
2806.3,0.01222
2802.44,0.01256
2798.58,0.01284
2794.72,0.01297
2790.87,0.01325
2787.01,0.01264
2783.15,0.01300
2779.29,0.01306
2775.44,0.01277
2771.58,0.01275
2767.72,0.01296
2763.86,0.01289
2760.01,0.01269
2756.15,0.01273
2752.29,0.01317
2748.43,0.01302
2744.58,0.01278
2740.72,0.01260
2736.86,0.01317
2733.01,0.01317
2729.15,0.01263
2725.29,0.01250
2721.43,0.01285
2717.58,0.01275
2713.72,0.01251
2709.86,0.01221
2706,0.01206
2702.15,0.01235
2698.29,0.01219
2694.43,0.01277
2690.57,0.01293
2686.72,0.01260
2682.86,0.01299
2679,0.01313
2675.14,0.01335
2671.29,0.01293
2667.43,0.01294
2663.57,0.01317
2659.71,0.01321
2655.86,0.01306
2652,0.01291
2648.14,0.01352
2644.28,0.01327
2640.43,0.01320
2636.57,0.01320
2632.71,0.01274
2628.85,0.01318
2625,0.01318
2621.14,0.01325
2617.28,0.01377
2613.42,0.01355
2609.57,0.01298
2605.71,0.01283
2601.85,0.01319
2597.99,0.01298
2594.14,0.01284
2590.28,0.01273
2586.42,0.01328
2582.56,0.01389
2578.71,0.01361
2574.85,0.01316
2570.99,0.01369
2567.13,0.01331
2563.28,0.01315
2559.42,0.01300
2555.56,0.01305
2551.7,0.01299
2547.85,0.01291
2543.99,0.01265
2540.13,0.01296
2536.27,0.01252
2532.42,0.01321
2528.56,0.01296
2524.7,0.01287
2520.85,0.01332
2516.99,0.01387
2513.13,0.01308
2509.27,0.01317
2505.42,0.01341
2501.56,0.01320
2497.7,0.01256
2493.84,0.01277
2489.99,0.01318
2486.13,0.01301
2482.27,0.01295
2478.41,0.01339
2474.56,0.01331
2470.7,0.01314
2466.84,0.01310
2462.98,0.01279
2459.13,0.01267
2455.27,0.01278
2451.41,0.01262
2447.55,0.01314
2443.7,0.01344
2439.84,0.01331
2435.98,0.01364
2432.12,0.01385
2428.27,0.01369
2424.41,0.01330
2420.55,0.01299
2416.69,0.01375
2412.84,0.01356
2408.98,0.01345
2405.12,0.01498
2401.26,0.01934
2397.41,0.02765
2393.55,0.03362
2389.69,0.03407
2385.83,0.02902
2381.98,0.02308
2378.12,0.01533
2374.26,0.00630
2370.4,0.00422
2366.55,0.00894
2362.69,0.01775
2358.83,0.01950
2354.97,0.01167
2351.12,0.01156
2347.26,0.00977
2343.4,0.00896
2339.54,0.00793
2335.69,0.00764
2331.83,0.00755
2327.97,0.00771
2324.12,0.00791
2320.26,0.00922
2316.4,0.00990
2312.54,0.01035
2308.69,0.01085
2304.83,0.01128
2300.97,0.01199
2297.11,0.01253
2293.26,0.01253
2289.4,0.01204
2285.54,0.01218
2281.68,0.01228
2277.83,0.01262
2273.97,0.01213
2270.11,0.01200
2266.25,0.01248
2262.4,0.01235
2258.54,0.01265
2254.68,0.01249
2250.82,0.01260
2246.97,0.01285
2243.11,0.01258
2239.25,0.01296
2235.39,0.01299
2231.54,0.01354
2227.68,0.01287
2223.82,0.01272
2219.96,0.01277
2216.11,0.01253
2212.25,0.01257
2208.39,0.01194
2204.53,0.01240
2200.68,0.01277
2196.82,0.01258
2192.96,0.01244
2189.1,0.01216
2185.25,0.01196
2181.39,0.01181
2177.53,0.01209
2173.67,0.01188
2169.82,0.01151
2165.96,0.01202
2162.1,0.01241
2158.24,0.01239
2154.39,0.01265
2150.53,0.01302
2146.67,0.01260
2142.81,0.01189
2138.96,0.01185
2135.1,0.01202
2131.24,0.01209
2127.38,0.01193
2123.53,0.01190
2119.67,0.01197
2115.81,0.01224
2111.96,0.01222
2108.1,0.01255
2104.24,0.01228
2100.38,0.01205
2096.53,0.01159
2092.67,0.01150
2088.81,0.01147
2084.95,0.01262
2081.1,0.01289
2077.24,0.01242
2073.38,0.01225
2069.52,0.01200
2065.67,0.01204
2061.81,0.01248
2057.95,0.01276
2054.09,0.01230
2050.24,0.01225
2046.38,0.01290
2042.52,0.01301
2038.66,0.01349
2034.81,0.01348
2030.95,0.01295
2027.09,0.01223
2023.23,0.01300
2019.38,0.01217
2015.52,0.01197
2011.66,0.01266
2007.8,0.01243
2003.95,0.01184
2000.09,0.01153
1996.23,0.01185
1992.37,0.01231
1988.52,0.01275
1984.66,0.01323
1980.8,0.01284
1976.94,0.01191
1973.09,0.01259
1969.23,0.01288
1965.37,0.01292
1961.51,0.01387
1957.66,0.01342
1953.8,0.01193
1949.94,0.01241
1946.08,0.01305
1942.23,0.01321
1938.37,0.01372
1934.51,0.01305
1930.65,0.01127
1926.8,0.01185
1922.94,0.01207
1919.08,0.01161
1915.23,0.01252
1911.37,0.01332
1907.51,0.01349
1903.65,0.01269
1899.8,0.01160
1895.94,0.01184
1892.08,0.01281
1888.22,0.01463
1884.37,0.01602
1880.51,0.01106
1876.65,0.00930
1872.79,0.01207
1868.94,0.01203
1865.08,0.01288
1861.22,0.01570
1857.36,0.01263
1853.51,0.01016
1849.65,0.01268
1845.79,0.01534
1841.93,0.01320
1838.08,0.01019
1834.22,0.01001
1830.36,0.01161
1826.5,0.01328
1822.65,0.01182
1818.79,0.01149
1814.93,0.01346
1811.07,0.01257
1807.22,0.01266
1803.36,0.00922
1799.5,0.00983
1795.64,0.01276
1791.79,0.01256
1787.93,0.01724
1784.07,0.01185
1780.21,0.00809
1776.36,0.01082
1772.5,0.01098
1768.64,0.01132
1764.78,0.01355
1760.93,0.01061
1757.07,0.00925
1753.21,0.00954
1749.35,0.01248
1745.5,0.00977
1741.64,0.00618
1737.78,0.00988
1733.92,0.01953
1730.07,0.01617
1726.21,0.00650
1722.35,0.00983
1718.5,0.01741
1714.64,0.01973
1710.78,0.01203
1706.92,0.00571
1703.07,0.00998
1699.21,0.02139
1695.35,0.01048
1691.49,0.00726
1687.64,0.01266
1683.78,0.01188
1679.92,0.00854
1676.06,0.00908
1672.21,0.01039
1668.35,0.02256
1664.49,0.01487
1660.63,0.00683
1656.78,0.00713
1652.92,0.01030
1649.06,0.01432
1645.2,0.00788
1641.35,0.01005
1637.49,0.01263
1633.63,0.01070
1629.77,0.01077
1625.92,0.00860
1622.06,0.01043
1618.2,0.01135
1614.34,0.01100
1610.49,0.01128
1606.63,0.01183
1602.77,0.01102
1598.91,0.01108
1595.06,0.01234
1591.2,0.01739
1587.34,0.01317
1583.48,0.00994
1579.63,0.01048
1575.77,0.01487
1571.91,0.02792
1568.05,0.00858
1564.2,0.00591
1560.34,0.01054
1556.48,0.02218
1552.62,0.01485
1548.77,0.00474
1544.91,0.00836
1541.05,0.01045
1537.19,0.01602
1533.34,0.01397
1529.48,0.00799
1525.62,0.00870
1521.76,0.02021
1517.91,0.01130
1514.05,0.00546
1510.19,0.01200
1506.34,0.00951
1502.48,0.01310
1498.62,0.00915
1494.76,0.00813
1490.91,0.01254
1487.05,0.01805
1483.19,0.00946
1479.33,0.00710
1475.48,0.01054
1471.62,0.01594
1467.76,0.01105
1463.9,0.00519
1460.05,0.00915
1456.19,0.00866
1452.33,0.00986
1448.47,0.00999
1444.62,0.00567
1440.76,0.00465
1436.9,0.00358
1433.04,0.00373
1429.19,0.00278
1425.33,0.00222
1421.47,0.00215
1417.61,0.00186
1413.76,0.00283
1409.9,0.00331
1406.04,0.00246
1402.18,0.00211
1398.33,0.00454
1394.47,0.00497
1390.61,0.00636
1386.75,0.00783
1382.9,0.00589
1379.04,0.00462
1375.18,0.00580
1371.32,0.00539
1367.47,0.00479
1363.61,0.00603
1359.75,0.00731
1355.89,0.00851
1352.04,0.01108
1348.18,0.00938
1344.32,0.00834
1340.46,0.01005
1336.61,0.00961
1332.75,0.01001
1328.89,0.01020
1325.03,0.00843
1321.18,0.00848
1317.32,0.00972
1313.46,0.00995
1309.61,0.00995
1305.75,0.01041
1301.89,0.01058
1298.03,0.01060
1294.18,0.01024
1290.32,0.01073
1286.46,0.01091
1282.6,0.01127
1278.75,0.01161
1274.89,0.01191
1271.03,0.01200
1267.17,0.01174
1263.32,0.01180
1259.46,0.01165
1255.6,0.01248
1251.74,0.01274
1247.89,0.01188
1244.03,0.01256
1240.17,0.01279
1236.31,0.01174
1232.46,0.01118
1228.6,0.01165
1224.74,0.01220
1220.88,0.01235
1217.03,0.01177
1213.17,0.01183
1209.31,0.01129
1205.45,0.01026
1201.6,0.01141
1197.74,0.01105
1193.88,0.01013
1190.02,0.00955
1186.17,0.00846
1182.31,0.00779
1178.45,0.00582
1174.59,0.00452
1170.74,0.00422
1166.88,0.00458
1163.02,0.00384
1159.16,0.00306
1155.31,0.00059
1151.45,0.00001
1147.59,0.00014
1143.73,0.00001
1139.88,0.00001
1136.02,0.00039
1132.16,0.00001
1128.3,0.00001
1124.45,0.00180
1120.59,0.00264
1116.73,0.00535
1112.88,0.00618
1109.02,0.00701
1105.16,0.00760
1101.3,0.00861
1097.45,0.00898
1093.59,0.00907
1089.73,0.00883
1085.87,0.00953
1082.02,0.00933
1078.16,0.01012
1074.3,0.01198
1070.44,0.01074
1066.59,0.01162
1062.73,0.01209
1058.87,0.01228
1055.01,0.01191
1051.16,0.01062
1047.3,0.01087
1043.44,0.01161
1039.58,0.01172
1035.73,0.01118
1031.87,0.01154
1028.01,0.01170
1024.15,0.01227
1020.3,0.01226
1016.44,0.01283
1012.58,0.01329
1008.72,0.01279
1004.87,0.01267
1001.01,0.01333
997.151,0.01240
993.294,0.01201
989.437,0.01225
985.579,0.01180
981.722,0.01087
977.864,0.00846
974.007,0.00623
970.149,0.00493
966.292,0.00384
962.434,0.00348
958.577,0.00304
954.719,0.00370
950.862,0.00223
947.005,0.00179
943.147,0.00245
939.29,0.00212
935.432,0.00165
931.575,0.00217
927.717,0.00418
923.86,0.00430
920.002,0.00580
916.145,0.00665
912.287,0.00852
908.43,0.01006
904.573,0.01078
900.715,0.01083
896.858,0.00882
893,0.00905
889.143,0.00986
885.285,0.00959
881.428,0.00977
877.57,0.01078
873.713,0.00943
869.856,0.00907
865.998,0.00852
862.141,0.01008
858.283,0.01032
854.426,0.00995
850.568,0.00935
846.711,0.00920
842.853,0.01054
838.996,0.00998
835.138,0.01104
831.281,0.01032
827.424,0.00925
823.566,0.00972
819.709,0.01055
815.851,0.01017
811.994,0.01048
808.136,0.01167
804.279,0.01175
800.421,0.01149
796.564,0.01012
792.706,0.00974
788.849,0.01142
784.992,0.01014
781.134,0.01039
777.277,0.01309
773.419,0.01316
769.562,0.01173
765.704,0.01084
761.847,0.01094
757.989,0.00902
754.132,0.01005
750.274,0.01194
746.417,0.01143
742.56,0.00990
738.702,0.01041
734.845,0.01169
730.987,0.01021
727.13,0.00963
723.272,0.00893
719.415,0.00896
715.557,0.00868
711.7,0.00825
707.843,0.00874
703.985,0.01115
700.128,0.01231
696.27,0.01263
692.413,0.01198
688.555,0.01174
684.698,0.00856
680.84,0.00835
676.983,0.01301
673.125,0.01149
669.268,0.00815
665.411,0.01104
661.553,0.01174
657.696,0.00929
653.838,0.00859
649.981,0.00981
646.123,0.01151
642.266,0.01176
638.408,0.01036
634.551,0.00980
630.693,0.01130
626.836,0.01271
622.979,0.01062
619.121,0.00822
615.264,0.00892
611.406,0.00904
607.549,0.00788
603.691,0.00977
599.834,0.01036
595.976,0.01199
592.119,0.00947
588.261,0.00654
584.404,0.00979
580.547,0.01376
576.689,0.01003
572.832,0.00796
568.974,0.00739
565.117,0.00598
561.259,0.00691
557.402,0.00731
553.544,0.00677
549.687,0.01124
545.83,0.00874
541.972,0.01037
538.115,0.01127
534.257,0.01091
530.4,0.00749
526.542,0.00991
522.685,0.01028
518.827,0.00933
514.97,0.01453
511.112,0.01003
507.255,0.00488
503.398,0.00761
499.54,0.01169
495.683,0.01203
491.825,0.00222
487.968,0.00001
484.11,0.00503
480.253,0.00685
476.395,0.00066
472.538,0.00425
468.68,0.00661
464.823,0.00471
460.966,0.00001
457.108,0.00488
453.251,0.00401
449.393,0.01095
445.536,0.01455
441.678,0.01230
437.821,0.00819
433.963,0.01064
430.106,0.00597
426.248,0.00541
422.391,0.01802
418.534,0.01792
414.676,0.01104
410.819,0.00598
406.961,0.02468
403.104,0.01839
399.246,0.00658