File: 01_Data/Polyester_Fabric/FTIR/IS/Polyester_Fabric_IS_S_221019_R7.dpt
7497.03,0.84655
7491.24,0.83511
7485.46,0.84083
7479.67,0.83958
7473.88,0.82936
7468.1,0.83607
7462.31,0.84157
7456.53,0.84254
7450.74,0.82814
7444.95,0.83109
7439.17,0.83608
7433.38,0.83687
7427.59,0.82461
7421.81,0.83054
7416.02,0.82601
7410.24,0.82656
7404.45,0.82438
7398.66,0.82267
7392.88,0.82513
7387.09,0.81850
7381.31,0.83625
7375.52,0.83108
7369.73,0.81503
7363.95,0.81200
7358.16,0.82341
7352.37,0.82047
7346.59,0.81992
7340.8,0.81959
7335.02,0.82334
7329.23,0.81736
7323.44,0.81883
7317.66,0.82271
7311.87,0.82267
7306.08,0.82167
7300.3,0.82727
7294.51,0.81276
7288.73,0.81528
7282.94,0.81620
7277.15,0.81921
7271.37,0.81304
7265.58,0.82260
7259.79,0.81998
7254.01,0.82301
7248.22,0.82816
7242.44,0.82532
7236.65,0.82032
7230.86,0.80789
7225.08,0.81478
7219.29,0.82116
7213.5,0.81500
7207.72,0.81551
7201.93,0.81405
7196.15,0.81515
7190.36,0.82014
7184.57,0.81460
7178.79,0.81606
7173,0.81005
7167.21,0.81039
7161.43,0.81679
7155.64,0.81637
7149.86,0.81554
7144.07,0.81514
7138.28,0.82084
7132.5,0.80856
7126.71,0.80906
7120.92,0.81846
7115.14,0.81257
7109.35,0.81478
7103.57,0.81233
7097.78,0.80802
7091.99,0.81025
7086.21,0.80994
7080.42,0.81469
7074.63,0.81800
7068.85,0.80515
7063.06,0.81125
7057.28,0.80581
7051.49,0.80695
7045.7,0.80373
7039.92,0.80633
7034.13,0.80233
7028.34,0.79896
7022.56,0.80685
7016.77,0.80858
7010.99,0.80242
7005.2,0.81394
6999.41,0.80573
6993.63,0.80791
6987.84,0.80419
6982.06,0.80962
6976.27,0.80656
6970.48,0.80251
6964.7,0.80300
6958.91,0.80656
6953.12,0.80758
6947.34,0.80294
6941.55,0.80553
6935.77,0.80716
6929.98,0.80899
6924.19,0.80780
6918.41,0.80846
6912.62,0.80770
6906.83,0.80491
6901.05,0.80766
6895.26,0.81156
6889.48,0.81249
6883.69,0.80593
6877.9,0.81189
6872.12,0.81096
6866.33,0.80805
6860.54,0.80696
6854.76,0.80408
6848.97,0.81098
6843.19,0.81143
6837.4,0.81299
6831.61,0.81007
6825.83,0.80866
6820.04,0.81466
6814.25,0.80615
6808.47,0.81364
6802.68,0.80790
6796.9,0.81338
6791.11,0.81648
6785.32,0.81363
6779.54,0.81225
6773.75,0.80900
6767.96,0.80919
6762.18,0.81208
6756.39,0.81225
6750.61,0.81502
6744.82,0.81602
6739.03,0.80529
6733.25,0.81501
6727.46,0.81183
6721.67,0.81379
6715.89,0.81918
6710.1,0.81416
6704.32,0.81511
6698.53,0.80758
6692.74,0.81164
6686.96,0.80633
6681.17,0.80869
6675.38,0.81539
6669.6,0.81169
6663.81,0.81399
6658.03,0.81772
6652.24,0.81422
6646.45,0.81168
6640.67,0.81245
6634.88,0.81717
6629.09,0.81948
6623.31,0.81880
6617.52,0.82082
6611.74,0.81484
6605.95,0.82114
6600.16,0.81508
6594.38,0.82088
6588.59,0.81928
6582.8,0.81417
6577.02,0.80974
6571.23,0.81695
6565.45,0.81842
6559.66,0.82048
6553.87,0.81459
6548.09,0.81331
6542.3,0.81338
6536.52,0.81996
6530.73,0.81537
6524.94,0.81429
6519.16,0.81842
6513.37,0.81760
6507.58,0.81733
6501.8,0.82169
6496.01,0.81769
6490.23,0.82065
6484.44,0.81769
6478.65,0.81927
6472.87,0.81864
6467.08,0.81786
6461.29,0.82105
6455.51,0.81766
6449.72,0.81944
6443.94,0.81987
6438.15,0.82131
6432.36,0.81453
6426.58,0.81819
6420.79,0.81672
6415,0.81557
6409.22,0.82053
6403.43,0.82293
6397.65,0.81818
6391.86,0.81932
6386.07,0.81985
6380.29,0.81790
6374.5,0.81968
6368.71,0.82198
6362.93,0.82131
6357.14,0.82007
6351.36,0.81809
6345.57,0.81897
6339.78,0.81809
6334,0.82087
6328.21,0.82054
6322.42,0.81654
6316.64,0.81125
6310.85,0.81711
6305.07,0.82169
6299.28,0.82309
6293.49,0.81661
6287.71,0.81399
6281.92,0.82133
6276.13,0.82023
6270.35,0.81327
6264.56,0.81659
6258.78,0.81554
6252.99,0.81757
6247.2,0.81814
6241.42,0.81866
6235.63,0.81792
6229.84,0.81842
6224.06,0.81505
6218.27,0.81601
6212.49,0.81396
6206.7,0.81066
6200.91,0.80505
6195.13,0.80716
6189.34,0.80361
6183.55,0.80897
6177.77,0.80800
6171.98,0.80504
6166.2,0.80651
6160.41,0.80323
6154.62,0.80235
6148.84,0.79915
6143.05,0.79695
6137.26,0.79534
6131.48,0.79693
6125.69,0.79539
6119.91,0.79705
6114.12,0.78669
6108.33,0.77930
6102.55,0.77481
6096.76,0.76734
6090.98,0.75656
6085.19,0.75365
6079.4,0.74484
6073.62,0.74003
6067.83,0.73018
6062.04,0.71984
6056.26,0.71302
6050.47,0.70384
6044.69,0.69825
6038.9,0.69400
6033.11,0.68625
6027.33,0.68038
6021.54,0.67501
6015.75,0.67423
6009.97,0.67888
6004.18,0.68835
5998.4,0.69657
5992.61,0.70441
5986.82,0.71221
5981.04,0.71059
5975.25,0.71280
5969.46,0.71479
5963.68,0.72578
5957.89,0.72790
5952.11,0.72823
5946.32,0.73055
5940.53,0.72941
5934.75,0.73440
5928.96,0.74240
5923.17,0.74737
5917.39,0.75555
5911.6,0.75985
5905.82,0.75906
5900.03,0.76130
5894.24,0.76018
5888.46,0.75775
5882.67,0.75409
5876.88,0.75127
5871.1,0.74646
5865.31,0.74760
5859.53,0.74644
5853.74,0.74681
5847.95,0.75105
5842.17,0.74873
5836.38,0.75136
5830.59,0.75144
5824.81,0.75260
5819.02,0.74753
5813.24,0.74937
5807.45,0.75036
5801.66,0.75075
5795.88,0.74902
5790.09,0.75175
5784.3,0.75170
5778.52,0.75470
5772.73,0.75258
5766.95,0.75685
5761.16,0.75798
5755.37,0.75937
5749.59,0.76201
5743.8,0.76552
5738.01,0.76918
5732.23,0.77226
5726.44,0.77396
5720.66,0.77408
5714.87,0.77345
5709.08,0.77268
5703.3,0.77631
5697.51,0.77596
5691.72,0.77739
5685.94,0.77737
5680.15,0.77783
5674.37,0.78261
5668.58,0.77899
5662.79,0.77802
5657.01,0.77726
5651.22,0.77985
5645.44,0.78232
5639.65,0.78314
5633.86,0.78443
5628.08,0.78660
5622.29,0.78769
5616.5,0.78769
5610.72,0.78951
5604.93,0.78862
5599.15,0.78962
5593.36,0.78712
5587.57,0.78766
5581.79,0.78568
5576,0.78508
5570.21,0.78391
5564.43,0.78240
5558.64,0.78187
5552.86,0.78145
5547.07,0.78115
5541.28,0.78410
5535.5,0.78369
5529.71,0.78227
5523.92,0.78237
5518.14,0.78515
5512.35,0.78517
5506.57,0.78467
5500.78,0.78518
5494.99,0.78396
5489.21,0.78193
5483.42,0.78129
5477.63,0.78253
5471.85,0.78257
5466.06,0.78463
5460.28,0.78763
5454.49,0.78692
5448.7,0.78849
5442.92,0.79171
5437.13,0.79223
5431.34,0.79514
5425.56,0.79341
5419.77,0.79585
5413.99,0.79585
5408.2,0.79473
5402.41,0.79560
5396.63,0.79528
5390.84,0.79587
5385.05,0.79742
5379.27,0.79568
5373.48,0.79572
5367.7,0.79676
5361.91,0.79815
5356.12,0.79466
5350.34,0.79255
5344.55,0.79299
5338.76,0.79491
5332.98,0.79748
5327.19,0.79871
5321.41,0.79876
5315.62,0.79859
5309.83,0.79815
5304.05,0.79711
5298.26,0.79623
5292.47,0.79471
5286.69,0.79396
5280.9,0.79214
5275.12,0.79021
5269.33,0.78844
5263.54,0.78539
5257.76,0.78405
5251.97,0.78386
5246.18,0.78450
5240.4,0.78259
5234.61,0.78290
5228.83,0.78355
5223.04,0.78074
5217.25,0.78284
5211.47,0.78273
5205.68,0.78380
5199.9,0.78302
5194.11,0.78162
5188.32,0.78338
5182.54,0.78098
5176.75,0.78104
5170.96,0.78105
5165.18,0.78064
5159.39,0.77910
5153.61,0.77738
5147.82,0.77442
5142.03,0.77317
5136.25,0.77095
5130.46,0.76852
5124.67,0.76300
5118.89,0.76169
5113.1,0.76289
5107.32,0.76752
5101.53,0.77320
5095.74,0.77557
5089.96,0.78015
5084.17,0.78128
5078.38,0.78364
5072.6,0.78564
5066.81,0.78556
5061.03,0.78591
5055.24,0.78638
5049.45,0.78663
5043.67,0.78787
5037.88,0.78690
5032.09,0.78687
5026.31,0.78606
5020.52,0.78607
5014.74,0.78625
5008.95,0.78608
5003.16,0.78593
4997.38,0.78618
4991.59,0.78692
4985.8,0.78673
4980.02,0.78825
4974.23,0.78623
4968.45,0.78675
4962.66,0.78570
4956.87,0.78292
4951.09,0.78313
4945.3,0.78088
4939.51,0.77896
4933.73,0.77733
4927.94,0.77673
4922.16,0.77561
4916.37,0.77572
4910.58,0.77295
4904.8,0.77175
4899.01,0.77179
4893.22,0.77095
4887.44,0.76887
4881.65,0.76868
4875.87,0.76737
4870.08,0.76660
4864.29,0.76697
4858.51,0.76586
4852.72,0.76482
4846.93,0.76348
4841.15,0.76099
4835.36,0.75710
4829.58,0.75269
4823.79,0.75038
4818,0.74695
4812.22,0.74400
4806.43,0.73987
4800.65,0.73924
4794.86,0.73848
4789.07,0.73774
4783.29,0.74062
4777.5,0.74306
4771.71,0.74429
4765.93,0.74373
4760.14,0.74278
4754.36,0.73783
4748.57,0.73111
4742.78,0.72500
4737,0.71835
4731.21,0.70946
4725.42,0.69808
4719.64,0.68889
4713.85,0.68712
4708.07,0.68521
4702.28,0.67347
4696.49,0.65850
4690.71,0.65032
4684.92,0.65424
4679.13,0.66773
4673.35,0.68349
4667.56,0.69243
4661.78,0.69581
4655.99,0.69592
4650.2,0.69192
4644.42,0.68047
4638.63,0.67071
4632.84,0.66858
4627.06,0.67992
4621.27,0.69763
4615.49,0.71045
4609.7,0.71712
4603.91,0.71657
4598.13,0.70992
4592.34,0.70026
4586.55,0.69593
4580.77,0.69110
4574.98,0.69595
4569.2,0.70992
4563.41,0.72151
4557.62,0.72652
4551.84,0.72635
4546.05,0.72650
4540.26,0.72636
4534.48,0.72433
4528.69,0.72438
4522.91,0.71973
4517.12,0.71617
4511.33,0.71086
4505.55,0.70115
4499.76,0.68849
4493.97,0.67405
4488.19,0.66261
4482.4,0.65701
4476.62,0.65017
4470.83,0.63769
4465.04,0.61835
4459.26,0.59969
4453.47,0.59708
4447.68,0.59789
4441.9,0.59410
4436.11,0.58843
4430.33,0.58787
4424.54,0.59518
4418.75,0.60460
4412.97,0.61058
4407.18,0.61074
4401.39,0.61273
4395.61,0.61992
4389.82,0.62322
4384.04,0.62742
4378.25,0.62848
4372.46,0.62884
4366.68,0.62773
4360.89,0.62594
4355.11,0.62559
4349.32,0.62376
4343.53,0.61969
4337.75,0.61634
4331.96,0.61626
4326.17,0.61643
4320.39,0.61623
4314.6,0.61362
4308.82,0.60842
4303.03,0.60016
4297.24,0.59461
4291.46,0.59157
4285.67,0.59299
4279.88,0.59614
4274.1,0.59960
4268.31,0.60241
4262.53,0.60543
4256.74,0.60628
4250.95,0.60433
4245.17,0.60300
4239.38,0.60373
4233.59,0.60514
4227.81,0.60477
4222.02,0.60684
4216.24,0.61178
4210.45,0.61658
4204.66,0.61792
4198.88,0.61897
4193.09,0.61924
4187.3,0.61499
4181.52,0.60692
4175.73,0.60481
4169.95,0.61120
4164.16,0.61891
4158.37,0.62495
4152.59,0.62744
4146.8,0.62668
4141.01,0.62090
4135.23,0.61319
4129.44,0.60997
4123.66,0.60942
4117.87,0.60564
4112.08,0.59945
4106.3,0.58981
4100.51,0.57446
4094.72,0.54885
4088.94,0.54150
4083.15,0.55552
4077.37,0.57500
4071.58,0.59379
4065.79,0.60333
4060.01,0.60841
4054.22,0.61346
4048.43,0.61705
4042.65,0.62175
4036.86,0.62720
4031.08,0.63084
4025.29,0.63207
4019.5,0.63145
4013.72,0.63035
4007.93,0.63184
4002.14,0.63286
3996.36,0.63402
3990.57,0.63704
3984.79,0.63902
3979,0.63889
3973.21,0.63884
3967.43,0.64037
3961.64,0.64392
3955.85,0.64729
3950.07,0.65092
3944.28,0.65249
3938.5,0.65363
3932.71,0.65372
3926.92,0.65390
3921.14,0.65470
3915.35,0.65537
3909.57,0.65802
3903.78,0.66152
3897.99,0.66638
3892.21,0.67128
3886.42,0.67540
3880.63,0.67723
3874.85,0.67874
3869.06,0.68063
3863.28,0.68293
3857.49,0.68359
3851.7,0.68518
3845.92,0.68499
3840.13,0.68478
3834.34,0.68437
3828.56,0.68409
3822.77,0.68370
3816.99,0.67862
3811.2,0.67209
3805.41,0.67009
3799.63,0.67243
3793.84,0.67730
3788.05,0.67969
3782.27,0.67980
3776.48,0.67758
3770.7,0.67338
3764.91,0.66847
3759.12,0.66353
3753.34,0.66896
3747.55,0.68172
3741.76,0.68497
3735.98,0.67969
3730.19,0.67577
3724.41,0.68242
3718.62,0.68835
3712.83,0.68778
3707.05,0.67990
3701.26,0.66658
3695.47,0.65153
3689.69,0.62726
3683.9,0.62011
3678.12,0.64088
3672.33,0.65634
3666.54,0.65729
3660.76,0.65244
3654.97,0.64361
3649.18,0.63473
3643.4,0.62521
3637.61,0.61652
3631.83,0.60805
3626.04,0.59985
3620.25,0.59160
3614.47,0.58338
3608.68,0.57588
3602.89,0.56677
3597.11,0.55643
3591.32,0.54338
3585.54,0.52850
3579.75,0.51385
3573.96,0.50021
3568.18,0.48622
3562.39,0.47447
3556.6,0.46597
3550.82,0.45969
3545.03,0.45583
3539.25,0.45424
3533.46,0.45419
3527.67,0.45503
3521.89,0.45700
3516.1,0.45799
3510.31,0.45861
3504.53,0.45763
3498.74,0.45727
3492.96,0.45530
3487.17,0.45168
3481.38,0.44736
3475.6,0.44126
3469.81,0.43307
3464.03,0.42180
3458.24,0.40858
3452.45,0.39454
3446.67,0.37827
3440.88,0.36205
3435.09,0.34221
3429.31,0.33589
3423.52,0.35776
3417.74,0.38235
3411.95,0.40093
3406.16,0.41475
3400.38,0.42504
3394.59,0.42942
3388.8,0.43195
3383.02,0.43216
3377.23,0.43306
3371.45,0.43170
3365.66,0.42903
3359.87,0.42512
3354.09,0.42019
3348.3,0.41383
3342.51,0.40786
3336.73,0.40313
3330.94,0.40529
3325.16,0.41187
3319.37,0.41573
3313.58,0.41662
3307.8,0.41508
3302.01,0.41373
3296.22,0.41424
3290.44,0.41839
3284.65,0.42141
3278.87,0.42418
3273.08,0.42664
3267.29,0.42835
3261.51,0.43042
3255.72,0.43316
3249.93,0.43347
3244.15,0.43335
3238.36,0.43391
3232.58,0.43560
3226.79,0.43802
3221,0.44116
3215.22,0.44481
3209.43,0.44634
3203.64,0.44645
3197.86,0.44714
3192.07,0.44667
3186.29,0.44736
3180.5,0.44882
3174.71,0.44991
3168.93,0.44962
3163.14,0.44968
3157.35,0.44892
3151.57,0.44702
3145.78,0.44427
3140,0.43962
3134.21,0.43280
3128.42,0.42731
3122.64,0.42829
3116.85,0.42675
3111.06,0.41532
3105.28,0.40279
3099.49,0.40270
3093.71,0.40982
3087.92,0.40190
3082.13,0.38973
3076.35,0.38714
3070.56,0.38363
3064.77,0.38296
3058.99,0.37588
3053.2,0.37032
3047.42,0.39998
3041.63,0.42267
3035.84,0.42361
3030.06,0.41396
3024.27,0.39489
3018.49,0.36139
3012.7,0.33918
3006.91,0.33637
3001.13,0.33082
2995.34,0.32284
2989.55,0.30927
2983.77,0.28522
2977.98,0.25388
2972.2,0.22531
2966.41,0.22680
2960.62,0.24081
2954.84,0.25835
2949.05,0.28232
2943.26,0.30743
2937.48,0.32357
2931.69,0.32598
2925.91,0.31643
2920.12,0.30368
2914.33,0.28385
2908.55,0.26481
2902.76,0.28760
2896.97,0.31587
2891.19,0.32464
2885.4,0.33240
2879.62,0.34318
2873.83,0.34986
2868.04,0.35445
2862.26,0.35788
2856.47,0.36000
2850.68,0.37089
2844.9,0.40346
2839.11,0.43157
2833.33,0.44862
2827.54,0.46187
2821.75,0.46952
2815.97,0.46941
2810.18,0.46768
2804.39,0.46900
2798.61,0.47775
2792.82,0.48851
2787.04,0.49662
2781.25,0.50310
2775.46,0.50919
2769.68,0.51252
2763.89,0.51464
2758.1,0.51538
2752.32,0.51489
2746.53,0.51381
2740.75,0.51802
2734.96,0.52613
2729.17,0.53396
2723.39,0.53985
2717.6,0.54331
2711.81,0.54808
2706.03,0.55347
2700.24,0.55783
2694.46,0.56078
2688.67,0.56212
2682.88,0.56281
2677.1,0.56388
2671.31,0.56588
2665.52,0.56703
2659.74,0.56581
2653.95,0.56273
2648.17,0.55846
2642.38,0.54987
2636.59,0.53789
2630.81,0.53246
2625.02,0.53404
2619.24,0.53655
2613.45,0.53620
2607.66,0.53501
2601.88,0.53254
2596.09,0.52668
2590.3,0.52009
2584.52,0.51660
2578.73,0.51705
2572.95,0.51788
2567.16,0.51707
2561.37,0.51548
2555.59,0.51467
2549.8,0.51318
2544.01,0.51203
2538.23,0.51111
2532.44,0.51150
2526.66,0.51507
2520.87,0.52048
2515.08,0.52564
2509.3,0.52797
2503.51,0.52890
2497.72,0.53051
2491.94,0.53567
2486.15,0.54230
2480.37,0.54965
2474.58,0.55634
2468.79,0.56010
2463.01,0.56099
2457.22,0.56094
2451.43,0.55920
2445.65,0.55581
2439.86,0.54897
2434.08,0.53936
2428.29,0.52987
2422.5,0.51988
2416.72,0.51032
2410.93,0.50181
2405.14,0.49398
2399.36,0.48826
2393.57,0.48454
2387.79,0.48330
2382,0.48572
2376.21,0.48915
2370.43,0.49491
2364.64,0.50508
2358.85,0.51773
2353.07,0.52875
2347.28,0.53651
2341.5,0.54090
2335.71,0.54120
2329.92,0.54480
2324.14,0.54866
2318.35,0.55291
2312.56,0.55306
2306.78,0.54555
2300.99,0.53253
2295.21,0.51619
2289.42,0.50304
2283.63,0.49831
2277.85,0.49957
2272.06,0.49808
2266.27,0.49371
2260.49,0.49122
2254.7,0.49258
2248.92,0.49815
2243.13,0.50635
2237.34,0.51311
2231.56,0.51822
2225.77,0.52057
2219.98,0.52239
2214.2,0.52445
2208.41,0.52715
2202.63,0.53444
2196.84,0.53820
2191.05,0.53790
2185.27,0.53393
2179.48,0.52679
2173.7,0.51659
2167.91,0.50450
2162.12,0.49009
2156.34,0.47509
2150.55,0.46227
2144.76,0.45241
2138.98,0.44502
2133.19,0.43681
2127.41,0.42609
2121.62,0.41509
2115.83,0.40811
2110.05,0.40645
2104.26,0.40756
2098.47,0.40973
2092.69,0.41398
2086.9,0.42175
2081.12,0.43275
2075.33,0.44554
2069.54,0.45931
2063.76,0.47443
2057.97,0.48968
2052.18,0.50204
2046.4,0.50907
2040.61,0.51154
2034.83,0.50998
2029.04,0.50268
2023.25,0.49104
2017.47,0.47849
2011.68,0.46702
2005.89,0.45483
2000.11,0.44141
1994.32,0.42822
1988.54,0.41480
1982.75,0.40200
1976.96,0.38729
1971.18,0.36690
1965.39,0.33733
1959.6,0.32149
1953.82,0.33435
1948.03,0.35170
1942.25,0.37074
1936.46,0.38985
1930.67,0.40677
1924.89,0.41968
1919.1,0.43006
1913.31,0.43906
1907.53,0.44591
1901.74,0.45070
1895.96,0.45397
1890.17,0.45453
1884.38,0.45354
1878.6,0.45026
1872.81,0.44186
1867.02,0.42984
1861.24,0.41489
1855.45,0.39442
1849.67,0.36858
1843.88,0.34421
1838.09,0.32411
1832.31,0.30812
1826.52,0.29837
1820.73,0.29587
1814.95,0.29310
1809.16,0.28922
1803.38,0.28590
1797.59,0.28139
1791.8,0.27411
1786.02,0.26366
1780.23,0.24907
1774.44,0.23222
1768.66,0.20895
1762.87,0.18148
1757.09,0.14469
1751.3,0.09892
1745.51,0.05348
1739.73,0.03365
1733.94,0.03305
1728.16,0.03743
1722.37,0.04234
1716.58,0.05225
1710.8,0.08159
1705.01,0.11826
1699.22,0.15008
1693.44,0.17005
1687.65,0.17571
1681.87,0.17892
1676.08,0.19863
1670.29,0.21481
1664.51,0.23545
1658.72,0.25235
1652.93,0.26221
1647.15,0.26899
1641.36,0.27699
1635.58,0.28320
1629.79,0.28675
1624,0.28642
1618.22,0.27238
1612.43,0.26167
1606.64,0.27813
1600.86,0.29200
1595.07,0.29524
1589.29,0.27969
1583.5,0.23940
1577.71,0.21122
1571.93,0.25319
1566.14,0.28316
1560.35,0.29072
1554.57,0.29022
1548.78,0.28564
1543,0.28122
1537.21,0.28218
1531.42,0.27259
1525.64,0.25898
1519.85,0.25619
1514.06,0.23292
1508.28,0.15137
1502.49,0.16339
1496.71,0.25512
1490.92,0.27158
1485.13,0.24362
1479.35,0.20319
1473.56,0.15787
1467.77,0.16061
1461.99,0.16125
1456.2,0.15052
1450.42,0.15097
1444.63,0.15539
1438.84,0.15965
1433.06,0.16899
1427.27,0.16741
1421.48,0.13450
1415.7,0.07492
1409.91,0.05903
1404.13,0.08958
1398.34,0.11521
1392.55,0.11719
1386.77,0.10682
1380.98,0.10593
1375.19,0.10189
1369.41,0.09650
1363.62,0.10112
1357.84,0.09336
1352.05,0.07167
1346.26,0.05719
1340.48,0.05840
1334.69,0.08650
1328.9,0.10901
1323.12,0.09150
1317.33,0.06788
1311.55,0.05087
1305.76,0.04044
1299.97,0.03614
1294.19,0.03701
1288.4,0.04162
1282.62,0.04871
1276.83,0.05603
1271.04,0.06042
1265.26,0.06301
1259.47,0.06453
1253.68,0.06595
1247.9,0.06233
1242.11,0.05801
1236.33,0.07099
1230.54,0.11104
1224.75,0.14646
1218.97,0.18100
1213.18,0.20549
1207.39,0.22279
1201.61,0.24650
1195.82,0.26237
1190.04,0.25914
1184.25,0.23387
1178.46,0.19952
1172.68,0.17897
1166.89,0.16648
1161.1,0.13719
1155.32,0.10373
1149.53,0.07342
1143.75,0.05202
1137.96,0.04689
1132.17,0.05420
1126.39,0.05764
1120.6,0.05781
1114.81,0.05934
1109.03,0.06074
1103.24,0.06368
1097.46,0.07238
1091.67,0.09398
1085.88,0.12585
1080.1,0.17454
1074.31,0.22723
1068.52,0.25742
1062.74,0.26925
1056.95,0.26104
1051.17,0.23767
1045.38,0.21686
1039.59,0.20782
1033.81,0.19194
1028.02,0.12704
1022.23,0.08553
1016.45,0.14051
1010.66,0.25923
1004.88,0.31050
999.09,0.31985
993.303,0.30648
987.517,0.27924
981.731,0.24939
975.945,0.19472
970.158,0.19097
964.372,0.24891
958.586,0.30261
952.8,0.33607
947.014,0.35272
941.227,0.35957
935.441,0.36094
929.655,0.35942
923.869,0.35555
918.082,0.34357
912.296,0.31916
906.51,0.28405
900.724,0.26020
894.937,0.25778
889.151,0.25446
883.365,0.22903
877.579,0.18855
871.793,0.17573
866.006,0.22687
860.22,0.22008
854.434,0.18935
848.648,0.17535
842.861,0.20719
837.075,0.24212
831.289,0.26590
825.503,0.27832
819.716,0.28066
813.93,0.27571
808.144,0.26766
802.358,0.25903
796.571,0.23161
790.785,0.22929
784.999,0.26407
779.213,0.27953
773.427,0.28688
767.64,0.29160
761.854,0.28941
756.068,0.27458
750.282,0.24455
744.495,0.18802
738.709,0.10110
732.923,0.05927
727.137,0.07563
721.35,0.16606
715.564,0.23909
709.778,0.24772
703.992,0.25657
698.206,0.28546
692.419,0.30291
686.633,0.29807
680.847,0.28099
675.061,0.28582
669.274,0.29288
663.488,0.29597
657.702,0.29084
651.916,0.29677
646.129,0.30063
640.343,0.29854
634.557,0.26995
628.771,0.27529
622.984,0.29413
617.198,0.29142
611.412,0.28990
605.626,0.28543
599.84,0.28304