File: 01_Data/Polyester_Fabric/FTIR/IS/Polyester_Fabric_IS_T_221019_R1.dpt
7497.03,0.01837
7491.24,0.02033
7485.46,0.02309
7479.67,0.01710
7473.88,0.01714
7468.1,0.02183
7462.31,0.02682
7456.53,0.02070
7450.74,0.02258
7444.95,0.01915
7439.17,0.02304
7433.38,0.02586
7427.59,0.01796
7421.81,0.02518
7416.02,0.02702
7410.24,0.02499
7404.45,0.02219
7398.66,0.02301
7392.88,0.02873
7387.09,0.02823
7381.31,0.03217
7375.52,0.03015
7369.73,0.02541
7363.95,0.02448
7358.16,0.02105
7352.37,0.02388
7346.59,0.02499
7340.8,0.02804
7335.02,0.02419
7329.23,0.02625
7323.44,0.02208
7317.66,0.02552
7311.87,0.02154
7306.08,0.01792
7300.3,0.02322
7294.51,0.02426
7288.73,0.01989
7282.94,0.03278
7277.15,0.02550
7271.37,0.02306
7265.58,0.02758
7259.79,0.01489
7254.01,0.02580
7248.22,0.02687
7242.44,0.02670
7236.65,0.03096
7230.86,0.02754
7225.08,0.02051
7219.29,0.02117
7213.5,0.01946
7207.72,0.02681
7201.93,0.02528
7196.15,0.03099
7190.36,0.01985
7184.57,0.01838
7178.79,0.02506
7173,0.02161
7167.21,0.02613
7161.43,0.01987
7155.64,0.01931
7149.86,0.02427
7144.07,0.02494
7138.28,0.02204
7132.5,0.02293
7126.71,0.01839
7120.92,0.02061
7115.14,0.02203
7109.35,0.02945
7103.57,0.02720
7097.78,0.02694
7091.99,0.02655
7086.21,0.02040
7080.42,0.02319
7074.63,0.02129
7068.85,0.02417
7063.06,0.02551
7057.28,0.01892
7051.49,0.01920
7045.7,0.02653
7039.92,0.02482
7034.13,0.01998
7028.34,0.02677
7022.56,0.02313
7016.77,0.02756
7010.99,0.02673
7005.2,0.02685
6999.41,0.02484
6993.63,0.02503
6987.84,0.02191
6982.06,0.02029
6976.27,0.02386
6970.48,0.02414
6964.7,0.02485
6958.91,0.02170
6953.12,0.02384
6947.34,0.02596
6941.55,0.02613
6935.77,0.02807
6929.98,0.02685
6924.19,0.02422
6918.41,0.01871
6912.62,0.02148
6906.83,0.01829
6901.05,0.02759
6895.26,0.02421
6889.48,0.02484
6883.69,0.02981
6877.9,0.02330
6872.12,0.02710
6866.33,0.02517
6860.54,0.03098
6854.76,0.02345
6848.97,0.02252
6843.19,0.02264
6837.4,0.02377
6831.61,0.02444
6825.83,0.02305
6820.04,0.01619
6814.25,0.01851
6808.47,0.02302
6802.68,0.02276
6796.9,0.02901
6791.11,0.02401
6785.32,0.02303
6779.54,0.02295
6773.75,0.02034
6767.96,0.02016
6762.18,0.02086
6756.39,0.02147
6750.61,0.02274
6744.82,0.02610
6739.03,0.02142
6733.25,0.02692
6727.46,0.01531
6721.67,0.02248
6715.89,0.01937
6710.1,0.01788
6704.32,0.02008
6698.53,0.01914
6692.74,0.02294
6686.96,0.02336
6681.17,0.02374
6675.38,0.01769
6669.6,0.01843
6663.81,0.01940
6658.03,0.02348
6652.24,0.02150
6646.45,0.01990
6640.67,0.02144
6634.88,0.02564
6629.09,0.02771
6623.31,0.02204
6617.52,0.02239
6611.74,0.02348
6605.95,0.02161
6600.16,0.01730
6594.38,0.01938
6588.59,0.01950
6582.8,0.02107
6577.02,0.02561
6571.23,0.02418
6565.45,0.02381
6559.66,0.02420
6553.87,0.02531
6548.09,0.02299
6542.3,0.02304
6536.52,0.02199
6530.73,0.02368
6524.94,0.02481
6519.16,0.02300
6513.37,0.02548
6507.58,0.01966
6501.8,0.02215
6496.01,0.02478
6490.23,0.02074
6484.44,0.02123
6478.65,0.02187
6472.87,0.02120
6467.08,0.02531
6461.29,0.02342
6455.51,0.02367
6449.72,0.02212
6443.94,0.02269
6438.15,0.02072
6432.36,0.02154
6426.58,0.01976
6420.79,0.02101
6415,0.02321
6409.22,0.02027
6403.43,0.02165
6397.65,0.02078
6391.86,0.02271
6386.07,0.01976
6380.29,0.02379
6374.5,0.02151
6368.71,0.02061
6362.93,0.02263
6357.14,0.02225
6351.36,0.02496
6345.57,0.02668
6339.78,0.02570
6334,0.02536
6328.21,0.02014
6322.42,0.01949
6316.64,0.02320
6310.85,0.02358
6305.07,0.02102
6299.28,0.02452
6293.49,0.02053
6287.71,0.02327
6281.92,0.02479
6276.13,0.02197
6270.35,0.01970
6264.56,0.02244
6258.78,0.02166
6252.99,0.02359
6247.2,0.02265
6241.42,0.02168
6235.63,0.01861
6229.84,0.02237
6224.06,0.02135
6218.27,0.02134
6212.49,0.01956
6206.7,0.02183
6200.91,0.02237
6195.13,0.02338
6189.34,0.02189
6183.55,0.02134
6177.77,0.02144
6171.98,0.02114
6166.2,0.02445
6160.41,0.02233
6154.62,0.02139
6148.84,0.01898
6143.05,0.01863
6137.26,0.02266
6131.48,0.02234
6125.69,0.02273
6119.91,0.02501
6114.12,0.02214
6108.33,0.02481
6102.55,0.02004
6096.76,0.02027
6090.98,0.02178
6085.19,0.02192
6079.4,0.02274
6073.62,0.02392
6067.83,0.02272
6062.04,0.02007
6056.26,0.02026
6050.47,0.02168
6044.69,0.02085
6038.9,0.02272
6033.11,0.02194
6027.33,0.02074
6021.54,0.02158
6015.75,0.02222
6009.97,0.02189
6004.18,0.02420
5998.4,0.02180
5992.61,0.02235
5986.82,0.02295
5981.04,0.02054
5975.25,0.02261
5969.46,0.02214
5963.68,0.02294
5957.89,0.01981
5952.11,0.01929
5946.32,0.02004
5940.53,0.02012
5934.75,0.02036
5928.96,0.02333
5923.17,0.02366
5917.39,0.02003
5911.6,0.01873
5905.82,0.02222
5900.03,0.02387
5894.24,0.02031
5888.46,0.01968
5882.67,0.02141
5876.88,0.02227
5871.1,0.02208
5865.31,0.02292
5859.53,0.02065
5853.74,0.02250
5847.95,0.02385
5842.17,0.02484
5836.38,0.02205
5830.59,0.02371
5824.81,0.02402
5819.02,0.02243
5813.24,0.02126
5807.45,0.02139
5801.66,0.02160
5795.88,0.02093
5790.09,0.02028
5784.3,0.02042
5778.52,0.02135
5772.73,0.02260
5766.95,0.02186
5761.16,0.02103
5755.37,0.02186
5749.59,0.02105
5743.8,0.02025
5738.01,0.01971
5732.23,0.02088
5726.44,0.02353
5720.66,0.02217
5714.87,0.02140
5709.08,0.02315
5703.3,0.02258
5697.51,0.02126
5691.72,0.02303
5685.94,0.02221
5680.15,0.02225
5674.37,0.02188
5668.58,0.02176
5662.79,0.02134
5657.01,0.02249
5651.22,0.02452
5645.44,0.02268
5639.65,0.02352
5633.86,0.02104
5628.08,0.02192
5622.29,0.02321
5616.5,0.02238
5610.72,0.02003
5604.93,0.02163
5599.15,0.02227
5593.36,0.02095
5587.57,0.02278
5581.79,0.02329
5576,0.02189
5570.21,0.02099
5564.43,0.02074
5558.64,0.02370
5552.86,0.02191
5547.07,0.02046
5541.28,0.02085
5535.5,0.02037
5529.71,0.02106
5523.92,0.02127
5518.14,0.02381
5512.35,0.02505
5506.57,0.02351
5500.78,0.02132
5494.99,0.02375
5489.21,0.02187
5483.42,0.02257
5477.63,0.02302
5471.85,0.02214
5466.06,0.02207
5460.28,0.02314
5454.49,0.02076
5448.7,0.02229
5442.92,0.02169
5437.13,0.02349
5431.34,0.02489
5425.56,0.02225
5419.77,0.02247
5413.99,0.02419
5408.2,0.02410
5402.41,0.02066
5396.63,0.02364
5390.84,0.02364
5385.05,0.02421
5379.27,0.02175
5373.48,0.02075
5367.7,0.02209
5361.91,0.02117
5356.12,0.02021
5350.34,0.02295
5344.55,0.02004
5338.76,0.02072
5332.98,0.02133
5327.19,0.02105
5321.41,0.02219
5315.62,0.02174
5309.83,0.02279
5304.05,0.02171
5298.26,0.02145
5292.47,0.02285
5286.69,0.02078
5280.9,0.02142
5275.12,0.02215
5269.33,0.02070
5263.54,0.02075
5257.76,0.02133
5251.97,0.02200
5246.18,0.02060
5240.4,0.02187
5234.61,0.02386
5228.83,0.02353
5223.04,0.02342
5217.25,0.02322
5211.47,0.02202
5205.68,0.02131
5199.9,0.02203
5194.11,0.02140
5188.32,0.02255
5182.54,0.02107
5176.75,0.02087
5170.96,0.02308
5165.18,0.02172
5159.39,0.02094
5153.61,0.02263
5147.82,0.02238
5142.03,0.02286
5136.25,0.02163
5130.46,0.02378
5124.67,0.02258
5118.89,0.02168
5113.1,0.02192
5107.32,0.02283
5101.53,0.02290
5095.74,0.02254
5089.96,0.02251
5084.17,0.02193
5078.38,0.02118
5072.6,0.02169
5066.81,0.02234
5061.03,0.02079
5055.24,0.02163
5049.45,0.02106
5043.67,0.02187
5037.88,0.02297
5032.09,0.02070
5026.31,0.02162
5020.52,0.02166
5014.74,0.02184
5008.95,0.02182
5003.16,0.02248
4997.38,0.02303
4991.59,0.02251
4985.8,0.02266
4980.02,0.02282
4974.23,0.02124
4968.45,0.02138
4962.66,0.02253
4956.87,0.02277
4951.09,0.02253
4945.3,0.02154
4939.51,0.02159
4933.73,0.02325
4927.94,0.02250
4922.16,0.02221
4916.37,0.02214
4910.58,0.02184
4904.8,0.02170
4899.01,0.02164
4893.22,0.02125
4887.44,0.02168
4881.65,0.02226
4875.87,0.02139
4870.08,0.02299
4864.29,0.02326
4858.51,0.02247
4852.72,0.02293
4846.93,0.02281
4841.15,0.02149
4835.36,0.02208
4829.58,0.02245
4823.79,0.02203
4818,0.02275
4812.22,0.02216
4806.43,0.02262
4800.65,0.02199
4794.86,0.02247
4789.07,0.02184
4783.29,0.02188
4777.5,0.02237
4771.71,0.02288
4765.93,0.02281
4760.14,0.02262
4754.36,0.02241
4748.57,0.02342
4742.78,0.02281
4737,0.02265
4731.21,0.02183
4725.42,0.02168
4719.64,0.02163
4713.85,0.02266
4708.07,0.02295
4702.28,0.02265
4696.49,0.02224
4690.71,0.02298
4684.92,0.02273
4679.13,0.02348
4673.35,0.02207
4667.56,0.02237
4661.78,0.02245
4655.99,0.02264
4650.2,0.02227
4644.42,0.02243
4638.63,0.02247
4632.84,0.02315
4627.06,0.02232
4621.27,0.02353
4615.49,0.02296
4609.7,0.02203
4603.91,0.02206
4598.13,0.02140
4592.34,0.02302
4586.55,0.02269
4580.77,0.02217
4574.98,0.02209
4569.2,0.02281
4563.41,0.02216
4557.62,0.02183
4551.84,0.02215
4546.05,0.02222
4540.26,0.02183
4534.48,0.02285
4528.69,0.02205
4522.91,0.02185
4517.12,0.02196
4511.33,0.02281
4505.55,0.02227
4499.76,0.02242
4493.97,0.02291
4488.19,0.02369
4482.4,0.02312
4476.62,0.02276
4470.83,0.02255
4465.04,0.02275
4459.26,0.02210
4453.47,0.02286
4447.68,0.02211
4441.9,0.02200
4436.11,0.02229
4430.33,0.02253
4424.54,0.02241
4418.75,0.02248
4412.97,0.02323
4407.18,0.02222
4401.39,0.02199
4395.61,0.02304
4389.82,0.02270
4384.04,0.02215
4378.25,0.02301
4372.46,0.02226
4366.68,0.02194
4360.89,0.02186
4355.11,0.02214
4349.32,0.02290
4343.53,0.02172
4337.75,0.02304
4331.96,0.02256
4326.17,0.02294
4320.39,0.02246
4314.6,0.02293
4308.82,0.02255
4303.03,0.02230
4297.24,0.02265
4291.46,0.02278
4285.67,0.02199
4279.88,0.02279
4274.1,0.02300
4268.31,0.02265
4262.53,0.02213
4256.74,0.02242
4250.95,0.02224
4245.17,0.02276
4239.38,0.02276
4233.59,0.02257
4227.81,0.02245
4222.02,0.02208
4216.24,0.02248
4210.45,0.02267
4204.66,0.02232
4198.88,0.02281
4193.09,0.02282
4187.3,0.02239
4181.52,0.02205
4175.73,0.02206
4169.95,0.02229
4164.16,0.02220
4158.37,0.02290
4152.59,0.02278
4146.8,0.02302
4141.01,0.02308
4135.23,0.02239
4129.44,0.02257
4123.66,0.02241
4117.87,0.02220
4112.08,0.02327
4106.3,0.02234
4100.51,0.02254
4094.72,0.02285
4088.94,0.02255
4083.15,0.02309
4077.37,0.02303
4071.58,0.02264
4065.79,0.02215
4060.01,0.02219
4054.22,0.02261
4048.43,0.02231
4042.65,0.02270
4036.86,0.02229
4031.08,0.02176
4025.29,0.02258
4019.5,0.02313
4013.72,0.02264
4007.93,0.02318
4002.14,0.02272
3996.36,0.02285
3990.57,0.02304
3984.79,0.02269
3979,0.02245
3973.21,0.02250
3967.43,0.02275
3961.64,0.02230
3955.85,0.02243
3950.07,0.02216
3944.28,0.02256
3938.5,0.02299
3932.71,0.02306
3926.92,0.02309
3921.14,0.02305
3915.35,0.02262
3909.57,0.02316
3903.78,0.02313
3897.99,0.02271
3892.21,0.02374
3886.42,0.02308
3880.63,0.02232
3874.85,0.02285
3869.06,0.02343
3863.28,0.02303
3857.49,0.02288
3851.7,0.02282
3845.92,0.02342
3840.13,0.02306
3834.34,0.02351
3828.56,0.02230
3822.77,0.02253
3816.99,0.02330
3811.2,0.02270
3805.41,0.02259
3799.63,0.02227
3793.84,0.02319
3788.05,0.02330
3782.27,0.02320
3776.48,0.02293
3770.7,0.02277
3764.91,0.02297
3759.12,0.02254
3753.34,0.02234
3747.55,0.02245
3741.76,0.02292
3735.98,0.02239
3730.19,0.02245
3724.41,0.02252
3718.62,0.02225
3712.83,0.02217
3707.05,0.02261
3701.26,0.02286
3695.47,0.02241
3689.69,0.02346
3683.9,0.02234
3678.12,0.02224
3672.33,0.02214
3666.54,0.02254
3660.76,0.02195
3654.97,0.02245
3649.18,0.02207
3643.4,0.02193
3637.61,0.02185
3631.83,0.02186
3626.04,0.02224
3620.25,0.02232
3614.47,0.02204
3608.68,0.02198
3602.89,0.02235
3597.11,0.02188
3591.32,0.02228
3585.54,0.02237
3579.75,0.02199
3573.96,0.02169
3568.18,0.02126
3562.39,0.02117
3556.6,0.02060
3550.82,0.02062
3545.03,0.02163
3539.25,0.02162
3533.46,0.02165
3527.67,0.02115
3521.89,0.02112
3516.1,0.02054
3510.31,0.02043
3504.53,0.02149
3498.74,0.02147
3492.96,0.02144
3487.17,0.02148
3481.38,0.02122
3475.6,0.02123
3469.81,0.02132
3464.03,0.02120
3458.24,0.02060
3452.45,0.02080
3446.67,0.02153
3440.88,0.02110
3435.09,0.02033
3429.31,0.02107
3423.52,0.02116
3417.74,0.02069
3411.95,0.02036
3406.16,0.02050
3400.38,0.02064
3394.59,0.02058
3388.8,0.02075
3383.02,0.02114
3377.23,0.02065
3371.45,0.02017
3365.66,0.02051
3359.87,0.02116
3354.09,0.02073
3348.3,0.02029
3342.51,0.02035
3336.73,0.02053
3330.94,0.02114
3325.16,0.02086
3319.37,0.02049
3313.58,0.02053
3307.8,0.02045
3302.01,0.02064
3296.22,0.02019
3290.44,0.02098
3284.65,0.02106
3278.87,0.01980
3273.08,0.02028
3267.29,0.02068
3261.51,0.02105
3255.72,0.02077
3249.93,0.02103
3244.15,0.02081
3238.36,0.02126
3232.58,0.02052
3226.79,0.02111
3221,0.02058
3215.22,0.02088
3209.43,0.02116
3203.64,0.02067
3197.86,0.02053
3192.07,0.02099
3186.29,0.02114
3180.5,0.02095
3174.71,0.02086
3168.93,0.02026
3163.14,0.02019
3157.35,0.02032
3151.57,0.02105
3145.78,0.02114
3140,0.02111
3134.21,0.02143
3128.42,0.02083
3122.64,0.02064
3116.85,0.02077
3111.06,0.02081
3105.28,0.02133
3099.49,0.02118
3093.71,0.02062
3087.92,0.02099
3082.13,0.02056
3076.35,0.02028
3070.56,0.02094
3064.77,0.02136
3058.99,0.02070
3053.2,0.02077
3047.42,0.02072
3041.63,0.02049
3035.84,0.02050
3030.06,0.02050
3024.27,0.02088
3018.49,0.02109
3012.7,0.02126
3006.91,0.02069
3001.13,0.02092
2995.34,0.02081
2989.55,0.02033
2983.77,0.02076
2977.98,0.02005
2972.2,0.02019
2966.41,0.02006
2960.62,0.02020
2954.84,0.01971
2949.05,0.01988
2943.26,0.01971
2937.48,0.02011
2931.69,0.01962
2925.91,0.02018
2920.12,0.02062
2914.33,0.02038
2908.55,0.02078
2902.76,0.02094
2896.97,0.02059
2891.19,0.02052
2885.4,0.02108
2879.62,0.02078
2873.83,0.02079
2868.04,0.02067
2862.26,0.02067
2856.47,0.02077
2850.68,0.02058
2844.9,0.02150
2839.11,0.02153
2833.33,0.02182
2827.54,0.02145
2821.75,0.02179
2815.97,0.02116
2810.18,0.02129
2804.39,0.02146
2798.61,0.02119
2792.82,0.02144
2787.04,0.02163
2781.25,0.02201
2775.46,0.02174
2769.68,0.02150
2763.89,0.02104
2758.1,0.02130
2752.32,0.02206
2746.53,0.02159
2740.75,0.02125
2734.96,0.02175
2729.17,0.02155
2723.39,0.02177
2717.6,0.02203
2711.81,0.02163
2706.03,0.02157
2700.24,0.02093
2694.46,0.02096
2688.67,0.02137
2682.88,0.02132
2677.1,0.02166
2671.31,0.02105
2665.52,0.02102
2659.74,0.02190
2653.95,0.02159
2648.17,0.02158
2642.38,0.02174
2636.59,0.02156
2630.81,0.02147
2625.02,0.02161
2619.24,0.02119
2613.45,0.02152
2607.66,0.02139
2601.88,0.02150
2596.09,0.02196
2590.3,0.02154
2584.52,0.02130
2578.73,0.02161
2572.95,0.02197
2567.16,0.02162
2561.37,0.02122
2555.59,0.02147
2549.8,0.02177
2544.01,0.02141
2538.23,0.02165
2532.44,0.02142
2526.66,0.02191
2520.87,0.02130
2515.08,0.02163
2509.3,0.02153
2503.51,0.02162
2497.72,0.02157
2491.94,0.02124
2486.15,0.02137
2480.37,0.02140
2474.58,0.02154
2468.79,0.02174
2463.01,0.02155
2457.22,0.02165
2451.43,0.02110
2445.65,0.02151
2439.86,0.02155
2434.08,0.02123
2428.29,0.02160
2422.5,0.02177
2416.72,0.02165
2410.93,0.02147
2405.14,0.02105
2399.36,0.02145
2393.57,0.02119
2387.79,0.02162
2382,0.02167
2376.21,0.02190
2370.43,0.02149
2364.64,0.02204
2358.85,0.02172
2353.07,0.02152
2347.28,0.02149
2341.5,0.02144
2335.71,0.02178
2329.92,0.02166
2324.14,0.02147
2318.35,0.02174
2312.56,0.02159
2306.78,0.02137
2300.99,0.02169
2295.21,0.02153
2289.42,0.02119
2283.63,0.02157
2277.85,0.02135
2272.06,0.02170
2266.27,0.02122
2260.49,0.02169
2254.7,0.02165
2248.92,0.02166
2243.13,0.02151
2237.34,0.02140
2231.56,0.02152
2225.77,0.02114
2219.98,0.02141
2214.2,0.02142
2208.41,0.02161
2202.63,0.02122
2196.84,0.02144
2191.05,0.02160
2185.27,0.02172
2179.48,0.02149
2173.7,0.02148
2167.91,0.02138
2162.12,0.02125
2156.34,0.02138
2150.55,0.02123
2144.76,0.02121
2138.98,0.02180
2133.19,0.02138
2127.41,0.02158
2121.62,0.02146
2115.83,0.02175
2110.05,0.02163
2104.26,0.02135
2098.47,0.02131
2092.69,0.02146
2086.9,0.02121
2081.12,0.02145
2075.33,0.02095
2069.54,0.02077
2063.76,0.02113
2057.97,0.02136
2052.18,0.02115
2046.4,0.02114
2040.61,0.02112
2034.83,0.02169
2029.04,0.02154
2023.25,0.02130
2017.47,0.02142
2011.68,0.02136
2005.89,0.02111
2000.11,0.02171
1994.32,0.02107
1988.54,0.02134
1982.75,0.02153
1976.96,0.02124
1971.18,0.02117
1965.39,0.02120
1959.6,0.02115
1953.82,0.02108
1948.03,0.02095
1942.25,0.02101
1936.46,0.02094
1930.67,0.02130
1924.89,0.02129
1919.1,0.02128
1913.31,0.02097
1907.53,0.02114
1901.74,0.02112
1895.96,0.02099
1890.17,0.02086
1884.38,0.02106
1878.6,0.02089
1872.81,0.02078
1867.02,0.02075
1861.24,0.02099
1855.45,0.02061
1849.67,0.02092
1843.88,0.02068
1838.09,0.02108
1832.31,0.02056
1826.52,0.02058
1820.73,0.02048
1814.95,0.02024
1809.16,0.02041
1803.38,0.02013
1797.59,0.02009
1791.8,0.02020
1786.02,0.01981
1780.23,0.01937
1774.44,0.01930
1768.66,0.01871
1762.87,0.01861
1757.09,0.01795
1751.3,0.01755
1745.51,0.01805
1739.73,0.01872
1733.94,0.01945
1728.16,0.02041
1722.37,0.02090
1716.58,0.02097
1710.8,0.02093
1705.01,0.02046
1699.22,0.02015
1693.44,0.01962
1687.65,0.01938
1681.87,0.01892
1676.08,0.01880
1670.29,0.01858
1664.51,0.01839
1658.72,0.01820
1652.93,0.01876
1647.15,0.01879
1641.36,0.01845
1635.58,0.01883
1629.79,0.01876
1624,0.01875
1618.22,0.01901
1612.43,0.01886
1606.64,0.01887
1600.86,0.01876
1595.07,0.01882
1589.29,0.01855
1583.5,0.01889
1577.71,0.01837
1571.93,0.01848
1566.14,0.01792
1560.35,0.01838
1554.57,0.01860
1548.78,0.01859
1543,0.01871
1537.21,0.01865
1531.42,0.01871
1525.64,0.01869
1519.85,0.01949
1514.06,0.01901
1508.28,0.01885
1502.49,0.01850
1496.71,0.01897
1490.92,0.01906
1485.13,0.01877
1479.35,0.01890
1473.56,0.01811
1467.77,0.01849
1461.99,0.01822
1456.2,0.01850
1450.42,0.01857
1444.63,0.01896
1438.84,0.01905
1433.06,0.01843
1427.27,0.01904
1421.48,0.01877
1415.7,0.01881
1409.91,0.01880
1404.13,0.01864
1398.34,0.01822
1392.55,0.01812
1386.77,0.01812
1380.98,0.01823
1375.19,0.01782
1369.41,0.01806
1363.62,0.01828
1357.84,0.01841
1352.05,0.01798
1346.26,0.01762
1340.48,0.01774
1334.69,0.01783
1328.9,0.01743
1323.12,0.01751
1317.33,0.01723
1311.55,0.01694
1305.76,0.01694
1299.97,0.01746
1294.19,0.01784
1288.4,0.01820
1282.62,0.01856
1276.83,0.01904
1271.04,0.01974
1265.26,0.01974
1259.47,0.02012
1253.68,0.02056
1247.9,0.02038
1242.11,0.01994
1236.33,0.01947
1230.54,0.01953
1224.75,0.01982
1218.97,0.01956
1213.18,0.01890
1207.39,0.01851
1201.61,0.01818
1195.82,0.01847
1190.04,0.01870
1184.25,0.01830
1178.46,0.01803
1172.68,0.01794
1166.89,0.01868
1161.1,0.01799
1155.32,0.01752
1149.53,0.01695
1143.75,0.01764
1137.96,0.01841
1132.17,0.01791
1126.39,0.01887
1120.6,0.01925
1114.81,0.01905
1109.03,0.01883
1103.24,0.01879
1097.46,0.01840
1091.67,0.01837
1085.88,0.01819
1080.1,0.01938
1074.31,0.01941
1068.52,0.01978
1062.74,0.01956
1056.95,0.01946
1051.17,0.01983
1045.38,0.01943
1039.59,0.01937
1033.81,0.01932
1028.02,0.01951
1022.23,0.01955
1016.45,0.01917
1010.66,0.01951
1004.88,0.02026
999.09,0.02075
993.303,0.02165
987.517,0.02137
981.731,0.02139
975.945,0.02109
970.158,0.02093
964.372,0.02064
958.586,0.01986
952.8,0.01969
947.014,0.02005
941.227,0.01983
935.441,0.01875
929.655,0.01943
923.869,0.01941
918.082,0.01985
912.296,0.02003
906.51,0.01979
900.724,0.01954
894.937,0.01881
889.151,0.01880
883.365,0.01933
877.579,0.01968
871.793,0.01877
866.006,0.01909
860.22,0.01920
854.434,0.01935
848.648,0.01910
842.861,0.01931
837.075,0.01874
831.289,0.01929
825.503,0.01915
819.716,0.01933
813.93,0.01843
808.144,0.01893
802.358,0.01877
796.571,0.01903
790.785,0.01871
784.999,0.01835
779.213,0.01837
773.427,0.01808
767.64,0.01805
761.854,0.01856
756.068,0.01840
750.282,0.01813
744.495,0.01894
738.709,0.01774
732.923,0.01874
727.137,0.01830
721.35,0.01793
715.564,0.01787
709.778,0.01791
703.992,0.01746
698.206,0.01785
692.419,0.01815
686.633,0.01915
680.847,0.01772
675.061,0.01679
669.274,0.01778
663.488,0.01670
657.702,0.01854
651.916,0.01723
646.129,0.01623
640.343,0.01635
634.557,0.01693
628.771,0.01689
622.984,0.01535
617.198,0.01698
611.412,0.01899
605.626,0.01508
599.84,0.01337