File: 01_Data/Polyester_Fabric/FTIR/IS/Polyester_Fabric_IS_S_221019_R1.dpt
7497.03,0.84268
7491.24,0.83947
7485.46,0.82866
7479.67,0.82409
7473.88,0.83160
7468.1,0.83480
7462.31,0.83617
7456.53,0.82822
7450.74,0.82583
7444.95,0.83231
7439.17,0.83105
7433.38,0.82986
7427.59,0.83656
7421.81,0.83231
7416.02,0.82935
7410.24,0.82621
7404.45,0.82315
7398.66,0.81951
7392.88,0.81475
7387.09,0.81277
7381.31,0.82666
7375.52,0.82920
7369.73,0.81863
7363.95,0.81936
7358.16,0.81893
7352.37,0.82339
7346.59,0.82847
7340.8,0.82304
7335.02,0.81608
7329.23,0.82123
7323.44,0.82556
7317.66,0.81872
7311.87,0.81243
7306.08,0.81875
7300.3,0.82112
7294.51,0.82282
7288.73,0.81766
7282.94,0.81528
7277.15,0.82371
7271.37,0.81420
7265.58,0.81871
7259.79,0.80996
7254.01,0.82037
7248.22,0.82510
7242.44,0.81967
7236.65,0.81519
7230.86,0.81053
7225.08,0.81420
7219.29,0.81548
7213.5,0.81193
7207.72,0.81230
7201.93,0.81190
7196.15,0.81548
7190.36,0.81590
7184.57,0.81568
7178.79,0.80468
7173,0.81212
7167.21,0.81858
7161.43,0.81844
7155.64,0.81362
7149.86,0.80381
7144.07,0.80470
7138.28,0.81085
7132.5,0.80580
7126.71,0.81039
7120.92,0.81716
7115.14,0.80409
7109.35,0.81356
7103.57,0.80600
7097.78,0.80346
7091.99,0.80897
7086.21,0.80342
7080.42,0.80900
7074.63,0.80368
7068.85,0.80436
7063.06,0.80799
7057.28,0.80881
7051.49,0.80378
7045.7,0.80190
7039.92,0.80026
7034.13,0.79350
7028.34,0.80464
7022.56,0.80864
7016.77,0.80192
7010.99,0.80802
7005.2,0.80307
6999.41,0.81273
6993.63,0.81139
6987.84,0.80186
6982.06,0.80683
6976.27,0.80692
6970.48,0.80661
6964.7,0.80580
6958.91,0.80124
6953.12,0.79914
6947.34,0.80328
6941.55,0.80550
6935.77,0.80961
6929.98,0.80932
6924.19,0.80947
6918.41,0.80494
6912.62,0.80234
6906.83,0.80960
6901.05,0.81569
6895.26,0.81307
6889.48,0.80996
6883.69,0.80538
6877.9,0.80305
6872.12,0.80882
6866.33,0.80615
6860.54,0.80425
6854.76,0.80620
6848.97,0.80345
6843.19,0.81432
6837.4,0.80966
6831.61,0.81016
6825.83,0.81140
6820.04,0.80665
6814.25,0.81132
6808.47,0.81460
6802.68,0.80672
6796.9,0.80974
6791.11,0.81050
6785.32,0.81160
6779.54,0.80710
6773.75,0.81055
6767.96,0.81058
6762.18,0.80768
6756.39,0.81204
6750.61,0.80964
6744.82,0.81476
6739.03,0.81252
6733.25,0.81504
6727.46,0.81061
6721.67,0.80883
6715.89,0.80811
6710.1,0.81451
6704.32,0.81374
6698.53,0.81135
6692.74,0.81361
6686.96,0.81147
6681.17,0.81479
6675.38,0.81548
6669.6,0.81078
6663.81,0.81567
6658.03,0.80983
6652.24,0.81210
6646.45,0.81081
6640.67,0.81005
6634.88,0.80979
6629.09,0.81206
6623.31,0.81600
6617.52,0.81770
6611.74,0.81551
6605.95,0.81256
6600.16,0.81461
6594.38,0.81602
6588.59,0.81428
6582.8,0.82002
6577.02,0.81544
6571.23,0.81777
6565.45,0.81740
6559.66,0.81974
6553.87,0.82032
6548.09,0.81485
6542.3,0.81493
6536.52,0.81696
6530.73,0.81906
6524.94,0.82193
6519.16,0.81246
6513.37,0.81549
6507.58,0.81613
6501.8,0.81663
6496.01,0.81602
6490.23,0.81408
6484.44,0.81749
6478.65,0.81667
6472.87,0.81329
6467.08,0.81835
6461.29,0.81821
6455.51,0.81547
6449.72,0.81406
6443.94,0.81406
6438.15,0.81372
6432.36,0.81199
6426.58,0.81580
6420.79,0.81887
6415,0.82130
6409.22,0.81596
6403.43,0.81690
6397.65,0.81855
6391.86,0.81757
6386.07,0.82289
6380.29,0.82123
6374.5,0.81751
6368.71,0.81908
6362.93,0.82005
6357.14,0.81569
6351.36,0.81886
6345.57,0.81644
6339.78,0.81869
6334,0.81247
6328.21,0.82090
6322.42,0.81856
6316.64,0.81572
6310.85,0.81919
6305.07,0.81861
6299.28,0.81138
6293.49,0.81286
6287.71,0.81513
6281.92,0.81697
6276.13,0.81583
6270.35,0.81486
6264.56,0.81486
6258.78,0.81555
6252.99,0.81339
6247.2,0.81141
6241.42,0.81514
6235.63,0.81668
6229.84,0.81312
6224.06,0.81584
6218.27,0.81451
6212.49,0.81013
6206.7,0.80916
6200.91,0.80599
6195.13,0.80090
6189.34,0.80114
6183.55,0.80638
6177.77,0.80426
6171.98,0.80557
6166.2,0.80544
6160.41,0.80414
6154.62,0.79974
6148.84,0.79733
6143.05,0.79300
6137.26,0.79622
6131.48,0.79537
6125.69,0.79259
6119.91,0.79257
6114.12,0.79017
6108.33,0.77896
6102.55,0.77511
6096.76,0.76436
6090.98,0.75896
6085.19,0.74987
6079.4,0.74482
6073.62,0.73747
6067.83,0.72952
6062.04,0.72275
6056.26,0.71262
6050.47,0.70199
6044.69,0.69984
6038.9,0.69175
6033.11,0.68421
6027.33,0.67949
6021.54,0.67683
6015.75,0.67738
6009.97,0.68134
6004.18,0.68956
5998.4,0.70063
5992.61,0.70787
5986.82,0.71142
5981.04,0.70905
5975.25,0.71198
5969.46,0.71809
5963.68,0.72264
5957.89,0.72516
5952.11,0.72776
5946.32,0.72910
5940.53,0.72628
5934.75,0.73282
5928.96,0.74002
5923.17,0.74613
5917.39,0.75154
5911.6,0.75834
5905.82,0.75890
5900.03,0.75899
5894.24,0.75966
5888.46,0.75537
5882.67,0.75444
5876.88,0.74894
5871.1,0.74539
5865.31,0.74402
5859.53,0.74467
5853.74,0.74496
5847.95,0.74789
5842.17,0.75144
5836.38,0.75151
5830.59,0.75238
5824.81,0.74805
5819.02,0.74905
5813.24,0.74344
5807.45,0.74797
5801.66,0.74870
5795.88,0.74871
5790.09,0.75177
5784.3,0.75103
5778.52,0.75424
5772.73,0.75136
5766.95,0.75782
5761.16,0.75906
5755.37,0.76124
5749.59,0.76500
5743.8,0.76397
5738.01,0.76804
5732.23,0.77171
5726.44,0.77162
5720.66,0.77594
5714.87,0.77268
5709.08,0.77543
5703.3,0.77319
5697.51,0.77542
5691.72,0.77574
5685.94,0.77745
5680.15,0.77504
5674.37,0.77763
5668.58,0.77742
5662.79,0.77615
5657.01,0.77989
5651.22,0.77818
5645.44,0.77949
5639.65,0.78310
5633.86,0.78234
5628.08,0.78360
5622.29,0.78544
5616.5,0.78690
5610.72,0.78588
5604.93,0.78604
5599.15,0.78847
5593.36,0.78603
5587.57,0.78263
5581.79,0.78221
5576,0.78211
5570.21,0.78119
5564.43,0.78093
5558.64,0.78225
5552.86,0.78055
5547.07,0.78014
5541.28,0.78025
5535.5,0.78087
5529.71,0.78124
5523.92,0.78166
5518.14,0.78315
5512.35,0.78349
5506.57,0.78516
5500.78,0.78320
5494.99,0.78216
5489.21,0.78111
5483.42,0.78222
5477.63,0.78265
5471.85,0.78245
5466.06,0.78118
5460.28,0.78335
5454.49,0.78613
5448.7,0.78613
5442.92,0.78992
5437.13,0.79056
5431.34,0.79472
5425.56,0.79545
5419.77,0.79662
5413.99,0.79540
5408.2,0.79442
5402.41,0.79336
5396.63,0.79331
5390.84,0.79460
5385.05,0.79430
5379.27,0.79346
5373.48,0.79581
5367.7,0.79387
5361.91,0.79395
5356.12,0.79473
5350.34,0.79100
5344.55,0.79346
5338.76,0.79274
5332.98,0.79442
5327.19,0.79690
5321.41,0.79648
5315.62,0.79500
5309.83,0.79460
5304.05,0.79457
5298.26,0.79231
5292.47,0.78971
5286.69,0.78876
5280.9,0.78676
5275.12,0.78534
5269.33,0.78256
5263.54,0.78017
5257.76,0.77905
5251.97,0.77701
5246.18,0.77328
5240.4,0.77370
5234.61,0.77588
5228.83,0.77772
5223.04,0.77576
5217.25,0.77537
5211.47,0.77717
5205.68,0.77741
5199.9,0.77958
5194.11,0.77828
5188.32,0.77851
5182.54,0.77848
5176.75,0.77643
5170.96,0.77633
5165.18,0.77519
5159.39,0.77194
5153.61,0.77134
5147.82,0.77061
5142.03,0.76806
5136.25,0.76560
5130.46,0.76468
5124.67,0.75892
5118.89,0.75798
5113.1,0.75941
5107.32,0.76537
5101.53,0.76853
5095.74,0.77404
5089.96,0.77756
5084.17,0.77855
5078.38,0.78051
5072.6,0.78068
5066.81,0.78247
5061.03,0.78319
5055.24,0.78273
5049.45,0.78239
5043.67,0.78313
5037.88,0.78391
5032.09,0.78329
5026.31,0.78314
5020.52,0.78316
5014.74,0.78372
5008.95,0.78209
5003.16,0.78376
4997.38,0.78366
4991.59,0.78507
4985.8,0.78447
4980.02,0.78502
4974.23,0.78401
4968.45,0.78431
4962.66,0.78203
4956.87,0.78098
4951.09,0.78072
4945.3,0.77981
4939.51,0.77716
4933.73,0.77597
4927.94,0.77474
4922.16,0.77271
4916.37,0.77289
4910.58,0.77219
4904.8,0.77128
4899.01,0.76957
4893.22,0.76672
4887.44,0.76841
4881.65,0.76776
4875.87,0.76697
4870.08,0.76621
4864.29,0.76457
4858.51,0.76668
4852.72,0.76445
4846.93,0.76094
4841.15,0.75898
4835.36,0.75562
4829.58,0.75108
4823.79,0.74789
4818,0.74573
4812.22,0.74335
4806.43,0.74041
4800.65,0.73722
4794.86,0.73639
4789.07,0.73712
4783.29,0.73939
4777.5,0.74157
4771.71,0.74290
4765.93,0.74268
4760.14,0.74079
4754.36,0.73678
4748.57,0.73033
4742.78,0.72359
4737,0.71726
4731.21,0.70777
4725.42,0.69712
4719.64,0.68803
4713.85,0.68551
4708.07,0.68300
4702.28,0.67204
4696.49,0.65878
4690.71,0.65098
4684.92,0.65416
4679.13,0.66663
4673.35,0.68197
4667.56,0.69084
4661.78,0.69502
4655.99,0.69483
4650.2,0.69086
4644.42,0.67893
4638.63,0.66908
4632.84,0.66821
4627.06,0.67906
4621.27,0.69773
4615.49,0.70973
4609.7,0.71476
4603.91,0.71467
4598.13,0.70870
4592.34,0.69990
4586.55,0.69611
4580.77,0.68924
4574.98,0.69524
4569.2,0.70888
4563.41,0.72054
4557.62,0.72506
4551.84,0.72524
4546.05,0.72517
4540.26,0.72483
4534.48,0.72379
4528.69,0.72195
4522.91,0.71895
4517.12,0.71476
4511.33,0.70856
4505.55,0.70012
4499.76,0.68708
4493.97,0.67317
4488.19,0.66122
4482.4,0.65645
4476.62,0.64863
4470.83,0.63668
4465.04,0.61611
4459.26,0.59831
4453.47,0.59534
4447.68,0.59726
4441.9,0.59293
4436.11,0.58777
4430.33,0.58623
4424.54,0.59448
4418.75,0.60380
4412.97,0.60928
4407.18,0.60917
4401.39,0.61229
4395.61,0.61778
4389.82,0.62327
4384.04,0.62626
4378.25,0.62790
4372.46,0.62809
4366.68,0.62687
4360.89,0.62384
4355.11,0.62380
4349.32,0.62206
4343.53,0.61888
4337.75,0.61482
4331.96,0.61466
4326.17,0.61532
4320.39,0.61545
4314.6,0.61241
4308.82,0.60685
4303.03,0.59963
4297.24,0.59412
4291.46,0.59189
4285.67,0.59326
4279.88,0.59641
4274.1,0.59849
4268.31,0.60174
4262.53,0.60447
4256.74,0.60505
4250.95,0.60399
4245.17,0.60169
4239.38,0.60306
4233.59,0.60425
4227.81,0.60412
4222.02,0.60577
4216.24,0.61072
4210.45,0.61472
4204.66,0.61553
4198.88,0.61838
4193.09,0.61771
4187.3,0.61426
4181.52,0.60613
4175.73,0.60235
4169.95,0.60995
4164.16,0.61868
4158.37,0.62337
4152.59,0.62579
4146.8,0.62517
4141.01,0.61968
4135.23,0.61212
4129.44,0.60881
4123.66,0.60780
4117.87,0.60479
4112.08,0.59819
4106.3,0.58886
4100.51,0.57343
4094.72,0.54750
4088.94,0.54051
4083.15,0.55493
4077.37,0.57516
4071.58,0.59253
4065.79,0.60146
4060.01,0.60786
4054.22,0.61221
4048.43,0.61631
4042.65,0.62099
4036.86,0.62685
4031.08,0.62905
4025.29,0.63056
4019.5,0.62992
4013.72,0.62955
4007.93,0.62981
4002.14,0.63132
3996.36,0.63298
3990.57,0.63513
3984.79,0.63747
3979,0.63730
3973.21,0.63766
3967.43,0.63875
3961.64,0.64225
3955.85,0.64546
3950.07,0.64875
3944.28,0.65087
3938.5,0.65146
3932.71,0.65198
3926.92,0.65207
3921.14,0.65346
3915.35,0.65417
3909.57,0.65661
3903.78,0.66115
3897.99,0.66504
3892.21,0.66960
3886.42,0.67290
3880.63,0.67489
3874.85,0.67666
3869.06,0.67989
3863.28,0.68099
3857.49,0.68227
3851.7,0.68366
3845.92,0.68250
3840.13,0.68318
3834.34,0.68248
3828.56,0.68244
3822.77,0.68186
3816.99,0.67705
3811.2,0.66968
3805.41,0.66852
3799.63,0.67048
3793.84,0.67524
3788.05,0.67737
3782.27,0.67666
3776.48,0.67445
3770.7,0.67037
3764.91,0.66585
3759.12,0.66134
3753.34,0.66675
3747.55,0.67869
3741.76,0.68143
3735.98,0.67700
3730.19,0.67214
3724.41,0.67957
3718.62,0.68386
3712.83,0.68276
3707.05,0.67457
3701.26,0.66109
3695.47,0.64528
3689.69,0.62103
3683.9,0.61185
3678.12,0.62769
3672.33,0.63659
3666.54,0.63202
3660.76,0.62192
3654.97,0.61072
3649.18,0.60088
3643.4,0.58974
3637.61,0.58006
3631.83,0.57332
3626.04,0.56753
3620.25,0.56072
3614.47,0.55550
3608.68,0.55041
3602.89,0.54398
3597.11,0.53543
3591.32,0.52401
3585.54,0.51236
3579.75,0.49767
3573.96,0.48429
3568.18,0.47151
3562.39,0.46002
3556.6,0.45119
3550.82,0.44657
3545.03,0.44345
3539.25,0.44203
3533.46,0.44280
3527.67,0.44429
3521.89,0.44636
3516.1,0.44804
3510.31,0.44897
3504.53,0.44937
3498.74,0.44851
3492.96,0.44630
3487.17,0.44389
3481.38,0.44069
3475.6,0.43430
3469.81,0.42594
3464.03,0.41576
3458.24,0.40398
3452.45,0.38995
3446.67,0.37447
3440.88,0.35848
3435.09,0.33992
3429.31,0.33310
3423.52,0.35426
3417.74,0.37865
3411.95,0.39650
3406.16,0.40936
3400.38,0.41949
3394.59,0.42432
3388.8,0.42706
3383.02,0.42845
3377.23,0.42808
3371.45,0.42747
3365.66,0.42522
3359.87,0.42108
3354.09,0.41585
3348.3,0.40973
3342.51,0.40401
3336.73,0.40084
3330.94,0.40279
3325.16,0.40861
3319.37,0.41268
3313.58,0.41318
3307.8,0.41135
3302.01,0.40980
3296.22,0.41131
3290.44,0.41456
3284.65,0.41869
3278.87,0.42212
3273.08,0.42381
3267.29,0.42521
3261.51,0.42638
3255.72,0.42852
3249.93,0.42916
3244.15,0.42906
3238.36,0.42940
3232.58,0.43106
3226.79,0.43277
3221,0.43677
3215.22,0.44001
3209.43,0.44180
3203.64,0.44109
3197.86,0.44208
3192.07,0.44145
3186.29,0.44289
3180.5,0.44368
3174.71,0.44452
3168.93,0.44534
3163.14,0.44442
3157.35,0.44345
3151.57,0.44198
3145.78,0.43979
3140,0.43470
3134.21,0.42801
3128.42,0.42297
3122.64,0.42429
3116.85,0.42171
3111.06,0.41151
3105.28,0.39899
3099.49,0.39884
3093.71,0.40638
3087.92,0.39861
3082.13,0.38635
3076.35,0.38459
3070.56,0.38014
3064.77,0.37966
3058.99,0.37282
3053.2,0.36769
3047.42,0.39723
3041.63,0.41946
3035.84,0.42105
3030.06,0.41154
3024.27,0.39162
3018.49,0.35907
3012.7,0.33744
3006.91,0.33412
3001.13,0.32921
2995.34,0.32154
2989.55,0.30685
2983.77,0.28400
2977.98,0.25318
2972.2,0.22502
2966.41,0.22604
2960.62,0.24058
2954.84,0.25695
2949.05,0.28132
2943.26,0.30682
2937.48,0.32216
2931.69,0.32424
2925.91,0.31595
2920.12,0.30268
2914.33,0.28285
2908.55,0.26420
2902.76,0.28699
2896.97,0.31453
2891.19,0.32395
2885.4,0.33189
2879.62,0.34171
2873.83,0.34859
2868.04,0.35360
2862.26,0.35688
2856.47,0.35865
2850.68,0.36946
2844.9,0.40170
2839.11,0.42898
2833.33,0.44694
2827.54,0.45963
2821.75,0.46721
2815.97,0.46683
2810.18,0.46597
2804.39,0.46689
2798.61,0.47442
2792.82,0.48496
2787.04,0.49397
2781.25,0.50064
2775.46,0.50623
2769.68,0.51055
2763.89,0.51241
2758.1,0.51349
2752.32,0.51295
2746.53,0.51193
2740.75,0.51523
2734.96,0.52297
2729.17,0.53088
2723.39,0.53713
2717.6,0.54114
2711.81,0.54532
2706.03,0.55027
2700.24,0.55514
2694.46,0.55837
2688.67,0.56015
2682.88,0.56001
2677.1,0.56102
2671.31,0.56309
2665.52,0.56409
2659.74,0.56258
2653.95,0.55934
2648.17,0.55519
2642.38,0.54710
2636.59,0.53501
2630.81,0.52955
2625.02,0.53216
2619.24,0.53433
2613.45,0.53402
2607.66,0.53281
2601.88,0.53001
2596.09,0.52435
2590.3,0.51842
2584.52,0.51450
2578.73,0.51431
2572.95,0.51574
2567.16,0.51471
2561.37,0.51350
2555.59,0.51227
2549.8,0.51144
2544.01,0.51025
2538.23,0.50941
2532.44,0.50971
2526.66,0.51359
2520.87,0.51885
2515.08,0.52338
2509.3,0.52552
2503.51,0.52673
2497.72,0.52873
2491.94,0.53357
2486.15,0.54115
2480.37,0.54830
2474.58,0.55443
2468.79,0.55803
2463.01,0.55955
2457.22,0.55890
2451.43,0.55788
2445.65,0.55414
2439.86,0.54701
2434.08,0.53795
2428.29,0.52802
2422.5,0.51853
2416.72,0.50861
2410.93,0.50031
2405.14,0.49314
2399.36,0.48706
2393.57,0.48313
2387.79,0.48201
2382,0.48431
2376.21,0.48840
2370.43,0.49433
2364.64,0.50437
2358.85,0.51720
2353.07,0.52749
2347.28,0.53491
2341.5,0.53991
2335.71,0.53995
2329.92,0.54349
2324.14,0.54773
2318.35,0.55172
2312.56,0.55150
2306.78,0.54441
2300.99,0.53067
2295.21,0.51454
2289.42,0.50194
2283.63,0.49717
2277.85,0.49867
2272.06,0.49648
2266.27,0.49270
2260.49,0.49024
2254.7,0.49160
2248.92,0.49694
2243.13,0.50491
2237.34,0.51146
2231.56,0.51627
2225.77,0.51885
2219.98,0.52065
2214.2,0.52248
2208.41,0.52564
2202.63,0.53278
2196.84,0.53650
2191.05,0.53618
2185.27,0.53194
2179.48,0.52476
2173.7,0.51479
2167.91,0.50310
2162.12,0.48838
2156.34,0.47370
2150.55,0.46065
2144.76,0.45081
2138.98,0.44339
2133.19,0.43596
2127.41,0.42532
2121.62,0.41373
2115.83,0.40685
2110.05,0.40496
2104.26,0.40646
2098.47,0.40845
2092.69,0.41253
2086.9,0.42048
2081.12,0.43153
2075.33,0.44417
2069.54,0.45777
2063.76,0.47289
2057.97,0.48815
2052.18,0.50007
2046.4,0.50709
2040.61,0.50949
2034.83,0.50769
2029.04,0.50089
2023.25,0.48899
2017.47,0.47682
2011.68,0.46541
2005.89,0.45350
2000.11,0.44003
1994.32,0.42672
1988.54,0.41349
1982.75,0.40089
1976.96,0.38609
1971.18,0.36561
1965.39,0.33598
1959.6,0.32052
1953.82,0.33368
1948.03,0.35092
1942.25,0.36984
1936.46,0.38877
1930.67,0.40567
1924.89,0.41837
1919.1,0.42904
1913.31,0.43758
1907.53,0.44465
1901.74,0.44940
1895.96,0.45244
1890.17,0.45335
1884.38,0.45232
1878.6,0.44860
1872.81,0.44072
1867.02,0.42873
1861.24,0.41376
1855.45,0.39349
1849.67,0.36798
1843.88,0.34359
1838.09,0.32339
1832.31,0.30787
1826.52,0.29782
1820.73,0.29488
1814.95,0.29265
1809.16,0.28880
1803.38,0.28547
1797.59,0.28108
1791.8,0.27414
1786.02,0.26332
1780.23,0.24922
1774.44,0.23219
1768.66,0.20941
1762.87,0.18163
1757.09,0.14504
1751.3,0.09929
1745.51,0.05360
1739.73,0.03415
1733.94,0.03327
1728.16,0.03722
1722.37,0.04215
1716.58,0.05166
1710.8,0.08115
1705.01,0.11810
1699.22,0.14989
1693.44,0.16934
1687.65,0.17563
1681.87,0.17858
1676.08,0.19768
1670.29,0.21365
1664.51,0.23421
1658.72,0.25003
1652.93,0.26054
1647.15,0.26675
1641.36,0.27351
1635.58,0.27970
1629.79,0.28228
1624,0.28168
1618.22,0.26939
1612.43,0.25900
1606.64,0.27563
1600.86,0.28987
1595.07,0.29295
1589.29,0.27786
1583.5,0.23808
1577.71,0.21078
1571.93,0.25206
1566.14,0.28177
1560.35,0.29014
1554.57,0.28899
1548.78,0.28459
1543,0.28080
1537.21,0.28138
1531.42,0.27183
1525.64,0.25927
1519.85,0.25627
1514.06,0.23261
1508.28,0.15162
1502.49,0.16330
1496.71,0.25533
1490.92,0.27141
1485.13,0.24295
1479.35,0.20296
1473.56,0.15824
1467.77,0.16045
1461.99,0.16087
1456.2,0.15018
1450.42,0.15072
1444.63,0.15585
1438.84,0.15969
1433.06,0.16876
1427.27,0.16725
1421.48,0.13468
1415.7,0.07558
1409.91,0.05909
1404.13,0.08918
1398.34,0.11495
1392.55,0.11682
1386.77,0.10712
1380.98,0.10609
1375.19,0.10176
1369.41,0.09637
1363.62,0.10112
1357.84,0.09370
1352.05,0.07145
1346.26,0.05682
1340.48,0.05805
1334.69,0.08673
1328.9,0.10904
1323.12,0.09116
1317.33,0.06757
1311.55,0.05074
1305.76,0.04056
1299.97,0.03660
1294.19,0.03719
1288.4,0.04158
1282.62,0.04865
1276.83,0.05585
1271.04,0.06053
1265.26,0.06339
1259.47,0.06489
1253.68,0.06580
1247.9,0.06266
1242.11,0.05836
1236.33,0.07144
1230.54,0.11147
1224.75,0.14658
1218.97,0.18079
1213.18,0.20550
1207.39,0.22379
1201.61,0.24647
1195.82,0.26227
1190.04,0.25934
1184.25,0.23388
1178.46,0.19902
1172.68,0.17916
1166.89,0.16605
1161.1,0.13666
1155.32,0.10343
1149.53,0.07304
1143.75,0.05247
1137.96,0.04691
1132.17,0.05434
1126.39,0.05781
1120.6,0.05820
1114.81,0.06041
1109.03,0.06093
1103.24,0.06317
1097.46,0.07254
1091.67,0.09325
1085.88,0.12542
1080.1,0.17462
1074.31,0.22751
1068.52,0.25791
1062.74,0.26907
1056.95,0.26106
1051.17,0.23745
1045.38,0.21731
1039.59,0.20805
1033.81,0.19256
1028.02,0.12715
1022.23,0.08623
1016.45,0.14085
1010.66,0.25932
1004.88,0.30995
999.09,0.31953
993.303,0.30522
987.517,0.27836
981.731,0.24845
975.945,0.19408
970.158,0.18985
964.372,0.24916
958.586,0.30289
952.8,0.33597
947.014,0.35257
941.227,0.35818
935.441,0.35944
929.655,0.35845
923.869,0.35487
918.082,0.34317
912.296,0.31839
906.51,0.28305
900.724,0.25943
894.937,0.25716
889.151,0.25384
883.365,0.22799
877.579,0.18816
871.793,0.17610
866.006,0.22710
860.22,0.21986
854.434,0.18927
848.648,0.17425
842.861,0.20532
837.075,0.24106
831.289,0.26448
825.503,0.27753
819.716,0.27939
813.93,0.27459
808.144,0.26671
802.358,0.25677
796.571,0.22948
790.785,0.22797
784.999,0.26284
779.213,0.27823
773.427,0.28568
767.64,0.28989
761.854,0.28768
756.068,0.27288
750.282,0.24312
744.495,0.18641
738.709,0.09947
732.923,0.05919
727.137,0.07652
721.35,0.16528
715.564,0.23651
709.778,0.24573
703.992,0.25564
698.206,0.28271
692.419,0.30095
686.633,0.29471
680.847,0.27780
675.061,0.28397
669.274,0.29090
663.488,0.29477
657.702,0.29003
651.916,0.29478
646.129,0.29896
640.343,0.29463
634.557,0.26931
628.771,0.27079
622.984,0.29068
617.198,0.28811
611.412,0.28886
605.626,0.28600
599.84,0.28254