File: 01_Data/Polyester_Fabric/FTIR/IS/Polyester_Fabric_IS_T_221019_R4.dpt
7497.03,0.02104
7491.24,0.02185
7485.46,0.02127
7479.67,0.02234
7473.88,0.01791
7468.1,0.02229
7462.31,0.02509
7456.53,0.03483
7450.74,0.03044
7444.95,0.02105
7439.17,0.01236
7433.38,0.01926
7427.59,0.01436
7421.81,0.02882
7416.02,0.02713
7410.24,0.02088
7404.45,0.02234
7398.66,0.02992
7392.88,0.02228
7387.09,0.01902
7381.31,0.02208
7375.52,0.01857
7369.73,0.03468
7363.95,0.02416
7358.16,0.02024
7352.37,0.02056
7346.59,0.02358
7340.8,0.01611
7335.02,0.01367
7329.23,0.02767
7323.44,0.02708
7317.66,0.02918
7311.87,0.03165
7306.08,0.02051
7300.3,0.02888
7294.51,0.02924
7288.73,0.02172
7282.94,0.02635
7277.15,0.02476
7271.37,0.02497
7265.58,0.02521
7259.79,0.01683
7254.01,0.02907
7248.22,0.02456
7242.44,0.02153
7236.65,0.02323
7230.86,0.02260
7225.08,0.01927
7219.29,0.01977
7213.5,0.02083
7207.72,0.02102
7201.93,0.02539
7196.15,0.01955
7190.36,0.01750
7184.57,0.02130
7178.79,0.02201
7173,0.02344
7167.21,0.02690
7161.43,0.02530
7155.64,0.02200
7149.86,0.02321
7144.07,0.02428
7138.28,0.02588
7132.5,0.01977
7126.71,0.02320
7120.92,0.03112
7115.14,0.02679
7109.35,0.02527
7103.57,0.02595
7097.78,0.01860
7091.99,0.02584
7086.21,0.02584
7080.42,0.02141
7074.63,0.02183
7068.85,0.01906
7063.06,0.02601
7057.28,0.02151
7051.49,0.02259
7045.7,0.02402
7039.92,0.02319
7034.13,0.02366
7028.34,0.02139
7022.56,0.02624
7016.77,0.02668
7010.99,0.02246
7005.2,0.01955
6999.41,0.02433
6993.63,0.02187
6987.84,0.02115
6982.06,0.03416
6976.27,0.02280
6970.48,0.02477
6964.7,0.02828
6958.91,0.02952
6953.12,0.02547
6947.34,0.01622
6941.55,0.02118
6935.77,0.02329
6929.98,0.01641
6924.19,0.02181
6918.41,0.01935
6912.62,0.02536
6906.83,0.02820
6901.05,0.02365
6895.26,0.02412
6889.48,0.02284
6883.69,0.02701
6877.9,0.02067
6872.12,0.02301
6866.33,0.01939
6860.54,0.02516
6854.76,0.02321
6848.97,0.02699
6843.19,0.02378
6837.4,0.01904
6831.61,0.02666
6825.83,0.01865
6820.04,0.02119
6814.25,0.02593
6808.47,0.02585
6802.68,0.02030
6796.9,0.02694
6791.11,0.02266
6785.32,0.02556
6779.54,0.02381
6773.75,0.02352
6767.96,0.02778
6762.18,0.02115
6756.39,0.02320
6750.61,0.01861
6744.82,0.02084
6739.03,0.02477
6733.25,0.02461
6727.46,0.02400
6721.67,0.02295
6715.89,0.03262
6710.1,0.02531
6704.32,0.02145
6698.53,0.02507
6692.74,0.02506
6686.96,0.01893
6681.17,0.01956
6675.38,0.01683
6669.6,0.02579
6663.81,0.02335
6658.03,0.02539
6652.24,0.02317
6646.45,0.02422
6640.67,0.02181
6634.88,0.01929
6629.09,0.02201
6623.31,0.01897
6617.52,0.02192
6611.74,0.02268
6605.95,0.01721
6600.16,0.02376
6594.38,0.02374
6588.59,0.02155
6582.8,0.01933
6577.02,0.02147
6571.23,0.02705
6565.45,0.02280
6559.66,0.02147
6553.87,0.02599
6548.09,0.01980
6542.3,0.02782
6536.52,0.02376
6530.73,0.02269
6524.94,0.02595
6519.16,0.02291
6513.37,0.02424
6507.58,0.01750
6501.8,0.02112
6496.01,0.02288
6490.23,0.01811
6484.44,0.02431
6478.65,0.02545
6472.87,0.01663
6467.08,0.02262
6461.29,0.02370
6455.51,0.02550
6449.72,0.02538
6443.94,0.02372
6438.15,0.02107
6432.36,0.02515
6426.58,0.02560
6420.79,0.02586
6415,0.02285
6409.22,0.02375
6403.43,0.02508
6397.65,0.01674
6391.86,0.02238
6386.07,0.02137
6380.29,0.01997
6374.5,0.02168
6368.71,0.01976
6362.93,0.02189
6357.14,0.02582
6351.36,0.02264
6345.57,0.02002
6339.78,0.02194
6334,0.02333
6328.21,0.02529
6322.42,0.02167
6316.64,0.02354
6310.85,0.01963
6305.07,0.02585
6299.28,0.02221
6293.49,0.02347
6287.71,0.02139
6281.92,0.02561
6276.13,0.02395
6270.35,0.02253
6264.56,0.02327
6258.78,0.02223
6252.99,0.02262
6247.2,0.02337
6241.42,0.02181
6235.63,0.02251
6229.84,0.02157
6224.06,0.02114
6218.27,0.02211
6212.49,0.01916
6206.7,0.02429
6200.91,0.02342
6195.13,0.02577
6189.34,0.02180
6183.55,0.02195
6177.77,0.02383
6171.98,0.02099
6166.2,0.02090
6160.41,0.02216
6154.62,0.02020
6148.84,0.02149
6143.05,0.02193
6137.26,0.02324
6131.48,0.02367
6125.69,0.02262
6119.91,0.02455
6114.12,0.02194
6108.33,0.02230
6102.55,0.02497
6096.76,0.02600
6090.98,0.02264
6085.19,0.02562
6079.4,0.02104
6073.62,0.02161
6067.83,0.02076
6062.04,0.02106
6056.26,0.02263
6050.47,0.01921
6044.69,0.02011
6038.9,0.02115
6033.11,0.02205
6027.33,0.02089
6021.54,0.01945
6015.75,0.02141
6009.97,0.02113
6004.18,0.01973
5998.4,0.02104
5992.61,0.02085
5986.82,0.02012
5981.04,0.02150
5975.25,0.02198
5969.46,0.02259
5963.68,0.02101
5957.89,0.02187
5952.11,0.02490
5946.32,0.02100
5940.53,0.01883
5934.75,0.01979
5928.96,0.02475
5923.17,0.02350
5917.39,0.02296
5911.6,0.02254
5905.82,0.02290
5900.03,0.02131
5894.24,0.02167
5888.46,0.02037
5882.67,0.02180
5876.88,0.02160
5871.1,0.02170
5865.31,0.01914
5859.53,0.02183
5853.74,0.02142
5847.95,0.02181
5842.17,0.02164
5836.38,0.01912
5830.59,0.02150
5824.81,0.02043
5819.02,0.02113
5813.24,0.02054
5807.45,0.01967
5801.66,0.02255
5795.88,0.02207
5790.09,0.02085
5784.3,0.02284
5778.52,0.02231
5772.73,0.02228
5766.95,0.02162
5761.16,0.02188
5755.37,0.02357
5749.59,0.02054
5743.8,0.02199
5738.01,0.02091
5732.23,0.02421
5726.44,0.02100
5720.66,0.02133
5714.87,0.02240
5709.08,0.02079
5703.3,0.02206
5697.51,0.02311
5691.72,0.01980
5685.94,0.02288
5680.15,0.02254
5674.37,0.02318
5668.58,0.02240
5662.79,0.02402
5657.01,0.02275
5651.22,0.02176
5645.44,0.02061
5639.65,0.02344
5633.86,0.02173
5628.08,0.02245
5622.29,0.02145
5616.5,0.02011
5610.72,0.02041
5604.93,0.01983
5599.15,0.02057
5593.36,0.02300
5587.57,0.02392
5581.79,0.02237
5576,0.02254
5570.21,0.01959
5564.43,0.02180
5558.64,0.02041
5552.86,0.02171
5547.07,0.02163
5541.28,0.02235
5535.5,0.02275
5529.71,0.02035
5523.92,0.02250
5518.14,0.01930
5512.35,0.02111
5506.57,0.02180
5500.78,0.01996
5494.99,0.02210
5489.21,0.02265
5483.42,0.02203
5477.63,0.02228
5471.85,0.02154
5466.06,0.02088
5460.28,0.02229
5454.49,0.02344
5448.7,0.02315
5442.92,0.02161
5437.13,0.02100
5431.34,0.02267
5425.56,0.02024
5419.77,0.02208
5413.99,0.02241
5408.2,0.02082
5402.41,0.02152
5396.63,0.02284
5390.84,0.02319
5385.05,0.02174
5379.27,0.02246
5373.48,0.02130
5367.7,0.02286
5361.91,0.02339
5356.12,0.02445
5350.34,0.02221
5344.55,0.02283
5338.76,0.02231
5332.98,0.02139
5327.19,0.02187
5321.41,0.02078
5315.62,0.02204
5309.83,0.02117
5304.05,0.02145
5298.26,0.02251
5292.47,0.02231
5286.69,0.01997
5280.9,0.02054
5275.12,0.02137
5269.33,0.01904
5263.54,0.02310
5257.76,0.02244
5251.97,0.02089
5246.18,0.02143
5240.4,0.02073
5234.61,0.02045
5228.83,0.01992
5223.04,0.02173
5217.25,0.02279
5211.47,0.02239
5205.68,0.02128
5199.9,0.02175
5194.11,0.02276
5188.32,0.02385
5182.54,0.02229
5176.75,0.02128
5170.96,0.02104
5165.18,0.02303
5159.39,0.02064
5153.61,0.02219
5147.82,0.02101
5142.03,0.02166
5136.25,0.02063
5130.46,0.02292
5124.67,0.02277
5118.89,0.02286
5113.1,0.02325
5107.32,0.02236
5101.53,0.02157
5095.74,0.02276
5089.96,0.02112
5084.17,0.02249
5078.38,0.02316
5072.6,0.02258
5066.81,0.02264
5061.03,0.02195
5055.24,0.02079
5049.45,0.02083
5043.67,0.02131
5037.88,0.02251
5032.09,0.02242
5026.31,0.02207
5020.52,0.02228
5014.74,0.02280
5008.95,0.02288
5003.16,0.02171
4997.38,0.02166
4991.59,0.02214
4985.8,0.02206
4980.02,0.02254
4974.23,0.02262
4968.45,0.02206
4962.66,0.02261
4956.87,0.02211
4951.09,0.02304
4945.3,0.02241
4939.51,0.02218
4933.73,0.02282
4927.94,0.02307
4922.16,0.02274
4916.37,0.02210
4910.58,0.02178
4904.8,0.02185
4899.01,0.02236
4893.22,0.02252
4887.44,0.02183
4881.65,0.02156
4875.87,0.02272
4870.08,0.02160
4864.29,0.02211
4858.51,0.02222
4852.72,0.02305
4846.93,0.02168
4841.15,0.02188
4835.36,0.02120
4829.58,0.02173
4823.79,0.02247
4818,0.02339
4812.22,0.02285
4806.43,0.02341
4800.65,0.02281
4794.86,0.02229
4789.07,0.02279
4783.29,0.02303
4777.5,0.02232
4771.71,0.02097
4765.93,0.02266
4760.14,0.02212
4754.36,0.02198
4748.57,0.02215
4742.78,0.02160
4737,0.02194
4731.21,0.02255
4725.42,0.02206
4719.64,0.02194
4713.85,0.02202
4708.07,0.02261
4702.28,0.02223
4696.49,0.02166
4690.71,0.02162
4684.92,0.02238
4679.13,0.02246
4673.35,0.02232
4667.56,0.02257
4661.78,0.02303
4655.99,0.02242
4650.2,0.02277
4644.42,0.02375
4638.63,0.02199
4632.84,0.02303
4627.06,0.02273
4621.27,0.02289
4615.49,0.02288
4609.7,0.02300
4603.91,0.02148
4598.13,0.02278
4592.34,0.02281
4586.55,0.02254
4580.77,0.02278
4574.98,0.02198
4569.2,0.02265
4563.41,0.02300
4557.62,0.02297
4551.84,0.02308
4546.05,0.02268
4540.26,0.02234
4534.48,0.02162
4528.69,0.02234
4522.91,0.02283
4517.12,0.02275
4511.33,0.02239
4505.55,0.02288
4499.76,0.02267
4493.97,0.02326
4488.19,0.02353
4482.4,0.02306
4476.62,0.02238
4470.83,0.02144
4465.04,0.02194
4459.26,0.02176
4453.47,0.02248
4447.68,0.02295
4441.9,0.02151
4436.11,0.02257
4430.33,0.02258
4424.54,0.02253
4418.75,0.02277
4412.97,0.02283
4407.18,0.02225
4401.39,0.02297
4395.61,0.02294
4389.82,0.02182
4384.04,0.02231
4378.25,0.02317
4372.46,0.02285
4366.68,0.02221
4360.89,0.02221
4355.11,0.02301
4349.32,0.02260
4343.53,0.02333
4337.75,0.02330
4331.96,0.02346
4326.17,0.02257
4320.39,0.02249
4314.6,0.02245
4308.82,0.02235
4303.03,0.02263
4297.24,0.02263
4291.46,0.02360
4285.67,0.02309
4279.88,0.02280
4274.1,0.02163
4268.31,0.02204
4262.53,0.02317
4256.74,0.02319
4250.95,0.02217
4245.17,0.02206
4239.38,0.02257
4233.59,0.02241
4227.81,0.02265
4222.02,0.02256
4216.24,0.02317
4210.45,0.02293
4204.66,0.02348
4198.88,0.02309
4193.09,0.02304
4187.3,0.02281
4181.52,0.02287
4175.73,0.02254
4169.95,0.02240
4164.16,0.02361
4158.37,0.02299
4152.59,0.02281
4146.8,0.02280
4141.01,0.02276
4135.23,0.02275
4129.44,0.02326
4123.66,0.02243
4117.87,0.02320
4112.08,0.02342
4106.3,0.02344
4100.51,0.02316
4094.72,0.02251
4088.94,0.02268
4083.15,0.02320
4077.37,0.02257
4071.58,0.02232
4065.79,0.02284
4060.01,0.02311
4054.22,0.02235
4048.43,0.02306
4042.65,0.02329
4036.86,0.02358
4031.08,0.02316
4025.29,0.02233
4019.5,0.02241
4013.72,0.02252
4007.93,0.02289
4002.14,0.02267
3996.36,0.02361
3990.57,0.02297
3984.79,0.02275
3979,0.02299
3973.21,0.02274
3967.43,0.02239
3961.64,0.02286
3955.85,0.02290
3950.07,0.02323
3944.28,0.02250
3938.5,0.02332
3932.71,0.02323
3926.92,0.02311
3921.14,0.02239
3915.35,0.02312
3909.57,0.02292
3903.78,0.02300
3897.99,0.02265
3892.21,0.02296
3886.42,0.02285
3880.63,0.02247
3874.85,0.02366
3869.06,0.02337
3863.28,0.02274
3857.49,0.02273
3851.7,0.02331
3845.92,0.02369
3840.13,0.02341
3834.34,0.02340
3828.56,0.02339
3822.77,0.02377
3816.99,0.02355
3811.2,0.02322
3805.41,0.02332
3799.63,0.02351
3793.84,0.02307
3788.05,0.02295
3782.27,0.02319
3776.48,0.02297
3770.7,0.02310
3764.91,0.02329
3759.12,0.02297
3753.34,0.02295
3747.55,0.02273
3741.76,0.02335
3735.98,0.02318
3730.19,0.02223
3724.41,0.02311
3718.62,0.02275
3712.83,0.02259
3707.05,0.02266
3701.26,0.02271
3695.47,0.02314
3689.69,0.02265
3683.9,0.02311
3678.12,0.02231
3672.33,0.02239
3666.54,0.02211
3660.76,0.02233
3654.97,0.02271
3649.18,0.02298
3643.4,0.02237
3637.61,0.02179
3631.83,0.02282
3626.04,0.02229
3620.25,0.02195
3614.47,0.02207
3608.68,0.02233
3602.89,0.02268
3597.11,0.02189
3591.32,0.02206
3585.54,0.02220
3579.75,0.02199
3573.96,0.02163
3568.18,0.02142
3562.39,0.02133
3556.6,0.02138
3550.82,0.02159
3545.03,0.02111
3539.25,0.02103
3533.46,0.02143
3527.67,0.02185
3521.89,0.02110
3516.1,0.02076
3510.31,0.02127
3504.53,0.02149
3498.74,0.02145
3492.96,0.02104
3487.17,0.02115
3481.38,0.02081
3475.6,0.02129
3469.81,0.02105
3464.03,0.02201
3458.24,0.02119
3452.45,0.02113
3446.67,0.02089
3440.88,0.02054
3435.09,0.02042
3429.31,0.02088
3423.52,0.02074
3417.74,0.02071
3411.95,0.02089
3406.16,0.02139
3400.38,0.02035
3394.59,0.02025
3388.8,0.02090
3383.02,0.01995
3377.23,0.02066
3371.45,0.02091
3365.66,0.01989
3359.87,0.02114
3354.09,0.02022
3348.3,0.01992
3342.51,0.02066
3336.73,0.02045
3330.94,0.02036
3325.16,0.02051
3319.37,0.02004
3313.58,0.02099
3307.8,0.02020
3302.01,0.02047
3296.22,0.02034
3290.44,0.02064
3284.65,0.02057
3278.87,0.02081
3273.08,0.02041
3267.29,0.02058
3261.51,0.02060
3255.72,0.02135
3249.93,0.02086
3244.15,0.02135
3238.36,0.02065
3232.58,0.02146
3226.79,0.02117
3221,0.02126
3215.22,0.02114
3209.43,0.02132
3203.64,0.02137
3197.86,0.02023
3192.07,0.02117
3186.29,0.02077
3180.5,0.02100
3174.71,0.02210
3168.93,0.02172
3163.14,0.02156
3157.35,0.02115
3151.57,0.02162
3145.78,0.02171
3140,0.02146
3134.21,0.02196
3128.42,0.02145
3122.64,0.02065
3116.85,0.02103
3111.06,0.02153
3105.28,0.02072
3099.49,0.02118
3093.71,0.02075
3087.92,0.02093
3082.13,0.02064
3076.35,0.02115
3070.56,0.02082
3064.77,0.02130
3058.99,0.02121
3053.2,0.02102
3047.42,0.02111
3041.63,0.02076
3035.84,0.02094
3030.06,0.02081
3024.27,0.02148
3018.49,0.02084
3012.7,0.02076
3006.91,0.02143
3001.13,0.02045
2995.34,0.02055
2989.55,0.02012
2983.77,0.02095
2977.98,0.02013
2972.2,0.02028
2966.41,0.02007
2960.62,0.02031
2954.84,0.02041
2949.05,0.02031
2943.26,0.01973
2937.48,0.01957
2931.69,0.01983
2925.91,0.02018
2920.12,0.02033
2914.33,0.02074
2908.55,0.02036
2902.76,0.02132
2896.97,0.02139
2891.19,0.02104
2885.4,0.02026
2879.62,0.02054
2873.83,0.02082
2868.04,0.02081
2862.26,0.02101
2856.47,0.02130
2850.68,0.02103
2844.9,0.02126
2839.11,0.02175
2833.33,0.02147
2827.54,0.02206
2821.75,0.02151
2815.97,0.02189
2810.18,0.02138
2804.39,0.02166
2798.61,0.02187
2792.82,0.02197
2787.04,0.02209
2781.25,0.02210
2775.46,0.02200
2769.68,0.02184
2763.89,0.02185
2758.1,0.02175
2752.32,0.02171
2746.53,0.02202
2740.75,0.02157
2734.96,0.02147
2729.17,0.02182
2723.39,0.02166
2717.6,0.02160
2711.81,0.02156
2706.03,0.02177
2700.24,0.02213
2694.46,0.02162
2688.67,0.02177
2682.88,0.02201
2677.1,0.02208
2671.31,0.02211
2665.52,0.02188
2659.74,0.02163
2653.95,0.02102
2648.17,0.02123
2642.38,0.02176
2636.59,0.02179
2630.81,0.02150
2625.02,0.02190
2619.24,0.02188
2613.45,0.02185
2607.66,0.02159
2601.88,0.02188
2596.09,0.02150
2590.3,0.02169
2584.52,0.02137
2578.73,0.02160
2572.95,0.02162
2567.16,0.02227
2561.37,0.02185
2555.59,0.02150
2549.8,0.02158
2544.01,0.02233
2538.23,0.02201
2532.44,0.02167
2526.66,0.02176
2520.87,0.02200
2515.08,0.02153
2509.3,0.02136
2503.51,0.02177
2497.72,0.02180
2491.94,0.02173
2486.15,0.02205
2480.37,0.02164
2474.58,0.02182
2468.79,0.02159
2463.01,0.02181
2457.22,0.02165
2451.43,0.02169
2445.65,0.02187
2439.86,0.02199
2434.08,0.02168
2428.29,0.02176
2422.5,0.02134
2416.72,0.02220
2410.93,0.02249
2405.14,0.02220
2399.36,0.02209
2393.57,0.02179
2387.79,0.02165
2382,0.02142
2376.21,0.02148
2370.43,0.02216
2364.64,0.02212
2358.85,0.02155
2353.07,0.02175
2347.28,0.02195
2341.5,0.02219
2335.71,0.02179
2329.92,0.02210
2324.14,0.02158
2318.35,0.02156
2312.56,0.02169
2306.78,0.02144
2300.99,0.02129
2295.21,0.02182
2289.42,0.02205
2283.63,0.02157
2277.85,0.02181
2272.06,0.02187
2266.27,0.02130
2260.49,0.02162
2254.7,0.02140
2248.92,0.02180
2243.13,0.02173
2237.34,0.02184
2231.56,0.02154
2225.77,0.02149
2219.98,0.02163
2214.2,0.02167
2208.41,0.02155
2202.63,0.02152
2196.84,0.02162
2191.05,0.02160
2185.27,0.02163
2179.48,0.02131
2173.7,0.02145
2167.91,0.02123
2162.12,0.02136
2156.34,0.02135
2150.55,0.02179
2144.76,0.02191
2138.98,0.02171
2133.19,0.02137
2127.41,0.02166
2121.62,0.02131
2115.83,0.02165
2110.05,0.02168
2104.26,0.02144
2098.47,0.02145
2092.69,0.02139
2086.9,0.02129
2081.12,0.02142
2075.33,0.02116
2069.54,0.02141
2063.76,0.02110
2057.97,0.02147
2052.18,0.02173
2046.4,0.02138
2040.61,0.02158
2034.83,0.02160
2029.04,0.02159
2023.25,0.02158
2017.47,0.02123
2011.68,0.02135
2005.89,0.02147
2000.11,0.02130
1994.32,0.02164
1988.54,0.02131
1982.75,0.02113
1976.96,0.02148
1971.18,0.02141
1965.39,0.02128
1959.6,0.02137
1953.82,0.02129
1948.03,0.02133
1942.25,0.02131
1936.46,0.02135
1930.67,0.02151
1924.89,0.02136
1919.1,0.02150
1913.31,0.02138
1907.53,0.02153
1901.74,0.02121
1895.96,0.02097
1890.17,0.02088
1884.38,0.02092
1878.6,0.02113
1872.81,0.02139
1867.02,0.02088
1861.24,0.02110
1855.45,0.02131
1849.67,0.02074
1843.88,0.02077
1838.09,0.02065
1832.31,0.02076
1826.52,0.02085
1820.73,0.02051
1814.95,0.02052
1809.16,0.02056
1803.38,0.01992
1797.59,0.02023
1791.8,0.01992
1786.02,0.01995
1780.23,0.01974
1774.44,0.01963
1768.66,0.01901
1762.87,0.01852
1757.09,0.01811
1751.3,0.01791
1745.51,0.01848
1739.73,0.01897
1733.94,0.02005
1728.16,0.02064
1722.37,0.02124
1716.58,0.02137
1710.8,0.02107
1705.01,0.02044
1699.22,0.01985
1693.44,0.01962
1687.65,0.01946
1681.87,0.01908
1676.08,0.01892
1670.29,0.01886
1664.51,0.01874
1658.72,0.01877
1652.93,0.01897
1647.15,0.01880
1641.36,0.01879
1635.58,0.01872
1629.79,0.01894
1624,0.01892
1618.22,0.01922
1612.43,0.01900
1606.64,0.01897
1600.86,0.01888
1595.07,0.01901
1589.29,0.01866
1583.5,0.01890
1577.71,0.01923
1571.93,0.01883
1566.14,0.01818
1560.35,0.01860
1554.57,0.01829
1548.78,0.01856
1543,0.01843
1537.21,0.01891
1531.42,0.01861
1525.64,0.01885
1519.85,0.01902
1514.06,0.01877
1508.28,0.01920
1502.49,0.01914
1496.71,0.01920
1490.92,0.01918
1485.13,0.01900
1479.35,0.01870
1473.56,0.01865
1467.77,0.01848
1461.99,0.01908
1456.2,0.01894
1450.42,0.01909
1444.63,0.01921
1438.84,0.01897
1433.06,0.01928
1427.27,0.01897
1421.48,0.01871
1415.7,0.01850
1409.91,0.01835
1404.13,0.01858
1398.34,0.01849
1392.55,0.01851
1386.77,0.01855
1380.98,0.01818
1375.19,0.01822
1369.41,0.01835
1363.62,0.01876
1357.84,0.01848
1352.05,0.01813
1346.26,0.01837
1340.48,0.01816
1334.69,0.01796
1328.9,0.01755
1323.12,0.01768
1317.33,0.01725
1311.55,0.01742
1305.76,0.01731
1299.97,0.01765
1294.19,0.01805
1288.4,0.01877
1282.62,0.01932
1276.83,0.01912
1271.04,0.01947
1265.26,0.02015
1259.47,0.02027
1253.68,0.02026
1247.9,0.02027
1242.11,0.02033
1236.33,0.01973
1230.54,0.01991
1224.75,0.01927
1218.97,0.01936
1213.18,0.01931
1207.39,0.01911
1201.61,0.01866
1195.82,0.01838
1190.04,0.01869
1184.25,0.01829
1178.46,0.01800
1172.68,0.01840
1166.89,0.01845
1161.1,0.01765
1155.32,0.01763
1149.53,0.01739
1143.75,0.01741
1137.96,0.01793
1132.17,0.01812
1126.39,0.01827
1120.6,0.01932
1114.81,0.01914
1109.03,0.01909
1103.24,0.01845
1097.46,0.01842
1091.67,0.01871
1085.88,0.01811
1080.1,0.01920
1074.31,0.01972
1068.52,0.01954
1062.74,0.01984
1056.95,0.01976
1051.17,0.01896
1045.38,0.01928
1039.59,0.01940
1033.81,0.01908
1028.02,0.01893
1022.23,0.01949
1016.45,0.01969
1010.66,0.02016
1004.88,0.02105
999.09,0.02124
993.303,0.02087
987.517,0.02080
981.731,0.02128
975.945,0.02083
970.158,0.02035
964.372,0.02097
958.586,0.02028
952.8,0.02011
947.014,0.02023
941.227,0.02037
935.441,0.01984
929.655,0.01902
923.869,0.01957
918.082,0.01989
912.296,0.01951
906.51,0.01899
900.724,0.01918
894.937,0.01945
889.151,0.01870
883.365,0.01885
877.579,0.01926
871.793,0.01936
866.006,0.01890
860.22,0.01876
854.434,0.01876
848.648,0.01823
842.861,0.01912
837.075,0.01959
831.289,0.01833
825.503,0.01867
819.716,0.01889
813.93,0.01914
808.144,0.01892
802.358,0.01931
796.571,0.01975
790.785,0.01924
784.999,0.01903
779.213,0.01908
773.427,0.01814
767.64,0.01828
761.854,0.01798
756.068,0.01780
750.282,0.01832
744.495,0.01861
738.709,0.01889
732.923,0.01950
727.137,0.01837
721.35,0.01846
715.564,0.01754
709.778,0.01779
703.992,0.01764
698.206,0.01724
692.419,0.01872
686.633,0.01885
680.847,0.01762
675.061,0.01828
669.274,0.01664
663.488,0.01821
657.702,0.01750
651.916,0.01637
646.129,0.01755
640.343,0.01716
634.557,0.01657
628.771,0.01557
622.984,0.01407
617.198,0.01572
611.412,0.01806
605.626,0.01808
599.84,0.01796