File: 01_Data/Polyester_Fabric/FTIR/IS/Polyester_Fabric_IS_S_221019_R4.dpt
7497.03,0.84490
7491.24,0.84049
7485.46,0.83912
7479.67,0.83876
7473.88,0.83530
7468.1,0.83744
7462.31,0.83591
7456.53,0.83114
7450.74,0.83317
7444.95,0.82667
7439.17,0.84020
7433.38,0.83457
7427.59,0.83460
7421.81,0.83653
7416.02,0.83027
7410.24,0.82259
7404.45,0.81819
7398.66,0.82869
7392.88,0.82362
7387.09,0.82974
7381.31,0.82099
7375.52,0.81798
7369.73,0.81573
7363.95,0.81972
7358.16,0.81824
7352.37,0.82950
7346.59,0.81473
7340.8,0.82794
7335.02,0.82054
7329.23,0.81758
7323.44,0.81476
7317.66,0.81095
7311.87,0.81145
7306.08,0.82540
7300.3,0.82180
7294.51,0.82431
7288.73,0.82355
7282.94,0.81789
7277.15,0.82221
7271.37,0.81601
7265.58,0.81573
7259.79,0.81634
7254.01,0.82065
7248.22,0.80837
7242.44,0.82278
7236.65,0.82305
7230.86,0.81851
7225.08,0.81958
7219.29,0.82176
7213.5,0.80688
7207.72,0.81627
7201.93,0.81961
7196.15,0.81514
7190.36,0.81248
7184.57,0.81219
7178.79,0.81938
7173,0.80869
7167.21,0.81467
7161.43,0.81119
7155.64,0.81493
7149.86,0.81431
7144.07,0.81802
7138.28,0.81982
7132.5,0.81142
7126.71,0.80855
7120.92,0.80650
7115.14,0.79918
7109.35,0.80743
7103.57,0.81795
7097.78,0.81260
7091.99,0.81148
7086.21,0.80476
7080.42,0.80396
7074.63,0.80933
7068.85,0.80519
7063.06,0.80836
7057.28,0.80193
7051.49,0.80673
7045.7,0.80522
7039.92,0.79997
7034.13,0.80532
7028.34,0.80443
7022.56,0.80752
7016.77,0.80887
7010.99,0.80975
7005.2,0.81027
6999.41,0.81321
6993.63,0.80373
6987.84,0.80332
6982.06,0.80130
6976.27,0.80896
6970.48,0.80429
6964.7,0.80046
6958.91,0.81039
6953.12,0.80632
6947.34,0.80768
6941.55,0.81087
6935.77,0.80706
6929.98,0.80253
6924.19,0.80635
6918.41,0.80977
6912.62,0.80621
6906.83,0.80448
6901.05,0.80806
6895.26,0.80927
6889.48,0.80643
6883.69,0.81152
6877.9,0.80547
6872.12,0.80862
6866.33,0.80513
6860.54,0.80632
6854.76,0.81275
6848.97,0.81477
6843.19,0.81295
6837.4,0.80912
6831.61,0.81027
6825.83,0.81099
6820.04,0.81577
6814.25,0.80889
6808.47,0.81219
6802.68,0.81475
6796.9,0.80569
6791.11,0.81030
6785.32,0.80604
6779.54,0.81093
6773.75,0.81944
6767.96,0.81519
6762.18,0.81567
6756.39,0.81172
6750.61,0.81036
6744.82,0.81280
6739.03,0.80977
6733.25,0.80693
6727.46,0.81613
6721.67,0.81374
6715.89,0.80776
6710.1,0.81051
6704.32,0.81786
6698.53,0.81462
6692.74,0.81038
6686.96,0.81584
6681.17,0.81894
6675.38,0.81608
6669.6,0.81440
6663.81,0.80980
6658.03,0.81214
6652.24,0.81082
6646.45,0.81338
6640.67,0.81530
6634.88,0.80796
6629.09,0.81316
6623.31,0.81754
6617.52,0.81608
6611.74,0.81520
6605.95,0.81963
6600.16,0.81403
6594.38,0.81282
6588.59,0.81800
6582.8,0.81937
6577.02,0.81601
6571.23,0.81369
6565.45,0.81454
6559.66,0.81860
6553.87,0.82169
6548.09,0.81896
6542.3,0.81464
6536.52,0.81888
6530.73,0.81889
6524.94,0.81638
6519.16,0.82091
6513.37,0.82000
6507.58,0.81659
6501.8,0.81829
6496.01,0.81848
6490.23,0.81842
6484.44,0.81700
6478.65,0.81653
6472.87,0.81887
6467.08,0.81790
6461.29,0.81493
6455.51,0.82040
6449.72,0.81446
6443.94,0.81961
6438.15,0.81799
6432.36,0.81904
6426.58,0.81698
6420.79,0.82115
6415,0.82062
6409.22,0.82093
6403.43,0.81998
6397.65,0.81988
6391.86,0.81862
6386.07,0.81967
6380.29,0.81737
6374.5,0.81442
6368.71,0.81518
6362.93,0.81799
6357.14,0.82022
6351.36,0.81660
6345.57,0.81779
6339.78,0.81714
6334,0.81631
6328.21,0.81969
6322.42,0.81830
6316.64,0.81832
6310.85,0.81644
6305.07,0.81699
6299.28,0.81836
6293.49,0.81701
6287.71,0.81942
6281.92,0.82319
6276.13,0.82160
6270.35,0.81807
6264.56,0.81673
6258.78,0.81654
6252.99,0.81967
6247.2,0.82041
6241.42,0.82071
6235.63,0.81812
6229.84,0.81501
6224.06,0.81296
6218.27,0.81279
6212.49,0.81160
6206.7,0.81111
6200.91,0.80489
6195.13,0.80153
6189.34,0.80324
6183.55,0.80867
6177.77,0.80919
6171.98,0.80874
6166.2,0.80619
6160.41,0.80055
6154.62,0.79943
6148.84,0.79556
6143.05,0.79720
6137.26,0.79315
6131.48,0.79241
6125.69,0.79582
6119.91,0.79409
6114.12,0.79165
6108.33,0.78226
6102.55,0.77336
6096.76,0.76433
6090.98,0.75941
6085.19,0.75238
6079.4,0.74196
6073.62,0.73688
6067.83,0.72934
6062.04,0.71907
6056.26,0.71170
6050.47,0.70420
6044.69,0.69743
6038.9,0.69054
6033.11,0.68583
6027.33,0.68086
6021.54,0.67500
6015.75,0.67697
6009.97,0.68284
6004.18,0.69144
5998.4,0.70024
5992.61,0.70900
5986.82,0.71192
5981.04,0.71093
5975.25,0.71433
5969.46,0.71936
5963.68,0.72343
5957.89,0.72637
5952.11,0.72972
5946.32,0.72920
5940.53,0.72996
5934.75,0.73483
5928.96,0.74205
5923.17,0.74536
5917.39,0.75332
5911.6,0.75453
5905.82,0.75920
5900.03,0.75906
5894.24,0.75816
5888.46,0.75590
5882.67,0.75441
5876.88,0.75150
5871.1,0.74853
5865.31,0.74671
5859.53,0.74820
5853.74,0.74759
5847.95,0.75161
5842.17,0.75134
5836.38,0.75227
5830.59,0.75128
5824.81,0.74835
5819.02,0.74912
5813.24,0.74850
5807.45,0.75067
5801.66,0.75077
5795.88,0.75197
5790.09,0.75402
5784.3,0.75249
5778.52,0.75537
5772.73,0.75687
5766.95,0.75526
5761.16,0.75856
5755.37,0.76012
5749.59,0.76281
5743.8,0.76585
5738.01,0.76964
5732.23,0.77264
5726.44,0.77260
5720.66,0.77548
5714.87,0.77854
5709.08,0.77611
5703.3,0.77658
5697.51,0.77653
5691.72,0.77753
5685.94,0.78042
5680.15,0.77967
5674.37,0.77882
5668.58,0.77943
5662.79,0.78004
5657.01,0.77931
5651.22,0.77865
5645.44,0.77926
5639.65,0.78179
5633.86,0.78476
5628.08,0.78780
5622.29,0.78828
5616.5,0.79085
5610.72,0.79199
5604.93,0.79117
5599.15,0.78806
5593.36,0.78614
5587.57,0.78639
5581.79,0.78575
5576,0.78565
5570.21,0.78181
5564.43,0.78153
5558.64,0.78364
5552.86,0.78132
5547.07,0.78295
5541.28,0.78332
5535.5,0.78287
5529.71,0.78421
5523.92,0.78533
5518.14,0.78344
5512.35,0.78464
5506.57,0.78553
5500.78,0.78521
5494.99,0.78438
5489.21,0.78219
5483.42,0.78227
5477.63,0.78140
5471.85,0.78192
5466.06,0.78129
5460.28,0.78614
5454.49,0.78483
5448.7,0.78646
5442.92,0.79065
5437.13,0.79177
5431.34,0.79363
5425.56,0.79565
5419.77,0.79477
5413.99,0.79537
5408.2,0.79765
5402.41,0.79561
5396.63,0.79613
5390.84,0.79635
5385.05,0.79577
5379.27,0.79651
5373.48,0.79650
5367.7,0.79517
5361.91,0.79551
5356.12,0.79495
5350.34,0.79389
5344.55,0.79512
5338.76,0.79480
5332.98,0.79582
5327.19,0.79842
5321.41,0.79656
5315.62,0.79861
5309.83,0.79740
5304.05,0.79711
5298.26,0.79572
5292.47,0.79387
5286.69,0.79270
5280.9,0.78989
5275.12,0.78709
5269.33,0.78595
5263.54,0.78496
5257.76,0.78447
5251.97,0.78229
5246.18,0.78270
5240.4,0.78279
5234.61,0.78166
5228.83,0.78021
5223.04,0.78217
5217.25,0.78093
5211.47,0.78135
5205.68,0.78122
5199.9,0.78220
5194.11,0.78193
5188.32,0.78010
5182.54,0.78106
5176.75,0.78098
5170.96,0.77906
5165.18,0.77823
5159.39,0.77643
5153.61,0.77495
5147.82,0.77312
5142.03,0.77220
5136.25,0.76824
5130.46,0.76572
5124.67,0.76335
5118.89,0.76082
5113.1,0.76416
5107.32,0.76741
5101.53,0.77141
5095.74,0.77449
5089.96,0.77839
5084.17,0.78030
5078.38,0.78153
5072.6,0.78502
5066.81,0.78478
5061.03,0.78554
5055.24,0.78583
5049.45,0.78443
5043.67,0.78540
5037.88,0.78644
5032.09,0.78593
5026.31,0.78590
5020.52,0.78652
5014.74,0.78512
5008.95,0.78440
5003.16,0.78549
4997.38,0.78649
4991.59,0.78640
4985.8,0.78797
4980.02,0.78634
4974.23,0.78695
4968.45,0.78711
4962.66,0.78508
4956.87,0.78472
4951.09,0.78291
4945.3,0.78016
4939.51,0.77925
4933.73,0.77827
4927.94,0.77713
4922.16,0.77477
4916.37,0.77606
4910.58,0.77340
4904.8,0.77116
4899.01,0.77078
4893.22,0.76937
4887.44,0.76864
4881.65,0.76940
4875.87,0.76781
4870.08,0.76758
4864.29,0.76735
4858.51,0.76551
4852.72,0.76499
4846.93,0.76322
4841.15,0.75997
4835.36,0.75609
4829.58,0.75246
4823.79,0.74917
4818,0.74675
4812.22,0.74507
4806.43,0.74129
4800.65,0.73738
4794.86,0.73687
4789.07,0.73822
4783.29,0.74123
4777.5,0.74319
4771.71,0.74489
4765.93,0.74431
4760.14,0.74205
4754.36,0.73805
4748.57,0.73087
4742.78,0.72484
4737,0.71907
4731.21,0.70989
4725.42,0.69712
4719.64,0.68926
4713.85,0.68681
4708.07,0.68304
4702.28,0.67401
4696.49,0.65834
4690.71,0.65092
4684.92,0.65522
4679.13,0.66909
4673.35,0.68241
4667.56,0.69241
4661.78,0.69580
4655.99,0.69622
4650.2,0.69188
4644.42,0.68087
4638.63,0.67011
4632.84,0.66863
4627.06,0.68044
4621.27,0.69729
4615.49,0.71104
4609.7,0.71575
4603.91,0.71559
4598.13,0.70864
4592.34,0.70044
4586.55,0.69700
4580.77,0.69062
4574.98,0.69569
4569.2,0.70974
4563.41,0.72119
4557.62,0.72576
4551.84,0.72657
4546.05,0.72655
4540.26,0.72499
4534.48,0.72509
4528.69,0.72309
4522.91,0.72093
4517.12,0.71612
4511.33,0.71106
4505.55,0.70207
4499.76,0.68956
4493.97,0.67367
4488.19,0.66305
4482.4,0.65648
4476.62,0.64966
4470.83,0.63825
4465.04,0.61816
4459.26,0.59938
4453.47,0.59813
4447.68,0.59994
4441.9,0.59438
4436.11,0.58884
4430.33,0.58733
4424.54,0.59534
4418.75,0.60533
4412.97,0.60991
4407.18,0.61141
4401.39,0.61361
4395.61,0.61820
4389.82,0.62425
4384.04,0.62798
4378.25,0.62977
4372.46,0.62911
4366.68,0.62858
4360.89,0.62588
4355.11,0.62531
4349.32,0.62296
4343.53,0.62047
4337.75,0.61703
4331.96,0.61604
4326.17,0.61647
4320.39,0.61644
4314.6,0.61357
4308.82,0.60811
4303.03,0.60059
4297.24,0.59538
4291.46,0.59297
4285.67,0.59370
4279.88,0.59640
4274.1,0.60021
4268.31,0.60352
4262.53,0.60546
4256.74,0.60597
4250.95,0.60467
4245.17,0.60341
4239.38,0.60456
4233.59,0.60542
4227.81,0.60537
4222.02,0.60691
4216.24,0.61207
4210.45,0.61610
4204.66,0.61842
4198.88,0.61907
4193.09,0.61897
4187.3,0.61423
4181.52,0.60726
4175.73,0.60393
4169.95,0.61098
4164.16,0.61939
4158.37,0.62461
4152.59,0.62757
4146.8,0.62663
4141.01,0.62083
4135.23,0.61306
4129.44,0.61018
4123.66,0.60885
4117.87,0.60595
4112.08,0.60000
4106.3,0.58999
4100.51,0.57524
4094.72,0.54813
4088.94,0.54051
4083.15,0.55552
4077.37,0.57594
4071.58,0.59339
4065.79,0.60311
4060.01,0.60941
4054.22,0.61353
4048.43,0.61673
4042.65,0.62163
4036.86,0.62762
4031.08,0.63093
4025.29,0.63202
4019.5,0.63207
4013.72,0.63053
4007.93,0.63136
4002.14,0.63359
3996.36,0.63446
3990.57,0.63690
3984.79,0.63913
3979,0.63909
3973.21,0.63896
3967.43,0.64059
3961.64,0.64297
3955.85,0.64722
3950.07,0.64983
3944.28,0.65207
3938.5,0.65318
3932.71,0.65407
3926.92,0.65424
3921.14,0.65428
3915.35,0.65545
3909.57,0.65770
3903.78,0.66096
3897.99,0.66672
3892.21,0.67144
3886.42,0.67500
3880.63,0.67609
3874.85,0.67833
3869.06,0.68046
3863.28,0.68245
3857.49,0.68264
3851.7,0.68539
3845.92,0.68420
3840.13,0.68453
3834.34,0.68414
3828.56,0.68456
3822.77,0.68352
3816.99,0.67823
3811.2,0.67204
3805.41,0.66931
3799.63,0.67163
3793.84,0.67659
3788.05,0.67937
3782.27,0.67889
3776.48,0.67640
3770.7,0.67315
3764.91,0.66778
3759.12,0.66339
3753.34,0.66891
3747.55,0.68057
3741.76,0.68420
3735.98,0.67835
3730.19,0.67500
3724.41,0.68221
3718.62,0.68753
3712.83,0.68596
3707.05,0.67815
3701.26,0.66480
3695.47,0.64954
3689.69,0.62463
3683.9,0.61803
3678.12,0.63688
3672.33,0.64872
3666.54,0.64911
3660.76,0.64202
3654.97,0.63154
3649.18,0.62214
3643.4,0.61233
3637.61,0.60389
3631.83,0.59599
3626.04,0.58790
3620.25,0.58073
3614.47,0.57417
3608.68,0.56644
3602.89,0.55882
3597.11,0.54875
3591.32,0.53629
3585.54,0.52342
3579.75,0.50839
3573.96,0.49423
3568.18,0.48160
3562.39,0.47043
3556.6,0.46138
3550.82,0.45505
3545.03,0.45197
3539.25,0.45057
3533.46,0.45033
3527.67,0.45096
3521.89,0.45312
3516.1,0.45422
3510.31,0.45515
3504.53,0.45457
3498.74,0.45419
3492.96,0.45220
3487.17,0.44929
3481.38,0.44582
3475.6,0.43899
3469.81,0.43118
3464.03,0.42034
3458.24,0.40739
3452.45,0.39346
3446.67,0.37831
3440.88,0.36131
3435.09,0.34128
3429.31,0.33504
3423.52,0.35686
3417.74,0.38093
3411.95,0.39951
3406.16,0.41336
3400.38,0.42269
3394.59,0.42821
3388.8,0.43034
3383.02,0.43133
3377.23,0.43163
3371.45,0.43094
3365.66,0.42796
3359.87,0.42514
3354.09,0.41944
3348.3,0.41220
3342.51,0.40657
3336.73,0.40311
3330.94,0.40546
3325.16,0.41068
3319.37,0.41487
3313.58,0.41569
3307.8,0.41454
3302.01,0.41299
3296.22,0.41400
3290.44,0.41675
3284.65,0.42071
3278.87,0.42334
3273.08,0.42623
3267.29,0.42759
3261.51,0.42967
3255.72,0.43163
3249.93,0.43187
3244.15,0.43249
3238.36,0.43291
3232.58,0.43394
3226.79,0.43674
3221,0.44024
3215.22,0.44388
3209.43,0.44535
3203.64,0.44533
3197.86,0.44547
3192.07,0.44517
3186.29,0.44602
3180.5,0.44758
3174.71,0.44870
3168.93,0.44850
3163.14,0.44853
3157.35,0.44736
3151.57,0.44554
3145.78,0.44282
3140,0.43819
3134.21,0.43155
3128.42,0.42556
3122.64,0.42728
3116.85,0.42495
3111.06,0.41394
3105.28,0.40125
3099.49,0.40161
3093.71,0.40913
3087.92,0.40132
3082.13,0.38886
3076.35,0.38640
3070.56,0.38278
3064.77,0.38212
3058.99,0.37479
3053.2,0.37006
3047.42,0.39887
3041.63,0.42223
3035.84,0.42344
3030.06,0.41354
3024.27,0.39354
3018.49,0.36050
3012.7,0.33866
3006.91,0.33573
3001.13,0.33040
2995.34,0.32304
2989.55,0.30892
2983.77,0.28523
2977.98,0.25349
2972.2,0.22534
2966.41,0.22631
2960.62,0.24065
2954.84,0.25755
2949.05,0.28182
2943.26,0.30758
2937.48,0.32259
2931.69,0.32523
2925.91,0.31694
2920.12,0.30397
2914.33,0.28388
2908.55,0.26372
2902.76,0.28753
2896.97,0.31598
2891.19,0.32429
2885.4,0.33154
2879.62,0.34235
2873.83,0.34908
2868.04,0.35414
2862.26,0.35829
2856.47,0.35971
2850.68,0.37073
2844.9,0.40294
2839.11,0.43126
2833.33,0.44873
2827.54,0.46165
2821.75,0.46951
2815.97,0.46899
2810.18,0.46773
2804.39,0.46851
2798.61,0.47682
2792.82,0.48802
2787.04,0.49599
2781.25,0.50292
2775.46,0.50836
2769.68,0.51246
2763.89,0.51411
2758.1,0.51496
2752.32,0.51494
2746.53,0.51386
2740.75,0.51710
2734.96,0.52545
2729.17,0.53291
2723.39,0.53874
2717.6,0.54328
2711.81,0.54758
2706.03,0.55268
2700.24,0.55737
2694.46,0.56020
2688.67,0.56235
2682.88,0.56296
2677.1,0.56331
2671.31,0.56554
2665.52,0.56679
2659.74,0.56493
2653.95,0.56226
2648.17,0.55834
2642.38,0.54942
2636.59,0.53700
2630.81,0.53170
2625.02,0.53350
2619.24,0.53625
2613.45,0.53561
2607.66,0.53419
2601.88,0.53181
2596.09,0.52671
2590.3,0.52020
2584.52,0.51621
2578.73,0.51638
2572.95,0.51769
2567.16,0.51684
2561.37,0.51539
2555.59,0.51407
2549.8,0.51301
2544.01,0.51180
2538.23,0.51086
2532.44,0.51141
2526.66,0.51448
2520.87,0.52037
2515.08,0.52534
2509.3,0.52748
2503.51,0.52820
2497.72,0.53012
2491.94,0.53584
2486.15,0.54275
2480.37,0.54989
2474.58,0.55610
2468.79,0.55956
2463.01,0.56101
2457.22,0.56063
2451.43,0.55905
2445.65,0.55575
2439.86,0.54884
2434.08,0.53933
2428.29,0.52996
2422.5,0.51994
2416.72,0.51016
2410.93,0.50207
2405.14,0.49449
2399.36,0.48810
2393.57,0.48426
2387.79,0.48319
2382,0.48567
2376.21,0.48927
2370.43,0.49509
2364.64,0.50508
2358.85,0.51740
2353.07,0.52858
2347.28,0.53607
2341.5,0.54108
2335.71,0.54135
2329.92,0.54520
2324.14,0.54865
2318.35,0.55317
2312.56,0.55309
2306.78,0.54598
2300.99,0.53202
2295.21,0.51608
2289.42,0.50268
2283.63,0.49818
2277.85,0.49978
2272.06,0.49800
2266.27,0.49349
2260.49,0.49111
2254.7,0.49262
2248.92,0.49790
2243.13,0.50614
2237.34,0.51278
2231.56,0.51727
2225.77,0.52022
2219.98,0.52221
2214.2,0.52389
2208.41,0.52710
2202.63,0.53470
2196.84,0.53790
2191.05,0.53817
2185.27,0.53357
2179.48,0.52634
2173.7,0.51671
2167.91,0.50489
2162.12,0.49020
2156.34,0.47501
2150.55,0.46175
2144.76,0.45204
2138.98,0.44513
2133.19,0.43741
2127.41,0.42638
2121.62,0.41480
2115.83,0.40800
2110.05,0.40551
2104.26,0.40706
2098.47,0.40968
2092.69,0.41404
2086.9,0.42141
2081.12,0.43271
2075.33,0.44572
2069.54,0.45914
2063.76,0.47422
2057.97,0.49005
2052.18,0.50192
2046.4,0.50897
2040.61,0.51105
2034.83,0.50955
2029.04,0.50218
2023.25,0.49073
2017.47,0.47847
2011.68,0.46682
2005.89,0.45492
2000.11,0.44128
1994.32,0.42770
1988.54,0.41466
1982.75,0.40215
1976.96,0.38706
1971.18,0.36670
1965.39,0.33708
1959.6,0.32152
1953.82,0.33461
1948.03,0.35156
1942.25,0.37069
1936.46,0.38998
1930.67,0.40659
1924.89,0.41933
1919.1,0.42998
1913.31,0.43890
1907.53,0.44593
1901.74,0.45083
1895.96,0.45372
1890.17,0.45491
1884.38,0.45362
1878.6,0.44985
1872.81,0.44191
1867.02,0.42962
1861.24,0.41467
1855.45,0.39442
1849.67,0.36887
1843.88,0.34411
1838.09,0.32410
1832.31,0.30839
1826.52,0.29851
1820.73,0.29581
1814.95,0.29341
1809.16,0.28920
1803.38,0.28586
1797.59,0.28182
1791.8,0.27446
1786.02,0.26394
1780.23,0.24946
1774.44,0.23221
1768.66,0.20929
1762.87,0.18134
1757.09,0.14498
1751.3,0.09898
1745.51,0.05374
1739.73,0.03366
1733.94,0.03325
1728.16,0.03737
1722.37,0.04213
1716.58,0.05179
1710.8,0.08104
1705.01,0.11843
1699.22,0.15018
1693.44,0.16986
1687.65,0.17593
1681.87,0.17928
1676.08,0.19870
1670.29,0.21475
1664.51,0.23535
1658.72,0.25131
1652.93,0.26158
1647.15,0.26787
1641.36,0.27562
1635.58,0.28177
1629.79,0.28524
1624,0.28511
1618.22,0.27161
1612.43,0.26092
1606.64,0.27711
1600.86,0.29135
1595.07,0.29455
1589.29,0.27917
1583.5,0.23875
1577.71,0.21079
1571.93,0.25301
1566.14,0.28322
1560.35,0.29088
1554.57,0.29023
1548.78,0.28557
1543,0.28091
1537.21,0.28212
1531.42,0.27275
1525.64,0.25952
1519.85,0.25599
1514.06,0.23299
1508.28,0.15139
1502.49,0.16351
1496.71,0.25532
1490.92,0.27173
1485.13,0.24342
1479.35,0.20298
1473.56,0.15793
1467.77,0.16016
1461.99,0.16061
1456.2,0.15037
1450.42,0.15076
1444.63,0.15596
1438.84,0.15956
1433.06,0.16912
1427.27,0.16739
1421.48,0.13446
1415.7,0.07534
1409.91,0.05895
1404.13,0.08944
1398.34,0.11539
1392.55,0.11755
1386.77,0.10666
1380.98,0.10612
1375.19,0.10173
1369.41,0.09620
1363.62,0.10101
1357.84,0.09362
1352.05,0.07157
1346.26,0.05670
1340.48,0.05818
1334.69,0.08641
1328.9,0.10913
1323.12,0.09131
1317.33,0.06772
1311.55,0.05060
1305.76,0.03986
1299.97,0.03616
1294.19,0.03683
1288.4,0.04189
1282.62,0.04896
1276.83,0.05596
1271.04,0.06029
1265.26,0.06274
1259.47,0.06417
1253.68,0.06546
1247.9,0.06239
1242.11,0.05848
1236.33,0.07123
1230.54,0.11158
1224.75,0.14630
1218.97,0.18078
1213.18,0.20494
1207.39,0.22375
1201.61,0.24681
1195.82,0.26240
1190.04,0.25851
1184.25,0.23406
1178.46,0.19949
1172.68,0.17876
1166.89,0.16635
1161.1,0.13711
1155.32,0.10338
1149.53,0.07286
1143.75,0.05193
1137.96,0.04706
1132.17,0.05319
1126.39,0.05799
1120.6,0.05837
1114.81,0.06045
1109.03,0.06051
1103.24,0.06336
1097.46,0.07249
1091.67,0.09327
1085.88,0.12610
1080.1,0.17493
1074.31,0.22750
1068.52,0.25751
1062.74,0.26883
1056.95,0.26105
1051.17,0.23712
1045.38,0.21680
1039.59,0.20754
1033.81,0.19268
1028.02,0.12676
1022.23,0.08585
1016.45,0.14083
1010.66,0.25927
1004.88,0.31084
999.09,0.32016
993.303,0.30614
987.517,0.27961
981.731,0.24952
975.945,0.19424
970.158,0.19017
964.372,0.24856
958.586,0.30312
952.8,0.33656
947.014,0.35269
941.227,0.35903
935.441,0.35998
929.655,0.35967
923.869,0.35582
918.082,0.34396
912.296,0.31889
906.51,0.28420
900.724,0.26013
894.937,0.25711
889.151,0.25402
883.365,0.22904
877.579,0.18777
871.793,0.17615
866.006,0.22667
860.22,0.21995
854.434,0.18991
848.648,0.17482
842.861,0.20663
837.075,0.24169
831.289,0.26589
825.503,0.27840
819.716,0.28009
813.93,0.27569
808.144,0.26700
802.358,0.25782
796.571,0.23046
790.785,0.22892
784.999,0.26429
779.213,0.27904
773.427,0.28636
767.64,0.29084
761.854,0.28895
756.068,0.27413
750.282,0.24455
744.495,0.18684
738.709,0.10097
732.923,0.05955
727.137,0.07649
721.35,0.16647
715.564,0.23818
709.778,0.24709
703.992,0.25638
698.206,0.28528
692.419,0.30234
686.633,0.29627
680.847,0.27884
675.061,0.28344
669.274,0.29075
663.488,0.29427
657.702,0.29231
651.916,0.29687
646.129,0.30057
640.343,0.29719
634.557,0.26928
628.771,0.27236
622.984,0.29073
617.198,0.28912
611.412,0.28807
605.626,0.28729
599.84,0.28305