File: 01_Data/Polyester_Fabric/FTIR/IS/Polyester_Fabric_IS_T_221019_R5.dpt
7497.03,0.02615
7491.24,0.02877
7485.46,0.03043
7479.67,0.02247
7473.88,0.01917
7468.1,0.02025
7462.31,0.01556
7456.53,0.02565
7450.74,0.02334
7444.95,0.02878
7439.17,0.02137
7433.38,0.03346
7427.59,0.03437
7421.81,0.02425
7416.02,0.02213
7410.24,0.03192
7404.45,0.02127
7398.66,0.02631
7392.88,0.03459
7387.09,0.02440
7381.31,0.02964
7375.52,0.02248
7369.73,0.02552
7363.95,0.01802
7358.16,0.02361
7352.37,0.02272
7346.59,0.02321
7340.8,0.02485
7335.02,0.01813
7329.23,0.01750
7323.44,0.03111
7317.66,0.02013
7311.87,0.01461
7306.08,0.02488
7300.3,0.02249
7294.51,0.02175
7288.73,0.02155
7282.94,0.02244
7277.15,0.02342
7271.37,0.02078
7265.58,0.02109
7259.79,0.02428
7254.01,0.02955
7248.22,0.02722
7242.44,0.02574
7236.65,0.02793
7230.86,0.02427
7225.08,0.02560
7219.29,0.01897
7213.5,0.01625
7207.72,0.01988
7201.93,0.02413
7196.15,0.02470
7190.36,0.03203
7184.57,0.02883
7178.79,0.02976
7173,0.02526
7167.21,0.01916
7161.43,0.02449
7155.64,0.02740
7149.86,0.02215
7144.07,0.02057
7138.28,0.02046
7132.5,0.02461
7126.71,0.02311
7120.92,0.02358
7115.14,0.02490
7109.35,0.03017
7103.57,0.02358
7097.78,0.02375
7091.99,0.02954
7086.21,0.02184
7080.42,0.02514
7074.63,0.02471
7068.85,0.02675
7063.06,0.02820
7057.28,0.02493
7051.49,0.02341
7045.7,0.02824
7039.92,0.02594
7034.13,0.01882
7028.34,0.01698
7022.56,0.02445
7016.77,0.02697
7010.99,0.02261
7005.2,0.01966
6999.41,0.02186
6993.63,0.02443
6987.84,0.02129
6982.06,0.02344
6976.27,0.02329
6970.48,0.02470
6964.7,0.02344
6958.91,0.02174
6953.12,0.02679
6947.34,0.02687
6941.55,0.02935
6935.77,0.02460
6929.98,0.02400
6924.19,0.02751
6918.41,0.02445
6912.62,0.02459
6906.83,0.01975
6901.05,0.02290
6895.26,0.02307
6889.48,0.02357
6883.69,0.02231
6877.9,0.02380
6872.12,0.02453
6866.33,0.02498
6860.54,0.02647
6854.76,0.02478
6848.97,0.02623
6843.19,0.02262
6837.4,0.02311
6831.61,0.02462
6825.83,0.02296
6820.04,0.02316
6814.25,0.02591
6808.47,0.02191
6802.68,0.02582
6796.9,0.02837
6791.11,0.02649
6785.32,0.02344
6779.54,0.02426
6773.75,0.02384
6767.96,0.01863
6762.18,0.02128
6756.39,0.02636
6750.61,0.02658
6744.82,0.02292
6739.03,0.02709
6733.25,0.02458
6727.46,0.02414
6721.67,0.01891
6715.89,0.02297
6710.1,0.02398
6704.32,0.02945
6698.53,0.02676
6692.74,0.02470
6686.96,0.01809
6681.17,0.02367
6675.38,0.01846
6669.6,0.02042
6663.81,0.02058
6658.03,0.01933
6652.24,0.02698
6646.45,0.02149
6640.67,0.01802
6634.88,0.02526
6629.09,0.02268
6623.31,0.02330
6617.52,0.02307
6611.74,0.02164
6605.95,0.02635
6600.16,0.02463
6594.38,0.01969
6588.59,0.02179
6582.8,0.02158
6577.02,0.02660
6571.23,0.02142
6565.45,0.02359
6559.66,0.02320
6553.87,0.02692
6548.09,0.02543
6542.3,0.02348
6536.52,0.02185
6530.73,0.01856
6524.94,0.02381
6519.16,0.02169
6513.37,0.02398
6507.58,0.02029
6501.8,0.02432
6496.01,0.02187
6490.23,0.02317
6484.44,0.02043
6478.65,0.02424
6472.87,0.01987
6467.08,0.02109
6461.29,0.02731
6455.51,0.02508
6449.72,0.02150
6443.94,0.01827
6438.15,0.01755
6432.36,0.01759
6426.58,0.02149
6420.79,0.02183
6415,0.02413
6409.22,0.02863
6403.43,0.02427
6397.65,0.02092
6391.86,0.02307
6386.07,0.02145
6380.29,0.01863
6374.5,0.02073
6368.71,0.02157
6362.93,0.02528
6357.14,0.02189
6351.36,0.02051
6345.57,0.02142
6339.78,0.02374
6334,0.02201
6328.21,0.02100
6322.42,0.02191
6316.64,0.02290
6310.85,0.02256
6305.07,0.02130
6299.28,0.02074
6293.49,0.02089
6287.71,0.02277
6281.92,0.01972
6276.13,0.02128
6270.35,0.02074
6264.56,0.02062
6258.78,0.02199
6252.99,0.01815
6247.2,0.02109
6241.42,0.02397
6235.63,0.01884
6229.84,0.02012
6224.06,0.02251
6218.27,0.01992
6212.49,0.01802
6206.7,0.02493
6200.91,0.02215
6195.13,0.01788
6189.34,0.02098
6183.55,0.02305
6177.77,0.02153
6171.98,0.02356
6166.2,0.02220
6160.41,0.01784
6154.62,0.02156
6148.84,0.01908
6143.05,0.02252
6137.26,0.02138
6131.48,0.02060
6125.69,0.02057
6119.91,0.02338
6114.12,0.02119
6108.33,0.02011
6102.55,0.02121
6096.76,0.02463
6090.98,0.02339
6085.19,0.02024
6079.4,0.02182
6073.62,0.02121
6067.83,0.02166
6062.04,0.02279
6056.26,0.02521
6050.47,0.02444
6044.69,0.02315
6038.9,0.02176
6033.11,0.02015
6027.33,0.02327
6021.54,0.02212
6015.75,0.02291
6009.97,0.02191
6004.18,0.02156
5998.4,0.01985
5992.61,0.02165
5986.82,0.02272
5981.04,0.01876
5975.25,0.02325
5969.46,0.01960
5963.68,0.02476
5957.89,0.02490
5952.11,0.02240
5946.32,0.02029
5940.53,0.02164
5934.75,0.01893
5928.96,0.02123
5923.17,0.02436
5917.39,0.02286
5911.6,0.02223
5905.82,0.02230
5900.03,0.02265
5894.24,0.02045
5888.46,0.02249
5882.67,0.02339
5876.88,0.02434
5871.1,0.02248
5865.31,0.02265
5859.53,0.02298
5853.74,0.02296
5847.95,0.02114
5842.17,0.01884
5836.38,0.02272
5830.59,0.02158
5824.81,0.02159
5819.02,0.02221
5813.24,0.02124
5807.45,0.02188
5801.66,0.02286
5795.88,0.02101
5790.09,0.02368
5784.3,0.02108
5778.52,0.02153
5772.73,0.02268
5766.95,0.02322
5761.16,0.02148
5755.37,0.02230
5749.59,0.02289
5743.8,0.02063
5738.01,0.02105
5732.23,0.02296
5726.44,0.02077
5720.66,0.02200
5714.87,0.02214
5709.08,0.02194
5703.3,0.02040
5697.51,0.02086
5691.72,0.02257
5685.94,0.02164
5680.15,0.02109
5674.37,0.02020
5668.58,0.02246
5662.79,0.02234
5657.01,0.02098
5651.22,0.02130
5645.44,0.02158
5639.65,0.02178
5633.86,0.02115
5628.08,0.02163
5622.29,0.02179
5616.5,0.02207
5610.72,0.01975
5604.93,0.02275
5599.15,0.02221
5593.36,0.02269
5587.57,0.02344
5581.79,0.02257
5576,0.02104
5570.21,0.02237
5564.43,0.02208
5558.64,0.02403
5552.86,0.02251
5547.07,0.02137
5541.28,0.02129
5535.5,0.02297
5529.71,0.02054
5523.92,0.02073
5518.14,0.02079
5512.35,0.02285
5506.57,0.02287
5500.78,0.02188
5494.99,0.02355
5489.21,0.02191
5483.42,0.02365
5477.63,0.02334
5471.85,0.02262
5466.06,0.02018
5460.28,0.02108
5454.49,0.02092
5448.7,0.01893
5442.92,0.02232
5437.13,0.02245
5431.34,0.02176
5425.56,0.02228
5419.77,0.02208
5413.99,0.02233
5408.2,0.02361
5402.41,0.02103
5396.63,0.01960
5390.84,0.02431
5385.05,0.02203
5379.27,0.02172
5373.48,0.02026
5367.7,0.02129
5361.91,0.02293
5356.12,0.02134
5350.34,0.02210
5344.55,0.02153
5338.76,0.02258
5332.98,0.02135
5327.19,0.02263
5321.41,0.02186
5315.62,0.02210
5309.83,0.02201
5304.05,0.02106
5298.26,0.02324
5292.47,0.02318
5286.69,0.02208
5280.9,0.02299
5275.12,0.02069
5269.33,0.02145
5263.54,0.02240
5257.76,0.02182
5251.97,0.02186
5246.18,0.02067
5240.4,0.02272
5234.61,0.02303
5228.83,0.02168
5223.04,0.02247
5217.25,0.02072
5211.47,0.02377
5205.68,0.02157
5199.9,0.02176
5194.11,0.02145
5188.32,0.02177
5182.54,0.02175
5176.75,0.02243
5170.96,0.01988
5165.18,0.02158
5159.39,0.02034
5153.61,0.02176
5147.82,0.02160
5142.03,0.02203
5136.25,0.02226
5130.46,0.02088
5124.67,0.02086
5118.89,0.02196
5113.1,0.02230
5107.32,0.02175
5101.53,0.02196
5095.74,0.02045
5089.96,0.02140
5084.17,0.02155
5078.38,0.02159
5072.6,0.02324
5066.81,0.02327
5061.03,0.02220
5055.24,0.02222
5049.45,0.02225
5043.67,0.02184
5037.88,0.02272
5032.09,0.02220
5026.31,0.02193
5020.52,0.02157
5014.74,0.02305
5008.95,0.02339
5003.16,0.02204
4997.38,0.02236
4991.59,0.02201
4985.8,0.02212
4980.02,0.02260
4974.23,0.02191
4968.45,0.02219
4962.66,0.02268
4956.87,0.02266
4951.09,0.02132
4945.3,0.02152
4939.51,0.02081
4933.73,0.02261
4927.94,0.02201
4922.16,0.02117
4916.37,0.02303
4910.58,0.02204
4904.8,0.02289
4899.01,0.02217
4893.22,0.02105
4887.44,0.02142
4881.65,0.02314
4875.87,0.02300
4870.08,0.02271
4864.29,0.02181
4858.51,0.02241
4852.72,0.02159
4846.93,0.02221
4841.15,0.02143
4835.36,0.02306
4829.58,0.02248
4823.79,0.02208
4818,0.02157
4812.22,0.02213
4806.43,0.02324
4800.65,0.02303
4794.86,0.02260
4789.07,0.02240
4783.29,0.02310
4777.5,0.02180
4771.71,0.02226
4765.93,0.02200
4760.14,0.02225
4754.36,0.02180
4748.57,0.02244
4742.78,0.02205
4737,0.02199
4731.21,0.02330
4725.42,0.02278
4719.64,0.02190
4713.85,0.02219
4708.07,0.02292
4702.28,0.02235
4696.49,0.02047
4690.71,0.02175
4684.92,0.02184
4679.13,0.02143
4673.35,0.02204
4667.56,0.02170
4661.78,0.02198
4655.99,0.02224
4650.2,0.02225
4644.42,0.02125
4638.63,0.02216
4632.84,0.02263
4627.06,0.02205
4621.27,0.02225
4615.49,0.02314
4609.7,0.02181
4603.91,0.02215
4598.13,0.02315
4592.34,0.02272
4586.55,0.02226
4580.77,0.02273
4574.98,0.02211
4569.2,0.02236
4563.41,0.02264
4557.62,0.02203
4551.84,0.02190
4546.05,0.02289
4540.26,0.02230
4534.48,0.02194
4528.69,0.02293
4522.91,0.02205
4517.12,0.02169
4511.33,0.02249
4505.55,0.02272
4499.76,0.02277
4493.97,0.02218
4488.19,0.02284
4482.4,0.02227
4476.62,0.02339
4470.83,0.02279
4465.04,0.02239
4459.26,0.02218
4453.47,0.02277
4447.68,0.02261
4441.9,0.02209
4436.11,0.02239
4430.33,0.02201
4424.54,0.02196
4418.75,0.02192
4412.97,0.02204
4407.18,0.02137
4401.39,0.02123
4395.61,0.02225
4389.82,0.02243
4384.04,0.02186
4378.25,0.02218
4372.46,0.02234
4366.68,0.02208
4360.89,0.02203
4355.11,0.02155
4349.32,0.02115
4343.53,0.02189
4337.75,0.02290
4331.96,0.02207
4326.17,0.02217
4320.39,0.02251
4314.6,0.02246
4308.82,0.02251
4303.03,0.02264
4297.24,0.02265
4291.46,0.02208
4285.67,0.02247
4279.88,0.02272
4274.1,0.02215
4268.31,0.02238
4262.53,0.02257
4256.74,0.02180
4250.95,0.02215
4245.17,0.02232
4239.38,0.02280
4233.59,0.02261
4227.81,0.02217
4222.02,0.02241
4216.24,0.02261
4210.45,0.02171
4204.66,0.02238
4198.88,0.02235
4193.09,0.02270
4187.3,0.02268
4181.52,0.02244
4175.73,0.02232
4169.95,0.02309
4164.16,0.02323
4158.37,0.02298
4152.59,0.02271
4146.8,0.02259
4141.01,0.02188
4135.23,0.02284
4129.44,0.02200
4123.66,0.02256
4117.87,0.02254
4112.08,0.02230
4106.3,0.02283
4100.51,0.02311
4094.72,0.02305
4088.94,0.02243
4083.15,0.02174
4077.37,0.02241
4071.58,0.02308
4065.79,0.02234
4060.01,0.02255
4054.22,0.02276
4048.43,0.02262
4042.65,0.02317
4036.86,0.02227
4031.08,0.02206
4025.29,0.02208
4019.5,0.02263
4013.72,0.02268
4007.93,0.02209
4002.14,0.02251
3996.36,0.02281
3990.57,0.02184
3984.79,0.02282
3979,0.02203
3973.21,0.02274
3967.43,0.02311
3961.64,0.02284
3955.85,0.02253
3950.07,0.02227
3944.28,0.02226
3938.5,0.02289
3932.71,0.02279
3926.92,0.02302
3921.14,0.02246
3915.35,0.02245
3909.57,0.02232
3903.78,0.02257
3897.99,0.02197
3892.21,0.02227
3886.42,0.02268
3880.63,0.02247
3874.85,0.02298
3869.06,0.02201
3863.28,0.02299
3857.49,0.02295
3851.7,0.02254
3845.92,0.02285
3840.13,0.02328
3834.34,0.02279
3828.56,0.02241
3822.77,0.02236
3816.99,0.02291
3811.2,0.02305
3805.41,0.02293
3799.63,0.02294
3793.84,0.02207
3788.05,0.02279
3782.27,0.02316
3776.48,0.02271
3770.7,0.02231
3764.91,0.02300
3759.12,0.02236
3753.34,0.02242
3747.55,0.02270
3741.76,0.02314
3735.98,0.02190
3730.19,0.02222
3724.41,0.02233
3718.62,0.02246
3712.83,0.02286
3707.05,0.02256
3701.26,0.02263
3695.47,0.02256
3689.69,0.02269
3683.9,0.02239
3678.12,0.02181
3672.33,0.02272
3666.54,0.02257
3660.76,0.02199
3654.97,0.02210
3649.18,0.02181
3643.4,0.02203
3637.61,0.02229
3631.83,0.02236
3626.04,0.02180
3620.25,0.02183
3614.47,0.02225
3608.68,0.02201
3602.89,0.02187
3597.11,0.02199
3591.32,0.02198
3585.54,0.02166
3579.75,0.02131
3573.96,0.02170
3568.18,0.02135
3562.39,0.02069
3556.6,0.02113
3550.82,0.02136
3545.03,0.02204
3539.25,0.02108
3533.46,0.02092
3527.67,0.02146
3521.89,0.02109
3516.1,0.02131
3510.31,0.02076
3504.53,0.02124
3498.74,0.02137
3492.96,0.02060
3487.17,0.02032
3481.38,0.02055
3475.6,0.02042
3469.81,0.02082
3464.03,0.02094
3458.24,0.02135
3452.45,0.02119
3446.67,0.02074
3440.88,0.02122
3435.09,0.02102
3429.31,0.02049
3423.52,0.02087
3417.74,0.02061
3411.95,0.02073
3406.16,0.02061
3400.38,0.02025
3394.59,0.02029
3388.8,0.02032
3383.02,0.02034
3377.23,0.02012
3371.45,0.02046
3365.66,0.02022
3359.87,0.02124
3354.09,0.02035
3348.3,0.02051
3342.51,0.02005
3336.73,0.01990
3330.94,0.02025
3325.16,0.02038
3319.37,0.02057
3313.58,0.02009
3307.8,0.01960
3302.01,0.01965
3296.22,0.01980
3290.44,0.02089
3284.65,0.02117
3278.87,0.02025
3273.08,0.01988
3267.29,0.02117
3261.51,0.02105
3255.72,0.02070
3249.93,0.02058
3244.15,0.02149
3238.36,0.02137
3232.58,0.02098
3226.79,0.02099
3221,0.02071
3215.22,0.02093
3209.43,0.02100
3203.64,0.02079
3197.86,0.02093
3192.07,0.02068
3186.29,0.02090
3180.5,0.02040
3174.71,0.02083
3168.93,0.02071
3163.14,0.02073
3157.35,0.02056
3151.57,0.02117
3145.78,0.02090
3140,0.02077
3134.21,0.02075
3128.42,0.02066
3122.64,0.02036
3116.85,0.02062
3111.06,0.02077
3105.28,0.02057
3099.49,0.02099
3093.71,0.02086
3087.92,0.02091
3082.13,0.02094
3076.35,0.02109
3070.56,0.02082
3064.77,0.02076
3058.99,0.02077
3053.2,0.02043
3047.42,0.02077
3041.63,0.02069
3035.84,0.02071
3030.06,0.02057
3024.27,0.02074
3018.49,0.02027
3012.7,0.02047
3006.91,0.02082
3001.13,0.02039
2995.34,0.02001
2989.55,0.01998
2983.77,0.02016
2977.98,0.01974
2972.2,0.02013
2966.41,0.01995
2960.62,0.01968
2954.84,0.01974
2949.05,0.01972
2943.26,0.01937
2937.48,0.02031
2931.69,0.01968
2925.91,0.02007
2920.12,0.02045
2914.33,0.01988
2908.55,0.02058
2902.76,0.02057
2896.97,0.02047
2891.19,0.02061
2885.4,0.02049
2879.62,0.02061
2873.83,0.02006
2868.04,0.02017
2862.26,0.02046
2856.47,0.02037
2850.68,0.02056
2844.9,0.02105
2839.11,0.02119
2833.33,0.02114
2827.54,0.02135
2821.75,0.02114
2815.97,0.02137
2810.18,0.02089
2804.39,0.02149
2798.61,0.02165
2792.82,0.02114
2787.04,0.02137
2781.25,0.02144
2775.46,0.02114
2769.68,0.02130
2763.89,0.02107
2758.1,0.02126
2752.32,0.02146
2746.53,0.02175
2740.75,0.02162
2734.96,0.02114
2729.17,0.02105
2723.39,0.02156
2717.6,0.02148
2711.81,0.02159
2706.03,0.02099
2700.24,0.02141
2694.46,0.02127
2688.67,0.02134
2682.88,0.02149
2677.1,0.02146
2671.31,0.02171
2665.52,0.02203
2659.74,0.02115
2653.95,0.02142
2648.17,0.02126
2642.38,0.02109
2636.59,0.02154
2630.81,0.02161
2625.02,0.02167
2619.24,0.02190
2613.45,0.02164
2607.66,0.02155
2601.88,0.02125
2596.09,0.02129
2590.3,0.02157
2584.52,0.02120
2578.73,0.02153
2572.95,0.02164
2567.16,0.02144
2561.37,0.02180
2555.59,0.02128
2549.8,0.02112
2544.01,0.02123
2538.23,0.02106
2532.44,0.02185
2526.66,0.02164
2520.87,0.02156
2515.08,0.02116
2509.3,0.02134
2503.51,0.02138
2497.72,0.02127
2491.94,0.02164
2486.15,0.02152
2480.37,0.02140
2474.58,0.02120
2468.79,0.02122
2463.01,0.02145
2457.22,0.02148
2451.43,0.02149
2445.65,0.02161
2439.86,0.02099
2434.08,0.02126
2428.29,0.02149
2422.5,0.02114
2416.72,0.02155
2410.93,0.02175
2405.14,0.02141
2399.36,0.02142
2393.57,0.02151
2387.79,0.02125
2382,0.02111
2376.21,0.02110
2370.43,0.02145
2364.64,0.02142
2358.85,0.02125
2353.07,0.02092
2347.28,0.02107
2341.5,0.02133
2335.71,0.02150
2329.92,0.02166
2324.14,0.02134
2318.35,0.02147
2312.56,0.02145
2306.78,0.02136
2300.99,0.02137
2295.21,0.02159
2289.42,0.02160
2283.63,0.02124
2277.85,0.02136
2272.06,0.02134
2266.27,0.02144
2260.49,0.02149
2254.7,0.02145
2248.92,0.02147
2243.13,0.02119
2237.34,0.02141
2231.56,0.02117
2225.77,0.02115
2219.98,0.02151
2214.2,0.02151
2208.41,0.02145
2202.63,0.02122
2196.84,0.02095
2191.05,0.02131
2185.27,0.02123
2179.48,0.02121
2173.7,0.02124
2167.91,0.02113
2162.12,0.02142
2156.34,0.02164
2150.55,0.02137
2144.76,0.02149
2138.98,0.02106
2133.19,0.02115
2127.41,0.02112
2121.62,0.02109
2115.83,0.02126
2110.05,0.02140
2104.26,0.02138
2098.47,0.02132
2092.69,0.02124
2086.9,0.02129
2081.12,0.02099
2075.33,0.02141
2069.54,0.02112
2063.76,0.02127
2057.97,0.02132
2052.18,0.02131
2046.4,0.02122
2040.61,0.02128
2034.83,0.02108
2029.04,0.02104
2023.25,0.02114
2017.47,0.02105
2011.68,0.02091
2005.89,0.02101
2000.11,0.02135
1994.32,0.02098
1988.54,0.02129
1982.75,0.02118
1976.96,0.02101
1971.18,0.02122
1965.39,0.02099
1959.6,0.02099
1953.82,0.02105
1948.03,0.02113
1942.25,0.02086
1936.46,0.02113
1930.67,0.02104
1924.89,0.02086
1919.1,0.02140
1913.31,0.02102
1907.53,0.02074
1901.74,0.02074
1895.96,0.02109
1890.17,0.02121
1884.38,0.02062
1878.6,0.02034
1872.81,0.02049
1867.02,0.02074
1861.24,0.02081
1855.45,0.02044
1849.67,0.02073
1843.88,0.02030
1838.09,0.02040
1832.31,0.02058
1826.52,0.02037
1820.73,0.02041
1814.95,0.02025
1809.16,0.02020
1803.38,0.02000
1797.59,0.02021
1791.8,0.01952
1786.02,0.01959
1780.23,0.01929
1774.44,0.01910
1768.66,0.01854
1762.87,0.01876
1757.09,0.01803
1751.3,0.01761
1745.51,0.01774
1739.73,0.01832
1733.94,0.01987
1728.16,0.02008
1722.37,0.02075
1716.58,0.02099
1710.8,0.02062
1705.01,0.02027
1699.22,0.01978
1693.44,0.01930
1687.65,0.01920
1681.87,0.01907
1676.08,0.01857
1670.29,0.01842
1664.51,0.01839
1658.72,0.01824
1652.93,0.01824
1647.15,0.01853
1641.36,0.01827
1635.58,0.01864
1629.79,0.01852
1624,0.01866
1618.22,0.01865
1612.43,0.01877
1606.64,0.01891
1600.86,0.01882
1595.07,0.01843
1589.29,0.01869
1583.5,0.01825
1577.71,0.01843
1571.93,0.01863
1566.14,0.01831
1560.35,0.01834
1554.57,0.01843
1548.78,0.01815
1543,0.01832
1537.21,0.01827
1531.42,0.01849
1525.64,0.01851
1519.85,0.01848
1514.06,0.01899
1508.28,0.01879
1502.49,0.01876
1496.71,0.01872
1490.92,0.01866
1485.13,0.01854
1479.35,0.01834
1473.56,0.01832
1467.77,0.01827
1461.99,0.01861
1456.2,0.01916
1450.42,0.01864
1444.63,0.01868
1438.84,0.01894
1433.06,0.01862
1427.27,0.01877
1421.48,0.01848
1415.7,0.01814
1409.91,0.01818
1404.13,0.01819
1398.34,0.01827
1392.55,0.01794
1386.77,0.01791
1380.98,0.01798
1375.19,0.01825
1369.41,0.01853
1363.62,0.01839
1357.84,0.01823
1352.05,0.01832
1346.26,0.01796
1340.48,0.01783
1334.69,0.01775
1328.9,0.01775
1323.12,0.01714
1317.33,0.01714
1311.55,0.01711
1305.76,0.01725
1299.97,0.01739
1294.19,0.01762
1288.4,0.01808
1282.62,0.01852
1276.83,0.01887
1271.04,0.01927
1265.26,0.01959
1259.47,0.02015
1253.68,0.02036
1247.9,0.02014
1242.11,0.01965
1236.33,0.01985
1230.54,0.01919
1224.75,0.01914
1218.97,0.01899
1213.18,0.01903
1207.39,0.01849
1201.61,0.01854
1195.82,0.01861
1190.04,0.01846
1184.25,0.01805
1178.46,0.01820
1172.68,0.01802
1166.89,0.01764
1161.1,0.01779
1155.32,0.01761
1149.53,0.01781
1143.75,0.01748
1137.96,0.01803
1132.17,0.01839
1126.39,0.01844
1120.6,0.01909
1114.81,0.01919
1109.03,0.01848
1103.24,0.01811
1097.46,0.01745
1091.67,0.01809
1085.88,0.01860
1080.1,0.01866
1074.31,0.01937
1068.52,0.01960
1062.74,0.01947
1056.95,0.01937
1051.17,0.01905
1045.38,0.01931
1039.59,0.01968
1033.81,0.01944
1028.02,0.01997
1022.23,0.01915
1016.45,0.01933
1010.66,0.02063
1004.88,0.02086
999.09,0.02059
993.303,0.02071
987.517,0.02075
981.731,0.02051
975.945,0.02085
970.158,0.02046
964.372,0.02027
958.586,0.02047
952.8,0.02023
947.014,0.02031
941.227,0.02024
935.441,0.01985
929.655,0.01988
923.869,0.01957
918.082,0.01961
912.296,0.01957
906.51,0.01994
900.724,0.01969
894.937,0.01922
889.151,0.01938
883.365,0.01888
877.579,0.01864
871.793,0.01858
866.006,0.01870
860.22,0.01811
854.434,0.01911
848.648,0.01916
842.861,0.01860
837.075,0.01874
831.289,0.01854
825.503,0.01846
819.716,0.01904
813.93,0.01858
808.144,0.01802
802.358,0.01830
796.571,0.01841
790.785,0.01832
784.999,0.01862
779.213,0.01818
773.427,0.01829
767.64,0.01895
761.854,0.01878
756.068,0.01787
750.282,0.01693
744.495,0.01845
738.709,0.01847
732.923,0.01872
727.137,0.01866
721.35,0.01797
715.564,0.01741
709.778,0.01929
703.992,0.01870
698.206,0.01837
692.419,0.01802
686.633,0.01779
680.847,0.01800
675.061,0.01740
669.274,0.01771
663.488,0.01687
657.702,0.01691
651.916,0.01812
646.129,0.01870
640.343,0.01686
634.557,0.01614
628.771,0.01915
622.984,0.01700
617.198,0.01776
611.412,0.01796
605.626,0.01491
599.84,0.01400