File: 01_Data/Polyester_Fabric/FTIR/IS/Polyester_Fabric_IS_REFLECT_BL_210623_R3.dpt
5996.41,0.02069
5992.55,0.01736
5988.69,0.01939
5984.84,0.02400
5980.98,0.02281
5977.12,0.02359
5973.27,0.01759
5969.41,0.01577
5965.55,0.01183
5961.69,0.01459
5957.84,0.01226
5953.98,0.01825
5950.12,0.02080
5946.26,0.01945
5942.41,0.01821
5938.55,0.01620
5934.69,0.01792
5930.83,0.02237
5926.98,0.02051
5923.12,0.01934
5919.26,0.02299
5915.4,0.02304
5911.55,0.01353
5907.69,0.02125
5903.83,0.02748
5899.97,0.02043
5896.12,0.02270
5892.26,0.01792
5888.4,0.02204
5884.54,0.02002
5880.69,0.01979
5876.83,0.01391
5872.97,0.01566
5869.11,0.02144
5865.26,0.01859
5861.4,0.01802
5857.54,0.02301
5853.68,0.01863
5849.83,0.01358
5845.97,0.01713
5842.11,0.01704
5838.25,0.01608
5834.4,0.02290
5830.54,0.02892
5826.68,0.02114
5822.82,0.01288
5818.97,0.01161
5815.11,0.01617
5811.25,0.01204
5807.39,0.01825
5803.54,0.01644
5799.68,0.02245
5795.82,0.02439
5791.96,0.01661
5788.11,0.01901
5784.25,0.01884
5780.39,0.02117
5776.53,0.02365
5772.68,0.01981
5768.82,0.01391
5764.96,0.01496
5761.11,0.01589
5757.25,0.01695
5753.39,0.01902
5749.53,0.02148
5745.68,0.01674
5741.82,0.01606
5737.96,0.01870
5734.1,0.02161
5730.25,0.01785
5726.39,0.01648
5722.53,0.01862
5718.67,0.01883
5714.82,0.01664
5710.96,0.02000
5707.1,0.01477
5703.24,0.01542
5699.39,0.01776
5695.53,0.02078
5691.67,0.01672
5687.81,0.01514
5683.96,0.01285
5680.1,0.01586
5676.24,0.01910
5672.38,0.01887
5668.53,0.01593
5664.67,0.01572
5660.81,0.01333
5656.95,0.01350
5653.1,0.01434
5649.24,0.01493
5645.38,0.01359
5641.52,0.01967
5637.67,0.01867
5633.81,0.01517
5629.95,0.01585
5626.09,0.01842
5622.24,0.01846
5618.38,0.01742
5614.52,0.01859
5610.66,0.02073
5606.81,0.01703
5602.95,0.02065
5599.09,0.02093
5595.23,0.01883
5591.38,0.01524
5587.52,0.01701
5583.66,0.01681
5579.8,0.01715
5575.95,0.01763
5572.09,0.01916
5568.23,0.01800
5564.38,0.01858
5560.52,0.01629
5556.66,0.01410
5552.8,0.01314
5548.95,0.01623
5545.09,0.01861
5541.23,0.01832
5537.37,0.01679
5533.52,0.01522
5529.66,0.01802
5525.8,0.01939
5521.94,0.02097
5518.09,0.02122
5514.23,0.02200
5510.37,0.01770
5506.51,0.01495
5502.66,0.01438
5498.8,0.01606
5494.94,0.01517
5491.08,0.01290
5487.23,0.01566
5483.37,0.02299
5479.51,0.02201
5475.65,0.01613
5471.8,0.01170
5467.94,0.01553
5464.08,0.02178
5460.22,0.01941
5456.37,0.01593
5452.51,0.01658
5448.65,0.01657
5444.79,0.01623
5440.94,0.01251
5437.08,0.01255
5433.22,0.01948
5429.36,0.02031
5425.51,0.02074
5421.65,0.01673
5417.79,0.01419
5413.93,0.01549
5410.08,0.01309
5406.22,0.01760
5402.36,0.01675
5398.5,0.02067
5394.65,0.02155
5390.79,0.01989
5386.93,0.02157
5383.07,0.01548
5379.22,0.01363
5375.36,0.01641
5371.5,0.01477
5367.65,0.01611
5363.79,0.01555
5359.93,0.01401
5356.07,0.01450
5352.22,0.01129
5348.36,0.01378
5344.5,0.01510
5340.64,0.01861
5336.79,0.01804
5332.93,0.01717
5329.07,0.01886
5325.21,0.01788
5321.36,0.01877
5317.5,0.01721
5313.64,0.02104
5309.78,0.01921
5305.93,0.01569
5302.07,0.01879
5298.21,0.01669
5294.35,0.01832
5290.5,0.01841
5286.64,0.01604
5282.78,0.01526
5278.92,0.01256
5275.07,0.01463
5271.21,0.01540
5267.35,0.01304
5263.49,0.01097
5259.64,0.01472
5255.78,0.01612
5251.92,0.01646
5248.06,0.01825
5244.21,0.01611
5240.35,0.01449
5236.49,0.01388
5232.63,0.01366
5228.78,0.01562
5224.92,0.01638
5221.06,0.01532
5217.2,0.01674
5213.35,0.01686
5209.49,0.01818
5205.63,0.01597
5201.77,0.01815
5197.92,0.01749
5194.06,0.01372
5190.2,0.01467
5186.34,0.01437
5182.49,0.01654
5178.63,0.02103
5174.77,0.01944
5170.91,0.01806
5167.06,0.01587
5163.2,0.01574
5159.34,0.01407
5155.49,0.01639
5151.63,0.01521
5147.77,0.01266
5143.91,0.01605
5140.06,0.01652
5136.2,0.01627
5132.34,0.01544
5128.48,0.01657
5124.63,0.01334
5120.77,0.01522
5116.91,0.01563
5113.05,0.01519
5109.2,0.01751
5105.34,0.01645
5101.48,0.01614
5097.62,0.01497
5093.77,0.01452
5089.91,0.01502
5086.05,0.01508
5082.19,0.01799
5078.34,0.01538
5074.48,0.01335
5070.62,0.01688
5066.76,0.01504
5062.91,0.01421
5059.05,0.01808
5055.19,0.01859
5051.33,0.01846
5047.48,0.01592
5043.62,0.01402
5039.76,0.01511
5035.9,0.01597
5032.05,0.01577
5028.19,0.01822
5024.33,0.01785
5020.47,0.01578
5016.62,0.01412
5012.76,0.01326
5008.9,0.01444
5005.04,0.01351
5001.19,0.01484
4997.33,0.01363
4993.47,0.01481
4989.61,0.01469
4985.76,0.01563
4981.9,0.01507
4978.04,0.01474
4974.18,0.01662
4970.33,0.01484
4966.47,0.01244
4962.61,0.01298
4958.76,0.01284
4954.9,0.01488
4951.04,0.01555
4947.18,0.01345
4943.33,0.01330
4939.47,0.01635
4935.61,0.01498
4931.75,0.01409
4927.9,0.01403
4924.04,0.01404
4920.18,0.01532
4916.32,0.01695
4912.47,0.01627
4908.61,0.01538
4904.75,0.01359
4900.89,0.01400
4897.04,0.01467
4893.18,0.01536
4889.32,0.01577
4885.46,0.01955
4881.61,0.01981
4877.75,0.01777
4873.89,0.01514
4870.03,0.01452
4866.18,0.01381
4862.32,0.01233
4858.46,0.01437
4854.6,0.01504
4850.75,0.01506
4846.89,0.01464
4843.03,0.01331
4839.17,0.01471
4835.32,0.01507
4831.46,0.01676
4827.6,0.01524
4823.74,0.01349
4819.89,0.01272
4816.03,0.01416
4812.17,0.01520
4808.31,0.01816
4804.46,0.01760
4800.6,0.01533
4796.74,0.01459
4792.88,0.01351
4789.03,0.01404
4785.17,0.01296
4781.31,0.01443
4777.45,0.01439
4773.6,0.01579
4769.74,0.01701
4765.88,0.01507
4762.02,0.01332
4758.17,0.01307
4754.31,0.01470
4750.45,0.01633
4746.6,0.01632
4742.74,0.01410
4738.88,0.01418
4735.02,0.01561
4731.17,0.01578
4727.31,0.01678
4723.45,0.01686
4719.59,0.01568
4715.74,0.01488
4711.88,0.01476
4708.02,0.01579
4704.16,0.01570
4700.31,0.01684
4696.45,0.01624
4692.59,0.01580
4688.73,0.01526
4684.88,0.01452
4681.02,0.01524
4677.16,0.01570
4673.3,0.01702
4669.45,0.01670
4665.59,0.01659
4661.73,0.01495
4657.87,0.01512
4654.02,0.01742
4650.16,0.01528
4646.3,0.01492
4642.44,0.01470
4638.59,0.01632
4634.73,0.01403
4630.87,0.01309
4627.01,0.01522
4623.16,0.01667
4619.3,0.01498
4615.44,0.01371
4611.58,0.01423
4607.73,0.01517
4603.87,0.01416
4600.01,0.01471
4596.15,0.01489
4592.3,0.01577
4588.44,0.01494
4584.58,0.01593
4580.72,0.01573
4576.87,0.01410
4573.01,0.01362
4569.15,0.01543
4565.29,0.01474
4561.44,0.01432
4557.58,0.01530
4553.72,0.01575
4549.87,0.01417
4546.01,0.01382
4542.15,0.01461
4538.29,0.01436
4534.44,0.01485
4530.58,0.01507
4526.72,0.01343
4522.86,0.01368
4519.01,0.01634
4515.15,0.01608
4511.29,0.01582
4507.43,0.01685
4503.58,0.01723
4499.72,0.01482
4495.86,0.01362
4492,0.01536
4488.15,0.01577
4484.29,0.01564
4480.43,0.01497
4476.57,0.01451
4472.72,0.01440
4468.86,0.01481
4465,0.01401
4461.14,0.01390
4457.29,0.01482
4453.43,0.01521
4449.57,0.01444
4445.71,0.01358
4441.86,0.01439
4438,0.01493
4434.14,0.01418
4430.28,0.01366
4426.43,0.01352
4422.57,0.01328
4418.71,0.01452
4414.85,0.01512
4411,0.01454
4407.14,0.01489
4403.28,0.01588
4399.42,0.01462
4395.57,0.01425
4391.71,0.01378
4387.85,0.01419
4383.99,0.01576
4380.14,0.01495
4376.28,0.01396
4372.42,0.01391
4368.56,0.01527
4364.71,0.01633
4360.85,0.01603
4356.99,0.01448
4353.14,0.01540
4349.28,0.01424
4345.42,0.01463
4341.56,0.01452
4337.71,0.01415
4333.85,0.01419
4329.99,0.01477
4326.13,0.01303
4322.28,0.01366
4318.42,0.01423
4314.56,0.01523
4310.7,0.01652
4306.85,0.01568
4302.99,0.01416
4299.13,0.01441
4295.27,0.01465
4291.42,0.01432
4287.56,0.01324
4283.7,0.01330
4279.84,0.01469
4275.99,0.01503
4272.13,0.01406
4268.27,0.01479
4264.41,0.01499
4260.56,0.01423
4256.7,0.01486
4252.84,0.01570
4248.98,0.01410
4245.13,0.01386
4241.27,0.01467
4237.41,0.01533
4233.55,0.01490
4229.7,0.01395
4225.84,0.01459
4221.98,0.01416
4218.12,0.01434
4214.27,0.01427
4210.41,0.01427
4206.55,0.01440
4202.69,0.01312
4198.84,0.01277
4194.98,0.01386
4191.12,0.01382
4187.26,0.01399
4183.41,0.01384
4179.55,0.01401
4175.69,0.01438
4171.83,0.01471
4167.98,0.01511
4164.12,0.01465
4160.26,0.01303
4156.4,0.01409
4152.55,0.01437
4148.69,0.01372
4144.83,0.01451
4140.98,0.01455
4137.12,0.01361
4133.26,0.01375
4129.4,0.01363
4125.55,0.01360
4121.69,0.01317
4117.83,0.01408
4113.97,0.01384
4110.12,0.01400
4106.26,0.01298
4102.4,0.01406
4098.54,0.01367
4094.69,0.01348
4090.83,0.01385
4086.97,0.01482
4083.11,0.01461
4079.26,0.01387
4075.4,0.01433
4071.54,0.01403
4067.68,0.01413
4063.83,0.01364
4059.97,0.01344
4056.11,0.01410
4052.25,0.01373
4048.4,0.01427
4044.54,0.01410
4040.68,0.01359
4036.82,0.01364
4032.97,0.01462
4029.11,0.01501
4025.25,0.01512
4021.39,0.01408
4017.54,0.01403
4013.68,0.01482
4009.82,0.01415
4005.96,0.01463
4002.11,0.01480
3998.25,0.01523
3994.39,0.01442
3990.53,0.01423
3986.68,0.01576
3982.82,0.01512
3978.96,0.01568
3975.1,0.01482
3971.25,0.01442
3967.39,0.01488
3963.53,0.01395
3959.67,0.01464
3955.82,0.01556
3951.96,0.01407
3948.1,0.01350
3944.25,0.01381
3940.39,0.01802
3936.53,0.01989
3932.67,0.01740
3928.82,0.01725
3924.96,0.01331
3921.1,0.01197
3917.24,0.01502
3913.39,0.01397
3909.53,0.01466
3905.67,0.01873
3901.81,0.01510
3897.96,0.01590
3894.1,0.01407
3890.24,0.01575
3886.38,0.01583
3882.53,0.01029
3878.67,0.01525
3874.81,0.01369
3870.95,0.00743
3867.1,0.01445
3863.24,0.01381
3859.38,0.01111
3855.52,0.01321
3851.67,0.01507
3847.81,0.01247
3843.95,0.01228
3840.09,0.01111
3836.24,0.01318
3832.38,0.01454
3828.52,0.01294
3824.66,0.00874
3820.81,0.00860
3816.95,0.01039
3813.09,0.01450
3809.23,0.01480
3805.38,0.01581
3801.52,0.01426
3797.66,0.01331
3793.8,0.01964
3789.95,0.01662
3786.09,0.02317
3782.23,0.02621
3778.37,0.02161
3774.52,0.01367
3770.66,0.01489
3766.8,0.01079
3762.94,0.00822
3759.09,0.01235
3755.23,0.00828
3751.37,0.00658
3747.51,0.01427
3743.66,0.01510
3739.8,0.01053
3735.94,0.01363
3732.09,0.01078
3728.23,0.00836
3724.37,0.01849
3720.51,0.01612
3716.66,0.01335
3712.8,0.01575
3708.94,0.01482
3705.08,0.01421
3701.23,0.01713
3697.37,0.01041
3693.51,0.00603
3689.65,0.00831
3685.8,0.01361
3681.94,0.03095
3678.08,0.01678
3674.22,0.01139
3670.37,0.00940
3666.51,0.00661
3662.65,0.01780
3658.79,0.01674
3654.94,0.01605
3651.08,0.01714
3647.22,0.01210
3643.36,0.01410
3639.51,0.01428
3635.65,0.00965
3631.79,0.01093
3627.93,0.01072
3624.08,0.01124
3620.22,0.01594
3616.36,0.01127
3612.5,0.01059
3608.65,0.00994
3604.79,0.00770
3600.93,0.01502
3597.07,0.01683
3593.22,0.01406
3589.36,0.01276
3585.5,0.00954
3581.64,0.01073
3577.79,0.01407
3573.93,0.01269
3570.07,0.01188
3566.21,0.01159
3562.36,0.01138
3558.5,0.01470
3554.64,0.01351
3550.78,0.01203
3546.93,0.01161
3543.07,0.01147
3539.21,0.01240
3535.36,0.01367
3531.5,0.01316
3527.64,0.01265
3523.78,0.01196
3519.93,0.01091
3516.07,0.01171
3512.21,0.01244
3508.35,0.01291
3504.5,0.01303
3500.64,0.01265
3496.78,0.01235
3492.92,0.01236
3489.07,0.01312
3485.21,0.01416
3481.35,0.01427
3477.49,0.01431
3473.64,0.01350
3469.78,0.01259
3465.92,0.01151
3462.06,0.01158
3458.21,0.01279
3454.35,0.01217
3450.49,0.01301
3446.63,0.01271
3442.78,0.01197
3438.92,0.01233
3435.06,0.01204
3431.2,0.01302
3427.35,0.01414
3423.49,0.01354
3419.63,0.01270
3415.77,0.01304
3411.92,0.01232
3408.06,0.01225
3404.2,0.01222
3400.34,0.01261
3396.49,0.01368
3392.63,0.01305
3388.77,0.01356
3384.91,0.01414
3381.06,0.01354
3377.2,0.01321
3373.34,0.01228
3369.48,0.01221
3365.63,0.01298
3361.77,0.01362
3357.91,0.01305
3354.05,0.01218
3350.2,0.01184
3346.34,0.01267
3342.48,0.01253
3338.63,0.01208
3334.77,0.01182
3330.91,0.01232
3327.05,0.01231
3323.2,0.01202
3319.34,0.01120
3315.48,0.01189
3311.62,0.01241
3307.77,0.01268
3303.91,0.01314
3300.05,0.01322
3296.19,0.01227
3292.34,0.01196
3288.48,0.01204
3284.62,0.01279
3280.76,0.01306
3276.91,0.01328
3273.05,0.01356
3269.19,0.01303
3265.33,0.01246
3261.48,0.01282
3257.62,0.01270
3253.76,0.01203
3249.9,0.01253
3246.05,0.01183
3242.19,0.01256
3238.33,0.01249
3234.47,0.01243
3230.62,0.01305
3226.76,0.01300
3222.9,0.01229
3219.04,0.01215
3215.19,0.01308
3211.33,0.01253
3207.47,0.01283
3203.61,0.01303
3199.76,0.01283
3195.9,0.01321
3192.04,0.01317
3188.18,0.01263
3184.33,0.01277
3180.47,0.01328
3176.61,0.01281
3172.75,0.01249
3168.9,0.01285
3165.04,0.01341
3161.18,0.01343
3157.32,0.01279
3153.47,0.01281
3149.61,0.01356
3145.75,0.01333
3141.89,0.01273
3138.04,0.01181
3134.18,0.01196
3130.32,0.01267
3126.47,0.01281
3122.61,0.01311
3118.75,0.01330
3114.89,0.01306
3111.04,0.01245
3107.18,0.01256
3103.32,0.01266
3099.46,0.01257
3095.61,0.01212
3091.75,0.01220
3087.89,0.01288
3084.03,0.01305
3080.18,0.01289
3076.32,0.01257
3072.46,0.01151
3068.6,0.01202
3064.75,0.01169
3060.89,0.01121
3057.03,0.01009
3053.17,0.00852
3049.32,0.00706
3045.46,0.00690
3041.6,0.00788
3037.74,0.00855
3033.89,0.00682
3030.03,0.00369
3026.17,0.00620
3022.31,0.00751
3018.46,0.00617
3014.6,0.00523
3010.74,0.00509
3006.88,0.00522
3003.03,0.00621
2999.17,0.00777
2995.31,0.00810
2991.45,0.00527
2987.6,0.00445
2983.74,0.00872
2979.88,0.00821
2976.02,0.00748
2972.17,0.00694
2968.31,0.00715
2964.45,0.00802
2960.59,0.00949
2956.74,0.01027
2952.88,0.01101
2949.02,0.01108
2945.16,0.01150
2941.31,0.01212
2937.45,0.01171
2933.59,0.01123
2929.74,0.01197
2925.88,0.01221
2922.02,0.01241
2918.16,0.01219
2914.31,0.01173
2910.45,0.01179
2906.59,0.01180
2902.73,0.01225
2898.88,0.01280
2895.02,0.01249
2891.16,0.01300
2887.3,0.01283
2883.45,0.01352
2879.59,0.01308
2875.73,0.01255
2871.87,0.01269
2868.02,0.01230
2864.16,0.01221
2860.3,0.01237
2856.44,0.01307
2852.59,0.01325
2848.73,0.01272
2844.87,0.01283
2841.01,0.01252
2837.16,0.01228
2833.3,0.01291
2829.44,0.01268
2825.58,0.01224
2821.73,0.01266
2817.87,0.01311
2814.01,0.01307
2810.15,0.01266
2806.3,0.01268
2802.44,0.01233
2798.58,0.01277
2794.72,0.01290
2790.87,0.01279
2787.01,0.01297
2783.15,0.01226
2779.29,0.01229
2775.44,0.01287
2771.58,0.01266
2767.72,0.01240
2763.86,0.01227
2760.01,0.01251
2756.15,0.01219
2752.29,0.01307
2748.43,0.01334
2744.58,0.01272
2740.72,0.01222
2736.86,0.01258
2733.01,0.01264
2729.15,0.01302
2725.29,0.01335
2721.43,0.01332
2717.58,0.01310
2713.72,0.01283
2709.86,0.01265
2706,0.01227
2702.15,0.01207
2698.29,0.01230
2694.43,0.01292
2690.57,0.01328
2686.72,0.01281
2682.86,0.01359
2679,0.01327
2675.14,0.01338
2671.29,0.01333
2667.43,0.01338
2663.57,0.01326
2659.71,0.01306
2655.86,0.01284
2652,0.01322
2648.14,0.01311
2644.28,0.01284
2640.43,0.01335
2636.57,0.01311
2632.71,0.01315
2628.85,0.01257
2625,0.01298
2621.14,0.01344
2617.28,0.01358
2613.42,0.01275
2609.57,0.01255
2605.71,0.01287
2601.85,0.01340
2597.99,0.01317
2594.14,0.01260
2590.28,0.01235
2586.42,0.01296
2582.56,0.01327
2578.71,0.01360
2574.85,0.01300
2570.99,0.01313
2567.13,0.01346
2563.28,0.01268
2559.42,0.01261
2555.56,0.01248
2551.7,0.01292
2547.85,0.01320
2543.99,0.01314
2540.13,0.01272
2536.27,0.01260
2532.42,0.01283
2528.56,0.01328
2524.7,0.01318
2520.85,0.01295
2516.99,0.01254
2513.13,0.01259
2509.27,0.01311
2505.42,0.01328
2501.56,0.01251
2497.7,0.01271
2493.84,0.01297
2489.99,0.01283
2486.13,0.01274
2482.27,0.01341
2478.41,0.01300
2474.56,0.01288
2470.7,0.01322
2466.84,0.01317
2462.98,0.01306
2459.13,0.01342
2455.27,0.01294
2451.41,0.01307
2447.55,0.01289
2443.7,0.01286
2439.84,0.01279
2435.98,0.01297
2432.12,0.01281
2428.27,0.01318
2424.41,0.01322
2420.55,0.01274
2416.69,0.01281
2412.84,0.01270
2408.98,0.01334
2405.12,0.01549
2401.26,0.02008
2397.41,0.02673
2393.55,0.03532
2389.69,0.04332
2385.83,0.04021
2381.98,0.02835
2378.12,0.01460
2374.26,0.00801
2370.4,0.00554
2366.55,0.00881
2362.69,0.01643
2358.83,0.01808
2354.97,0.01193
2351.12,0.01008
2347.26,0.01025
2343.4,0.01067
2339.54,0.00880
2335.69,0.00793
2331.83,0.00815
2327.97,0.00959
2324.12,0.00886
2320.26,0.00888
2316.4,0.01048
2312.54,0.01158
2308.69,0.01163
2304.83,0.01129
2300.97,0.01202
2297.11,0.01272
2293.26,0.01261
2289.4,0.01217
2285.54,0.01221
2281.68,0.01196
2277.83,0.01170
2273.97,0.01184
2270.11,0.01184
2266.25,0.01231
2262.4,0.01263
2258.54,0.01236
2254.68,0.01264
2250.82,0.01284
2246.97,0.01244
2243.11,0.01246
2239.25,0.01250
2235.39,0.01284
2231.54,0.01305
2227.68,0.01260
2223.82,0.01243
2219.96,0.01261
2216.11,0.01264
2212.25,0.01252
2208.39,0.01220
2204.53,0.01219
2200.68,0.01199
2196.82,0.01243
2192.96,0.01268
2189.1,0.01227
2185.25,0.01246
2181.39,0.01277
2177.53,0.01260
2173.67,0.01237
2169.82,0.01239
2165.96,0.01259
2162.1,0.01278
2158.24,0.01264
2154.39,0.01260
2150.53,0.01236
2146.67,0.01244
2142.81,0.01216
2138.96,0.01196
2135.1,0.01252
2131.24,0.01255
2127.38,0.01167
2123.53,0.01198
2119.67,0.01247
2115.81,0.01207
2111.96,0.01183
2108.1,0.01212
2104.24,0.01230
2100.38,0.01212
2096.53,0.01242
2092.67,0.01267
2088.81,0.01234
2084.95,0.01229
2081.1,0.01227
2077.24,0.01222
2073.38,0.01176
2069.52,0.01236
2065.67,0.01246
2061.81,0.01231
2057.95,0.01202
2054.09,0.01224
2050.24,0.01203
2046.38,0.01235
2042.52,0.01240
2038.66,0.01256
2034.81,0.01251
2030.95,0.01193
2027.09,0.01248
2023.23,0.01294
2019.38,0.01241
2015.52,0.01199
2011.66,0.01279
2007.8,0.01279
2003.95,0.01134
2000.09,0.01085
1996.23,0.01190
1992.37,0.01228
1988.52,0.01260
1984.66,0.01364
1980.8,0.01285
1976.94,0.01190
1973.09,0.01263
1969.23,0.01266
1965.37,0.01289
1961.51,0.01396
1957.66,0.01314
1953.8,0.01118
1949.94,0.01175
1946.08,0.01299
1942.23,0.01349
1938.37,0.01355
1934.51,0.01297
1930.65,0.01078
1926.8,0.01156
1922.94,0.01204
1919.08,0.01179
1915.23,0.01242
1911.37,0.01324
1907.51,0.01378
1903.65,0.01274
1899.8,0.01193
1895.94,0.01200
1892.08,0.01255
1888.22,0.01466
1884.37,0.01553
1880.51,0.01096
1876.65,0.00917
1872.79,0.01154
1868.94,0.01225
1865.08,0.01392
1861.22,0.01693
1857.36,0.01233
1853.51,0.00917
1849.65,0.01170
1845.79,0.01443
1841.93,0.01299
1838.08,0.00996
1834.22,0.00987
1830.36,0.01169
1826.5,0.01315
1822.65,0.01180
1818.79,0.01255
1814.93,0.01357
1811.07,0.01208
1807.22,0.01254
1803.36,0.00950
1799.5,0.00931
1795.64,0.01229
1791.79,0.01292
1787.93,0.01566
1784.07,0.01111
1780.21,0.00800
1776.36,0.01093
1772.5,0.01133
1768.64,0.01126
1764.78,0.01443
1760.93,0.01119
1757.07,0.00868
1753.21,0.01022
1749.35,0.01389
1745.5,0.00870
1741.64,0.00587
1737.78,0.01062
1733.92,0.02087
1730.07,0.01694
1726.21,0.00726
1722.35,0.01015
1718.5,0.01736
1714.64,0.01900
1710.78,0.01071
1706.92,0.00560
1703.07,0.01036
1699.21,0.02033
1695.35,0.00982
1691.49,0.00649
1687.64,0.01254
1683.78,0.01250
1679.92,0.00894
1676.06,0.00893
1672.21,0.01172
1668.35,0.02297
1664.49,0.01431
1660.63,0.00748
1656.78,0.00750
1652.92,0.01092
1649.06,0.01443
1645.2,0.00717
1641.35,0.00924
1637.49,0.01344
1633.63,0.01259
1629.77,0.01116
1625.92,0.00869
1622.06,0.00977
1618.2,0.01154
1614.34,0.01061
1610.49,0.01148
1606.63,0.01255
1602.77,0.01108
1598.91,0.01107
1595.06,0.01235
1591.2,0.01714
1587.34,0.01382
1583.48,0.00993
1579.63,0.01052
1575.77,0.01360
1571.91,0.02356
1568.05,0.00703
1564.2,0.00587
1560.34,0.01063
1556.48,0.02327
1552.62,0.01615
1548.77,0.00479
1544.91,0.00744
1541.05,0.01029
1537.19,0.01545
1533.34,0.01240
1529.48,0.00742
1525.62,0.00745
1521.76,0.01874
1517.91,0.00929
1514.05,0.00478
1510.19,0.01267
1506.34,0.01023
1502.48,0.01374
1498.62,0.00920
1494.76,0.00794
1490.91,0.01203
1487.05,0.01707
1483.19,0.00935
1479.33,0.00683
1475.48,0.01012
1471.62,0.01574
1467.76,0.01073
1463.9,0.00432
1460.05,0.00838
1456.19,0.00765
1452.33,0.00879
1448.47,0.01000
1444.62,0.00609
1440.76,0.00355
1436.9,0.00277
1433.04,0.00283
1429.19,0.00169
1425.33,0.00137
1421.47,0.00176
1417.61,0.00208
1413.76,0.00293
1409.9,0.00264
1406.04,0.00147
1402.18,0.00170
1398.33,0.00346
1394.47,0.00419
1390.61,0.00615
1386.75,0.00751
1382.9,0.00533
1379.04,0.00403
1375.18,0.00563
1371.32,0.00554
1367.47,0.00507
1363.61,0.00619
1359.75,0.00734
1355.89,0.00860
1352.04,0.01039
1348.18,0.00857
1344.32,0.00723
1340.46,0.00850
1336.61,0.00969
1332.75,0.01030
1328.89,0.01125
1325.03,0.01020
1321.18,0.00964
1317.32,0.01034
1313.46,0.01073
1309.61,0.01011
1305.75,0.01062
1301.89,0.01093
1298.03,0.01088
1294.18,0.01055
1290.32,0.01073
1286.46,0.01106
1282.6,0.01177
1278.75,0.01145
1274.89,0.01201
1271.03,0.01192
1267.17,0.01123
1263.32,0.01167
1259.46,0.01183
1255.6,0.01118
1251.74,0.01197
1247.89,0.01204
1244.03,0.01192
1240.17,0.01211
1236.31,0.01235
1232.46,0.01256
1228.6,0.01196
1224.74,0.01117
1220.88,0.01159
1217.03,0.01151
1213.17,0.01267
1209.31,0.01230
1205.45,0.01074
1201.6,0.01032
1197.74,0.00994
1193.88,0.00946
1190.02,0.00918
1186.17,0.00925
1182.31,0.00870
1178.45,0.00697
1174.59,0.00570
1170.74,0.00490
1166.88,0.00475
1163.02,0.00311
1159.16,0.00259
1155.31,0.00115
1151.45,0.00021
1147.59,0.00001
1143.73,0.00113
1139.88,0.00077
1136.02,0.00122
1132.16,0.00100
1128.3,0.00047
1124.45,0.00065
1120.59,0.00240
1116.73,0.00360
1112.88,0.00543
1109.02,0.00639
1105.16,0.00682
1101.3,0.00860
1097.45,0.00989
1093.59,0.00966
1089.73,0.01014
1085.87,0.00967
1082.02,0.01154
1078.16,0.01052
1074.3,0.01112
1070.44,0.01122
1066.59,0.01099
1062.73,0.01179
1058.87,0.01214
1055.01,0.01270
1051.16,0.01273
1047.3,0.01150
1043.44,0.01161
1039.58,0.01131
1035.73,0.01159
1031.87,0.01173
1028.01,0.01172
1024.15,0.01178
1020.3,0.01251
1016.44,0.01338
1012.58,0.01244
1008.72,0.01258
1004.87,0.01172
1001.01,0.01266
997.151,0.01237
993.294,0.01160
989.437,0.01085
985.579,0.01049
981.722,0.00927
977.864,0.00703
974.007,0.00646
970.149,0.00569
966.292,0.00372
962.434,0.00207
958.577,0.00172
954.719,0.00235
950.862,0.00253
947.005,0.00179
943.147,0.00196
939.29,0.00296
935.432,0.00471
931.575,0.00365
927.717,0.00276
923.86,0.00501
920.002,0.00753
916.145,0.00786
912.287,0.00797
908.43,0.00864
904.573,0.01040
900.715,0.01113
896.858,0.01013
893,0.00909
889.143,0.00866
885.285,0.00792
881.428,0.00864
877.57,0.00874
873.713,0.01010
869.856,0.00968
865.998,0.00986
862.141,0.01152
858.283,0.01072
854.426,0.00940
850.568,0.00904
846.711,0.01065
842.853,0.01254
838.996,0.01277
835.138,0.01115
831.281,0.01079
827.424,0.01157
823.566,0.01126
819.709,0.01223
815.851,0.01187
811.994,0.01066
808.136,0.01164
804.279,0.01201
800.421,0.01040
796.564,0.01015
792.706,0.01029
788.849,0.00970
784.992,0.01059
781.134,0.01125
777.277,0.01691
773.419,0.01436
769.562,0.01070
765.704,0.01005
761.847,0.00989
757.989,0.01017
754.132,0.00908
750.274,0.00895
746.417,0.00967
742.56,0.01128
738.702,0.01003
734.845,0.00955
730.987,0.01042
727.13,0.01010
723.272,0.01071
719.415,0.00989
715.557,0.00962
711.7,0.00966
707.843,0.00843
703.985,0.00987
700.128,0.01053
696.27,0.01140
692.413,0.01075
688.555,0.01088
684.698,0.00870
680.84,0.00841
676.983,0.01046
673.125,0.01140
669.268,0.00623
665.411,0.00924
661.553,0.01232
657.696,0.01272
653.838,0.01009
649.981,0.00974
646.123,0.01041
642.266,0.01118
638.408,0.01026
634.551,0.01237
630.693,0.01201
626.836,0.00929
622.979,0.00837
619.121,0.00875
615.264,0.01017
611.406,0.01148
607.549,0.01150
603.691,0.01138
599.834,0.01271
595.976,0.00911
592.119,0.00894
588.261,0.01017
584.404,0.01172
580.547,0.01227
576.689,0.01074
572.832,0.01030
568.974,0.00883
565.117,0.00917
561.259,0.00879
557.402,0.01053
553.544,0.01041
549.687,0.01131
545.83,0.01222
541.972,0.01020
538.115,0.01025
534.257,0.01261
530.4,0.01160
526.542,0.00782
522.685,0.01117
518.827,0.01332
514.97,0.01307
511.112,0.00990
507.255,0.00784
503.398,0.00807
499.54,0.00570
495.683,0.00624
491.825,0.00767
487.968,0.00484
484.11,0.00371
480.253,0.01199
476.395,0.01415
472.538,0.00688
468.68,0.00680
464.823,0.01126
460.966,0.00683
457.108,0.00038
453.251,0.01316
449.393,0.01901
445.536,0.01616
441.678,0.01577
437.821,0.00632
433.963,0.00557
430.106,0.02341
426.248,0.02218
422.391,0.01595
418.534,0.01045
414.676,0.00475
410.819,0.01475
406.961,0.00001
403.104,0.00524
399.246,0.03805