File: 01_Data/Polyester_Fabric/FTIR/IS/Polyester_Fabric_IS_T_221019_R7.dpt
7497.03,0.03251
7491.24,0.01794
7485.46,0.02206
7479.67,0.02234
7473.88,0.03521
7468.1,0.02411
7462.31,0.02244
7456.53,0.02209
7450.74,0.02611
7444.95,0.02836
7439.17,0.02105
7433.38,0.02458
7427.59,0.02856
7421.81,0.02710
7416.02,0.02419
7410.24,0.01985
7404.45,0.03245
7398.66,0.03558
7392.88,0.02509
7387.09,0.02513
7381.31,0.02620
7375.52,0.02758
7369.73,0.02311
7363.95,0.02450
7358.16,0.01943
7352.37,0.02418
7346.59,0.02750
7340.8,0.02491
7335.02,0.03158
7329.23,0.02697
7323.44,0.02349
7317.66,0.02470
7311.87,0.01926
7306.08,0.01811
7300.3,0.01599
7294.51,0.02407
7288.73,0.02577
7282.94,0.03026
7277.15,0.02983
7271.37,0.03375
7265.58,0.02388
7259.79,0.02447
7254.01,0.02896
7248.22,0.01519
7242.44,0.02386
7236.65,0.02267
7230.86,0.02432
7225.08,0.02209
7219.29,0.02207
7213.5,0.02606
7207.72,0.02415
7201.93,0.02606
7196.15,0.03139
7190.36,0.02482
7184.57,0.02621
7178.79,0.02493
7173,0.02646
7167.21,0.02471
7161.43,0.02323
7155.64,0.02024
7149.86,0.02567
7144.07,0.02472
7138.28,0.02145
7132.5,0.01798
7126.71,0.01970
7120.92,0.02551
7115.14,0.02257
7109.35,0.02310
7103.57,0.02272
7097.78,0.02529
7091.99,0.02829
7086.21,0.02254
7080.42,0.02155
7074.63,0.02574
7068.85,0.02261
7063.06,0.01763
7057.28,0.02562
7051.49,0.02331
7045.7,0.02316
7039.92,0.02460
7034.13,0.02082
7028.34,0.02741
7022.56,0.02548
7016.77,0.02223
7010.99,0.02583
7005.2,0.02225
6999.41,0.01933
6993.63,0.01943
6987.84,0.02548
6982.06,0.02440
6976.27,0.02143
6970.48,0.02365
6964.7,0.02179
6958.91,0.02308
6953.12,0.02298
6947.34,0.02166
6941.55,0.02767
6935.77,0.02351
6929.98,0.02225
6924.19,0.02370
6918.41,0.02210
6912.62,0.02383
6906.83,0.01855
6901.05,0.02316
6895.26,0.02442
6889.48,0.02627
6883.69,0.02117
6877.9,0.01655
6872.12,0.02263
6866.33,0.02310
6860.54,0.02281
6854.76,0.02333
6848.97,0.02756
6843.19,0.02604
6837.4,0.02263
6831.61,0.01870
6825.83,0.02334
6820.04,0.02117
6814.25,0.02541
6808.47,0.02772
6802.68,0.02722
6796.9,0.02190
6791.11,0.02217
6785.32,0.02505
6779.54,0.02600
6773.75,0.02822
6767.96,0.02485
6762.18,0.02353
6756.39,0.02705
6750.61,0.02365
6744.82,0.02783
6739.03,0.02320
6733.25,0.02699
6727.46,0.02197
6721.67,0.02444
6715.89,0.01636
6710.1,0.02289
6704.32,0.02309
6698.53,0.02321
6692.74,0.02569
6686.96,0.02129
6681.17,0.02232
6675.38,0.01812
6669.6,0.02462
6663.81,0.02736
6658.03,0.02112
6652.24,0.02255
6646.45,0.02486
6640.67,0.01929
6634.88,0.02141
6629.09,0.02291
6623.31,0.02561
6617.52,0.02698
6611.74,0.02564
6605.95,0.02565
6600.16,0.02101
6594.38,0.02157
6588.59,0.02382
6582.8,0.02000
6577.02,0.02013
6571.23,0.02449
6565.45,0.02145
6559.66,0.01942
6553.87,0.02214
6548.09,0.01927
6542.3,0.02396
6536.52,0.02139
6530.73,0.01795
6524.94,0.02273
6519.16,0.02398
6513.37,0.02050
6507.58,0.02394
6501.8,0.01975
6496.01,0.01859
6490.23,0.02094
6484.44,0.02172
6478.65,0.02541
6472.87,0.02218
6467.08,0.02266
6461.29,0.02239
6455.51,0.02343
6449.72,0.02613
6443.94,0.02218
6438.15,0.02490
6432.36,0.02402
6426.58,0.02136
6420.79,0.02164
6415,0.02258
6409.22,0.01895
6403.43,0.02465
6397.65,0.02288
6391.86,0.02437
6386.07,0.02527
6380.29,0.02509
6374.5,0.02234
6368.71,0.02205
6362.93,0.02469
6357.14,0.02338
6351.36,0.02413
6345.57,0.01937
6339.78,0.02070
6334,0.01620
6328.21,0.02244
6322.42,0.01936
6316.64,0.02550
6310.85,0.02509
6305.07,0.02499
6299.28,0.02110
6293.49,0.02173
6287.71,0.02077
6281.92,0.02238
6276.13,0.02220
6270.35,0.01972
6264.56,0.01883
6258.78,0.02261
6252.99,0.01923
6247.2,0.02252
6241.42,0.02381
6235.63,0.02334
6229.84,0.01943
6224.06,0.02133
6218.27,0.02354
6212.49,0.02035
6206.7,0.02581
6200.91,0.02076
6195.13,0.02110
6189.34,0.02282
6183.55,0.02562
6177.77,0.02335
6171.98,0.01983
6166.2,0.02286
6160.41,0.01909
6154.62,0.02153
6148.84,0.02238
6143.05,0.02602
6137.26,0.02249
6131.48,0.02334
6125.69,0.02373
6119.91,0.02452
6114.12,0.02141
6108.33,0.01974
6102.55,0.02151
6096.76,0.02065
6090.98,0.02062
6085.19,0.02315
6079.4,0.02339
6073.62,0.02401
6067.83,0.02001
6062.04,0.02275
6056.26,0.02236
6050.47,0.02231
6044.69,0.02061
6038.9,0.02127
6033.11,0.02052
6027.33,0.02207
6021.54,0.02350
6015.75,0.02091
6009.97,0.02096
6004.18,0.02222
5998.4,0.02041
5992.61,0.02314
5986.82,0.02468
5981.04,0.02082
5975.25,0.02143
5969.46,0.02228
5963.68,0.02074
5957.89,0.02068
5952.11,0.02313
5946.32,0.02156
5940.53,0.02075
5934.75,0.02124
5928.96,0.02232
5923.17,0.02226
5917.39,0.02296
5911.6,0.02124
5905.82,0.02202
5900.03,0.01906
5894.24,0.02234
5888.46,0.02176
5882.67,0.02262
5876.88,0.02240
5871.1,0.01935
5865.31,0.02177
5859.53,0.02267
5853.74,0.02369
5847.95,0.02121
5842.17,0.02152
5836.38,0.02317
5830.59,0.02257
5824.81,0.02265
5819.02,0.02238
5813.24,0.02209
5807.45,0.02207
5801.66,0.02231
5795.88,0.02156
5790.09,0.02206
5784.3,0.02063
5778.52,0.02313
5772.73,0.02160
5766.95,0.02078
5761.16,0.02125
5755.37,0.02097
5749.59,0.02329
5743.8,0.02436
5738.01,0.02274
5732.23,0.02148
5726.44,0.02254
5720.66,0.02278
5714.87,0.02199
5709.08,0.02328
5703.3,0.02135
5697.51,0.02276
5691.72,0.02298
5685.94,0.01978
5680.15,0.02060
5674.37,0.02235
5668.58,0.02271
5662.79,0.02219
5657.01,0.02089
5651.22,0.02270
5645.44,0.02095
5639.65,0.02078
5633.86,0.02231
5628.08,0.01949
5622.29,0.02183
5616.5,0.02196
5610.72,0.02254
5604.93,0.02310
5599.15,0.02167
5593.36,0.02222
5587.57,0.02331
5581.79,0.02035
5576,0.02162
5570.21,0.01977
5564.43,0.02097
5558.64,0.02318
5552.86,0.02177
5547.07,0.02255
5541.28,0.02149
5535.5,0.02236
5529.71,0.02290
5523.92,0.02103
5518.14,0.02335
5512.35,0.02436
5506.57,0.02377
5500.78,0.02307
5494.99,0.02260
5489.21,0.02184
5483.42,0.02129
5477.63,0.02174
5471.85,0.02139
5466.06,0.02307
5460.28,0.02007
5454.49,0.02204
5448.7,0.02021
5442.92,0.02098
5437.13,0.02028
5431.34,0.02166
5425.56,0.02160
5419.77,0.02016
5413.99,0.02065
5408.2,0.02191
5402.41,0.02365
5396.63,0.02417
5390.84,0.02220
5385.05,0.02198
5379.27,0.02271
5373.48,0.02157
5367.7,0.02079
5361.91,0.02215
5356.12,0.02232
5350.34,0.02208
5344.55,0.02209
5338.76,0.02091
5332.98,0.02087
5327.19,0.02183
5321.41,0.02265
5315.62,0.02318
5309.83,0.02215
5304.05,0.02234
5298.26,0.02209
5292.47,0.02104
5286.69,0.02382
5280.9,0.02343
5275.12,0.02202
5269.33,0.02218
5263.54,0.02027
5257.76,0.02192
5251.97,0.02052
5246.18,0.02194
5240.4,0.02259
5234.61,0.02094
5228.83,0.02218
5223.04,0.02160
5217.25,0.02192
5211.47,0.02074
5205.68,0.02149
5199.9,0.02212
5194.11,0.02199
5188.32,0.02213
5182.54,0.02227
5176.75,0.02372
5170.96,0.02302
5165.18,0.02142
5159.39,0.02078
5153.61,0.02230
5147.82,0.02085
5142.03,0.01999
5136.25,0.02159
5130.46,0.02192
5124.67,0.02166
5118.89,0.02203
5113.1,0.02157
5107.32,0.02213
5101.53,0.02191
5095.74,0.02198
5089.96,0.02044
5084.17,0.02181
5078.38,0.02137
5072.6,0.02332
5066.81,0.02288
5061.03,0.02151
5055.24,0.02174
5049.45,0.02319
5043.67,0.02173
5037.88,0.02191
5032.09,0.02099
5026.31,0.02095
5020.52,0.02101
5014.74,0.02172
5008.95,0.02129
5003.16,0.02073
4997.38,0.02213
4991.59,0.02334
4985.8,0.02120
4980.02,0.02181
4974.23,0.02196
4968.45,0.02112
4962.66,0.02145
4956.87,0.02225
4951.09,0.02265
4945.3,0.02325
4939.51,0.02211
4933.73,0.02195
4927.94,0.02092
4922.16,0.02292
4916.37,0.02227
4910.58,0.02193
4904.8,0.02267
4899.01,0.02222
4893.22,0.02067
4887.44,0.02190
4881.65,0.02227
4875.87,0.02196
4870.08,0.02223
4864.29,0.02101
4858.51,0.02102
4852.72,0.02153
4846.93,0.02303
4841.15,0.02268
4835.36,0.02220
4829.58,0.02211
4823.79,0.02207
4818,0.02175
4812.22,0.02127
4806.43,0.02111
4800.65,0.02139
4794.86,0.02196
4789.07,0.02257
4783.29,0.02263
4777.5,0.02225
4771.71,0.02201
4765.93,0.02177
4760.14,0.02171
4754.36,0.02193
4748.57,0.02200
4742.78,0.02285
4737,0.02241
4731.21,0.02311
4725.42,0.02177
4719.64,0.02207
4713.85,0.02232
4708.07,0.02254
4702.28,0.02305
4696.49,0.02147
4690.71,0.02168
4684.92,0.02233
4679.13,0.02137
4673.35,0.02324
4667.56,0.02100
4661.78,0.02178
4655.99,0.02261
4650.2,0.02231
4644.42,0.02259
4638.63,0.02209
4632.84,0.02243
4627.06,0.02272
4621.27,0.02289
4615.49,0.02145
4609.7,0.02194
4603.91,0.02181
4598.13,0.02240
4592.34,0.02197
4586.55,0.02190
4580.77,0.02200
4574.98,0.02184
4569.2,0.02067
4563.41,0.02251
4557.62,0.02188
4551.84,0.02223
4546.05,0.02244
4540.26,0.02189
4534.48,0.02236
4528.69,0.02306
4522.91,0.02235
4517.12,0.02223
4511.33,0.02145
4505.55,0.02180
4499.76,0.02246
4493.97,0.02157
4488.19,0.02251
4482.4,0.02272
4476.62,0.02258
4470.83,0.02264
4465.04,0.02187
4459.26,0.02188
4453.47,0.02262
4447.68,0.02125
4441.9,0.02222
4436.11,0.02267
4430.33,0.02176
4424.54,0.02198
4418.75,0.02246
4412.97,0.02203
4407.18,0.02239
4401.39,0.02260
4395.61,0.02230
4389.82,0.02179
4384.04,0.02217
4378.25,0.02186
4372.46,0.02240
4366.68,0.02171
4360.89,0.02324
4355.11,0.02197
4349.32,0.02233
4343.53,0.02287
4337.75,0.02238
4331.96,0.02212
4326.17,0.02259
4320.39,0.02275
4314.6,0.02171
4308.82,0.02225
4303.03,0.02311
4297.24,0.02203
4291.46,0.02259
4285.67,0.02270
4279.88,0.02227
4274.1,0.02236
4268.31,0.02215
4262.53,0.02222
4256.74,0.02245
4250.95,0.02291
4245.17,0.02190
4239.38,0.02234
4233.59,0.02168
4227.81,0.02241
4222.02,0.02178
4216.24,0.02236
4210.45,0.02166
4204.66,0.02271
4198.88,0.02131
4193.09,0.02200
4187.3,0.02252
4181.52,0.02242
4175.73,0.02213
4169.95,0.02308
4164.16,0.02256
4158.37,0.02225
4152.59,0.02235
4146.8,0.02280
4141.01,0.02335
4135.23,0.02239
4129.44,0.02234
4123.66,0.02282
4117.87,0.02305
4112.08,0.02235
4106.3,0.02269
4100.51,0.02221
4094.72,0.02219
4088.94,0.02285
4083.15,0.02279
4077.37,0.02318
4071.58,0.02238
4065.79,0.02271
4060.01,0.02224
4054.22,0.02240
4048.43,0.02192
4042.65,0.02311
4036.86,0.02269
4031.08,0.02235
4025.29,0.02199
4019.5,0.02228
4013.72,0.02147
4007.93,0.02241
4002.14,0.02267
3996.36,0.02265
3990.57,0.02201
3984.79,0.02229
3979,0.02233
3973.21,0.02267
3967.43,0.02316
3961.64,0.02240
3955.85,0.02224
3950.07,0.02271
3944.28,0.02256
3938.5,0.02181
3932.71,0.02234
3926.92,0.02278
3921.14,0.02332
3915.35,0.02273
3909.57,0.02260
3903.78,0.02270
3897.99,0.02196
3892.21,0.02294
3886.42,0.02256
3880.63,0.02285
3874.85,0.02253
3869.06,0.02254
3863.28,0.02269
3857.49,0.02278
3851.7,0.02257
3845.92,0.02260
3840.13,0.02329
3834.34,0.02216
3828.56,0.02287
3822.77,0.02296
3816.99,0.02334
3811.2,0.02262
3805.41,0.02251
3799.63,0.02345
3793.84,0.02278
3788.05,0.02226
3782.27,0.02250
3776.48,0.02239
3770.7,0.02214
3764.91,0.02186
3759.12,0.02287
3753.34,0.02256
3747.55,0.02215
3741.76,0.02253
3735.98,0.02270
3730.19,0.02278
3724.41,0.02244
3718.62,0.02187
3712.83,0.02270
3707.05,0.02266
3701.26,0.02284
3695.47,0.02192
3689.69,0.02228
3683.9,0.02219
3678.12,0.02207
3672.33,0.02287
3666.54,0.02212
3660.76,0.02205
3654.97,0.02183
3649.18,0.02155
3643.4,0.02185
3637.61,0.02234
3631.83,0.02204
3626.04,0.02174
3620.25,0.02196
3614.47,0.02142
3608.68,0.02163
3602.89,0.02079
3597.11,0.02171
3591.32,0.02190
3585.54,0.02124
3579.75,0.02161
3573.96,0.02185
3568.18,0.02148
3562.39,0.02090
3556.6,0.02124
3550.82,0.02059
3545.03,0.02079
3539.25,0.02168
3533.46,0.02093
3527.67,0.02117
3521.89,0.02208
3516.1,0.02115
3510.31,0.02048
3504.53,0.02034
3498.74,0.02036
3492.96,0.02076
3487.17,0.02076
3481.38,0.02143
3475.6,0.02060
3469.81,0.02060
3464.03,0.02125
3458.24,0.02029
3452.45,0.02083
3446.67,0.01958
3440.88,0.02093
3435.09,0.02078
3429.31,0.02048
3423.52,0.02099
3417.74,0.02087
3411.95,0.02092
3406.16,0.01989
3400.38,0.01992
3394.59,0.02007
3388.8,0.02015
3383.02,0.02072
3377.23,0.02032
3371.45,0.01972
3365.66,0.02063
3359.87,0.02064
3354.09,0.01985
3348.3,0.02041
3342.51,0.02072
3336.73,0.02069
3330.94,0.02108
3325.16,0.02061
3319.37,0.02017
3313.58,0.02022
3307.8,0.02031
3302.01,0.02024
3296.22,0.02001
3290.44,0.01984
3284.65,0.02054
3278.87,0.02014
3273.08,0.02045
3267.29,0.02028
3261.51,0.02046
3255.72,0.02060
3249.93,0.02071
3244.15,0.02031
3238.36,0.02048
3232.58,0.02016
3226.79,0.02069
3221,0.02044
3215.22,0.02086
3209.43,0.02069
3203.64,0.02081
3197.86,0.02092
3192.07,0.02065
3186.29,0.02119
3180.5,0.02073
3174.71,0.02114
3168.93,0.02022
3163.14,0.02102
3157.35,0.02113
3151.57,0.02081
3145.78,0.02033
3140,0.02164
3134.21,0.02066
3128.42,0.02045
3122.64,0.02069
3116.85,0.02073
3111.06,0.02103
3105.28,0.02061
3099.49,0.02104
3093.71,0.02067
3087.92,0.02073
3082.13,0.02067
3076.35,0.02060
3070.56,0.02032
3064.77,0.02024
3058.99,0.02087
3053.2,0.02055
3047.42,0.02023
3041.63,0.02009
3035.84,0.02038
3030.06,0.02059
3024.27,0.02057
3018.49,0.02047
3012.7,0.02092
3006.91,0.02087
3001.13,0.02078
2995.34,0.02048
2989.55,0.02009
2983.77,0.02032
2977.98,0.01944
2972.2,0.01993
2966.41,0.01972
2960.62,0.02006
2954.84,0.01983
2949.05,0.02013
2943.26,0.01988
2937.48,0.01993
2931.69,0.01988
2925.91,0.01943
2920.12,0.01980
2914.33,0.02061
2908.55,0.02018
2902.76,0.02016
2896.97,0.02045
2891.19,0.02057
2885.4,0.02066
2879.62,0.02042
2873.83,0.02089
2868.04,0.02078
2862.26,0.02091
2856.47,0.02121
2850.68,0.02137
2844.9,0.02121
2839.11,0.02126
2833.33,0.02112
2827.54,0.02139
2821.75,0.02164
2815.97,0.02104
2810.18,0.02111
2804.39,0.02099
2798.61,0.02143
2792.82,0.02145
2787.04,0.02144
2781.25,0.02110
2775.46,0.02179
2769.68,0.02140
2763.89,0.02126
2758.1,0.02143
2752.32,0.02138
2746.53,0.02104
2740.75,0.02164
2734.96,0.02116
2729.17,0.02174
2723.39,0.02087
2717.6,0.02135
2711.81,0.02109
2706.03,0.02100
2700.24,0.02146
2694.46,0.02142
2688.67,0.02127
2682.88,0.02109
2677.1,0.02147
2671.31,0.02106
2665.52,0.02148
2659.74,0.02110
2653.95,0.02084
2648.17,0.02155
2642.38,0.02144
2636.59,0.02150
2630.81,0.02147
2625.02,0.02151
2619.24,0.02131
2613.45,0.02122
2607.66,0.02127
2601.88,0.02146
2596.09,0.02161
2590.3,0.02163
2584.52,0.02148
2578.73,0.02129
2572.95,0.02109
2567.16,0.02113
2561.37,0.02141
2555.59,0.02134
2549.8,0.02152
2544.01,0.02153
2538.23,0.02121
2532.44,0.02111
2526.66,0.02126
2520.87,0.02127
2515.08,0.02121
2509.3,0.02127
2503.51,0.02122
2497.72,0.02120
2491.94,0.02143
2486.15,0.02152
2480.37,0.02127
2474.58,0.02118
2468.79,0.02107
2463.01,0.02143
2457.22,0.02130
2451.43,0.02141
2445.65,0.02176
2439.86,0.02133
2434.08,0.02129
2428.29,0.02116
2422.5,0.02125
2416.72,0.02082
2410.93,0.02147
2405.14,0.02109
2399.36,0.02080
2393.57,0.02123
2387.79,0.02127
2382,0.02104
2376.21,0.02158
2370.43,0.02163
2364.64,0.02145
2358.85,0.02172
2353.07,0.02141
2347.28,0.02163
2341.5,0.02174
2335.71,0.02140
2329.92,0.02129
2324.14,0.02117
2318.35,0.02078
2312.56,0.02141
2306.78,0.02128
2300.99,0.02117
2295.21,0.02108
2289.42,0.02148
2283.63,0.02127
2277.85,0.02139
2272.06,0.02109
2266.27,0.02114
2260.49,0.02098
2254.7,0.02150
2248.92,0.02098
2243.13,0.02110
2237.34,0.02111
2231.56,0.02140
2225.77,0.02129
2219.98,0.02112
2214.2,0.02134
2208.41,0.02099
2202.63,0.02096
2196.84,0.02099
2191.05,0.02107
2185.27,0.02133
2179.48,0.02117
2173.7,0.02108
2167.91,0.02127
2162.12,0.02122
2156.34,0.02129
2150.55,0.02107
2144.76,0.02121
2138.98,0.02128
2133.19,0.02117
2127.41,0.02084
2121.62,0.02108
2115.83,0.02082
2110.05,0.02121
2104.26,0.02106
2098.47,0.02117
2092.69,0.02117
2086.9,0.02131
2081.12,0.02109
2075.33,0.02133
2069.54,0.02126
2063.76,0.02111
2057.97,0.02097
2052.18,0.02096
2046.4,0.02070
2040.61,0.02077
2034.83,0.02126
2029.04,0.02129
2023.25,0.02107
2017.47,0.02089
2011.68,0.02109
2005.89,0.02134
2000.11,0.02116
1994.32,0.02120
1988.54,0.02079
1982.75,0.02100
1976.96,0.02076
1971.18,0.02077
1965.39,0.02099
1959.6,0.02075
1953.82,0.02089
1948.03,0.02112
1942.25,0.02094
1936.46,0.02091
1930.67,0.02116
1924.89,0.02091
1919.1,0.02084
1913.31,0.02079
1907.53,0.02118
1901.74,0.02080
1895.96,0.02070
1890.17,0.02099
1884.38,0.02070
1878.6,0.02043
1872.81,0.02085
1867.02,0.02068
1861.24,0.02068
1855.45,0.02053
1849.67,0.02060
1843.88,0.02042
1838.09,0.02030
1832.31,0.02031
1826.52,0.02034
1820.73,0.02008
1814.95,0.02008
1809.16,0.02018
1803.38,0.01993
1797.59,0.02000
1791.8,0.01962
1786.02,0.01956
1780.23,0.01926
1774.44,0.01901
1768.66,0.01871
1762.87,0.01835
1757.09,0.01787
1751.3,0.01783
1745.51,0.01799
1739.73,0.01890
1733.94,0.01994
1728.16,0.02024
1722.37,0.02085
1716.58,0.02077
1710.8,0.01993
1705.01,0.01993
1699.22,0.01989
1693.44,0.01936
1687.65,0.01917
1681.87,0.01856
1676.08,0.01839
1670.29,0.01859
1664.51,0.01839
1658.72,0.01809
1652.93,0.01839
1647.15,0.01819
1641.36,0.01823
1635.58,0.01831
1629.79,0.01825
1624,0.01864
1618.22,0.01869
1612.43,0.01859
1606.64,0.01880
1600.86,0.01865
1595.07,0.01872
1589.29,0.01835
1583.5,0.01841
1577.71,0.01838
1571.93,0.01829
1566.14,0.01804
1560.35,0.01771
1554.57,0.01782
1548.78,0.01831
1543,0.01865
1537.21,0.01860
1531.42,0.01825
1525.64,0.01834
1519.85,0.01852
1514.06,0.01850
1508.28,0.01844
1502.49,0.01834
1496.71,0.01848
1490.92,0.01855
1485.13,0.01837
1479.35,0.01819
1473.56,0.01809
1467.77,0.01796
1461.99,0.01823
1456.2,0.01875
1450.42,0.01840
1444.63,0.01866
1438.84,0.01845
1433.06,0.01877
1427.27,0.01881
1421.48,0.01856
1415.7,0.01831
1409.91,0.01812
1404.13,0.01831
1398.34,0.01862
1392.55,0.01824
1386.77,0.01821
1380.98,0.01782
1375.19,0.01790
1369.41,0.01784
1363.62,0.01818
1357.84,0.01816
1352.05,0.01807
1346.26,0.01775
1340.48,0.01771
1334.69,0.01741
1328.9,0.01700
1323.12,0.01728
1317.33,0.01670
1311.55,0.01704
1305.76,0.01692
1299.97,0.01712
1294.19,0.01747
1288.4,0.01795
1282.62,0.01858
1276.83,0.01900
1271.04,0.01909
1265.26,0.01950
1259.47,0.01980
1253.68,0.02030
1247.9,0.02038
1242.11,0.01979
1236.33,0.01964
1230.54,0.01927
1224.75,0.01920
1218.97,0.01921
1213.18,0.01853
1207.39,0.01874
1201.61,0.01837
1195.82,0.01812
1190.04,0.01808
1184.25,0.01808
1178.46,0.01796
1172.68,0.01795
1166.89,0.01733
1161.1,0.01761
1155.32,0.01746
1149.53,0.01694
1143.75,0.01781
1137.96,0.01792
1132.17,0.01841
1126.39,0.01853
1120.6,0.01854
1114.81,0.01869
1109.03,0.01883
1103.24,0.01879
1097.46,0.01860
1091.67,0.01829
1085.88,0.01848
1080.1,0.01855
1074.31,0.01877
1068.52,0.01919
1062.74,0.01951
1056.95,0.01994
1051.17,0.02015
1045.38,0.01972
1039.59,0.01967
1033.81,0.01921
1028.02,0.01930
1022.23,0.01949
1016.45,0.01944
1010.66,0.01950
1004.88,0.02029
999.09,0.02144
993.303,0.02157
987.517,0.02141
981.731,0.02056
975.945,0.02006
970.158,0.02083
964.372,0.02097
958.586,0.02018
952.8,0.02051
947.014,0.01960
941.227,0.01948
935.441,0.01963
929.655,0.01947
923.869,0.01953
918.082,0.01959
912.296,0.01923
906.51,0.01979
900.724,0.01910
894.937,0.01931
889.151,0.01902
883.365,0.01887
877.579,0.01885
871.793,0.01887
866.006,0.01890
860.22,0.01906
854.434,0.01857
848.648,0.01894
842.861,0.01830
837.075,0.01929
831.289,0.01864
825.503,0.01869
819.716,0.01888
813.93,0.01919
808.144,0.01833
802.358,0.01831
796.571,0.01815
790.785,0.01884
784.999,0.01850
779.213,0.01907
773.427,0.01847
767.64,0.01836
761.854,0.01808
756.068,0.01801
750.282,0.01822
744.495,0.01849
738.709,0.01864
732.923,0.01792
727.137,0.01808
721.35,0.01859
715.564,0.01769
709.778,0.01816
703.992,0.01897
698.206,0.01793
692.419,0.01781
686.633,0.01870
680.847,0.01832
675.061,0.01819
669.274,0.01803
663.488,0.01762
657.702,0.01754
651.916,0.01635
646.129,0.01708
640.343,0.01606
634.557,0.01718
628.771,0.01532
622.984,0.01817
617.198,0.01618
611.412,0.01509
605.626,0.01505
599.84,0.01469