File: 01_Data/Polyester_Fabric/FTIR/IS/Polyester_Fabric_IS_REFLECT_MEAS_210623_R2.dpt
5996.41,0.68640
5992.55,0.69666
5988.69,0.68641
5984.84,0.67245
5980.98,0.67317
5977.12,0.68071
5973.27,0.68866
5969.41,0.68471
5965.55,0.68405
5961.69,0.69043
5957.84,0.69338
5953.98,0.70672
5950.12,0.70747
5946.26,0.69672
5942.41,0.70033
5938.55,0.69801
5934.69,0.70224
5930.83,0.71618
5926.98,0.72311
5923.12,0.71661
5919.26,0.70650
5915.4,0.71198
5911.55,0.72032
5907.69,0.72414
5903.83,0.72607
5899.97,0.71644
5896.12,0.72124
5892.26,0.72697
5888.4,0.72550
5884.54,0.71539
5880.69,0.71562
5876.83,0.72258
5872.97,0.71537
5869.11,0.72028
5865.26,0.72807
5861.4,0.72588
5857.54,0.72281
5853.68,0.72774
5849.83,0.72758
5845.97,0.72522
5842.11,0.72714
5838.25,0.72254
5834.4,0.71911
5830.54,0.71622
5826.68,0.72072
5822.82,0.72506
5818.97,0.71971
5815.11,0.72267
5811.25,0.72117
5807.39,0.71985
5803.54,0.73091
5799.68,0.73275
5795.82,0.72437
5791.96,0.71658
5788.11,0.72146
5784.25,0.72660
5780.39,0.72085
5776.53,0.72651
5772.68,0.72132
5768.82,0.72900
5764.96,0.72830
5761.11,0.73250
5757.25,0.72777
5753.39,0.73064
5749.53,0.73503
5745.68,0.73867
5741.82,0.74579
5737.96,0.74776
5734.1,0.74379
5730.25,0.74937
5726.39,0.74862
5722.53,0.74600
5718.67,0.74554
5714.82,0.73839
5710.96,0.73846
5707.1,0.74744
5703.24,0.74759
5699.39,0.74215
5695.53,0.73807
5691.67,0.74336
5687.81,0.74047
5683.96,0.74578
5680.1,0.74839
5676.24,0.74436
5672.38,0.74000
5668.53,0.74189
5664.67,0.74794
5660.81,0.74208
5656.95,0.73630
5653.1,0.73600
5649.24,0.74220
5645.38,0.74915
5641.52,0.74669
5637.67,0.74831
5633.81,0.76264
5629.95,0.75577
5626.09,0.75862
5622.24,0.76339
5618.38,0.76447
5614.52,0.75903
5610.66,0.75209
5606.81,0.75442
5602.95,0.75351
5599.09,0.75391
5595.23,0.75285
5591.38,0.74820
5587.52,0.75333
5583.66,0.75742
5579.8,0.75920
5575.95,0.75467
5572.09,0.75236
5568.23,0.75783
5564.38,0.75094
5560.52,0.75213
5556.66,0.75464
5552.8,0.74995
5548.95,0.74459
5545.09,0.73895
5541.23,0.74678
5537.37,0.75936
5533.52,0.74466
5529.66,0.74532
5525.8,0.74671
5521.94,0.74554
5518.09,0.74944
5514.23,0.74854
5510.37,0.74352
5506.51,0.74422
5502.66,0.74661
5498.8,0.75028
5494.94,0.74375
5491.08,0.73954
5487.23,0.73852
5483.37,0.74516
5479.51,0.74755
5475.65,0.73930
5471.8,0.74372
5467.94,0.74345
5464.08,0.74318
5460.22,0.74965
5456.37,0.75662
5452.51,0.75874
5448.65,0.76092
5444.79,0.76419
5440.94,0.76630
5437.08,0.76323
5433.22,0.76612
5429.36,0.75859
5425.51,0.75956
5421.65,0.77010
5417.79,0.76205
5413.93,0.75190
5410.08,0.75709
5406.22,0.75362
5402.36,0.74783
5398.5,0.75403
5394.65,0.75403
5390.79,0.76436
5386.93,0.75447
5383.07,0.75286
5379.22,0.75279
5375.36,0.74990
5371.5,0.75506
5367.65,0.75282
5363.79,0.75384
5359.93,0.76327
5356.07,0.75029
5352.22,0.74133
5348.36,0.74993
5344.5,0.74711
5340.64,0.74532
5336.79,0.74575
5332.93,0.74811
5329.07,0.75418
5325.21,0.75606
5321.36,0.75175
5317.5,0.74691
5313.64,0.75382
5309.78,0.75290
5305.93,0.75243
5302.07,0.75679
5298.21,0.74916
5294.35,0.75622
5290.5,0.75354
5286.64,0.74646
5282.78,0.74062
5278.92,0.73998
5275.07,0.73991
5271.21,0.73296
5267.35,0.72818
5263.49,0.71552
5259.64,0.72117
5255.78,0.72102
5251.92,0.72320
5248.06,0.71834
5244.21,0.71914
5240.35,0.72439
5236.49,0.72607
5232.63,0.71920
5228.78,0.72154
5224.92,0.72061
5221.06,0.73060
5217.2,0.73898
5213.35,0.73878
5209.49,0.73495
5205.63,0.72805
5201.77,0.73589
5197.92,0.73950
5194.06,0.74363
5190.2,0.74390
5186.34,0.74139
5182.49,0.74037
5178.63,0.73690
5174.77,0.73826
5170.91,0.73655
5167.06,0.73740
5163.2,0.73723
5159.34,0.73996
5155.49,0.72819
5151.63,0.72713
5147.77,0.73799
5143.91,0.73926
5140.06,0.73814
5136.2,0.73497
5132.34,0.73599
5128.48,0.74152
5124.63,0.73548
5120.77,0.72385
5116.91,0.72359
5113.05,0.72688
5109.2,0.73198
5105.34,0.73562
5101.48,0.73485
5097.62,0.73864
5093.77,0.74194
5089.91,0.74771
5086.05,0.75484
5082.19,0.75358
5078.34,0.75288
5074.48,0.75825
5070.62,0.75447
5066.76,0.75293
5062.91,0.75169
5059.05,0.74711
5055.19,0.75043
5051.33,0.75561
5047.48,0.75250
5043.62,0.75375
5039.76,0.75258
5035.9,0.75488
5032.05,0.75449
5028.19,0.75338
5024.33,0.75975
5020.47,0.75401
5016.62,0.75163
5012.76,0.74963
5008.9,0.75087
5005.04,0.75284
5001.19,0.75209
4997.33,0.74724
4993.47,0.74678
4989.61,0.75131
4985.76,0.75665
4981.9,0.75341
4978.04,0.75314
4974.18,0.74768
4970.33,0.75120
4966.47,0.75585
4962.61,0.75434
4958.76,0.75291
4954.9,0.75220
4951.04,0.75111
4947.18,0.75251
4943.33,0.75065
4939.47,0.75034
4935.61,0.74846
4931.75,0.74678
4927.9,0.74857
4924.04,0.75039
4920.18,0.74681
4916.32,0.74275
4912.47,0.74465
4908.61,0.74963
4904.75,0.75117
4900.89,0.74717
4897.04,0.74275
4893.18,0.74458
4889.32,0.74363
4885.46,0.74479
4881.61,0.74251
4877.75,0.74159
4873.89,0.74286
4870.03,0.73805
4866.18,0.74485
4862.32,0.74338
4858.46,0.74249
4854.6,0.73846
4850.75,0.74207
4846.89,0.74105
4843.03,0.74096
4839.17,0.73540
4835.32,0.72720
4831.46,0.72812
4827.6,0.72398
4823.74,0.72285
4819.89,0.72113
4816.03,0.72528
4812.17,0.72185
4808.31,0.71952
4804.46,0.71840
4800.6,0.71799
4796.74,0.71856
4792.88,0.71406
4789.03,0.71688
4785.17,0.71450
4781.31,0.71525
4777.45,0.71422
4773.6,0.71598
4769.74,0.72029
4765.88,0.72104
4762.02,0.71753
4758.17,0.71187
4754.31,0.70906
4750.45,0.70881
4746.6,0.70289
4742.74,0.69945
4738.88,0.69542
4735.02,0.69096
4731.17,0.68358
4727.31,0.67830
4723.45,0.66460
4719.59,0.66106
4715.74,0.65898
4711.88,0.66073
4708.02,0.65548
4704.16,0.64760
4700.31,0.64125
4696.45,0.63443
4692.59,0.62516
4688.73,0.62392
4684.88,0.62730
4681.02,0.63661
4677.16,0.64756
4673.3,0.65718
4669.45,0.66053
4665.59,0.66568
4661.73,0.66683
4657.87,0.66845
4654.02,0.66592
4650.16,0.66459
4646.3,0.65477
4642.44,0.64825
4638.59,0.64022
4634.73,0.63696
4630.87,0.64222
4627.01,0.65301
4623.16,0.66566
4619.3,0.67678
4615.44,0.68520
4611.58,0.68910
4607.73,0.68909
4603.87,0.68698
4600.01,0.68212
4596.15,0.67205
4592.3,0.67086
4588.44,0.66660
4584.58,0.65994
4580.72,0.65738
4576.87,0.65866
4573.01,0.66751
4569.15,0.67979
4565.29,0.68622
4561.44,0.69131
4557.58,0.69668
4553.72,0.69819
4549.87,0.69550
4546.01,0.69541
4542.15,0.69624
4538.29,0.69728
4534.44,0.69570
4530.58,0.69492
4526.72,0.68988
4522.86,0.68860
4519.01,0.68711
4515.15,0.68363
4511.29,0.68023
4507.43,0.67445
4503.58,0.66753
4499.72,0.66011
4495.86,0.64961
4492,0.64049
4488.15,0.63421
4484.29,0.62775
4480.43,0.62389
4476.57,0.61646
4472.72,0.60942
4468.86,0.60023
4465,0.58356
4461.14,0.56958
4457.29,0.56162
4453.43,0.56514
4449.57,0.56785
4445.71,0.56479
4441.86,0.55978
4438,0.55638
4434.14,0.55611
4430.28,0.55580
4426.43,0.55800
4422.57,0.56662
4418.71,0.57422
4414.85,0.57739
4411,0.57993
4407.14,0.58022
4403.28,0.58229
4399.42,0.58484
4395.57,0.58990
4391.71,0.59411
4387.85,0.59651
4383.99,0.59755
4380.14,0.59944
4376.28,0.59993
4372.42,0.60143
4368.56,0.60165
4364.71,0.59978
4360.85,0.59826
4356.99,0.59865
4353.14,0.59900
4349.28,0.59632
4345.42,0.59207
4341.56,0.58757
4337.71,0.58761
4333.85,0.58717
4329.99,0.58609
4326.13,0.58688
4322.28,0.58637
4318.42,0.58492
4314.56,0.58169
4310.7,0.57946
4306.85,0.57442
4302.99,0.56847
4299.13,0.56401
4295.27,0.56081
4291.42,0.55948
4287.56,0.56132
4283.7,0.56425
4279.84,0.56634
4275.99,0.56806
4272.13,0.57060
4268.27,0.57250
4264.41,0.57609
4260.56,0.57797
4256.7,0.57606
4252.84,0.57538
4248.98,0.57586
4245.13,0.57455
4241.27,0.57344
4237.41,0.57462
4233.55,0.57585
4229.7,0.57458
4225.84,0.57368
4221.98,0.57493
4218.12,0.57881
4214.27,0.58299
4210.41,0.58584
4206.55,0.58537
4202.69,0.58963
4198.84,0.59108
4194.98,0.58873
4191.12,0.58791
4187.26,0.58406
4183.41,0.57765
4179.55,0.57145
4175.69,0.56987
4171.83,0.57572
4167.98,0.58160
4164.12,0.58742
4160.26,0.59105
4156.4,0.59297
4152.55,0.59462
4148.69,0.59588
4144.83,0.59346
4140.98,0.58718
4137.12,0.58362
4133.26,0.57962
4129.4,0.57872
4125.55,0.57677
4121.69,0.57536
4117.83,0.57522
4113.97,0.57152
4110.12,0.56436
4106.26,0.55712
4102.4,0.54811
4098.54,0.53296
4094.69,0.51308
4090.83,0.50443
4086.97,0.50958
4083.11,0.52184
4079.26,0.53416
4075.4,0.54874
4071.54,0.56099
4067.68,0.56990
4063.83,0.57490
4059.97,0.57926
4056.11,0.58365
4052.25,0.58539
4048.4,0.58686
4044.54,0.58695
4040.68,0.59243
4036.82,0.59684
4032.97,0.60004
4029.11,0.60172
4025.25,0.60065
4021.39,0.60167
4017.54,0.60082
4013.68,0.60301
4009.82,0.60079
4005.96,0.60203
4002.11,0.60343
3998.25,0.60488
3994.39,0.60636
3990.53,0.60774
3986.68,0.60884
3982.82,0.61032
3978.96,0.61048
3975.1,0.60953
3971.25,0.60902
3967.39,0.60918
3963.53,0.60977
3959.67,0.61150
3955.82,0.61474
3951.96,0.61749
3948.1,0.61772
3944.25,0.61824
3940.39,0.61910
3936.53,0.62073
3932.67,0.61934
3928.82,0.62007
3924.96,0.62068
3921.1,0.62098
3917.24,0.61971
3913.39,0.62450
3909.53,0.62568
3905.67,0.62593
3901.81,0.62701
3897.96,0.63293
3894.1,0.63585
3890.24,0.63888
3886.38,0.63857
3882.53,0.63958
3878.67,0.64062
3874.81,0.64144
3870.95,0.64009
3867.1,0.64355
3863.24,0.64334
3859.38,0.64254
3855.52,0.63627
3851.67,0.64339
3847.81,0.64447
3843.95,0.64396
3840.09,0.64779
3836.24,0.64662
3832.38,0.64439
3828.52,0.64515
3824.66,0.64525
3820.81,0.64164
3816.95,0.63613
3813.09,0.63108
3809.23,0.62716
3805.38,0.62887
3801.52,0.63055
3797.66,0.63630
3793.8,0.63940
3789.95,0.63955
3786.09,0.63960
3782.23,0.63931
3778.37,0.63703
3774.52,0.63390
3770.66,0.63067
3766.8,0.62748
3762.94,0.62311
3759.09,0.61709
3755.23,0.61622
3751.37,0.61912
3747.51,0.62464
3743.66,0.61749
3739.8,0.62499
3735.94,0.61851
3732.09,0.61482
3728.23,0.61424
3724.37,0.61882
3720.51,0.62720
3716.66,0.63003
3712.8,0.63024
3708.94,0.62475
3705.08,0.61304
3701.23,0.60192
3697.37,0.59221
3693.51,0.58276
3689.65,0.56293
3685.8,0.54668
3681.94,0.54448
3678.08,0.54568
3674.22,0.54213
3670.37,0.53388
3666.51,0.52402
3662.65,0.51495
3658.79,0.50670
3654.94,0.49819
3651.08,0.49467
3647.22,0.48611
3643.36,0.47772
3639.51,0.47091
3635.65,0.46565
3631.79,0.46264
3627.93,0.46063
3624.08,0.46149
3620.22,0.46438
3616.36,0.47102
3612.5,0.46968
3608.65,0.46859
3604.79,0.47126
3600.93,0.47240
3597.07,0.47365
3593.22,0.47145
3589.36,0.46897
3585.5,0.46626
3581.64,0.46000
3577.79,0.45380
3573.93,0.44715
3570.07,0.44220
3566.21,0.43789
3562.36,0.43103
3558.5,0.42418
3554.64,0.42164
3550.78,0.41947
3546.93,0.41895
3543.07,0.42263
3539.21,0.42376
3535.36,0.42578
3531.5,0.42970
3527.64,0.43314
3523.78,0.43644
3519.93,0.44056
3516.07,0.44372
3512.21,0.44626
3508.35,0.44846
3504.5,0.44979
3500.64,0.45053
3496.78,0.45273
3492.92,0.45433
3489.07,0.45373
3485.21,0.45265
3481.35,0.45157
3477.49,0.44928
3473.64,0.44471
3469.78,0.44202
3465.92,0.43647
3462.06,0.42863
3458.21,0.42044
3454.35,0.41245
3450.49,0.40590
3446.63,0.39719
3442.78,0.38429
3438.92,0.36977
3435.06,0.35672
3431.2,0.34866
3427.35,0.35556
3423.49,0.37295
3419.63,0.39309
3415.77,0.40940
3411.92,0.42187
3408.06,0.43380
3404.2,0.44272
3400.34,0.44926
3396.49,0.45127
3392.63,0.45488
3388.77,0.45942
3384.91,0.46167
3381.06,0.46144
3377.2,0.46164
3373.34,0.46227
3369.48,0.46306
3365.63,0.46186
3361.77,0.45852
3357.91,0.45547
3354.05,0.45281
3350.2,0.44902
3346.34,0.44194
3342.48,0.43827
3338.63,0.43574
3334.77,0.43635
3330.91,0.43886
3327.05,0.44247
3323.2,0.44623
3319.34,0.44844
3315.48,0.44906
3311.62,0.44794
3307.77,0.44699
3303.91,0.44602
3300.05,0.44478
3296.19,0.44538
3292.34,0.44873
3288.48,0.45114
3284.62,0.45237
3280.76,0.45493
3276.91,0.45476
3273.05,0.45723
3269.19,0.45888
3265.33,0.45911
3261.48,0.45992
3257.62,0.46070
3253.76,0.45999
3249.9,0.45974
3246.05,0.45904
3242.19,0.45833
3238.33,0.45762
3234.47,0.45681
3230.62,0.45802
3226.76,0.45958
3222.9,0.46289
3219.04,0.46347
3215.19,0.46550
3211.33,0.46652
3207.47,0.46796
3203.61,0.46735
3199.76,0.46484
3195.9,0.46549
3192.04,0.46781
3188.18,0.46661
3184.33,0.46495
3180.47,0.46556
3176.61,0.46661
3172.75,0.46608
3168.9,0.46506
3165.04,0.46409
3161.18,0.46341
3157.32,0.46128
3153.47,0.46014
3149.61,0.45720
3145.75,0.45407
3141.89,0.45087
3138.04,0.44507
3134.18,0.43966
3130.32,0.43304
3126.47,0.43150
3122.61,0.43320
3118.75,0.43153
3114.89,0.42560
3111.04,0.41713
3107.18,0.40693
3103.32,0.40041
3099.46,0.40303
3095.61,0.40863
3091.75,0.41012
3087.89,0.40166
3084.03,0.39108
3080.18,0.38514
3076.32,0.38470
3072.46,0.38232
3068.6,0.37871
3064.75,0.37842
3060.89,0.37533
3057.03,0.36442
3053.17,0.36379
3049.32,0.38442
3045.46,0.40811
3041.6,0.42129
3037.74,0.42297
3033.89,0.41931
3030.03,0.41030
3026.17,0.39829
3022.31,0.37886
3018.46,0.35408
3014.6,0.33636
3010.74,0.32992
3006.88,0.32887
3003.03,0.32603
2999.17,0.32101
2995.31,0.31500
2991.45,0.30637
2987.6,0.29321
2983.74,0.27564
2979.88,0.25465
2976.02,0.23299
2972.17,0.21709
2968.31,0.21644
2964.45,0.22679
2960.59,0.23934
2956.74,0.25294
2952.88,0.26871
2949.02,0.28825
2945.16,0.30896
2941.31,0.32896
2937.45,0.34298
2933.59,0.34973
2929.74,0.35060
2925.88,0.34584
2922.02,0.33744
2918.16,0.32393
2914.31,0.30256
2910.45,0.27984
2906.59,0.27618
2902.73,0.29808
2898.88,0.32242
2895.02,0.33406
2891.16,0.33803
2887.3,0.34106
2883.45,0.34852
2879.59,0.35628
2875.73,0.36227
2871.87,0.36663
2868.02,0.36984
2864.16,0.37315
2860.3,0.37628
2856.44,0.38191
2852.59,0.39165
2848.73,0.40678
2844.87,0.42479
2841.01,0.44086
2837.16,0.45279
2833.3,0.46154
2829.44,0.46902
2825.58,0.47420
2821.73,0.47588
2817.87,0.47382
2814.01,0.47073
2810.15,0.46879
2806.3,0.46776
2802.44,0.47041
2798.58,0.47769
2794.72,0.48436
2790.87,0.49026
2787.01,0.49585
2783.15,0.50025
2779.29,0.50410
2775.44,0.50708
2771.58,0.50936
2767.72,0.51167
2763.86,0.51292
2760.01,0.51304
2756.15,0.51294
2752.29,0.51201
2748.43,0.51059
2744.58,0.51071
2740.72,0.51423
2736.86,0.51946
2733.01,0.52550
2729.15,0.53112
2725.29,0.53560
2721.43,0.53886
2717.58,0.54125
2713.72,0.54333
2709.86,0.54705
2706,0.55048
2702.15,0.55301
2698.29,0.55528
2694.43,0.55654
2690.57,0.55758
2686.72,0.55767
2682.86,0.55719
2679,0.55816
2675.14,0.55902
2671.29,0.56020
2667.43,0.56033
2663.57,0.55966
2659.71,0.55795
2655.86,0.55543
2652,0.55264
2648.14,0.54874
2644.28,0.54297
2640.43,0.53429
2636.57,0.52578
2632.71,0.52075
2628.85,0.51942
2625,0.52098
2621.14,0.52344
2617.28,0.52387
2613.42,0.52239
2609.57,0.52101
2605.71,0.52032
2601.85,0.51852
2597.99,0.51446
2594.14,0.50977
2590.28,0.50487
2586.42,0.50173
2582.56,0.50005
2578.71,0.50075
2574.85,0.50112
2570.99,0.50112
2567.13,0.49916
2563.28,0.49784
2559.42,0.49721
2555.56,0.49655
2551.7,0.49591
2547.85,0.49503
2543.99,0.49428
2540.13,0.49371
2536.27,0.49274
2532.42,0.49329
2528.56,0.49537
2524.7,0.49872
2520.85,0.50212
2516.99,0.50500
2513.13,0.50775
2509.27,0.50993
2505.42,0.51040
2501.56,0.51051
2497.7,0.51130
2493.84,0.51442
2489.99,0.51842
2486.13,0.52336
2482.27,0.52791
2478.41,0.53215
2474.56,0.53627
2470.7,0.53907
2466.84,0.54033
2462.98,0.54145
2459.13,0.54078
2455.27,0.53988
2451.41,0.53859
2447.55,0.53560
2443.7,0.53153
2439.84,0.52613
2435.98,0.51922
2432.12,0.51212
2428.27,0.50510
2424.41,0.49790
2420.55,0.48983
2416.69,0.48349
2412.84,0.47773
2408.98,0.47195
2405.12,0.46553
2401.26,0.46051
2397.41,0.45658
2393.55,0.45283
2389.69,0.44935
2385.83,0.44452
2381.98,0.43872
2378.12,0.43340
2374.26,0.42791
2370.4,0.42169
2366.55,0.41744
2362.69,0.41669
2358.83,0.42140
2354.97,0.43560
2351.12,0.43718
2347.26,0.44193
2343.4,0.45071
2339.54,0.44837
2335.69,0.45103
2331.83,0.45683
2327.97,0.46123
2324.12,0.46815
2320.26,0.47842
2316.4,0.48543
2312.54,0.48892
2308.69,0.48886
2304.83,0.48693
2300.97,0.48325
2297.11,0.47629
2293.26,0.46972
2289.4,0.46536
2285.54,0.46335
2281.68,0.46410
2277.83,0.46519
2273.97,0.46482
2270.11,0.46279
2266.25,0.46034
2262.4,0.45819
2258.54,0.45821
2254.68,0.45977
2250.82,0.46346
2246.97,0.46867
2243.11,0.47402
2239.25,0.47872
2235.39,0.48234
2231.54,0.48554
2227.68,0.48775
2223.82,0.48917
2219.96,0.49020
2216.11,0.49159
2212.25,0.49285
2208.39,0.49523
2204.53,0.49973
2200.68,0.50436
2196.82,0.50630
2192.96,0.50575
2189.1,0.50418
2185.25,0.50127
2181.39,0.49672
2177.53,0.49074
2173.67,0.48426
2169.82,0.47590
2165.96,0.46745
2162.1,0.45756
2158.24,0.44753
2154.39,0.43798
2150.53,0.42932
2146.67,0.42210
2142.81,0.41572
2138.96,0.41117
2135.1,0.40655
2131.24,0.40007
2127.38,0.39266
2123.53,0.38505
2119.67,0.37863
2115.81,0.37356
2111.96,0.37183
2108.1,0.37229
2104.24,0.37345
2100.38,0.37524
2096.53,0.37783
2092.67,0.38059
2088.81,0.38491
2084.95,0.39208
2081.1,0.39981
2077.24,0.40851
2073.38,0.41703
2069.52,0.42612
2065.67,0.43619
2061.81,0.44676
2057.95,0.45616
2054.09,0.46427
2050.24,0.47051
2046.38,0.47435
2042.52,0.47679
2038.66,0.47668
2034.81,0.47513
2030.95,0.47101
2027.09,0.46421
2023.23,0.45593
2019.38,0.44866
2015.52,0.44024
2011.66,0.43172
2007.8,0.42302
2003.95,0.41441
2000.09,0.40584
1996.23,0.39631
1992.37,0.38842
1988.52,0.37883
1984.66,0.36953
1980.8,0.36125
1976.94,0.35024
1973.09,0.33728
1969.23,0.32338
1965.37,0.30398
1961.51,0.28971
1957.66,0.29074
1953.8,0.30018
1949.94,0.31105
1946.08,0.32419
1942.23,0.33773
1938.37,0.34735
1934.51,0.35813
1930.65,0.36886
1926.8,0.37822
1922.94,0.38802
1919.08,0.39511
1915.23,0.39948
1911.37,0.40468
1907.51,0.40965
1903.65,0.41123
1899.8,0.41425
1895.94,0.41724
1892.08,0.41890
1888.22,0.41882
1884.37,0.41614
1880.51,0.41297
1876.65,0.40827
1872.79,0.40604
1868.94,0.40578
1865.08,0.38987
1861.22,0.37614
1857.36,0.36326
1853.51,0.34695
1849.65,0.33185
1845.79,0.32075
1841.93,0.30227
1838.08,0.28821
1834.22,0.27823
1830.36,0.27444
1826.5,0.26837
1822.65,0.26231
1818.79,0.25949
1814.93,0.25949
1811.07,0.25892
1807.22,0.25518
1803.36,0.25403
1799.5,0.25303
1795.64,0.24968
1791.79,0.24625
1787.93,0.23494
1784.07,0.22697
1780.21,0.21905
1776.36,0.21145
1772.5,0.20564
1768.64,0.18484
1764.78,0.16754
1760.93,0.15000
1757.07,0.12619
1753.21,0.10297
1749.35,0.07358
1745.5,0.04502
1741.64,0.03008
1737.78,0.02497
1733.92,0.02583
1730.07,0.02693
1726.21,0.02811
1722.35,0.03112
1718.5,0.03808
1714.64,0.05072
1710.78,0.06414
1706.92,0.08528
1703.07,0.10879
1699.21,0.13409
1695.35,0.14824
1691.49,0.15276
1687.64,0.15983
1683.78,0.16752
1679.92,0.17134
1676.06,0.18358
1672.21,0.19861
1668.35,0.21023
1664.49,0.21979
1660.63,0.23263
1656.78,0.24112
1652.92,0.25753
1649.06,0.25927
1645.2,0.25906
1641.35,0.25389
1637.49,0.26436
1633.63,0.26199
1629.77,0.25733
1625.92,0.26199
1622.06,0.25998
1618.2,0.25418
1614.34,0.24272
1610.49,0.24575
1606.63,0.25988
1602.77,0.26778
1598.91,0.27470
1595.06,0.27710
1591.2,0.26827
1587.34,0.25059
1583.48,0.21901
1579.63,0.19526
1575.77,0.20960
1571.91,0.23229
1568.05,0.25306
1564.2,0.25988
1560.34,0.27492
1556.48,0.27490
1552.62,0.26058
1548.77,0.25701
1544.91,0.26489
1541.05,0.28544
1537.19,0.26485
1533.34,0.25381
1529.48,0.24513
1525.62,0.24256
1521.76,0.24718
1517.91,0.24230
1514.05,0.21733
1510.19,0.18599
1506.34,0.14368
1502.48,0.15178
1498.62,0.21234
1494.76,0.25477
1490.91,0.25895
1487.05,0.23871
1483.19,0.21177
1479.33,0.18843
1475.48,0.16790
1471.62,0.14855
1467.76,0.15030
1463.9,0.15413
1460.05,0.15328
1456.19,0.14950
1452.33,0.14086
1448.47,0.14351
1444.62,0.14474
1440.76,0.14643
1436.9,0.15391
1433.04,0.16006
1429.19,0.16012
1425.33,0.14940
1421.47,0.12761
1417.61,0.08305
1413.76,0.05274
1409.9,0.04999
1406.04,0.06585
1402.18,0.08757
1398.33,0.10289
1394.47,0.10643
1390.61,0.10056
1386.75,0.09587
1382.9,0.09388
1379.04,0.09427
1375.18,0.09330
1371.32,0.08718
1367.47,0.08659
1363.61,0.08999
1359.75,0.08515
1355.89,0.07310
1352.04,0.05867
1348.18,0.04858
1344.32,0.04637
1340.46,0.05019
1336.61,0.06514
1332.75,0.08707
1328.89,0.09670
1325.03,0.08773
1321.18,0.07331
1317.32,0.05847
1313.46,0.04668
1309.61,0.03752
1305.75,0.03221
1301.89,0.02940
1298.03,0.02878
1294.18,0.02958
1290.32,0.03159
1286.46,0.03481
1282.6,0.03844
1278.75,0.04330
1274.89,0.04650
1271.03,0.04904
1267.17,0.05067
1263.32,0.05330
1259.46,0.05401
1255.6,0.05390
1251.74,0.05357
1247.89,0.05121
1244.03,0.04856
1240.17,0.05017
1236.31,0.06309
1232.46,0.08773
1228.6,0.11401
1224.74,0.13464
1220.88,0.15648
1217.03,0.17938
1213.17,0.19317
1209.31,0.20469
1205.45,0.21997
1201.6,0.23501
1197.74,0.24680
1193.88,0.25199
1190.02,0.24681
1186.17,0.23133
1182.31,0.20985
1178.45,0.18837
1174.59,0.17261
1170.74,0.16464
1166.88,0.15485
1163.02,0.13725
1159.16,0.11464
1155.31,0.09290
1151.45,0.07263
1147.59,0.05463
1143.73,0.04270
1139.88,0.03790
1136.02,0.03917
1132.16,0.04266
1128.3,0.04535
1124.45,0.04572
1120.59,0.04672
1116.73,0.04779
1112.88,0.04894
1109.02,0.05032
1105.16,0.05168
1101.3,0.05608
1097.45,0.06344
1093.59,0.07741
1089.73,0.09430
1085.87,0.11683
1082.02,0.14805
1078.16,0.18625
1074.3,0.22245
1070.44,0.25009
1066.59,0.26695
1062.73,0.27516
1058.87,0.27210
1055.01,0.25817
1051.16,0.23965
1047.3,0.22274
1043.44,0.21145
1039.58,0.20606
1035.73,0.19768
1031.87,0.17253
1028.01,0.12106
1024.15,0.08204
1020.3,0.08990
1016.44,0.13392
1012.58,0.21838
1008.72,0.28403
1004.87,0.31465
1001.01,0.32335
997.151,0.32311
993.294,0.30971
989.437,0.28596
985.579,0.27206
981.722,0.24341
977.864,0.20155
974.007,0.17350
970.149,0.18163
966.292,0.21812
962.434,0.26117
958.577,0.29564
954.719,0.32206
950.862,0.33946
947.005,0.35025
943.147,0.35408
939.29,0.35574
935.432,0.35643
931.575,0.35570
927.717,0.35367
923.86,0.35020
920.002,0.34181
916.145,0.32894
912.287,0.30929
908.43,0.28540
904.573,0.26389
900.715,0.24986
896.858,0.24504
893,0.24575
889.143,0.24043
885.285,0.22525
881.428,0.20177
877.57,0.17405
873.713,0.15417
869.856,0.17924
865.998,0.20876
862.141,0.20682
858.283,0.18961
854.426,0.17155
850.568,0.15643
846.711,0.16351
842.853,0.18967
838.996,0.21255
835.138,0.23275
831.281,0.24707
827.424,0.25724
823.566,0.26119
819.709,0.26216
815.851,0.26019
811.994,0.25577
808.136,0.25027
804.279,0.24602
800.421,0.23666
796.564,0.21295
792.706,0.20245
788.849,0.22609
784.992,0.24665
781.134,0.25838
777.277,0.26429
773.419,0.26513
769.562,0.26786
765.704,0.27291
761.847,0.26784
757.989,0.25748
754.132,0.24458
750.274,0.22366
746.417,0.19092
742.56,0.14275
738.702,0.08836
734.845,0.05722
730.987,0.05467
727.13,0.06815
723.272,0.11387
719.415,0.18092
715.557,0.21667
711.7,0.22586
707.843,0.22993
703.985,0.23826
700.128,0.25657
696.27,0.27494
692.413,0.28161
688.555,0.27887
684.698,0.27016
680.84,0.25946
676.983,0.25928
673.125,0.26166
669.268,0.28395
665.411,0.28005
661.553,0.27586
657.696,0.27392
653.838,0.27414
649.981,0.28076
646.123,0.28202
642.266,0.28119
638.408,0.27477
634.551,0.25045
630.693,0.24393
626.836,0.26626
622.979,0.27144
619.121,0.27012
615.264,0.26546
611.406,0.26258
607.549,0.26380
603.691,0.25947
599.834,0.25637
595.976,0.25567
592.119,0.25839
588.261,0.25876
584.404,0.25337
580.547,0.24772
576.689,0.23936
572.832,0.23217
568.974,0.22736
565.117,0.22018
561.259,0.21560
557.402,0.20957
553.544,0.19751
549.687,0.19130
545.83,0.18542
541.972,0.17094
538.115,0.15859
534.257,0.15262
530.4,0.14584
526.542,0.13877
522.685,0.13050
518.827,0.12899
514.97,0.12562
511.112,0.10650
507.255,0.08328
503.398,0.08519
499.54,0.09809
495.683,0.11175
491.825,0.11954
487.968,0.12552
484.11,0.13103
480.253,0.12808
476.395,0.12930
472.538,0.13005
468.68,0.12395
464.823,0.12175
460.966,0.11716
457.108,0.11650
453.251,0.11021
449.393,0.08724
445.536,0.07252
441.678,0.05482
437.821,0.04772
433.963,0.06025
430.106,0.06657
426.248,0.07690
422.391,0.09686
418.534,0.10531
414.676,0.09521
410.819,0.08887
406.961,0.08146
403.104,0.07335
399.246,0.04124