File: 01_Data/Polyester_Fabric/FTIR/IS/Polyester_Fabric_IS_REFLECT_REF_210623_R1.dpt
4497.79,0.99889
4493.93,0.99600
4490.07,0.99595
4486.22,0.99757
4482.36,0.99749
4478.5,0.99573
4474.64,0.99635
4470.79,0.99642
4466.93,0.99743
4463.07,0.99861
4459.21,0.99863
4455.36,0.99826
4451.5,0.99772
4447.64,0.99768
4443.79,1.00015
4439.93,1.00013
4436.07,0.99922
4432.21,0.99788
4428.36,0.99770
4424.5,0.99974
4420.64,0.99857
4416.78,0.99805
4412.93,0.99686
4409.07,0.99609
4405.21,0.99758
4401.35,0.99889
4397.5,0.99918
4393.64,0.99678
4389.78,0.99711
4385.92,0.99739
4382.07,0.99767
4378.21,0.99619
4374.35,0.99714
4370.49,0.99805
4366.64,0.99911
4362.78,0.99827
4358.92,0.99814
4355.06,0.99898
4351.21,1.00135
4347.35,0.99877
4343.49,0.99925
4339.63,1.00017
4335.78,0.99715
4331.92,0.99644
4328.06,0.99651
4324.2,0.99772
4320.35,0.99835
4316.49,0.99840
4312.63,0.99755
4308.77,0.99665
4304.92,0.99591
4301.06,0.99759
4297.2,0.99928
4293.34,0.99834
4289.49,0.99860
4285.63,0.99785
4281.77,0.99774
4277.91,0.99867
4274.06,0.99948
4270.2,0.99859
4266.34,0.99841
4262.48,0.99778
4258.63,0.99822
4254.77,0.99773
4250.91,0.99905
4247.06,0.99904
4243.2,0.99975
4239.34,0.99944
4235.48,0.99868
4231.63,0.99592
4227.77,0.99687
4223.91,0.99710
4220.05,0.99714
4216.2,0.99722
4212.34,0.99709
4208.48,0.99653
4204.62,0.99805
4200.77,0.99782
4196.91,0.99782
4193.05,0.99746
4189.19,0.99902
4185.34,0.99929
4181.48,0.99934
4177.62,0.99865
4173.76,0.99683
4169.91,0.99791
4166.05,0.99884
4162.19,0.99874
4158.33,0.99826
4154.48,0.99678
4150.62,0.99741
4146.76,0.99718
4142.9,0.99638
4139.05,0.99706
4135.19,0.99829
4131.33,0.99775
4127.47,0.99742
4123.62,0.99810
4119.76,0.99785
4115.9,0.99640
4112.04,0.99715
4108.19,0.99881
4104.33,0.99948
4100.47,0.99789
4096.61,0.99590
4092.76,0.99747
4088.9,0.99799
4085.04,0.99728
4081.18,0.99743
4077.33,0.99768
4073.47,0.99777
4069.61,0.99767
4065.75,0.99833
4061.9,0.99941
4058.04,1.00007
4054.18,0.99946
4050.33,0.99804
4046.47,0.99845
4042.61,0.99785
4038.75,0.99707
4034.9,0.99672
4031.04,0.99821
4027.18,0.99832
4023.32,0.99828
4019.47,0.99692
4015.61,0.99766
4011.75,0.99856
4007.89,0.99649
4004.04,0.99758
4000.18,0.99886
3996.32,0.99765
3992.46,0.99802
3988.61,0.99825
3984.75,0.99771
3980.89,0.99888
3977.03,0.99871
3973.18,0.99819
3969.32,0.99756
3965.46,0.99697
3961.6,0.99876
3957.75,0.99598
3953.89,0.99628
3950.03,0.99725
3946.17,0.99592
3942.32,0.99793
3938.46,0.99709
3934.6,0.99734
3930.74,0.99680
3926.89,0.99725
3923.03,0.99742
3919.17,0.99672
3915.31,0.99769
3911.46,0.99648
3907.6,0.99550
3903.74,0.99594
3899.88,0.99556
3896.03,0.99316
3892.17,0.99728
3888.31,0.99555
3884.45,0.99712
3880.6,0.99796
3876.74,0.99513
3872.88,0.99618
3869.02,0.99546
3865.17,0.99659
3861.31,0.99591
3857.45,0.99237
3853.59,1.00026
3849.74,0.99174
3845.88,0.99096
3842.02,0.99337
3838.17,0.99833
3834.31,0.99725
3830.45,0.99604
3826.59,0.99480
3822.74,0.99702
3818.88,0.99593
3815.02,0.99745
3811.16,0.99392
3807.31,0.99601
3803.45,0.99369
3799.59,0.99399
3795.73,0.99652
3791.88,0.99619
3788.02,0.99676
3784.16,0.99632
3780.3,0.99728
3776.45,0.99579
3772.59,0.99529
3768.73,0.99618
3764.87,0.99492
3761.02,0.99485
3757.16,0.99451
3753.3,0.99624
3749.44,0.99382
3745.59,0.99022
3741.73,0.99027
3737.87,0.99323
3734.01,0.99676
3730.16,0.99111
3726.3,0.99424
3722.44,0.99506
3718.58,0.99422
3714.73,0.99380
3710.87,0.99947
3707.01,0.99428
3703.15,0.99587
3699.3,0.99557
3695.44,0.99494
3691.58,0.99782
3687.72,0.99738
3683.87,0.99318
3680.01,0.99368
3676.15,0.99844
3672.29,0.99268
3668.44,0.99626
3664.58,0.99453
3660.72,0.99625
3656.86,0.99593
3653.01,0.99158
3649.15,0.99998
3645.29,0.99322
3641.44,0.99514
3637.58,0.99589
3633.72,0.99345
3629.86,0.99715
3626.01,0.99255
3622.15,0.99215
3618.29,0.99597
3614.43,0.99361
3610.58,0.99427
3606.72,0.99529
3602.86,0.99435
3599,0.99505
3595.15,0.99638
3591.29,0.99235
3587.43,0.99574
3583.57,0.99294
3579.72,0.99378
3575.86,0.99475
3572,0.99287
3568.14,0.99694
3564.29,0.99610
3560.43,0.99367
3556.57,0.99246
3552.71,0.99492
3548.86,0.99395
3545,0.99572
3541.14,0.99468
3537.28,0.99505
3533.43,0.99533
3529.57,0.99481
3525.71,0.99349
3521.85,0.99522
3518,0.99416
3514.14,0.99359
3510.28,0.99511
3506.42,0.99522
3502.57,0.99519
3498.71,0.99342
3494.85,0.99438
3490.99,0.99416
3487.14,0.99356
3483.28,0.99405
3479.42,0.99466
3475.56,0.99536
3471.71,0.99368
3467.85,0.99521
3463.99,0.99611
3460.13,0.99562
3456.28,0.99556
3452.42,0.99562
3448.56,0.99625
3444.7,0.99639
3440.85,0.99494
3436.99,0.99525
3433.13,0.99574
3429.28,0.99575
3425.42,0.99660
3421.56,0.99450
3417.7,0.99522
3413.85,0.99507
3409.99,0.99517
3406.13,0.99617
3402.27,0.99515
3398.42,0.99493
3394.56,0.99510
3390.7,0.99571
3386.84,0.99575
3382.99,0.99618
3379.13,0.99565
3375.27,0.99501
3371.41,0.99458
3367.56,0.99492
3363.7,0.99524
3359.84,0.99536
3355.98,0.99596
3352.13,0.99709
3348.27,0.99594
3344.41,0.99621
3340.55,0.99572
3336.7,0.99582
3332.84,0.99628
3328.98,0.99642
3325.12,0.99689
3321.27,0.99787
3317.41,0.99645
3313.55,0.99627
3309.69,0.99607
3305.84,0.99584
3301.98,0.99635
3298.12,0.99624
3294.26,0.99651
3290.41,0.99753
3286.55,0.99547
3282.69,0.99618
3278.83,0.99714
3274.98,0.99646
3271.12,0.99563
3267.26,0.99545
3263.4,0.99546
3259.55,0.99702
3255.69,0.99691
3251.83,0.99648
3247.97,0.99543
3244.12,0.99550
3240.26,0.99633
3236.4,0.99571
3232.55,0.99655
3228.69,0.99714
3224.83,0.99658
3220.97,0.99629
3217.12,0.99522
3213.26,0.99627
3209.4,0.99653
3205.54,0.99666
3201.69,0.99574
3197.83,0.99561
3193.97,0.99642
3190.11,0.99669
3186.26,0.99644
3182.4,0.99663
3178.54,0.99683
3174.68,0.99733
3170.83,0.99717
3166.97,0.99723
3163.11,0.99782
3159.25,0.99813
3155.4,0.99704
3151.54,0.99766
3147.68,0.99751
3143.82,0.99654
3139.97,0.99609
3136.11,0.99760
3132.25,0.99748
3128.39,0.99673
3124.54,0.99699
3120.68,0.99721
3116.82,0.99711
3112.96,0.99672
3109.11,0.99776
3105.25,0.99715
3101.39,0.99692
3097.53,0.99696
3093.68,0.99695
3089.82,0.99710
3085.96,0.99732
3082.1,0.99755
3078.25,0.99793
3074.39,0.99784
3070.53,0.99772
3066.67,0.99756
3062.82,0.99758
3058.96,0.99764
3055.1,0.99729
3051.24,0.99801
3047.39,0.99907
3043.53,0.99837
3039.67,0.99771
3035.82,0.99717
3031.96,0.99787
3028.1,0.99724
3024.24,0.99755
3020.39,0.99802
3016.53,0.99739
3012.67,0.99676
3008.81,0.99784
3004.96,0.99746
3001.1,0.99667
2997.24,0.99756
2993.38,0.99722
2989.53,0.99745
2985.67,0.99758
2981.81,0.99729
2977.95,0.99675
2974.1,0.99702
2970.24,0.99799
2966.38,0.99693
2962.52,0.99702
2958.67,0.99821
2954.81,0.99865
2950.95,0.99769
2947.09,0.99734
2943.24,0.99756
2939.38,0.99728
2935.52,0.99776
2931.66,0.99688
2927.81,0.99733
2923.95,0.99853
2920.09,0.99823
2916.23,0.99807
2912.38,0.99850
2908.52,0.99939
2904.66,0.99892
2900.8,0.99842
2896.95,0.99852
2893.09,0.99803
2889.23,0.99857
2885.37,0.99824
2881.52,0.99822
2877.66,0.99844
2873.8,0.99833
2869.94,0.99865
2866.09,0.99855
2862.23,0.99858
2858.37,0.99790
2854.51,0.99818
2850.66,0.99809
2846.8,0.99764
2842.94,0.99746
2839.08,0.99798
2835.23,0.99826
2831.37,0.99750
2827.51,0.99743
2823.66,0.99782
2819.8,0.99731
2815.94,0.99707
2812.08,0.99804
2808.23,0.99838
2804.37,0.99802
2800.51,0.99782
2796.65,0.99823
2792.8,0.99868
2788.94,0.99808
2785.08,0.99763
2781.22,0.99781
2777.37,0.99864
2773.51,0.99817
2769.65,0.99856
2765.79,0.99799
2761.94,0.99811
2758.08,0.99853
2754.22,0.99814
2750.36,0.99739
2746.51,0.99735
2742.65,0.99766
2738.79,0.99830
2734.93,0.99750
2731.08,0.99779
2727.22,0.99755
2723.36,0.99812
2719.5,0.99832
2715.65,0.99852
2711.79,0.99889
2707.93,0.99961
2704.07,0.99892
2700.22,0.99768
2696.36,0.99762
2692.5,0.99813
2688.64,0.99830
2684.79,0.99771
2680.93,0.99754
2677.07,0.99831
2673.21,0.99917
2669.36,0.99839
2665.5,0.99737
2661.64,0.99786
2657.78,0.99828
2653.93,0.99816
2650.07,0.99847
2646.21,0.99841
2642.35,0.99781
2638.5,0.99774
2634.64,0.99768
2630.78,0.99891
2626.93,0.99847
2623.07,0.99814
2619.21,0.99830
2615.35,0.99838
2611.5,0.99825
2607.64,0.99769
2603.78,0.99744
2599.92,0.99805
2596.07,0.99805
2592.21,0.99883
2588.35,0.99844
2584.49,0.99808
2580.64,0.99838
2576.78,0.99853
2572.92,0.99913
2569.06,0.99893
2565.21,0.99822
2561.35,0.99814
2557.49,0.99787
2553.63,0.99801
2549.78,0.99829
2545.92,0.99850
2542.06,0.99762
2538.2,0.99792
2534.35,0.99829
2530.49,0.99852
2526.63,0.99842
2522.77,0.99800
2518.92,0.99784
2515.06,0.99818
2511.2,0.99827
2507.34,0.99844
2503.49,0.99891
2499.63,0.99847
2495.77,0.99847
2491.91,0.99840
2488.06,0.99882
2484.2,0.99791
2480.34,0.99799
2476.48,0.99834
2472.63,0.99823
2468.77,0.99758
2464.91,0.99738
2461.05,0.99845
2457.2,0.99819
2453.34,0.99857
2449.48,0.99896
2445.62,0.99872
2441.77,0.99866
2437.91,0.99833
2434.05,0.99792
2430.2,0.99841
2426.34,0.99819
2422.48,0.99843
2418.62,0.99845
2414.77,0.99852
2410.91,0.99906
2407.05,0.99862
2403.19,0.99808
2399.34,0.99787
2395.48,0.99803
2391.62,0.99822
2387.76,0.99803
2383.91,0.99797
2380.05,0.99781
2376.19,0.99714
2372.33,0.99763
2368.48,0.99980
2364.62,0.99739
2360.76,0.99482
2356.9,0.99293
2353.05,0.99456
2349.19,0.99963
2345.33,0.99837
2341.47,0.99995
2337.62,1.00064
2333.76,1.00031
2329.9,0.99764
2326.04,0.99645
2322.19,0.99706
2318.33,0.99787
2314.47,0.99758
2310.61,0.99685
2306.76,0.99731
2302.9,0.99727
2299.04,0.99781
2295.18,0.99824
2291.33,0.99825
2287.47,0.99854
2283.61,0.99856
2279.75,0.99835
2275.9,0.99786
2272.04,0.99797
2268.18,0.99895
2264.32,0.99860
2260.47,0.99792
2256.61,0.99796
2252.75,0.99762
2248.89,0.99768
2245.04,0.99770
2241.18,0.99816
2237.32,0.99854
2233.46,0.99884
2229.61,0.99833
2225.75,0.99819
2221.89,0.99816
2218.04,0.99822
2214.18,0.99795
2210.32,0.99808
2206.46,0.99845
2202.61,0.99810
2198.75,0.99798
2194.89,0.99806
2191.03,0.99818
2187.18,0.99807
2183.32,0.99820
2179.46,0.99861
2175.6,0.99858
2171.75,0.99810
2167.89,0.99805
2164.03,0.99777
2160.17,0.99790
2156.32,0.99754
2152.46,0.99822
2148.6,0.99836
2144.74,0.99794
2140.89,0.99798
2137.03,0.99804
2133.17,0.99801
2129.31,0.99844
2125.46,0.99806
2121.6,0.99780
2117.74,0.99812
2113.88,0.99814
2110.03,0.99777
2106.17,0.99805
2102.31,0.99833
2098.45,0.99854
2094.6,0.99807
2090.74,0.99835
2086.88,0.99844
2083.02,0.99739
2079.17,0.99807
2075.31,0.99813
2071.45,0.99769
2067.59,0.99760
2063.74,0.99786
2059.88,0.99862
2056.02,0.99845
2052.16,0.99855
2048.31,0.99857
2044.45,0.99787
2040.59,0.99812
2036.73,0.99792
2032.88,0.99798
2029.02,0.99795
2025.16,0.99782
2021.31,0.99796
2017.45,0.99860
2013.59,0.99802
2009.73,0.99811
2005.88,0.99774
2002.02,0.99798
1998.16,0.99790
1994.3,0.99765
1990.45,0.99778
1986.59,0.99725
1982.73,0.99766
1978.87,0.99782
1975.02,0.99786
1971.16,0.99737
1967.3,0.99861
1963.44,0.99817
1959.59,0.99882
1955.73,0.99794
1951.87,0.99729
1948.01,0.99786
1944.16,0.99897
1940.3,0.99716
1936.44,0.99712
1932.58,0.99776
1928.73,0.99741
1924.87,0.99876
1921.01,0.99762
1917.15,0.99756
1913.3,0.99690
1909.44,0.99807
1905.58,0.99742
1901.72,0.99782
1897.87,0.99804
1894.01,0.99806
1890.15,0.99842
1886.29,0.99699
1882.44,0.99758
1878.58,0.99814
1874.72,0.99717
1870.86,0.99782
1867.01,0.99861
1863.15,0.99688
1859.29,0.99850
1855.43,0.99834
1851.58,0.99789
1847.72,0.99803
1843.86,0.99939
1840,0.99657
1836.15,0.99746
1832.29,0.99715
1828.43,0.99714
1824.57,0.99714
1820.72,0.99685
1816.86,0.99787
1813,0.99724
1809.15,0.99776
1805.29,0.99671
1801.43,0.99785
1797.57,0.99558
1793.72,0.99720
1789.86,0.99635
1786,0.99574
1782.14,0.99703
1778.29,0.99572
1774.43,0.99688
1770.57,0.99736
1766.71,0.99494
1762.86,0.99692
1759,0.99578
1755.14,0.99493
1751.28,0.99591
1747.43,0.99448
1743.57,0.99493
1739.71,0.99545
1735.85,0.99530
1732,0.99645
1728.14,0.99509
1724.28,0.99548
1720.42,0.99433
1716.57,0.99825
1712.71,0.99280
1708.85,0.99352
1704.99,0.99396
1701.14,0.99606
1697.28,0.99540
1693.42,0.99157
1689.56,0.99182
1685.71,0.99599
1681.85,0.99379
1677.99,0.99227
1674.13,0.99515
1670.28,0.99729
1666.42,0.99324
1662.56,0.99664
1658.7,0.99163
1654.85,0.99738
1650.99,0.99051
1647.13,0.99531
1643.27,0.99157
1639.42,0.99271
1635.56,1.00058
1631.7,0.99258
1627.84,0.99572
1623.99,0.99711
1620.13,0.99319
1616.27,0.99866
1612.42,0.99529
1608.56,0.99820
1604.7,0.99744
1600.84,0.99812
1596.99,0.99807
1593.13,0.99846
1589.27,0.99733
1585.41,0.99756
1581.56,0.99594
1577.7,0.99752
1573.84,0.99366
1569.98,0.99641
1566.13,0.99340
1562.27,0.99253
1558.41,1.00032
1554.55,0.98885
1550.7,0.99285
1546.84,0.99178
1542.98,0.99639
1539.12,0.99832
1535.27,0.99203
1531.41,0.99407
1527.55,0.99348
1523.69,0.99445
1519.84,0.99349
1515.98,0.99383
1512.12,0.99074
1508.26,0.99942
1504.41,0.99350
1500.55,0.99125
1496.69,0.99571
1492.83,0.99181
1488.98,0.99849
1485.12,0.99567
1481.26,0.99566
1477.4,0.99502
1473.55,0.99983
1469.69,0.99419
1465.83,0.99691
1461.97,0.99314
1458.12,1.00040
1454.26,0.99458
1450.4,0.99481
1446.54,0.99716
1442.69,0.99650
1438.83,0.99735
1434.97,0.99705
1431.11,0.99625
1427.26,0.99584
1423.4,0.99512
1419.54,0.99722
1415.69,0.99613
1411.83,0.99700
1407.97,0.99746
1404.11,0.99734
1400.26,0.99615
1396.4,0.99729
1392.54,0.99604
1388.68,0.99723
1384.83,0.99692
1380.97,0.99691
1377.11,0.99788
1373.25,0.99832
1369.4,0.99739
1365.54,0.99782
1361.68,0.99819
1357.82,0.99791
1353.97,0.99898
1350.11,0.99865
1346.25,0.99801
1342.39,0.99687
1338.54,0.99818
1334.68,0.99780
1330.82,0.99887
1326.96,0.99838
1323.11,0.99764
1319.25,0.99867
1315.39,0.99825
1311.53,0.99851
1307.68,0.99854
1303.82,0.99823
1299.96,0.99781
1296.1,0.99810
1292.25,0.99870
1288.39,0.99895
1284.53,0.99847
1280.67,0.99774
1276.82,0.99817
1272.96,0.99774
1269.1,0.99819
1265.24,0.99784
1261.39,0.99795
1257.53,0.99898
1253.67,0.99905
1249.81,0.99879
1245.96,0.99746
1242.1,0.99688
1238.24,0.99783
1234.38,0.99704
1230.53,0.99752
1226.67,0.99830
1222.81,0.99724
1218.95,0.99733
1215.1,0.99683
1211.24,0.99800
1207.38,0.99850
1203.53,0.99866
1199.67,0.99734
1195.81,0.99740
1191.95,0.99783
1188.1,0.99781
1184.24,0.99830
1180.38,0.99889
1176.52,0.99757
1172.67,0.99789
1168.81,0.99812
1164.95,0.99876
1161.09,0.99843
1157.24,0.99954
1153.38,0.99858
1149.52,0.99831
1145.66,0.99822
1141.81,0.99847
1137.95,0.99874
1134.09,0.99884
1130.23,0.99842
1126.38,0.99952
1122.52,0.99765
1118.66,0.99723
1114.8,0.99879
1110.95,0.99839
1107.09,0.99787
1103.23,1.00042
1099.37,1.00013
1095.52,0.99871
1091.66,0.99845
1087.8,0.99893
1083.94,0.99852
1080.09,0.99744
1076.23,0.99738
1072.37,0.99664
1068.51,0.99679
1064.66,0.99847
1060.8,0.99919
1056.94,0.99958
1053.08,0.99899
1049.23,0.99753
1045.37,0.99830
1041.51,0.99952
1037.65,0.99883
1033.8,0.99807
1029.94,0.99765
1026.08,0.99854
1022.22,0.99709
1018.37,0.99799
1014.51,0.99855
1010.65,0.99806
1006.8,0.99717
1002.94,0.99666
999.08,0.99691
995.223,0.99811
991.365,0.99756
987.508,0.99848
983.65,0.99788
979.793,0.99689
975.935,0.99789
972.078,0.99942
968.221,0.99976
964.363,0.99985
960.506,0.99886
956.648,0.99857
952.791,0.99869
948.933,0.99746
945.076,0.99762
941.218,0.99864
937.361,0.99950
933.503,1.00033
929.646,0.99907
925.789,0.99790
921.931,0.99784
918.074,0.99773
914.216,0.99739
910.359,0.99692
906.501,0.99676
902.644,0.99639
898.786,0.99637
894.929,0.99860
891.072,0.99949
887.214,0.99929
883.357,0.99840
879.499,0.99757
875.642,0.99707
871.784,0.99721
867.927,0.99462
864.069,0.99684
860.212,0.99820
856.354,0.99931
852.497,0.99923
848.64,0.99687
844.782,0.99817
840.925,0.99827
837.067,0.99938
833.21,0.99914
829.352,0.99721
825.495,0.99709
821.637,0.99538
817.78,0.99579
813.922,0.99664
810.065,0.99656
806.208,0.99473
802.35,0.99608
798.493,0.99856
794.635,0.99706
790.778,0.99623
786.92,0.99511
783.063,0.99616
779.205,0.99706
775.348,0.99745
771.49,0.99457
767.633,0.99713
763.776,0.99742
759.918,0.99924
756.061,0.99757
752.203,0.99648
748.346,0.99849
744.488,0.99885
740.631,0.99703
736.773,0.99675
732.916,0.99854
729.058,0.99766
725.201,0.99534
721.344,0.99443
717.486,0.99698
713.629,0.99784
709.771,0.99643
705.914,0.99741
702.056,1.00069
698.199,0.99869
694.341,0.99920
690.484,0.99774
686.627,0.99840
682.769,0.99776
678.912,0.99725
675.054,1.00080
671.197,0.99946
667.339,0.99568
663.482,1.00316
659.624,0.99940
655.767,0.99554
651.909,0.99303
648.052,0.99620
644.195,0.99816
640.337,0.99753
636.48,0.99717
632.622,0.99661
628.765,0.99857
624.907,0.99796
621.05,0.99609
617.192,0.99725
613.335,0.99565
609.477,0.99682
605.62,0.99601
601.763,0.99596
599.834,0.99457