File: 01_Data/Polyester_Fabric/FTIR/IS/Polyester_Fabric_IS_TRANS_MEAS_210623_R3.dpt
5998.34,0.08102
5994.48,0.08927
5990.62,0.10614
5986.77,0.10896
5982.91,0.10879
5979.05,0.10528
5975.19,0.10682
5971.34,0.09742
5967.48,0.12110
5963.62,0.10586
5959.76,0.11991
5955.91,0.11247
5952.05,0.13008
5948.19,0.11896
5944.33,0.12176
5940.48,0.11296
5936.62,0.12251
5932.76,0.12926
5928.9,0.13155
5925.05,0.13733
5921.19,0.12245
5917.33,0.13673
5913.47,0.14004
5909.62,0.14199
5905.76,0.14255
5901.9,0.14120
5898.04,0.14734
5894.19,0.15672
5890.33,0.14501
5886.47,0.13092
5882.61,0.14023
5878.76,0.13675
5874.9,0.13533
5871.04,0.13066
5867.19,0.13362
5863.33,0.12897
5859.47,0.13630
5855.61,0.13611
5851.76,0.13163
5847.9,0.14216
5844.04,0.13555
5840.18,0.14418
5836.33,0.11429
5832.47,0.12526
5828.61,0.13401
5824.75,0.14926
5820.9,0.15219
5817.04,0.14952
5813.18,0.13280
5809.32,0.12967
5805.47,0.12617
5801.61,0.13993
5797.75,0.14179
5793.89,0.14000
5790.04,0.13515
5786.18,0.13716
5782.32,0.13944
5778.46,0.13773
5774.61,0.13746
5770.75,0.13907
5766.89,0.15092
5763.03,0.14623
5759.18,0.14074
5755.32,0.14867
5751.46,0.16590
5747.6,0.14587
5743.75,0.15081
5739.89,0.16563
5736.03,0.16360
5732.17,0.17349
5728.32,0.15634
5724.46,0.16304
5720.6,0.17098
5716.74,0.15383
5712.89,0.15864
5709.03,0.16174
5705.17,0.15602
5701.31,0.15584
5697.46,0.16307
5693.6,0.15735
5689.74,0.15913
5685.88,0.16573
5682.03,0.15179
5678.17,0.15919
5674.31,0.15774
5670.46,0.15574
5666.6,0.16108
5662.74,0.16390
5658.88,0.15354
5655.03,0.15443
5651.17,0.16659
5647.31,0.15956
5643.45,0.16784
5639.6,0.16951
5635.74,0.16857
5631.88,0.16150
5628.02,0.16549
5624.17,0.18224
5620.31,0.17287
5616.45,0.17031
5612.59,0.16490
5608.74,0.16929
5604.88,0.16266
5601.02,0.15591
5597.16,0.16934
5593.31,0.17205
5589.45,0.17139
5585.59,0.17133
5581.73,0.17034
5577.88,0.17191
5574.02,0.16709
5570.16,0.16115
5566.3,0.18037
5562.45,0.16338
5558.59,0.16596
5554.73,0.16373
5550.87,0.16445
5547.02,0.16510
5543.16,0.15890
5539.3,0.16572
5535.44,0.15963
5531.59,0.17152
5527.73,0.16445
5523.87,0.16364
5520.01,0.16629
5516.16,0.17029
5512.3,0.15984
5508.44,0.17165
5504.58,0.16846
5500.73,0.17150
5496.87,0.16443
5493.01,0.17723
5489.15,0.16594
5485.3,0.17336
5481.44,0.16125
5477.58,0.16667
5473.72,0.16351
5469.87,0.16975
5466.01,0.16755
5462.15,0.16981
5458.3,0.17042
5454.44,0.17740
5450.58,0.16885
5446.72,0.16712
5442.87,0.16943
5439.01,0.17781
5435.15,0.16894
5431.29,0.17879
5427.44,0.17540
5423.58,0.18194
5419.72,0.17779
5415.86,0.18194
5412.01,0.18172
5408.15,0.17925
5404.29,0.17696
5400.43,0.17363
5396.58,0.18061
5392.72,0.17263
5388.86,0.17801
5385,0.16731
5381.15,0.17082
5377.29,0.17922
5373.43,0.17659
5369.57,0.17804
5365.72,0.17588
5361.86,0.18365
5358,0.18097
5354.14,0.17110
5350.29,0.18143
5346.43,0.17757
5342.57,0.17910
5338.71,0.16754
5334.86,0.18105
5331,0.17403
5327.14,0.18045
5323.28,0.17631
5319.43,0.16996
5315.57,0.17019
5311.71,0.18218
5307.85,0.17384
5304,0.17714
5300.14,0.17870
5296.28,0.17450
5292.42,0.18324
5288.57,0.16926
5284.71,0.17943
5280.85,0.17100
5276.99,0.17588
5273.14,0.17112
5269.28,0.16382
5265.42,0.16384
5261.57,0.16010
5257.71,0.16059
5253.85,0.15749
5249.99,0.15759
5246.14,0.16067
5242.28,0.16063
5238.42,0.15996
5234.56,0.16138
5230.71,0.16560
5226.85,0.16664
5222.99,0.16288
5219.13,0.16418
5215.28,0.17298
5211.42,0.16542
5207.56,0.17145
5203.7,0.16930
5199.85,0.16366
5195.99,0.16651
5192.13,0.16594
5188.27,0.17317
5184.42,0.16937
5180.56,0.17391
5176.7,0.17020
5172.84,0.17192
5168.99,0.16733
5165.13,0.16936
5161.27,0.16595
5157.41,0.16691
5153.56,0.16566
5149.7,0.16477
5145.84,0.16081
5141.98,0.16829
5138.13,0.16291
5134.27,0.15634
5130.41,0.15561
5126.55,0.15916
5122.7,0.15437
5118.84,0.15352
5114.98,0.15189
5111.12,0.15636
5107.27,0.15615
5103.41,0.15794
5099.55,0.16848
5095.69,0.16860
5091.84,0.16483
5087.98,0.16737
5084.12,0.17478
5080.26,0.17267
5076.41,0.17170
5072.55,0.16922
5068.69,0.17548
5064.83,0.17534
5060.98,0.17293
5057.12,0.16907
5053.26,0.17543
5049.41,0.17941
5045.55,0.17083
5041.69,0.17300
5037.83,0.18390
5033.98,0.17321
5030.12,0.17411
5026.26,0.17298
5022.4,0.17707
5018.55,0.17318
5014.69,0.16967
5010.83,0.17360
5006.97,0.17219
5003.12,0.17306
4999.26,0.17285
4995.4,0.17420
4991.54,0.17085
4987.69,0.17539
4983.83,0.17167
4979.97,0.17620
4976.11,0.17909
4972.26,0.17215
4968.4,0.17239
4964.54,0.17344
4960.68,0.17756
4956.83,0.17229
4952.97,0.17151
4949.11,0.16994
4945.25,0.16495
4941.4,0.17160
4937.54,0.17061
4933.68,0.16755
4929.82,0.17030
4925.97,0.16769
4922.11,0.16986
4918.25,0.16461
4914.39,0.16701
4910.54,0.15931
4906.68,0.16439
4902.82,0.16912
4898.96,0.16794
4895.11,0.15691
4891.25,0.16428
4887.39,0.16839
4883.53,0.16866
4879.68,0.16350
4875.82,0.16492
4871.96,0.15813
4868.1,0.16199
4864.25,0.16530
4860.39,0.16298
4856.53,0.16513
4852.68,0.15952
4848.82,0.16607
4844.96,0.16010
4841.1,0.16252
4837.25,0.16147
4833.39,0.16100
4829.53,0.15423
4825.67,0.15105
4821.82,0.15036
4817.96,0.14678
4814.1,0.14921
4810.24,0.14796
4806.39,0.15130
4802.53,0.14421
4798.67,0.14090
4794.81,0.14232
4790.96,0.14061
4787.1,0.14449
4783.24,0.14352
4779.38,0.14455
4775.53,0.14301
4771.67,0.14945
4767.81,0.14895
4763.95,0.14559
4760.1,0.14252
4756.24,0.14462
4752.38,0.14265
4748.52,0.13414
4744.67,0.12815
4740.81,0.13159
4736.95,0.12769
4733.09,0.12118
4729.24,0.11349
4725.38,0.10766
4721.52,0.10565
4717.66,0.10124
4713.81,0.10692
4709.95,0.10324
4706.09,0.09553
4702.23,0.09058
4698.38,0.08476
4694.52,0.08133
4690.66,0.08130
4686.8,0.08008
4682.95,0.08259
4679.09,0.09147
4675.23,0.09621
4671.37,0.10352
4667.52,0.11048
4663.66,0.11220
4659.8,0.11020
4655.95,0.10999
4652.09,0.10875
4648.23,0.10251
4644.37,0.10027
4640.52,0.09562
4636.66,0.09134
4632.8,0.08952
4628.94,0.09342
4625.09,0.10051
4621.23,0.11188
4617.37,0.11780
4613.51,0.12420
4609.66,0.12453
4605.8,0.12634
4601.94,0.12345
4598.08,0.11966
4594.23,0.11860
4590.37,0.10997
4586.51,0.10730
4582.65,0.10837
4578.8,0.10606
4574.94,0.11128
4571.08,0.11683
4567.22,0.12904
4563.37,0.12968
4559.51,0.13173
4555.65,0.13231
4551.79,0.13282
4547.94,0.13676
4544.08,0.13454
4540.22,0.13427
4536.36,0.13519
4532.51,0.13447
4528.65,0.13546
4524.79,0.13088
4520.93,0.13164
4517.08,0.12445
4513.22,0.12213
4509.36,0.11564
4505.5,0.11375
4501.65,0.11114
4497.79,0.10034
4493.93,0.09805
4490.07,0.09057
4486.22,0.08706
4482.36,0.08586
4478.5,0.08218
4474.64,0.07967
4470.79,0.07517
4466.93,0.07048
4463.07,0.06577
4459.21,0.05938
4455.36,0.05867
4451.5,0.05969
4447.64,0.05421
4443.79,0.05557
4439.93,0.05731
4436.07,0.05534
4432.21,0.05883
4428.36,0.05654
4424.5,0.06198
4420.64,0.05897
4416.78,0.06405
4412.93,0.06609
4409.07,0.06509
4405.21,0.06550
4401.35,0.06839
4397.5,0.06571
4393.64,0.06916
4389.78,0.07169
4385.92,0.06996
4382.07,0.07509
4378.21,0.07597
4374.35,0.07403
4370.49,0.07609
4366.64,0.07293
4362.78,0.07205
4358.92,0.07502
4355.06,0.07292
4351.21,0.07003
4347.35,0.06859
4343.49,0.06935
4339.63,0.07061
4335.78,0.06923
4331.92,0.07022
4328.06,0.07046
4324.2,0.06813
4320.35,0.06985
4316.49,0.07052
4312.63,0.06605
4308.77,0.06638
4304.92,0.06442
4301.06,0.06277
4297.2,0.06328
4293.34,0.06146
4289.49,0.05943
4285.63,0.06160
4281.77,0.06316
4277.91,0.06321
4274.06,0.06253
4270.2,0.06500
4266.34,0.06636
4262.48,0.06676
4258.63,0.06491
4254.77,0.06614
4250.91,0.06356
4247.06,0.06553
4243.2,0.06527
4239.34,0.06518
4235.48,0.06955
4231.63,0.06588
4227.77,0.06560
4223.91,0.06509
4220.05,0.06871
4216.2,0.06853
4212.34,0.07187
4208.48,0.07122
4204.62,0.07008
4200.77,0.07194
4196.91,0.07187
4193.05,0.07158
4189.19,0.06897
4185.34,0.06779
4181.48,0.06768
4177.62,0.06599
4173.76,0.06453
4169.91,0.06935
4166.05,0.07202
4162.19,0.07467
4158.33,0.07513
4154.48,0.07470
4150.62,0.07624
4146.76,0.07572
4142.9,0.07352
4139.05,0.07394
4135.19,0.06834
4131.33,0.06660
4127.47,0.06854
4123.62,0.06472
4119.76,0.06568
4115.9,0.06573
4112.04,0.06590
4108.19,0.06323
4104.33,0.05916
4100.47,0.05579
4096.61,0.05279
4092.76,0.04933
4088.9,0.04926
4085.04,0.05017
4081.18,0.05407
4077.33,0.05745
4073.47,0.06149
4069.61,0.06375
4065.75,0.06578
4061.9,0.07019
4058.04,0.07024
4054.18,0.06921
4050.33,0.07119
4046.47,0.07077
4042.61,0.07335
4038.75,0.07578
4034.9,0.07596
4031.04,0.08193
4027.18,0.07665
4023.32,0.07990
4019.47,0.07758
4015.61,0.07728
4011.75,0.07897
4007.89,0.07971
4004.04,0.07831
4000.18,0.07996
3996.32,0.08081
3992.46,0.08271
3988.61,0.08103
3984.75,0.08401
3980.89,0.08210
3977.03,0.08232
3973.18,0.08279
3969.32,0.08404
3965.46,0.08287
3961.6,0.08583
3957.75,0.08547
3953.89,0.08520
3950.03,0.09002
3946.17,0.09213
3942.32,0.09177
3938.46,0.08990
3934.6,0.08931
3930.74,0.09074
3926.89,0.09223
3923.03,0.09323
3919.17,0.09240
3915.31,0.09282
3911.46,0.09250
3907.6,0.09362
3903.74,0.09846
3899.88,0.09909
3896.03,0.10224
3892.17,0.10542
3888.31,0.10502
3884.45,0.10762
3880.6,0.10737
3876.74,0.10760
3872.88,0.10860
3869.02,0.10800
3865.17,0.11106
3861.31,0.10973
3857.45,0.11202
3853.59,0.10918
3849.74,0.11024
3845.88,0.11141
3842.02,0.11248
3838.17,0.11242
3834.31,0.11285
3830.45,0.11002
3826.59,0.11054
3822.74,0.11131
3818.88,0.11198
3815.02,0.10543
3811.16,0.10058
3807.31,0.10379
3803.45,0.10358
3799.59,0.10635
3795.73,0.10655
3791.88,0.10684
3788.02,0.10895
3784.16,0.10704
3780.3,0.10573
3776.45,0.10568
3772.59,0.10409
3768.73,0.10229
3764.87,0.09998
3761.02,0.09731
3757.16,0.09683
3753.3,0.10408
3749.44,0.11155
3745.59,0.11171
3741.73,0.11108
3737.87,0.11006
3734.01,0.10835
3730.16,0.10580
3726.3,0.10856
3722.44,0.11160
3718.58,0.11187
3714.73,0.11571
3710.87,0.11531
3707.01,0.10337
3703.15,0.10200
3699.3,0.09691
3695.44,0.08790
3691.58,0.08198
3687.72,0.07569
3683.87,0.07012
3680.01,0.07372
3676.15,0.08048
3672.29,0.07902
3668.44,0.07720
3664.58,0.07138
3660.72,0.06794
3656.86,0.06591
3653.01,0.06636
3649.15,0.06249
3645.29,0.06117
3641.44,0.05905
3637.58,0.05912
3633.72,0.05869
3629.86,0.05686
3626.01,0.06059
3622.15,0.06067
3618.29,0.06088
3614.43,0.06215
3610.58,0.06175
3606.72,0.06166
3602.86,0.06197
3599,0.06177
3595.15,0.06107
3591.29,0.05949
3587.43,0.06153
3583.57,0.05877
3579.72,0.05694
3575.86,0.05523
3572,0.05289
3568.14,0.05508
3564.29,0.05203
3560.43,0.05131
3556.57,0.04995
3552.71,0.05086
3548.86,0.04863
3545,0.04990
3541.14,0.05116
3537.28,0.05082
3533.43,0.05244
3529.57,0.05395
3525.71,0.05312
3521.85,0.05439
3518,0.05313
3514.14,0.05496
3510.28,0.05503
3506.42,0.05663
3502.57,0.05674
3498.71,0.05553
3494.85,0.05570
3490.99,0.05571
3487.14,0.05470
3483.28,0.05783
3479.42,0.05700
3475.56,0.05314
3471.71,0.05476
3467.85,0.05155
3463.99,0.05055
3460.13,0.05035
3456.28,0.04603
3452.42,0.04639
3448.56,0.04445
3444.7,0.04302
3440.85,0.04424
3436.99,0.04384
3433.13,0.04271
3429.28,0.04228
3425.42,0.04134
3421.56,0.04327
3417.7,0.04687
3413.85,0.04785
3409.99,0.04976
3406.13,0.04997
3402.27,0.05310
3398.42,0.05393
3394.56,0.05589
3390.7,0.05460
3386.84,0.05479
3382.99,0.05628
3379.13,0.05403
3375.27,0.05592
3371.41,0.05307
3367.56,0.05458
3363.7,0.05340
3359.84,0.05272
3355.98,0.05254
3352.13,0.05294
3348.27,0.05087
3344.41,0.05037
3340.55,0.05070
3336.7,0.04883
3332.84,0.04884
3328.98,0.04998
3325.12,0.04884
3321.27,0.05094
3317.41,0.05143
3313.55,0.05207
3309.69,0.05211
3305.84,0.05158
3301.98,0.05055
3298.12,0.05069
3294.26,0.05118
3290.41,0.05257
3286.55,0.05243
3282.69,0.05221
3278.83,0.05434
3274.98,0.05119
3271.12,0.05476
3267.26,0.05427
3263.4,0.05554
3259.55,0.05411
3255.69,0.05317
3251.83,0.05368
3247.97,0.05311
3244.12,0.05396
3240.26,0.05367
3236.4,0.05434
3232.55,0.05513
3228.69,0.05444
3224.83,0.05437
3220.97,0.05594
3217.12,0.05472
3213.26,0.05597
3209.4,0.05490
3205.54,0.05595
3201.69,0.05572
3197.83,0.05288
3193.97,0.05580
3190.11,0.05370
3186.26,0.05410
3182.4,0.05391
3178.54,0.05430
3174.68,0.05544
3170.83,0.05463
3166.97,0.05257
3163.11,0.05339
3159.25,0.05486
3155.4,0.05432
3151.54,0.05209
3147.68,0.05237
3143.82,0.05134
3139.97,0.05031
3136.11,0.05053
3132.25,0.04942
3128.39,0.04891
3124.54,0.04977
3120.68,0.04912
3116.82,0.04817
3112.96,0.04555
3109.11,0.04713
3105.25,0.04731
3101.39,0.04497
3097.53,0.04629
3093.68,0.04707
3089.82,0.04751
3085.96,0.04739
3082.1,0.04542
3078.25,0.04465
3074.39,0.04515
3070.53,0.04465
3066.67,0.04519
3062.82,0.04447
3058.96,0.04472
3055.1,0.04532
3051.24,0.04610
3047.39,0.04588
3043.53,0.04676
3039.67,0.04768
3035.82,0.04846
3031.96,0.04718
3028.1,0.04720
3024.24,0.04587
3020.39,0.04487
3016.53,0.04434
3012.67,0.04381
3008.81,0.04272
3004.96,0.04384
3001.1,0.04367
2997.24,0.04384
2993.38,0.04465
2989.53,0.04260
2985.67,0.04280
2981.81,0.04145
2977.95,0.04311
2974.1,0.04238
2970.24,0.04182
2966.38,0.04146
2962.52,0.04344
2958.67,0.04126
2954.81,0.04221
2950.95,0.04161
2947.09,0.04304
2943.24,0.04439
2939.38,0.04510
2935.52,0.04423
2931.66,0.04359
2927.81,0.04359
2923.95,0.04535
2920.09,0.04382
2916.23,0.04463
2912.38,0.04369
2908.52,0.04289
2904.66,0.04418
2900.8,0.04406
2896.95,0.04454
2893.09,0.04434
2889.23,0.04401
2885.37,0.04433
2881.52,0.04536
2877.66,0.04556
2873.8,0.04631
2869.94,0.04696
2866.09,0.04524
2862.23,0.04550
2858.37,0.04456
2854.51,0.04641
2850.66,0.04637
2846.8,0.04855
2842.94,0.04969
2839.08,0.05061
2835.23,0.05227
2831.37,0.05273
2827.51,0.05433
2823.66,0.05497
2819.8,0.05534
2815.94,0.05422
2812.08,0.05297
2808.23,0.05396
2804.37,0.05380
2800.51,0.05409
2796.65,0.05419
2792.8,0.05622
2788.94,0.05625
2785.08,0.05949
2781.22,0.05928
2777.37,0.06024
2773.51,0.05990
2769.65,0.06159
2765.79,0.06119
2761.94,0.06269
2758.08,0.06084
2754.22,0.06089
2750.36,0.06140
2746.51,0.06130
2742.65,0.06281
2738.79,0.06261
2734.93,0.06387
2731.08,0.06592
2727.22,0.06823
2723.36,0.06796
2719.5,0.07016
2715.65,0.07088
2711.79,0.07292
2707.93,0.07408
2704.07,0.07428
2700.22,0.07579
2696.36,0.07709
2692.5,0.07786
2688.64,0.07897
2684.79,0.07665
2680.93,0.07721
2677.07,0.07855
2673.21,0.07842
2669.36,0.07916
2665.5,0.07860
2661.64,0.07976
2657.78,0.07842
2653.93,0.07719
2650.07,0.07632
2646.21,0.07413
2642.35,0.07209
2638.5,0.06924
2634.64,0.06724
2630.78,0.06555
2626.93,0.06689
2623.07,0.06630
2619.21,0.06750
2615.35,0.06579
2611.5,0.06552
2607.64,0.06622
2603.78,0.06533
2599.92,0.06438
2596.07,0.06404
2592.21,0.06017
2588.35,0.06073
2584.49,0.06101
2580.64,0.06003
2576.78,0.06092
2572.92,0.06002
2569.06,0.06182
2565.21,0.06025
2561.35,0.06020
2557.49,0.06061
2553.63,0.06011
2549.78,0.05944
2545.92,0.05885
2542.06,0.06017
2538.2,0.06017
2534.35,0.06048
2530.49,0.06007
2526.63,0.06110
2522.77,0.06145
2518.92,0.06277
2515.06,0.06365
2511.2,0.06422
2507.34,0.06419
2503.49,0.06524
2499.63,0.06624
2495.77,0.06600
2491.91,0.06714
2488.06,0.06841
2484.2,0.06967
2480.34,0.07262
2476.48,0.07458
2472.63,0.07492
2468.77,0.07527
2464.91,0.07726
2461.05,0.07555
2457.2,0.07603
2453.34,0.07438
2449.48,0.07515
2445.62,0.07450
2441.77,0.07245
2437.91,0.07155
2434.05,0.06857
2430.2,0.06730
2426.34,0.06538
2422.48,0.06361
2418.62,0.06127
2414.77,0.05992
2410.91,0.06068
2407.05,0.05819
2403.19,0.05734
2399.34,0.05689
2395.48,0.05717
2391.62,0.05656
2387.76,0.05679
2383.91,0.05517
2380.05,0.05357
2376.19,0.05185
2372.33,0.04812
2368.48,0.05155
2364.62,0.04948
2360.76,0.05015
2356.9,0.05177
2353.05,0.05588
2349.19,0.05425
2345.33,0.05725
2341.47,0.05818
2337.62,0.05902
2333.76,0.05682
2329.9,0.05793
2326.04,0.06210
2322.19,0.06186
2318.33,0.06631
2314.47,0.06735
2310.61,0.06739
2306.76,0.06812
2302.9,0.06682
2299.04,0.06490
2295.18,0.06209
2291.33,0.06128
2287.47,0.06088
2283.61,0.06120
2279.75,0.06075
2275.9,0.06074
2272.04,0.06183
2268.18,0.06094
2264.32,0.06044
2260.47,0.06010
2256.61,0.06132
2252.75,0.06172
2248.89,0.06254
2245.04,0.06374
2241.18,0.06602
2237.32,0.06793
2233.46,0.06838
2229.61,0.06873
2225.75,0.07090
2221.89,0.07126
2218.04,0.07209
2214.18,0.07107
2210.32,0.07309
2206.46,0.07436
2202.61,0.07613
2198.75,0.07808
2194.89,0.07824
2191.03,0.07897
2187.18,0.07790
2183.32,0.07760
2179.46,0.07712
2175.6,0.07259
2171.75,0.07167
2167.89,0.06975
2164.03,0.06756
2160.17,0.06574
2156.32,0.06446
2152.46,0.06048
2148.6,0.06048
2144.74,0.05975
2140.89,0.05946
2137.03,0.05806
2133.17,0.05713
2129.31,0.05609
2125.46,0.05568
2121.6,0.05526
2117.74,0.05476
2113.88,0.05374
2110.03,0.05416
2106.17,0.05539
2102.31,0.05444
2098.45,0.05431
2094.6,0.05609
2090.74,0.05591
2086.88,0.05618
2083.02,0.05757
2079.17,0.05929
2075.31,0.05989
2071.45,0.06273
2067.59,0.06388
2063.74,0.06737
2059.88,0.06978
2056.02,0.07271
2052.16,0.07527
2048.31,0.07743
2044.45,0.07841
2040.59,0.07933
2036.73,0.07878
2032.88,0.07707
2029.02,0.07744
2025.16,0.07365
2021.31,0.07251
2017.45,0.07022
2013.59,0.06756
2009.73,0.06626
2005.88,0.06448
2002.02,0.06220
1998.16,0.06117
1994.3,0.05966
1990.45,0.05775
1986.59,0.05610
1982.73,0.05566
1978.87,0.05602
1975.02,0.05358
1971.16,0.05211
1967.3,0.05149
1963.44,0.05050
1959.59,0.04917
1955.73,0.04995
1951.87,0.05094
1948.01,0.05066
1944.16,0.05311
1940.3,0.05354
1936.44,0.05509
1932.58,0.05603
1928.73,0.05791
1924.87,0.05949
1921.01,0.06059
1917.15,0.06253
1913.3,0.06342
1909.44,0.06585
1905.58,0.06564
1901.72,0.06629
1897.87,0.06669
1894.01,0.06872
1890.15,0.06756
1886.29,0.06797
1882.44,0.06767
1878.58,0.06765
1874.72,0.06663
1870.86,0.06592
1867.01,0.06514
1863.15,0.06057
1859.29,0.05851
1855.43,0.05695
1851.58,0.05393
1847.72,0.05327
1843.86,0.05406
1840,0.05020
1836.15,0.05015
1832.29,0.05026
1828.43,0.05080
1824.57,0.05007
1820.72,0.04919
1816.86,0.04846
1813,0.04877
1809.15,0.04851
1805.29,0.04854
1801.43,0.04928
1797.57,0.04921
1793.72,0.05065
1789.86,0.04819
1786,0.04822
1782.14,0.04912
1778.29,0.04858
1774.43,0.05035
1770.57,0.04817
1766.71,0.04709
1762.86,0.04675
1759,0.04653
1755.14,0.04479
1751.28,0.04667
1747.43,0.04701
1743.57,0.04496
1739.71,0.04438
1735.85,0.04417
1732,0.04342
1728.14,0.04058
1724.28,0.04173
1720.42,0.04279
1716.57,0.04511
1712.71,0.04229
1708.85,0.04339
1704.99,0.04522
1701.14,0.04620
1697.28,0.04924
1693.42,0.04567
1689.56,0.04518
1685.71,0.04843
1681.85,0.04598
1677.99,0.04555
1674.13,0.04576
1670.28,0.04993
1666.42,0.04581
1662.56,0.04670
1658.7,0.04651
1654.85,0.05228
1650.99,0.04869
1647.13,0.05156
1643.27,0.04784
1639.42,0.04747
1635.56,0.04743
1631.7,0.04724
1627.84,0.04751
1623.99,0.05123
1620.13,0.04770
1616.27,0.04755
1612.42,0.04444
1608.56,0.04702
1604.7,0.04729
1600.84,0.04865
1596.99,0.04814
1593.13,0.04733
1589.27,0.04764
1585.41,0.04732
1581.56,0.04616
1577.7,0.04927
1573.84,0.04525
1569.98,0.04896
1566.13,0.04801
1562.27,0.04887
1558.41,0.05228
1554.55,0.04960
1550.7,0.04872
1546.84,0.04820
1542.98,0.05198
1539.12,0.05345
1535.27,0.04723
1531.41,0.04846
1527.55,0.04848
1523.69,0.04851
1519.84,0.04908
1515.98,0.04925
1512.12,0.04654
1508.26,0.05114
1504.41,0.04485
1500.55,0.04621
1496.69,0.04930
1492.83,0.04790
1488.98,0.05006
1485.12,0.04627
1481.26,0.04645
1477.4,0.04581
1473.55,0.04858
1469.69,0.04491
1465.83,0.04696
1461.97,0.04513
1458.12,0.05323
1454.26,0.04713
1450.4,0.04497
1446.54,0.04613
1442.69,0.04476
1438.83,0.04558
1434.97,0.04696
1431.11,0.04591
1427.26,0.04592
1423.4,0.04613
1419.54,0.04675
1415.69,0.04446
1411.83,0.04412
1407.97,0.04425
1404.11,0.04430
1400.26,0.04580
1396.4,0.04657
1392.54,0.04509
1388.68,0.04537
1384.83,0.04470
1380.97,0.04579
1377.11,0.04749
1373.25,0.04619
1369.4,0.04349
1365.54,0.04477
1361.68,0.04589
1357.82,0.04569
1353.97,0.04515
1350.11,0.04491
1346.25,0.04474
1342.39,0.04412
1338.54,0.04431
1334.68,0.04395
1330.82,0.04597
1326.96,0.04457
1323.11,0.04575
1319.25,0.04560
1315.39,0.04468
1311.53,0.04474
1307.68,0.04460
1303.82,0.04396
1299.96,0.04544
1296.1,0.04428
1292.25,0.04444
1288.39,0.04583
1284.53,0.04419
1280.67,0.04293
1276.82,0.04329
1272.96,0.04501
1269.1,0.04385
1265.24,0.04412
1261.39,0.04270
1257.53,0.04375
1253.67,0.04309
1249.81,0.04176
1245.96,0.04248
1242.1,0.04419
1238.24,0.04236
1234.38,0.04177
1230.53,0.04361
1226.67,0.04454
1222.81,0.04246
1218.95,0.04353
1215.1,0.04668
1211.24,0.04536
1207.38,0.04601
1203.53,0.04665
1199.67,0.04668
1195.81,0.04686
1191.95,0.04697
1188.1,0.04565
1184.24,0.04604
1180.38,0.04542
1176.52,0.04345
1172.67,0.04527
1168.81,0.04542
1164.95,0.04412
1161.09,0.04329
1157.24,0.04596
1153.38,0.04645
1149.52,0.04465
1145.66,0.04530
1141.81,0.04740
1137.95,0.04546
1134.09,0.04407
1130.23,0.04484
1126.38,0.04370
1122.52,0.04486
1118.66,0.04140
1114.8,0.04319
1110.95,0.04217
1107.09,0.04449
1103.23,0.04492
1099.37,0.04541
1095.52,0.04255
1091.66,0.04351
1087.8,0.04385
1083.94,0.04495
1080.09,0.04312
1076.23,0.04626
1072.37,0.04869
1068.51,0.04646
1064.66,0.04861
1060.8,0.04538
1056.94,0.04517
1053.08,0.04702
1049.23,0.04629
1045.37,0.04401
1041.51,0.04610
1037.65,0.04492
1033.8,0.04483
1029.94,0.04764
1026.08,0.04552
1022.22,0.04374
1018.37,0.04379
1014.51,0.04711
1010.65,0.04614
1006.8,0.04747
1002.94,0.04718
999.08,0.04937
995.223,0.04856
991.365,0.04786
987.508,0.04923
983.65,0.04716
979.793,0.04572
975.935,0.04608
972.078,0.04686
968.221,0.04637
964.363,0.04584
960.506,0.04884
956.648,0.04833
952.791,0.04965
948.933,0.05044
945.076,0.04839
941.218,0.05015
937.361,0.04902
933.503,0.05124
929.646,0.05150
925.789,0.05149
921.931,0.04914
918.074,0.04849
914.216,0.04810
910.359,0.04852
906.501,0.04730
902.644,0.04745
898.786,0.04774
894.929,0.04824
891.072,0.04586
887.214,0.04719
883.357,0.04698
879.499,0.04590
875.642,0.04947
871.784,0.04479
867.927,0.04676
864.069,0.04548
860.212,0.04812
856.354,0.04764
852.497,0.04582
848.64,0.04498
844.782,0.04667
840.925,0.04886
837.067,0.04666
833.21,0.04762
829.352,0.04922
825.495,0.04924
821.637,0.04705
817.78,0.04825
813.922,0.04949
810.065,0.04837
806.208,0.04918
802.35,0.04769
798.493,0.04873
794.635,0.04669
790.778,0.04590
786.92,0.05141
783.063,0.05076
779.205,0.04656
775.348,0.04820
771.49,0.05336
767.633,0.04969
763.776,0.05396
759.918,0.05338
756.061,0.05539
752.203,0.05299
748.346,0.05165
744.488,0.05031
740.631,0.04394
736.773,0.04556
732.916,0.04742
729.058,0.04030
725.201,0.04649
721.344,0.04265
717.486,0.04652
713.629,0.04709
709.771,0.04785
705.914,0.05076
702.056,0.04902
698.199,0.04883
694.341,0.05180
690.484,0.05226
686.627,0.05161
682.769,0.04995
678.912,0.05266
675.054,0.04990
671.197,0.04884
667.339,0.05807
663.482,0.05215
659.624,0.05418
655.767,0.05790
651.909,0.05472
648.052,0.05585
644.195,0.05390
640.337,0.06327
636.48,0.05592
632.622,0.05443
628.765,0.05811
624.907,0.06206
621.05,0.06688
617.192,0.06388
613.335,0.06429
609.477,0.06500
605.62,0.06685
601.763,0.06441
597.905,0.06683
594.048,0.06453
590.19,0.06525
586.333,0.06705
582.475,0.06759
578.618,0.06567
574.76,0.06566
570.903,0.06248
567.045,0.06787
563.188,0.06633
559.331,0.06468
555.473,0.06068
551.616,0.05671
547.758,0.05836
543.901,0.05450
540.043,0.05319
536.186,0.06261
532.328,0.05201
528.471,0.04712
524.614,0.05235
520.756,0.05460
516.899,0.06144
513.041,0.05251
509.184,0.06242
505.326,0.04934
501.469,0.06513
497.611,0.05235
493.754,0.05392
489.896,0.04794
486.039,0.05172
482.182,0.05573
478.324,0.05750
474.467,0.05202
470.609,0.04230
466.752,0.05635
462.894,0.05980
459.037,0.05159
455.179,0.07132
451.322,0.05914
447.464,0.06436
443.607,0.05408
439.75,0.05124
435.892,0.06512
432.035,0.05824
428.177,0.05208
424.32,0.05913
420.462,0.07367
416.605,0.04972
412.747,0.05343
408.89,0.04773
405.033,0.05748
401.175,0.03931
399.246,0.01934