File: 01_Data/Polyester_Fabric/FTIR/IS/Polyester_Fabric_IS_T_221019_R6.dpt
7497.03,0.02289
7491.24,0.01979
7485.46,0.03066
7479.67,0.02634
7473.88,0.02335
7468.1,0.02105
7462.31,0.02142
7456.53,0.02188
7450.74,0.01889
7444.95,0.02296
7439.17,0.01409
7433.38,0.02162
7427.59,0.02931
7421.81,0.03161
7416.02,0.02457
7410.24,0.01851
7404.45,0.02457
7398.66,0.02458
7392.88,0.01567
7387.09,0.03201
7381.31,0.02028
7375.52,0.03310
7369.73,0.02140
7363.95,0.02738
7358.16,0.03077
7352.37,0.01624
7346.59,0.02744
7340.8,0.02109
7335.02,0.02618
7329.23,0.01646
7323.44,0.02592
7317.66,0.02169
7311.87,0.02046
7306.08,0.02591
7300.3,0.03004
7294.51,0.02483
7288.73,0.02133
7282.94,0.02753
7277.15,0.02489
7271.37,0.02586
7265.58,0.02062
7259.79,0.02199
7254.01,0.02466
7248.22,0.02200
7242.44,0.02730
7236.65,0.02422
7230.86,0.01775
7225.08,0.02179
7219.29,0.02415
7213.5,0.02261
7207.72,0.02629
7201.93,0.01942
7196.15,0.02150
7190.36,0.01914
7184.57,0.02046
7178.79,0.02415
7173,0.02613
7167.21,0.02559
7161.43,0.02325
7155.64,0.02841
7149.86,0.02481
7144.07,0.02197
7138.28,0.02062
7132.5,0.02214
7126.71,0.02839
7120.92,0.03136
7115.14,0.02288
7109.35,0.02416
7103.57,0.02453
7097.78,0.02425
7091.99,0.01498
7086.21,0.03094
7080.42,0.02212
7074.63,0.02968
7068.85,0.02102
7063.06,0.02433
7057.28,0.02890
7051.49,0.02169
7045.7,0.01975
7039.92,0.02684
7034.13,0.02549
7028.34,0.02444
7022.56,0.02061
7016.77,0.02278
7010.99,0.01873
7005.2,0.02356
6999.41,0.01850
6993.63,0.02090
6987.84,0.02298
6982.06,0.02489
6976.27,0.02030
6970.48,0.02725
6964.7,0.02566
6958.91,0.02794
6953.12,0.02283
6947.34,0.02417
6941.55,0.02037
6935.77,0.01821
6929.98,0.02127
6924.19,0.02651
6918.41,0.02136
6912.62,0.01962
6906.83,0.02048
6901.05,0.02114
6895.26,0.02352
6889.48,0.02075
6883.69,0.01926
6877.9,0.02452
6872.12,0.01939
6866.33,0.02026
6860.54,0.02328
6854.76,0.02312
6848.97,0.02379
6843.19,0.02606
6837.4,0.02323
6831.61,0.01786
6825.83,0.01725
6820.04,0.02538
6814.25,0.02371
6808.47,0.02010
6802.68,0.02501
6796.9,0.02443
6791.11,0.02109
6785.32,0.02465
6779.54,0.02207
6773.75,0.02580
6767.96,0.02495
6762.18,0.01982
6756.39,0.02354
6750.61,0.02771
6744.82,0.02762
6739.03,0.02460
6733.25,0.02337
6727.46,0.02132
6721.67,0.01998
6715.89,0.02150
6710.1,0.02538
6704.32,0.02364
6698.53,0.01994
6692.74,0.02133
6686.96,0.02425
6681.17,0.02508
6675.38,0.02644
6669.6,0.02707
6663.81,0.02429
6658.03,0.01850
6652.24,0.02209
6646.45,0.02179
6640.67,0.02181
6634.88,0.02189
6629.09,0.02188
6623.31,0.02302
6617.52,0.01975
6611.74,0.02148
6605.95,0.01820
6600.16,0.02181
6594.38,0.02189
6588.59,0.02620
6582.8,0.02041
6577.02,0.02348
6571.23,0.02562
6565.45,0.02237
6559.66,0.02277
6553.87,0.01847
6548.09,0.02461
6542.3,0.02641
6536.52,0.02181
6530.73,0.02178
6524.94,0.01988
6519.16,0.01789
6513.37,0.02471
6507.58,0.02348
6501.8,0.02561
6496.01,0.02228
6490.23,0.02197
6484.44,0.02195
6478.65,0.01884
6472.87,0.02409
6467.08,0.01994
6461.29,0.01827
6455.51,0.02211
6449.72,0.02143
6443.94,0.02108
6438.15,0.02174
6432.36,0.02170
6426.58,0.02090
6420.79,0.02131
6415,0.02289
6409.22,0.02451
6403.43,0.02768
6397.65,0.01979
6391.86,0.02116
6386.07,0.02304
6380.29,0.02274
6374.5,0.02212
6368.71,0.01999
6362.93,0.02120
6357.14,0.01921
6351.36,0.02007
6345.57,0.02089
6339.78,0.02137
6334,0.02129
6328.21,0.01904
6322.42,0.02493
6316.64,0.02441
6310.85,0.01977
6305.07,0.02206
6299.28,0.01903
6293.49,0.02146
6287.71,0.02369
6281.92,0.02490
6276.13,0.02251
6270.35,0.02197
6264.56,0.02207
6258.78,0.02180
6252.99,0.02293
6247.2,0.02120
6241.42,0.02148
6235.63,0.02052
6229.84,0.02226
6224.06,0.02079
6218.27,0.01908
6212.49,0.02050
6206.7,0.02316
6200.91,0.02372
6195.13,0.02672
6189.34,0.02442
6183.55,0.02470
6177.77,0.02195
6171.98,0.02195
6166.2,0.02261
6160.41,0.02368
6154.62,0.02567
6148.84,0.02101
6143.05,0.02307
6137.26,0.02254
6131.48,0.02331
6125.69,0.02488
6119.91,0.02369
6114.12,0.02214
6108.33,0.02289
6102.55,0.02181
6096.76,0.01943
6090.98,0.02303
6085.19,0.02231
6079.4,0.02141
6073.62,0.02100
6067.83,0.02318
6062.04,0.02176
6056.26,0.02470
6050.47,0.02256
6044.69,0.02054
6038.9,0.02270
6033.11,0.02375
6027.33,0.02047
6021.54,0.01964
6015.75,0.02377
6009.97,0.02021
6004.18,0.02004
5998.4,0.02135
5992.61,0.01929
5986.82,0.02221
5981.04,0.02143
5975.25,0.01823
5969.46,0.01800
5963.68,0.02147
5957.89,0.02272
5952.11,0.02005
5946.32,0.02167
5940.53,0.01856
5934.75,0.02127
5928.96,0.02225
5923.17,0.02124
5917.39,0.02201
5911.6,0.02270
5905.82,0.02130
5900.03,0.02307
5894.24,0.02217
5888.46,0.02347
5882.67,0.02209
5876.88,0.02069
5871.1,0.01918
5865.31,0.02040
5859.53,0.02251
5853.74,0.02219
5847.95,0.02123
5842.17,0.02152
5836.38,0.01807
5830.59,0.01843
5824.81,0.02119
5819.02,0.02409
5813.24,0.02225
5807.45,0.02531
5801.66,0.02253
5795.88,0.02120
5790.09,0.02256
5784.3,0.02468
5778.52,0.02242
5772.73,0.02407
5766.95,0.02306
5761.16,0.02153
5755.37,0.02114
5749.59,0.02174
5743.8,0.02227
5738.01,0.02097
5732.23,0.02147
5726.44,0.02335
5720.66,0.02190
5714.87,0.02281
5709.08,0.02253
5703.3,0.02316
5697.51,0.02332
5691.72,0.02200
5685.94,0.02135
5680.15,0.02032
5674.37,0.02201
5668.58,0.02170
5662.79,0.02047
5657.01,0.02126
5651.22,0.02351
5645.44,0.02163
5639.65,0.02148
5633.86,0.02442
5628.08,0.02069
5622.29,0.02386
5616.5,0.02074
5610.72,0.02274
5604.93,0.02050
5599.15,0.02302
5593.36,0.02196
5587.57,0.02267
5581.79,0.02340
5576,0.02148
5570.21,0.02243
5564.43,0.02159
5558.64,0.02160
5552.86,0.02336
5547.07,0.02080
5541.28,0.01997
5535.5,0.02018
5529.71,0.02185
5523.92,0.02155
5518.14,0.02136
5512.35,0.02126
5506.57,0.02179
5500.78,0.02134
5494.99,0.02158
5489.21,0.02067
5483.42,0.02126
5477.63,0.02157
5471.85,0.02170
5466.06,0.02125
5460.28,0.02239
5454.49,0.02117
5448.7,0.02297
5442.92,0.02162
5437.13,0.02322
5431.34,0.02221
5425.56,0.02352
5419.77,0.02195
5413.99,0.02410
5408.2,0.02056
5402.41,0.02276
5396.63,0.02224
5390.84,0.02186
5385.05,0.02350
5379.27,0.02303
5373.48,0.02244
5367.7,0.02236
5361.91,0.02116
5356.12,0.02243
5350.34,0.02262
5344.55,0.02147
5338.76,0.02221
5332.98,0.02121
5327.19,0.02313
5321.41,0.02328
5315.62,0.02384
5309.83,0.02145
5304.05,0.02093
5298.26,0.02272
5292.47,0.02225
5286.69,0.02166
5280.9,0.02153
5275.12,0.02316
5269.33,0.02216
5263.54,0.02176
5257.76,0.02300
5251.97,0.02238
5246.18,0.02153
5240.4,0.02140
5234.61,0.02172
5228.83,0.02202
5223.04,0.02259
5217.25,0.02280
5211.47,0.02207
5205.68,0.02268
5199.9,0.02254
5194.11,0.02239
5188.32,0.02421
5182.54,0.02300
5176.75,0.02281
5170.96,0.02344
5165.18,0.02376
5159.39,0.02237
5153.61,0.02255
5147.82,0.02135
5142.03,0.02187
5136.25,0.02216
5130.46,0.02127
5124.67,0.02279
5118.89,0.02264
5113.1,0.02236
5107.32,0.02219
5101.53,0.02296
5095.74,0.02220
5089.96,0.02330
5084.17,0.02092
5078.38,0.02205
5072.6,0.02312
5066.81,0.02241
5061.03,0.02267
5055.24,0.02200
5049.45,0.02163
5043.67,0.02243
5037.88,0.02338
5032.09,0.02327
5026.31,0.02152
5020.52,0.02130
5014.74,0.02299
5008.95,0.02264
5003.16,0.02267
4997.38,0.02142
4991.59,0.02209
4985.8,0.02209
4980.02,0.02213
4974.23,0.02151
4968.45,0.02196
4962.66,0.02224
4956.87,0.02212
4951.09,0.02205
4945.3,0.02341
4939.51,0.02296
4933.73,0.02407
4927.94,0.02330
4922.16,0.02244
4916.37,0.02249
4910.58,0.02246
4904.8,0.02099
4899.01,0.02219
4893.22,0.02230
4887.44,0.02285
4881.65,0.02213
4875.87,0.02208
4870.08,0.02219
4864.29,0.02180
4858.51,0.02181
4852.72,0.02326
4846.93,0.02237
4841.15,0.02203
4835.36,0.02274
4829.58,0.02210
4823.79,0.02262
4818,0.02190
4812.22,0.02195
4806.43,0.02242
4800.65,0.02305
4794.86,0.02194
4789.07,0.02170
4783.29,0.02303
4777.5,0.02259
4771.71,0.02306
4765.93,0.02274
4760.14,0.02294
4754.36,0.02283
4748.57,0.02193
4742.78,0.02253
4737,0.02262
4731.21,0.02291
4725.42,0.02316
4719.64,0.02221
4713.85,0.02314
4708.07,0.02348
4702.28,0.02314
4696.49,0.02285
4690.71,0.02291
4684.92,0.02306
4679.13,0.02279
4673.35,0.02216
4667.56,0.02284
4661.78,0.02242
4655.99,0.02187
4650.2,0.02241
4644.42,0.02268
4638.63,0.02278
4632.84,0.02197
4627.06,0.02283
4621.27,0.02305
4615.49,0.02317
4609.7,0.02290
4603.91,0.02275
4598.13,0.02199
4592.34,0.02217
4586.55,0.02212
4580.77,0.02275
4574.98,0.02242
4569.2,0.02260
4563.41,0.02403
4557.62,0.02308
4551.84,0.02299
4546.05,0.02249
4540.26,0.02165
4534.48,0.02254
4528.69,0.02305
4522.91,0.02274
4517.12,0.02285
4511.33,0.02259
4505.55,0.02158
4499.76,0.02303
4493.97,0.02338
4488.19,0.02261
4482.4,0.02214
4476.62,0.02274
4470.83,0.02290
4465.04,0.02259
4459.26,0.02250
4453.47,0.02249
4447.68,0.02233
4441.9,0.02306
4436.11,0.02337
4430.33,0.02339
4424.54,0.02321
4418.75,0.02292
4412.97,0.02222
4407.18,0.02166
4401.39,0.02277
4395.61,0.02239
4389.82,0.02246
4384.04,0.02325
4378.25,0.02310
4372.46,0.02262
4366.68,0.02351
4360.89,0.02274
4355.11,0.02227
4349.32,0.02250
4343.53,0.02320
4337.75,0.02219
4331.96,0.02262
4326.17,0.02202
4320.39,0.02258
4314.6,0.02226
4308.82,0.02257
4303.03,0.02238
4297.24,0.02280
4291.46,0.02291
4285.67,0.02226
4279.88,0.02331
4274.1,0.02335
4268.31,0.02315
4262.53,0.02337
4256.74,0.02292
4250.95,0.02304
4245.17,0.02267
4239.38,0.02215
4233.59,0.02403
4227.81,0.02333
4222.02,0.02278
4216.24,0.02245
4210.45,0.02375
4204.66,0.02355
4198.88,0.02303
4193.09,0.02259
4187.3,0.02301
4181.52,0.02250
4175.73,0.02296
4169.95,0.02358
4164.16,0.02330
4158.37,0.02305
4152.59,0.02315
4146.8,0.02340
4141.01,0.02291
4135.23,0.02286
4129.44,0.02315
4123.66,0.02263
4117.87,0.02326
4112.08,0.02451
4106.3,0.02413
4100.51,0.02308
4094.72,0.02312
4088.94,0.02377
4083.15,0.02303
4077.37,0.02364
4071.58,0.02295
4065.79,0.02314
4060.01,0.02387
4054.22,0.02301
4048.43,0.02315
4042.65,0.02238
4036.86,0.02271
4031.08,0.02341
4025.29,0.02332
4019.5,0.02341
4013.72,0.02311
4007.93,0.02275
4002.14,0.02321
3996.36,0.02337
3990.57,0.02345
3984.79,0.02275
3979,0.02287
3973.21,0.02333
3967.43,0.02363
3961.64,0.02322
3955.85,0.02303
3950.07,0.02320
3944.28,0.02278
3938.5,0.02234
3932.71,0.02248
3926.92,0.02317
3921.14,0.02296
3915.35,0.02305
3909.57,0.02343
3903.78,0.02296
3897.99,0.02355
3892.21,0.02376
3886.42,0.02288
3880.63,0.02257
3874.85,0.02350
3869.06,0.02378
3863.28,0.02364
3857.49,0.02362
3851.7,0.02328
3845.92,0.02361
3840.13,0.02406
3834.34,0.02335
3828.56,0.02346
3822.77,0.02358
3816.99,0.02276
3811.2,0.02295
3805.41,0.02309
3799.63,0.02297
3793.84,0.02312
3788.05,0.02367
3782.27,0.02285
3776.48,0.02286
3770.7,0.02349
3764.91,0.02299
3759.12,0.02315
3753.34,0.02315
3747.55,0.02404
3741.76,0.02364
3735.98,0.02360
3730.19,0.02358
3724.41,0.02408
3718.62,0.02313
3712.83,0.02281
3707.05,0.02291
3701.26,0.02272
3695.47,0.02330
3689.69,0.02277
3683.9,0.02335
3678.12,0.02288
3672.33,0.02271
3666.54,0.02246
3660.76,0.02308
3654.97,0.02264
3649.18,0.02354
3643.4,0.02303
3637.61,0.02316
3631.83,0.02220
3626.04,0.02210
3620.25,0.02250
3614.47,0.02282
3608.68,0.02197
3602.89,0.02239
3597.11,0.02213
3591.32,0.02221
3585.54,0.02270
3579.75,0.02207
3573.96,0.02193
3568.18,0.02223
3562.39,0.02206
3556.6,0.02160
3550.82,0.02087
3545.03,0.02134
3539.25,0.02164
3533.46,0.02187
3527.67,0.02147
3521.89,0.02176
3516.1,0.02156
3510.31,0.02169
3504.53,0.02187
3498.74,0.02191
3492.96,0.02148
3487.17,0.02197
3481.38,0.02157
3475.6,0.02110
3469.81,0.02129
3464.03,0.02164
3458.24,0.02155
3452.45,0.02140
3446.67,0.02107
3440.88,0.02082
3435.09,0.02118
3429.31,0.02141
3423.52,0.02117
3417.74,0.02112
3411.95,0.02125
3406.16,0.02129
3400.38,0.02056
3394.59,0.02068
3388.8,0.02122
3383.02,0.02077
3377.23,0.02091
3371.45,0.02069
3365.66,0.02064
3359.87,0.02090
3354.09,0.02092
3348.3,0.02007
3342.51,0.02057
3336.73,0.02121
3330.94,0.02094
3325.16,0.02063
3319.37,0.02108
3313.58,0.02046
3307.8,0.02072
3302.01,0.02028
3296.22,0.02073
3290.44,0.02161
3284.65,0.02056
3278.87,0.02067
3273.08,0.02104
3267.29,0.02147
3261.51,0.02093
3255.72,0.02124
3249.93,0.02124
3244.15,0.02159
3238.36,0.02127
3232.58,0.02153
3226.79,0.02120
3221,0.02146
3215.22,0.02140
3209.43,0.02207
3203.64,0.02193
3197.86,0.02091
3192.07,0.02057
3186.29,0.02086
3180.5,0.02171
3174.71,0.02045
3168.93,0.02094
3163.14,0.02145
3157.35,0.02137
3151.57,0.02179
3145.78,0.02196
3140,0.02117
3134.21,0.02110
3128.42,0.02111
3122.64,0.02132
3116.85,0.02122
3111.06,0.02189
3105.28,0.02101
3099.49,0.02160
3093.71,0.02136
3087.92,0.02104
3082.13,0.02125
3076.35,0.02116
3070.56,0.02119
3064.77,0.02128
3058.99,0.02194
3053.2,0.02105
3047.42,0.02121
3041.63,0.02113
3035.84,0.02092
3030.06,0.02075
3024.27,0.02130
3018.49,0.02157
3012.7,0.02098
3006.91,0.02074
3001.13,0.02111
2995.34,0.02016
2989.55,0.02048
2983.77,0.02058
2977.98,0.01993
2972.2,0.02017
2966.41,0.01992
2960.62,0.02059
2954.84,0.02006
2949.05,0.02044
2943.26,0.02000
2937.48,0.02020
2931.69,0.02032
2925.91,0.02035
2920.12,0.02062
2914.33,0.02094
2908.55,0.02128
2902.76,0.02084
2896.97,0.02170
2891.19,0.02130
2885.4,0.02087
2879.62,0.02092
2873.83,0.02120
2868.04,0.02139
2862.26,0.02091
2856.47,0.02126
2850.68,0.02185
2844.9,0.02184
2839.11,0.02192
2833.33,0.02206
2827.54,0.02197
2821.75,0.02192
2815.97,0.02163
2810.18,0.02174
2804.39,0.02236
2798.61,0.02202
2792.82,0.02192
2787.04,0.02202
2781.25,0.02196
2775.46,0.02219
2769.68,0.02163
2763.89,0.02216
2758.1,0.02186
2752.32,0.02170
2746.53,0.02164
2740.75,0.02176
2734.96,0.02188
2729.17,0.02158
2723.39,0.02143
2717.6,0.02176
2711.81,0.02211
2706.03,0.02186
2700.24,0.02198
2694.46,0.02218
2688.67,0.02221
2682.88,0.02231
2677.1,0.02213
2671.31,0.02209
2665.52,0.02186
2659.74,0.02172
2653.95,0.02216
2648.17,0.02197
2642.38,0.02170
2636.59,0.02179
2630.81,0.02192
2625.02,0.02220
2619.24,0.02235
2613.45,0.02211
2607.66,0.02210
2601.88,0.02221
2596.09,0.02195
2590.3,0.02210
2584.52,0.02213
2578.73,0.02199
2572.95,0.02204
2567.16,0.02220
2561.37,0.02231
2555.59,0.02202
2549.8,0.02178
2544.01,0.02235
2538.23,0.02204
2532.44,0.02178
2526.66,0.02239
2520.87,0.02209
2515.08,0.02194
2509.3,0.02223
2503.51,0.02194
2497.72,0.02220
2491.94,0.02177
2486.15,0.02177
2480.37,0.02162
2474.58,0.02182
2468.79,0.02164
2463.01,0.02217
2457.22,0.02179
2451.43,0.02187
2445.65,0.02150
2439.86,0.02221
2434.08,0.02240
2428.29,0.02204
2422.5,0.02221
2416.72,0.02175
2410.93,0.02220
2405.14,0.02208
2399.36,0.02191
2393.57,0.02164
2387.79,0.02196
2382,0.02214
2376.21,0.02214
2370.43,0.02206
2364.64,0.02225
2358.85,0.02185
2353.07,0.02201
2347.28,0.02168
2341.5,0.02227
2335.71,0.02178
2329.92,0.02208
2324.14,0.02191
2318.35,0.02183
2312.56,0.02196
2306.78,0.02202
2300.99,0.02169
2295.21,0.02187
2289.42,0.02181
2283.63,0.02178
2277.85,0.02213
2272.06,0.02215
2266.27,0.02164
2260.49,0.02207
2254.7,0.02179
2248.92,0.02144
2243.13,0.02179
2237.34,0.02136
2231.56,0.02172
2225.77,0.02209
2219.98,0.02166
2214.2,0.02181
2208.41,0.02202
2202.63,0.02194
2196.84,0.02200
2191.05,0.02204
2185.27,0.02195
2179.48,0.02194
2173.7,0.02189
2167.91,0.02180
2162.12,0.02222
2156.34,0.02206
2150.55,0.02204
2144.76,0.02212
2138.98,0.02192
2133.19,0.02183
2127.41,0.02199
2121.62,0.02190
2115.83,0.02187
2110.05,0.02166
2104.26,0.02224
2098.47,0.02204
2092.69,0.02177
2086.9,0.02191
2081.12,0.02175
2075.33,0.02186
2069.54,0.02182
2063.76,0.02161
2057.97,0.02160
2052.18,0.02221
2046.4,0.02199
2040.61,0.02169
2034.83,0.02189
2029.04,0.02187
2023.25,0.02152
2017.47,0.02153
2011.68,0.02159
2005.89,0.02187
2000.11,0.02180
1994.32,0.02131
1988.54,0.02190
1982.75,0.02198
1976.96,0.02184
1971.18,0.02186
1965.39,0.02148
1959.6,0.02197
1953.82,0.02150
1948.03,0.02169
1942.25,0.02211
1936.46,0.02185
1930.67,0.02168
1924.89,0.02168
1919.1,0.02156
1913.31,0.02143
1907.53,0.02150
1901.74,0.02138
1895.96,0.02078
1890.17,0.02154
1884.38,0.02142
1878.6,0.02129
1872.81,0.02151
1867.02,0.02154
1861.24,0.02156
1855.45,0.02135
1849.67,0.02154
1843.88,0.02091
1838.09,0.02093
1832.31,0.02095
1826.52,0.02103
1820.73,0.02093
1814.95,0.02069
1809.16,0.02041
1803.38,0.02095
1797.59,0.02071
1791.8,0.02053
1786.02,0.02019
1780.23,0.01982
1774.44,0.01961
1768.66,0.01936
1762.87,0.01888
1757.09,0.01820
1751.3,0.01819
1745.51,0.01803
1739.73,0.01930
1733.94,0.02024
1728.16,0.02067
1722.37,0.02171
1716.58,0.02149
1710.8,0.02092
1705.01,0.02076
1699.22,0.02048
1693.44,0.02037
1687.65,0.01970
1681.87,0.01926
1676.08,0.01960
1670.29,0.01927
1664.51,0.01899
1658.72,0.01878
1652.93,0.01909
1647.15,0.01885
1641.36,0.01886
1635.58,0.01936
1629.79,0.01940
1624,0.01889
1618.22,0.01910
1612.43,0.01916
1606.64,0.01951
1600.86,0.01930
1595.07,0.01938
1589.29,0.01935
1583.5,0.01858
1577.71,0.01885
1571.93,0.01870
1566.14,0.01886
1560.35,0.01824
1554.57,0.01863
1548.78,0.01830
1543,0.01893
1537.21,0.01906
1531.42,0.01895
1525.64,0.01894
1519.85,0.01938
1514.06,0.01943
1508.28,0.01923
1502.49,0.01917
1496.71,0.01941
1490.92,0.01892
1485.13,0.01906
1479.35,0.01873
1473.56,0.01875
1467.77,0.01888
1461.99,0.01860
1456.2,0.01921
1450.42,0.01919
1444.63,0.01919
1438.84,0.01896
1433.06,0.01888
1427.27,0.01945
1421.48,0.01897
1415.7,0.01873
1409.91,0.01902
1404.13,0.01885
1398.34,0.01872
1392.55,0.01854
1386.77,0.01862
1380.98,0.01857
1375.19,0.01847
1369.41,0.01869
1363.62,0.01855
1357.84,0.01855
1352.05,0.01888
1346.26,0.01840
1340.48,0.01846
1334.69,0.01799
1328.9,0.01777
1323.12,0.01749
1317.33,0.01734
1311.55,0.01737
1305.76,0.01773
1299.97,0.01780
1294.19,0.01825
1288.4,0.01891
1282.62,0.01923
1276.83,0.01959
1271.04,0.01967
1265.26,0.02015
1259.47,0.02074
1253.68,0.02051
1247.9,0.02082
1242.11,0.02021
1236.33,0.02006
1230.54,0.02002
1224.75,0.02008
1218.97,0.01964
1213.18,0.01964
1207.39,0.01887
1201.61,0.01898
1195.82,0.01868
1190.04,0.01810
1184.25,0.01834
1178.46,0.01814
1172.68,0.01871
1166.89,0.01813
1161.1,0.01802
1155.32,0.01776
1149.53,0.01778
1143.75,0.01776
1137.96,0.01816
1132.17,0.01873
1126.39,0.01911
1120.6,0.01849
1114.81,0.01854
1109.03,0.01920
1103.24,0.01882
1097.46,0.01889
1091.67,0.01870
1085.88,0.01915
1080.1,0.01901
1074.31,0.01953
1068.52,0.02046
1062.74,0.02072
1056.95,0.02004
1051.17,0.01947
1045.38,0.02015
1039.59,0.02004
1033.81,0.01952
1028.02,0.01937
1022.23,0.01929
1016.45,0.01966
1010.66,0.02036
1004.88,0.02100
999.09,0.02175
993.303,0.02159
987.517,0.02103
981.731,0.02131
975.945,0.02127
970.158,0.02031
964.372,0.02083
958.586,0.02066
952.8,0.02086
947.014,0.02011
941.227,0.02031
935.441,0.01998
929.655,0.01987
923.869,0.01966
918.082,0.01934
912.296,0.02024
906.51,0.01958
900.724,0.01948
894.937,0.01968
889.151,0.01999
883.365,0.02009
877.579,0.01943
871.793,0.01957
866.006,0.01939
860.22,0.01919
854.434,0.01832
848.648,0.01921
842.861,0.01921
837.075,0.01895
831.289,0.01949
825.503,0.01973
819.716,0.01958
813.93,0.01884
808.144,0.01885
802.358,0.01941
796.571,0.01875
790.785,0.01927
784.999,0.01848
779.213,0.01855
773.427,0.01898
767.64,0.01898
761.854,0.01800
756.068,0.01821
750.282,0.01861
744.495,0.01880
738.709,0.01912
732.923,0.01857
727.137,0.01905
721.35,0.01852
715.564,0.01857
709.778,0.01906
703.992,0.01878
698.206,0.01838
692.419,0.01736
686.633,0.01774
680.847,0.01760
675.061,0.01759
669.274,0.01795
663.488,0.01714
657.702,0.01659
651.916,0.01770
646.129,0.01765
640.343,0.01712
634.557,0.01545
628.771,0.01582
622.984,0.01460
617.198,0.01749
611.412,0.01493
605.626,0.01548
599.84,0.01564