File: 01_Data/Polyester_Fabric/FTIR/IS/Polyester_Fabric_IS_S_221019_R2.dpt
7497.03,0.83227
7491.24,0.84206
7485.46,0.84227
7479.67,0.83612
7473.88,0.83595
7468.1,0.83568
7462.31,0.84255
7456.53,0.83135
7450.74,0.83101
7444.95,0.82728
7439.17,0.82762
7433.38,0.82337
7427.59,0.83484
7421.81,0.83929
7416.02,0.83413
7410.24,0.83125
7404.45,0.83001
7398.66,0.82698
7392.88,0.82569
7387.09,0.83914
7381.31,0.82594
7375.52,0.81735
7369.73,0.81608
7363.95,0.82170
7358.16,0.81871
7352.37,0.82538
7346.59,0.82156
7340.8,0.82042
7335.02,0.81949
7329.23,0.81262
7323.44,0.81626
7317.66,0.82533
7311.87,0.82151
7306.08,0.81363
7300.3,0.81995
7294.51,0.81809
7288.73,0.82681
7282.94,0.81405
7277.15,0.82110
7271.37,0.81855
7265.58,0.81803
7259.79,0.82123
7254.01,0.82114
7248.22,0.81651
7242.44,0.80925
7236.65,0.82036
7230.86,0.80848
7225.08,0.81470
7219.29,0.81090
7213.5,0.81836
7207.72,0.81281
7201.93,0.80722
7196.15,0.81163
7190.36,0.81693
7184.57,0.80660
7178.79,0.81320
7173,0.80494
7167.21,0.80804
7161.43,0.81649
7155.64,0.81827
7149.86,0.81779
7144.07,0.81259
7138.28,0.81110
7132.5,0.81129
7126.71,0.80620
7120.92,0.80957
7115.14,0.81275
7109.35,0.80894
7103.57,0.80794
7097.78,0.80346
7091.99,0.79885
7086.21,0.80527
7080.42,0.80478
7074.63,0.80288
7068.85,0.80487
7063.06,0.80781
7057.28,0.80420
7051.49,0.79995
7045.7,0.80509
7039.92,0.80775
7034.13,0.81001
7028.34,0.80207
7022.56,0.80372
7016.77,0.80259
7010.99,0.80325
7005.2,0.80136
6999.41,0.80433
6993.63,0.81325
6987.84,0.80819
6982.06,0.80280
6976.27,0.80834
6970.48,0.80593
6964.7,0.80386
6958.91,0.80325
6953.12,0.80519
6947.34,0.80978
6941.55,0.81176
6935.77,0.80500
6929.98,0.80361
6924.19,0.80588
6918.41,0.80876
6912.62,0.80936
6906.83,0.80464
6901.05,0.81037
6895.26,0.80433
6889.48,0.80630
6883.69,0.80489
6877.9,0.81432
6872.12,0.80884
6866.33,0.80919
6860.54,0.80764
6854.76,0.81263
6848.97,0.80798
6843.19,0.80240
6837.4,0.81171
6831.61,0.80733
6825.83,0.80748
6820.04,0.80989
6814.25,0.81075
6808.47,0.81261
6802.68,0.80557
6796.9,0.80558
6791.11,0.81066
6785.32,0.81332
6779.54,0.81079
6773.75,0.81199
6767.96,0.81142
6762.18,0.81415
6756.39,0.80872
6750.61,0.80303
6744.82,0.81187
6739.03,0.80901
6733.25,0.80707
6727.46,0.81724
6721.67,0.81409
6715.89,0.81010
6710.1,0.81088
6704.32,0.81343
6698.53,0.81522
6692.74,0.81289
6686.96,0.81137
6681.17,0.80594
6675.38,0.80948
6669.6,0.81161
6663.81,0.81241
6658.03,0.80768
6652.24,0.81263
6646.45,0.81566
6640.67,0.81359
6634.88,0.80883
6629.09,0.81404
6623.31,0.81256
6617.52,0.81531
6611.74,0.81536
6605.95,0.81935
6600.16,0.81752
6594.38,0.81667
6588.59,0.81597
6582.8,0.81602
6577.02,0.81548
6571.23,0.81338
6565.45,0.81617
6559.66,0.81281
6553.87,0.81605
6548.09,0.81177
6542.3,0.81331
6536.52,0.81174
6530.73,0.81919
6524.94,0.81919
6519.16,0.81836
6513.37,0.81779
6507.58,0.81490
6501.8,0.81584
6496.01,0.81643
6490.23,0.81416
6484.44,0.82126
6478.65,0.81670
6472.87,0.81964
6467.08,0.82095
6461.29,0.81651
6455.51,0.81771
6449.72,0.81571
6443.94,0.81996
6438.15,0.81999
6432.36,0.81804
6426.58,0.81942
6420.79,0.81916
6415,0.81641
6409.22,0.81474
6403.43,0.81748
6397.65,0.82069
6391.86,0.81903
6386.07,0.81773
6380.29,0.81869
6374.5,0.81466
6368.71,0.81672
6362.93,0.81945
6357.14,0.81827
6351.36,0.81666
6345.57,0.81770
6339.78,0.82009
6334,0.81761
6328.21,0.81602
6322.42,0.81522
6316.64,0.81766
6310.85,0.81172
6305.07,0.81857
6299.28,0.81814
6293.49,0.81801
6287.71,0.81721
6281.92,0.81803
6276.13,0.82049
6270.35,0.81342
6264.56,0.81631
6258.78,0.81311
6252.99,0.81492
6247.2,0.81484
6241.42,0.81657
6235.63,0.81711
6229.84,0.81582
6224.06,0.81450
6218.27,0.81436
6212.49,0.80988
6206.7,0.81064
6200.91,0.80764
6195.13,0.80466
6189.34,0.80585
6183.55,0.80290
6177.77,0.80756
6171.98,0.80446
6166.2,0.80274
6160.41,0.80403
6154.62,0.80276
6148.84,0.79701
6143.05,0.79713
6137.26,0.79690
6131.48,0.79561
6125.69,0.79189
6119.91,0.78890
6114.12,0.78680
6108.33,0.78188
6102.55,0.77333
6096.76,0.76805
6090.98,0.75482
6085.19,0.74927
6079.4,0.74460
6073.62,0.73483
6067.83,0.73030
6062.04,0.71953
6056.26,0.70940
6050.47,0.70372
6044.69,0.69975
6038.9,0.69139
6033.11,0.68322
6027.33,0.67871
6021.54,0.67368
6015.75,0.67725
6009.97,0.68256
6004.18,0.68990
5998.4,0.69715
5992.61,0.70463
5986.82,0.71061
5981.04,0.71311
5975.25,0.71321
5969.46,0.71408
5963.68,0.72404
5957.89,0.72656
5952.11,0.72814
5946.32,0.73200
5940.53,0.72871
5934.75,0.73603
5928.96,0.74425
5923.17,0.74998
5917.39,0.75048
5911.6,0.75390
5905.82,0.75814
5900.03,0.75864
5894.24,0.75665
5888.46,0.75726
5882.67,0.75467
5876.88,0.75192
5871.1,0.74857
5865.31,0.74627
5859.53,0.74737
5853.74,0.74811
5847.95,0.75075
5842.17,0.75001
5836.38,0.75184
5830.59,0.74989
5824.81,0.75113
5819.02,0.75176
5813.24,0.74727
5807.45,0.74882
5801.66,0.74842
5795.88,0.74921
5790.09,0.75190
5784.3,0.75097
5778.52,0.75448
5772.73,0.75579
5766.95,0.75376
5761.16,0.75656
5755.37,0.76083
5749.59,0.76205
5743.8,0.76577
5738.01,0.76665
5732.23,0.77151
5726.44,0.77570
5720.66,0.77298
5714.87,0.77232
5709.08,0.77318
5703.3,0.77284
5697.51,0.77687
5691.72,0.77805
5685.94,0.77623
5680.15,0.77945
5674.37,0.77972
5668.58,0.77984
5662.79,0.77895
5657.01,0.77894
5651.22,0.77858
5645.44,0.77973
5639.65,0.78411
5633.86,0.78548
5628.08,0.78644
5622.29,0.78699
5616.5,0.78849
5610.72,0.78916
5604.93,0.78840
5599.15,0.78695
5593.36,0.78662
5587.57,0.78517
5581.79,0.78434
5576,0.78393
5570.21,0.78358
5564.43,0.78239
5558.64,0.78160
5552.86,0.78061
5547.07,0.78034
5541.28,0.78255
5535.5,0.78328
5529.71,0.78207
5523.92,0.78318
5518.14,0.78433
5512.35,0.78598
5506.57,0.78459
5500.78,0.78494
5494.99,0.78480
5489.21,0.78459
5483.42,0.78122
5477.63,0.78038
5471.85,0.78150
5466.06,0.78310
5460.28,0.78573
5454.49,0.78346
5448.7,0.78686
5442.92,0.79009
5437.13,0.79129
5431.34,0.79544
5425.56,0.79672
5419.77,0.79353
5413.99,0.79533
5408.2,0.79471
5402.41,0.79505
5396.63,0.79248
5390.84,0.79645
5385.05,0.79483
5379.27,0.79636
5373.48,0.79624
5367.7,0.79610
5361.91,0.79369
5356.12,0.79328
5350.34,0.79333
5344.55,0.79477
5338.76,0.79615
5332.98,0.79571
5327.19,0.79559
5321.41,0.79392
5315.62,0.79571
5309.83,0.79539
5304.05,0.79521
5298.26,0.79288
5292.47,0.79217
5286.69,0.79222
5280.9,0.79005
5275.12,0.78739
5269.33,0.78476
5263.54,0.78165
5257.76,0.77953
5251.97,0.78001
5246.18,0.77835
5240.4,0.77774
5234.61,0.77852
5228.83,0.77708
5223.04,0.77890
5217.25,0.77949
5211.47,0.77922
5205.68,0.77782
5199.9,0.78059
5194.11,0.78106
5188.32,0.78006
5182.54,0.78066
5176.75,0.77926
5170.96,0.77750
5165.18,0.77772
5159.39,0.77570
5153.61,0.77422
5147.82,0.77104
5142.03,0.76917
5136.25,0.76715
5130.46,0.76443
5124.67,0.76112
5118.89,0.75977
5113.1,0.76164
5107.32,0.76702
5101.53,0.77020
5095.74,0.77393
5089.96,0.77692
5084.17,0.78082
5078.38,0.78103
5072.6,0.78298
5066.81,0.78362
5061.03,0.78567
5055.24,0.78465
5049.45,0.78476
5043.67,0.78480
5037.88,0.78489
5032.09,0.78375
5026.31,0.78531
5020.52,0.78461
5014.74,0.78502
5008.95,0.78427
5003.16,0.78489
4997.38,0.78422
4991.59,0.78639
4985.8,0.78584
4980.02,0.78638
4974.23,0.78534
4968.45,0.78430
4962.66,0.78423
4956.87,0.78226
4951.09,0.77959
4945.3,0.77940
4939.51,0.77775
4933.73,0.77664
4927.94,0.77673
4922.16,0.77542
4916.37,0.77431
4910.58,0.77243
4904.8,0.77001
4899.01,0.77038
4893.22,0.76997
4887.44,0.76975
4881.65,0.76845
4875.87,0.76794
4870.08,0.76782
4864.29,0.76609
4858.51,0.76627
4852.72,0.76540
4846.93,0.76356
4841.15,0.75954
4835.36,0.75679
4829.58,0.75291
4823.79,0.75018
4818,0.74656
4812.22,0.74339
4806.43,0.73999
4800.65,0.73715
4794.86,0.73614
4789.07,0.73751
4783.29,0.74044
4777.5,0.74241
4771.71,0.74439
4765.93,0.74442
4760.14,0.74253
4754.36,0.73825
4748.57,0.73084
4742.78,0.72382
4737,0.71785
4731.21,0.70895
4725.42,0.69794
4719.64,0.68905
4713.85,0.68743
4708.07,0.68410
4702.28,0.67297
4696.49,0.65990
4690.71,0.65045
4684.92,0.65454
4679.13,0.66753
4673.35,0.68262
4667.56,0.69129
4661.78,0.69459
4655.99,0.69553
4650.2,0.69148
4644.42,0.68077
4638.63,0.66980
4632.84,0.66800
4627.06,0.67901
4621.27,0.69648
4615.49,0.70926
4609.7,0.71627
4603.91,0.71611
4598.13,0.70925
4592.34,0.70094
4586.55,0.69595
4580.77,0.69128
4574.98,0.69563
4569.2,0.70967
4563.41,0.72083
4557.62,0.72490
4551.84,0.72479
4546.05,0.72459
4540.26,0.72597
4534.48,0.72466
4528.69,0.72270
4522.91,0.71956
4517.12,0.71660
4511.33,0.71063
4505.55,0.70087
4499.76,0.68829
4493.97,0.67453
4488.19,0.66239
4482.4,0.65625
4476.62,0.64991
4470.83,0.63752
4465.04,0.61694
4459.26,0.59868
4453.47,0.59696
4447.68,0.59806
4441.9,0.59366
4436.11,0.58756
4430.33,0.58686
4424.54,0.59520
4418.75,0.60466
4412.97,0.60870
4407.18,0.61020
4401.39,0.61341
4395.61,0.61900
4389.82,0.62423
4384.04,0.62705
4378.25,0.62778
4372.46,0.62828
4366.68,0.62788
4360.89,0.62443
4355.11,0.62479
4349.32,0.62255
4343.53,0.61984
4337.75,0.61525
4331.96,0.61550
4326.17,0.61586
4320.39,0.61685
4314.6,0.61352
4308.82,0.60809
4303.03,0.60066
4297.24,0.59540
4291.46,0.59167
4285.67,0.59353
4279.88,0.59664
4274.1,0.60000
4268.31,0.60243
4262.53,0.60518
4256.74,0.60563
4250.95,0.60463
4245.17,0.60262
4239.38,0.60333
4233.59,0.60472
4227.81,0.60394
4222.02,0.60622
4216.24,0.61230
4210.45,0.61554
4204.66,0.61709
4198.88,0.61835
4193.09,0.61869
4187.3,0.61497
4181.52,0.60665
4175.73,0.60367
4169.95,0.61084
4164.16,0.61830
4158.37,0.62492
4152.59,0.62783
4146.8,0.62716
4141.01,0.62073
4135.23,0.61266
4129.44,0.60936
4123.66,0.60899
4117.87,0.60626
4112.08,0.59918
4106.3,0.58955
4100.51,0.57455
4094.72,0.54832
4088.94,0.54056
4083.15,0.55538
4077.37,0.57567
4071.58,0.59297
4065.79,0.60228
4060.01,0.60816
4054.22,0.61253
4048.43,0.61713
4042.65,0.62164
4036.86,0.62697
4031.08,0.62952
4025.29,0.63124
4019.5,0.63087
4013.72,0.63022
4007.93,0.63140
4002.14,0.63201
3996.36,0.63421
3990.57,0.63684
3984.79,0.63876
3979,0.63866
3973.21,0.63782
3967.43,0.64033
3961.64,0.64330
3955.85,0.64657
3950.07,0.64958
3944.28,0.65134
3938.5,0.65232
3932.71,0.65313
3926.92,0.65293
3921.14,0.65392
3915.35,0.65450
3909.57,0.65772
3903.78,0.66025
3897.99,0.66529
3892.21,0.67104
3886.42,0.67388
3880.63,0.67568
3874.85,0.67707
3869.06,0.67940
3863.28,0.68051
3857.49,0.68257
3851.7,0.68465
3845.92,0.68379
3840.13,0.68409
3834.34,0.68336
3828.56,0.68268
3822.77,0.68236
3816.99,0.67783
3811.2,0.67046
3805.41,0.66873
3799.63,0.67114
3793.84,0.67567
3788.05,0.67875
3782.27,0.67828
3776.48,0.67548
3770.7,0.67174
3764.91,0.66661
3759.12,0.66178
3753.34,0.66737
3747.55,0.67927
3741.76,0.68255
3735.98,0.67694
3730.19,0.67263
3724.41,0.67998
3718.62,0.68536
3712.83,0.68437
3707.05,0.67613
3701.26,0.66283
3695.47,0.64719
3689.69,0.62295
3683.9,0.61510
3678.12,0.63079
3672.33,0.64211
3666.54,0.63835
3660.76,0.63021
3654.97,0.62002
3649.18,0.60977
3643.4,0.59965
3637.61,0.59094
3631.83,0.58307
3626.04,0.57622
3620.25,0.56930
3614.47,0.56368
3608.68,0.55788
3602.89,0.55049
3597.11,0.54135
3591.32,0.52931
3585.54,0.51718
3579.75,0.50324
3573.96,0.48874
3568.18,0.47482
3562.39,0.46462
3556.6,0.45607
3550.82,0.45009
3545.03,0.44722
3539.25,0.44584
3533.46,0.44630
3527.67,0.44755
3521.89,0.44912
3516.1,0.45078
3510.31,0.45250
3504.53,0.45168
3498.74,0.45107
3492.96,0.44971
3487.17,0.44687
3481.38,0.44246
3475.6,0.43575
3469.81,0.42842
3464.03,0.41742
3458.24,0.40475
3452.45,0.39133
3446.67,0.37632
3440.88,0.35972
3435.09,0.33996
3429.31,0.33401
3423.52,0.35597
3417.74,0.37923
3411.95,0.39831
3406.16,0.41171
3400.38,0.42116
3394.59,0.42679
3388.8,0.42893
3383.02,0.42941
3377.23,0.42968
3371.45,0.42910
3365.66,0.42669
3359.87,0.42322
3354.09,0.41744
3348.3,0.41128
3342.51,0.40485
3336.73,0.40138
3330.94,0.40375
3325.16,0.40995
3319.37,0.41340
3313.58,0.41382
3307.8,0.41306
3302.01,0.41130
3296.22,0.41265
3290.44,0.41604
3284.65,0.41934
3278.87,0.42180
3273.08,0.42468
3267.29,0.42689
3261.51,0.42854
3255.72,0.43022
3249.93,0.43059
3244.15,0.43153
3238.36,0.43161
3232.58,0.43263
3226.79,0.43509
3221,0.43834
3215.22,0.44128
3209.43,0.44307
3203.64,0.44404
3197.86,0.44300
3192.07,0.44316
3186.29,0.44439
3180.5,0.44538
3174.71,0.44647
3168.93,0.44675
3163.14,0.44601
3157.35,0.44596
3151.57,0.44408
3145.78,0.44141
3140,0.43699
3134.21,0.42986
3128.42,0.42430
3122.64,0.42567
3116.85,0.42345
3111.06,0.41281
3105.28,0.40000
3099.49,0.39987
3093.71,0.40737
3087.92,0.39963
3082.13,0.38760
3076.35,0.38499
3070.56,0.38129
3064.77,0.38093
3058.99,0.37353
3053.2,0.36887
3047.42,0.39831
3041.63,0.42086
3035.84,0.42197
3030.06,0.41264
3024.27,0.39277
3018.49,0.35996
3012.7,0.33808
3006.91,0.33543
3001.13,0.33036
2995.34,0.32237
2989.55,0.30846
2983.77,0.28402
2977.98,0.25342
2972.2,0.22529
2966.41,0.22679
2960.62,0.24042
2954.84,0.25750
2949.05,0.28171
2943.26,0.30693
2937.48,0.32237
2931.69,0.32470
2925.91,0.31691
2920.12,0.30321
2914.33,0.28316
2908.55,0.26474
2902.76,0.28691
2896.97,0.31487
2891.19,0.32405
2885.4,0.33165
2879.62,0.34247
2873.83,0.34874
2868.04,0.35381
2862.26,0.35760
2856.47,0.35912
2850.68,0.37046
2844.9,0.40255
2839.11,0.43020
2833.33,0.44773
2827.54,0.46070
2821.75,0.46822
2815.97,0.46791
2810.18,0.46691
2804.39,0.46753
2798.61,0.47558
2792.82,0.48674
2787.04,0.49495
2781.25,0.50183
2775.46,0.50692
2769.68,0.51111
2763.89,0.51366
2758.1,0.51359
2752.32,0.51365
2746.53,0.51285
2740.75,0.51614
2734.96,0.52470
2729.17,0.53190
2723.39,0.53765
2717.6,0.54227
2711.81,0.54617
2706.03,0.55188
2700.24,0.55591
2694.46,0.55932
2688.67,0.56068
2682.88,0.56125
2677.1,0.56214
2671.31,0.56473
2665.52,0.56534
2659.74,0.56327
2653.95,0.56065
2648.17,0.55663
2642.38,0.54804
2636.59,0.53629
2630.81,0.53061
2625.02,0.53270
2619.24,0.53490
2613.45,0.53496
2607.66,0.53345
2601.88,0.53094
2596.09,0.52527
2590.3,0.51920
2584.52,0.51541
2578.73,0.51544
2572.95,0.51669
2567.16,0.51614
2561.37,0.51460
2555.59,0.51308
2549.8,0.51210
2544.01,0.51077
2538.23,0.50983
2532.44,0.51088
2526.66,0.51415
2520.87,0.51968
2515.08,0.52429
2509.3,0.52641
2503.51,0.52766
2497.72,0.52923
2491.94,0.53445
2486.15,0.54137
2480.37,0.54884
2474.58,0.55558
2468.79,0.55903
2463.01,0.56025
2457.22,0.55998
2451.43,0.55853
2445.65,0.55533
2439.86,0.54820
2434.08,0.53884
2428.29,0.52926
2422.5,0.51927
2416.72,0.50957
2410.93,0.50116
2405.14,0.49367
2399.36,0.48762
2393.57,0.48362
2387.79,0.48260
2382,0.48506
2376.21,0.48891
2370.43,0.49470
2364.64,0.50471
2358.85,0.51755
2353.07,0.52826
2347.28,0.53590
2341.5,0.54063
2335.71,0.54068
2329.92,0.54455
2324.14,0.54827
2318.35,0.55243
2312.56,0.55212
2306.78,0.54511
2300.99,0.53145
2295.21,0.51520
2289.42,0.50225
2283.63,0.49766
2277.85,0.49927
2272.06,0.49726
2266.27,0.49344
2260.49,0.49108
2254.7,0.49217
2248.92,0.49783
2243.13,0.50536
2237.34,0.51206
2231.56,0.51690
2225.77,0.51980
2219.98,0.52193
2214.2,0.52333
2208.41,0.52643
2202.63,0.53395
2196.84,0.53761
2191.05,0.53708
2185.27,0.53316
2179.48,0.52577
2173.7,0.51587
2167.91,0.50400
2162.12,0.48946
2156.34,0.47422
2150.55,0.46127
2144.76,0.45142
2138.98,0.44442
2133.19,0.43681
2127.41,0.42578
2121.62,0.41457
2115.83,0.40742
2110.05,0.40527
2104.26,0.40695
2098.47,0.40949
2092.69,0.41344
2086.9,0.42053
2081.12,0.43240
2075.33,0.44483
2069.54,0.45828
2063.76,0.47330
2057.97,0.48882
2052.18,0.50116
2046.4,0.50783
2040.61,0.51031
2034.83,0.50861
2029.04,0.50154
2023.25,0.49006
2017.47,0.47728
2011.68,0.46619
2005.89,0.45409
2000.11,0.44091
1994.32,0.42711
1988.54,0.41423
1982.75,0.40147
1976.96,0.38663
1971.18,0.36611
1965.39,0.33662
1959.6,0.32092
1953.82,0.33394
1948.03,0.35134
1942.25,0.37046
1936.46,0.38987
1930.67,0.40605
1924.89,0.41898
1919.1,0.42940
1913.31,0.43837
1907.53,0.44517
1901.74,0.45028
1895.96,0.45304
1890.17,0.45364
1884.38,0.45280
1878.6,0.44928
1872.81,0.44136
1867.02,0.42908
1861.24,0.41433
1855.45,0.39418
1849.67,0.36850
1843.88,0.34383
1838.09,0.32392
1832.31,0.30812
1826.52,0.29822
1820.73,0.29541
1814.95,0.29302
1809.16,0.28909
1803.38,0.28576
1797.59,0.28130
1791.8,0.27396
1786.02,0.26332
1780.23,0.24936
1774.44,0.23213
1768.66,0.20908
1762.87,0.18149
1757.09,0.14511
1751.3,0.09919
1745.51,0.05334
1739.73,0.03391
1733.94,0.03309
1728.16,0.03750
1722.37,0.04234
1716.58,0.05175
1710.8,0.08125
1705.01,0.11798
1699.22,0.14952
1693.44,0.16933
1687.65,0.17561
1681.87,0.17840
1676.08,0.19858
1670.29,0.21443
1664.51,0.23514
1658.72,0.25116
1652.93,0.26070
1647.15,0.26701
1641.36,0.27412
1635.58,0.28060
1629.79,0.28339
1624,0.28350
1618.22,0.27019
1612.43,0.25949
1606.64,0.27634
1600.86,0.29088
1595.07,0.29410
1589.29,0.27857
1583.5,0.23854
1577.71,0.21066
1571.93,0.25262
1566.14,0.28279
1560.35,0.28984
1554.57,0.28903
1548.78,0.28507
1543,0.28058
1537.21,0.28197
1531.42,0.27235
1525.64,0.25899
1519.85,0.25618
1514.06,0.23262
1508.28,0.15164
1502.49,0.16319
1496.71,0.25512
1490.92,0.27151
1485.13,0.24315
1479.35,0.20302
1473.56,0.15812
1467.77,0.16029
1461.99,0.16107
1456.2,0.14999
1450.42,0.15077
1444.63,0.15573
1438.84,0.15963
1433.06,0.16879
1427.27,0.16736
1421.48,0.13451
1415.7,0.07544
1409.91,0.05889
1404.13,0.08899
1398.34,0.11522
1392.55,0.11724
1386.77,0.10688
1380.98,0.10643
1375.19,0.10232
1369.41,0.09609
1363.62,0.10122
1357.84,0.09342
1352.05,0.07152
1346.26,0.05714
1340.48,0.05806
1334.69,0.08659
1328.9,0.10919
1323.12,0.09166
1317.33,0.06795
1311.55,0.05069
1305.76,0.04056
1299.97,0.03614
1294.19,0.03704
1288.4,0.04157
1282.62,0.04914
1276.83,0.05596
1271.04,0.06081
1265.26,0.06329
1259.47,0.06488
1253.68,0.06503
1247.9,0.06255
1242.11,0.05818
1236.33,0.07153
1230.54,0.11156
1224.75,0.14630
1218.97,0.18081
1213.18,0.20544
1207.39,0.22429
1201.61,0.24709
1195.82,0.26282
1190.04,0.25901
1184.25,0.23398
1178.46,0.19976
1172.68,0.17893
1166.89,0.16658
1161.1,0.13733
1155.32,0.10346
1149.53,0.07296
1143.75,0.05188
1137.96,0.04783
1132.17,0.05427
1126.39,0.05784
1120.6,0.05811
1114.81,0.06029
1109.03,0.06073
1103.24,0.06263
1097.46,0.07228
1091.67,0.09369
1085.88,0.12563
1080.1,0.17515
1074.31,0.22741
1068.52,0.25760
1062.74,0.26881
1056.95,0.26123
1051.17,0.23745
1045.38,0.21667
1039.59,0.20830
1033.81,0.19293
1028.02,0.12617
1022.23,0.08603
1016.45,0.14118
1010.66,0.25875
1004.88,0.31068
999.09,0.31984
993.303,0.30575
987.517,0.27920
981.731,0.24889
975.945,0.19414
970.158,0.19015
964.372,0.24841
958.586,0.30278
952.8,0.33591
947.014,0.35231
941.227,0.35889
935.441,0.36003
929.655,0.35833
923.869,0.35518
918.082,0.34298
912.296,0.31807
906.51,0.28376
900.724,0.25940
894.937,0.25745
889.151,0.25349
883.365,0.22910
877.579,0.18835
871.793,0.17559
866.006,0.22666
860.22,0.21954
854.434,0.18902
848.648,0.17469
842.861,0.20613
837.075,0.24105
831.289,0.26538
825.503,0.27817
819.716,0.27953
813.93,0.27498
808.144,0.26671
802.358,0.25718
796.571,0.23046
790.785,0.22830
784.999,0.26391
779.213,0.27895
773.427,0.28544
767.64,0.29076
761.854,0.28813
756.068,0.27342
750.282,0.24373
744.495,0.18770
738.709,0.10028
732.923,0.05918
727.137,0.07592
721.35,0.16623
715.564,0.23727
709.778,0.24657
703.992,0.25666
698.206,0.28451
692.419,0.30081
686.633,0.29695
680.847,0.27683
675.061,0.28334
669.274,0.29053
663.488,0.29462
657.702,0.28959
651.916,0.29535
646.129,0.29969
640.343,0.29637
634.557,0.26791
628.771,0.27166
622.984,0.29003
617.198,0.28836
611.412,0.28772
605.626,0.28603
599.84,0.28205