File: 01_Data/Polyester_Fabric/FTIR/IS/Polyester_Fabric_IS_TRANS_MEAS_210623_R1.dpt
5998.34,0.08431
5994.48,0.10570
5990.62,0.10314
5986.77,0.09522
5982.91,0.08647
5979.05,0.10480
5975.19,0.10891
5971.34,0.12825
5967.48,0.11379
5963.62,0.12027
5959.76,0.11660
5955.91,0.10659
5952.05,0.11781
5948.19,0.11679
5944.33,0.10196
5940.48,0.12653
5936.62,0.10811
5932.76,0.14762
5928.9,0.13228
5925.05,0.15447
5921.19,0.12466
5917.33,0.14314
5913.47,0.13965
5909.62,0.14402
5905.76,0.14524
5901.9,0.14521
5898.04,0.14212
5894.19,0.15220
5890.33,0.13789
5886.47,0.14571
5882.61,0.14651
5878.76,0.12846
5874.9,0.13214
5871.04,0.14524
5867.19,0.12422
5863.33,0.12487
5859.47,0.11908
5855.61,0.13729
5851.76,0.14026
5847.9,0.12862
5844.04,0.13703
5840.18,0.15100
5836.33,0.13721
5832.47,0.14853
5828.61,0.14722
5824.75,0.14341
5820.9,0.13707
5817.04,0.13569
5813.18,0.13867
5809.32,0.13763
5805.47,0.15012
5801.61,0.14580
5797.75,0.13321
5793.89,0.14057
5790.04,0.12366
5786.18,0.14864
5782.32,0.14049
5778.46,0.12770
5774.61,0.13422
5770.75,0.14748
5766.89,0.14425
5763.03,0.15349
5759.18,0.13240
5755.32,0.14496
5751.46,0.14766
5747.6,0.14678
5743.75,0.14868
5739.89,0.16209
5736.03,0.16008
5732.17,0.15570
5728.32,0.15682
5724.46,0.16098
5720.6,0.15001
5716.74,0.16519
5712.89,0.14635
5709.03,0.15426
5705.17,0.15574
5701.31,0.15866
5697.46,0.15925
5693.6,0.15334
5689.74,0.14507
5685.88,0.15600
5682.03,0.15317
5678.17,0.15211
5674.31,0.17367
5670.46,0.16682
5666.6,0.16248
5662.74,0.15487
5658.88,0.16727
5655.03,0.16766
5651.17,0.16204
5647.31,0.16532
5643.45,0.17021
5639.6,0.16227
5635.74,0.16039
5631.88,0.16292
5628.02,0.15989
5624.17,0.16576
5620.31,0.16265
5616.45,0.17462
5612.59,0.16522
5608.74,0.15645
5604.88,0.16464
5601.02,0.17043
5597.16,0.17468
5593.31,0.16217
5589.45,0.16968
5585.59,0.16343
5581.73,0.16417
5577.88,0.16907
5574.02,0.17294
5570.16,0.17496
5566.3,0.16945
5562.45,0.16909
5558.59,0.16057
5554.73,0.17689
5550.87,0.16472
5547.02,0.16733
5543.16,0.16681
5539.3,0.17951
5535.44,0.17263
5531.59,0.17084
5527.73,0.16326
5523.87,0.17369
5520.01,0.17090
5516.16,0.17176
5512.3,0.17367
5508.44,0.16416
5504.58,0.16271
5500.73,0.15664
5496.87,0.16919
5493.01,0.16409
5489.15,0.17499
5485.3,0.16330
5481.44,0.16745
5477.58,0.16368
5473.72,0.16852
5469.87,0.16890
5466.01,0.16492
5462.15,0.16404
5458.3,0.17226
5454.44,0.17154
5450.58,0.17381
5446.72,0.17371
5442.87,0.17187
5439.01,0.18033
5435.15,0.16968
5431.29,0.18350
5427.44,0.18436
5423.58,0.17754
5419.72,0.18020
5415.86,0.16862
5412.01,0.17904
5408.15,0.17691
5404.29,0.16850
5400.43,0.17657
5396.58,0.17464
5392.72,0.17528
5388.86,0.18578
5385,0.18218
5381.15,0.17918
5377.29,0.17576
5373.43,0.17756
5369.57,0.17816
5365.72,0.17187
5361.86,0.17985
5358,0.17923
5354.14,0.16178
5350.29,0.17589
5346.43,0.17091
5342.57,0.17751
5338.71,0.17511
5334.86,0.18147
5331,0.17167
5327.14,0.17958
5323.28,0.17909
5319.43,0.16966
5315.57,0.17132
5311.71,0.18084
5307.85,0.17160
5304,0.17527
5300.14,0.17444
5296.28,0.16916
5292.42,0.17647
5288.57,0.17139
5284.71,0.17128
5280.85,0.16577
5276.99,0.17013
5273.14,0.16894
5269.28,0.15910
5265.42,0.15651
5261.57,0.16488
5257.71,0.16322
5253.85,0.15754
5249.99,0.15475
5246.14,0.16208
5242.28,0.16778
5238.42,0.15392
5234.56,0.16294
5230.71,0.16615
5226.85,0.15979
5222.99,0.16609
5219.13,0.16818
5215.28,0.16514
5211.42,0.16211
5207.56,0.17140
5203.7,0.17077
5199.85,0.17023
5195.99,0.16513
5192.13,0.17183
5188.27,0.17253
5184.42,0.17200
5180.56,0.16946
5176.7,0.16800
5172.84,0.17103
5168.99,0.17008
5165.13,0.17904
5161.27,0.16780
5157.41,0.16678
5153.56,0.16723
5149.7,0.16252
5145.84,0.15916
5141.98,0.16520
5138.13,0.15579
5134.27,0.15947
5130.41,0.15655
5126.55,0.15580
5122.7,0.15457
5118.84,0.14882
5114.98,0.15187
5111.12,0.16072
5107.27,0.15885
5103.41,0.16566
5099.55,0.16840
5095.69,0.16995
5091.84,0.16852
5087.98,0.16873
5084.12,0.17346
5080.26,0.17269
5076.41,0.17021
5072.55,0.17267
5068.69,0.17634
5064.83,0.17749
5060.98,0.17534
5057.12,0.16845
5053.26,0.17132
5049.41,0.17705
5045.55,0.17298
5041.69,0.17460
5037.83,0.17385
5033.98,0.17426
5030.12,0.17291
5026.26,0.17510
5022.4,0.17395
5018.55,0.17901
5014.69,0.17170
5010.83,0.17461
5006.97,0.17326
5003.12,0.17856
4999.26,0.17552
4995.4,0.17079
4991.54,0.17765
4987.69,0.16991
4983.83,0.17633
4979.97,0.17331
4976.11,0.17496
4972.26,0.17222
4968.4,0.17331
4964.54,0.16936
4960.68,0.17339
4956.83,0.17426
4952.97,0.17027
4949.11,0.16996
4945.25,0.17318
4941.4,0.17153
4937.54,0.16466
4933.68,0.16863
4929.82,0.16722
4925.97,0.16981
4922.11,0.16692
4918.25,0.16617
4914.39,0.16589
4910.54,0.16051
4906.68,0.16784
4902.82,0.16681
4898.96,0.16711
4895.11,0.16138
4891.25,0.16439
4887.39,0.16243
4883.53,0.16383
4879.68,0.16141
4875.82,0.16637
4871.96,0.15982
4868.1,0.16293
4864.25,0.16513
4860.39,0.16110
4856.53,0.16545
4852.68,0.16479
4848.82,0.16145
4844.96,0.15761
4841.1,0.15927
4837.25,0.15871
4833.39,0.15734
4829.53,0.15269
4825.67,0.15357
4821.82,0.15521
4817.96,0.15006
4814.1,0.14670
4810.24,0.14566
4806.39,0.14048
4802.53,0.14198
4798.67,0.14259
4794.81,0.14453
4790.96,0.14865
4787.1,0.14562
4783.24,0.14843
4779.38,0.14930
4775.53,0.14441
4771.67,0.15277
4767.81,0.14811
4763.95,0.14669
4760.1,0.14358
4756.24,0.14500
4752.38,0.14132
4748.52,0.13748
4744.67,0.13343
4740.81,0.12334
4736.95,0.12753
4733.09,0.12156
4729.24,0.11824
4725.38,0.11061
4721.52,0.10655
4717.66,0.10199
4713.81,0.10292
4709.95,0.10142
4706.09,0.09848
4702.23,0.09523
4698.38,0.08868
4694.52,0.08220
4690.66,0.08075
4686.8,0.08580
4682.95,0.08786
4679.09,0.09019
4675.23,0.09931
4671.37,0.10157
4667.52,0.10749
4663.66,0.11035
4659.8,0.11105
4655.95,0.10670
4652.09,0.11184
4648.23,0.10353
4644.37,0.09924
4640.52,0.09353
4636.66,0.09505
4632.8,0.08916
4628.94,0.09680
4625.09,0.10175
4621.23,0.10938
4617.37,0.11872
4613.51,0.11913
4609.66,0.12465
4605.8,0.12363
4601.94,0.12421
4598.08,0.12205
4594.23,0.11552
4590.37,0.11047
4586.51,0.10931
4582.65,0.11110
4578.8,0.10669
4574.94,0.10820
4571.08,0.11690
4567.22,0.12585
4563.37,0.12836
4559.51,0.13134
4555.65,0.13201
4551.79,0.13487
4547.94,0.13538
4544.08,0.13279
4540.22,0.13389
4536.36,0.13169
4532.51,0.13187
4528.65,0.13170
4524.79,0.12616
4520.93,0.12784
4517.08,0.12701
4513.22,0.12216
4509.36,0.12050
4505.5,0.11498
4501.65,0.10734
4497.79,0.10208
4493.93,0.09634
4490.07,0.09297
4486.22,0.09172
4482.36,0.08712
4478.5,0.08341
4474.64,0.08091
4470.79,0.07786
4466.93,0.07073
4463.07,0.06250
4459.21,0.06093
4455.36,0.05928
4451.5,0.06136
4447.64,0.05782
4443.79,0.05709
4439.93,0.05845
4436.07,0.05663
4432.21,0.05538
4428.36,0.05781
4424.5,0.05893
4420.64,0.06272
4416.78,0.06526
4412.93,0.06357
4409.07,0.06879
4405.21,0.06410
4401.35,0.06604
4397.5,0.07069
4393.64,0.06886
4389.78,0.07176
4385.92,0.07238
4382.07,0.07404
4378.21,0.07339
4374.35,0.07144
4370.49,0.07240
4366.64,0.07203
4362.78,0.07039
4358.92,0.07360
4355.06,0.07080
4351.21,0.06940
4347.35,0.07176
4343.49,0.07050
4339.63,0.07093
4335.78,0.06889
4331.92,0.07224
4328.06,0.07082
4324.2,0.07272
4320.35,0.07015
4316.49,0.06831
4312.63,0.07068
4308.77,0.06759
4304.92,0.06426
4301.06,0.06340
4297.2,0.06137
4293.34,0.05925
4289.49,0.05944
4285.63,0.06328
4281.77,0.06269
4277.91,0.06141
4274.06,0.06228
4270.2,0.06638
4266.34,0.06292
4262.48,0.06701
4258.63,0.06686
4254.77,0.06475
4250.91,0.06491
4247.06,0.06496
4243.2,0.06595
4239.34,0.06413
4235.48,0.06642
4231.63,0.06688
4227.77,0.06708
4223.91,0.06765
4220.05,0.06848
4216.2,0.06917
4212.34,0.07064
4208.48,0.07133
4204.62,0.07221
4200.77,0.07128
4196.91,0.07386
4193.05,0.07037
4189.19,0.07214
4185.34,0.06921
4181.48,0.06703
4177.62,0.06805
4173.76,0.06852
4169.91,0.06764
4166.05,0.07102
4162.19,0.07139
4158.33,0.07322
4154.48,0.07353
4150.62,0.07495
4146.76,0.07467
4142.9,0.07122
4139.05,0.06781
4135.19,0.06834
4131.33,0.06867
4127.47,0.06808
4123.62,0.06724
4119.76,0.06687
4115.9,0.06822
4112.04,0.06363
4108.19,0.06052
4104.33,0.05846
4100.47,0.05335
4096.61,0.05328
4092.76,0.04975
4088.9,0.04903
4085.04,0.05175
4081.18,0.05467
4077.33,0.05768
4073.47,0.06118
4069.61,0.06552
4065.75,0.06721
4061.9,0.06735
4058.04,0.06850
4054.18,0.07113
4050.33,0.07047
4046.47,0.07319
4042.61,0.07561
4038.75,0.07713
4034.9,0.07866
4031.04,0.07853
4027.18,0.07911
4023.32,0.07929
4019.47,0.07904
4015.61,0.07718
4011.75,0.07810
4007.89,0.07708
4004.04,0.07972
4000.18,0.07921
3996.32,0.07957
3992.46,0.08164
3988.61,0.08316
3984.75,0.08389
3980.89,0.08290
3977.03,0.08379
3973.18,0.08439
3969.32,0.08624
3965.46,0.08319
3961.6,0.08622
3957.75,0.08553
3953.89,0.08828
3950.03,0.08930
3946.17,0.09100
3942.32,0.09138
3938.46,0.08960
3934.6,0.09137
3930.74,0.09103
3926.89,0.09154
3923.03,0.09265
3919.17,0.09402
3915.31,0.09242
3911.46,0.09252
3907.6,0.09487
3903.74,0.09913
3899.88,0.10241
3896.03,0.10050
3892.17,0.10317
3888.31,0.10317
3884.45,0.10480
3880.6,0.10585
3876.74,0.10618
3872.88,0.11011
3869.02,0.10948
3865.17,0.10862
3861.31,0.11126
3857.45,0.10980
3853.59,0.10708
3849.74,0.11344
3845.88,0.11037
3842.02,0.11052
3838.17,0.11535
3834.31,0.11039
3830.45,0.11116
3826.59,0.11159
3822.74,0.11009
3818.88,0.10863
3815.02,0.10525
3811.16,0.10239
3807.31,0.10344
3803.45,0.10261
3799.59,0.10200
3795.73,0.10625
3791.88,0.10736
3788.02,0.10857
3784.16,0.10678
3780.3,0.10776
3776.45,0.10488
3772.59,0.10301
3768.73,0.10354
3764.87,0.10019
3761.02,0.09893
3757.16,0.09708
3753.3,0.10072
3749.44,0.11245
3745.59,0.10751
3741.73,0.10845
3737.87,0.10809
3734.01,0.10609
3730.16,0.10209
3726.3,0.10520
3722.44,0.11185
3718.58,0.11287
3714.73,0.11355
3710.87,0.11201
3707.01,0.10571
3703.15,0.10093
3699.3,0.09387
3695.44,0.08799
3691.58,0.08007
3687.72,0.07355
3683.87,0.07051
3680.01,0.07485
3676.15,0.07579
3672.29,0.07388
3668.44,0.07233
3664.58,0.06934
3660.72,0.06742
3656.86,0.06502
3653.01,0.06469
3649.15,0.06417
3645.29,0.06062
3641.44,0.05817
3637.58,0.05932
3633.72,0.05752
3629.86,0.06130
3626.01,0.05750
3622.15,0.05815
3618.29,0.05879
3614.43,0.06061
3610.58,0.06064
3606.72,0.06063
3602.86,0.06180
3599,0.06141
3595.15,0.06075
3591.29,0.05936
3587.43,0.05984
3583.57,0.05627
3579.72,0.05637
3575.86,0.05548
3572,0.05209
3568.14,0.05053
3564.29,0.04969
3560.43,0.04950
3556.57,0.04944
3552.71,0.05061
3548.86,0.04987
3545,0.05134
3541.14,0.05076
3537.28,0.05108
3533.43,0.04858
3529.57,0.05364
3525.71,0.05423
3521.85,0.05245
3518,0.05139
3514.14,0.05501
3510.28,0.05297
3506.42,0.05672
3502.57,0.05802
3498.71,0.05623
3494.85,0.05743
3490.99,0.05611
3487.14,0.05595
3483.28,0.05468
3479.42,0.05463
3475.56,0.05541
3471.71,0.05266
3467.85,0.05170
3463.99,0.05153
3460.13,0.04776
3456.28,0.04725
3452.42,0.04690
3448.56,0.04581
3444.7,0.04646
3440.85,0.04436
3436.99,0.04329
3433.13,0.04312
3429.28,0.04183
3425.42,0.04501
3421.56,0.04273
3417.7,0.04777
3413.85,0.04584
3409.99,0.04724
3406.13,0.04970
3402.27,0.05157
3398.42,0.05283
3394.56,0.05551
3390.7,0.05511
3386.84,0.05516
3382.99,0.05287
3379.13,0.05360
3375.27,0.05493
3371.41,0.05383
3367.56,0.05530
3363.7,0.05454
3359.84,0.05241
3355.98,0.05314
3352.13,0.05177
3348.27,0.05099
3344.41,0.05041
3340.55,0.05051
3336.7,0.05050
3332.84,0.05058
3328.98,0.05204
3325.12,0.05139
3321.27,0.04918
3317.41,0.05135
3313.55,0.05137
3309.69,0.05169
3305.84,0.05102
3301.98,0.05054
3298.12,0.05162
3294.26,0.05043
3290.41,0.05100
3286.55,0.05261
3282.69,0.05212
3278.83,0.05219
3274.98,0.05346
3271.12,0.05400
3267.26,0.05520
3263.4,0.05557
3259.55,0.05487
3255.69,0.05555
3251.83,0.05324
3247.97,0.05334
3244.12,0.05313
3240.26,0.05441
3236.4,0.05320
3232.55,0.05399
3228.69,0.05413
3224.83,0.05480
3220.97,0.05436
3217.12,0.05473
3213.26,0.05530
3209.4,0.05664
3205.54,0.05539
3201.69,0.05484
3197.83,0.05363
3193.97,0.05600
3190.11,0.05530
3186.26,0.05523
3182.4,0.05360
3178.54,0.05368
3174.68,0.05336
3170.83,0.05425
3166.97,0.05493
3163.11,0.05378
3159.25,0.05293
3155.4,0.05248
3151.54,0.05430
3147.68,0.05056
3143.82,0.05203
3139.97,0.05140
3136.11,0.05025
3132.25,0.04944
3128.39,0.04725
3124.54,0.04878
3120.68,0.04873
3116.82,0.04930
3112.96,0.04803
3109.11,0.04750
3105.25,0.04748
3101.39,0.04597
3097.53,0.04719
3093.68,0.04789
3089.82,0.04623
3085.96,0.04532
3082.1,0.04466
3078.25,0.04681
3074.39,0.04460
3070.53,0.04555
3066.67,0.04439
3062.82,0.04485
3058.96,0.04518
3055.1,0.04573
3051.24,0.04582
3047.39,0.04667
3043.53,0.04760
3039.67,0.04765
3035.82,0.04838
3031.96,0.04795
3028.1,0.04634
3024.24,0.04569
3020.39,0.04466
3016.53,0.04479
3012.67,0.04356
3008.81,0.04281
3004.96,0.04401
3001.1,0.04308
2997.24,0.04405
2993.38,0.04284
2989.53,0.04290
2985.67,0.04355
2981.81,0.04264
2977.95,0.04210
2974.1,0.04170
2970.24,0.04202
2966.38,0.04135
2962.52,0.04184
2958.67,0.04066
2954.81,0.04259
2950.95,0.04271
2947.09,0.04274
2943.24,0.04201
2939.38,0.04462
2935.52,0.04486
2931.66,0.04425
2927.81,0.04353
2923.95,0.04471
2920.09,0.04269
2916.23,0.04323
2912.38,0.04374
2908.52,0.04236
2904.66,0.04240
2900.8,0.04365
2896.95,0.04410
2893.09,0.04364
2889.23,0.04328
2885.37,0.04295
2881.52,0.04559
2877.66,0.04391
2873.8,0.04390
2869.94,0.04426
2866.09,0.04561
2862.23,0.04571
2858.37,0.04751
2854.51,0.04710
2850.66,0.04670
2846.8,0.04779
2842.94,0.04944
2839.08,0.05038
2835.23,0.05246
2831.37,0.05204
2827.51,0.05214
2823.66,0.05493
2819.8,0.05392
2815.94,0.05376
2812.08,0.05229
2808.23,0.05368
2804.37,0.05316
2800.51,0.05370
2796.65,0.05468
2792.8,0.05590
2788.94,0.05691
2785.08,0.05814
2781.22,0.05917
2777.37,0.06110
2773.51,0.05996
2769.65,0.06097
2765.79,0.06145
2761.94,0.06132
2758.08,0.06220
2754.22,0.06190
2750.36,0.06159
2746.51,0.06140
2742.65,0.06186
2738.79,0.06212
2734.93,0.06336
2731.08,0.06508
2727.22,0.06741
2723.36,0.06862
2719.5,0.06971
2715.65,0.07072
2711.79,0.07340
2707.93,0.07408
2704.07,0.07488
2700.22,0.07499
2696.36,0.07598
2692.5,0.07783
2688.64,0.07746
2684.79,0.07782
2680.93,0.07756
2677.07,0.07904
2673.21,0.07886
2669.36,0.07963
2665.5,0.07978
2661.64,0.07828
2657.78,0.07875
2653.93,0.07627
2650.07,0.07610
2646.21,0.07438
2642.35,0.07285
2638.5,0.06863
2634.64,0.06604
2630.78,0.06685
2626.93,0.06633
2623.07,0.06753
2619.21,0.06803
2615.35,0.06709
2611.5,0.06685
2607.64,0.06574
2603.78,0.06540
2599.92,0.06393
2596.07,0.06384
2592.21,0.06273
2588.35,0.06146
2584.49,0.06139
2580.64,0.06016
2576.78,0.06136
2572.92,0.06099
2569.06,0.06033
2565.21,0.06074
2561.35,0.06002
2557.49,0.06179
2553.63,0.06033
2549.78,0.05965
2545.92,0.06057
2542.06,0.06045
2538.2,0.06048
2534.35,0.06071
2530.49,0.06035
2526.63,0.06177
2522.77,0.06169
2518.92,0.06328
2515.06,0.06406
2511.2,0.06515
2507.34,0.06425
2503.49,0.06488
2499.63,0.06438
2495.77,0.06579
2491.91,0.06780
2488.06,0.06879
2484.2,0.06983
2480.34,0.07254
2476.48,0.07296
2472.63,0.07459
2468.77,0.07687
2464.91,0.07688
2461.05,0.07695
2457.2,0.07710
2453.34,0.07502
2449.48,0.07552
2445.62,0.07376
2441.77,0.07351
2437.91,0.07067
2434.05,0.06876
2430.2,0.06721
2426.34,0.06469
2422.48,0.06394
2418.62,0.06216
2414.77,0.06029
2410.91,0.06024
2407.05,0.05804
2403.19,0.05740
2399.34,0.05726
2395.48,0.05640
2391.62,0.05619
2387.76,0.05602
2383.91,0.05517
2380.05,0.05254
2376.19,0.05206
2372.33,0.05129
2368.48,0.05178
2364.62,0.04720
2360.76,0.05452
2356.9,0.04951
2353.05,0.05572
2349.19,0.05456
2345.33,0.05567
2341.47,0.05590
2337.62,0.05566
2333.76,0.05472
2329.9,0.05720
2326.04,0.05925
2322.19,0.06349
2318.33,0.06656
2314.47,0.06723
2310.61,0.06896
2306.76,0.06861
2302.9,0.06773
2299.04,0.06503
2295.18,0.06283
2291.33,0.06130
2287.47,0.06141
2283.61,0.06004
2279.75,0.06184
2275.9,0.06229
2272.04,0.06205
2268.18,0.06128
2264.32,0.06087
2260.47,0.06178
2256.61,0.06187
2252.75,0.06197
2248.89,0.06313
2245.04,0.06498
2241.18,0.06659
2237.32,0.06746
2233.46,0.06874
2229.61,0.06916
2225.75,0.07128
2221.89,0.07184
2218.04,0.07095
2214.18,0.07273
2210.32,0.07323
2206.46,0.07479
2202.61,0.07660
2198.75,0.07795
2194.89,0.07858
2191.03,0.07821
2187.18,0.07800
2183.32,0.07779
2179.46,0.07632
2175.6,0.07422
2171.75,0.07246
2167.89,0.06887
2164.03,0.06700
2160.17,0.06671
2156.32,0.06336
2152.46,0.06090
2148.6,0.06043
2144.74,0.06035
2140.89,0.05845
2137.03,0.05764
2133.17,0.05791
2129.31,0.05783
2125.46,0.05566
2121.6,0.05465
2117.74,0.05474
2113.88,0.05422
2110.03,0.05398
2106.17,0.05471
2102.31,0.05554
2098.45,0.05542
2094.6,0.05499
2090.74,0.05513
2086.88,0.05641
2083.02,0.05667
2079.17,0.05837
2075.31,0.06025
2071.45,0.06252
2067.59,0.06496
2063.74,0.06627
2059.88,0.06962
2056.02,0.07301
2052.16,0.07594
2048.31,0.07806
2044.45,0.07830
2040.59,0.07883
2036.73,0.07876
2032.88,0.07807
2029.02,0.07633
2025.16,0.07388
2021.31,0.07227
2017.45,0.07088
2013.59,0.06719
2009.73,0.06603
2005.88,0.06505
2002.02,0.06222
1998.16,0.06105
1994.3,0.05910
1990.45,0.05796
1986.59,0.05650
1982.73,0.05614
1978.87,0.05490
1975.02,0.05331
1971.16,0.05325
1967.3,0.05163
1963.44,0.04943
1959.59,0.04915
1955.73,0.05000
1951.87,0.05048
1948.01,0.05176
1944.16,0.05280
1940.3,0.05408
1936.44,0.05472
1932.58,0.05682
1928.73,0.05852
1924.87,0.05912
1921.01,0.06065
1917.15,0.06234
1913.3,0.06284
1909.44,0.06476
1905.58,0.06431
1901.72,0.06587
1897.87,0.06673
1894.01,0.06748
1890.15,0.06812
1886.29,0.06809
1882.44,0.06764
1878.58,0.06622
1874.72,0.06575
1870.86,0.06792
1867.01,0.06461
1863.15,0.06173
1859.29,0.06011
1855.43,0.05807
1851.58,0.05565
1847.72,0.05463
1843.86,0.05468
1840,0.05085
1836.15,0.05053
1832.29,0.05061
1828.43,0.05108
1824.57,0.05109
1820.72,0.04986
1816.86,0.04907
1813,0.04908
1809.15,0.04911
1805.29,0.04877
1801.43,0.04931
1797.57,0.04892
1793.72,0.04952
1789.86,0.04923
1786,0.04780
1782.14,0.04850
1778.29,0.04741
1774.43,0.04947
1770.57,0.04755
1766.71,0.04707
1762.86,0.04797
1759,0.04583
1755.14,0.04502
1751.28,0.04722
1747.43,0.04623
1743.57,0.04425
1739.71,0.04440
1735.85,0.04684
1732,0.04421
1728.14,0.04287
1724.28,0.04251
1720.42,0.04352
1716.57,0.04484
1712.71,0.04323
1708.85,0.04461
1704.99,0.04368
1701.14,0.04749
1697.28,0.04524
1693.42,0.04456
1689.56,0.04486
1685.71,0.04863
1681.85,0.04668
1677.99,0.04513
1674.13,0.04728
1670.28,0.04733
1666.42,0.04570
1662.56,0.04821
1658.7,0.04649
1654.85,0.04899
1650.99,0.04651
1647.13,0.05193
1643.27,0.04674
1639.42,0.04788
1635.56,0.05005
1631.7,0.04783
1627.84,0.04744
1623.99,0.04884
1620.13,0.04672
1616.27,0.04988
1612.42,0.04593
1608.56,0.04599
1604.7,0.04654
1600.84,0.04755
1596.99,0.04881
1593.13,0.04815
1589.27,0.04757
1585.41,0.04608
1581.56,0.04581
1577.7,0.04783
1573.84,0.04742
1569.98,0.04913
1566.13,0.04760
1562.27,0.05046
1558.41,0.05721
1554.55,0.04928
1550.7,0.04795
1546.84,0.04767
1542.98,0.05182
1539.12,0.05383
1535.27,0.04746
1531.41,0.04831
1527.55,0.04806
1523.69,0.05033
1519.84,0.05149
1515.98,0.05065
1512.12,0.04927
1508.26,0.05363
1504.41,0.04575
1500.55,0.04616
1496.69,0.05000
1492.83,0.04799
1488.98,0.04914
1485.12,0.04709
1481.26,0.04658
1477.4,0.04710
1473.55,0.04825
1469.69,0.04650
1465.83,0.04548
1461.97,0.04497
1458.12,0.04798
1454.26,0.04710
1450.4,0.04535
1446.54,0.04609
1442.69,0.04571
1438.83,0.04627
1434.97,0.04480
1431.11,0.04704
1427.26,0.04722
1423.4,0.04710
1419.54,0.04770
1415.69,0.04537
1411.83,0.04324
1407.97,0.04364
1404.11,0.04459
1400.26,0.04604
1396.4,0.04709
1392.54,0.04583
1388.68,0.04520
1384.83,0.04620
1380.97,0.04550
1377.11,0.04551
1373.25,0.04689
1369.4,0.04456
1365.54,0.04498
1361.68,0.04492
1357.82,0.04545
1353.97,0.04580
1350.11,0.04538
1346.25,0.04493
1342.39,0.04383
1338.54,0.04360
1334.68,0.04451
1330.82,0.04494
1326.96,0.04502
1323.11,0.04527
1319.25,0.04629
1315.39,0.04526
1311.53,0.04443
1307.68,0.04377
1303.82,0.04506
1299.96,0.04433
1296.1,0.04408
1292.25,0.04396
1288.39,0.04384
1284.53,0.04466
1280.67,0.04413
1276.82,0.04210
1272.96,0.04394
1269.1,0.04354
1265.24,0.04253
1261.39,0.04388
1257.53,0.04363
1253.67,0.04214
1249.81,0.04335
1245.96,0.04357
1242.1,0.04250
1238.24,0.04153
1234.38,0.04390
1230.53,0.04537
1226.67,0.04432
1222.81,0.04439
1218.95,0.04454
1215.1,0.04325
1211.24,0.04710
1207.38,0.04429
1203.53,0.04442
1199.67,0.04640
1195.81,0.04627
1191.95,0.04566
1188.1,0.04625
1184.24,0.04671
1180.38,0.04598
1176.52,0.04432
1172.67,0.04555
1168.81,0.04500
1164.95,0.04609
1161.09,0.04472
1157.24,0.04666
1153.38,0.04843
1149.52,0.04507
1145.66,0.04581
1141.81,0.04597
1137.95,0.04375
1134.09,0.04569
1130.23,0.04481
1126.38,0.04297
1122.52,0.04314
1118.66,0.04307
1114.8,0.04198
1110.95,0.04521
1107.09,0.04177
1103.23,0.04294
1099.37,0.04462
1095.52,0.04403
1091.66,0.04135
1087.8,0.04173
1083.94,0.04164
1080.09,0.04418
1076.23,0.04177
1072.37,0.04638
1068.51,0.04671
1064.66,0.04622
1060.8,0.04686
1056.94,0.04523
1053.08,0.04759
1049.23,0.04419
1045.37,0.04540
1041.51,0.04747
1037.65,0.04691
1033.8,0.04791
1029.94,0.04616
1026.08,0.04621
1022.22,0.04513
1018.37,0.04148
1014.51,0.04706
1010.65,0.04737
1006.8,0.04763
1002.94,0.04784
999.08,0.04833
995.223,0.04733
991.365,0.04620
987.508,0.04608
983.65,0.04791
979.793,0.04554
975.935,0.04682
972.078,0.04797
968.221,0.04461
964.363,0.04675
960.506,0.04785
956.648,0.04909
952.791,0.04859
948.933,0.05298
945.076,0.04966
941.218,0.05268
937.361,0.05196
933.503,0.04986
929.646,0.05240
925.789,0.04652
921.931,0.04947
918.074,0.04861
914.216,0.05097
910.359,0.04644
906.501,0.04942
902.644,0.04793
898.786,0.04784
894.929,0.04775
891.072,0.04744
887.214,0.04788
883.357,0.04598
879.499,0.04676
875.642,0.04684
871.784,0.04528
867.927,0.04957
864.069,0.04541
860.212,0.04424
856.354,0.04618
852.497,0.04447
848.64,0.04541
844.782,0.04826
840.925,0.04569
837.067,0.04734
833.21,0.04832
829.352,0.04705
825.495,0.04861
821.637,0.04720
817.78,0.04926
813.922,0.05183
810.065,0.04833
806.208,0.04428
802.35,0.04942
798.493,0.04311
794.635,0.05015
790.778,0.04799
786.92,0.04732
783.063,0.05062
779.205,0.04999
775.348,0.05170
771.49,0.04966
767.633,0.05129
763.776,0.05321
759.918,0.05267
756.061,0.05063
752.203,0.04991
748.346,0.04793
744.488,0.04734
740.631,0.04833
736.773,0.04477
732.916,0.04436
729.058,0.04093
725.201,0.04518
721.344,0.04273
717.486,0.04547
713.629,0.04577
709.771,0.05148
705.914,0.04643
702.056,0.04826
698.199,0.04803
694.341,0.05025
690.484,0.05600
686.627,0.05151
682.769,0.04815
678.912,0.04529
675.054,0.05304
671.197,0.04737
667.339,0.05680
663.482,0.05678
659.624,0.05478
655.767,0.05518
651.909,0.05546
648.052,0.05612
644.195,0.05594
640.337,0.05891
636.48,0.05885
632.622,0.05485
628.765,0.05589
624.907,0.06215
621.05,0.06561
617.192,0.06458
613.335,0.06402
609.477,0.06110
605.62,0.06398
601.763,0.06769
597.905,0.06493
594.048,0.07032
590.19,0.06552
586.333,0.06809
582.475,0.06427
578.618,0.06381
574.76,0.06405
570.903,0.06269
567.045,0.06342
563.188,0.05981
559.331,0.06817
555.473,0.06279
551.616,0.06162
547.758,0.06203
543.901,0.05678
540.043,0.05994
536.186,0.04870
532.328,0.05487
528.471,0.05131
524.614,0.05235
520.756,0.05303
516.899,0.05475
513.041,0.05612
509.184,0.05064
505.326,0.04899
501.469,0.04784
497.611,0.04028
493.754,0.05358
489.896,0.05605
486.039,0.05407
482.182,0.06445
478.324,0.05182
474.467,0.05609
470.609,0.05535
466.752,0.04836
462.894,0.06205
459.037,0.05533
455.179,0.04931
451.322,0.06679
447.464,0.04341
443.607,0.08418
439.75,0.04955
435.892,0.04495
432.035,0.04559
428.177,0.05216
424.32,0.04492
420.462,0.00011
416.605,0.09410
412.747,0.06041
408.89,0.05456
405.033,0.07252
401.175,0.03549
399.246,0.10075