File: 01_Data/Polyester_Fabric/FTIR/IS/Polyester_Fabric_IS_REFLECT_MEAS_210623_R3.dpt
5996.41,0.64150
5992.55,0.64843
5988.69,0.65343
5984.84,0.64155
5980.98,0.63553
5977.12,0.64353
5973.27,0.65209
5969.41,0.64483
5965.55,0.64320
5961.69,0.64861
5957.84,0.65395
5953.98,0.66096
5950.12,0.66872
5946.26,0.66459
5942.41,0.66188
5938.55,0.66002
5934.69,0.66567
5930.83,0.66800
5926.98,0.66903
5923.12,0.67785
5919.26,0.67767
5915.4,0.67217
5911.55,0.67989
5907.69,0.69064
5903.83,0.68893
5899.97,0.68450
5896.12,0.69338
5892.26,0.69650
5888.4,0.68961
5884.54,0.68431
5880.69,0.68506
5876.83,0.69293
5872.97,0.68027
5869.11,0.67829
5865.26,0.68551
5861.4,0.68331
5857.54,0.68038
5853.68,0.67811
5849.83,0.68381
5845.97,0.68372
5842.11,0.68571
5838.25,0.69254
5834.4,0.68231
5830.54,0.68295
5826.68,0.68651
5822.82,0.69041
5818.97,0.68508
5815.11,0.68731
5811.25,0.68862
5807.39,0.68614
5803.54,0.69762
5799.68,0.69066
5795.82,0.68117
5791.96,0.68129
5788.11,0.68362
5784.25,0.68758
5780.39,0.68477
5776.53,0.69102
5772.68,0.69083
5768.82,0.69713
5764.96,0.69839
5761.11,0.69489
5757.25,0.68750
5753.39,0.69404
5749.53,0.70321
5745.68,0.70811
5741.82,0.71025
5737.96,0.71437
5734.1,0.70854
5730.25,0.70737
5726.39,0.71104
5722.53,0.71809
5718.67,0.71833
5714.82,0.70577
5710.96,0.70576
5707.1,0.71116
5703.24,0.70965
5699.39,0.70277
5695.53,0.70928
5691.67,0.71112
5687.81,0.70582
5683.96,0.70945
5680.1,0.71397
5676.24,0.71021
5672.38,0.70963
5668.53,0.71063
5664.67,0.71135
5660.81,0.71188
5656.95,0.70822
5653.1,0.70687
5649.24,0.70539
5645.38,0.71419
5641.52,0.71666
5637.67,0.71679
5633.81,0.72347
5629.95,0.72177
5626.09,0.72495
5622.24,0.72484
5618.38,0.73108
5614.52,0.72520
5610.66,0.71282
5606.81,0.71579
5602.95,0.71764
5599.09,0.71293
5595.23,0.71560
5591.38,0.71893
5587.52,0.72064
5583.66,0.72296
5579.8,0.72691
5575.95,0.71997
5572.09,0.72750
5568.23,0.73056
5564.38,0.72074
5560.52,0.71891
5556.66,0.71790
5552.8,0.72143
5548.95,0.71660
5545.09,0.71381
5541.23,0.72112
5537.37,0.72697
5533.52,0.71509
5529.66,0.70688
5525.8,0.71314
5521.94,0.71666
5518.09,0.71896
5514.23,0.71503
5510.37,0.70629
5506.51,0.70886
5502.66,0.71279
5498.8,0.71951
5494.94,0.71151
5491.08,0.70240
5487.23,0.70758
5483.37,0.71506
5479.51,0.71338
5475.65,0.70480
5471.8,0.71255
5467.94,0.71607
5464.08,0.71528
5460.22,0.71691
5456.37,0.72094
5452.51,0.72517
5448.65,0.72583
5444.79,0.72653
5440.94,0.73102
5437.08,0.72815
5433.22,0.73141
5429.36,0.72856
5425.51,0.72910
5421.65,0.73430
5417.79,0.72532
5413.93,0.71495
5410.08,0.71571
5406.22,0.72005
5402.36,0.71731
5398.5,0.72306
5394.65,0.72573
5390.79,0.73208
5386.93,0.72512
5383.07,0.72064
5379.22,0.71967
5375.36,0.71936
5371.5,0.72415
5367.65,0.72263
5363.79,0.72241
5359.93,0.73139
5356.07,0.72196
5352.22,0.70771
5348.36,0.71460
5344.5,0.71157
5340.64,0.71406
5336.79,0.71548
5332.93,0.71284
5329.07,0.72141
5325.21,0.72577
5321.36,0.72204
5317.5,0.71723
5313.64,0.72497
5309.78,0.72484
5305.93,0.71917
5302.07,0.72195
5298.21,0.72040
5294.35,0.72473
5290.5,0.71988
5286.64,0.71296
5282.78,0.70991
5278.92,0.70636
5275.07,0.70359
5271.21,0.69668
5267.35,0.69436
5263.49,0.68419
5259.64,0.69120
5255.78,0.69300
5251.92,0.68901
5248.06,0.67968
5244.21,0.68209
5240.35,0.68935
5236.49,0.69053
5232.63,0.68822
5228.78,0.69107
5224.92,0.68692
5221.06,0.69761
5217.2,0.70489
5213.35,0.70473
5209.49,0.70118
5205.63,0.69324
5201.77,0.69744
5197.92,0.70592
5194.06,0.71218
5190.2,0.71207
5186.34,0.70684
5182.49,0.70617
5178.63,0.70527
5174.77,0.70077
5170.91,0.70001
5167.06,0.70465
5163.2,0.70197
5159.34,0.70296
5155.49,0.70056
5151.63,0.70226
5147.77,0.70811
5143.91,0.70478
5140.06,0.70458
5136.2,0.70275
5132.34,0.70448
5128.48,0.71040
5124.63,0.70177
5120.77,0.69147
5116.91,0.68972
5113.05,0.69414
5109.2,0.70150
5105.34,0.70468
5101.48,0.70432
5097.62,0.70595
5093.77,0.70971
5089.91,0.71361
5086.05,0.72385
5082.19,0.72256
5078.34,0.71741
5074.48,0.72529
5070.62,0.72273
5066.76,0.72002
5062.91,0.72122
5059.05,0.71910
5055.19,0.72085
5051.33,0.72487
5047.48,0.72141
5043.62,0.72241
5039.76,0.72185
5035.9,0.72437
5032.05,0.72258
5028.19,0.72125
5024.33,0.72748
5020.47,0.72095
5016.62,0.71845
5012.76,0.71933
5008.9,0.72251
5005.04,0.72456
5001.19,0.72078
4997.33,0.71731
4993.47,0.71866
4989.61,0.72191
4985.76,0.72247
4981.9,0.72209
4978.04,0.72119
4974.18,0.71905
4970.33,0.72095
4966.47,0.72321
4962.61,0.72597
4958.76,0.72841
4954.9,0.72438
4951.04,0.72066
4947.18,0.72348
4943.33,0.72133
4939.47,0.71965
4935.61,0.71610
4931.75,0.71505
4927.9,0.71985
4924.04,0.72227
4920.18,0.71709
4916.32,0.71239
4912.47,0.71643
4908.61,0.71671
4904.75,0.71964
4900.89,0.71662
4897.04,0.71077
4893.18,0.71375
4889.32,0.71346
4885.46,0.71347
4881.61,0.71200
4877.75,0.71271
4873.89,0.71420
4870.03,0.71119
4866.18,0.71399
4862.32,0.71153
4858.46,0.71307
4854.6,0.70967
4850.75,0.71414
4846.89,0.70966
4843.03,0.71120
4839.17,0.70877
4835.32,0.70041
4831.46,0.69577
4827.6,0.69245
4823.74,0.69470
4819.89,0.69106
4816.03,0.69351
4812.17,0.69091
4808.31,0.69134
4804.46,0.69035
4800.6,0.68649
4796.74,0.68521
4792.88,0.68287
4789.03,0.68600
4785.17,0.68568
4781.31,0.68501
4777.45,0.68271
4773.6,0.68402
4769.74,0.68834
4765.88,0.69127
4762.02,0.68816
4758.17,0.68393
4754.31,0.67992
4750.45,0.67793
4746.6,0.67161
4742.74,0.66724
4738.88,0.66356
4735.02,0.66115
4731.17,0.65462
4727.31,0.64721
4723.45,0.63372
4719.59,0.62872
4715.74,0.62893
4711.88,0.63083
4708.02,0.62514
4704.16,0.61720
4700.31,0.60828
4696.45,0.60131
4692.59,0.59375
4688.73,0.59334
4684.88,0.59735
4681.02,0.60860
4677.16,0.61974
4673.3,0.62678
4669.45,0.63262
4665.59,0.63586
4661.73,0.63437
4657.87,0.63623
4654.02,0.63571
4650.16,0.63259
4646.3,0.62361
4642.44,0.61676
4638.59,0.60998
4634.73,0.60819
4630.87,0.61177
4627.01,0.62301
4623.16,0.63768
4619.3,0.64553
4615.44,0.65291
4611.58,0.66024
4607.73,0.65929
4603.87,0.65552
4600.01,0.65111
4596.15,0.64271
4592.3,0.63945
4588.44,0.63749
4584.58,0.63317
4580.72,0.62784
4576.87,0.63073
4573.01,0.63918
4569.15,0.64962
4565.29,0.65771
4561.44,0.66391
4557.58,0.66758
4553.72,0.66994
4549.87,0.66674
4546.01,0.66870
4542.15,0.66966
4538.29,0.66638
4534.44,0.66392
4530.58,0.66593
4526.72,0.66083
4522.86,0.66001
4519.01,0.65765
4515.15,0.65467
4511.29,0.65250
4507.43,0.64580
4503.58,0.63667
4499.72,0.63014
4495.86,0.62334
4492,0.61064
4488.15,0.60301
4484.29,0.59665
4480.43,0.59231
4476.57,0.58711
4472.72,0.58200
4468.86,0.56947
4465,0.55256
4461.14,0.53938
4457.29,0.53267
4453.43,0.53470
4449.57,0.53526
4445.71,0.53335
4441.86,0.52997
4438,0.52821
4434.14,0.52632
4430.28,0.52637
4426.43,0.53005
4422.57,0.53850
4418.71,0.54525
4414.85,0.54974
4411,0.55331
4407.14,0.55233
4403.28,0.55348
4399.42,0.55745
4395.57,0.56268
4391.71,0.56574
4387.85,0.56809
4383.99,0.56986
4380.14,0.57142
4376.28,0.57037
4372.42,0.57151
4368.56,0.57164
4364.71,0.56867
4360.85,0.56748
4356.99,0.56891
4353.14,0.56890
4349.28,0.56590
4345.42,0.56521
4341.56,0.56040
4337.71,0.55753
4333.85,0.55751
4329.99,0.55867
4326.13,0.55924
4322.28,0.55745
4318.42,0.55644
4314.56,0.55234
4310.7,0.54897
4306.85,0.54464
4302.99,0.53990
4299.13,0.53705
4295.27,0.53266
4291.42,0.53044
4287.56,0.53259
4283.7,0.53587
4279.84,0.53835
4275.99,0.53983
4272.13,0.54203
4268.27,0.54507
4264.41,0.54700
4260.56,0.54864
4256.7,0.54841
4252.84,0.54725
4248.98,0.54689
4245.13,0.54661
4241.27,0.54653
4237.41,0.54623
4233.55,0.54700
4229.7,0.54624
4225.84,0.54520
4221.98,0.54802
4218.12,0.55194
4214.27,0.55656
4210.41,0.55867
4206.55,0.55763
4202.69,0.56125
4198.84,0.56075
4194.98,0.56072
4191.12,0.56043
4187.26,0.55568
4183.41,0.54931
4179.55,0.54425
4175.69,0.54363
4171.83,0.54718
4167.98,0.55366
4164.12,0.55969
4160.26,0.56222
4156.4,0.56521
4152.55,0.56683
4148.69,0.56748
4144.83,0.56438
4140.98,0.55832
4137.12,0.55277
4133.26,0.54907
4129.4,0.54922
4125.55,0.54822
4121.69,0.54714
4117.83,0.54619
4113.97,0.54150
4110.12,0.53601
4106.26,0.52710
4102.4,0.51903
4098.54,0.50394
4094.69,0.48484
4090.83,0.47587
4086.97,0.48057
4083.11,0.49198
4079.26,0.50577
4075.4,0.52259
4071.54,0.53413
4067.68,0.54113
4063.83,0.54542
4059.97,0.54871
4056.11,0.55433
4052.25,0.55637
4048.4,0.55923
4044.54,0.55968
4040.68,0.56486
4036.82,0.56707
4032.97,0.56999
4029.11,0.57198
4025.25,0.57203
4021.39,0.57332
4017.54,0.57307
4013.68,0.57437
4009.82,0.57043
4005.96,0.57178
4002.11,0.57456
3998.25,0.57607
3994.39,0.57747
3990.53,0.57882
3986.68,0.57994
3982.82,0.58114
3978.96,0.58126
3975.1,0.58051
3971.25,0.57921
3967.39,0.58091
3963.53,0.58155
3959.67,0.58303
3955.82,0.58617
3951.96,0.58823
3948.1,0.58766
3944.25,0.58863
3940.39,0.59094
3936.53,0.59156
3932.67,0.59037
3928.82,0.59160
3924.96,0.59192
3921.1,0.58907
3917.24,0.59036
3913.39,0.59509
3909.53,0.59628
3905.67,0.59636
3901.81,0.59575
3897.96,0.60261
3894.1,0.60519
3890.24,0.60811
3886.38,0.60935
3882.53,0.61162
3878.67,0.61061
3874.81,0.61088
3870.95,0.60960
3867.1,0.61310
3863.24,0.61420
3859.38,0.61058
3855.52,0.60483
3851.67,0.60967
3847.81,0.61140
3843.95,0.61215
3840.09,0.61574
3836.24,0.61591
3832.38,0.61335
3828.52,0.61415
3824.66,0.61439
3820.81,0.61269
3816.95,0.60692
3813.09,0.60093
3809.23,0.59707
3805.38,0.59525
3801.52,0.60059
3797.66,0.60620
3793.8,0.60901
3789.95,0.61015
3786.09,0.61033
3782.23,0.60908
3778.37,0.60748
3774.52,0.60374
3770.66,0.60174
3766.8,0.59664
3762.94,0.59194
3759.09,0.58833
3755.23,0.58421
3751.37,0.59225
3747.51,0.59230
3743.66,0.58952
3739.8,0.59214
3735.94,0.58975
3732.09,0.58392
3728.23,0.58337
3724.37,0.59198
3720.51,0.59847
3716.66,0.59906
3712.8,0.59907
3708.94,0.59207
3705.08,0.57983
3701.23,0.57010
3697.37,0.56046
3693.51,0.55172
3689.65,0.53634
3685.8,0.51454
3681.94,0.51087
3678.08,0.51489
3674.22,0.50980
3670.37,0.50327
3666.51,0.49044
3662.65,0.48171
3658.79,0.47373
3654.94,0.46502
3651.08,0.46256
3647.22,0.45268
3643.36,0.44169
3639.51,0.43616
3635.65,0.43063
3631.79,0.42727
3627.93,0.42753
3624.08,0.42572
3620.22,0.42827
3616.36,0.43077
3612.5,0.42954
3608.65,0.43027
3604.79,0.43372
3600.93,0.43669
3597.07,0.43694
3593.22,0.43434
3589.36,0.43306
3585.5,0.43106
3581.64,0.42435
3577.79,0.41809
3573.93,0.41056
3570.07,0.40541
3566.21,0.40267
3562.36,0.39419
3558.5,0.38739
3554.64,0.38439
3550.78,0.38372
3546.93,0.38445
3543.07,0.38780
3539.21,0.38796
3535.36,0.39015
3531.5,0.39384
3527.64,0.39803
3523.78,0.40248
3519.93,0.40605
3516.07,0.40920
3512.21,0.41353
3508.35,0.41489
3504.5,0.41628
3500.64,0.41734
3496.78,0.41929
3492.92,0.41999
3489.07,0.42011
3485.21,0.41937
3481.35,0.41805
3477.49,0.41703
3473.64,0.41319
3469.78,0.40980
3465.92,0.40586
3462.06,0.39979
3458.21,0.39118
3454.35,0.38322
3450.49,0.37519
3446.63,0.36663
3442.78,0.35516
3438.92,0.34220
3435.06,0.32949
3431.2,0.32238
3427.35,0.33014
3423.49,0.34495
3419.63,0.36187
3415.77,0.37621
3411.92,0.38809
3408.06,0.39795
3404.2,0.40553
3400.34,0.41193
3396.49,0.41445
3392.63,0.41858
3388.77,0.42444
3384.91,0.42731
3381.06,0.42854
3377.2,0.42922
3373.34,0.43080
3369.48,0.43140
3365.63,0.43025
3361.77,0.42772
3357.91,0.42572
3354.05,0.42291
3350.2,0.41937
3346.34,0.41381
3342.48,0.41069
3338.63,0.40798
3334.77,0.40750
3330.91,0.41067
3327.05,0.41505
3323.2,0.41879
3319.34,0.42095
3315.48,0.42185
3311.62,0.42200
3307.77,0.42164
3303.91,0.42004
3300.05,0.41943
3296.19,0.42105
3292.34,0.42355
3288.48,0.42630
3284.62,0.42840
3280.76,0.42949
3276.91,0.43007
3273.05,0.43165
3269.19,0.43380
3265.33,0.43464
3261.48,0.43546
3257.62,0.43581
3253.76,0.43476
3249.9,0.43465
3246.05,0.43371
3242.19,0.43322
3238.33,0.43241
3234.47,0.43084
3230.62,0.43206
3226.76,0.43462
3222.9,0.43742
3219.04,0.43882
3215.19,0.44122
3211.33,0.44203
3207.47,0.44302
3203.61,0.44367
3199.76,0.44179
3195.9,0.44221
3192.04,0.44319
3188.18,0.44163
3184.33,0.44074
3180.47,0.44105
3176.61,0.44198
3172.75,0.44276
3168.9,0.44244
3165.04,0.44194
3161.18,0.44008
3157.32,0.43790
3153.47,0.43640
3149.61,0.43361
3145.75,0.43066
3141.89,0.42731
3138.04,0.42203
3134.18,0.41673
3130.32,0.41122
3126.47,0.40908
3122.61,0.41051
3118.75,0.40849
3114.89,0.40339
3111.04,0.39589
3107.18,0.38465
3103.32,0.37875
3099.46,0.38101
3095.61,0.38687
3091.75,0.38743
3087.89,0.38022
3084.03,0.37124
3080.18,0.36520
3076.32,0.36498
3072.46,0.36286
3068.6,0.35883
3064.75,0.35844
3060.89,0.35550
3057.03,0.34512
3053.17,0.34433
3049.32,0.36378
3045.46,0.38783
3041.6,0.40015
3037.74,0.40209
3033.89,0.39771
3030.03,0.38992
3026.17,0.37812
3022.31,0.35978
3018.46,0.33620
3014.6,0.31834
3010.74,0.31266
3006.88,0.31118
3003.03,0.30870
2999.17,0.30490
2995.31,0.29847
2991.45,0.29073
2987.6,0.27735
2983.74,0.26123
2979.88,0.24163
2976.02,0.22105
2972.17,0.20590
2968.31,0.20524
2964.45,0.21624
2960.59,0.22803
2956.74,0.24144
2952.88,0.25700
2949.02,0.27559
2945.16,0.29597
2941.31,0.31514
2937.45,0.32936
2933.59,0.33696
2929.74,0.33858
2925.88,0.33427
2922.02,0.32538
2918.16,0.31171
2914.31,0.29067
2910.45,0.26812
2906.59,0.26379
2902.73,0.28408
2898.88,0.30628
2895.02,0.31736
2891.16,0.32147
2887.3,0.32461
2883.45,0.33073
2879.59,0.33854
2875.73,0.34426
2871.87,0.34822
2868.02,0.35135
2864.16,0.35540
2860.3,0.36061
2856.44,0.36796
2852.59,0.37678
2848.73,0.39005
2844.87,0.40659
2841.01,0.42013
2837.16,0.43059
2833.3,0.43868
2829.44,0.44610
2825.58,0.45187
2821.73,0.45416
2817.87,0.45200
2814.01,0.44893
2810.15,0.44724
2806.3,0.44611
2802.44,0.44851
2798.58,0.45518
2794.72,0.46193
2790.87,0.46818
2787.01,0.47347
2783.15,0.47792
2779.29,0.48155
2775.44,0.48456
2771.58,0.48627
2767.72,0.48851
2763.86,0.48956
2760.01,0.48999
2756.15,0.48968
2752.29,0.48876
2748.43,0.48716
2744.58,0.48669
2740.72,0.49149
2736.86,0.49741
2733.01,0.50265
2729.15,0.50786
2725.29,0.51244
2721.43,0.51521
2717.58,0.51783
2713.72,0.52056
2709.86,0.52414
2706,0.52705
2702.15,0.52944
2698.29,0.53143
2694.43,0.53281
2690.57,0.53412
2686.72,0.53461
2682.86,0.53436
2679,0.53459
2675.14,0.53546
2671.29,0.53663
2667.43,0.53750
2663.57,0.53650
2659.71,0.53463
2655.86,0.53208
2652,0.52881
2648.14,0.52496
2644.28,0.51954
2640.43,0.51115
2636.57,0.50213
2632.71,0.49684
2628.85,0.49591
2625,0.49714
2621.14,0.49937
2617.28,0.49978
2613.42,0.49840
2609.57,0.49737
2605.71,0.49576
2601.85,0.49289
2597.99,0.48877
2594.14,0.48531
2590.28,0.48054
2586.42,0.47694
2582.56,0.47521
2578.71,0.47510
2574.85,0.47626
2570.99,0.47589
2567.13,0.47414
2563.28,0.47315
2559.42,0.47274
2555.56,0.47185
2551.7,0.47078
2547.85,0.46949
2543.99,0.46857
2540.13,0.46803
2536.27,0.46730
2532.42,0.46831
2528.56,0.47037
2524.7,0.47369
2520.85,0.47729
2516.99,0.48053
2513.13,0.48265
2509.27,0.48435
2505.42,0.48495
2501.56,0.48485
2497.7,0.48635
2493.84,0.48910
2489.99,0.49338
2486.13,0.49846
2482.27,0.50351
2478.41,0.50800
2474.56,0.51160
2470.7,0.51423
2466.84,0.51512
2462.98,0.51564
2459.13,0.51545
2455.27,0.51465
2451.41,0.51336
2447.55,0.51099
2443.7,0.50687
2439.84,0.50050
2435.98,0.49365
2432.12,0.48694
2428.27,0.47960
2424.41,0.47248
2420.55,0.46463
2416.69,0.45777
2412.84,0.45198
2408.98,0.44623
2405.12,0.44044
2401.26,0.43541
2397.41,0.43132
2393.55,0.42794
2389.69,0.42470
2385.83,0.42003
2381.98,0.41360
2378.12,0.40785
2374.26,0.40324
2370.4,0.39763
2366.55,0.39350
2362.69,0.39175
2358.83,0.39285
2354.97,0.41087
2351.12,0.41272
2347.26,0.41805
2343.4,0.42546
2339.54,0.42361
2335.69,0.42666
2331.83,0.43081
2327.97,0.43649
2324.12,0.44235
2320.26,0.45419
2316.4,0.46125
2312.54,0.46322
2308.69,0.46297
2304.83,0.46159
2300.97,0.45681
2297.11,0.44995
2293.26,0.44335
2289.4,0.43895
2285.54,0.43700
2281.68,0.43811
2277.83,0.43916
2273.97,0.43841
2270.11,0.43626
2266.25,0.43324
2262.4,0.43124
2258.54,0.43169
2254.68,0.43363
2250.82,0.43754
2246.97,0.44291
2243.11,0.44829
2239.25,0.45315
2235.39,0.45691
2231.54,0.45945
2227.68,0.46152
2223.82,0.46343
2219.96,0.46442
2216.11,0.46630
2212.25,0.46784
2208.39,0.47078
2204.53,0.47533
2200.68,0.47939
2196.82,0.48145
2192.96,0.48102
2189.1,0.47932
2185.25,0.47641
2181.39,0.47168
2177.53,0.46674
2173.67,0.45979
2169.82,0.45184
2165.96,0.44374
2162.1,0.43403
2158.24,0.42389
2154.39,0.41423
2150.53,0.40522
2146.67,0.39787
2142.81,0.39235
2138.96,0.38807
2135.1,0.38270
2131.24,0.37687
2127.38,0.36988
2123.53,0.36256
2119.67,0.35689
2115.81,0.35228
2111.96,0.35038
2108.1,0.35122
2104.24,0.35222
2100.38,0.35456
2096.53,0.35650
2092.67,0.35930
2088.81,0.36342
2084.95,0.37000
2081.1,0.37800
2077.24,0.38648
2073.38,0.39486
2069.52,0.40378
2065.67,0.41462
2061.81,0.42463
2057.95,0.43420
2054.09,0.44262
2050.24,0.44864
2046.38,0.45257
2042.52,0.45563
2038.66,0.45529
2034.81,0.45317
2030.95,0.44922
2027.09,0.44241
2023.23,0.43458
2019.38,0.42715
2015.52,0.41874
2011.66,0.40997
2007.8,0.40151
2003.95,0.39298
2000.09,0.38435
1996.23,0.37491
1992.37,0.36768
1988.52,0.35887
1984.66,0.34956
1980.8,0.34146
1976.94,0.33159
1973.09,0.31873
1969.23,0.30433
1965.37,0.28506
1961.51,0.27165
1957.66,0.27293
1953.8,0.28296
1949.94,0.29355
1946.08,0.30637
1942.23,0.31882
1938.37,0.32833
1934.51,0.33948
1930.65,0.34974
1926.8,0.35808
1922.94,0.36839
1919.08,0.37562
1915.23,0.37968
1911.37,0.38488
1907.51,0.39032
1903.65,0.39126
1899.8,0.39372
1895.94,0.39752
1892.08,0.39905
1888.22,0.39913
1884.37,0.39591
1880.51,0.39308
1876.65,0.38919
1872.79,0.38585
1868.94,0.38646
1865.08,0.37091
1861.22,0.35738
1857.36,0.34460
1853.51,0.32885
1849.65,0.31441
1845.79,0.30355
1841.93,0.28559
1838.08,0.27215
1834.22,0.26224
1830.36,0.25912
1826.5,0.25295
1822.65,0.24822
1818.79,0.24483
1814.93,0.24380
1811.07,0.24330
1807.22,0.23943
1803.36,0.23850
1799.5,0.23775
1795.64,0.23453
1791.79,0.23224
1787.93,0.22053
1784.07,0.21319
1780.21,0.20557
1776.36,0.19773
1772.5,0.19212
1768.64,0.17166
1764.78,0.15606
1760.93,0.13977
1757.07,0.11740
1753.21,0.09529
1749.35,0.06914
1745.5,0.04260
1741.64,0.02780
1737.78,0.02370
1733.92,0.02610
1730.07,0.02763
1726.21,0.02859
1722.35,0.03105
1718.5,0.03890
1714.64,0.04977
1710.78,0.06185
1706.92,0.08159
1703.07,0.10384
1699.21,0.12859
1695.35,0.14258
1691.49,0.14643
1687.64,0.15190
1683.78,0.15800
1679.92,0.16172
1676.06,0.17396
1672.21,0.18838
1668.35,0.20251
1664.49,0.21173
1660.63,0.22397
1656.78,0.23186
1652.92,0.25043
1649.06,0.24997
1645.2,0.24893
1641.35,0.24182
1637.49,0.25297
1633.63,0.25084
1629.77,0.24583
1625.92,0.24994
1622.06,0.24700
1618.2,0.24170
1614.34,0.23056
1610.49,0.23258
1606.63,0.24618
1602.77,0.25565
1598.91,0.26239
1595.06,0.26359
1591.2,0.25476
1587.34,0.23873
1583.48,0.20899
1579.63,0.18642
1575.77,0.20061
1571.91,0.22124
1568.05,0.24151
1564.2,0.24689
1560.34,0.26254
1556.48,0.26154
1552.62,0.24734
1548.77,0.24271
1544.91,0.24993
1541.05,0.26920
1537.19,0.24940
1533.34,0.24063
1529.48,0.23029
1525.62,0.22802
1521.76,0.23424
1517.91,0.22832
1514.05,0.20509
1510.19,0.17649
1506.34,0.13705
1502.48,0.14401
1498.62,0.20074
1494.76,0.23854
1490.91,0.24113
1487.05,0.22252
1483.19,0.19666
1479.33,0.17378
1475.48,0.15488
1471.62,0.13847
1467.76,0.14051
1463.9,0.14461
1460.05,0.14286
1456.19,0.14049
1452.33,0.13158
1448.47,0.13389
1444.62,0.13540
1440.76,0.13718
1436.9,0.14461
1433.04,0.14920
1429.19,0.14965
1425.33,0.14009
1421.47,0.11870
1417.61,0.07834
1413.76,0.05040
1409.9,0.04781
1406.04,0.06344
1402.18,0.08427
1398.33,0.09802
1394.47,0.10128
1390.61,0.09669
1386.75,0.09197
1382.9,0.08990
1379.04,0.08968
1375.18,0.08731
1371.32,0.08211
1367.47,0.08177
1363.61,0.08470
1359.75,0.08112
1355.89,0.07107
1352.04,0.05828
1348.18,0.04776
1344.32,0.04406
1340.46,0.04810
1336.61,0.06235
1332.75,0.08234
1328.89,0.09071
1325.03,0.08201
1321.18,0.06844
1317.32,0.05524
1313.46,0.04442
1309.61,0.03580
1305.75,0.03071
1301.89,0.02814
1298.03,0.02749
1294.18,0.02885
1290.32,0.03150
1286.46,0.03540
1282.6,0.03871
1278.75,0.04241
1274.89,0.04553
1271.03,0.04809
1267.17,0.04992
1263.32,0.05070
1259.46,0.05155
1255.6,0.05154
1251.74,0.05176
1247.89,0.04929
1244.03,0.04711
1240.17,0.04872
1236.31,0.06109
1232.46,0.08446
1228.6,0.11087
1224.74,0.13096
1220.88,0.15099
1217.03,0.17179
1213.17,0.18363
1209.31,0.19435
1205.45,0.20701
1201.6,0.21907
1197.74,0.22710
1193.88,0.22890
1190.02,0.22225
1186.17,0.20792
1182.31,0.18845
1178.45,0.16971
1174.59,0.15552
1170.74,0.14775
1166.88,0.13817
1163.02,0.12034
1159.16,0.10205
1155.31,0.08286
1151.45,0.06523
1147.59,0.04945
1143.73,0.03884
1139.88,0.03471
1136.02,0.03755
1132.16,0.04235
1128.3,0.04437
1124.45,0.04465
1120.59,0.04504
1116.73,0.04771
1112.88,0.04925
1109.02,0.04804
1105.16,0.04995
1101.3,0.05398
1097.45,0.06312
1093.59,0.07471
1089.73,0.09004
1085.87,0.11159
1082.02,0.14268
1078.16,0.17973
1074.3,0.21300
1070.44,0.23808
1066.59,0.25366
1062.73,0.25945
1058.87,0.25735
1055.01,0.24373
1051.16,0.22613
1047.3,0.20978
1043.44,0.20028
1039.58,0.19506
1035.73,0.18811
1031.87,0.16494
1028.01,0.11543
1024.15,0.07796
1020.3,0.08553
1016.44,0.12778
1012.58,0.20809
1008.72,0.26895
1004.87,0.29575
1001.01,0.30548
997.151,0.30604
993.294,0.29285
989.437,0.27033
985.579,0.25732
981.722,0.23073
977.864,0.19254
974.007,0.16680
970.149,0.17309
966.292,0.20729
962.434,0.24777
958.577,0.28207
954.719,0.30687
950.862,0.32100
947.005,0.33052
943.147,0.33608
939.29,0.33619
935.432,0.33459
931.575,0.33490
927.717,0.33337
923.86,0.32857
920.002,0.32189
916.145,0.30953
912.287,0.29068
908.43,0.26815
904.573,0.24640
900.715,0.23301
896.858,0.23056
893,0.22984
889.143,0.22549
885.285,0.21137
881.428,0.18965
877.57,0.16437
873.713,0.14530
869.856,0.16731
865.998,0.19549
862.141,0.19500
858.283,0.17850
854.426,0.16057
850.568,0.14984
846.711,0.15653
842.853,0.17854
838.996,0.19969
835.138,0.21678
831.281,0.23087
827.424,0.24130
823.566,0.24810
819.709,0.24854
815.851,0.24434
811.994,0.24259
808.136,0.23736
804.279,0.23094
800.421,0.22322
796.564,0.20182
792.706,0.19214
788.849,0.21262
784.992,0.23206
781.134,0.24257
777.277,0.24895
773.419,0.25379
769.562,0.25455
765.704,0.25293
761.847,0.24979
757.989,0.24052
754.132,0.22724
750.274,0.20805
746.417,0.17628
742.56,0.13073
738.702,0.08119
734.845,0.05396
730.987,0.05172
727.13,0.06550
723.272,0.10842
719.415,0.16889
715.557,0.20324
711.7,0.21173
707.843,0.21576
703.985,0.22303
700.128,0.23975
696.27,0.25811
692.413,0.26329
688.555,0.26040
684.698,0.25047
680.84,0.23517
676.983,0.23225
673.125,0.23424
669.268,0.25727
665.411,0.25861
661.553,0.25428
657.696,0.25459
653.838,0.25696
649.981,0.26176
646.123,0.26202
642.266,0.26461
638.408,0.25869
634.551,0.23640
630.693,0.23054
626.836,0.25139
622.979,0.25381
619.121,0.25067
615.264,0.24494
611.406,0.24341
607.549,0.24370
603.691,0.24225
599.834,0.23823
595.976,0.23617
592.119,0.24275
588.261,0.24639
584.404,0.24425
580.547,0.23786
576.689,0.23117
572.832,0.22309
568.974,0.21929
565.117,0.21295
561.259,0.20770
557.402,0.20407
553.544,0.19374
549.687,0.18756
545.83,0.17789
541.972,0.16744
538.115,0.15370
534.257,0.14901
530.4,0.13587
526.542,0.12845
522.685,0.12315
518.827,0.12232
514.97,0.11704
511.112,0.10051
507.255,0.08578
503.398,0.09104
499.54,0.10071
495.683,0.11188
491.825,0.12677
487.968,0.12125
484.11,0.11975
480.253,0.12457
476.395,0.12914
472.538,0.13210
468.68,0.12792
464.823,0.12074
460.966,0.11576
457.108,0.11052
453.251,0.09510
449.393,0.08462
445.536,0.06826
441.678,0.05201
437.821,0.05216
433.963,0.05691
430.106,0.06469
426.248,0.07378
422.391,0.08940
418.534,0.08340
414.676,0.07895
410.819,0.07954
406.961,0.08250
403.104,0.05522
399.246,0.05123