File: 01_Data/Polyester_Fabric/FTIR/IS/Polyester_Fabric_IS_T_221019_R8.dpt
7497.03,0.02876
7491.24,0.03309
7485.46,0.01927
7479.67,0.02180
7473.88,0.02418
7468.1,0.02508
7462.31,0.01680
7456.53,0.02331
7450.74,0.02793
7444.95,0.01893
7439.17,0.02936
7433.38,0.02447
7427.59,0.02228
7421.81,0.02010
7416.02,0.01722
7410.24,0.01984
7404.45,0.02351
7398.66,0.02680
7392.88,0.02550
7387.09,0.02893
7381.31,0.02563
7375.52,0.02253
7369.73,0.02930
7363.95,0.02256
7358.16,0.01898
7352.37,0.02195
7346.59,0.02415
7340.8,0.01921
7335.02,0.01847
7329.23,0.01560
7323.44,0.02439
7317.66,0.01797
7311.87,0.02476
7306.08,0.01986
7300.3,0.01986
7294.51,0.02654
7288.73,0.01971
7282.94,0.01995
7277.15,0.02726
7271.37,0.02387
7265.58,0.02005
7259.79,0.02663
7254.01,0.02834
7248.22,0.02159
7242.44,0.02025
7236.65,0.02925
7230.86,0.02895
7225.08,0.02453
7219.29,0.02217
7213.5,0.02427
7207.72,0.02821
7201.93,0.02779
7196.15,0.02540
7190.36,0.02853
7184.57,0.02418
7178.79,0.02891
7173,0.02781
7167.21,0.02163
7161.43,0.02635
7155.64,0.02053
7149.86,0.02390
7144.07,0.02394
7138.28,0.02542
7132.5,0.02149
7126.71,0.02747
7120.92,0.02871
7115.14,0.02777
7109.35,0.02677
7103.57,0.02416
7097.78,0.02511
7091.99,0.01925
7086.21,0.01588
7080.42,0.01750
7074.63,0.02494
7068.85,0.02256
7063.06,0.02010
7057.28,0.02260
7051.49,0.02587
7045.7,0.02718
7039.92,0.01526
7034.13,0.02381
7028.34,0.02001
7022.56,0.02346
7016.77,0.02162
7010.99,0.02913
7005.2,0.03075
6999.41,0.02446
6993.63,0.02822
6987.84,0.02682
6982.06,0.01677
6976.27,0.02118
6970.48,0.02532
6964.7,0.01906
6958.91,0.02291
6953.12,0.02782
6947.34,0.02297
6941.55,0.01991
6935.77,0.01714
6929.98,0.02004
6924.19,0.02394
6918.41,0.01970
6912.62,0.01956
6906.83,0.01650
6901.05,0.02603
6895.26,0.02930
6889.48,0.02393
6883.69,0.02806
6877.9,0.02443
6872.12,0.02574
6866.33,0.02193
6860.54,0.02243
6854.76,0.01943
6848.97,0.02289
6843.19,0.01973
6837.4,0.02341
6831.61,0.02267
6825.83,0.01991
6820.04,0.02282
6814.25,0.02484
6808.47,0.01755
6802.68,0.01657
6796.9,0.02391
6791.11,0.02271
6785.32,0.02359
6779.54,0.02551
6773.75,0.02173
6767.96,0.02172
6762.18,0.02245
6756.39,0.02536
6750.61,0.02460
6744.82,0.02289
6739.03,0.02484
6733.25,0.02373
6727.46,0.02570
6721.67,0.02437
6715.89,0.02522
6710.1,0.02583
6704.32,0.02218
6698.53,0.02418
6692.74,0.02093
6686.96,0.02371
6681.17,0.01902
6675.38,0.02176
6669.6,0.02316
6663.81,0.02118
6658.03,0.02542
6652.24,0.02145
6646.45,0.01739
6640.67,0.02541
6634.88,0.02417
6629.09,0.02418
6623.31,0.02077
6617.52,0.02036
6611.74,0.01767
6605.95,0.02095
6600.16,0.02133
6594.38,0.02346
6588.59,0.02530
6582.8,0.01989
6577.02,0.02557
6571.23,0.02239
6565.45,0.02356
6559.66,0.02685
6553.87,0.02155
6548.09,0.02379
6542.3,0.02385
6536.52,0.02381
6530.73,0.02216
6524.94,0.02417
6519.16,0.02178
6513.37,0.02132
6507.58,0.02002
6501.8,0.01939
6496.01,0.02525
6490.23,0.01758
6484.44,0.02219
6478.65,0.02116
6472.87,0.02325
6467.08,0.02339
6461.29,0.02554
6455.51,0.02029
6449.72,0.01769
6443.94,0.02180
6438.15,0.02424
6432.36,0.02231
6426.58,0.02342
6420.79,0.02428
6415,0.02174
6409.22,0.01883
6403.43,0.02332
6397.65,0.01859
6391.86,0.02096
6386.07,0.02086
6380.29,0.02090
6374.5,0.02188
6368.71,0.02075
6362.93,0.02123
6357.14,0.02249
6351.36,0.02032
6345.57,0.02064
6339.78,0.02699
6334,0.02474
6328.21,0.02182
6322.42,0.02132
6316.64,0.02477
6310.85,0.02236
6305.07,0.01948
6299.28,0.02285
6293.49,0.02541
6287.71,0.02035
6281.92,0.02355
6276.13,0.02386
6270.35,0.02312
6264.56,0.02055
6258.78,0.02113
6252.99,0.01941
6247.2,0.02348
6241.42,0.02365
6235.63,0.02411
6229.84,0.02141
6224.06,0.02291
6218.27,0.02440
6212.49,0.02399
6206.7,0.01915
6200.91,0.02167
6195.13,0.02264
6189.34,0.02044
6183.55,0.02140
6177.77,0.02074
6171.98,0.01932
6166.2,0.02168
6160.41,0.02298
6154.62,0.02468
6148.84,0.02459
6143.05,0.02061
6137.26,0.02160
6131.48,0.02177
6125.69,0.01915
6119.91,0.02142
6114.12,0.01864
6108.33,0.02138
6102.55,0.02185
6096.76,0.02074
6090.98,0.02169
6085.19,0.02374
6079.4,0.02102
6073.62,0.01848
6067.83,0.02093
6062.04,0.01978
6056.26,0.01876
6050.47,0.02177
6044.69,0.02282
6038.9,0.02253
6033.11,0.02154
6027.33,0.02045
6021.54,0.02203
6015.75,0.02056
6009.97,0.02261
6004.18,0.01934
5998.4,0.01750
5992.61,0.02182
5986.82,0.02319
5981.04,0.02001
5975.25,0.01915
5969.46,0.02166
5963.68,0.02162
5957.89,0.01947
5952.11,0.02422
5946.32,0.02358
5940.53,0.02207
5934.75,0.01958
5928.96,0.02187
5923.17,0.02186
5917.39,0.02403
5911.6,0.02133
5905.82,0.02162
5900.03,0.02117
5894.24,0.02207
5888.46,0.02092
5882.67,0.02220
5876.88,0.02299
5871.1,0.02183
5865.31,0.02106
5859.53,0.02250
5853.74,0.02243
5847.95,0.02109
5842.17,0.02154
5836.38,0.02175
5830.59,0.02336
5824.81,0.02144
5819.02,0.02271
5813.24,0.02246
5807.45,0.02322
5801.66,0.02150
5795.88,0.02231
5790.09,0.02216
5784.3,0.02209
5778.52,0.02485
5772.73,0.02020
5766.95,0.02199
5761.16,0.02235
5755.37,0.02314
5749.59,0.02422
5743.8,0.02111
5738.01,0.02376
5732.23,0.02280
5726.44,0.02238
5720.66,0.02254
5714.87,0.02189
5709.08,0.02169
5703.3,0.02072
5697.51,0.02078
5691.72,0.02288
5685.94,0.02249
5680.15,0.02178
5674.37,0.02130
5668.58,0.02117
5662.79,0.02239
5657.01,0.02073
5651.22,0.02095
5645.44,0.02213
5639.65,0.01950
5633.86,0.02247
5628.08,0.02077
5622.29,0.02127
5616.5,0.02297
5610.72,0.02071
5604.93,0.02147
5599.15,0.02294
5593.36,0.02185
5587.57,0.02091
5581.79,0.02202
5576,0.02575
5570.21,0.02359
5564.43,0.02012
5558.64,0.02221
5552.86,0.02148
5547.07,0.02311
5541.28,0.02289
5535.5,0.02230
5529.71,0.02256
5523.92,0.02202
5518.14,0.02139
5512.35,0.02184
5506.57,0.02176
5500.78,0.02318
5494.99,0.01979
5489.21,0.02080
5483.42,0.02159
5477.63,0.02285
5471.85,0.02155
5466.06,0.02317
5460.28,0.02162
5454.49,0.02030
5448.7,0.02142
5442.92,0.02164
5437.13,0.02284
5431.34,0.02329
5425.56,0.02345
5419.77,0.02122
5413.99,0.02098
5408.2,0.02348
5402.41,0.02164
5396.63,0.02132
5390.84,0.01989
5385.05,0.02280
5379.27,0.02108
5373.48,0.02254
5367.7,0.02164
5361.91,0.02132
5356.12,0.02147
5350.34,0.02226
5344.55,0.02172
5338.76,0.02323
5332.98,0.02190
5327.19,0.02151
5321.41,0.02111
5315.62,0.02195
5309.83,0.02231
5304.05,0.02250
5298.26,0.02114
5292.47,0.02057
5286.69,0.02217
5280.9,0.02223
5275.12,0.02151
5269.33,0.02158
5263.54,0.02268
5257.76,0.02179
5251.97,0.02212
5246.18,0.02274
5240.4,0.02176
5234.61,0.02148
5228.83,0.02309
5223.04,0.02349
5217.25,0.02353
5211.47,0.02233
5205.68,0.02352
5199.9,0.02220
5194.11,0.02290
5188.32,0.02246
5182.54,0.02237
5176.75,0.02070
5170.96,0.02165
5165.18,0.02218
5159.39,0.02271
5153.61,0.02134
5147.82,0.02094
5142.03,0.02318
5136.25,0.02261
5130.46,0.02197
5124.67,0.02231
5118.89,0.02161
5113.1,0.02216
5107.32,0.02153
5101.53,0.02347
5095.74,0.02260
5089.96,0.02213
5084.17,0.02264
5078.38,0.02290
5072.6,0.02148
5066.81,0.02202
5061.03,0.02147
5055.24,0.02281
5049.45,0.02249
5043.67,0.02179
5037.88,0.02327
5032.09,0.02255
5026.31,0.02191
5020.52,0.02292
5014.74,0.02224
5008.95,0.02176
5003.16,0.02120
4997.38,0.02270
4991.59,0.02258
4985.8,0.02203
4980.02,0.02140
4974.23,0.02310
4968.45,0.02388
4962.66,0.02288
4956.87,0.02299
4951.09,0.02268
4945.3,0.02257
4939.51,0.02176
4933.73,0.02335
4927.94,0.02239
4922.16,0.02300
4916.37,0.02245
4910.58,0.02161
4904.8,0.02089
4899.01,0.02187
4893.22,0.02209
4887.44,0.02147
4881.65,0.02087
4875.87,0.02164
4870.08,0.02186
4864.29,0.02170
4858.51,0.02293
4852.72,0.02272
4846.93,0.02385
4841.15,0.02284
4835.36,0.02179
4829.58,0.02181
4823.79,0.02321
4818,0.02246
4812.22,0.02243
4806.43,0.02285
4800.65,0.02237
4794.86,0.02200
4789.07,0.02273
4783.29,0.02231
4777.5,0.02254
4771.71,0.02265
4765.93,0.02215
4760.14,0.02342
4754.36,0.02103
4748.57,0.02217
4742.78,0.02147
4737,0.02282
4731.21,0.02320
4725.42,0.02412
4719.64,0.02250
4713.85,0.02336
4708.07,0.02219
4702.28,0.02314
4696.49,0.02205
4690.71,0.02227
4684.92,0.02287
4679.13,0.02307
4673.35,0.02197
4667.56,0.02260
4661.78,0.02364
4655.99,0.02352
4650.2,0.02284
4644.42,0.02256
4638.63,0.02267
4632.84,0.02208
4627.06,0.02306
4621.27,0.02237
4615.49,0.02269
4609.7,0.02361
4603.91,0.02278
4598.13,0.02253
4592.34,0.02197
4586.55,0.02315
4580.77,0.02247
4574.98,0.02177
4569.2,0.02304
4563.41,0.02207
4557.62,0.02273
4551.84,0.02177
4546.05,0.02207
4540.26,0.02305
4534.48,0.02373
4528.69,0.02274
4522.91,0.02192
4517.12,0.02281
4511.33,0.02297
4505.55,0.02274
4499.76,0.02286
4493.97,0.02190
4488.19,0.02217
4482.4,0.02269
4476.62,0.02314
4470.83,0.02296
4465.04,0.02350
4459.26,0.02233
4453.47,0.02227
4447.68,0.02233
4441.9,0.02207
4436.11,0.02270
4430.33,0.02262
4424.54,0.02390
4418.75,0.02320
4412.97,0.02310
4407.18,0.02236
4401.39,0.02217
4395.61,0.02203
4389.82,0.02281
4384.04,0.02326
4378.25,0.02162
4372.46,0.02308
4366.68,0.02241
4360.89,0.02229
4355.11,0.02241
4349.32,0.02248
4343.53,0.02310
4337.75,0.02270
4331.96,0.02216
4326.17,0.02277
4320.39,0.02205
4314.6,0.02264
4308.82,0.02233
4303.03,0.02272
4297.24,0.02255
4291.46,0.02263
4285.67,0.02273
4279.88,0.02278
4274.1,0.02300
4268.31,0.02279
4262.53,0.02258
4256.74,0.02262
4250.95,0.02287
4245.17,0.02353
4239.38,0.02315
4233.59,0.02265
4227.81,0.02194
4222.02,0.02233
4216.24,0.02286
4210.45,0.02221
4204.66,0.02273
4198.88,0.02286
4193.09,0.02316
4187.3,0.02341
4181.52,0.02257
4175.73,0.02263
4169.95,0.02249
4164.16,0.02302
4158.37,0.02284
4152.59,0.02264
4146.8,0.02259
4141.01,0.02221
4135.23,0.02265
4129.44,0.02314
4123.66,0.02288
4117.87,0.02222
4112.08,0.02255
4106.3,0.02234
4100.51,0.02273
4094.72,0.02344
4088.94,0.02284
4083.15,0.02249
4077.37,0.02304
4071.58,0.02241
4065.79,0.02314
4060.01,0.02245
4054.22,0.02318
4048.43,0.02280
4042.65,0.02271
4036.86,0.02283
4031.08,0.02223
4025.29,0.02290
4019.5,0.02297
4013.72,0.02239
4007.93,0.02248
4002.14,0.02350
3996.36,0.02313
3990.57,0.02291
3984.79,0.02345
3979,0.02291
3973.21,0.02347
3967.43,0.02295
3961.64,0.02294
3955.85,0.02282
3950.07,0.02337
3944.28,0.02245
3938.5,0.02264
3932.71,0.02278
3926.92,0.02331
3921.14,0.02290
3915.35,0.02271
3909.57,0.02296
3903.78,0.02261
3897.99,0.02358
3892.21,0.02321
3886.42,0.02277
3880.63,0.02278
3874.85,0.02254
3869.06,0.02308
3863.28,0.02263
3857.49,0.02323
3851.7,0.02352
3845.92,0.02347
3840.13,0.02335
3834.34,0.02276
3828.56,0.02271
3822.77,0.02304
3816.99,0.02304
3811.2,0.02298
3805.41,0.02323
3799.63,0.02354
3793.84,0.02355
3788.05,0.02276
3782.27,0.02309
3776.48,0.02342
3770.7,0.02322
3764.91,0.02301
3759.12,0.02308
3753.34,0.02323
3747.55,0.02314
3741.76,0.02331
3735.98,0.02349
3730.19,0.02338
3724.41,0.02366
3718.62,0.02265
3712.83,0.02338
3707.05,0.02323
3701.26,0.02249
3695.47,0.02252
3689.69,0.02326
3683.9,0.02314
3678.12,0.02238
3672.33,0.02297
3666.54,0.02218
3660.76,0.02213
3654.97,0.02300
3649.18,0.02287
3643.4,0.02205
3637.61,0.02253
3631.83,0.02249
3626.04,0.02229
3620.25,0.02226
3614.47,0.02177
3608.68,0.02256
3602.89,0.02251
3597.11,0.02205
3591.32,0.02171
3585.54,0.02153
3579.75,0.02196
3573.96,0.02190
3568.18,0.02178
3562.39,0.02131
3556.6,0.02088
3550.82,0.02138
3545.03,0.02166
3539.25,0.02138
3533.46,0.02146
3527.67,0.02139
3521.89,0.02179
3516.1,0.02181
3510.31,0.02198
3504.53,0.02102
3498.74,0.02083
3492.96,0.02178
3487.17,0.02114
3481.38,0.02112
3475.6,0.02101
3469.81,0.02139
3464.03,0.02139
3458.24,0.02088
3452.45,0.02019
3446.67,0.02101
3440.88,0.02102
3435.09,0.02128
3429.31,0.02137
3423.52,0.02159
3417.74,0.02126
3411.95,0.02114
3406.16,0.02063
3400.38,0.02069
3394.59,0.02119
3388.8,0.02114
3383.02,0.02087
3377.23,0.02083
3371.45,0.02137
3365.66,0.02046
3359.87,0.02068
3354.09,0.02080
3348.3,0.02033
3342.51,0.02103
3336.73,0.02064
3330.94,0.02033
3325.16,0.02107
3319.37,0.02096
3313.58,0.02039
3307.8,0.02100
3302.01,0.02095
3296.22,0.02127
3290.44,0.02013
3284.65,0.02038
3278.87,0.02059
3273.08,0.02159
3267.29,0.02128
3261.51,0.02100
3255.72,0.02076
3249.93,0.02048
3244.15,0.02059
3238.36,0.02170
3232.58,0.02080
3226.79,0.02106
3221,0.02064
3215.22,0.02149
3209.43,0.02181
3203.64,0.02134
3197.86,0.02127
3192.07,0.02141
3186.29,0.02122
3180.5,0.02119
3174.71,0.02129
3168.93,0.02125
3163.14,0.02162
3157.35,0.02102
3151.57,0.02114
3145.78,0.02143
3140,0.02136
3134.21,0.02099
3128.42,0.02079
3122.64,0.02074
3116.85,0.02120
3111.06,0.02163
3105.28,0.02124
3099.49,0.02130
3093.71,0.02097
3087.92,0.02124
3082.13,0.02093
3076.35,0.02174
3070.56,0.02121
3064.77,0.02079
3058.99,0.02028
3053.2,0.02107
3047.42,0.02089
3041.63,0.02077
3035.84,0.02077
3030.06,0.02102
3024.27,0.02084
3018.49,0.02063
3012.7,0.02108
3006.91,0.02057
3001.13,0.02080
2995.34,0.02087
2989.55,0.02054
2983.77,0.01988
2977.98,0.02014
2972.2,0.02050
2966.41,0.02045
2960.62,0.02026
2954.84,0.02011
2949.05,0.02066
2943.26,0.01963
2937.48,0.01993
2931.69,0.02032
2925.91,0.02011
2920.12,0.02067
2914.33,0.02074
2908.55,0.02037
2902.76,0.02087
2896.97,0.02076
2891.19,0.02070
2885.4,0.02104
2879.62,0.02082
2873.83,0.02077
2868.04,0.02079
2862.26,0.02142
2856.47,0.02120
2850.68,0.02128
2844.9,0.02150
2839.11,0.02176
2833.33,0.02175
2827.54,0.02187
2821.75,0.02133
2815.97,0.02132
2810.18,0.02205
2804.39,0.02141
2798.61,0.02172
2792.82,0.02135
2787.04,0.02179
2781.25,0.02216
2775.46,0.02185
2769.68,0.02154
2763.89,0.02193
2758.1,0.02223
2752.32,0.02145
2746.53,0.02191
2740.75,0.02136
2734.96,0.02168
2729.17,0.02198
2723.39,0.02226
2717.6,0.02175
2711.81,0.02183
2706.03,0.02158
2700.24,0.02177
2694.46,0.02156
2688.67,0.02181
2682.88,0.02154
2677.1,0.02193
2671.31,0.02248
2665.52,0.02205
2659.74,0.02200
2653.95,0.02200
2648.17,0.02176
2642.38,0.02204
2636.59,0.02176
2630.81,0.02190
2625.02,0.02168
2619.24,0.02186
2613.45,0.02205
2607.66,0.02236
2601.88,0.02223
2596.09,0.02195
2590.3,0.02162
2584.52,0.02181
2578.73,0.02207
2572.95,0.02157
2567.16,0.02182
2561.37,0.02184
2555.59,0.02201
2549.8,0.02183
2544.01,0.02164
2538.23,0.02192
2532.44,0.02189
2526.66,0.02172
2520.87,0.02176
2515.08,0.02219
2509.3,0.02189
2503.51,0.02193
2497.72,0.02190
2491.94,0.02187
2486.15,0.02167
2480.37,0.02199
2474.58,0.02195
2468.79,0.02200
2463.01,0.02174
2457.22,0.02174
2451.43,0.02208
2445.65,0.02155
2439.86,0.02239
2434.08,0.02199
2428.29,0.02200
2422.5,0.02169
2416.72,0.02196
2410.93,0.02177
2405.14,0.02179
2399.36,0.02208
2393.57,0.02171
2387.79,0.02154
2382,0.02176
2376.21,0.02151
2370.43,0.02172
2364.64,0.02150
2358.85,0.02228
2353.07,0.02208
2347.28,0.02203
2341.5,0.02182
2335.71,0.02152
2329.92,0.02207
2324.14,0.02213
2318.35,0.02182
2312.56,0.02131
2306.78,0.02218
2300.99,0.02199
2295.21,0.02149
2289.42,0.02208
2283.63,0.02194
2277.85,0.02185
2272.06,0.02177
2266.27,0.02198
2260.49,0.02143
2254.7,0.02162
2248.92,0.02198
2243.13,0.02133
2237.34,0.02153
2231.56,0.02192
2225.77,0.02138
2219.98,0.02176
2214.2,0.02188
2208.41,0.02162
2202.63,0.02153
2196.84,0.02173
2191.05,0.02159
2185.27,0.02174
2179.48,0.02157
2173.7,0.02161
2167.91,0.02169
2162.12,0.02182
2156.34,0.02153
2150.55,0.02163
2144.76,0.02141
2138.98,0.02161
2133.19,0.02156
2127.41,0.02137
2121.62,0.02162
2115.83,0.02169
2110.05,0.02155
2104.26,0.02178
2098.47,0.02155
2092.69,0.02151
2086.9,0.02190
2081.12,0.02140
2075.33,0.02161
2069.54,0.02169
2063.76,0.02156
2057.97,0.02143
2052.18,0.02162
2046.4,0.02178
2040.61,0.02142
2034.83,0.02148
2029.04,0.02161
2023.25,0.02146
2017.47,0.02157
2011.68,0.02187
2005.89,0.02157
2000.11,0.02134
1994.32,0.02139
1988.54,0.02183
1982.75,0.02154
1976.96,0.02137
1971.18,0.02174
1965.39,0.02144
1959.6,0.02172
1953.82,0.02166
1948.03,0.02141
1942.25,0.02141
1936.46,0.02146
1930.67,0.02127
1924.89,0.02114
1919.1,0.02153
1913.31,0.02122
1907.53,0.02126
1901.74,0.02130
1895.96,0.02132
1890.17,0.02123
1884.38,0.02096
1878.6,0.02145
1872.81,0.02111
1867.02,0.02089
1861.24,0.02078
1855.45,0.02119
1849.67,0.02085
1843.88,0.02123
1838.09,0.02107
1832.31,0.02093
1826.52,0.02098
1820.73,0.02078
1814.95,0.02062
1809.16,0.02027
1803.38,0.02055
1797.59,0.02042
1791.8,0.02032
1786.02,0.02011
1780.23,0.01980
1774.44,0.01947
1768.66,0.01935
1762.87,0.01864
1757.09,0.01818
1751.3,0.01794
1745.51,0.01830
1739.73,0.01897
1733.94,0.01953
1728.16,0.02028
1722.37,0.02121
1716.58,0.02140
1710.8,0.02104
1705.01,0.02044
1699.22,0.02036
1693.44,0.01959
1687.65,0.01944
1681.87,0.01916
1676.08,0.01908
1670.29,0.01909
1664.51,0.01872
1658.72,0.01894
1652.93,0.01875
1647.15,0.01876
1641.36,0.01904
1635.58,0.01872
1629.79,0.01905
1624,0.01921
1618.22,0.01936
1612.43,0.01867
1606.64,0.01888
1600.86,0.01903
1595.07,0.01886
1589.29,0.01882
1583.5,0.01909
1577.71,0.01880
1571.93,0.01824
1566.14,0.01817
1560.35,0.01821
1554.57,0.01826
1548.78,0.01857
1543,0.01863
1537.21,0.01895
1531.42,0.01893
1525.64,0.01882
1519.85,0.01895
1514.06,0.01868
1508.28,0.01902
1502.49,0.01897
1496.71,0.01891
1490.92,0.01917
1485.13,0.01892
1479.35,0.01886
1473.56,0.01898
1467.77,0.01854
1461.99,0.01873
1456.2,0.01857
1450.42,0.01923
1444.63,0.01912
1438.84,0.01887
1433.06,0.01884
1427.27,0.01901
1421.48,0.01867
1415.7,0.01880
1409.91,0.01851
1404.13,0.01859
1398.34,0.01842
1392.55,0.01841
1386.77,0.01835
1380.98,0.01843
1375.19,0.01841
1369.41,0.01830
1363.62,0.01800
1357.84,0.01855
1352.05,0.01855
1346.26,0.01843
1340.48,0.01823
1334.69,0.01782
1328.9,0.01780
1323.12,0.01747
1317.33,0.01752
1311.55,0.01745
1305.76,0.01753
1299.97,0.01759
1294.19,0.01793
1288.4,0.01848
1282.62,0.01880
1276.83,0.01907
1271.04,0.01952
1265.26,0.02014
1259.47,0.02026
1253.68,0.02066
1247.9,0.02068
1242.11,0.02033
1236.33,0.02022
1230.54,0.01979
1224.75,0.01926
1218.97,0.01925
1213.18,0.01923
1207.39,0.01873
1201.61,0.01895
1195.82,0.01895
1190.04,0.01869
1184.25,0.01856
1178.46,0.01828
1172.68,0.01798
1166.89,0.01814
1161.1,0.01803
1155.32,0.01825
1149.53,0.01800
1143.75,0.01751
1137.96,0.01801
1132.17,0.01822
1126.39,0.01828
1120.6,0.01868
1114.81,0.01917
1109.03,0.01923
1103.24,0.01849
1097.46,0.01815
1091.67,0.01863
1085.88,0.01832
1080.1,0.01828
1074.31,0.01932
1068.52,0.01990
1062.74,0.01947
1056.95,0.02050
1051.17,0.01947
1045.38,0.01928
1039.59,0.01963
1033.81,0.01982
1028.02,0.01961
1022.23,0.01914
1016.45,0.01967
1010.66,0.02034
1004.88,0.02070
999.09,0.02175
993.303,0.02171
987.517,0.02174
981.731,0.02129
975.945,0.02057
970.158,0.02049
964.372,0.02085
958.586,0.02044
952.8,0.02009
947.014,0.01992
941.227,0.02030
935.441,0.01964
929.655,0.01942
923.869,0.01970
918.082,0.01998
912.296,0.01883
906.51,0.01953
900.724,0.01984
894.937,0.01976
889.151,0.01934
883.365,0.01935
877.579,0.01964
871.793,0.01921
866.006,0.01894
860.22,0.01911
854.434,0.01872
848.648,0.01936
842.861,0.01944
837.075,0.01835
831.289,0.01841
825.503,0.01911
819.716,0.01952
813.93,0.01847
808.144,0.01883
802.358,0.01890
796.571,0.01817
790.785,0.01893
784.999,0.01842
779.213,0.01856
773.427,0.01887
767.64,0.01888
761.854,0.01872
756.068,0.01839
750.282,0.01795
744.495,0.01806
738.709,0.01964
732.923,0.01857
727.137,0.01835
721.35,0.01846
715.564,0.01811
709.778,0.01781
703.992,0.01880
698.206,0.01805
692.419,0.01780
686.633,0.01803
680.847,0.01758
675.061,0.01749
669.274,0.01828
663.488,0.01765
657.702,0.01902
651.916,0.01623
646.129,0.01670
640.343,0.01503
634.557,0.01802
628.771,0.01507
622.984,0.01645
617.198,0.01636
611.412,0.01529
605.626,0.01450
599.84,0.01824