File: 01_Data/PUF_Mattress_Pad/STA/N2/10K_min/PUF_Mattress_Pad_STA_N2_10KData_22091_R1.csv
##Temp./Â°C,Time/min,Mass loss(subtr.2)/mg,DSC(subtr.2)/(mW/mg),Sensit./(uV/mW)
50.448,10.00917,0.00834,0.00262682,1.02682
51.048,10.8002,0.008781685,0.03252579,1.02676
51.648,11.0207,0.008768553,0.056031,1.02671
52.248,11.1858,0.007638625,0.07592895,1.02666
52.848,11.32357,0.007653964,0.09546742,1.02661
53.448,11.44631,0.01082835,0.1062,1.02656
54.048,11.55988,0.008703424,0.11445,1.0265
54.648,11.66577,0.00841605,0.12624,1.02645
55.248,11.7662,0.008968305,0.13704,1.0264
55.848,11.86293,0.0101384,0.14216,1.02634
56.448,11.9557,0.00941893,0.15056,1.02629
57.048,12.04557,0.008599706,0.15515,1.02624
57.648,12.1327,0.00812058,0.16194,1.02618
58.248,12.21826,0.009044075,0.16766,1.02613
58.848,12.30295,0.00834048,0.17006,1.02607
59.448,12.38543,0.009863102,0.17419,1.02602
60.048,12.46678,0.009705362,0.17844,1.02596
60.648,12.54658,0.008513358,0.18212,1.02591
61.248,12.62522,0.008099397,0.18492,1.02585
61.848,12.70283,0.009265522,0.18638,1.0258
62.448,12.77975,0.0095203,0.19222,1.02574
63.048,12.8558,0.0099153,0.19436,1.02569
63.648,12.93135,0.009808139,0.19526,1.02563
64.248,13.00608,0.01041366,0.19861,1.02557
64.848,13.08014,0.00845555,0.2018,1.02552
65.448,13.15388,0.01002451,0.20282,1.02546
66.048,13.22644,0.008741622,0.20568,1.0254
66.648,13.29851,0.00846884,0.20795,1.02534
67.248,13.36985,0.008470701,0.21052,1.02529
67.848,13.4414,0.00974753,0.21247,1.02523
68.448,13.5117,0.009775945,0.21314,1.02517
69.048,13.5815,0.008252733,0.215,1.02511
69.648,13.6507,0.00870266,0.21679,1.02505
70.248,13.72061,0.008637922,0.22268,1.02499
70.848,13.7901,0.009549127,0.22276,1.02493
71.448,13.85949,0.009550891,0.22297,1.02488
72.048,13.92818,0.00952385,0.22537,1.02482
72.648,13.9964,0.009544626,0.22554,1.02476
73.248,14.0641,0.009530376,0.22645,1.0247
73.848,14.1315,0.00955013,0.22773,1.02463
74.448,14.1987,0.008259785,0.22902,1.02457
75.048,14.2656,0.0089079,0.2298,1.02451
75.648,14.33195,0.00954583,0.23074,1.02445
76.248,14.39843,0.01087326,0.23363,1.02439
76.848,14.4648,0.010918,0.23379,1.02433
77.448,14.5304,0.00955081,0.23487,1.02427
78.048,14.5955,0.009571564,0.23724,1.0242
78.648,14.6602,0.00954559,0.23768,1.02414
79.248,14.72511,0.00958983,0.23756,1.02408
79.848,14.7906,0.009567405,0.24086,1.02402
80.448,14.85575,0.0107518,0.23915,1.02395
81.048,14.9206,0.009586544,0.24021,1.02389
81.648,14.98479,0.009594025,0.24143,1.02382
82.248,15.04895,0.009562151,0.24371,1.02376
82.848,15.1126,0.01093632,0.24056,1.0237
83.448,15.17635,0.009550686,0.24172,1.02363
84.048,15.2399,0.0108554,0.24229,1.02357
84.648,15.3032,0.01031131,0.24251,1.0235
85.248,15.3662,0.009545428,0.24501,1.02344
85.848,15.4289,0.008245405,0.24264,1.02337
86.448,15.4917,0.009503423,0.24567,1.0233
87.048,15.5542,0.009543433,0.2445,1.02324
87.648,15.6166,0.01066307,0.24573,1.02317
88.248,15.67862,0.00955003,0.24681,1.0231
88.848,15.74063,0.01077127,0.246,1.02304
89.448,15.8026,0.01023422,0.24701,1.02297
90.048,15.8646,0.009572802,0.24788,1.0229
90.648,15.9265,0.009547701,0.24792,1.02283
91.248,15.988,0.009552986,0.24913,1.02277
91.848,16.0492,0.01054241,0.25093,1.0227
92.448,16.11025,0.009522596,0.25007,1.02263
93.048,16.17119,0.01007661,0.25101,1.02256
93.648,16.2318,0.0095516,0.25057,1.02249
94.248,16.2925,0.009538122,0.25008,1.02242
94.848,16.3528,0.009533021,0.25146,1.02235
95.448,16.41291,0.01092062,0.2511,1.02228
96.048,16.47339,0.009553123,0.25184,1.02221
96.648,16.53361,0.009590952,0.25365,1.02214
97.248,16.59441,0.00954998,0.25221,1.02207
97.848,16.65452,0.009629703,0.25216,1.022
98.448,16.71434,0.00956713,0.25253,1.02193
99.048,16.77411,0.009654701,0.25393,1.02185
99.648,16.8339,0.009550046,0.25479,1.02178
100.248,16.89365,0.009568,0.25404,1.02171
100.848,16.9533,0.009565695,0.2543,1.02164
101.448,17.01288,0.009560006,0.25568,1.02156
102.048,17.07248,0.009548937,0.25462,1.02149
102.648,17.13198,0.009549958,0.2552,1.02142
103.248,17.1913,0.009457335,0.25448,1.02134
103.848,17.25071,0.009549223,0.25668,1.02127
104.448,17.30995,0.009821197,0.2549,1.02119
105.048,17.36904,0.009549502,0.25378,1.02112
105.648,17.42831,0.01085854,0.25633,1.02104
106.248,17.48759,0.009569236,0.25662,1.02097
106.848,17.54672,0.01087172,0.25422,1.02089
107.448,17.60569,0.01023125,0.25702,1.02082
108.048,17.66463,0.01085612,0.25629,1.02074
108.648,17.72364,0.00954295,0.25641,1.02066
109.248,17.78301,0.009550374,0.25696,1.02059
109.848,17.8422,0.00825529,0.25491,1.02051
110.448,17.90075,0.008230718,0.25859,1.02043
111.048,17.95958,0.008538349,0.25869,1.02035
111.648,18.0183,0.00823978,0.25714,1.02028
112.248,18.0772,0.009538362,0.25859,1.0202
112.848,18.1364,0.01064583,0.26004,1.02012
113.448,18.1951,0.009544313,0.25991,1.02004
114.048,18.25378,0.009548329,0.26055,1.01996
114.648,18.31254,0.008220893,0.26077,1.01988
115.248,18.371,0.009539281,0.26122,1.0198
115.848,18.4296,0.009551947,0.26243,1.01972
116.448,18.48807,0.01086955,0.26065,1.01964
117.048,18.5464,0.009496802,0.26181,1.01956
117.648,18.60507,0.01056604,0.26197,1.01948
118.248,18.66362,0.01231896,0.26144,1.0194
118.848,18.7222,0.009654418,0.26073,1.01932
119.448,18.78071,0.009674964,0.26095,1.01923
120.048,18.83889,0.008339851,0.26277,1.01915
120.648,18.8971,0.009699038,0.26197,1.01907
121.248,18.95566,0.009652751,0.26202,1.01898
121.848,19.01419,0.01097832,0.26153,1.0189
122.448,19.07314,0.01024086,0.26329,1.01882
123.048,19.13146,0.009660969,0.26299,1.01873
123.648,19.18988,0.01098258,0.26188,1.01865
124.248,19.24806,0.01103188,0.26232,1.01856
124.848,19.3063,0.00968479,0.26285,1.01848
125.448,19.36449,0.01097072,0.26135,1.01839
126.048,19.42255,0.01004436,0.26199,1.01831
126.648,19.48084,0.009660053,0.25988,1.01822
127.248,19.53884,0.009660006,0.26151,1.01814
127.848,19.59706,0.009894316,0.26131,1.01805
128.448,19.6549,0.009668606,0.26122,1.01796
129.048,19.7129,0.009662812,0.26071,1.01787
129.648,19.77092,0.008350919,0.26008,1.01779
130.248,19.82874,0.009658037,0.26179,1.0177
130.848,19.887,0.00966022,0.26137,1.01761
131.448,19.94493,0.008557443,0.26144,1.01752
132.048,20.00304,0.008350817,0.26026,1.01743
132.648,20.06099,0.009708931,0.26138,1.01734
133.248,20.1189,0.009677115,0.2642,1.01725
133.848,20.1767,0.008362801,0.26205,1.01716
134.448,20.23434,0.00966344,0.26046,1.01707
135.048,20.292,0.009660314,0.26348,1.01698
135.648,20.3495,0.008648292,0.26278,1.01689
136.248,20.40738,0.008541193,0.26224,1.0168
136.848,20.46527,0.009660388,0.26354,1.01671
137.448,20.52315,0.009660204,0.26294,1.01661
138.048,20.58081,0.008860611,0.26305,1.01652
138.648,20.63847,0.009660823,0.26406,1.01643
139.248,20.6959,0.00966,0.26234,1.01634
139.848,20.75346,0.009659889,0.26389,1.01624
140.448,20.81097,0.009529727,0.26254,1.01615
141.048,20.86846,0.008349645,0.26345,1.01605
141.648,20.9261,0.008978056,0.26327,1.01596
142.248,20.98372,0.009218929,0.26342,1.01586
142.848,21.04141,0.008692554,0.26387,1.01577
143.448,21.09892,0.0099948,0.26443,1.01567
144.048,21.15624,0.00965989,0.26323,1.01558
144.648,21.21365,0.00965881,0.26435,1.01548
145.248,21.27102,0.00901658,0.26365,1.01538
145.848,21.3284,0.008339781,0.26302,1.01529
146.448,21.3859,0.009666336,0.26415,1.01519
147.048,21.44331,0.008661719,0.26277,1.01509
147.648,21.5005,0.008345843,0.26474,1.01499
148.248,21.55772,0.00968661,0.26248,1.0149
148.848,21.6148,0.00966007,0.26461,1.0148
149.448,21.67226,0.00902178,0.26393,1.0147
150.048,21.72963,0.008349742,0.26548,1.0146
150.648,21.78722,0.009690208,0.26579,1.0145
151.248,21.8444,0.009670052,0.26793,1.0144
151.848,21.9016,0.009717241,0.26725,1.0143
152.448,21.95869,0.00834996,0.26731,1.0142
153.048,22.0158,0.008351839,0.26936,1.01409
153.648,22.073,0.009667321,0.26953,1.01399
154.248,22.13029,0.009660209,0.26928,1.01389
154.848,22.18758,0.01090935,0.26811,1.01379
155.448,22.24469,0.009663668,0.26907,1.01368
156.048,22.30169,0.00833831,0.26963,1.01358
156.648,22.3586,0.009660108,0.26895,1.01348
157.248,22.4157,0.008335327,0.26878,1.01337
157.848,22.47302,0.008526947,0.26968,1.01327
158.448,22.53049,0.0096568,0.26942,1.01316
159.048,22.58775,0.007811052,0.26872,1.01306
159.648,22.64506,0.00839183,0.27042,1.01295
160.248,22.70231,0.00835389,0.26935,1.01285
160.848,22.75941,0.00900617,0.26726,1.01274
161.448,22.81648,0.008999968,0.26762,1.01263
162.048,22.87345,0.0090059,0.26911,1.01253
162.648,22.9306,0.00966122,0.27122,1.01242
163.248,22.98787,0.009662206,0.2716,1.01231
163.848,23.0452,0.008016574,0.27081,1.0122
164.448,23.1024,0.00834647,0.26883,1.01209
165.048,23.15953,0.008340009,0.27089,1.01198
165.648,23.21644,0.009441833,0.26999,1.01187
166.248,23.27344,0.009648081,0.2698,1.01177
166.848,23.33065,0.008337551,0.27103,1.01165
167.448,23.38792,0.008340001,0.27105,1.01154
168.048,23.44515,0.00834,0.27138,1.01143
168.648,23.5026,0.008339978,0.27113,1.01132
169.248,23.55954,0.00833428,0.27095,1.01121
169.848,23.6164,0.008346543,0.27039,1.0111
170.448,23.67352,0.008351651,0.27014,1.01098
171.048,23.73045,0.009663829,0.27136,1.01087
171.648,23.7877,0.008396286,0.27213,1.01076
172.248,23.84471,0.008340063,0.27201,1.01064
172.848,23.90173,0.00834,0.27275,1.01053
173.448,23.9588,0.008340064,0.27364,1.01042
174.048,24.01594,0.00740096,0.27371,1.0103
174.648,24.07305,0.00727524,0.27321,1.01018
175.248,24.13007,0.008669779,0.27189,1.01007
175.848,24.18706,0.007436501,0.27407,1.00995
176.448,24.2442,0.00734341,0.27216,1.00984
177.048,24.30143,0.008684141,0.27337,1.00972
177.648,24.35853,0.008340075,0.27138,1.0096
178.248,24.41554,0.008340267,0.27102,1.00948
178.848,24.4723,0.0074254,0.27266,1.00936
179.448,24.52925,0.00834261,0.27354,1.00925
180.048,24.58634,0.006975023,0.27371,1.00913
180.648,24.64345,0.007029963,0.2741,1.00901
181.248,24.7008,0.007027816,0.27309,1.00889
181.848,24.75775,0.008341524,0.27091,1.00877
182.448,24.81484,0.008325983,0.27169,1.00865
183.048,24.87167,0.008323178,0.27103,1.00852
183.648,24.92863,0.008350004,0.27342,1.0084
184.248,24.98556,0.008349999,0.27064,1.00828
184.848,25.04266,0.008349178,0.27211,1.00816
185.448,25.09959,0.00735612,0.2724,1.00804
186.048,25.15664,0.007102506,0.27245,1.00791
186.648,25.21354,0.007026292,0.27199,1.00779
187.248,25.27037,0.00800776,0.27221,1.00766
187.848,25.3274,0.008011923,0.27197,1.00754
188.448,25.3841,0.007677645,0.2717,1.00741
189.048,25.44087,0.007715058,0.27242,1.00729
189.648,25.49769,0.006690574,0.27525,1.00716
190.248,25.55482,0.00668819,0.27333,1.00704
190.848,25.61185,0.004717973,0.27168,1.00691
191.448,25.6689,0.003914922,0.27385,1.00678
192.048,25.7259,0.005810856,0.27261,1.00665
192.648,25.7827,0.005819945,0.27272,1.00653
193.248,25.83991,0.005794692,0.27213,1.0064
193.848,25.89684,0.004502116,0.2723,1.00627
194.448,25.95384,0.006278822,0.27373,1.00614
195.048,26.01078,0.01032996,0.27486,1.00601
195.648,26.06779,0.00691625,0.27535,1.00588
196.248,26.12464,0.00658784,0.27532,1.00575
196.848,26.18165,0.004609959,0.27493,1.00562
197.448,26.2386,0.004609723,0.27434,1.00549
198.048,26.29563,0.00365985,0.27508,1.00535
198.648,26.35261,0.004600649,0.27585,1.00522
199.248,26.4097,0.0046101,0.27756,1.00509
199.848,26.4667,0.003589477,0.2763,1.00495
200.448,26.52358,0.003619977,0.2764,1.00482
201.048,26.58042,0.00362,0.27887,1.00469
201.648,26.63727,0.00362,0.27771,1.00455
202.248,26.6942,0.00362,0.27939,1.00442
202.848,26.7515,0.003615705,0.27997,1.00428
203.448,26.8082,0.003289588,0.27983,1.00414
204.048,26.8651,0.002330269,0.28161,1.00401
204.648,26.92213,0.001982307,0.28189,1.00387
205.248,26.97905,0.0006589784,0.28234,1.00373
205.848,27.03608,0.001840587,0.2817,1.0036
206.448,27.09308,0.001994915,0.28259,1.00346
207.048,27.15018,0.002266437,0.28211,1.00332
207.648,27.2073,0.001294411,0.28474,1.00318
208.248,27.26431,0.001319976,0.28443,1.00304
208.848,27.3214,0.00132,0.28363,1.0029
209.448,27.37852,0.00132,0.28514,1.00276
210.048,27.43572,0.001319997,0.28579,1.00262
210.648,27.493,0.001312979,0.28492,1.00248
211.248,27.55,0.0006465904,0.28657,1.00233
211.848,27.6069,-0.0006629471,0.28681,1.00219
212.448,27.66375,-0.001173231,0.28686,1.00205
213.048,27.7205,-0.00131998,0.28765,1.00191
213.648,27.77753,-0.00132005,0.2879,1.00176
214.248,27.8346,-0.001615095,0.28683,1.00162
214.848,27.8916,-0.003208061,0.28805,1.00147
215.448,27.9486,-0.003960049,0.28983,1.00133
216.048,28.00562,-0.00396,0.28862,1.00118
216.648,28.0625,-0.00396,0.2904,1.00103
217.248,28.1196,-0.00396,0.29141,1.00089
217.848,28.17667,-0.00396,0.29431,1.00074
218.448,28.23382,-0.00396,0.29456,1.00059
219.048,28.2907,-0.003960039,0.29604,1.00044
219.648,28.34729,-0.00388534,0.29724,1.0003
220.248,28.4044,-0.006668625,0.29663,1.00015
220.848,28.46132,-0.00668141,0.29802,1.0
221.448,28.51878,-0.008890425,0.29771,0.99985
222.048,28.57579,-0.008890002,0.29864,0.9997
222.648,28.6326,-0.008889991,0.2993,0.99955
223.248,28.6897,-0.008886992,0.30209,0.99939
223.848,28.7467,-0.009688066,0.3007,0.99924
224.448,28.804,-0.01186,0.30485,0.99909
225.048,28.86065,-0.01320115,0.30536,0.99894
225.648,28.9178,-0.01262054,0.30689,0.99878
226.248,28.97475,-0.01398503,0.3082,0.99863
226.848,29.03166,-0.01391431,0.31019,0.99848
227.448,29.0887,-0.01526028,0.31031,0.99832
228.048,29.1455,-0.01528607,0.31319,0.99816
228.648,29.2026,-0.0165805,0.31704,0.99801
229.248,29.2597,-0.01657996,0.31491,0.99785
229.848,29.3167,-0.01795341,0.31638,0.9977
230.448,29.37329,-0.02021124,0.3181,0.99754
231.048,29.43031,-0.02019979,0.3213,0.99738
231.648,29.48722,-0.01896868,0.32289,0.99722
232.248,29.5443,-0.01940591,0.32467,0.99706
232.848,29.6017,-0.02362065,0.32793,0.9969
233.448,29.6585,-0.02734842,0.33123,0.99674
234.048,29.7156,-0.02734002,0.33113,0.99658
234.648,29.7724,-0.02734009,0.33537,0.99642
235.248,29.82927,-0.02734585,0.33687,0.99626
235.848,29.8864,-0.028651,0.33938,0.9961
236.448,29.94326,-0.03031196,0.34349,0.99594
237.048,30.00055,-0.03170923,0.34651,0.99577
237.648,30.05728,-0.03285489,0.34794,0.99561
238.248,30.11438,-0.03565803,0.35007,0.99545
238.848,30.1716,-0.03685778,0.35196,0.99528
239.448,30.22857,-0.0381973,0.35657,0.99512
240.048,30.2859,-0.03822585,0.35884,0.99495
240.648,30.34289,-0.03944764,0.36411,0.99479
241.248,30.39968,-0.04187117,0.36806,0.99462
241.848,30.45662,-0.04345075,0.36923,0.99445
242.448,30.51363,-0.0447897,0.3755,0.99429
243.048,30.57057,-0.0462308,0.37672,0.99412
243.648,30.62779,-0.0485058,0.38032,0.99395
244.248,30.6851,-0.05047524,0.38372,0.99378
244.848,30.74209,-0.05169255,0.38685,0.99361
245.448,30.79921,-0.05302994,0.39232,0.99344
246.048,30.8563,-0.05564332,0.39697,0.99327
246.648,30.9133,-0.05833157,0.40225,0.9931
247.248,30.97038,-0.06015204,0.40712,0.99293
247.848,31.02729,-0.06317229,0.40971,0.99276
248.448,31.08432,-0.06445054,0.41449,0.99258
249.048,31.1414,-0.06584827,0.41912,0.99241
249.648,31.19857,-0.06859541,0.427,0.99224
250.248,31.25576,-0.06999276,0.43206,0.99206
250.848,31.31302,-0.07285898,0.43619,0.99189
251.448,31.37015,-0.07591289,0.44166,0.99171
252.048,31.4273,-0.07846043,0.44524,0.99154
252.648,31.4846,-0.08039506,0.45148,0.99136
253.248,31.54188,-0.08167022,0.4571,0.99118
253.848,31.599,-0.08231438,0.46188,0.99101
254.448,31.6563,-0.08825004,0.46926,0.99083
255.048,31.7135,-0.09286371,0.47383,0.99065
255.648,31.77089,-0.09434215,0.48009,0.99047
256.248,31.82804,-0.09662534,0.48473,0.99029
256.848,31.88522,-0.09951908,0.49269,0.99011
257.448,31.9421,-0.10234,0.49878,0.98993
258.048,31.9994,-0.10529,0.50383,0.98975
258.648,32.05672,-0.10855,0.51101,0.98957
259.248,32.1141,-0.11102,0.5204,0.98939
259.848,32.1715,-0.11412,0.52744,0.9892
260.448,32.22867,-0.11853,0.5309,0.98902
261.048,32.28585,-0.1212,0.54075,0.98884
261.648,32.3429,-0.12497,0.54872,0.98865
262.248,32.40023,-0.12905,0.5555,0.98847
262.848,32.45722,-0.13275,0.56477,0.98828
263.448,32.5144,-0.13649,0.57413,0.9881
264.048,32.5715,-0.14005,0.58039,0.98791
264.648,32.62878,-0.14245,0.58821,0.98772
265.248,32.68608,-0.14766,0.59854,0.98753
265.848,32.74327,-0.15156,0.60799,0.98735
266.448,32.8007,-0.15524,0.6166,0.98716
267.048,32.85794,-0.15996,0.62653,0.98697
267.648,32.9152,-0.16391,0.63508,0.98678
268.248,32.97269,-0.16878,0.64621,0.98659
268.848,33.02991,-0.17306,0.65753,0.9864
269.448,33.0873,-0.1784,0.66499,0.98621
270.048,33.1447,-0.1844,0.67814,0.98601
270.648,33.20198,-0.1896,0.68903,0.98582
271.248,33.25936,-0.19379,0.70123,0.98563
271.848,33.31677,-0.19877,0.71311,0.98544
272.448,33.37403,-0.20419,0.72388,0.98524
273.048,33.43132,-0.20993,0.73657,0.98505
273.648,33.48883,-0.21603,0.74901,0.98485
274.248,33.54589,-0.22028,0.76149,0.98466
274.848,33.60329,-0.22627,0.7727,0.98446
275.448,33.66072,-0.23289,0.78592,0.98426
276.048,33.718,-0.23853,0.80097,0.98407
276.648,33.77579,-0.24451,0.81201,0.98387
277.248,33.83319,-0.25152,0.8253,0.98367
277.848,33.89072,-0.25868,0.8364,0.98347
278.448,33.9482,-0.26557,0.85201,0.98327
279.048,34.00567,-0.27242,0.86492,0.98307
279.648,34.06324,-0.27929,0.87803,0.98287
280.248,34.12075,-0.28658,0.89049,0.98267
280.848,34.17843,-0.2939,0.9057,0.98247
281.448,34.2359,-0.3019,0.9195,0.98226
282.048,34.29352,-0.30988,0.93069,0.98206
282.648,34.35106,-0.31802,0.94561,0.98186
283.248,34.4086,-0.32485,0.9621,0.98165
283.848,34.46615,-0.33381,0.97796,0.98145
284.448,34.5237,-0.34225,0.99571,0.98124
285.048,34.58123,-0.35093,1.01256,0.98104
285.648,34.63868,-0.36119,1.02826,0.98083
286.248,34.69642,-0.36987,1.04892,0.98062
286.848,34.75417,-0.37961,1.06681,0.98041
287.448,34.81194,-0.38974,1.08732,0.98021
288.048,34.8696,-0.40033,1.10535,0.98
288.648,34.92725,-0.41014,1.12606,0.97979
289.248,34.9848,-0.42031,1.14391,0.97958
289.848,35.04251,-0.43151,1.16296,0.97937
290.448,35.10008,-0.44166,1.18407,0.97916
291.048,35.15772,-0.4551,1.20294,0.97894
291.648,35.21535,-0.46689,1.22349,0.97873
292.248,35.2729,-0.47771,1.24006,0.97852
292.848,35.33062,-0.48982,1.24497,0.97831
293.448,35.3883,-0.50279,1.26772,0.97809
294.048,35.44616,-0.51579,1.29299,0.97788
294.648,35.50418,-0.52842,1.31406,0.97766
295.248,35.5621,-0.53868,1.33317,0.97745
295.848,35.62015,-0.55341,1.35809,0.97723
296.448,35.67797,-0.57185,1.37987,0.97701
297.048,35.73604,-0.58515,1.40027,0.97679
297.648,35.7938,-0.599,1.42127,0.97658
298.248,35.8514,-0.61254,1.44099,0.97636
298.848,35.9092,-0.62742,1.46076,0.97614
299.448,35.967,-0.64316,1.48103,0.97592
300.048,36.0249,-0.65924,1.49968,0.9757
300.648,36.08283,-0.67422,1.51989,0.97548
301.248,36.14047,-0.69003,1.53548,0.97526
301.848,36.1982,-0.70594,1.55111,0.97503
302.448,36.25597,-0.72403,1.56333,0.97481
303.048,36.31391,-0.73991,1.57385,0.97459
303.648,36.372,-0.75601,1.58114,0.97436
304.248,36.43011,-0.77367,1.586,0.97414
304.848,36.4878,-0.78962,1.58525,0.97391
305.448,36.54549,-0.80825,1.58023,0.97369
306.048,36.60311,-0.82352,1.57262,0.97346
306.648,36.66067,-0.84104,1.55356,0.97323
307.248,36.71845,-0.85791,1.52902,0.97301
307.848,36.7759,-0.87365,1.49242,0.97278
308.448,36.83336,-0.88974,1.44595,0.97255
309.048,36.89076,-0.90481,1.39489,0.97232
309.648,36.94826,-0.92061,1.33761,0.97209
310.248,37.00568,-0.93476,1.28246,0.97186
310.848,37.06297,-0.94901,1.22548,0.97163
311.448,37.1203,-0.9627,1.16455,0.9714
312.048,37.17752,-0.97533,1.0997,0.97116
312.648,37.2349,-0.98879,1.04336,0.97093
313.248,37.29227,-0.99927,0.986,0.9707
313.848,37.34959,-1.011,0.93349,0.97046
314.448,37.40674,-1.02147,0.87831,0.97023
315.048,37.46386,-1.03195,0.81484,0.96999
315.648,37.52101,-1.03993,0.76017,0.96976
316.248,37.57826,-1.0514,0.7071,0.96952
316.848,37.63558,-1.05769,0.65995,0.96928
317.448,37.6928,-1.0645,0.62191,0.96904
318.048,37.75011,-1.07551,0.58364,0.96881
318.648,37.8074,-1.08418,0.55421,0.96857
319.248,37.86452,-1.08991,0.52446,0.96833
319.848,37.92168,-1.09778,0.49981,0.96809
320.448,37.97902,-1.10428,0.47899,0.96785
321.048,38.03628,-1.11127,0.4603,0.9676
321.648,38.0938,-1.11766,0.43827,0.96736
322.248,38.1511,-1.12348,0.42454,0.96712
322.848,38.20844,-1.12859,0.40871,0.96687
323.448,38.2658,-1.1342,0.39868,0.96663
324.048,38.32338,-1.14087,0.38332,0.96639
324.648,38.38086,-1.14691,0.37296,0.96614
325.248,38.43833,-1.15405,0.36173,0.96589
325.848,38.49577,-1.15843,0.35041,0.96565
326.448,38.55355,-1.16404,0.34318,0.9654
327.048,38.61124,-1.1693,0.33222,0.96515
327.648,38.66908,-1.17456,0.32208,0.9649
328.248,38.7263,-1.17789,0.31597,0.96466
328.848,38.78379,-1.18229,0.30756,0.96441
329.448,38.8414,-1.1881,0.29883,0.96416
330.048,38.899,-1.19343,0.29402,0.96391
330.648,38.95685,-1.19837,0.28875,0.96365
331.248,39.01475,-1.20348,0.28057,0.9634
331.848,39.07208,-1.20701,0.27443,0.96315
332.448,39.13023,-1.21155,0.27022,0.9629
333.048,39.1879,-1.21683,0.2647,0.96264
333.648,39.24568,-1.22003,0.25971,0.96239
334.248,39.30379,-1.22366,0.25568,0.96213
334.848,39.36155,-1.22874,0.25078,0.96188
335.448,39.41961,-1.23257,0.2472,0.96162
336.048,39.4777,-1.23685,0.24403,0.96136
336.648,39.5357,-1.24197,0.24227,0.9611
337.248,39.59362,-1.24615,0.2381,0.96085
337.848,39.65103,-1.25006,0.23655,0.96059
338.448,39.70881,-1.25577,0.23475,0.96033
339.048,39.7667,-1.26035,0.23351,0.96007
339.648,39.8248,-1.26541,0.23367,0.95981
340.248,39.88297,-1.26988,0.23307,0.95954
340.848,39.94093,-1.27498,0.23315,0.95928
341.448,39.9989,-1.27938,0.23263,0.95902
342.048,40.05668,-1.28388,0.23373,0.95876
342.648,40.11463,-1.2876,0.23475,0.95849
343.248,40.17256,-1.29385,0.23628,0.95823
343.848,40.23038,-1.29684,0.23535,0.95796
344.448,40.28825,-1.30328,0.23819,0.95769
345.048,40.34621,-1.31012,0.24172,0.95743
345.648,40.40398,-1.31594,0.24412,0.95716
346.248,40.4619,-1.32099,0.24547,0.95689
346.848,40.51967,-1.326,0.24898,0.95662
347.448,40.57767,-1.3324,0.25193,0.95635
348.048,40.63568,-1.33763,0.25368,0.95608
348.648,40.69359,-1.34446,0.26155,0.95581
349.248,40.75152,-1.35134,0.26284,0.95554
349.848,40.80944,-1.35826,0.27032,0.95527
350.448,40.86728,-1.36464,0.27468,0.955
351.048,40.92555,-1.37311,0.28171,0.95473
351.648,40.98345,-1.38089,0.2891,0.95445
352.248,41.0415,-1.3899,0.29312,0.95418
352.848,41.09963,-1.39913,0.29992,0.9539
353.448,41.15791,-1.40875,0.3068,0.95363
354.048,41.21609,-1.41842,0.31757,0.95335
354.648,41.27432,-1.42783,0.32397,0.95307
355.248,41.33222,-1.43763,0.33093,0.9528
355.848,41.3903,-1.44774,0.33902,0.95252
356.448,41.44829,-1.45833,0.34777,0.95224
357.048,41.50642,-1.47013,0.35759,0.95196
357.648,41.5646,-1.48166,0.36638,0.95168
358.248,41.62274,-1.49429,0.37731,0.9514
358.848,41.68087,-1.50594,0.39023,0.95112
359.448,41.7391,-1.51949,0.39795,0.95083
360.048,41.79728,-1.5349,0.40951,0.95055
360.648,41.8555,-1.54853,0.41906,0.95027
361.248,41.9138,-1.56428,0.43351,0.94998
361.848,41.97169,-1.5795,0.44357,0.9497
362.448,42.0299,-1.59574,0.45462,0.94941
363.048,42.08783,-1.61403,0.46462,0.94913
363.648,42.14617,-1.63096,0.4792,0.94884
364.248,42.20463,-1.65027,0.4898,0.94855
364.848,42.2629,-1.66706,0.5036,0.94826
365.448,42.32145,-1.68856,0.51692,0.94798
366.048,42.37972,-1.70896,0.52845,0.94769
366.648,42.438,-1.73049,0.54044,0.9474
367.248,42.49635,-1.74993,0.55163,0.94711
367.848,42.55417,-1.77411,0.56467,0.94681
368.448,42.61241,-1.79724,0.57937,0.94652
369.048,42.67058,-1.82112,0.59005,0.94623
369.648,42.72854,-1.84392,0.60132,0.94594
370.248,42.7869,-1.86914,0.61086,0.94564
370.848,42.84535,-1.89543,0.62426,0.94535
371.448,42.9037,-1.92166,0.63552,0.94505
372.048,42.9626,-1.95216,0.64356,0.94476
372.648,43.02087,-1.97924,0.65444,0.94446
373.248,43.07913,-2.00934,0.6648,0.94416
373.848,43.13751,-2.03569,0.6738,0.94386
374.448,43.1957,-2.06597,0.68186,0.94357
375.048,43.25395,-2.10055,0.68999,0.94327
375.648,43.3123,-2.13278,0.70018,0.94297
376.248,43.37073,-2.16381,0.70513,0.94267
376.848,43.4292,-2.19645,0.71208,0.94236
377.448,43.48761,-2.23001,0.71578,0.94206
378.048,43.54603,-2.26329,0.71729,0.94176
378.648,43.60447,-2.29776,0.72202,0.94146
379.248,43.66285,-2.33025,0.72401,0.94115
379.848,43.7211,-2.3678,0.72689,0.94085
380.448,43.77947,-2.40169,0.72371,0.94054
381.048,43.8379,-2.43898,0.72328,0.94024
381.648,43.89646,-2.47198,0.72099,0.93993
382.248,43.95493,-2.50871,0.71929,0.93962
382.848,44.01327,-2.54354,0.71404,0.93932
383.448,44.07136,-2.58043,0.70738,0.93901
384.048,44.1295,-2.61455,0.70064,0.9387
384.648,44.18773,-2.65052,0.69217,0.93839
385.248,44.2462,-2.68568,0.68279,0.93808
385.848,44.30467,-2.72085,0.67471,0.93777
386.448,44.363,-2.75727,0.66319,0.93745
387.048,44.4214,-2.79063,0.65204,0.93714
387.648,44.4797,-2.82676,0.6407,0.93683
388.248,44.5376,-2.85822,0.62506,0.93651
388.848,44.59601,-2.89142,0.61021,0.9362
389.448,44.65425,-2.92471,0.59832,0.93588
390.048,44.71301,-2.95676,0.58258,0.93557
390.648,44.77173,-2.98774,0.56693,0.93525
391.248,44.83021,-3.01882,0.55223,0.93493
391.848,44.88861,-3.04889,0.53399,0.93462
392.448,44.94683,-3.07785,0.51947,0.9343
393.048,45.0051,-3.10638,0.50172,0.93398
393.648,45.06305,-3.13238,0.48716,0.93366
394.248,45.12147,-3.15963,0.46857,0.93334
394.848,45.17957,-3.18413,0.45272,0.93302
395.448,45.23791,-3.21338,0.43806,0.93269
396.048,45.2966,-3.23614,0.42268,0.93237
396.648,45.35522,-3.26008,0.40643,0.93205
397.248,45.41369,-3.28196,0.38929,0.93172
397.848,45.47235,-3.30433,0.37389,0.9314
398.448,45.53082,-3.32371,0.35687,0.93107
399.048,45.58919,-3.34312,0.3434,0.93075
399.648,45.64761,-3.36183,0.32731,0.93042
400.248,45.7059,-3.37979,0.31452,0.93009
400.848,45.76406,-3.39761,0.30434,0.92976
401.448,45.82248,-3.4137,0.29045,0.92944
402.048,45.88097,-3.42939,0.27705,0.92911
402.648,45.93943,-3.44486,0.26612,0.92878
403.248,45.99801,-3.45975,0.25279,0.92845
403.848,46.0565,-3.47282,0.24266,0.92811
404.448,46.1149,-3.4861,0.23586,0.92778
405.048,46.1734,-3.4969,0.22334,0.92745
405.648,46.2318,-3.5077,0.21452,0.92712
406.248,46.29027,-3.52004,0.206,0.92678
406.848,46.34875,-3.53103,0.19746,0.92645
407.448,46.40708,-3.53895,0.19174,0.92611
408.048,46.46548,-3.54859,0.18436,0.92577
408.648,46.52389,-3.55664,0.17887,0.92544
409.248,46.58231,-3.56423,0.16973,0.9251
409.848,46.64042,-3.57213,0.16457,0.92476
410.448,46.69894,-3.58055,0.15842,0.92442
411.048,46.75743,-3.58656,0.15257,0.92408
411.648,46.81584,-3.59364,0.14822,0.92374
412.248,46.87445,-3.5995,0.14327,0.9234
412.848,46.93284,-3.6039,0.13939,0.92306
413.448,46.99142,-3.60895,0.13543,0.92272
414.048,47.04992,-3.6142,0.13054,0.92237
414.648,47.1083,-3.61782,0.12627,0.92203
415.248,47.16665,-3.62292,0.1227,0.92169
415.848,47.22482,-3.62659,0.11616,0.92134
416.448,47.28313,-3.63189,0.1135,0.92099
417.048,47.3416,-3.63478,0.11005,0.92065
417.648,47.40002,-3.63882,0.1086,0.9203
418.248,47.45824,-3.64083,0.10629,0.91995
418.848,47.5169,-3.6438,0.10261,0.9196
419.448,47.57527,-3.64604,0.10054,0.91926
420.048,47.634,-3.64823,0.09831638,0.91891
420.648,47.6926,-3.6515,0.09541104,0.91855
421.248,47.7511,-3.65366,0.09569923,0.9182
421.848,47.80958,-3.65566,0.09149555,0.91785
422.448,47.86796,-3.65695,0.0900821,0.9175
423.048,47.9265,-3.65982,0.09054086,0.91715
423.648,47.98506,-3.66111,0.08771043,0.91679
424.248,48.0435,-3.66263,0.08644163,0.91644
424.848,48.10219,-3.66401,0.08581028,0.91608
425.448,48.16068,-3.66527,0.08486857,0.91572
426.048,48.21928,-3.66631,0.08459675,0.91537
426.648,48.27793,-3.66763,0.08230491,0.91501
427.248,48.3365,-3.66883,0.08079794,0.91465
427.848,48.39492,-3.66904,0.07987207,0.91429
428.448,48.45367,-3.67027,0.08010992,0.91393
429.048,48.51218,-3.67167,0.0823115,0.91357
429.648,48.57083,-3.67116,0.0794938,0.91321
430.248,48.62934,-3.67158,0.079155,0.91285
430.848,48.68765,-3.67289,0.08034475,0.91249
431.448,48.7461,-3.67289,0.07987299,0.91213
432.048,48.80464,-3.67513,0.07941164,0.91176
432.648,48.8632,-3.67554,0.08086213,0.9114
433.248,48.92187,-3.67575,0.08032525,0.91103
433.848,48.98084,-3.67784,0.07964772,0.91067
434.448,49.03958,-3.67718,0.07938188,0.9103
435.048,49.09814,-3.67713,0.07940436,0.90993
435.648,49.15664,-3.6785,0.07892276,0.90957
436.248,49.2151,-3.6785,0.07816905,0.9092
436.848,49.2737,-3.67979,0.07872025,0.90883
437.448,49.33217,-3.67982,0.07941318,0.90846
438.048,49.39072,-3.6806,0.07879983,0.90809
438.648,49.44931,-3.68113,0.07809862,0.90772
439.248,49.508,-3.68169,0.07884334,0.90734
439.848,49.567,-3.68241,0.07924427,0.90697
440.448,49.6256,-3.68246,0.08118618,0.9066
441.048,49.6843,-3.68245,0.08023817,0.90622
441.648,49.743,-3.68245,0.07911458,0.90585
442.248,49.80151,-3.68238,0.07968832,0.90547
442.848,49.86022,-3.68345,0.07810601,0.9051
443.448,49.9189,-3.68278,0.08028638,0.90472
444.048,49.9773,-3.68277,0.08055592,0.90434
444.648,50.03589,-3.68413,0.07865559,0.90397
445.248,50.09463,-3.6841,0.07933856,0.90359
445.848,50.15333,-3.6841,0.07749102,0.90321
446.448,50.2124,-3.6841,0.07668883,0.90283
447.048,50.27124,-3.68514,0.07914488,0.90245
447.648,50.33005,-3.68511,0.07703154,0.90207
448.248,50.38896,-3.68443,0.07777495,0.90168
448.848,50.44782,-3.68443,0.07881839,0.9013
449.448,50.5067,-3.68517,0.07644898,0.90092
450.048,50.56538,-3.68634,0.07770938,0.90053
450.648,50.62415,-3.68711,0.07633297,0.90015
451.248,50.68291,-3.68574,0.07701314,0.89976
451.848,50.7416,-3.68706,0.0764846,0.89938
452.448,50.8005,-3.68838,0.07562382,0.89899
453.048,50.85931,-3.68838,0.07503992,0.8986
453.648,50.91793,-3.68838,0.07529505,0.89821
454.248,50.97688,-3.68706,0.07605565,0.89782
454.848,51.03585,-3.68838,0.07401487,0.89743
455.448,51.09509,-3.68838,0.07473071,0.89704
456.048,51.15423,-3.68838,0.07331473,0.89665
456.648,51.21332,-3.68838,0.07263736,0.89626
457.248,51.27232,-3.68838,0.07224736,0.89587
457.848,51.3312,-3.68951,0.07267541,0.89547
458.448,51.39008,-3.6897,0.07412195,0.89508
459.048,51.44867,-3.6897,0.0728133,0.89469
459.648,51.50762,-3.6897,0.07314908,0.89429
460.248,51.5665,-3.68912,0.07252575,0.89389
460.848,51.6257,-3.69036,0.07370601,0.8935
461.448,51.68463,-3.69068,0.07533531,0.8931
462.048,51.7436,-3.69197,0.07356541,0.8927
462.648,51.80271,-3.692,0.07293896,0.8923
463.248,51.86209,-3.692,0.07526629,0.8919
463.848,51.92119,-3.692,0.07372166,0.8915
464.448,51.98028,-3.6907,0.07423486,0.8911
465.048,52.03945,-3.69069,0.07179121,0.8907
465.648,52.09834,-3.6907,0.07226009,0.8903
466.248,52.1573,-3.69266,0.07092721,0.8899
466.848,52.21649,-3.69267,0.07211347,0.88949
467.448,52.27579,-3.69299,0.07257279,0.88909
468.048,52.33486,-3.69299,0.0752669,0.88868
468.648,52.39395,-3.69305,0.07356524,0.88828
469.248,52.45285,-3.69431,0.07121945,0.88787
469.848,52.51203,-3.69562,0.07281205,0.88746
470.448,52.571,-3.69562,0.07261839,0.88706
471.048,52.6301,-3.69431,0.07126958,0.88665
471.648,52.68916,-3.69431,0.0719566,0.88624
472.248,52.7482,-3.69431,0.07181089,0.88583
472.848,52.8073,-3.693,0.07157128,0.88542
473.448,52.86651,-3.693,0.06927117,0.88501
474.048,52.92567,-3.69409,0.07074129,0.8846
474.648,52.9846,-3.69442,0.07078187,0.88418
475.248,53.04365,-3.69442,0.07082118,0.88377
475.848,53.1027,-3.69575,0.07035169,0.88336
476.448,53.16191,-3.69574,0.07151381,0.88294
477.048,53.2212,-3.69574,0.0700867,0.88253
477.648,53.2804,-3.69577,0.07200957,0.88211
478.248,53.3397,-3.69706,0.07121386,0.88169
478.848,53.39878,-3.69706,0.07033791,0.88128
479.448,53.45802,-3.69705,0.07052604,0.88086
480.048,53.517,-3.69787,0.07276208,0.88044
480.648,53.57604,-3.69673,0.07142275,0.88002
481.248,53.6352,-3.69678,0.07031212,0.8796
481.848,53.6946,-3.69631,0.07000767,0.87918
482.448,53.75396,-3.69772,0.07280547,0.87876
483.048,53.8131,-3.69893,0.07360642,0.87834
483.648,53.87236,-3.69888,0.07572712,0.87791
484.248,53.93155,-3.69771,0.07313078,0.87749
484.848,53.99069,-3.69772,0.07471513,0.87707
485.448,54.04971,-3.69903,0.07276558,0.87664
486.048,54.10889,-3.69903,0.07387712,0.87622
486.648,54.1681,-3.70003,0.07469125,0.87579
487.248,54.22749,-3.70002,0.07709077,0.87536
487.848,54.2865,-3.70002,0.07860574,0.87494
488.448,54.3458,-3.70003,0.07735259,0.87451
489.048,54.4051,-3.70033,0.07725627,0.87408
489.648,54.46396,-3.69927,0.07612903,0.87365
490.248,54.5233,-3.70067,0.07701495,0.87322
490.848,54.58245,-3.70067,0.07792128,0.87279
491.448,54.6417,-3.70067,0.07722501,0.87236
492.048,54.70114,-3.70067,0.07840853,0.87193
492.648,54.76027,-3.70067,0.0780169,0.87149
493.248,54.81935,-3.70199,0.07720978,0.87106
493.848,54.87822,-3.70199,0.07806307,0.87062
494.448,54.93736,-3.70199,0.07966457,0.87019
495.048,54.9967,-3.70199,0.07894126,0.86975
495.648,55.05602,-3.70212,0.07765983,0.86932
496.248,55.1156,-3.70331,0.07674029,0.86888
496.848,55.17484,-3.7033,0.07821892,0.86844
497.448,55.2338,-3.70463,0.07630359,0.868
498.048,55.29296,-3.70463,0.07906011,0.86757
498.648,55.35205,-3.70463,0.07687487,0.86713
499.248,55.4112,-3.70431,0.07912794,0.86669
499.848,55.47051,-3.7043,0.07849587,0.86624
500.448,55.5298,-3.7043,0.07618068,0.8658
501.048,55.589,-3.7043,0.07924692,0.86536
501.648,55.6483,-3.7043,0.07731145,0.86492
502.248,55.7074,-3.70299,0.07754872,0.86447
502.848,55.7667,-3.70299,0.07582915,0.86403
503.448,55.82578,-3.70429,0.07751067,0.86358
504.048,55.88505,-3.7043,0.07632679,0.86314
504.648,55.94432,-3.7043,0.0772759,0.86269
505.248,56.0035,-3.70531,0.07792851,0.86224
505.848,56.0627,-3.70562,0.07864678,0.8618
506.448,56.1218,-3.70562,0.07958182,0.86135
507.048,56.18079,-3.70514,0.07960533,0.8609
507.648,56.24,-3.70304,0.07906447,0.86045
508.248,56.29935,-3.70562,0.07952365,0.86
508.848,56.35856,-3.70561,0.08043709,0.85955
509.448,56.4175,-3.70496,0.07988595,0.8591
510.048,56.4767,-3.70541,0.07981241,0.85864
510.648,56.536,-3.70629,0.07875932,0.85819
511.248,56.59539,-3.7076,0.08000558,0.85774
511.848,56.655,-3.7076,0.07915358,0.85728
512.448,56.7143,-3.7076,0.08056432,0.85683
513.048,56.77384,-3.7076,0.07935265,0.85637
513.648,56.83339,-3.7076,0.07961989,0.85591
514.248,56.8929,-3.7076,0.08140311,0.85546
514.848,56.95219,-3.70754,0.0809826,0.855
515.448,57.01164,-3.70877,0.07971943,0.85454
516.048,57.0709,-3.70825,0.08203659,0.85408
516.648,57.13025,-3.70825,0.08134127,0.85362
517.248,57.1896,-3.70825,0.08292785,0.85316
517.848,57.249,-3.70825,0.08384621,0.8527
518.448,57.3085,-3.70825,0.08189796,0.85224
519.048,57.3678,-3.70854,0.08217193,0.85178
519.648,57.42722,-3.70828,0.08290895,0.85131
520.248,57.4865,-3.70825,0.08260802,0.85085
520.848,57.54596,-3.70957,0.08182576,0.85039
521.448,57.60521,-3.7107,0.08570823,0.84992
522.048,57.66441,-3.71089,0.08442963,0.84945
522.648,57.72395,-3.7098,0.08528803,0.84899
523.248,57.7836,-3.7099,0.08530791,0.84852
523.848,57.84332,-3.7099,0.08680072,0.84805
524.448,57.9027,-3.70958,0.08587487,0.84758
525.048,57.9621,-3.70957,0.08559393,0.84712
525.648,58.02157,-3.70954,0.08686939,0.84665
526.248,58.0815,-3.71066,0.08665108,0.84618
526.848,58.1412,-3.71089,0.08484295,0.8457
527.448,58.2008,-3.71089,0.08502448,0.84523
528.048,58.2603,-3.71153,0.08670315,0.84476
528.648,58.3197,-3.7122,0.08374492,0.84429
529.248,58.3791,-3.7122,0.08334028,0.84381
529.848,58.43866,-3.71088,0.08385034,0.84334
530.448,58.49816,-3.70995,0.08212983,0.84286
531.048,58.5578,-3.71122,0.08231834,0.84239
531.648,58.61684,-3.7099,0.08185282,0.84191
532.248,58.6763,-3.71127,0.08132163,0.84144
532.848,58.73575,-3.71121,0.08153549,0.84096
533.448,58.7953,-3.71121,0.0822563,0.84048
534.048,58.855,-3.71121,0.08064008,0.84
534.648,58.91417,-3.71121,0.08065028,0.83952
535.248,58.97335,-3.71121,0.0803249,0.83904
535.848,59.0328,-3.71122,0.07934681,0.83856
536.448,59.09214,-3.71259,0.07736139,0.83808
537.048,59.15155,-3.71122,0.07550438,0.8376
537.648,59.211,-3.71172,0.07821867,0.83711
538.248,59.2703,-3.71254,0.07748099,0.83663
538.848,59.32982,-3.71254,0.07395943,0.83615
539.448,59.38935,-3.71122,0.07400364,0.83566
540.048,59.4488,-3.71123,0.07503905,0.83518
540.648,59.5082,-3.71215,0.07412088,0.83469
541.248,59.5673,-3.71319,0.07270136,0.8342
541.848,59.62669,-3.71186,0.07094429,0.83372
542.448,59.6861,-3.71221,0.06857756,0.83323
543.048,59.74541,-3.71221,0.07072469,0.83274
543.648,59.80483,-3.71221,0.06944026,0.83225
544.248,59.86413,-3.71227,0.06766522,0.83176
544.848,59.92355,-3.71352,0.06614944,0.83127
545.448,59.9832,-3.7135,0.06409457,0.83078
546.048,60.04244,-3.71221,0.06505435,0.83029
546.648,60.1017,-3.71337,0.06102012,0.8298
547.248,60.16111,-3.71352,0.06141698,0.8293
547.848,60.22059,-3.71462,0.06119777,0.82881
548.448,60.28009,-3.71484,0.05939502,0.82831
549.048,60.3399,-3.71286,0.06028154,0.82782
549.648,60.39935,-3.71286,0.05962162,0.82732
550.248,60.4588,-3.71352,0.05921864,0.82683
550.848,60.51814,-3.71352,0.05699431,0.82633
551.448,60.57745,-3.71352,0.05553648,0.82583
552.048,60.6369,-3.71486,0.05716641,0.82533
552.648,60.69653,-3.71484,0.05472901,0.82484
553.248,60.756,-3.71484,0.05330207,0.82434
553.848,60.8158,-3.71484,0.05102183,0.82384
554.448,60.8753,-3.71484,0.05302123,0.82334
555.048,60.93486,-3.71484,0.05236983,0.82283
555.648,60.9943,-3.71484,0.05184125,0.82233
556.248,61.05384,-3.71343,0.05173159,0.82183
556.848,61.11335,-3.71352,0.05087609,0.82133
557.448,61.1729,-3.71352,0.0484582,0.82082
558.048,61.2322,-3.71352,0.04684809,0.82032
558.648,61.29147,-3.71388,0.04680471,0.81981
559.248,61.3502,-3.71385,0.04787079,0.81931
559.848,61.40955,-3.71385,0.04704699,0.8188
560.448,61.46923,-3.71385,0.04308659,0.81829
561.048,61.5293,-3.71385,0.04498954,0.81779
561.648,61.5889,-3.71385,0.04383202,0.81728
562.248,61.6482,-3.71385,0.04271883,0.81677
562.848,61.7075,-3.71518,0.04050291,0.81626
563.448,61.76679,-3.71516,0.04126851,0.81575
564.048,61.82626,-3.71516,0.03995312,0.81524
564.648,61.88596,-3.71535,0.03685701,0.81473
565.248,61.9454,-3.7155,0.03707123,0.81422
565.848,62.0052,-3.7155,0.03542096,0.8137
566.448,62.0646,-3.71518,0.03439892,0.81319
567.048,62.12412,-3.71488,0.03570148,0.81268
567.648,62.1837,-3.71542,0.03454518,0.81216
568.248,62.2434,-3.71549,0.03440877,0.81165
568.848,62.30308,-3.71613,0.0329997,0.81113
569.448,62.36274,-3.71584,0.03306128,0.81062
570.048,62.4223,-3.71684,0.03220757,0.8101
570.648,62.4817,-3.71681,0.03272271,0.80958
571.248,62.5415,-3.7155,0.02913407,0.80906
571.848,62.60131,-3.7155,0.0273649,0.80854
572.448,62.661,-3.7155,0.02742426,0.80802
573.048,62.7205,-3.7155,0.02367723,0.8075
573.648,62.78,-3.7155,0.02598277,0.80698
574.248,62.8393,-3.7155,0.02338103,0.80646
574.848,62.8989,-3.7155,0.02152956,0.80594
575.448,62.95855,-3.71549,0.01962667,0.80542
576.048,63.01851,-3.71418,0.01892107,0.8049
576.648,63.0783,-3.7155,0.01823588,0.80437
577.248,63.1381,-3.7155,0.0152201,0.80385
577.848,63.1979,-3.71454,0.01499398,0.80332
578.448,63.25767,-3.71606,0.01502372,0.8028
579.048,63.31762,-3.71616,0.01318672,0.80227
579.648,63.3775,-3.71616,0.01257957,0.80175
580.248,63.4371,-3.71616,0.01094729,0.80122
580.848,63.49686,-3.71616,0.00978298,0.80069
581.448,63.55667,-3.71618,0.01049008,0.80016
582.048,63.61651,-3.71682,0.0050209,0.79963
582.648,63.6767,-3.71682,0.006189834,0.7991
583.248,63.73659,-3.71682,0.004247824,0.79857
583.848,63.7964,-3.71685,0.003402011,0.79804
584.448,63.85624,-3.71569,0.00282045,0.79751
585.048,63.9161,-3.71582,0.002173778,0.79698
585.648,63.97595,-3.71584,-0.002614818,0.79645
586.248,64.03574,-3.71681,-0.000656356,0.79591
586.848,64.09549,-3.71681,-0.00295594,0.79538
587.448,64.15513,-3.71677,-0.002680713,0.79485
588.048,64.21497,-3.71714,-0.0002917341,0.79431
588.648,64.27467,-3.71714,-0.00148192,0.79378
589.248,64.33455,-3.71714,-0.004266921,0.79324
589.848,64.39425,-3.71709,-0.004590297,0.7927
590.448,64.45402,-3.71846,-0.00758773,0.79217
591.048,64.514,-3.71709,-0.00821553,0.79163
591.648,64.57393,-3.71714,-0.008683881,0.79109
592.248,64.6336,-3.71712,-0.01077419,0.79055
592.848,64.6932,-3.71516,-0.01131713,0.79001
593.448,64.75295,-3.71518,-0.01067482,0.78947
594.048,64.81294,-3.71649,-0.01321592,0.78893
594.648,64.87295,-3.71651,-0.01385476,0.78839
595.248,64.93279,-3.71747,-0.01406049,0.78785
595.848,64.9924,-3.71749,-0.01563481,0.7873
596.448,65.05199,-3.71877,-0.01552443,0.78676
597.048,65.11151,-3.71748,-0.01617245,0.78622
597.648,65.1712,-3.71748,-0.01742654,0.78567
598.248,65.2309,-3.71616,-0.01693004,0.78513
598.848,65.2907,-3.71623,-0.02068874,0.78458
599.448,65.35028,-3.71648,-0.01960776,0.78404
600.048,65.40981,-3.71649,-0.02292951,0.78349
600.648,65.46964,-3.71719,-0.02291589,0.78294
601.248,65.52922,-3.71781,-0.02018838,0.7824
601.848,65.58919,-3.71781,-0.02513668,0.78185
602.448,65.649,-3.71649,-0.0229568,0.7813
603.048,65.70858,-3.71649,-0.02299045,0.78075
603.648,65.76804,-3.71649,-0.0238331,0.7802
604.248,65.82777,-3.71649,-0.02609352,0.77965
604.848,65.88756,-3.71643,-0.02748602,0.7791
605.448,65.94764,-3.71649,-0.02778635,0.77855
606.048,66.00776,-3.71649,-0.02602868,0.77799
606.648,66.06759,-3.71649,-0.02738412,0.77744
607.248,66.12737,-3.71649,-0.02955828,0.77689
607.848,66.1874,-3.71649,-0.02946566,0.77633
608.448,66.2474,-3.71651,-0.03280932,0.77578
609.048,66.3073,-3.7173,-0.03305884,0.77522
609.648,66.36708,-3.71697,-0.03175225,0.77467
610.248,66.42706,-3.7178,-0.03165271,0.77411
610.848,66.48692,-3.71784,-0.03260892,0.77356
611.448,66.54675,-3.71648,-0.03454261,0.773
612.048,66.60614,-3.71648,-0.03236577,0.77244
612.648,66.66586,-3.71779,-0.0327926,0.77188
613.248,66.72573,-3.7178,-0.03138788,0.77132
613.848,66.786,-3.71911,-0.03592358,0.77076
614.448,66.84573,-3.71912,-0.03484041,0.7702
615.048,66.90556,-3.71923,-0.03825147,0.76964
615.648,66.96537,-3.71682,-0.03505911,0.76908
616.248,67.02529,-3.71682,-0.03417408,0.76852
616.848,67.08504,-3.71682,-0.03343644,0.76796
617.448,67.14488,-3.71682,-0.03495233,0.7674
618.048,67.20489,-3.71822,-0.03712126,0.76683
618.648,67.26477,-3.71814,-0.03918403,0.76627
619.248,67.32469,-3.71814,-0.0424916,0.7657
619.848,67.38458,-3.71817,-0.04228798,0.76514
620.448,67.4448,-3.71781,-0.04441391,0.76457
621.048,67.5048,-3.71781,-0.04981225,0.76401
621.648,67.565,-3.7179,-0.05323973,0.76344
622.248,67.62485,-3.7186,-0.05450825,0.76287
622.848,67.68472,-3.71761,-0.05605122,0.76231
623.448,67.74472,-3.71861,-0.05433884,0.76174
624.048,67.8048,-3.71901,-0.05780499,0.76117
624.648,67.86479,-3.71902,-0.05711538,0.7606
625.248,67.92471,-3.71835,-0.055001,0.76003
625.848,67.98456,-3.71835,-0.05840734,0.75946
626.448,68.0444,-3.71835,-0.059454,0.75889
627.048,68.1043,-3.71835,-0.06022486,0.75832
627.648,68.16424,-3.71835,-0.05883432,0.75775
628.248,68.22413,-3.71835,-0.06194575,0.75717
628.848,68.2839,-3.7186,-0.06377095,0.7566
629.448,68.3437,-3.71967,-0.06395704,0.75603
630.048,68.40347,-3.71894,-0.06524775,0.75545
630.648,68.4633,-3.71904,-0.06796424,0.75488
631.248,68.5234,-3.71967,-0.06920854,0.7543
631.848,68.58361,-3.71968,-0.072136,0.75373
632.448,68.6437,-3.71835,-0.07228602,0.75315
633.048,68.70396,-3.71968,-0.07053654,0.75258
633.648,68.76391,-3.71842,-0.07216982,0.752
634.248,68.82378,-3.71835,-0.07647029,0.75142
634.848,68.8836,-3.71835,-0.07510042,0.75084
635.448,68.94351,-3.71835,-0.07503439,0.75026
636.048,69.00349,-3.71835,-0.07753372,0.74969
636.648,69.0635,-3.71835,-0.07677874,0.74911
637.248,69.12342,-3.71835,-0.08068974,0.74853
637.848,69.18341,-3.71856,-0.07932554,0.74794
638.448,69.24329,-3.71967,-0.0802148,0.74736
639.048,69.30323,-3.71967,-0.08057225,0.74678
639.648,69.36285,-3.71973,-0.08010616,0.7462
640.248,69.4225,-3.71946,-0.079701,0.74562
640.848,69.48231,-3.71934,-0.08001841,0.74503
641.448,69.54214,-3.71934,-0.08268358,0.74445
642.048,69.60211,-3.71934,-0.0852857,0.74387
642.648,69.66197,-3.7197,-0.08516194,0.74328
643.248,69.7217,-3.71967,-0.08251622,0.7427
643.848,69.78155,-3.71881,-0.08581326,0.74211
644.448,69.84153,-3.71921,-0.0834079,0.74152
645.048,69.90146,-3.71967,-0.08437078,0.74094
645.648,69.96119,-3.71835,-0.08549712,0.74035
645.948,69.99126,-3.71871,-0.08770329,0.74006