File: 01_Data/PUF_Mattress_Pad/STA/N2/10K_min/PUF_Mattress_Pad_STA_N2_10KData_22091_R3.csv
##Temp./Â°C,Time/min,Mass loss(subtr.2)/mg,DSC(subtr.2)/(mW/mg),Sensit./(uV/mW)
50.254,10.01,-0.01241,-0.002972018,1.02683
50.654,10.70691,-0.01513483,0.01999088,1.0268
51.054,10.89062,-0.01529111,0.04278818,1.02676
51.454,11.0251,-0.01383592,0.06014487,1.02673
51.854,11.13822,-0.0143513,0.07791702,1.02669
52.254,11.23661,-0.01412436,0.08568515,1.02666
52.654,11.32574,-0.01464768,0.09666269,1.02663
53.054,11.40897,-0.01538505,0.10853,1.02659
53.454,11.48645,-0.01379876,0.11802,1.02656
53.854,11.5611,-0.01420744,0.12477,1.02652
54.254,11.63292,-0.01550699,0.13099,1.02649
54.654,11.70352,-0.01672437,0.13907,1.02645
55.054,11.7704,-0.01503498,0.14463,1.02641
55.454,11.83497,-0.01445003,0.15059,1.02638
55.854,11.898,-0.01372247,0.15562,1.02634
56.254,11.9595,-0.01396236,0.15879,1.02631
56.654,12.01977,-0.01474388,0.16372,1.02627
57.054,12.07955,-0.01588895,0.16833,1.02624
57.454,12.13723,-0.01672323,0.17446,1.0262
57.854,12.19401,-0.01645878,0.17584,1.02616
58.254,12.25005,-0.01659173,0.17975,1.02613
58.654,12.30593,-0.01665527,0.1811,1.02609
59.054,12.36103,-0.01620608,0.18328,1.02606
59.454,12.41605,-0.01682022,0.18703,1.02602
59.854,12.46977,-0.01646491,0.19014,1.02598
60.254,12.52315,-0.01769317,0.19226,1.02595
60.654,12.57605,-0.01662365,0.1972,1.02591
61.054,12.62849,-0.01655683,0.19818,1.02587
61.454,12.68055,-0.01746976,0.20184,1.02583
61.854,12.73226,-0.0176385,0.20305,1.0258
62.254,12.78351,-0.01790806,0.20467,1.02576
62.654,12.83423,-0.01840185,0.20634,1.02572
63.054,12.88481,-0.01798124,0.20793,1.02569
63.454,12.93484,-0.01730929,0.21126,1.02565
63.854,12.98471,-0.01752571,0.2131,1.02561
64.254,13.03453,-0.01677131,0.21388,1.02557
64.654,13.0837,-0.01706094,0.21611,1.02553
65.054,13.1326,-0.01717899,0.22001,1.0255
65.454,13.18128,-0.01715405,0.21954,1.02546
65.854,13.2294,-0.01647861,0.22095,1.02542
66.254,13.2775,-0.01672836,0.22156,1.02538
66.654,13.3255,-0.01673533,0.22193,1.02534
67.054,13.37326,-0.01705963,0.22392,1.02531
67.454,13.4209,-0.01712791,0.22429,1.02527
67.854,13.4682,-0.01714175,0.22586,1.02523
68.254,13.51564,-0.01710845,0.23101,1.02519
68.654,13.56275,-0.01836932,0.22963,1.02515
69.054,13.6096,-0.0185723,0.23351,1.02511
69.454,13.6563,-0.01837824,0.23446,1.02507
69.854,13.70256,-0.01881214,0.23268,1.02503
70.254,13.7483,-0.01856071,0.23461,1.02499
70.654,13.794,-0.01849072,0.2372,1.02495
71.054,13.83969,-0.01856,0.23727,1.02491
71.454,13.8854,-0.01858038,0.23717,1.02487
71.854,13.93095,-0.01855037,0.23825,1.02483
72.254,13.97688,-0.01845183,0.23985,1.02479
72.654,14.02244,-0.01856324,0.24055,1.02475
73.054,14.0676,-0.01716501,0.24417,1.02471
73.454,14.113,-0.01738481,0.24533,1.02467
73.854,14.1582,-0.01859096,0.24586,1.02463
74.254,14.20301,-0.01814285,0.24808,1.02459
74.654,14.24758,-0.01738063,0.24645,1.02455
75.054,14.29195,-0.01858344,0.24754,1.02451
75.454,14.336,-0.01782586,0.24888,1.02447
75.854,14.3797,-0.01885706,0.24931,1.02443
76.254,14.4236,-0.01885785,0.25073,1.02439
76.654,14.4675,-0.01962937,0.25117,1.02435
77.054,14.51155,-0.0198857,0.25072,1.02431
77.454,14.55545,-0.01985357,0.25266,1.02427
77.854,14.59937,-0.02121091,0.25535,1.02422
78.254,14.64298,-0.02119274,0.25361,1.02418
78.654,14.6867,-0.0210684,0.25574,1.02414
79.054,14.7302,-0.02120027,0.25384,1.0241
79.454,14.77374,-0.02109075,0.25478,1.02406
79.854,14.81693,-0.02117074,0.25596,1.02401
80.254,14.86,-0.01987102,0.25463,1.02397
80.654,14.9028,-0.02058309,0.25667,1.02393
81.054,14.94576,-0.01988071,0.25851,1.02389
81.454,14.9882,-0.01938752,0.25777,1.02385
81.854,15.0305,-0.01988037,0.25769,1.0238
82.254,15.07303,-0.01869639,0.25884,1.02376
82.654,15.1156,-0.01856108,0.25919,1.02372
83.054,15.1581,-0.01906487,0.26005,1.02367
83.454,15.2006,-0.01948361,0.26264,1.02363
83.854,15.2433,-0.01987047,0.26207,1.02359
84.254,15.28559,-0.0199026,0.26224,1.02354
84.654,15.32735,-0.01989666,0.26229,1.0235
85.054,15.36931,-0.02115691,0.26399,1.02346
85.454,15.41133,-0.02156089,0.26567,1.02341
85.854,15.45324,-0.021219,0.2653,1.02337
86.254,15.49514,-0.02122005,0.26487,1.02333
86.654,15.53718,-0.0211901,0.26631,1.02328
87.054,15.5787,-0.02119,0.26655,1.02324
87.454,15.6199,-0.02119001,0.2692,1.02319
87.854,15.6613,-0.02116794,0.2702,1.02315
88.254,15.7025,-0.02163991,0.26813,1.0231
88.654,15.74371,-0.02120577,0.26814,1.02306
89.054,15.7851,-0.01984981,0.26911,1.02301
89.454,15.8264,-0.02120628,0.26974,1.02297
89.854,15.86755,-0.02015915,0.26771,1.02292
90.254,15.9084,-0.02050323,0.26912,1.02288
90.654,15.94944,-0.02120322,0.27113,1.02283
91.054,15.9903,-0.01986944,0.26968,1.02279
91.454,16.03118,-0.02030841,0.27047,1.02274
91.854,16.0719,-0.02037054,0.27191,1.0227
92.254,16.11277,-0.01988348,0.27131,1.02265
92.654,16.1535,-0.01909996,0.27039,1.02261
93.054,16.19412,-0.01988476,0.27217,1.02256
93.454,16.23457,-0.01987956,0.27355,1.02251
93.854,16.27523,-0.02076101,0.27059,1.02247
94.254,16.31571,-0.02065686,0.27251,1.02242
94.654,16.35592,-0.02043962,0.27407,1.02237
95.054,16.39625,-0.02119942,0.27341,1.02233
95.454,16.43625,-0.02049608,0.27223,1.02228
95.854,16.47642,-0.02119132,0.27547,1.02223
96.254,16.51621,-0.02151655,0.27424,1.02219
96.654,16.55641,-0.02119511,0.27767,1.02214
97.054,16.59644,-0.02057385,0.27609,1.02209
97.454,16.63663,-0.02000104,0.27652,1.02204
97.854,16.67667,-0.02119117,0.27739,1.022
98.254,16.7167,-0.01987069,0.276,1.02195
98.654,16.7568,-0.02119465,0.27567,1.0219
99.054,16.7968,-0.02119183,0.27656,1.02185
99.454,16.83675,-0.02185181,0.27552,1.02181
99.854,16.87661,-0.02256161,0.27607,1.02176
100.254,16.91649,-0.02119258,0.27611,1.02171
100.654,16.95682,-0.02247039,0.27713,1.02166
101.054,16.99672,-0.02116569,0.27809,1.02161
101.454,17.0365,-0.0212017,0.27841,1.02156
101.854,17.07646,-0.02258359,0.27901,1.02151
102.254,17.11601,-0.02138781,0.27894,1.02147
102.654,17.1554,-0.02170288,0.28056,1.02142
103.054,17.19485,-0.02126051,0.27981,1.02137
103.454,17.23431,-0.02201381,0.27869,1.02132
103.854,17.27381,-0.02120212,0.28147,1.02127
104.254,17.31348,-0.0211904,0.28207,1.02122
104.654,17.35303,-0.02057127,0.28109,1.02117
105.054,17.39262,-0.02062227,0.28071,1.02112
105.454,17.4321,-0.02120154,0.28066,1.02107
105.854,17.47159,-0.02118431,0.27983,1.02102
106.254,17.5108,-0.02250435,0.28173,1.02097
106.654,17.55029,-0.02250875,0.28198,1.02092
107.054,17.5896,-0.02119187,0.2805,1.02087
107.454,17.6288,-0.02118588,0.28452,1.02082
107.854,17.6682,-0.02250112,0.28405,1.02077
108.254,17.70774,-0.02251195,0.28347,1.02071
108.654,17.74716,-0.02279531,0.28294,1.02066
109.054,17.78652,-0.02251177,0.2842,1.02061
109.454,17.82589,-0.02253556,0.28288,1.02056
109.854,17.86519,-0.02376426,0.28318,1.02051
110.254,17.90449,-0.02251331,0.28373,1.02046
110.654,17.94366,-0.02252019,0.28374,1.02041
111.054,17.98275,-0.02255372,0.28505,1.02035
111.454,18.02202,-0.02205588,0.28575,1.0203
111.854,18.06123,-0.02283952,0.28531,1.02025
112.254,18.10041,-0.02250213,0.28549,1.0202
112.654,18.13948,-0.02247548,0.28619,1.02015
113.054,18.1785,-0.02250417,0.28547,1.02009
113.454,18.21775,-0.02320193,0.28684,1.02004
113.854,18.25674,-0.02317834,0.28726,1.01999
114.254,18.29571,-0.02228456,0.28754,1.01993
114.654,18.3348,-0.02250896,0.28761,1.01988
115.054,18.37394,-0.02253057,0.28856,1.01983
115.454,18.41309,-0.0231989,0.28853,1.01977
115.854,18.45218,-0.02252164,0.28675,1.01972
116.254,18.49127,-0.02252598,0.28859,1.01967
116.654,18.53025,-0.02383002,0.28902,1.01961
117.054,18.56916,-0.02251405,0.2892,1.01956
117.454,18.6082,-0.02251148,0.28796,1.0195
117.854,18.64741,-0.02387993,0.28964,1.01945
118.254,18.68656,-0.02383035,0.28831,1.0194
118.654,18.7254,-0.02383051,0.28907,1.01934
119.054,18.7644,-0.02304118,0.28911,1.01929
119.454,18.80344,-0.02251185,0.28767,1.01923
119.854,18.84236,-0.02250976,0.28993,1.01918
120.254,18.88125,-0.02295531,0.2902,1.01912
120.654,18.92022,-0.02315265,0.29012,1.01907
121.054,18.95925,-0.02382602,0.28846,1.01901
121.454,18.99803,-0.02381876,0.28904,1.01896
121.854,19.0368,-0.02248713,0.29174,1.0189
122.254,19.07574,-0.022513,0.29115,1.01884
122.654,19.1147,-0.02375385,0.29084,1.01879
123.054,19.1536,-0.02382989,0.29019,1.01873
123.454,19.19257,-0.02383408,0.29111,1.01868
123.854,19.23151,-0.02278673,0.28962,1.01862
124.254,19.2703,-0.02383071,0.29045,1.01856
124.654,19.30904,-0.02382952,0.2902,1.01851
125.054,19.3477,-0.02336037,0.29132,1.01845
125.454,19.3862,-0.02250733,0.29079,1.01839
125.854,19.42486,-0.02257164,0.29109,1.01834
126.254,19.46375,-0.02383704,0.29034,1.01828
126.654,19.50231,-0.02383003,0.29019,1.01822
127.054,19.541,-0.02382991,0.29112,1.01816
127.454,19.57998,-0.02383035,0.29001,1.01811
127.854,19.61885,-0.02513734,0.28978,1.01805
128.254,19.65748,-0.02382734,0.29092,1.01799
128.654,19.69633,-0.02417349,0.2899,1.01793
129.054,19.73499,-0.02526714,0.2891,1.01787
129.454,19.77378,-0.02662484,0.28915,1.01781
129.854,19.8123,-0.02573282,0.29163,1.01776
130.254,19.8507,-0.02526038,0.28866,1.0177
130.654,19.8891,-0.02526,0.2886,1.01764
131.054,19.92786,-0.02526,0.29067,1.01758
131.454,19.96651,-0.02525986,0.28835,1.01752
131.854,20.00514,-0.02518981,0.29116,1.01746
132.254,20.04385,-0.02395316,0.28994,1.0174
132.654,20.08296,-0.02525837,0.29079,1.01734
133.054,20.12151,-0.02390554,0.2931,1.01728
133.454,20.1603,-0.02393996,0.29176,1.01722
133.854,20.19881,-0.02393581,0.29003,1.01716
134.254,20.2374,-0.02523643,0.29164,1.0171
134.654,20.2757,-0.02524989,0.29185,1.01704
135.054,20.31425,-0.02525,0.29182,1.01698
135.454,20.35237,-0.02524953,0.2933,1.01692
135.854,20.3908,-0.02522104,0.29254,1.01686
136.254,20.42933,-0.02520898,0.28997,1.0168
136.654,20.46784,-0.0252508,0.29113,1.01674
137.054,20.50639,-0.02586975,0.2916,1.01668
137.454,20.5447,-0.02633054,0.291,1.01661
137.854,20.58308,-0.0252564,0.29176,1.01655
138.254,20.62138,-0.02525999,0.29181,1.01649
138.654,20.6599,-0.02526,0.29273,1.01643
139.054,20.69807,-0.02525987,0.29205,1.01637
139.454,20.73648,-0.0251402,0.29066,1.0163
139.854,20.77518,-0.02500338,0.29286,1.01624
140.254,20.81363,-0.02525898,0.29173,1.01618
140.654,20.85174,-0.02525983,0.29241,1.01612
141.054,20.89005,-0.02559462,0.29191,1.01605
141.454,20.92845,-0.02604133,0.29356,1.01599
141.854,20.9667,-0.02524707,0.29219,1.01593
142.254,21.0049,-0.02512033,0.29375,1.01586
142.654,21.04325,-0.02459149,0.29455,1.0158
143.054,21.08174,-0.02387558,0.29308,1.01574
143.454,21.1201,-0.02459253,0.29314,1.01567
143.854,21.15839,-0.02525747,0.29355,1.01561
144.254,21.19661,-0.02524977,0.29293,1.01554
144.654,21.23447,-0.02519536,0.293,1.01548
145.054,21.27263,-0.02623603,0.29468,1.01542
145.454,21.3108,-0.02624003,0.29385,1.01535
145.854,21.34885,-0.02623117,0.29337,1.01529
146.254,21.38706,-0.02525001,0.29286,1.01522
146.654,21.42546,-0.02525993,0.29539,1.01516
147.054,21.46387,-0.02526079,0.29551,1.01509
147.454,21.50212,-0.02534999,0.29593,1.01503
147.854,21.54025,-0.02526416,0.29446,1.01496
148.254,21.57852,-0.02525982,0.29493,1.01489
148.654,21.61665,-0.02525318,0.29562,1.01483
149.054,21.65475,-0.02649699,0.29706,1.01476
149.454,21.693,-0.02656882,0.30025,1.0147
149.854,21.7312,-0.02649406,0.29823,1.01463
150.254,21.7695,-0.02656781,0.29931,1.01456
150.654,21.8077,-0.02656836,0.30114,1.0145
151.054,21.84589,-0.02518131,0.29871,1.01443
151.454,21.884,-0.02525929,0.29861,1.01436
151.854,21.92212,-0.02523859,0.29745,1.0143
152.254,21.9602,-0.02657835,0.29976,1.01423
152.654,21.9984,-0.02658006,0.29961,1.01416
153.054,22.0366,-0.02657404,0.29947,1.01409
153.454,22.07473,-0.02796285,0.29792,1.01402
153.854,22.11288,-0.02658164,0.29863,1.01396
154.254,22.15094,-0.02658002,0.30097,1.01389
154.654,22.18897,-0.02657801,0.30067,1.01382
155.054,22.22701,-0.02758151,0.29958,1.01375
155.454,22.2651,-0.026895,0.30152,1.01368
155.854,22.30326,-0.02689997,0.30095,1.01361
156.254,22.34155,-0.0269,0.3009,1.01355
156.654,22.3796,-0.0269,0.30224,1.01348
157.054,22.41762,-0.02690006,0.30298,1.01341
157.454,22.45574,-0.02691312,0.3014,1.01334
157.854,22.49371,-0.02815775,0.30475,1.01327
158.254,22.53145,-0.02789012,0.30376,1.0132
158.654,22.56941,-0.02660697,0.30333,1.01313
159.054,22.60739,-0.02657098,0.30403,1.01306
159.454,22.64552,-0.02657001,0.30456,1.01299
159.854,22.6837,-0.02657005,0.30601,1.01292
160.254,22.72176,-0.02657473,0.30566,1.01285
160.654,22.7601,-0.0278926,0.30396,1.01277
161.054,22.79816,-0.02788991,0.30597,1.0127
161.454,22.8363,-0.02795873,0.30418,1.01263
161.854,22.87425,-0.02760011,0.30376,1.01256
162.254,22.91242,-0.02757046,0.30413,1.01249
162.654,22.95063,-0.02758444,0.30485,1.01242
163.054,22.9888,-0.02790057,0.30375,1.01235
163.454,23.027,-0.02790089,0.30403,1.01227
163.854,23.0652,-0.02815874,0.30426,1.0122
164.254,23.1034,-0.02784184,0.30421,1.01213
164.654,23.14136,-0.02788984,0.30724,1.01206
165.054,23.17931,-0.02789,0.30784,1.01198
165.454,23.2174,-0.02789,0.30866,1.01191
165.854,23.2554,-0.02789048,0.30901,1.01184
166.254,23.29341,-0.02795614,0.30762,1.01176
166.654,23.33128,-0.02657099,0.30865,1.01169
167.054,23.36934,-0.02657893,0.31005,1.01162
167.454,23.40727,-0.02789386,0.31146,1.01154
167.854,23.44526,-0.02789004,0.30928,1.01147
168.254,23.48333,-0.02789047,0.30978,1.01139
168.654,23.52131,-0.02792382,0.31001,1.01132
169.054,23.55939,-0.02790429,0.30935,1.01125
169.454,23.59757,-0.02789033,0.31078,1.01117
169.854,23.63569,-0.02788965,0.31132,1.0111
170.254,23.67387,-0.02783582,0.3113,1.01102
170.654,23.712,-0.02858921,0.31048,1.01095
171.054,23.75023,-0.02789358,0.31023,1.01087
171.454,23.7882,-0.02790032,0.3103,1.01079
171.854,23.82627,-0.02789999,0.31033,1.01072
172.254,23.86431,-0.0278979,0.30875,1.01064
172.654,23.9024,-0.02824935,0.30987,1.01057
173.054,23.94057,-0.02818465,0.31139,1.01049
173.454,23.97874,-0.02690309,0.31036,1.01041
173.854,24.01696,-0.02792762,0.30919,1.01034
174.254,24.0551,-0.02788983,0.30941,1.01026
174.654,24.0932,-0.02854721,0.31057,1.01018
175.054,24.13119,-0.02920905,0.30937,1.01011
175.454,24.1692,-0.02919909,0.30926,1.01003
175.854,24.20724,-0.02788602,0.30839,1.00995
176.254,24.24534,-0.02788996,0.30917,1.00987
176.654,24.28327,-0.02788964,0.30857,1.0098
177.054,24.32149,-0.02835815,0.30952,1.00972
177.454,24.35951,-0.02920122,0.30999,1.00964
177.854,24.3975,-0.02954129,0.30853,1.00956
178.254,24.43545,-0.02954001,0.30859,1.00948
178.654,24.4736,-0.02954,0.30939,1.0094
179.054,24.51162,-0.02954,0.30981,1.00932
179.454,24.54963,-0.02954004,0.30884,1.00924
179.854,24.5878,-0.02956824,0.30954,1.00917
180.254,24.62589,-0.02955625,0.30739,1.00909
180.654,24.6638,-0.02953016,0.30834,1.00901
181.054,24.70182,-0.02952909,0.30909,1.00893
181.454,24.73994,-0.02985874,0.30874,1.00885
181.854,24.7779,-0.02985927,0.30857,1.00877
182.254,24.81599,-0.02975475,0.3083,1.00868
182.654,24.8541,-0.03085684,0.30838,1.0086
183.054,24.8921,-0.03076157,0.3078,1.00852
183.454,24.93013,-0.02953973,0.3066,1.00844
183.854,24.96815,-0.02954003,0.30901,1.00836
184.254,25.00615,-0.02954001,0.30746,1.00828
184.654,25.04397,-0.02954147,0.30793,1.0082
185.054,25.0819,-0.02967853,0.30691,1.00812
185.454,25.11986,-0.03085996,0.3069,1.00803
185.854,25.1579,-0.03086,0.30835,1.00795
186.254,25.19584,-0.03085996,0.30781,1.00787
186.654,25.2339,-0.03085457,0.30642,1.00779
187.054,25.27206,-0.03199392,0.30686,1.0077
187.454,25.31015,-0.03217996,0.30873,1.00762
187.854,25.3482,-0.03221956,0.30732,1.00754
188.254,25.38628,-0.03087036,0.30782,1.00745
188.654,25.42426,-0.03086007,0.30789,1.00737
189.054,25.4623,-0.03086,0.30713,1.00729
189.454,25.50038,-0.03086,0.30845,1.0072
189.854,25.53833,-0.03086,0.30676,1.00712
190.254,25.57647,-0.0308595,0.30892,1.00703
190.654,25.61443,-0.03077508,0.30852,1.00695
191.054,25.6524,-0.03216859,0.3094,1.00687
191.454,25.69034,-0.03217,0.30769,1.00678
191.854,25.7283,-0.03216999,0.3098,1.0067
192.254,25.76613,-0.03216793,0.31031,1.00661
192.654,25.80412,-0.03177565,0.31017,1.00652
193.054,25.84211,-0.03201645,0.30926,1.00644
193.454,25.88,-0.0325,0.31178,1.00635
193.854,25.918,-0.03249997,0.31225,1.00627
194.254,25.95611,-0.03249056,0.31245,1.00618
194.654,25.99399,-0.03217953,0.31273,1.00609
195.054,26.03185,-0.03217004,0.3114,1.00601
195.454,26.07004,-0.03217001,0.31267,1.00592
195.854,26.108,-0.03211262,0.31456,1.00583
196.254,26.1459,-0.0328805,0.31192,1.00575
196.654,26.18388,-0.03225471,0.31377,1.00566
197.054,26.222,-0.03217036,0.31393,1.00557
197.454,26.2601,-0.03217,0.31546,1.00548
197.854,26.298,-0.03217055,0.31446,1.0054
198.254,26.33604,-0.03237494,0.31521,1.00531
198.654,26.37404,-0.03242109,0.31461,1.00522
199.054,26.412,-0.03381855,0.31382,1.00513
199.454,26.44987,-0.03382,0.31521,1.00504
199.854,26.4879,-0.03382,0.31474,1.00495
200.254,26.5259,-0.03382,0.31496,1.00486
200.654,26.56383,-0.03382051,0.31739,1.00477
201.054,26.6018,-0.03386586,0.31596,1.00469
201.454,26.63978,-0.03479167,0.31687,1.0046
201.854,26.6778,-0.03546157,0.31906,1.00451
202.254,26.71575,-0.03546002,0.31784,1.00442
202.654,26.75372,-0.03546139,0.31986,1.00432
203.054,26.7917,-0.03558263,0.31919,1.00423
203.454,26.8297,-0.03677999,0.32041,1.00414
203.854,26.8677,-0.03563532,0.32198,1.00405
204.254,26.90555,-0.03546161,0.32085,1.00396
204.654,26.9433,-0.03546002,0.32067,1.00387
205.054,26.98133,-0.03546054,0.32016,1.00378
205.454,27.0194,-0.03542409,0.31999,1.00369
205.854,27.05718,-0.0377524,0.32009,1.00359
206.254,27.09481,-0.03776991,0.32071,1.0035
206.654,27.1327,-0.03777,0.32043,1.00341
207.054,27.1707,-0.03777,0.32325,1.00332
207.454,27.20862,-0.03777002,0.32198,1.00322
207.854,27.2466,-0.03777765,0.3224,1.00313
208.254,27.2848,-0.03667753,0.32427,1.00304
208.654,27.3231,-0.03677521,0.32245,1.00294
209.054,27.36079,-0.03808942,0.32335,1.00285
209.454,27.3989,-0.0381001,0.32279,1.00276
209.854,27.43702,-0.03810096,0.3251,1.00266
210.254,27.4752,-0.03837503,0.32491,1.00257
210.654,27.51339,-0.04035702,0.32457,1.00247
211.054,27.55165,-0.04072932,0.32546,1.00238
211.454,27.5902,-0.04073,0.32502,1.00229
211.854,27.6281,-0.04073002,0.32516,1.00219
212.254,27.66643,-0.040735,0.3262,1.0021
212.654,27.7045,-0.04001162,0.3255,1.002
213.054,27.7426,-0.04007967,0.32729,1.0019
213.454,27.78071,-0.04008,0.32734,1.00181
213.854,27.8186,-0.04008,0.32869,1.00171
214.254,27.8566,-0.04008024,0.32982,1.00162
214.654,27.89449,-0.04015005,0.32962,1.00152
215.054,27.93249,-0.04272289,0.33155,1.00142
215.454,27.9704,-0.04271001,0.33069,1.00133
215.854,28.0084,-0.04271,0.33074,1.00123
216.254,28.04635,-0.04271003,0.33107,1.00113
216.654,28.08442,-0.04271602,0.33326,1.00103
217.054,28.12258,-0.04154819,0.33454,1.00094
217.454,28.16062,-0.04139083,0.33547,1.00084
217.854,28.19872,-0.04400561,0.33458,1.00074
218.254,28.2368,-0.04402968,0.33448,1.00064
218.654,28.275,-0.04402999,0.33501,1.00054
219.054,28.31298,-0.04402971,0.33489,1.00044
219.454,28.35097,-0.04444775,0.33525,1.00034
219.854,28.389,-0.04535125,0.33694,1.00025
220.254,28.42704,-0.04534334,0.33819,1.00015
220.654,28.4648,-0.04659861,0.33797,1.00005
221.054,28.50273,-0.04666987,0.33846,0.99995
221.454,28.54075,-0.04666995,0.34018,0.99985
221.854,28.5786,-0.04668197,0.34036,0.99975
222.254,28.6167,-0.0473192,0.34243,0.99965
222.654,28.6548,-0.04873061,0.34306,0.99954
223.054,28.6928,-0.04864113,0.34578,0.99944
223.454,28.7308,-0.04867206,0.34452,0.99934
223.854,28.76851,-0.0499187,0.34714,0.99924
224.254,28.80643,-0.05030369,0.34752,0.99914
224.654,28.8444,-0.05024961,0.34847,0.99904
225.054,28.88237,-0.05061322,0.34994,0.99894
225.454,28.92042,-0.05063774,0.34945,0.99883
225.854,28.9588,-0.05324385,0.35073,0.99873
226.254,28.997,-0.05320069,0.3544,0.99863
226.654,29.0349,-0.0545569,0.35147,0.99853
227.054,29.07289,-0.05456993,0.35541,0.99842
227.454,29.1109,-0.05457002,0.35688,0.99832
227.854,29.14873,-0.05456593,0.35881,0.99822
228.254,29.18667,-0.05584974,0.35694,0.99811
228.654,29.2249,-0.05587993,0.35887,0.99801
229.054,29.263,-0.05588791,0.35934,0.9979
229.454,29.3011,-0.05720813,0.36002,0.9978
229.854,29.3392,-0.0585213,0.36249,0.99769
230.254,29.37732,-0.05895877,0.36263,0.99759
230.654,29.4152,-0.05984335,0.36477,0.99748
231.054,29.4531,-0.05983567,0.36582,0.99738
231.454,29.49098,-0.06090504,0.3672,0.99727
231.854,29.52897,-0.06115994,0.36877,0.99717
232.254,29.56679,-0.06110273,0.36879,0.99706
232.654,29.6049,-0.06177297,0.37111,0.99696
233.054,29.64309,-0.0618055,0.37248,0.99685
233.454,29.68117,-0.06311621,0.37448,0.99674
233.854,29.7192,-0.06306785,0.37541,0.99664
234.254,29.75713,-0.06576099,0.37854,0.99653
234.654,29.79516,-0.06577012,0.37922,0.99642
235.054,29.83295,-0.0657937,0.37957,0.99631
235.454,29.8708,-0.06843477,0.38103,0.99621
235.854,29.90878,-0.06835473,0.38281,0.9961
236.254,29.94685,-0.06971883,0.38565,0.99599
236.654,29.9847,-0.06976689,0.38718,0.99588
237.054,30.02267,-0.07126781,0.38651,0.99577
237.454,30.0607,-0.07260593,0.39053,0.99566
237.854,30.09872,-0.07389664,0.39223,0.99555
238.254,30.13682,-0.07389894,0.39338,0.99545
238.654,30.1748,-0.07371646,0.39382,0.99534
239.054,30.21286,-0.07619121,0.39803,0.99523
239.454,30.25105,-0.07749708,0.39894,0.99512
239.854,30.28892,-0.07745928,0.39981,0.99501
240.254,30.3269,-0.07877739,0.40338,0.9949
240.654,30.36498,-0.08007923,0.40274,0.99478
241.054,30.40307,-0.08146239,0.40501,0.99467
241.454,30.44105,-0.08278208,0.40828,0.99456
241.854,30.47901,-0.0836811,0.41272,0.99445
242.254,30.51748,-0.08402079,0.4128,0.99434
242.654,30.55547,-0.08572374,0.41309,0.99423
243.054,30.59351,-0.08694427,0.41806,0.99412
243.454,30.6315,-0.08715317,0.42019,0.994
243.854,30.66965,-0.08969275,0.42426,0.99389
244.254,30.7077,-0.09096884,0.42584,0.99378
244.654,30.7456,-0.09231422,0.42814,0.99367
245.054,30.7835,-0.09327621,0.42894,0.99355
245.454,30.82167,-0.09416502,0.43185,0.99344
245.854,30.8598,-0.09583242,0.43412,0.99333
246.254,30.8979,-0.09646932,0.43755,0.99321
246.654,30.936,-0.09877457,0.44164,0.9931
247.054,30.97445,-0.10045,0.44483,0.99298
247.454,31.0126,-0.10192,0.44626,0.99287
247.854,31.05064,-0.10321,0.44927,0.99275
248.254,31.0887,-0.10473,0.45531,0.99264
248.654,31.12684,-0.10627,0.4567,0.99252
249.054,31.1649,-0.10888,0.45815,0.99241
249.454,31.203,-0.11058,0.4618,0.99229
249.854,31.24108,-0.112,0.4664,0.99218
250.254,31.2793,-0.11344,0.46863,0.99206
250.654,31.3175,-0.11481,0.47036,0.99194
251.054,31.35575,-0.11643,0.47498,0.99183
251.454,31.3939,-0.11795,0.47838,0.99171
251.854,31.4322,-0.11955,0.48187,0.99159
252.254,31.47018,-0.12123,0.48498,0.99148
252.654,31.50821,-0.12251,0.48538,0.99136
253.054,31.54624,-0.12359,0.49017,0.99124
253.454,31.5843,-0.12628,0.49482,0.99112
253.854,31.6223,-0.12836,0.49776,0.991
254.254,31.6604,-0.13002,0.50181,0.99089
254.654,31.69855,-0.13172,0.50693,0.99077
255.054,31.7368,-0.13358,0.50998,0.99065
255.454,31.7747,-0.13497,0.51664,0.99053
255.854,31.813,-0.13658,0.52135,0.99041
256.254,31.85121,-0.13955,0.52516,0.99029
256.654,31.8894,-0.14129,0.52711,0.99017
257.054,31.9275,-0.1427,0.53056,0.99005
257.454,31.96565,-0.1461,0.53598,0.98993
257.854,32.00399,-0.14835,0.54057,0.98981
258.254,32.04217,-0.14985,0.54276,0.98969
258.654,32.0805,-0.1514,0.5496,0.98957
259.054,32.11862,-0.15465,0.5537,0.98944
259.454,32.15684,-0.15747,0.55905,0.98932
259.854,32.19528,-0.15927,0.56549,0.9892
260.254,32.23349,-0.16135,0.57043,0.98908
260.654,32.27166,-0.16375,0.573,0.98896
261.054,32.3099,-0.16632,0.57729,0.98883
261.454,32.34817,-0.16877,0.58393,0.98871
261.854,32.3863,-0.1729,0.59023,0.98859
262.254,32.42434,-0.17521,0.59689,0.98847
262.654,32.46242,-0.17743,0.59988,0.98834
263.054,32.50055,-0.18029,0.60631,0.98822
263.454,32.5386,-0.18355,0.61113,0.98809
263.854,32.5767,-0.18391,0.61731,0.98797
264.254,32.61502,-0.18597,0.62217,0.98785
264.654,32.6533,-0.19013,0.63183,0.98772
265.054,32.6914,-0.1923,0.63366,0.9876
265.454,32.72929,-0.19508,0.64164,0.98747
265.854,32.76764,-0.19756,0.64746,0.98734
266.254,32.8058,-0.20078,0.65407,0.98722
266.654,32.84407,-0.20386,0.66157,0.98709
267.054,32.88235,-0.20745,0.66714,0.98697
267.454,32.9208,-0.21043,0.67399,0.98684
267.854,32.95872,-0.2141,0.67976,0.98671
268.254,32.9968,-0.21737,0.68696,0.98659
268.654,33.03498,-0.22031,0.69538,0.98646
269.054,33.0732,-0.2227,0.70012,0.98633
269.454,33.1113,-0.22658,0.70593,0.9862
269.854,33.14993,-0.22944,0.71451,0.98608
270.254,33.18821,-0.23269,0.72327,0.98595
270.654,33.22637,-0.23632,0.72984,0.98582
271.054,33.2645,-0.23972,0.73664,0.98569
271.454,33.30276,-0.2433,0.74328,0.98556
271.854,33.34097,-0.24647,0.74985,0.98543
272.254,33.37912,-0.24888,0.75885,0.9853
272.654,33.4174,-0.25506,0.76723,0.98517
273.054,33.45555,-0.25901,0.77358,0.98505
273.454,33.4936,-0.26252,0.78325,0.98491
273.854,33.53195,-0.26624,0.79131,0.98478
274.254,33.57011,-0.27008,0.79849,0.98465
274.654,33.60849,-0.27452,0.80687,0.98452
275.054,33.64694,-0.27927,0.81517,0.98439
275.454,33.68537,-0.28301,0.82414,0.98426
275.854,33.72382,-0.28776,0.83171,0.98413
276.254,33.76218,-0.29192,0.84062,0.984
276.654,33.8003,-0.29688,0.84938,0.98387
277.054,33.8384,-0.30134,0.85864,0.98373
277.454,33.87669,-0.30533,0.86877,0.9836
277.854,33.91514,-0.30913,0.87795,0.98347
278.254,33.95328,-0.31385,0.88647,0.98333
278.654,33.99155,-0.31987,0.89475,0.9832
279.054,34.03025,-0.32446,0.9044,0.98307
279.454,34.0687,-0.3291,0.9129,0.98293
279.854,34.107,-0.33459,0.92663,0.9828
280.254,34.14533,-0.3399,0.93308,0.98267
280.654,34.1839,-0.34568,0.94395,0.98253
281.054,34.22232,-0.35046,0.95453,0.9824
281.454,34.26064,-0.35537,0.96657,0.98226
281.854,34.29891,-0.36107,0.97407,0.98213
282.254,34.33718,-0.36801,0.985,0.98199
282.654,34.37547,-0.37404,0.99541,0.98185
283.054,34.4137,-0.3797,1.00581,0.98172
283.454,34.4521,-0.38546,1.01238,0.98158
283.854,34.49051,-0.39127,1.02551,0.98144
284.254,34.52885,-0.39752,1.03623,0.98131
284.654,34.56738,-0.40292,1.04652,0.98117
285.054,34.60587,-0.40884,1.05581,0.98103
285.454,34.6445,-0.41675,1.06931,0.9809
285.854,34.68292,-0.42376,1.07967,0.98076
286.254,34.7213,-0.42999,1.09181,0.98062
286.654,34.75972,-0.43612,1.10311,0.98048
287.054,34.7981,-0.44253,1.11307,0.98034
287.454,34.83645,-0.45034,1.12516,0.9802
287.854,34.87495,-0.45655,1.13792,0.98006
288.254,34.91349,-0.46384,1.1497,0.97993
288.654,34.95192,-0.4706,1.16382,0.97979
289.054,34.99029,-0.47893,1.17607,0.97965
289.454,35.0287,-0.48498,1.1859,0.97951
289.854,35.06712,-0.49245,1.19875,0.97936
290.254,35.1055,-0.49924,1.21043,0.97922
290.654,35.14394,-0.50884,1.22261,0.97908
291.054,35.18251,-0.51591,1.23569,0.97894
291.454,35.22085,-0.52413,1.2504,0.9788
291.854,35.25914,-0.53201,1.26224,0.97866
292.254,35.29752,-0.54047,1.27558,0.97852
292.654,35.33591,-0.54912,1.29022,0.97837
293.054,35.3743,-0.55662,1.30498,0.97823
293.454,35.41278,-0.56526,1.3189,0.97809
293.854,35.45132,-0.57407,1.33394,0.97795
294.254,35.49004,-0.58384,1.34557,0.9778
294.654,35.52883,-0.5924,1.35842,0.97766
295.054,35.56754,-0.60158,1.37035,0.97752
295.454,35.6064,-0.6114,1.3693,0.97737
295.854,35.64532,-0.62079,1.37941,0.97723
296.254,35.684,-0.62935,1.39227,0.97708
296.654,35.7226,-0.63861,1.40204,0.97694
297.054,35.7611,-0.64822,1.4172,0.97679
297.454,35.79939,-0.65821,1.43026,0.97665
297.854,35.83777,-0.66827,1.44137,0.9765
298.254,35.87619,-0.67968,1.45349,0.97636
298.654,35.9146,-0.68909,1.46629,0.97621
299.054,35.95327,-0.69774,1.47823,0.97606
299.454,35.9919,-0.70785,1.49162,0.97592
299.854,36.03062,-0.7183,1.50111,0.97577
300.254,36.06926,-0.72995,1.51381,0.97562
300.654,36.10788,-0.74006,1.52456,0.97548
301.054,36.14645,-0.75086,1.53699,0.97533
301.454,36.18484,-0.76173,1.54499,0.97518
301.854,36.2233,-0.7724,1.55388,0.97503
302.254,36.2618,-0.78302,1.56161,0.97488
302.654,36.30039,-0.79419,1.56591,0.97473
303.054,36.339,-0.8061,1.56967,0.97458
303.454,36.3775,-0.81684,1.57275,0.97444
303.854,36.41608,-0.82837,1.57481,0.97429
304.254,36.45462,-0.83859,1.57432,0.97414
304.654,36.4931,-0.84953,1.57269,0.97399
305.054,36.5317,-0.86093,1.57181,0.97384
305.454,36.57,-0.87213,1.56517,0.97368
305.854,36.60846,-0.88288,1.55853,0.97353
306.254,36.647,-0.89276,1.55105,0.97338
306.654,36.68548,-0.90271,1.54587,0.97323
307.054,36.72392,-0.91315,1.50655,0.97308
307.454,36.76242,-0.92323,1.45829,0.97293
307.854,36.80088,-0.93348,1.40857,0.97278
308.254,36.83934,-0.94275,1.36921,0.97262
308.654,36.87762,-0.95265,1.33767,0.97247
309.054,36.91583,-0.95992,1.30804,0.97232
309.454,36.95408,-0.96854,1.30529,0.97216
309.854,36.99238,-0.97886,1.28777,0.97201
310.254,37.03072,-0.98758,1.25877,0.97186
310.654,37.06897,-0.99614,1.23696,0.9717
311.054,37.10715,-1.00526,1.22424,0.97155
311.454,37.14539,-1.01444,1.20013,0.97139
311.854,37.18331,-1.02333,1.18179,0.97124
312.254,37.22156,-1.03196,1.15699,0.97108
312.654,37.25978,-1.04071,1.12826,0.97093
313.054,37.298,-1.04925,1.11005,0.97077
313.454,37.33654,-1.05704,1.07456,0.97062
313.854,37.37486,-1.06545,1.04117,0.97046
314.254,37.41335,-1.07335,1.01107,0.9703
314.654,37.4517,-1.0819,0.97906,0.97015
315.054,37.48987,-1.08836,0.94514,0.96999
315.454,37.528,-1.09579,0.91868,0.96983
315.854,37.5663,-1.10129,0.88482,0.96967
316.254,37.60455,-1.10836,0.85252,0.96952
316.654,37.64275,-1.11415,0.82441,0.96936
317.054,37.68095,-1.12204,0.79537,0.9692
317.454,37.7193,-1.12844,0.76428,0.96904
317.854,37.7575,-1.1343,0.733,0.96888
318.254,37.79562,-1.13936,0.70601,0.96872
318.654,37.83382,-1.14455,0.67969,0.96856
319.054,37.87195,-1.14976,0.65263,0.9684
319.454,37.9101,-1.15526,0.62696,0.96824
319.854,37.94823,-1.16038,0.60276,0.96808
320.254,37.98648,-1.1647,0.57897,0.96792
320.654,38.02462,-1.16896,0.56049,0.96776
321.054,38.06281,-1.17265,0.54169,0.9676
321.454,38.10094,-1.17699,0.5273,0.96744
321.854,38.1392,-1.18108,0.51117,0.96728
322.254,38.1775,-1.18512,0.49782,0.96712
322.654,38.2158,-1.18921,0.48759,0.96695
323.054,38.25408,-1.19283,0.47584,0.96679
323.454,38.29242,-1.19714,0.46357,0.96663
323.854,38.33045,-1.20052,0.45733,0.96647
324.254,38.3688,-1.20612,0.44767,0.9663
324.654,38.4071,-1.21018,0.43918,0.96614
325.054,38.4452,-1.21341,0.42969,0.96597
325.454,38.4833,-1.21616,0.42377,0.96581
325.854,38.52178,-1.21931,0.41857,0.96565
326.254,38.56021,-1.22257,0.4099,0.96548
326.654,38.59843,-1.22642,0.40435,0.96532
327.054,38.63687,-1.2297,0.39548,0.96515
327.454,38.67518,-1.23288,0.3883,0.96499
327.854,38.71321,-1.23575,0.3862,0.96482
328.254,38.75158,-1.23928,0.38095,0.96465
328.654,38.79003,-1.24264,0.37653,0.96449
329.054,38.82847,-1.2461,0.37119,0.96432
329.454,38.86676,-1.24976,0.36599,0.96415
329.854,38.9056,-1.25212,0.36167,0.96399
330.254,38.9443,-1.25526,0.35747,0.96382
330.654,38.98279,-1.25772,0.35256,0.96365
331.054,39.02131,-1.26103,0.3491,0.96348
331.454,39.05976,-1.26426,0.34694,0.96331
331.854,39.09832,-1.26824,0.34114,0.96315
332.254,39.13674,-1.27108,0.33834,0.96298
332.654,39.17519,-1.27462,0.33571,0.96281
333.054,39.21354,-1.27767,0.33114,0.96264
333.454,39.25196,-1.28023,0.33151,0.96247
333.854,39.29068,-1.28351,0.32721,0.9623
334.254,39.32914,-1.28736,0.32527,0.96213
334.654,39.36765,-1.28982,0.32105,0.96196
335.054,39.40625,-1.29275,0.32037,0.96179
335.454,39.4448,-1.29444,0.31958,0.96162
335.854,39.48335,-1.29737,0.31757,0.96144
336.254,39.52183,-1.30057,0.31565,0.96127
336.654,39.5603,-1.30326,0.31332,0.9611
337.054,39.59883,-1.30667,0.31124,0.96093
337.454,39.6374,-1.31016,0.30932,0.96076
337.854,39.67585,-1.31338,0.30892,0.96058
338.254,39.71438,-1.31673,0.3067,0.96041
338.654,39.75287,-1.31972,0.30727,0.96024
339.054,39.79162,-1.32305,0.30513,0.96006
339.454,39.8303,-1.32664,0.30384,0.95989
339.854,39.86878,-1.32934,0.30318,0.95972
340.254,39.90742,-1.33245,0.3022,0.95954
340.654,39.94603,-1.33604,0.30063,0.95937
341.054,39.98464,-1.33951,0.30066,0.95919
341.454,40.0231,-1.34351,0.30142,0.95902
341.854,40.0617,-1.34699,0.30169,0.95884
342.254,40.10034,-1.35015,0.30241,0.95866
342.654,40.13896,-1.35396,0.30299,0.95849
343.054,40.17743,-1.35752,0.30191,0.95831
343.454,40.21597,-1.36047,0.30364,0.95814
343.854,40.2547,-1.36374,0.30469,0.95796
344.254,40.29317,-1.3681,0.3065,0.95778
344.654,40.33184,-1.37241,0.30903,0.9576
345.054,40.37037,-1.37683,0.30922,0.95743
345.454,40.40936,-1.38044,0.31162,0.95725
345.854,40.44785,-1.3834,0.31387,0.95707
346.254,40.48641,-1.38739,0.31287,0.95689
346.654,40.525,-1.39202,0.31745,0.95671
347.054,40.5637,-1.39586,0.31861,0.95653
347.454,40.6023,-1.40019,0.32105,0.95635
347.854,40.64114,-1.40446,0.32327,0.95617
348.254,40.67982,-1.40872,0.32641,0.95599
348.654,40.71855,-1.41344,0.32846,0.95581
349.054,40.75701,-1.41886,0.33251,0.95563
349.454,40.79553,-1.42343,0.33567,0.95545
349.854,40.83416,-1.4282,0.34035,0.95527
350.254,40.87277,-1.43324,0.34099,0.95509
350.654,40.9114,-1.43982,0.3452,0.9549
351.054,40.95008,-1.44575,0.34882,0.95472
351.454,40.9888,-1.45081,0.35348,0.95454
351.854,41.02746,-1.45645,0.35866,0.95436
352.254,41.0661,-1.46159,0.36197,0.95417
352.654,41.10476,-1.46695,0.36834,0.95399
353.054,41.14335,-1.47311,0.37264,0.95381
353.454,41.1821,-1.48029,0.37544,0.95362
353.854,41.2208,-1.48588,0.38111,0.95344
354.254,41.25939,-1.49394,0.38665,0.95326
354.654,41.29811,-1.50021,0.38899,0.95307
355.054,41.3368,-1.50755,0.39298,0.95289
355.454,41.3754,-1.51518,0.39644,0.9527
355.854,41.41397,-1.52189,0.40276,0.95251
356.254,41.45272,-1.52908,0.40726,0.95233
356.654,41.4914,-1.53674,0.41394,0.95214
357.054,41.53003,-1.54499,0.41876,0.95196
357.454,41.56879,-1.55227,0.42343,0.95177
357.854,41.6076,-1.5613,0.42742,0.95158
358.254,41.64634,-1.56977,0.43494,0.95139
358.654,41.6852,-1.57869,0.44064,0.95121
359.054,41.72388,-1.5871,0.44692,0.95102
359.454,41.76263,-1.59608,0.45162,0.95083
359.854,41.80145,-1.60553,0.45853,0.95064
360.254,41.84024,-1.61662,0.46401,0.95045
360.654,41.879,-1.62663,0.46872,0.95026
361.054,41.9178,-1.63632,0.47746,0.95008
361.454,41.95675,-1.647,0.48329,0.94989
361.854,41.99548,-1.65836,0.48987,0.9497
362.254,42.03425,-1.67086,0.49552,0.94951
362.654,42.07287,-1.68198,0.50282,0.94932
363.054,42.11146,-1.69399,0.51038,0.94912
363.454,42.1503,-1.70567,0.51821,0.94893
363.854,42.18927,-1.7167,0.52351,0.94874
364.254,42.22817,-1.72905,0.53109,0.94855
364.654,42.2671,-1.74239,0.53821,0.94836
365.054,42.30616,-1.75536,0.54437,0.94817
365.454,42.34512,-1.76824,0.55168,0.94797
365.854,42.38394,-1.78207,0.55771,0.94778
366.254,42.4227,-1.79597,0.56589,0.94759
366.654,42.4615,-1.81023,0.57165,0.94739
367.054,42.50042,-1.82533,0.57784,0.9472
367.454,42.53944,-1.84118,0.58687,0.94701
367.854,42.57848,-1.85699,0.5945,0.94681
368.254,42.6173,-1.87191,0.59941,0.94662
368.654,42.65625,-1.88691,0.60678,0.94642
369.054,42.69509,-1.90318,0.61475,0.94623
369.454,42.73393,-1.91896,0.62092,0.94603
369.854,42.77264,-1.93555,0.62629,0.94584
370.254,42.81154,-1.95243,0.63319,0.94564
370.654,42.8504,-1.96998,0.63896,0.94544
371.054,42.8894,-1.98882,0.64587,0.94525
371.454,42.92839,-2.00738,0.64895,0.94505
371.854,42.96738,-2.02591,0.65523,0.94485
372.254,43.0063,-2.0435,0.66283,0.94465
372.654,43.04524,-2.06204,0.66999,0.94446
373.054,43.08429,-2.08132,0.67331,0.94426
373.454,43.1233,-2.10145,0.67929,0.94406
373.854,43.16213,-2.12162,0.68532,0.94386
374.254,43.20115,-2.14237,0.68677,0.94366
374.654,43.24002,-2.16242,0.69222,0.94346
375.054,43.27883,-2.18298,0.69543,0.94326
375.454,43.31758,-2.20373,0.70172,0.94306
375.854,43.35652,-2.22489,0.70657,0.94286
376.254,43.39543,-2.2464,0.71008,0.94266
376.654,43.43436,-2.26824,0.71552,0.94246
377.054,43.47332,-2.28936,0.72004,0.94226
377.454,43.5123,-2.31261,0.72105,0.94206
377.854,43.55126,-2.33581,0.72464,0.94186
378.254,43.5901,-2.35897,0.72879,0.94166
378.654,43.62911,-2.38165,0.72891,0.94145
379.054,43.66806,-2.40566,0.72906,0.94125
379.454,43.70687,-2.42823,0.73231,0.94105
379.854,43.74565,-2.45182,0.73421,0.94085
380.254,43.78451,-2.47584,0.73346,0.94064
380.654,43.82334,-2.5001,0.73145,0.94044
381.054,43.86223,-2.52332,0.73223,0.94023
381.454,43.90106,-2.54853,0.73141,0.94003
381.854,43.94005,-2.57313,0.73101,0.93983
382.254,43.97868,-2.59715,0.73217,0.93962
382.654,44.01715,-2.62089,0.72631,0.93942
383.054,44.05585,-2.64509,0.72254,0.93921
383.454,44.09475,-2.66965,0.72056,0.939
383.854,44.13354,-2.6943,0.71764,0.9388
384.254,44.1725,-2.71871,0.71065,0.93859
384.654,44.2118,-2.74287,0.7058,0.93838
385.054,44.25096,-2.76748,0.69875,0.93818
385.454,44.28988,-2.79127,0.69365,0.93797
385.854,44.32886,-2.81415,0.68679,0.93776
386.254,44.3678,-2.8386,0.67799,0.93755
386.654,44.40663,-2.86282,0.67125,0.93735
387.054,44.44563,-2.88673,0.66474,0.93714
387.454,44.4846,-2.90904,0.65697,0.93693
387.854,44.52345,-2.9326,0.64579,0.93672
388.254,44.56235,-2.95579,0.63927,0.93651
388.654,44.60117,-2.97747,0.63149,0.9363
389.054,44.63994,-2.99991,0.61904,0.93609
389.454,44.67875,-3.02185,0.61227,0.93588
389.854,44.71755,-3.04464,0.60277,0.93567
390.254,44.7564,-3.06656,0.59372,0.93546
390.654,44.7954,-3.08744,0.58039,0.93525
391.054,44.83429,-3.10751,0.56907,0.93504
391.454,44.87323,-3.12817,0.55873,0.93482
391.854,44.91196,-3.14958,0.54741,0.93461
392.254,44.9507,-3.16943,0.5401,0.9344
392.654,44.98959,-3.18959,0.5265,0.93419
393.054,45.0284,-3.21035,0.51713,0.93397
393.454,45.06729,-3.22872,0.50603,0.93376
393.854,45.10624,-3.24716,0.49425,0.93355
394.254,45.1454,-3.26548,0.48579,0.93333
394.654,45.1841,-3.28374,0.47707,0.93312
395.054,45.223,-3.3016,0.46627,0.93291
395.454,45.26192,-3.31832,0.45577,0.93269
395.854,45.30087,-3.33572,0.44525,0.93248
396.254,45.33981,-3.35106,0.43503,0.93226
396.654,45.3787,-3.36587,0.42265,0.93204
397.054,45.41765,-3.38104,0.41421,0.93183
397.454,45.4565,-3.39598,0.40417,0.93161
397.854,45.49536,-3.41016,0.39572,0.9314
398.254,45.53406,-3.42395,0.38462,0.93118
398.654,45.57294,-3.43847,0.37584,0.93096
399.054,45.6119,-3.45174,0.36578,0.93074
399.454,45.65082,-3.46532,0.35616,0.93053
399.854,45.68974,-3.47816,0.34901,0.93031
400.254,45.7286,-3.49016,0.34073,0.93009
400.654,45.76766,-3.50247,0.33138,0.92987
401.054,45.80644,-3.51418,0.32277,0.92965
401.454,45.84527,-3.52473,0.31441,0.92943
401.854,45.88407,-3.53619,0.30784,0.92921
402.254,45.92295,-3.54697,0.29915,0.92899
402.654,45.9619,-3.55713,0.29163,0.92877
403.054,46.0006,-3.56679,0.28331,0.92855
403.454,46.03957,-3.57629,0.27745,0.92833
403.854,46.07861,-3.58606,0.26803,0.92811
404.254,46.1175,-3.59537,0.25841,0.92789
404.654,46.15644,-3.6039,0.25301,0.92767
405.054,46.19531,-3.61369,0.24706,0.92745
405.454,46.23425,-3.62137,0.24107,0.92722
405.854,46.27316,-3.62936,0.23289,0.927
406.254,46.312,-3.63669,0.22954,0.92678
406.654,46.3508,-3.64418,0.22334,0.92655
407.054,46.38981,-3.65058,0.21624,0.92633
407.454,46.42883,-3.65821,0.21318,0.92611
407.854,46.46779,-3.6653,0.20571,0.92588
408.254,46.50658,-3.67156,0.19862,0.92566
408.654,46.54537,-3.67808,0.19484,0.92543
409.054,46.58417,-3.6833,0.19323,0.92521
409.454,46.62292,-3.68901,0.18787,0.92498
409.854,46.66163,-3.69437,0.18331,0.92476
410.254,46.70053,-3.7002,0.178,0.92453
410.654,46.73946,-3.70456,0.17277,0.92431
411.054,46.77838,-3.70995,0.16736,0.92408
411.454,46.81732,-3.71477,0.1636,0.92385
411.854,46.85613,-3.71879,0.16003,0.92363
412.254,46.8951,-3.72305,0.15586,0.9234
412.654,46.93407,-3.72732,0.15348,0.92317
413.054,46.97293,-3.73093,0.14882,0.92294
413.454,47.012,-3.73509,0.14778,0.92271
413.854,47.05087,-3.73895,0.1436,0.92248
414.254,47.08977,-3.74204,0.1415,0.92226
414.654,47.12876,-3.74618,0.13779,0.92203
415.054,47.1674,-3.74952,0.13661,0.9218
415.454,47.20604,-3.75295,0.13316,0.92157
415.854,47.24496,-3.7545,0.129,0.92134
416.254,47.2841,-3.75766,0.12616,0.92111
416.654,47.323,-3.75989,0.12252,0.92088
417.054,47.36162,-3.76267,0.12071,0.92064
417.454,47.40078,-3.76519,0.11874,0.92041
417.854,47.43979,-3.76709,0.11525,0.92018
418.254,47.47872,-3.76927,0.11434,0.91995
418.654,47.51768,-3.77199,0.10965,0.91972
419.054,47.55684,-3.77346,0.10794,0.91948
419.454,47.59608,-3.77549,0.10628,0.91925
419.854,47.63514,-3.77808,0.10475,0.91902
420.254,47.67407,-3.7799,0.10203,0.91878
420.654,47.71321,-3.7812,0.10041,0.91855
421.054,47.7523,-3.78257,0.09928203,0.91832
421.454,47.7914,-3.7839,0.09701033,0.91808
421.854,47.83033,-3.78531,0.09685223,0.91785
422.254,47.86933,-3.78675,0.0937584,0.91761
422.654,47.90832,-3.78809,0.09130941,0.91738
423.054,47.94733,-3.79047,0.09180978,0.91714
423.454,47.9863,-3.79187,0.09082869,0.91691
423.854,48.02544,-3.79271,0.092324,0.91667
424.254,48.06449,-3.79397,0.08877138,0.91643
424.654,48.1038,-3.7944,0.08716059,0.9162
425.054,48.143,-3.79456,0.08836916,0.91596
425.454,48.18221,-3.79586,0.08804574,0.91572
425.854,48.2213,-3.79663,0.08799457,0.91548
426.254,48.26048,-3.79718,0.08813317,0.91525
426.654,48.2996,-3.7985,0.08670781,0.91501
427.054,48.33872,-3.79982,0.08524892,0.91477
427.454,48.37786,-3.79973,0.08468018,0.91453
427.854,48.41704,-3.80113,0.08319655,0.91429
428.254,48.45608,-3.80108,0.08297416,0.91405
428.654,48.49523,-3.80244,0.081996,0.91381
429.054,48.53441,-3.80241,0.08201803,0.91357
429.454,48.5736,-3.80375,0.08080798,0.91333
429.854,48.6128,-3.80493,0.08001884,0.91309
430.254,48.65222,-3.80508,0.07870401,0.91285
430.654,48.69141,-3.80505,0.07923693,0.91261
431.054,48.73064,-3.8064,0.07838164,0.91236
431.454,48.7699,-3.80772,0.07863547,0.91212
431.854,48.80899,-3.80777,0.07733626,0.91188
432.254,48.8483,-3.80636,0.07772123,0.91164
432.654,48.88752,-3.80771,0.07738569,0.91139
433.054,48.92687,-3.80902,0.07749239,0.91115
433.454,48.96607,-3.80918,0.07844113,0.91091
433.854,49.00522,-3.81,0.07645596,0.91066
434.254,49.04444,-3.81035,0.07556959,0.91042
434.654,49.08351,-3.81035,0.07519794,0.91017
435.054,49.12259,-3.81055,0.07555073,0.90993
435.454,49.16186,-3.81166,0.07408991,0.90968
435.854,49.2012,-3.81102,0.07368796,0.90944
436.254,49.2405,-3.81171,0.07451396,0.90919
436.654,49.27977,-3.81233,0.07615759,0.90895
437.054,49.31905,-3.81233,0.07488569,0.9087
437.454,49.35818,-3.81233,0.07396832,0.90845
437.854,49.39727,-3.81233,0.07373881,0.90821
438.254,49.4364,-3.81233,0.07413811,0.90796
438.654,49.4756,-3.81222,0.07435884,0.90771
439.054,49.51484,-3.81334,0.07387816,0.90747
439.454,49.5542,-3.81364,0.07446068,0.90722
439.854,49.59355,-3.81365,0.07468678,0.90697
440.254,49.63282,-3.81378,0.07364981,0.90672
440.654,49.6721,-3.81496,0.07316748,0.90647
441.054,49.7113,-3.81496,0.07411552,0.90622
441.454,49.75053,-3.81496,0.07344378,0.90597
441.854,49.78958,-3.81496,0.07429069,0.90572
442.254,49.8288,-3.81496,0.07457569,0.90547
442.654,49.86797,-3.81496,0.07205012,0.90522
443.054,49.90723,-3.81567,0.07227414,0.90497
443.454,49.94641,-3.81698,0.07251683,0.90472
443.854,49.9856,-3.81694,0.07315448,0.90447
444.254,50.02497,-3.81694,0.07484971,0.90421
444.654,50.06431,-3.81694,0.07399715,0.90396
445.054,50.1033,-3.81694,0.07355368,0.90371
445.454,50.14262,-3.81694,0.07452581,0.90346
445.854,50.18185,-3.81694,0.07554192,0.9032
446.254,50.22105,-3.81702,0.07678584,0.90295
446.654,50.26016,-3.8166,0.07627709,0.9027
447.054,50.29952,-3.81661,0.0758896,0.90244
447.454,50.3386,-3.81661,0.07640197,0.90219
447.854,50.37787,-3.81687,0.07537958,0.90193
448.254,50.41707,-3.81784,0.07862336,0.90168
448.654,50.4563,-3.81925,0.07614804,0.90142
449.054,50.49557,-3.81925,0.0784056,0.90117
449.454,50.5349,-3.81925,0.07793666,0.90091
449.854,50.57419,-3.81925,0.07787298,0.90066
450.254,50.61343,-3.81925,0.07855611,0.9004
450.654,50.65283,-3.81925,0.07711779,0.90014
451.054,50.692,-3.81925,0.07608033,0.89989
451.454,50.73111,-3.8197,0.07843884,0.89963
451.854,50.7703,-3.81925,0.07782074,0.89937
452.254,50.8093,-3.81925,0.07651354,0.89911
452.654,50.84831,-3.81925,0.0775583,0.89886
453.054,50.88749,-3.81925,0.07949138,0.8986
453.454,50.9268,-3.81925,0.07892083,0.89834
453.854,50.96608,-3.81922,0.07737322,0.89808
454.254,51.0054,-3.81957,0.07936748,0.89782
454.654,51.04472,-3.81957,0.07832603,0.89756
455.054,51.0839,-3.82028,0.07623563,0.8973
455.454,51.12305,-3.82188,0.08015347,0.89704
455.854,51.1623,-3.82188,0.07910455,0.89678
456.254,51.20155,-3.82188,0.07705463,0.89652
456.654,51.2408,-3.82188,0.07746635,0.89626
457.054,51.28008,-3.82188,0.0796313,0.89599
457.454,51.31921,-3.82188,0.07897989,0.89573
457.854,51.35842,-3.82188,0.07984162,0.89547
458.254,51.39763,-3.82112,0.07782653,0.89521
458.654,51.43699,-3.82058,0.07929017,0.89494
459.054,51.4763,-3.82193,0.07964193,0.89468
459.454,51.51577,-3.8218,0.08126438,0.89442
459.854,51.5551,-3.8232,0.07881528,0.89415
460.254,51.5944,-3.8232,0.07808624,0.89389
460.654,51.6338,-3.82249,0.07890514,0.89363
461.054,51.673,-3.82189,0.08039484,0.89336
461.454,51.71232,-3.82189,0.07939718,0.8931
461.854,51.75162,-3.8219,0.07816994,0.89283
462.254,51.7909,-3.82321,0.07781436,0.89257
462.654,51.8301,-3.82321,0.07758951,0.8923
463.054,51.86945,-3.82321,0.07780858,0.89203
463.454,51.90885,-3.82321,0.0798867,0.89177
463.854,51.9482,-3.82321,0.07912683,0.8915
464.254,51.9876,-3.82321,0.07893199,0.89123
464.654,52.02705,-3.82428,0.07932638,0.89097
465.054,52.0664,-3.82452,0.07777218,0.8907
465.454,52.10561,-3.82452,0.07934876,0.89043
465.854,52.14488,-3.82452,0.07879638,0.89016
466.254,52.18422,-3.82452,0.07753287,0.88989
466.654,52.22341,-3.82452,0.07770712,0.88962
467.054,52.26265,-3.82452,0.07898062,0.88935
467.454,52.30198,-3.82452,0.07833929,0.88908
467.854,52.34131,-3.82487,0.07942023,0.88881
468.254,52.3805,-3.82584,0.07897681,0.88854
468.654,52.41986,-3.82584,0.07878057,0.88827
469.054,52.45913,-3.82584,0.07885653,0.888
469.454,52.49836,-3.82584,0.07924825,0.88773
469.854,52.53762,-3.82585,0.07758558,0.88746
470.254,52.57689,-3.82684,0.07814757,0.88719
470.654,52.6162,-3.82683,0.07980323,0.88692
471.054,52.6556,-3.82683,0.07933786,0.88664
471.454,52.69474,-3.82683,0.07724286,0.88637
471.854,52.73424,-3.82683,0.08056849,0.8861
472.254,52.7737,-3.82683,0.08007326,0.88583
472.654,52.81315,-3.82618,0.07921815,0.88555
473.054,52.85258,-3.82551,0.08123503,0.88528
473.454,52.89218,-3.82659,0.08062138,0.885
473.854,52.9314,-3.82649,0.08024594,0.88473
474.254,52.97085,-3.82683,0.08004541,0.88445
474.654,53.01028,-3.82683,0.08045422,0.88418
475.054,53.04962,-3.82813,0.08052626,0.8839
475.454,53.08889,-3.82815,0.07851722,0.88363
475.854,53.1285,-3.82815,0.07862884,0.88335
476.254,53.16786,-3.82815,0.07905116,0.88308
476.654,53.20698,-3.82815,0.0777702,0.8828
477.054,53.2461,-3.82815,0.07893043,0.88252
477.454,53.28544,-3.82815,0.08063947,0.88225
477.854,53.32484,-3.82815,0.07900234,0.88197
478.254,53.3642,-3.82891,0.08159638,0.88169
478.654,53.4035,-3.82946,0.08010487,0.88141
479.054,53.44335,-3.82962,0.08057517,0.88113
479.454,53.48284,-3.83078,0.07955129,0.88086
479.854,53.5223,-3.83078,0.07969398,0.88058
480.254,53.56185,-3.83078,0.08193974,0.8803
480.654,53.6014,-3.83078,0.08239994,0.88002
481.054,53.641,-3.83078,0.08304504,0.87974
481.454,53.68039,-3.83078,0.08391321,0.87946
481.854,53.7198,-3.83078,0.08223551,0.87918
482.254,53.75923,-3.83078,0.08229541,0.8789
482.654,53.7987,-3.83078,0.08304776,0.87861
483.054,53.83815,-3.83214,0.08039159,0.87833
483.454,53.87749,-3.8321,0.08320877,0.87805
483.854,53.917,-3.8321,0.08160954,0.87777
484.254,53.9564,-3.8321,0.08311648,0.87749
484.654,53.9958,-3.8321,0.08249143,0.8772
485.054,54.03526,-3.83259,0.082377,0.87692
485.454,54.0747,-3.83342,0.08282962,0.87664
485.854,54.1143,-3.83342,0.08303751,0.87635
486.254,54.1537,-3.83347,0.08254251,0.87607
486.654,54.19322,-3.83276,0.08448093,0.87579
487.054,54.2327,-3.83276,0.08382409,0.8755
487.454,54.2722,-3.83276,0.08360483,0.87522
487.854,54.3117,-3.83276,0.08429274,0.87493
488.254,54.3512,-3.83275,0.08416485,0.87465
488.654,54.39066,-3.83407,0.08545129,0.87436
489.054,54.4302,-3.83407,0.08467571,0.87408
489.454,54.46963,-3.83407,0.08622853,0.87379
489.854,54.5091,-3.8334,0.08452915,0.8735
490.254,54.54871,-3.83341,0.0855783,0.87322
490.654,54.58831,-3.83341,0.08532338,0.87293
491.054,54.6277,-3.83342,0.08609701,0.87264
491.454,54.66711,-3.83476,0.0867102,0.87235
491.854,54.70655,-3.83432,0.08647244,0.87207
492.254,54.7461,-3.83374,0.08487193,0.87178
492.654,54.78549,-3.83374,0.08593188,0.87149
493.054,54.8251,-3.83461,0.0856083,0.8712
493.454,54.86481,-3.83506,0.08585556,0.87091
493.854,54.90439,-3.83506,0.08650049,0.87062
494.254,54.9441,-3.83605,0.08519172,0.87033
494.654,54.98367,-3.83638,0.08502809,0.87004
494.754,54.99349,-3.83638,0.08660289,0.86997