File: 01_Data/PUF_Mattress_Pad/STA/N2/10K_min/PUF_Mattress_Pad_STA_N2_10KData_22091_R2.csv
##Temp./Â°C,Time/min,Mass loss(subtr.2)/mg,DSC(subtr.2)/(mW/mg),Sensit./(uV/mW)
50.329,10.01,0.00604,0.003443205,1.02683
50.729,10.7079,0.00660922,0.02610972,1.02679
51.129,10.88884,0.005366344,0.04468137,1.02676
51.529,11.02323,0.007250197,0.05678887,1.02672
51.929,11.13545,0.00708603,0.06739836,1.02669
52.329,11.23431,0.007925406,0.07741711,1.02665
52.729,11.32594,0.0075518,0.08759158,1.02662
53.129,11.40971,0.007800252,0.09511793,1.02658
53.529,11.48598,0.007507305,0.1021,1.02655
53.929,11.56025,0.006622365,0.11117,1.02651
54.329,11.63239,0.00799587,0.11306,1.02648
54.729,11.70262,0.00811881,0.11981,1.02644
55.129,11.76897,0.00838122,0.12359,1.02641
55.529,11.8332,0.009276453,0.12828,1.02637
55.929,11.8959,0.007328906,0.13453,1.02634
56.329,11.95739,0.006325936,0.13672,1.0263
56.729,12.0177,0.00680069,0.14234,1.02627
57.129,12.07703,0.009215512,0.14448,1.02623
57.529,12.13525,0.009030994,0.14718,1.02619
57.929,12.19245,0.007892051,0.14974,1.02616
58.329,12.24895,0.007787243,0.15409,1.02612
58.729,12.3047,0.00676163,0.15782,1.02608
59.129,12.3597,0.00921373,0.15902,1.02605
59.529,12.41434,0.00803171,0.16192,1.02601
59.929,12.46824,0.00809881,0.16429,1.02598
60.329,12.5216,0.007529708,0.16394,1.02594
60.729,12.57366,0.00757823,0.16839,1.0259
61.129,12.62541,0.007518235,0.16919,1.02586
61.529,12.6774,0.00694257,0.16945,1.02583
61.929,12.72904,0.005819449,0.17193,1.02579
62.329,12.78122,0.005832977,0.17195,1.02575
62.729,12.8325,0.008585839,0.17209,1.02572
63.129,12.88288,0.0086366,0.17595,1.02568
63.529,12.933,0.00855312,0.17652,1.02564
63.929,12.98235,0.00723378,0.17832,1.0256
64.329,13.03187,0.007109645,0.17916,1.02557
64.729,13.08145,0.007217845,0.18128,1.02553
65.129,13.13057,0.00663244,0.1824,1.02549
65.529,13.1796,0.00654482,0.18326,1.02545
65.929,13.22841,0.00644373,0.18551,1.02541
66.329,13.27653,0.006564382,0.18535,1.02538
66.729,13.3244,0.00743948,0.18707,1.02534
67.129,13.37209,0.00734076,0.18712,1.0253
67.529,13.41944,0.00870802,0.18873,1.02526
67.929,13.4673,0.008444792,0.19043,1.02522
68.329,13.51416,0.00810203,0.19101,1.02518
68.729,13.56151,0.007155009,0.19207,1.02514
69.129,13.6082,0.00711006,0.19232,1.0251
69.529,13.6545,0.00586559,0.19182,1.02506
69.929,13.70081,0.006300109,0.19425,1.02503
70.329,13.747,0.006192385,0.19433,1.02499
70.729,13.7929,0.00721268,0.19583,1.02495
71.129,13.83879,0.005865053,0.19803,1.02491
71.529,13.88451,0.005943876,0.1979,1.02487
71.929,13.93002,0.00593134,0.19792,1.02483
72.329,13.97545,0.007254205,0.1992,1.02479
72.729,14.021,0.00633783,0.19958,1.02475
73.129,14.0661,0.006845513,0.19959,1.02471
73.529,14.1112,0.007251891,0.20252,1.02467
73.929,14.1565,0.00605432,0.20099,1.02463
74.329,14.20129,0.00724963,0.20169,1.02459
74.729,14.24591,0.00708704,0.20093,1.02455
75.129,14.29084,0.007971028,0.20148,1.0245
75.529,14.3353,0.007294814,0.20248,1.02446
75.929,14.3797,0.00723061,0.20143,1.02442
76.329,14.424,0.00733889,0.20429,1.02438
76.729,14.468,0.008486037,0.20453,1.02434
77.129,14.5114,0.00729907,0.20279,1.0243
77.529,14.55464,0.008539883,0.20319,1.02426
77.929,14.59826,0.007237469,0.20511,1.02422
78.329,14.64189,0.00737935,0.20439,1.02417
78.729,14.6856,0.008476078,0.20184,1.02413
79.129,14.72966,0.008533826,0.20262,1.02409
79.529,14.7736,0.007240161,0.20311,1.02405
79.929,14.81691,0.008512708,0.20495,1.02401
80.329,14.8601,0.00724899,0.20443,1.02396
80.729,14.9028,0.008524416,0.20455,1.02392
81.129,14.94537,0.00723153,0.20608,1.02388
81.529,14.9882,0.00634947,0.20559,1.02384
81.929,15.0309,0.00725108,0.2068,1.02379
82.329,15.07363,0.00730613,0.20711,1.02375
82.729,15.1166,0.007324368,0.20669,1.02371
83.129,15.1596,0.006040172,0.20859,1.02367
83.529,15.202,0.006050041,0.20788,1.02362
83.929,15.24425,0.007410806,0.20839,1.02358
84.329,15.2863,0.00640429,0.20768,1.02354
84.729,15.3282,0.007554505,0.20947,1.02349
85.129,15.37004,0.00866995,0.20837,1.02345
85.529,15.4118,0.008597145,0.20801,1.0234
85.929,15.45369,0.008638385,0.20773,1.02336
86.329,15.4956,0.009064223,0.2077,1.02332
86.729,15.5373,0.008679753,0.20886,1.02327
87.129,15.5789,0.008669993,0.20824,1.02323
87.529,15.6209,0.008667879,0.20954,1.02318
87.929,15.66189,0.007309933,0.21064,1.02314
88.329,15.70331,0.00707169,0.21097,1.0231
88.729,15.7447,0.005958995,0.21025,1.02305
89.129,15.78621,0.006024675,0.21025,1.02301
89.529,15.82722,0.00603947,0.20901,1.02296
89.929,15.8687,0.005983196,0.20987,1.02292
90.329,15.90971,0.00735983,0.21006,1.02287
90.729,15.95049,0.00739062,0.20849,1.02283
91.129,15.99117,0.008680343,0.20756,1.02278
91.529,16.03194,0.008698865,0.20885,1.02273
91.929,16.07287,0.007328198,0.20841,1.02269
92.329,16.11372,0.007150639,0.20989,1.02264
92.729,16.15464,0.005848061,0.21093,1.0226
93.129,16.19564,0.00451193,0.20789,1.02255
93.529,16.23637,0.004496329,0.20816,1.0225
93.929,16.27705,0.00568845,0.2099,1.02246
94.329,16.31759,0.005916415,0.21175,1.02241
94.729,16.35785,0.00584897,0.21234,1.02236
95.129,16.39796,0.004510431,0.21124,1.02232
95.529,16.4382,0.004494796,0.20981,1.02227
95.929,16.4785,0.005802946,0.21067,1.02222
96.329,16.51866,0.005854115,0.21085,1.02218
96.729,16.55902,0.006416379,0.21227,1.02213
97.129,16.59939,0.005810369,0.21321,1.02208
97.529,16.63951,0.005784447,0.21115,1.02204
97.929,16.67934,0.006534865,0.21237,1.02199
98.329,16.71935,0.00581941,0.21161,1.02194
98.729,16.75936,0.005788021,0.21125,1.02189
99.129,16.79909,0.007184159,0.21283,1.02184
99.529,16.83898,0.00582044,0.21109,1.0218
99.929,16.87888,0.00583405,0.2132,1.02175
100.329,16.91866,0.00713151,0.21159,1.0217
100.729,16.95842,0.00713971,0.21392,1.02165
101.129,16.9983,0.008467695,0.21231,1.0216
101.529,17.03807,0.00853343,0.21271,1.02155
101.929,17.07786,0.00718571,0.21347,1.0215
102.329,17.11757,0.00708365,0.21243,1.02146
102.729,17.15731,0.008532954,0.21187,1.02141
103.129,17.19686,0.007137501,0.21372,1.02136
103.529,17.2364,0.006868034,0.2138,1.02131
103.929,17.27603,0.00714234,0.21389,1.02126
104.329,17.3155,0.00604924,0.21307,1.02121
104.729,17.35497,0.005904441,0.21363,1.02116
105.129,17.3944,0.00578664,0.21409,1.02111
105.529,17.43376,0.005809978,0.21302,1.02106
105.929,17.473,0.005835175,0.21366,1.02101
106.329,17.51234,0.007118995,0.21364,1.02096
106.729,17.55159,0.00581527,0.21334,1.02091
107.129,17.591,0.00581998,0.21381,1.02086
107.529,17.63041,0.00582,0.21476,1.02081
107.929,17.67008,0.005819911,0.21347,1.02076
108.329,17.70937,0.00715167,0.21404,1.02071
108.729,17.7489,0.00585885,0.21473,1.02065
109.129,17.78811,0.005820367,0.21486,1.0206
109.529,17.8275,0.00581973,0.21457,1.02055
109.929,17.86669,0.005662635,0.21418,1.0205
110.329,17.9059,0.00622793,0.21546,1.02045
110.729,17.94514,0.005787677,0.21352,1.0204
111.129,17.98441,0.005792213,0.21526,1.02034
111.529,18.02351,0.00568489,0.2147,1.02029
111.929,18.06271,0.00579562,0.21386,1.02024
112.329,18.10203,0.004492296,0.21448,1.02019
112.729,18.14114,0.005805748,0.21451,1.02014
113.129,18.18034,0.00581853,0.2149,1.02008
113.529,18.21951,0.004502345,0.21454,1.02003
113.929,18.2587,0.004500039,0.21399,1.01998
114.329,18.29786,0.00450098,0.21372,1.01992
114.729,18.33696,0.004945134,0.21459,1.01987
115.129,18.376,0.00549096,0.21331,1.01982
115.529,18.41516,0.00549048,0.21329,1.01976
115.929,18.4543,0.00471183,0.21385,1.01971
116.329,18.49315,0.004266893,0.2132,1.01966
116.729,18.5321,0.004512976,0.21222,1.0196
117.129,18.57116,0.005823831,0.21073,1.01955
117.529,18.61003,0.00581957,0.21082,1.01949
117.929,18.649,0.00546166,0.2119,1.01944
118.329,18.68797,0.004645176,0.21338,1.01939
118.729,18.72724,0.004501,0.21327,1.01933
119.129,18.76633,0.004502169,0.21303,1.01928
119.529,18.80547,0.005066,0.21394,1.01922
119.929,18.84447,0.004514235,0.21303,1.01917
120.329,18.88336,0.004499734,0.21345,1.01911
120.729,18.92231,0.005054897,0.21384,1.01906
121.129,18.9612,0.005818937,0.21216,1.019
121.529,19.00021,0.005819999,0.21367,1.01895
121.929,19.03899,0.00581998,0.21183,1.01889
122.329,19.078,0.00581296,0.21164,1.01883
122.729,19.11686,0.00574152,0.21113,1.01878
123.129,19.15557,0.00581945,0.21239,1.01872
123.529,19.19436,0.005819995,0.21063,1.01867
123.929,19.23331,0.00581967,0.20934,1.01861
124.329,19.27219,0.005778195,0.21068,1.01855
124.729,19.31097,0.007082629,0.21064,1.0185
125.129,19.3499,0.005814262,0.20958,1.01844
125.529,19.38875,0.00581081,0.20889,1.01838
125.929,19.42742,0.006097686,0.20943,1.01832
126.329,19.46612,0.00581751,0.20886,1.01827
126.729,19.50459,0.005819984,0.20826,1.01821
127.129,19.54331,0.005819994,0.20882,1.01815
127.529,19.5822,0.00581921,0.20819,1.01809
127.929,19.62071,0.00446415,0.20818,1.01804
128.329,19.65934,0.004500215,0.20584,1.01798
128.729,19.69828,0.004500711,0.2081,1.01792
129.129,19.73685,0.004895177,0.20827,1.01786
129.529,19.77535,0.00514034,0.20889,1.0178
129.929,19.81419,0.00521515,0.20761,1.01775
130.329,19.85289,0.00539323,0.20864,1.01769
130.729,19.8916,0.00581927,0.20971,1.01763
131.129,19.93036,0.00582,0.20849,1.01757
131.529,19.96912,0.005820212,0.20829,1.01751
131.929,20.00773,0.004668561,0.20928,1.01745
132.329,20.0463,0.00578839,0.20943,1.01739
132.729,20.08475,0.00678958,0.20775,1.01733
133.129,20.12334,0.00580753,0.2065,1.01727
133.529,20.1617,0.00712043,0.20755,1.01721
133.929,20.2003,0.007130086,0.20617,1.01715
134.329,20.2389,0.005822852,0.2057,1.01709
134.729,20.27732,0.00582004,0.20651,1.01703
135.129,20.3159,0.00582,0.20478,1.01697
135.529,20.35451,0.00582,0.20426,1.01691
135.929,20.3927,0.00582,0.20483,1.01685
136.329,20.43062,0.00582,0.20496,1.01679
136.729,20.46902,0.005819982,0.20581,1.01673
137.129,20.50744,0.00581349,0.20482,1.01666
137.529,20.54584,0.007109083,0.20377,1.0166
137.929,20.58427,0.00712987,0.20414,1.01654
138.329,20.62324,0.00713002,0.20492,1.01648
138.729,20.66179,0.0071322,0.20572,1.01642
139.129,20.70008,0.005809575,0.20562,1.01635
139.529,20.73824,0.00552779,0.20579,1.01629
139.929,20.77662,0.004179377,0.20584,1.01623
140.329,20.81503,0.004170043,0.20432,1.01617
140.729,20.8533,0.004166703,0.20505,1.0161
141.129,20.89149,0.004870458,0.20584,1.01604
141.529,20.93007,0.004172264,0.20587,1.01598
141.929,20.96826,0.004169654,0.20622,1.01592
142.329,21.0065,0.004169996,0.20745,1.01585
142.729,21.04467,0.004169905,0.20687,1.01579
143.129,21.08295,0.004157748,0.20746,1.01572
143.529,21.1211,0.004128355,0.20666,1.01566
143.929,21.15932,0.004174985,0.20704,1.0156
144.329,21.19729,0.00551822,0.20763,1.01553
144.729,21.2354,0.00549205,0.20712,1.01547
145.129,21.27366,0.005803587,0.20675,1.0154
145.529,21.31202,0.006820372,0.20648,1.01534
145.929,21.35021,0.00548174,0.20676,1.01527
146.329,21.38842,0.005437809,0.2067,1.01521
146.729,21.42675,0.00646737,0.2071,1.01514
147.129,21.465,0.00651838,0.20492,1.01508
147.529,21.5031,0.005163692,0.20536,1.01501
147.929,21.54117,0.0051497,0.20693,1.01495
148.329,21.57931,0.003883812,0.20684,1.01488
148.729,21.61747,0.00383865,0.20718,1.01482
149.129,21.65555,0.004200768,0.20553,1.01475
149.529,21.69363,0.00420448,0.20542,1.01468
149.929,21.73177,0.005461866,0.20661,1.01462
150.329,21.76975,0.006800223,0.20762,1.01455
150.729,21.80771,0.00680367,0.20407,1.01448
151.129,21.84577,0.007841515,0.20562,1.01442
151.529,21.884,0.007790318,0.20482,1.01435
151.929,21.92207,0.007790002,0.20462,1.01428
152.329,21.96019,0.00779,0.20329,1.01422
152.729,21.9984,0.00779,0.20475,1.01415
153.129,22.03667,0.007789992,0.20293,1.01408
153.529,22.07469,0.007788635,0.20413,1.01401
153.929,22.1128,0.00638796,0.2045,1.01394
154.329,22.1508,0.006480314,0.20294,1.01388
154.729,22.18839,0.00595411,0.20216,1.01381
155.129,22.2264,0.005157793,0.20401,1.01374
155.529,22.26456,0.004352117,0.20511,1.01367
155.929,22.30258,0.00384404,0.20443,1.0136
156.329,22.3403,0.003159398,0.2038,1.01353
156.729,22.3789,0.002867057,0.2036,1.01346
157.129,22.41725,0.00419819,0.2029,1.01339
157.529,22.45536,0.004170105,0.20465,1.01332
157.929,22.49353,0.004151638,0.20419,1.01325
158.329,22.53194,0.002853675,0.20535,1.01318
158.729,22.5701,0.004170341,0.20461,1.01311
159.129,22.60817,0.004169951,0.20535,1.01304
159.529,22.64635,0.00417,0.20578,1.01297
159.929,22.68445,0.00417,0.20589,1.0129
160.329,22.72253,0.004169995,0.20558,1.01283
160.729,22.76061,0.004169803,0.20456,1.01276
161.129,22.79864,0.004231583,0.20611,1.01269
161.529,22.8367,0.002851396,0.20429,1.01262
161.929,22.8748,0.002873472,0.20516,1.01255
162.329,22.9127,0.00417611,0.20553,1.01248
162.729,22.95084,0.00417001,0.20572,1.0124
163.129,22.9888,0.00417,0.20393,1.01233
163.529,23.02656,0.004169748,0.20555,1.01226
163.929,23.06466,0.004126826,0.20503,1.01219
164.329,23.10264,0.004598675,0.20593,1.01212
164.729,23.14068,0.00417033,0.20631,1.01204
165.129,23.1784,0.004169995,0.20764,1.01197
165.529,23.21663,0.00417,0.20638,1.0119
165.929,23.2549,0.004169991,0.20677,1.01182
166.329,23.29307,0.00416886,0.206,1.01175
166.729,23.3312,0.00408779,0.20425,1.01168
167.129,23.36939,0.00284312,0.20564,1.0116
167.529,23.40788,0.004164163,0.20716,1.01153
167.929,23.44586,0.004169941,0.20757,1.01145
168.329,23.48385,0.0041699,0.20726,1.01138
168.729,23.52178,0.00415922,0.20713,1.01131
169.129,23.55979,0.002850904,0.20681,1.01123
169.529,23.59765,0.00284962,0.20737,1.01116
169.929,23.63554,0.002754515,0.20695,1.01108
170.329,23.6736,0.004168149,0.20538,1.01101
170.729,23.71184,0.004169993,0.20508,1.01093
171.129,23.74993,0.00417,0.20507,1.01086
171.529,23.788,0.004169981,0.20535,1.01078
171.929,23.82641,0.004165435,0.20692,1.0107
172.329,23.86438,0.004983432,0.20521,1.01063
172.729,23.9025,0.00365216,0.20465,1.01055
173.129,23.94049,0.004169638,0.20476,1.01048
173.529,23.97863,0.004170007,0.20531,1.0104
173.929,24.01683,0.00417,0.20579,1.01032
174.329,24.05487,0.004170001,0.20297,1.01025
174.729,24.09303,0.004170081,0.2034,1.01017
175.129,24.13109,0.004175531,0.20244,1.01009
175.529,24.1692,0.0054863,0.20509,1.01001
175.929,24.2072,0.005489796,0.20428,1.00994
176.329,24.2453,0.005464869,0.20525,1.00986
176.729,24.2835,0.004163489,0.20404,1.00978
177.129,24.32176,0.004169975,0.20209,1.0097
177.529,24.35995,0.00417,0.20108,1.00962
177.929,24.39783,0.004170005,0.20068,1.00955
178.329,24.43586,0.004171101,0.20111,1.00947
178.729,24.47363,0.003576277,0.20144,1.00939
179.129,24.51142,0.002866538,0.202,1.00931
179.529,24.54947,0.0028746,0.2012,1.00923
179.929,24.58754,0.001546869,0.20059,1.00915
180.329,24.6261,0.001565971,0.2004,1.00907
180.729,24.66434,0.002940257,0.19933,1.00899
181.129,24.70283,0.001531756,0.1995,1.00891
181.529,24.741,0.001530004,0.19848,1.00883
181.929,24.7791,0.001530058,0.19913,1.00875
182.329,24.81707,0.001554945,0.19921,1.00867
182.729,24.855,0.002856811,0.19827,1.00859
183.129,24.89294,0.002880448,0.19912,1.00851
183.529,24.93084,0.00153598,0.19816,1.00843
183.929,24.9686,0.00152985,0.19756,1.00835
184.329,25.00639,0.001503939,0.19762,1.00826
184.729,25.04434,0.002183159,0.19606,1.00818
185.129,25.08227,0.002189958,0.19814,1.0081
185.529,25.12025,0.002189794,0.19717,1.00802
185.929,25.1583,0.002757275,0.19799,1.00794
186.329,25.19616,0.00284895,0.19718,1.00785
186.729,25.23431,0.00284413,0.19918,1.00777
187.129,25.2724,0.004001655,0.19593,1.00769
187.529,25.31043,0.004169946,0.19665,1.00761
187.929,25.34863,0.004180034,0.19563,1.00752
188.329,25.38697,0.00319008,0.19533,1.00744
188.729,25.42495,0.003167198,0.19495,1.00736
189.129,25.46288,0.001820068,0.19409,1.00727
189.529,25.50091,0.001838314,0.19375,1.00719
189.929,25.53888,0.000500662,0.19431,1.0071
190.329,25.57689,0.001868971,0.195,1.00702
190.729,25.61489,0.001876514,0.19521,1.00693
191.129,25.65296,0.0005751393,0.19518,1.00685
191.529,25.69099,0.000550065,0.195,1.00676
191.929,25.7289,0.0005499995,0.19587,1.00668
192.329,25.76681,0.00055,0.19544,1.00659
192.729,25.80446,0.00055,0.19567,1.00651
193.129,25.84251,0.00055,0.1945,1.00642
193.529,25.88042,0.00055,0.19637,1.00634
193.929,25.91841,0.00055,0.19733,1.00625
194.329,25.9561,0.00055,0.19541,1.00617
194.729,25.99407,0.00055,0.1968,1.00608
195.129,26.03216,0.0005500002,0.19621,1.00599
195.529,26.06991,0.0005499985,0.19553,1.00591
195.929,26.10802,0.0005453501,0.19753,1.00582
196.329,26.1461,0.00183995,0.19627,1.00573
196.729,26.18443,0.001837888,0.19656,1.00564
197.129,26.2226,0.00053357,0.19731,1.00556
197.529,26.2609,0.0005399837,0.19822,1.00547
197.929,26.299,0.0005400026,0.19712,1.00538
198.329,26.33693,0.000540967,0.19817,1.00529
198.729,26.3749,0.0007946556,0.19727,1.0052
199.129,26.4128,0.001700162,0.19794,1.00511
199.529,26.45069,0.001210492,0.19677,1.00503
199.929,26.4886,0.00120999,0.19899,1.00494
200.329,26.52658,0.001209869,0.20054,1.00485
200.729,26.56454,0.001156662,0.19947,1.00476
201.129,26.60248,-0.000116273,0.2007,1.00467
201.529,26.6405,-0.00010998,0.20058,1.00458
201.929,26.6785,-0.0001230034,0.20038,1.00449
202.329,26.7166,-0.000756529,0.20054,1.0044
202.729,26.75455,-0.000724631,0.1984,1.00431
203.129,26.79245,-0.002077668,0.20015,1.00422
203.529,26.8305,-0.002089982,0.20256,1.00413
203.929,26.86845,-0.002089999,0.20264,1.00404
204.329,26.90635,-0.002089501,0.20131,1.00394
204.729,26.9444,-0.001978658,0.20125,1.00385
205.129,26.9824,-0.001429224,0.20124,1.00376
205.529,27.0205,-0.002777514,0.20281,1.00367
205.929,27.0585,-0.002749459,0.20312,1.00358
206.329,27.09635,-0.00274863,0.2027,1.00349
206.729,27.1342,-0.002481488,0.20345,1.00339
207.129,27.1722,-0.002090503,0.2029,1.0033
207.529,27.2102,-0.002078299,0.20348,1.00321
207.929,27.2483,-0.0001168236,0.20414,1.00311
208.329,27.2865,-0.000103121,0.20345,1.00302
208.729,27.3246,-0.001405491,0.20482,1.00293
209.129,27.3627,-0.00154631,0.20514,1.00283
209.529,27.40072,-0.0027514,0.20622,1.00274
209.929,27.4387,-0.00274998,0.20654,1.00265
210.329,27.4768,-0.00275,0.20486,1.00255
210.729,27.51475,-0.002750005,0.20508,1.00246
211.129,27.5529,-0.002750693,0.20609,1.00236
211.529,27.591,-0.002790833,0.20603,1.00227
211.929,27.629,-0.003739207,0.20734,1.00217
212.329,27.667,-0.003739986,0.20591,1.00208
212.729,27.70518,-0.00374,0.20627,1.00198
213.129,27.7429,-0.00374,0.20613,1.00189
213.529,27.78094,-0.003739966,0.20899,1.00179
213.929,27.81895,-0.003745379,0.20795,1.00169
214.329,27.85707,-0.00448386,0.20868,1.0016
214.729,27.89508,-0.005386094,0.20974,1.0015
215.129,27.93331,-0.00647201,0.20991,1.0014
215.529,27.97155,-0.00714861,0.21088,1.00131
215.929,28.0095,-0.007679641,0.20927,1.00121
216.329,28.0475,-0.0080275,0.21145,1.00111
216.729,28.08554,-0.008010155,0.21404,1.00101
217.129,28.12364,-0.00800973,0.21377,1.00092
217.529,28.16171,-0.007986634,0.21304,1.00082
217.929,28.1999,-0.008669709,0.21272,1.00072
218.329,28.238,-0.00866996,0.21519,1.00062
218.729,28.2762,-0.00867,0.21553,1.00052
219.129,28.31421,-0.00866959,0.21665,1.00042
219.529,28.35215,-0.008629091,0.21676,1.00033
219.929,28.39,-0.009990005,0.21599,1.00023
220.329,28.42802,-0.01000113,0.21877,1.00013
220.729,28.466,-0.01135137,0.21982,1.00003
221.129,28.5039,-0.01126837,0.21988,0.99993
221.529,28.54208,-0.01261848,0.21903,0.99983
221.929,28.5801,-0.01262999,0.22075,0.99973
222.329,28.6181,-0.01264309,0.22152,0.99963
222.729,28.65614,-0.01165276,0.22313,0.99953
223.129,28.694,-0.01163987,0.2252,0.99942
223.529,28.7319,-0.01162109,0.22409,0.99932
223.929,28.7699,-0.01296063,0.22367,0.99922
224.329,28.80808,-0.01291919,0.22478,0.99912
224.729,28.8461,-0.01460632,0.22814,0.99902
225.129,28.8842,-0.01559517,0.22816,0.99892
225.529,28.9223,-0.01576689,0.22816,0.99881
225.929,28.96033,-0.01690154,0.22787,0.99871
226.329,28.99826,-0.0182093,0.2298,0.99861
226.729,29.0363,-0.01821986,0.22993,0.99851
227.129,29.07429,-0.01821408,0.23137,0.9984
227.529,29.1125,-0.01937864,0.23415,0.9983
227.929,29.15052,-0.01953997,0.23169,0.9982
228.329,29.1887,-0.01953998,0.23291,0.99809
228.729,29.2268,-0.01953306,0.23451,0.99799
229.129,29.2649,-0.02083534,0.2368,0.99788
229.529,29.30292,-0.02087406,0.23689,0.99778
229.929,29.3411,-0.02315665,0.23935,0.99767
230.329,29.37915,-0.02349634,0.23969,0.99757
230.729,29.41708,-0.02418826,0.2407,0.99746
231.129,29.45518,-0.02481046,0.24322,0.99736
231.529,29.4932,-0.02481009,0.24249,0.99725
231.929,29.53112,-0.02481578,0.24345,0.99715
232.329,29.569,-0.02612531,0.24678,0.99704
232.729,29.60735,-0.02608216,0.24719,0.99694
233.129,29.64537,-0.02743773,0.24882,0.99683
233.529,29.6835,-0.02745103,0.2506,0.99672
233.929,29.7217,-0.02883075,0.25129,0.99662
234.329,29.7598,-0.03006784,0.2519,0.99651
234.729,29.7975,-0.03053152,0.25563,0.9964
235.129,29.8355,-0.03140503,0.25503,0.99629
235.529,29.87358,-0.03281807,0.25518,0.99619
235.929,29.9117,-0.03271975,0.25972,0.99608
236.329,29.94977,-0.03466753,0.25932,0.99597
236.729,29.9882,-0.03535543,0.26319,0.99586
237.129,30.0265,-0.03663678,0.26359,0.99575
237.529,30.0647,-0.03662398,0.26647,0.99564
237.929,30.10275,-0.03796882,0.2675,0.99553
238.329,30.14077,-0.04034039,0.26924,0.99542
238.729,30.17888,-0.04056771,0.27185,0.99532
239.129,30.217,-0.04192907,0.27254,0.99521
239.529,30.2551,-0.04193179,0.2743,0.9951
239.929,30.29322,-0.04334674,0.27695,0.99498
240.329,30.3313,-0.04334027,0.28085,0.99487
240.729,30.3694,-0.04453993,0.28127,0.99476
241.129,30.4074,-0.04590998,0.28264,0.99465
241.529,30.44555,-0.04732209,0.28492,0.99454
241.929,30.4836,-0.04869239,0.28808,0.99443
242.329,30.52155,-0.0499863,0.28919,0.99432
242.729,30.55958,-0.04992744,0.29265,0.99421
243.129,30.59767,-0.05126324,0.29664,0.99409
243.529,30.6356,-0.05254271,0.29899,0.99398
243.929,30.6736,-0.05408275,0.29949,0.99387
244.329,30.7117,-0.05545331,0.30267,0.99376
244.729,30.74977,-0.05773036,0.3056,0.99364
245.129,30.7878,-0.05803945,0.30944,0.99353
245.529,30.826,-0.0593812,0.31196,0.99342
245.929,30.86412,-0.0609932,0.31434,0.9933
246.329,30.9022,-0.06234573,0.31564,0.99319
246.729,30.94033,-0.06369539,0.31971,0.99308
247.129,30.9784,-0.06498505,0.32332,0.99296
247.529,31.0165,-0.06631763,0.32472,0.99285
247.929,31.05453,-0.06763264,0.32892,0.99273
248.329,31.0926,-0.06898654,0.33006,0.99262
248.729,31.13076,-0.07183626,0.3334,0.9925
249.129,31.1688,-0.07356894,0.33652,0.99239
249.529,31.2069,-0.07599686,0.3387,0.99227
249.929,31.2449,-0.07614831,0.34219,0.99215
250.329,31.2831,-0.0777409,0.34429,0.99204
250.729,31.3212,-0.07903525,0.34856,0.99192
251.129,31.3593,-0.0804195,0.35286,0.9918
251.529,31.39757,-0.08185995,0.35733,0.99169
251.929,31.4358,-0.08364798,0.36045,0.99157
252.329,31.47395,-0.08507118,0.36419,0.99145
252.729,31.51217,-0.08663172,0.37006,0.99134
253.129,31.5502,-0.08815943,0.37079,0.99122
253.529,31.5882,-0.08951862,0.37756,0.9911
253.929,31.62613,-0.09091688,0.37998,0.99098
254.329,31.6641,-0.09259161,0.38482,0.99086
254.729,31.70218,-0.09405797,0.38657,0.99074
255.129,31.74033,-0.09829841,0.39243,0.99063
255.529,31.77849,-0.09975105,0.39477,0.99051
255.929,31.81666,-0.10204,0.40036,0.99039
256.329,31.8549,-0.10405,0.40358,0.99027
256.729,31.89306,-0.10726,0.40653,0.99015
257.129,31.9312,-0.10855,0.41129,0.99003
257.529,31.96939,-0.11136,0.41472,0.98991
257.929,32.0075,-0.11353,0.41844,0.98979
258.329,32.0458,-0.11528,0.42478,0.98966
258.729,32.08404,-0.11798,0.42804,0.98954
259.129,32.12227,-0.11982,0.4319,0.98942
259.529,32.16048,-0.12298,0.43832,0.9893
259.929,32.1986,-0.12422,0.44214,0.98918
260.329,32.23679,-0.12584,0.44702,0.98906
260.729,32.2748,-0.12866,0.45024,0.98893
261.129,32.313,-0.13166,0.45704,0.98881
261.529,32.35076,-0.13377,0.46384,0.98869
261.929,32.38872,-0.13704,0.46757,0.98857
262.329,32.4268,-0.14138,0.47352,0.98844
262.729,32.46492,-0.14389,0.47695,0.98832
263.129,32.50312,-0.14695,0.4851,0.98819
263.529,32.54143,-0.14842,0.49033,0.98807
263.929,32.5801,-0.14997,0.49462,0.98795
264.329,32.6181,-0.1527,0.49987,0.98782
264.729,32.6564,-0.15547,0.50497,0.9877
265.129,32.69465,-0.15875,0.5117,0.98757
265.529,32.73284,-0.16252,0.51814,0.98745
265.929,32.77086,-0.16444,0.5245,0.98732
266.329,32.80925,-0.16701,0.52988,0.9872
266.729,32.84765,-0.16955,0.5361,0.98707
267.129,32.88576,-0.17286,0.54319,0.98694
267.529,32.92398,-0.17573,0.54986,0.98682
267.929,32.9621,-0.17862,0.55576,0.98669
268.329,32.99998,-0.18213,0.56189,0.98656
268.729,33.03796,-0.18442,0.5696,0.98644
269.129,33.07615,-0.18769,0.57467,0.98631
269.529,33.11438,-0.1914,0.58354,0.98618
269.929,33.15235,-0.19534,0.59144,0.98605
270.329,33.19072,-0.19846,0.59711,0.98592
270.729,33.2293,-0.20116,0.60494,0.9858
271.129,33.2675,-0.20429,0.61114,0.98567
271.529,33.30572,-0.20748,0.61911,0.98554
271.929,33.344,-0.21089,0.62826,0.98541
272.329,33.38234,-0.2157,0.63552,0.98528
272.729,33.42065,-0.2193,0.64288,0.98515
273.129,33.45901,-0.22269,0.65342,0.98502
273.529,33.49725,-0.22717,0.66243,0.98489
273.929,33.53543,-0.23122,0.6688,0.98476
274.329,33.57377,-0.23543,0.67846,0.98463
274.729,33.61204,-0.23964,0.68646,0.9845
275.129,33.6503,-0.24419,0.69475,0.98437
275.529,33.68843,-0.24816,0.70372,0.98424
275.929,33.72668,-0.25181,0.71212,0.9841
276.329,33.76515,-0.25529,0.7212,0.98397
276.729,33.80336,-0.26041,0.73061,0.98384
277.129,33.84163,-0.26488,0.74002,0.98371
277.529,33.87995,-0.2694,0.74729,0.98358
277.929,33.9182,-0.27407,0.75652,0.98344
278.329,33.95648,-0.27955,0.76408,0.98331
278.729,33.99478,-0.28384,0.77447,0.98318
279.129,34.0331,-0.28905,0.78337,0.98304
279.529,34.07141,-0.29371,0.79401,0.98291
279.929,34.1098,-0.29958,0.80525,0.98277
280.329,34.1482,-0.30476,0.81281,0.98264
280.729,34.18655,-0.30978,0.82394,0.98251
281.129,34.2249,-0.3144,0.8328,0.98237
281.529,34.26337,-0.31979,0.84352,0.98224
281.929,34.30174,-0.32594,0.85172,0.9821
282.329,34.34025,-0.33235,0.86324,0.98196
282.729,34.37873,-0.33859,0.87394,0.98183
283.129,34.4171,-0.34431,0.88432,0.98169
283.529,34.45541,-0.35006,0.8958,0.98156
283.929,34.49372,-0.35742,0.90138,0.98142
284.329,34.53187,-0.36344,0.91376,0.98128
284.729,34.57018,-0.36911,0.92348,0.98114
285.129,34.6085,-0.37488,0.93227,0.98101
285.529,34.64696,-0.38094,0.94108,0.98087
285.929,34.6853,-0.38664,0.95056,0.98073
286.329,34.72396,-0.39223,0.96178,0.98059
286.729,34.76247,-0.40083,0.9758,0.98046
287.129,34.80088,-0.40737,0.98707,0.98032
287.529,34.8393,-0.41639,0.9961,0.98018
287.929,34.8776,-0.42259,1.00975,0.98004
288.329,34.91604,-0.4309,1.02272,0.9799
288.729,34.95432,-0.43664,1.03412,0.97976
289.129,34.9927,-0.44587,1.04686,0.97962
289.529,35.03115,-0.45235,1.05909,0.97948
289.929,35.06962,-0.45993,1.07002,0.97934
290.329,35.10798,-0.46743,1.08655,0.9792
290.729,35.14647,-0.47551,1.09716,0.97906
291.129,35.18496,-0.48339,1.10941,0.97892
291.529,35.22305,-0.49182,1.12573,0.97877
291.929,35.26148,-0.50013,1.13544,0.97863
292.329,35.29998,-0.50775,1.14922,0.97849
292.729,35.33859,-0.51843,1.16266,0.97835
293.129,35.37704,-0.52609,1.17747,0.97821
293.529,35.41563,-0.53343,1.18708,0.97806
293.929,35.45422,-0.54137,1.20198,0.97792
294.329,35.4929,-0.55144,1.21479,0.97778
294.729,35.53141,-0.56104,1.22723,0.97763
295.129,35.57,-0.56989,1.24138,0.97749
295.529,35.60857,-0.57861,1.25393,0.97734
295.929,35.64718,-0.58825,1.26598,0.9772
296.329,35.6857,-0.59741,1.27794,0.97706
296.729,35.72422,-0.60711,1.29245,0.97691
297.129,35.76279,-0.61709,1.30584,0.97677
297.529,35.80128,-0.62688,1.31801,0.97662
297.929,35.83992,-0.6364,1.33185,0.97647
298.329,35.87843,-0.64739,1.34365,0.97633
298.729,35.9169,-0.65674,1.35666,0.97618
299.129,35.95539,-0.66655,1.36777,0.97604
299.529,35.994,-0.67771,1.38037,0.97589
299.929,36.03255,-0.68975,1.3881,0.97574
300.329,36.07115,-0.70223,1.39939,0.97559
300.729,36.10972,-0.71273,1.40935,0.97545
301.129,36.14832,-0.72334,1.41964,0.9753
301.529,36.18678,-0.73462,1.42648,0.97515
301.929,36.22529,-0.74598,1.43369,0.975
302.329,36.26378,-0.75774,1.44111,0.97485
302.729,36.30234,-0.76884,1.44667,0.97471
303.129,36.34083,-0.78036,1.44707,0.97456
303.529,36.37937,-0.79144,1.45168,0.97441
303.929,36.418,-0.80416,1.45365,0.97426
304.329,36.45661,-0.81564,1.45186,0.97411
304.729,36.49527,-0.82648,1.44863,0.97396
305.129,36.5338,-0.83846,1.44313,0.97381
305.529,36.5724,-0.8502,1.43342,0.97366
305.929,36.61084,-0.86113,1.42417,0.97351
306.329,36.6494,-0.87348,1.4183,0.97335
306.729,36.6879,-0.88508,1.41314,0.9732
307.129,36.7264,-0.89613,1.403,0.97305
307.529,36.7648,-0.90673,1.38302,0.9729
307.929,36.80317,-0.91719,1.36514,0.97275
308.329,36.84152,-0.92815,1.34133,0.97259
308.729,36.87985,-0.9373,1.31873,0.97244
309.129,36.91817,-0.94613,1.29192,0.97229
309.529,36.95655,-0.9564,1.26417,0.97214
309.929,36.99484,-0.9675,1.2285,0.97198
310.329,37.03318,-0.97745,1.19482,0.97183
310.729,37.07139,-0.98726,1.16973,0.97167
311.129,37.1096,-0.99564,1.14018,0.97152
311.529,37.1479,-1.00502,1.12394,0.97136
311.929,37.1862,-1.01452,1.09205,0.97121
312.329,37.2245,-1.02569,1.05553,0.97105
312.729,37.26263,-1.03457,1.02462,0.9709
313.129,37.30077,-1.04311,0.99072,0.97074
313.529,37.33907,-1.05161,0.95814,0.97059
313.929,37.37728,-1.05945,0.92636,0.97043
314.329,37.4154,-1.06703,0.88851,0.97027
314.729,37.45358,-1.07548,0.8543,0.97012
315.129,37.49217,-1.08211,0.81546,0.96996
315.529,37.53038,-1.08988,0.78326,0.9698
315.929,37.5685,-1.09697,0.75077,0.96965
316.329,37.60675,-1.10332,0.71938,0.96949
316.729,37.64458,-1.10998,0.68812,0.96933
317.129,37.68251,-1.11624,0.65656,0.96917
317.529,37.72064,-1.12176,0.62361,0.96901
317.929,37.75875,-1.12768,0.59519,0.96885
318.329,37.79685,-1.13416,0.56901,0.96869
318.729,37.8353,-1.13946,0.54169,0.96853
319.129,37.87362,-1.1445,0.51929,0.96837
319.529,37.91187,-1.15068,0.49248,0.96821
319.929,37.95008,-1.15746,0.47188,0.96805
320.329,37.98836,-1.16031,0.45146,0.96789
320.729,38.02665,-1.16386,0.43109,0.96773
321.129,38.06485,-1.16885,0.41441,0.96757
321.529,38.10322,-1.17495,0.3993,0.96741
321.929,38.14147,-1.17897,0.38652,0.96725
322.329,38.17965,-1.18365,0.37741,0.96709
322.729,38.21802,-1.18732,0.36246,0.96692
323.129,38.25629,-1.19036,0.35122,0.96676
323.529,38.29465,-1.19323,0.34006,0.9666
323.929,38.33293,-1.19754,0.32752,0.96643
324.329,38.3713,-1.20228,0.31889,0.96627
324.729,38.4097,-1.20595,0.30937,0.96611
325.129,38.44827,-1.20968,0.30276,0.96594
325.529,38.4867,-1.2135,0.29515,0.96578
325.929,38.52516,-1.21863,0.28672,0.96562
326.329,38.56361,-1.22198,0.2832,0.96545
326.729,38.60196,-1.22501,0.27389,0.96529
327.129,38.6403,-1.22851,0.26933,0.96512
327.529,38.67865,-1.23293,0.2633,0.96495
327.929,38.71706,-1.23658,0.25731,0.96479
328.329,38.75544,-1.23994,0.25017,0.96462
328.729,38.79395,-1.24326,0.2464,0.96446
329.129,38.8324,-1.24638,0.24155,0.96429
329.529,38.8707,-1.2495,0.23681,0.96412
329.929,38.90918,-1.25263,0.23249,0.96395
330.329,38.9477,-1.25364,0.2278,0.96379
330.729,38.98601,-1.25699,0.22295,0.96362
331.129,39.02438,-1.2602,0.22038,0.96345
331.529,39.06264,-1.2637,0.21736,0.96328
331.929,39.10078,-1.26607,0.21258,0.96311
332.329,39.13917,-1.2696,0.20941,0.96295
332.729,39.17768,-1.27251,0.20531,0.96278
333.129,39.2161,-1.27487,0.20173,0.96261
333.529,39.25465,-1.2777,0.19816,0.96244
333.929,39.2934,-1.28115,0.19645,0.96227
334.329,39.33198,-1.28384,0.19322,0.9621
334.729,39.37038,-1.28722,0.19052,0.96193
335.129,39.40873,-1.28918,0.18775,0.96176
335.529,39.4469,-1.29236,0.18521,0.96158
335.929,39.48552,-1.29588,0.18404,0.96141
336.329,39.52412,-1.29884,0.18239,0.96124
336.729,39.5625,-1.30172,0.18039,0.96107
337.129,39.60094,-1.30493,0.17897,0.9609
337.529,39.63964,-1.30737,0.1757,0.96072
337.929,39.6783,-1.31035,0.17491,0.96055
338.329,39.71676,-1.31381,0.173,0.96038
338.729,39.75535,-1.31639,0.17486,0.9602
339.129,39.79415,-1.31914,0.17184,0.96003
339.529,39.83273,-1.32187,0.17198,0.95986
339.929,39.8712,-1.32536,0.16976,0.95968
340.329,39.90975,-1.32869,0.16971,0.95951
340.729,39.94827,-1.33175,0.17316,0.95933
341.129,39.98687,-1.3353,0.17167,0.95916
341.529,40.02544,-1.33846,0.17219,0.95898
341.929,40.06397,-1.34326,0.17246,0.95881
342.329,40.10255,-1.34595,0.17266,0.95863
342.729,40.1411,-1.34928,0.17359,0.95846
343.129,40.17957,-1.35324,0.17423,0.95828
343.529,40.2181,-1.35699,0.17522,0.9581
343.929,40.25675,-1.3605,0.17681,0.95792
344.329,40.29533,-1.36433,0.17937,0.95775
344.729,40.33393,-1.36793,0.18126,0.95757
345.129,40.37259,-1.37171,0.18215,0.95739
345.529,40.41115,-1.37547,0.18377,0.95721
345.929,40.44968,-1.37873,0.18685,0.95704
346.329,40.48834,-1.38314,0.18883,0.95686
346.729,40.52698,-1.38745,0.19171,0.95668
347.129,40.56558,-1.39177,0.19446,0.9565
347.529,40.60419,-1.39757,0.19829,0.95632
347.929,40.64297,-1.40212,0.20071,0.95614
348.329,40.6815,-1.40667,0.20366,0.95596
348.729,40.72022,-1.41138,0.2085,0.95578
349.129,40.759,-1.4143,0.21181,0.9556
349.529,40.79768,-1.41855,0.21508,0.95542
349.929,40.83634,-1.42459,0.21941,0.95523
350.329,40.87502,-1.42969,0.22426,0.95505
350.729,40.91373,-1.43647,0.22974,0.95487
351.129,40.9524,-1.44171,0.23194,0.95469
351.529,40.991,-1.44647,0.2378,0.95451
351.929,41.02968,-1.45305,0.24234,0.95432
352.329,41.06834,-1.45817,0.24833,0.95414
352.729,41.1072,-1.46377,0.25163,0.95396
353.129,41.14604,-1.47048,0.25803,0.95377
353.529,41.18492,-1.47676,0.26231,0.95359
353.929,41.22377,-1.48396,0.26643,0.95341
354.329,41.26252,-1.49007,0.27235,0.95322
354.729,41.3011,-1.49708,0.27666,0.95304
355.129,41.33967,-1.50362,0.28398,0.95285
355.529,41.37828,-1.51205,0.28891,0.95267
355.929,41.41689,-1.51869,0.2975,0.95248
356.329,41.45559,-1.5269,0.30111,0.95229
356.729,41.49436,-1.53483,0.30946,0.95211
357.129,41.5332,-1.54405,0.31532,0.95192
357.529,41.57189,-1.55297,0.32194,0.95173
357.929,41.61072,-1.56133,0.32774,0.95155
358.329,41.64952,-1.57032,0.33595,0.95136
358.729,41.6883,-1.57975,0.34225,0.95117
359.129,41.7271,-1.58911,0.34992,0.95098
359.529,41.7658,-1.59913,0.35786,0.9508
359.929,41.80467,-1.60977,0.36553,0.95061
360.329,41.8435,-1.61981,0.3737,0.95042
360.729,41.88241,-1.63054,0.38158,0.95023
361.129,41.9211,-1.64028,0.38986,0.95004
361.529,41.95993,-1.6509,0.3967,0.94985
361.929,41.9987,-1.66125,0.40497,0.94966
362.329,42.03755,-1.67294,0.40941,0.94947
362.729,42.0764,-1.68573,0.42103,0.94928
363.129,42.11531,-1.69857,0.42933,0.94909
363.529,42.1543,-1.71007,0.43823,0.9489
363.929,42.1933,-1.72261,0.44655,0.94871
364.329,42.23214,-1.73671,0.4544,0.94851
364.729,42.27091,-1.74936,0.46449,0.94832
365.129,42.3097,-1.76311,0.47447,0.94813
365.529,42.34847,-1.77781,0.48355,0.94794
365.929,42.3874,-1.79249,0.49172,0.94774
366.329,42.42622,-1.80676,0.50216,0.94755
366.729,42.46508,-1.82302,0.51055,0.94736
367.129,42.504,-1.83786,0.51755,0.94716
367.529,42.54296,-1.85283,0.52798,0.94697
367.929,42.5819,-1.8692,0.53791,0.94678
368.329,42.62065,-1.88555,0.54675,0.94658
368.729,42.65968,-1.90232,0.55401,0.94639
369.129,42.69855,-1.92035,0.56323,0.94619
369.529,42.73746,-1.93809,0.57229,0.94599
369.929,42.77625,-1.95602,0.5794,0.9458
370.329,42.815,-1.97285,0.58708,0.9456
370.729,42.854,-1.99255,0.59421,0.94541
371.129,42.89301,-2.01184,0.60565,0.94521
371.529,42.9318,-2.03129,0.61437,0.94501
371.929,42.97071,-2.05224,0.62067,0.94482
372.329,43.00972,-2.07212,0.62675,0.94462
372.729,43.0488,-2.09278,0.63667,0.94442
373.129,43.08767,-2.11326,0.64396,0.94422
373.529,43.1265,-2.13386,0.65183,0.94402
373.929,43.16554,-2.15582,0.6574,0.94382
374.329,43.20452,-2.17623,0.66217,0.94363
374.729,43.24348,-2.19732,0.66829,0.94343
375.129,43.28243,-2.21954,0.67513,0.94323
375.529,43.32142,-2.24179,0.68289,0.94303
375.929,43.36038,-2.26488,0.68651,0.94283
376.329,43.39921,-2.28736,0.69063,0.94263
376.729,43.43809,-2.30986,0.6934,0.94242
377.129,43.47702,-2.33353,0.69766,0.94222
377.529,43.51603,-2.35761,0.70031,0.94202
377.929,43.555,-2.38202,0.70352,0.94182
378.329,43.59406,-2.40559,0.70458,0.94162
378.729,43.6331,-2.42955,0.70854,0.94142
379.129,43.67207,-2.45439,0.70914,0.94121
379.529,43.71102,-2.47912,0.71041,0.94101
379.929,43.75,-2.50441,0.71086,0.94081
380.329,43.78909,-2.52948,0.71097,0.9406
380.729,43.82808,-2.55442,0.70868,0.9404
381.129,43.8671,-2.57967,0.70843,0.9402
381.529,43.90595,-2.60495,0.70499,0.93999
381.929,43.94495,-2.62941,0.70386,0.93979
382.329,43.98377,-2.65377,0.70197,0.93958
382.729,44.0227,-2.68049,0.69765,0.93938
383.129,44.0616,-2.70546,0.69089,0.93917
383.529,44.1006,-2.73049,0.68903,0.93897
383.929,44.1395,-2.75606,0.6829,0.93876
384.329,44.1785,-2.78241,0.67614,0.93855
384.729,44.21738,-2.80703,0.66989,0.93835
385.129,44.25629,-2.8325,0.66414,0.93814
385.529,44.29523,-2.85819,0.6567,0.93793
385.929,44.33399,-2.88194,0.65072,0.93772
386.329,44.3728,-2.9076,0.64181,0.93752
386.729,44.4117,-2.93233,0.63189,0.93731
387.129,44.45048,-2.95554,0.62289,0.9371
387.529,44.4893,-2.97931,0.61331,0.93689
387.929,44.5282,-3.00295,0.60262,0.93668
388.329,44.56715,-3.02607,0.59209,0.93647
388.729,44.60603,-3.04796,0.58085,0.93626
389.129,44.64495,-3.07042,0.56969,0.93605
389.529,44.6839,-3.09292,0.55832,0.93584
389.929,44.72272,-3.1149,0.54692,0.93563
390.329,44.76163,-3.13626,0.53398,0.93542
390.729,44.8005,-3.15737,0.52322,0.93521
391.129,44.83928,-3.17798,0.51139,0.935
391.529,44.87809,-3.19922,0.49922,0.93479
391.929,44.917,-3.21992,0.4859,0.93457
392.329,44.9557,-3.23939,0.47424,0.93436
392.729,44.99463,-3.25804,0.46183,0.93415
393.129,45.03362,-3.27651,0.44886,0.93393
393.529,45.07248,-3.29441,0.43765,0.93372
393.929,45.11136,-3.31235,0.42325,0.93351
394.329,45.15012,-3.33011,0.4123,0.93329
394.729,45.18887,-3.34724,0.39915,0.93308
395.129,45.22729,-3.36417,0.38721,0.93287
395.529,45.26572,-3.3803,0.37579,0.93265
395.929,45.30444,-3.39587,0.3639,0.93244
396.329,45.3433,-3.41072,0.35389,0.93222
396.729,45.38207,-3.42709,0.34296,0.932
397.129,45.42095,-3.44278,0.33407,0.93179
397.529,45.45997,-3.45739,0.323,0.93157
397.929,45.4987,-3.47209,0.31137,0.93135
398.329,45.53752,-3.4856,0.30232,0.93114
398.729,45.57632,-3.49824,0.29274,0.93092
399.129,45.61506,-3.51018,0.28187,0.9307
399.529,45.65383,-3.52288,0.27398,0.93049
399.929,45.69269,-3.53512,0.26351,0.93027
400.329,45.73149,-3.54644,0.25605,0.93005
400.729,45.77024,-3.55704,0.24629,0.92983
401.129,45.80905,-3.56777,0.24004,0.92961
401.529,45.84791,-3.57865,0.23067,0.92939
401.929,45.88685,-3.58853,0.22366,0.92917
402.329,45.92572,-3.59873,0.21782,0.92895
402.729,45.96463,-3.60932,0.20939,0.92873
403.129,46.0035,-3.61941,0.2003,0.92851
403.529,46.04246,-3.62739,0.19446,0.92829
403.929,46.08125,-3.63637,0.18947,0.92807
404.329,46.12018,-3.64482,0.18125,0.92785
404.729,46.15903,-3.65314,0.1742,0.92763
405.129,46.19784,-3.65935,0.16738,0.9274
405.529,46.23679,-3.66672,0.16221,0.92718
405.929,46.27572,-3.67396,0.15554,0.92696
406.329,46.31462,-3.68197,0.14921,0.92674
406.729,46.35344,-3.68792,0.14496,0.92651
407.129,46.3923,-3.69377,0.14101,0.92629
407.529,46.43123,-3.7004,0.13318,0.92607
407.929,46.46983,-3.70713,0.12847,0.92584
408.329,46.50857,-3.71474,0.12346,0.92562
408.729,46.54746,-3.72012,0.12001,0.92539
409.129,46.58618,-3.72522,0.11367,0.92517
409.529,46.62512,-3.7305,0.11162,0.92494
409.929,46.66411,-3.73442,0.10741,0.92472
410.329,46.70312,-3.73918,0.1039,0.92449
410.729,46.74198,-3.74467,0.09759668,0.92426
411.129,46.78106,-3.7479,0.09380091,0.92404
411.529,46.81993,-3.75161,0.09005161,0.92381
411.929,46.8589,-3.7556,0.08604668,0.92358
412.329,46.8979,-3.75988,0.08403711,0.92336
412.729,46.93685,-3.76423,0.08126426,0.92313
413.129,46.97579,-3.76836,0.07807971,0.9229
413.529,47.01458,-3.77224,0.07470245,0.92267
413.929,47.05352,-3.77544,0.07433565,0.92244
414.329,47.09245,-3.77832,0.06968226,0.92221
414.729,47.13149,-3.78198,0.06631145,0.92198
415.129,47.17031,-3.78492,0.06498063,0.92175
415.529,47.20939,-3.78686,0.06216251,0.92152
415.929,47.24832,-3.78901,0.05873338,0.92129
416.329,47.28718,-3.7914,0.05754166,0.92106
416.729,47.32622,-3.79308,0.05559758,0.92083
417.129,47.36525,-3.79637,0.0525718,0.9206
417.529,47.40429,-3.79815,0.05195993,0.92037
417.929,47.4431,-3.79969,0.05151271,0.92014
418.329,47.48225,-3.80225,0.05021738,0.91991
418.729,47.52113,-3.80446,0.04562607,0.91967
419.129,47.56021,-3.80585,0.0447262,0.91944
419.529,47.59916,-3.8074,0.04248383,0.91921
419.929,47.63839,-3.80996,0.04080054,0.91897
420.329,47.6775,-3.81159,0.03779442,0.91874
420.729,47.71655,-3.81399,0.03790226,0.91851
421.129,47.75548,-3.81581,0.03797947,0.91827
421.529,47.7945,-3.81726,0.03793493,0.91804
421.929,47.83348,-3.81799,0.03629417,0.9178
422.329,47.87254,-3.81864,0.03660787,0.91757
422.729,47.91172,-3.81938,0.034843,0.91733
423.129,47.9507,-3.81992,0.03321,0.9171
423.529,47.98952,-3.8213,0.03125308,0.91686
423.929,48.0287,-3.8227,0.03146979,0.91663
424.329,48.06777,-3.82435,0.02921804,0.91639
424.729,48.10693,-3.8255,0.02925048,0.91615
425.129,48.14562,-3.82677,0.02949337,0.91591
425.529,48.1849,-3.82676,0.02821505,0.91568
425.929,48.22384,-3.8255,0.02797602,0.91544
426.329,48.26285,-3.82616,0.02737207,0.9152
426.729,48.30189,-3.82937,0.02772894,0.91496
427.129,48.34102,-3.83031,0.0262874,0.91472
427.529,48.38025,-3.83088,0.02567238,0.91448
427.929,48.41942,-3.83182,0.02382628,0.91425
428.329,48.45847,-3.8322,0.02434952,0.91401
428.729,48.49735,-3.8322,0.02464152,0.91377
429.129,48.53633,-3.83286,0.02387683,0.91353
429.529,48.57523,-3.83224,0.0236457,0.91328
429.929,48.6142,-3.83353,0.02211023,0.91304
430.329,48.6532,-3.83493,0.0209378,0.9128
430.729,48.69207,-3.83608,0.02239695,0.91256
431.129,48.73131,-3.83716,0.02181386,0.91232
431.529,48.77052,-3.83714,0.02041054,0.91208
431.929,48.8097,-3.83714,0.02224985,0.91183
432.329,48.84881,-3.83845,0.02246796,0.91159
432.729,48.88814,-3.83845,0.02334142,0.91135
433.129,48.92731,-3.83845,0.02448905,0.91111
433.529,48.96642,-3.8396,0.02366593,0.91086
433.929,49.00549,-3.83977,0.02325318,0.91062
434.329,49.0445,-3.83977,0.02516376,0.91037
434.729,49.0835,-3.84014,0.02372884,0.91013
435.129,49.12272,-3.84011,0.02270011,0.90988
435.529,49.1618,-3.84143,0.02410524,0.90964
435.929,49.20093,-3.84142,0.02459618,0.90939
436.329,49.24007,-3.84142,0.0235385,0.90915
436.729,49.2792,-3.84142,0.02416485,0.9089
437.129,49.31823,-3.84142,0.02320598,0.90866
437.529,49.35737,-3.84142,0.02366761,0.90841
437.929,49.3964,-3.84142,0.02476492,0.90816
438.329,49.43554,-3.84142,0.02434963,0.90791
438.729,49.4747,-3.84142,0.02369545,0.90767
439.129,49.51396,-3.84142,0.02305506,0.90742
439.529,49.55317,-3.84142,0.02262066,0.90717
439.929,49.5923,-3.84142,0.02465086,0.90692
440.329,49.6314,-3.84272,0.02468288,0.90667
440.729,49.67044,-3.84311,0.02461997,0.90642
441.129,49.7096,-3.84405,0.02507526,0.90617
441.529,49.74864,-3.84307,0.0258652,0.90592
441.929,49.78774,-3.84439,0.02631103,0.90567
442.329,49.82715,-3.84439,0.02575703,0.90542
442.729,49.8665,-3.84311,0.02516176,0.90517
443.129,49.9056,-3.84429,0.02191719,0.90492
443.529,49.94506,-3.84569,0.02372622,0.90467
443.929,49.98423,-3.84822,0.02246121,0.90442
444.329,50.02353,-3.84834,0.0230783,0.90417
444.729,50.06265,-3.84834,0.02176461,0.90392
445.129,50.10188,-3.84722,0.0230327,0.90366
445.529,50.14107,-3.84702,0.0232142,0.90341
445.929,50.18035,-3.84702,0.02184876,0.90316
446.329,50.21967,-3.84702,0.02221965,0.9029
446.729,50.25895,-3.84702,0.02238162,0.90265
447.129,50.2982,-3.84702,0.02050054,0.9024
447.529,50.3374,-3.84702,0.02013138,0.90214
447.929,50.37658,-3.84702,0.02019504,0.90189
448.329,50.41572,-3.84702,0.01920013,0.90163
448.729,50.45495,-3.84703,0.0200496,0.90138
449.129,50.4942,-3.84775,0.0198493,0.90112
449.529,50.53353,-3.849,0.02037224,0.90087
449.929,50.57282,-3.84899,0.01774431,0.90061
450.329,50.61215,-3.84832,0.01903871,0.90035
450.729,50.65141,-3.84834,0.01729765,0.9001
451.129,50.69063,-3.84834,0.02090156,0.89984
451.529,50.72995,-3.84965,0.01924269,0.89958
451.929,50.76919,-3.84969,0.01963526,0.89932
452.329,50.80843,-3.84866,0.01919503,0.89907
452.729,50.84775,-3.84989,0.01756159,0.89881
453.129,50.88705,-3.84998,0.01946934,0.89855
453.529,50.92631,-3.84998,0.01914028,0.89829
453.929,50.96573,-3.84998,0.01842101,0.89803
454.329,51.00499,-3.84998,0.01984361,0.89777
454.729,51.04412,-3.84998,0.01835906,0.89751
455.129,51.08328,-3.84998,0.01909013,0.89725
455.529,51.12259,-3.84994,0.01873429,0.89699
455.929,51.1618,-3.85064,0.01893577,0.89673
456.329,51.20105,-3.85063,0.01928126,0.89647
456.729,51.24038,-3.85196,0.01780984,0.89621
457.129,51.2798,-3.85196,0.01721559,0.89595
457.529,51.31899,-3.85196,0.01750708,0.89568
457.929,51.35835,-3.8511,0.01695501,0.89542
458.329,51.3977,-3.85097,0.01770196,0.89516
458.729,51.437,-3.85092,0.01612152,0.8949
459.129,51.4763,-3.85228,0.01651794,0.89463
459.529,51.5157,-3.85229,0.01699878,0.89437
459.929,51.555,-3.85229,0.01825451,0.8941
460.329,51.59415,-3.85228,0.01765639,0.89384
460.729,51.6335,-3.85197,0.01772331,0.89358
461.129,51.67286,-3.85196,0.01887656,0.89331
461.529,51.7122,-3.85196,0.01774363,0.89305
461.929,51.7517,-3.85196,0.01754481,0.89278
462.329,51.7911,-3.85196,0.01845191,0.89252
462.729,51.83062,-3.85196,0.01675994,0.89225
463.129,51.86997,-3.85163,0.01794137,0.89198
463.529,51.90932,-3.85163,0.01835289,0.89172
463.929,51.94866,-3.85159,0.01768528,0.89145
464.329,51.98794,-3.85163,0.01803185,0.89118
464.729,52.02733,-3.85163,0.01735905,0.89092
465.129,52.0665,-3.85163,0.01807331,0.89065
465.529,52.1059,-3.85163,0.0187577,0.89038
465.929,52.14528,-3.85163,0.01968776,0.89011
466.329,52.18461,-3.85162,0.01696373,0.88984
466.729,52.22404,-3.85285,0.01939733,0.88957
467.129,52.2636,-3.85295,0.01897823,0.8893
467.529,52.30297,-3.85296,0.01678265,0.88903
467.929,52.34228,-3.85402,0.01626717,0.88876
468.329,52.38172,-3.85426,0.01646481,0.88849
468.729,52.42112,-3.85426,0.0180272,0.88822
469.129,52.46025,-3.85426,0.01802872,0.88795
469.529,52.49949,-3.85558,0.01804972,0.88768
469.929,52.5386,-3.85558,0.01688478,0.88741
470.329,52.578,-3.85682,0.01766523,0.88714
470.729,52.61736,-3.8569,0.01790892,0.88687
471.129,52.65695,-3.8569,0.01813394,0.88659
471.529,52.69644,-3.8569,0.01644458,0.88632
471.929,52.73619,-3.85689,0.01781968,0.88605
472.329,52.7756,-3.85622,0.01844639,0.88577
472.729,52.8151,-3.85624,0.01886671,0.8855
473.129,52.8545,-3.85616,0.01908125,0.88523
473.529,52.89394,-3.85756,0.02038717,0.88495
473.929,52.9334,-3.85756,0.01969322,0.88468
474.329,52.97277,-3.85756,0.01848425,0.8844
474.729,53.0121,-3.85753,0.01854192,0.88413
475.129,53.0515,-3.85858,0.01810544,0.88385
475.529,53.0909,-3.85887,0.02036884,0.88358
475.929,53.13015,-3.85886,0.02044142,0.8833
476.329,53.16953,-3.85689,0.02148148,0.88302
476.729,53.209,-3.8569,0.01996479,0.88275
477.129,53.2484,-3.85941,0.02024555,0.88247
477.529,53.28774,-3.85953,0.02102208,0.88219
477.929,53.3273,-3.85953,0.01987406,0.88192
478.329,53.36665,-3.85953,0.02007759,0.88164
478.729,53.40599,-3.85958,0.0204802,0.88136
479.129,53.4453,-3.85822,0.02055097,0.88108
479.529,53.4846,-3.85821,0.0200835,0.8808
479.929,53.524,-3.85821,0.02021578,0.88052
480.329,53.5634,-3.85821,0.01994764,0.88024
480.729,53.6027,-3.85824,0.0196963,0.87997
481.129,53.64184,-3.85691,0.02148194,0.87969
481.529,53.68119,-3.85694,0.01951425,0.8794
481.929,53.72064,-3.85822,0.01859587,0.87912
482.329,53.76002,-3.85822,0.02075152,0.87884
482.729,53.79934,-3.85822,0.01884307,0.87856
483.129,53.83888,-3.85822,0.01926806,0.87828
483.529,53.8785,-3.85815,0.01900243,0.878
483.929,53.9179,-3.85954,0.01971553,0.87772
484.329,53.9572,-3.85954,0.01943805,0.87743
484.729,53.99664,-3.85957,0.01914161,0.87715
485.129,54.036,-3.86087,0.01899181,0.87687
485.529,54.07546,-3.86086,0.0204111,0.87659
485.929,54.11485,-3.86086,0.01889719,0.8763
486.329,54.15425,-3.86086,0.02082265,0.87602
486.729,54.19365,-3.86086,0.02002053,0.87573
487.129,54.2332,-3.86086,0.01938991,0.87545
487.529,54.27253,-3.86086,0.02035899,0.87516
487.929,54.3121,-3.86086,0.01900978,0.87488
488.329,54.35134,-3.86215,0.01996993,0.87459
488.729,54.3908,-3.86217,0.02093585,0.87431
489.129,54.4301,-3.86217,0.01937092,0.87402
489.529,54.46966,-3.86217,0.01809673,0.87374
489.929,54.50903,-3.86217,0.02012453,0.87345
490.329,54.54845,-3.86351,0.01892482,0.87316
490.729,54.588,-3.86348,0.02091304,0.87287
491.129,54.62754,-3.86348,0.02025945,0.87259
491.529,54.66685,-3.86231,0.02177988,0.8723
491.929,54.70624,-3.86217,0.02172511,0.87201
492.329,54.74578,-3.8621,0.02169303,0.87172
492.729,54.7851,-3.86337,0.02144593,0.87143
493.129,54.8245,-3.86349,0.02287411,0.87114
493.529,54.864,-3.86371,0.02284779,0.87086
493.929,54.9033,-3.86448,0.0211522,0.87057
494.329,54.9426,-3.86448,0.02001846,0.87028
494.729,54.98189,-3.86448,0.02066941,0.86999
494.829,54.99171,-3.86448,0.01929549,0.86991