File: 01_Data/Cotton_Shirt/MCC/Cotton_Shirt_MCC_30K_min_210709_R1.txt
Sample ID:	C:\MCC\MCC Cal\Test\Cotton_Shirt\Cotton_Shirt_MCC_30K_min_210709_R1.txt
Sample Weight (mg):	5.35
Heating Rate (C/s):	1
Combustor Temp (C):	900
N2 Flow Rate (cc/min):	80
O2 Flow Rate (cc/min):	20
Calibration File:	C:\MCC\MCC Cal\Coeff1 JN10440_30_210304.txt.txt
T Correction Coefficients:	0	1.024463	0
Time Shift (s):	14
*
Time (s)	Temperature (C)	N2 flow rate (cc/min)	O2 flow rate (cc/min)	Flow Rate (cc/min)	Oxygen (%)	HRR (W/g)	Heating rate (C/s)
0.000	110.503	79.994	19.995	99.944	20.069	-0.063	-0.019
1.000	110.503	79.993	19.995	99.953	20.068	-0.024	-0.016
2.000	110.475	79.994	19.994	99.959	20.068	-0.008	-0.022
3.000	110.521	79.995	19.995	99.957	20.068	-0.022	0.035
4.000	110.493	79.992	19.995	99.951	20.067	0.051	-0.021
5.000	110.459	79.993	19.995	99.957	20.070	-0.116	-0.014
6.000	110.469	79.993	19.996	99.963	20.068	-0.008	-0.002
7.000	110.497	79.994	19.996	99.967	20.068	0.000	0.015
8.000	110.446	79.993	19.995	99.968	20.069	-0.051	-0.027
9.000	110.448	79.993	19.996	99.966	20.068	0.025	0.002
10.000	110.442	79.993	19.996	99.967	20.062	0.377	0.005
11.001	110.433	79.992	19.998	99.979	20.058	0.608	-0.044
12.000	110.429	79.993	19.995	100.008	20.057	0.670	0.023
13.001	110.416	79.992	19.996	100.054	20.048	1.167	-0.007
14.001	110.471	79.992	19.995	100.098	20.044	1.430	0.038
15.000	110.493	79.993	19.995	100.134	20.043	1.465	0.008
16.000	110.514	79.994	19.995	100.154	20.036	1.895	0.048
17.000	110.589	79.994	19.995	100.172	20.035	1.932	0.053
18.000	110.654	79.993	19.995	100.192	20.026	2.476	0.062
19.000	110.758	79.993	19.995	100.213	20.023	2.611	0.083
20.000	110.830	79.992	19.996	100.230	20.025	2.513	0.096
21.000	110.940	79.992	19.995	100.246	20.018	2.916	0.107
22.000	111.038	79.993	19.995	100.262	20.018	2.921	0.069
23.000	111.214	79.993	19.996	100.276	20.012	3.253	0.184
24.000	111.345	79.994	19.994	100.287	20.011	3.333	0.118
25.000	111.489	79.994	19.995	100.290	20.011	3.311	0.159
26.000	111.673	79.994	19.996	100.292	20.007	3.587	0.159
27.000	111.858	79.992	19.995	100.301	20.004	3.749	0.201
28.000	112.055	79.994	19.995	100.314	20.002	3.879	0.188
29.000	112.275	79.992	19.996	100.333	20.000	3.991	0.207
30.000	112.501	79.994	19.995	100.342	19.997	4.146	0.249
31.000	112.769	79.992	19.996	100.342	19.996	4.210	0.230
32.001	113.034	79.993	19.995	100.340	19.997	4.129	0.283
33.001	113.320	79.994	19.996	100.346	19.994	4.331	0.293
34.000	113.666	79.992	19.996	100.344	19.991	4.518	0.312
35.000	113.986	79.994	19.996	100.341	19.989	4.617	0.321
36.000	114.325	79.992	19.996	100.343	19.990	4.543	0.338
37.000	114.640	79.993	19.996	100.354	19.992	4.475	0.334
38.000	114.990	79.994	19.996	100.304	19.992	4.442	0.344
39.000	115.352	79.994	19.996	100.282	19.990	4.590	0.360
40.000	115.718	79.993	19.997	100.339	19.987	4.727	0.350
41.001	116.129	79.993	19.997	100.418	19.985	4.852	0.411
42.000	116.512	79.994	19.997	100.429	19.987	4.720	0.385
43.000	116.961	79.994	19.996	100.369	19.987	4.715	0.428
44.000	117.391	79.995	19.996	100.358	19.986	4.782	0.428
45.000	117.835	79.995	19.996	100.365	19.985	4.878	0.438
46.000	118.278	79.995	19.996	100.377	19.987	4.766	0.441
47.001	118.725	79.995	19.995	100.386	19.985	4.888	0.459
48.000	119.206	79.997	19.995	100.377	19.981	5.120	0.477
49.000	119.671	79.996	19.996	100.378	19.982	5.033	0.440
50.000	120.101	79.995	19.995	100.379	19.982	5.048	0.489
51.000	120.635	79.996	19.996	100.383	19.980	5.159	0.516
52.000	121.190	79.995	19.995	100.384	19.982	5.047	0.522
53.000	121.711	79.997	19.996	100.387	19.978	5.287	0.515
54.001	122.269	79.996	19.994	100.387	19.974	5.526	0.557
55.001	122.787	79.994	19.994	100.395	19.975	5.460	0.518
56.000	123.339	79.995	19.995	100.398	19.974	5.504	0.550
57.000	123.894	79.994	19.995	100.397	19.974	5.487	0.553
58.001	124.459	79.995	19.995	100.396	19.973	5.568	0.563
59.000	125.097	79.995	19.995	100.400	19.973	5.574	0.615
60.001	125.686	79.993	19.996	100.411	19.974	5.511	0.618
61.000	126.261	79.994	19.994	100.416	19.973	5.548	0.574
62.000	126.912	79.995	19.995	100.406	19.972	5.612	0.619
63.001	127.514	79.994	19.994	100.407	19.973	5.559	0.612
64.001	128.170	79.995	19.995	100.416	19.971	5.666	0.665
65.000	128.800	79.995	19.995	100.416	19.972	5.614	0.608
66.001	129.448	79.996	19.996	100.407	19.974	5.481	0.665
67.000	130.124	79.997	19.995	100.411	19.973	5.553	0.650
68.000	130.791	79.995	19.995	100.419	19.971	5.671	0.686
69.001	131.444	79.993	19.996	100.414	19.970	5.762	0.641
70.000	132.179	79.996	19.995	100.412	19.971	5.699	0.732
71.001	132.870	79.997	19.994	100.407	19.971	5.672	0.688
72.000	133.539	79.997	19.994	100.406	19.968	5.864	0.684
73.000	134.319	79.997	19.994	100.405	19.968	5.875	0.771
74.000	135.004	79.997	19.995	100.409	19.968	5.848	0.685
75.001	135.760	79.996	19.995	100.408	19.966	5.986	0.749
76.000	136.454	79.996	19.995	100.409	19.968	5.864	0.716
77.000	137.271	79.995	19.995	100.413	19.975	5.427	0.764
78.000	137.971	79.995	19.994	100.411	19.971	5.664	0.724
79.000	138.745	79.994	19.996	100.404	19.971	5.698	0.768
80.001	139.545	79.990	19.996	100.405	19.971	5.668	0.802
81.000	140.261	79.995	19.994	100.403	19.969	5.784	0.742
82.000	141.042	79.992	19.996	100.404	19.971	5.656	0.750
83.000	141.821	79.993	19.994	100.409	19.968	5.873	0.778
84.001	142.623	79.994	19.994	100.408	19.968	5.871	0.798
85.000	143.407	79.993	19.995	100.407	19.967	5.941	0.804
86.001	144.257	79.993	19.993	100.406	19.967	5.924	0.824
87.000	145.045	79.992	19.995	100.410	19.966	5.967	0.786
88.000	145.864	79.994	19.994	100.410	19.969	5.804	0.828
89.000	146.661	79.994	19.994	100.406	19.964	6.081	0.789
90.000	147.486	79.993	19.995	100.404	19.966	5.942	0.819
91.000	148.305	79.994	19.994	100.404	19.966	5.960	0.852
92.001	149.184	79.993	19.996	100.404	19.968	5.884	0.846
93.001	150.039	79.994	19.996	100.404	19.964	6.086	0.864
94.000	150.877	79.992	19.997	100.401	19.968	5.841	0.829
95.000	151.704	79.993	19.996	100.398	19.969	5.804	0.832
96.000	152.545	79.994	19.995	100.397	19.966	5.975	0.847
97.000	153.351	79.994	19.996	100.397	19.970	5.734	0.831
98.000	154.219	79.992	20.000	100.397	19.968	5.857	0.837
99.000	155.035	79.993	19.996	100.392	19.967	5.922	0.818
100.000	155.925	79.991	19.998	100.391	19.968	5.839	0.878
101.000	156.773	79.995	19.997	100.390	19.966	5.978	0.856
102.001	157.642	79.992	19.996	100.395	19.966	5.955	0.877
103.000	158.514	79.987	20.001	100.392	19.968	5.867	0.857
104.001	159.427	79.999	19.991	100.392	19.968	5.869	0.907
105.001	160.300	79.995	19.994	100.396	19.971	5.702	0.874
106.000	161.189	79.994	19.997	100.398	19.966	5.984	0.891
107.000	162.073	79.989	19.998	100.393	19.967	5.886	0.897
108.000	163.007	79.994	19.997	100.392	19.966	5.958	0.926
109.000	163.911	79.996	19.999	100.394	19.968	5.868	0.891
110.001	164.829	79.996	19.994	100.398	19.967	5.895	0.922
111.000	165.774	79.994	19.996	100.398	19.964	6.064	0.930
112.000	166.690	79.992	19.996	100.394	19.967	5.893	0.918
113.000	167.572	79.995	19.996	100.389	19.970	5.736	0.899
114.001	168.489	79.993	19.994	100.386	19.968	5.879	0.923
115.000	169.453	79.993	19.995	100.391	19.968	5.857	0.934
116.000	170.346	79.988	19.999	100.396	19.971	5.660	0.914
117.000	171.286	79.997	19.989	100.384	19.968	5.842	0.934
118.001	172.218	79.995	19.995	100.374	19.969	5.776	0.960
119.000	173.139	79.997	19.995	100.382	19.968	5.842	0.911
120.000	174.125	79.993	19.993	100.392	19.969	5.818	0.956
121.000	175.033	79.993	19.995	100.397	19.968	5.864	0.916
122.000	175.961	79.997	19.994	100.395	19.968	5.857	0.940
123.001	176.925	79.999	19.995	100.386	19.964	6.073	0.960
124.001	177.860	79.989	20.000	100.375	19.966	5.970	0.943
125.000	178.875	79.994	19.990	100.374	19.966	5.971	0.973
126.000	179.827	79.999	19.993	100.380	19.969	5.813	0.976
127.000	180.784	79.991	19.998	100.383	19.968	5.824	0.950
128.000	181.778	79.994	19.999	100.386	19.966	5.976	0.981
129.000	182.756	79.992	20.000	100.385	19.968	5.871	1.002
130.000	183.714	79.995	19.994	100.388	19.971	5.665	0.955
131.000	184.712	79.996	19.997	100.389	19.967	5.918	0.966
132.000	185.693	79.994	19.996	100.388	19.970	5.762	0.992
133.000	186.693	79.992	19.997	100.378	19.969	5.797	1.007
134.001	187.701	79.997	19.995	100.379	19.968	5.839	1.025
135.000	188.651	79.992	19.999	100.372	19.968	5.853	0.966
136.000	189.654	79.995	19.990	100.367	19.968	5.837	0.977
137.000	190.654	79.994	19.995	100.361	19.969	5.783	0.996
138.000	191.633	79.987	19.998	100.361	19.971	5.692	0.972
139.000	192.637	79.997	19.998	100.360	19.970	5.759	1.004
140.000	193.686	79.996	19.996	100.360	19.968	5.847	1.031
141.000	194.694	79.992	19.997	100.360	19.967	5.890	1.023
142.000	195.646	79.994	19.992	100.360	19.968	5.844	0.966
143.000	196.643	79.996	19.991	100.361	19.967	5.905	0.999
144.000	197.687	79.993	20.001	100.360	19.967	5.910	1.008
145.001	198.672	79.994	19.995	100.358	19.970	5.723	1.028
146.000	199.686	79.996	19.994	100.356	19.966	5.943	0.995
147.000	200.684	79.996	19.995	100.359	19.963	6.124	1.025
148.000	201.735	79.992	19.997	100.361	19.968	5.860	1.013
149.000	202.770	79.995	19.990	100.361	19.965	6.034	1.052
150.000	203.769	79.996	19.987	100.362	19.963	6.155	1.007
151.000	204.808	79.999	19.991	100.346	19.965	6.014	1.025
152.000	205.813	79.996	19.995	100.286	19.966	5.968	1.002
153.000	206.863	79.998	19.992	100.257	19.966	5.981	1.050
154.000	207.917	79.999	19.997	100.342	19.970	5.734	1.054
155.000	208.908	79.999	19.993	100.414	19.968	5.868	1.004
156.000	209.946	79.995	19.999	100.419	19.969	5.797	1.007
157.000	210.958	79.989	20.003	100.366	19.970	5.708	1.008
158.000	211.972	79.997	19.995	100.354	19.965	6.019	1.052
159.000	213.027	79.998	19.995	100.346	19.967	5.912	1.035
160.000	214.036	79.997	19.996	100.340	19.968	5.840	1.021
161.000	215.054	79.992	19.993	100.344	19.968	5.846	1.024
162.000	216.084	79.996	19.996	100.352	19.965	6.001	1.018
163.000	217.123	79.995	19.993	100.340	19.967	5.908	1.049
164.000	218.141	79.994	19.999	100.336	19.964	6.079	1.024
165.000	219.183	79.995	19.991	100.335	19.966	5.957	1.023
166.000	220.214	79.997	19.996	100.339	19.964	6.094	1.039
167.000	221.227	79.992	19.998	100.336	19.965	6.034	1.014
168.000	222.333	79.995	19.995	100.330	19.965	6.036	1.072
169.000	223.358	79.993	19.993	100.329	19.966	5.942	1.055
170.000	224.386	80.001	19.992	100.328	19.964	6.086	1.018
171.000	225.395	79.992	20.003	100.328	19.967	5.889	1.026
172.000	226.459	79.995	19.994	100.323	19.964	6.109	1.050
173.000	227.438	79.995	19.995	100.321	19.966	5.957	0.995
174.000	228.518	79.996	19.998	100.327	19.965	6.002	1.058
175.000	229.571	79.992	20.000	100.324	19.963	6.117	1.066
176.000	230.597	79.988	19.996	100.321	19.965	6.007	1.024
177.000	231.649	79.995	19.999	100.321	19.962	6.187	1.043
178.000	232.661	79.996	19.998	100.320	19.965	6.000	1.011
179.000	233.656	79.993	19.996	100.320	19.965	6.043	1.013
180.000	234.733	80.001	19.993	100.320	19.961	6.280	1.060
181.000	235.771	79.997	19.996	100.319	19.961	6.268	1.040
182.000	236.773	79.995	19.998	100.318	19.959	6.351	1.003
183.000	237.822	79.999	19.995	100.317	19.958	6.450	1.044
184.000	238.871	79.995	19.995	100.314	19.956	6.558	1.064
185.000	239.871	79.993	19.997	100.314	19.955	6.614	0.986
186.000	240.881	79.992	19.990	100.323	19.955	6.607	1.023
187.000	241.936	79.992	19.999	100.325	19.952	6.759	1.036
188.000	242.999	79.993	20.000	100.326	19.951	6.834	1.055
189.000	244.021	79.994	19.996	100.313	19.951	6.831	1.027
190.000	244.987	79.995	19.996	100.309	19.950	6.904	0.994
191.000	246.027	79.993	19.995	100.313	19.947	7.100	1.026
192.000	247.051	79.998	19.994	100.320	19.942	7.388	1.023
193.000	248.067	79.998	19.994	100.321	19.945	7.187	1.024
194.000	249.079	79.995	19.995	100.322	19.941	7.441	1.008
195.000	250.115	79.998	19.995	100.323	19.940	7.474	1.029
196.000	251.149	79.993	19.998	100.323	19.937	7.682	1.046
197.000	252.193	79.996	19.993	100.322	19.935	7.785	1.027
198.000	253.180	79.993	19.996	100.322	19.931	8.019	1.000
199.000	254.184	79.996	19.992	100.330	19.932	7.936	1.011
200.000	255.187	79.990	19.996	100.330	19.924	8.409	1.004
201.000	256.227	79.999	19.996	100.330	19.918	8.757	1.032
202.000	257.216	79.991	20.001	100.328	19.920	8.643	1.003
203.000	258.214	79.997	19.997	100.325	19.917	8.853	0.992
204.000	259.260	79.998	19.992	100.322	19.912	9.109	1.022
205.000	260.243	79.993	20.000	100.326	19.912	9.107	1.026
206.000	261.213	79.997	19.995	100.327	19.906	9.503	0.968
207.000	262.206	80.000	19.996	100.328	19.902	9.723	0.985
208.000	263.246	79.995	19.998	100.324	19.901	9.778	1.026
209.000	264.246	79.991	20.001	100.326	19.898	9.935	1.010
210.000	265.227	79.994	19.998	100.323	19.894	10.165	0.993
211.000	266.244	79.999	19.998	100.326	19.889	10.493	0.987
212.000	267.259	79.993	20.000	100.331	19.886	10.630	1.009
213.000	268.251	79.995	19.995	100.332	19.883	10.843	1.024
214.000	269.236	79.997	19.993	100.331	19.877	11.154	0.967
215.000	270.258	79.991	19.997	100.329	19.875	11.280	1.014
216.000	271.272	79.994	19.997	100.339	19.868	11.697	1.009
217.000	272.281	79.995	19.993	100.336	19.864	11.951	1.022
218.000	273.265	79.999	19.997	100.332	19.860	12.153	0.992
219.000	274.261	79.996	19.995	100.332	19.855	12.466	1.004
220.000	275.273	79.997	19.995	100.341	19.850	12.748	1.009
221.000	276.255	79.997	19.997	100.345	19.846	13.019	0.971
222.000	277.305	79.997	19.996	100.355	19.840	13.331	1.025
223.000	278.257	80.000	19.995	100.353	19.839	13.392	0.988
224.000	279.253	79.999	19.994	100.353	19.833	13.776	0.973
225.000	280.231	79.996	19.997	100.354	19.827	14.104	0.995
226.000	281.225	80.003	19.995	100.353	19.821	14.432	0.990
227.000	282.203	79.996	19.995	100.348	19.816	14.753	0.974
228.000	283.206	79.995	20.000	100.346	19.808	15.192	1.010
229.000	284.195	79.991	19.998	100.339	19.803	15.515	1.005
230.000	285.206	79.996	19.995	100.344	19.798	15.812	0.976
231.000	286.158	80.000	19.994	100.348	19.789	16.358	0.974
232.000	287.165	80.001	19.992	100.357	19.783	16.668	0.986
233.000	288.137	79.999	19.996	100.358	19.778	16.956	0.986
234.000	289.131	79.999	19.993	100.372	19.773	17.302	1.011
235.000	290.136	80.000	19.993	100.374	19.766	17.663	0.980
236.000	291.139	79.998	19.993	100.371	19.757	18.220	1.008
237.000	292.134	79.999	19.996	100.367	19.753	18.452	0.978
238.000	293.103	79.999	19.994	100.373	19.740	19.223	0.991
239.000	294.080	79.999	19.994	100.375	19.737	19.411	0.966
240.000	295.043	79.997	19.994	100.383	19.725	20.065	0.970
241.000	296.021	79.998	19.996	100.389	19.718	20.521	0.991
242.000	297.019	79.994	19.997	100.394	19.710	20.962	0.991
243.000	297.967	79.995	19.995	100.394	19.701	21.508	0.957
244.000	298.960	79.995	19.995	100.396	19.688	22.262	0.985
245.000	299.955	79.997	19.996	100.402	19.679	22.777	1.011
246.000	300.965	79.995	19.995	100.416	19.668	23.426	0.963
247.000	301.944	79.996	19.996	100.417	19.658	24.033	1.005
248.000	302.928	79.996	19.996	100.413	19.647	24.650	0.980
249.000	303.915	79.997	19.995	100.419	19.636	25.314	0.993
250.000	304.892	79.996	19.996	100.434	19.623	26.096	0.971
251.000	305.909	79.994	19.997	100.436	19.614	26.626	1.006
252.000	306.899	79.995	19.998	100.441	19.600	27.434	0.984
253.000	307.888	79.997	19.996	100.447	19.587	28.174	1.013
254.000	308.837	79.995	19.999	100.459	19.572	29.097	0.962
255.000	309.825	79.997	19.995	100.464	19.559	29.855	0.973
256.000	310.857	79.997	19.995	100.468	19.541	30.888	0.998
257.000	311.862	79.996	19.995	100.475	19.526	31.784	1.027
258.000	312.840	79.994	19.993	100.484	19.510	32.743	0.988
259.000	313.835	79.996	19.996	100.493	19.495	33.603	0.997
260.000	314.832	79.995	19.996	100.501	19.477	34.655	1.010
261.000	315.798	79.998	19.996	100.508	19.459	35.718	0.968
262.000	316.807	79.998	19.995	100.521	19.440	36.881	1.015
263.000	317.790	79.998	19.995	100.523	19.421	37.991	0.986
264.000	318.788	79.995	19.997	100.525	19.400	39.238	0.996
265.000	319.809	79.995	19.996	100.538	19.380	40.409	1.005
266.000	320.780	79.995	19.995	100.552	19.358	41.691	0.962
267.000	321.791	79.996	19.995	100.569	19.337	42.931	1.013
268.000	322.794	79.996	19.996	100.583	19.310	44.544	0.988
269.000	323.792	79.997	19.996	100.593	19.289	45.800	1.008
270.000	324.753	79.993	19.996	100.598	19.262	47.381	0.964
271.000	325.757	79.996	19.995	100.612	19.233	49.079	0.988
272.000	326.737	79.996	19.996	100.627	19.199	51.106	0.995
273.000	327.739	79.995	19.994	100.638	19.173	52.638	0.996
274.000	328.714	79.994	19.997	100.654	19.143	54.427	0.999
275.000	329.747	79.996	19.996	100.670	19.110	56.357	0.990
276.000	330.768	79.994	19.996	100.686	19.073	58.552	1.031
277.000	331.728	79.995	19.996	100.704	19.038	60.638	0.984
278.000	332.732	79.993	19.997	100.721	19.002	62.778	0.985
279.000	333.711	79.995	19.996	100.735	18.962	65.142	0.993
280.000	334.757	79.995	19.995	100.757	18.923	67.461	1.044
281.000	335.715	79.996	19.995	100.779	18.876	70.220	0.955
282.000	336.729	79.995	19.997	100.787	18.831	72.920	0.991
283.000	337.717	79.996	19.997	100.805	18.783	75.753	1.013
284.000	338.720	79.998	19.995	100.833	18.734	78.703	1.022
285.000	339.682	79.997	19.996	100.864	18.683	81.713	0.946
286.000	340.677	79.998	19.997	100.891	18.628	84.996	1.005
287.000	341.724	79.998	19.996	100.913	18.567	88.593	1.013
288.000	342.671	79.998	19.995	100.935	18.508	92.142	0.978
289.000	343.660	79.997	19.997	100.963	18.441	96.099	0.994
290.000	344.643	79.995	19.996	100.990	18.375	100.038	0.967
291.000	345.630	79.995	19.995	101.015	18.306	104.158	0.988
292.000	346.639	79.997	19.996	101.044	18.234	108.450	1.012
293.000	347.629	79.996	19.996	101.075	18.162	112.690	0.999
294.000	348.613	79.997	19.996	101.103	18.086	117.261	0.984
295.000	349.633	79.996	19.997	101.129	18.007	121.935	1.003
296.000	350.600	79.995	19.996	101.162	17.926	126.743	0.991
297.000	351.612	79.996	19.997	101.201	17.833	132.251	0.985
298.000	352.632	79.996	19.996	101.238	17.753	137.056	1.025
299.000	353.650	79.995	19.996	101.263	17.664	142.343	1.008
300.000	354.623	79.995	19.996	101.286	17.575	147.591	1.005
301.000	355.642	79.996	19.996	101.321	17.487	152.818	1.000
302.000	356.630	79.995	19.997	101.351	17.391	158.528	0.994
303.000	357.640	79.995	19.997	101.373	17.299	163.989	1.000
304.000	358.604	79.994	19.997	101.397	17.202	169.688	0.966
305.000	359.612	79.996	19.997	101.426	17.110	175.127	1.009
306.000	360.612	79.996	19.997	101.449	17.017	180.624	0.987
307.000	361.611	79.995	19.997	101.470	16.923	186.134	1.002
308.000	362.551	79.996	19.997	101.486	16.833	191.381	0.975
309.000	363.593	79.997	19.997	101.504	16.742	196.748	1.004
310.000	364.559	79.997	19.997	101.512	16.657	201.743	0.978
311.000	365.527	79.997	19.997	101.521	16.574	206.534	0.966
312.000	366.538	79.999	19.996	101.528	16.497	211.000	0.993
313.000	367.552	79.996	19.996	101.537	16.424	215.189	1.025
314.000	368.526	79.998	19.997	101.538	16.356	219.118	0.997
315.000	369.523	79.998	19.996	101.528	16.297	222.426	0.983
316.001	370.517	79.997	19.997	101.516	16.242	225.532	0.991
317.000	371.515	79.999	19.996	101.503	16.197	228.033	0.998
318.000	372.552	79.999	19.995	101.481	16.161	229.986	1.034
319.000	373.544	79.998	19.995	101.458	16.134	231.462	1.006
320.000	374.548	79.997	19.995	101.439	16.118	232.223	1.012
321.000	375.518	79.997	19.995	101.409	16.112	232.454	0.982
322.000	376.558	79.996	19.996	101.362	16.121	231.735	1.010
323.000	377.572	79.997	19.995	101.316	16.139	230.509	0.999
324.000	378.577	79.996	19.996	101.270	16.175	228.197	1.020
325.000	379.593	79.996	19.996	101.210	16.222	225.203	1.008
326.000	380.586	79.996	19.996	101.150	16.282	221.514	1.013
327.000	381.595	79.995	19.996	101.083	16.361	216.812	1.007
328.000	382.598	79.995	19.995	101.015	16.450	211.481	1.006
329.000	383.662	79.995	19.995	100.945	16.558	205.124	1.036
330.000	384.675	79.995	19.995	100.882	16.677	198.118	1.020
331.000	385.633	79.996	19.996	100.818	16.812	190.226	0.983
332.000	386.685	79.995	19.995	100.749	16.955	181.870	1.031
333.000	387.688	79.995	19.995	100.680	17.108	172.944	1.021
334.000	388.713	79.995	19.996	100.610	17.271	163.431	1.033
335.000	389.773	79.995	19.995	100.515	17.442	153.449	1.035
336.000	390.791	79.995	19.995	100.411	17.614	143.380	1.015
337.000	391.839	79.992	19.995	100.330	17.790	133.118	1.046
338.000	392.869	79.995	19.997	100.280	17.969	122.696	1.041
339.000	393.954	79.993	19.995	100.241	18.141	112.631	1.071
340.000	394.980	79.994	19.996	100.216	18.311	102.730	1.022
341.000	396.037	79.995	19.997	100.193	18.477	93.024	1.073
342.000	397.067	79.995	19.997	100.178	18.634	83.809	1.035
343.000	398.125	79.994	19.994	100.174	18.779	75.321	1.053
344.000	399.180	79.996	19.995	100.188	18.916	67.316	1.043
345.000	400.228	79.995	19.996	100.200	19.041	60.037	1.058
346.001	401.242	79.995	19.996	100.203	19.155	53.340	1.018
347.000	402.302	79.995	19.996	100.206	19.255	47.502	1.049
348.000	403.374	79.996	19.996	100.217	19.347	42.115	1.071
349.000	404.397	79.996	19.995	100.233	19.429	37.360	1.036
350.000	405.459	79.996	19.995	100.238	19.500	33.236	1.050
351.000	406.501	79.996	19.996	100.236	19.558	29.843	1.049
352.001	407.523	79.996	19.996	100.230	19.618	26.300	1.014
353.000	408.563	79.996	19.995	100.228	19.660	23.858	1.040
354.000	409.594	79.996	19.994	100.231	19.701	21.463	1.068
355.000	410.636	79.996	19.995	100.227	19.731	19.686	1.013
356.000	411.664	79.996	19.995	100.217	19.763	17.827	1.041
357.000	412.692	79.996	19.995	100.191	19.784	16.612	1.019
358.000	413.716	79.995	19.995	100.136	19.804	15.404	1.034
359.000	414.743	79.995	19.995	100.124	19.821	14.411	1.001
360.000	415.751	79.997	19.996	100.221	19.838	13.456	1.031
361.000	416.794	79.996	19.995	100.268	19.851	12.682	1.027
362.000	417.783	79.995	19.995	100.267	19.863	11.992	1.006
363.000	418.788	79.998	19.996	100.208	19.868	11.707	1.023
364.000	419.877	79.996	19.996	100.197	19.876	11.220	1.037
365.000	420.892	79.997	19.996	100.196	19.881	10.916	1.040
366.000	421.935	79.997	19.996	100.197	19.888	10.543	1.005
367.000	422.936	79.996	19.995	100.200	19.888	10.494	1.046
368.000	423.955	79.996	19.996	100.200	19.890	10.397	1.031
369.000	424.959	79.997	19.996	100.198	19.900	9.792	0.996
370.000	426.058	79.998	19.996	100.196	19.892	10.299	1.052
371.000	427.042	79.998	19.997	100.196	19.903	9.622	1.026
372.000	428.073	79.999	19.996	100.198	19.903	9.616	1.020
373.000	429.093	79.997	19.997	100.193	19.903	9.653	1.037
374.000	430.162	79.996	19.996	100.190	19.906	9.446	1.012
375.000	431.153	79.997	19.997	100.189	19.908	9.354	1.007
376.000	432.198	79.998	19.995	100.191	19.906	9.492	1.022
377.000	433.196	79.998	19.996	100.192	19.910	9.252	1.033
378.000	434.307	79.998	19.996	100.194	19.910	9.258	1.014
379.000	435.208	79.999	19.996	100.194	19.911	9.144	0.952
380.001	436.250	79.997	19.996	100.193	19.913	9.084	1.098
381.000	437.069	79.996	19.995	100.186	19.914	9.000	0.875
382.000	438.510	79.997	19.996	100.183	19.912	9.116	1.190
383.000	439.665	79.995	19.997	100.181	19.914	8.979	1.372
384.000	439.982	79.997	19.996	100.190	19.917	8.817	0.458
385.000	441.207	79.996	19.996	100.190	19.917	8.841	1.135
386.000	442.462	79.997	19.996	100.184	19.916	8.880	1.092
387.000	443.168	79.997	19.997	100.180	19.917	8.837	0.842
388.000	444.168	79.995	19.996	100.186	19.916	8.878	1.081
389.000	445.325	79.997	19.997	100.184	19.916	8.904	1.006
390.000	446.260	79.997	19.996	100.188	19.916	8.889	0.993
391.000	447.207	79.999	19.996	100.195	19.919	8.729	0.966
392.000	448.291	79.998	19.996	100.199	19.919	8.683	1.061
393.001	449.262	79.998	19.996	100.196	19.922	8.550	0.982
394.000	450.334	79.996	19.996	100.191	19.918	8.765	1.019
395.000	451.316	79.997	19.996	100.182	19.920	8.618	0.974
396.000	452.262	79.997	19.996	100.178	19.918	8.745	0.984
397.000	453.261	79.997	19.996	100.177	19.918	8.798	1.015
398.000	454.308	79.997	19.996	100.183	19.917	8.811	1.006
399.000	455.278	79.997	19.996	100.190	19.921	8.599	0.991
400.000	456.293	79.997	19.996	100.192	19.917	8.848	1.021
401.000	457.276	79.997	19.995	100.183	19.923	8.489	0.976
402.000	458.313	79.996	19.997	100.173	19.922	8.525	1.014
403.000	459.307	79.996	19.995	100.173	19.920	8.643	1.003
404.000	460.276	79.995	19.996	100.178	19.920	8.641	0.982
405.000	461.336	79.995	19.995	100.128	19.922	8.530	1.034
406.000	462.244	79.994	19.995	100.101	19.921	8.593	0.953
407.000	463.257	79.996	19.996	100.123	19.921	8.580	1.026
408.000	464.226	79.995	19.996	100.252	19.922	8.501	0.956
409.000	465.219	79.996	19.995	100.269	19.926	8.310	0.984
410.000	466.240	79.995	19.995	100.215	19.925	8.366	1.002
411.000	467.251	79.995	19.995	100.189	19.927	8.260	1.019
412.000	468.189	79.997	19.994	100.178	19.924	8.399	0.960
413.000	469.240	79.995	19.995	100.172	19.928	8.194	1.021
414.000	470.182	79.994	19.995	100.167	19.930	8.055	0.982
415.000	471.198	79.995	19.995	100.165	19.927	8.226	0.999
416.000	472.190	79.996	19.996	100.168	19.929	8.146	0.985
417.000	473.202	79.995	19.995	100.176	19.928	8.156	1.005
418.000	474.213	79.994	19.996	100.181	19.930	8.054	0.997
419.000	475.252	79.994	19.995	100.172	19.931	8.003	1.025
420.000	476.233	79.995	19.995	100.166	19.927	8.220	1.022
421.000	477.212	79.995	19.995	100.167	19.930	8.082	0.961
422.000	478.216	79.996	19.996	100.169	19.926	8.281	1.006
423.000	479.233	79.996	19.996	100.167	19.930	8.041	1.021
424.001	480.204	79.995	19.996	100.171	19.931	7.997	0.983
425.000	481.204	79.995	19.996	100.177	19.932	7.950	0.994
426.000	482.232	79.996	19.995	100.174	19.934	7.855	1.024
427.000	483.233	79.995	19.996	100.166	19.932	7.938	0.992
428.000	484.242	79.998	19.996	100.164	19.933	7.882	1.020
429.000	485.214	79.997	19.995	100.165	19.936	7.696	0.995
430.001	486.244	79.997	19.995	100.166	19.939	7.517	0.989
431.000	487.249	79.997	19.994	100.168	19.939	7.517	1.015
432.000	488.201	79.996	19.996	100.163	19.941	7.415	0.995
433.000	489.248	79.996	19.996	100.165	19.940	7.448	1.015
434.000	490.254	79.996	19.995	100.164	19.940	7.506	1.010
435.000	491.274	79.994	19.995	100.164	19.940	7.458	1.009
436.000	492.277	79.996	19.996	100.162	19.940	7.459	0.995
437.000	493.263	79.994	19.995	100.161	19.941	7.427	1.001
438.000	494.301	79.994	19.995	100.161	19.941	7.408	1.026
439.000	495.308	79.995	19.996	100.163	19.939	7.559	1.025
440.000	496.315	79.995	19.995	100.167	19.940	7.448	0.995
441.000	497.324	79.995	19.995	100.168	19.939	7.509	0.997
442.000	498.315	79.996	19.995	100.171	19.941	7.439	1.004
443.000	499.339	79.995	19.995	100.168	19.944	7.216	1.050
444.000	500.356	79.996	19.996	100.166	19.943	7.322	0.994
445.000	501.398	79.995	19.996	100.169	19.942	7.352	1.036
446.000	502.440	79.996	19.996	100.169	19.945	7.200	1.038
447.000	503.437	79.997	19.995	100.168	19.944	7.216	1.006
448.000	504.423	79.997	19.994	100.164	19.946	7.149	0.986
449.000	505.438	79.997	19.996	100.163	19.942	7.338	1.019
450.000	506.443	79.996	19.995	100.165	19.946	7.109	1.015
451.000	507.436	79.997	19.995	100.167	19.951	6.842	0.960
452.000	508.449	79.997	19.995	100.165	19.952	6.778	1.023
453.001	509.487	79.995	19.995	100.167	19.948	6.992	1.061
454.000	510.484	79.996	19.995	100.166	19.948	6.988	0.986
455.000	511.496	79.996	19.995	100.163	19.953	6.704	1.005
456.000	512.454	79.997	19.997	100.162	19.951	6.814	0.970
457.000	513.504	79.995	19.996	100.164	19.951	6.823	1.036
458.000	514.543	79.996	19.995	100.164	19.950	6.883	1.028
459.000	515.599	79.995	19.996	100.164	19.951	6.818	1.077
460.001	516.612	79.995	19.996	100.162	19.948	7.004	1.007
461.000	517.653	79.995	19.996	100.162	19.952	6.769	1.020
462.000	518.645	79.995	19.995	100.164	19.955	6.572	1.023
463.000	519.670	79.996	19.996	100.164	19.952	6.762	1.002
464.000	520.680	79.996	19.996	100.164	19.957	6.510	1.024
465.000	521.738	79.996	19.997	100.166	19.954	6.677	1.045
466.000	522.746	79.996	19.995	100.169	19.958	6.409	1.023
467.000	523.770	79.995	19.995	100.168	19.956	6.530	1.012
468.000	524.791	79.996	19.995	100.165	19.958	6.397	1.023
469.001	525.810	79.995	19.996	100.164	19.957	6.495	1.042
470.000	526.837	79.997	19.996	100.164	19.958	6.417	1.011
471.000	527.870	79.996	19.996	100.165	19.960	6.322	1.027
472.000	528.887	79.995	19.995	100.165	19.961	6.260	1.017
473.001	529.939	79.998	19.995	100.163	19.959	6.357	1.037
474.000	530.966	79.996	19.995	100.162	19.962	6.169	1.037
475.000	531.968	79.997	19.995	100.163	19.963	6.140	1.012
476.000	533.012	79.998	19.996	100.163	19.957	6.489	1.047
477.000	534.033	79.998	19.996	100.163	19.961	6.253	1.006
478.000	535.057	80.000	19.996	100.163	19.961	6.250	1.029
479.000	536.107	79.998	19.996	100.162	19.965	6.043	1.058
480.000	537.144	79.997	19.997	100.160	19.964	6.073	1.027
481.000	538.152	79.998	19.996	100.160	19.960	6.293	1.020
482.000	539.199	79.997	19.997	100.159	19.962	6.188	1.042
483.000	540.247	79.997	19.996	100.160	19.966	5.986	1.033
484.000	541.261	79.996	19.996	100.159	19.962	6.198	1.029
485.000	542.303	79.996	19.997	100.158	19.961	6.237	1.037
486.000	543.327	79.995	19.997	100.158	19.964	6.084	1.039
487.000	544.361	79.995	19.997	100.159	19.961	6.250	1.031
488.000	545.380	79.995	19.996	100.161	19.961	6.241	0.995
489.000	546.400	79.995	19.998	100.160	19.964	6.085	1.024
490.000	547.429	79.995	19.996	100.159	19.964	6.058	1.027
491.000	548.486	79.994	19.996	100.158	19.966	5.983	1.069
492.000	549.516	79.996	19.996	100.158	19.959	6.373	1.025
493.000	550.506	79.995	19.997	100.158	19.962	6.180	0.984
494.000	551.531	79.997	19.998	100.159	19.961	6.266	1.041
495.000	552.493	79.996	19.996	100.159	19.966	5.948	0.988
496.000	553.608	79.996	19.996	100.156	19.966	5.970	1.080
497.000	554.601	79.996	19.996	100.155	19.966	5.959	1.002
498.000	555.651	79.997	19.995	100.156	19.964	6.090	1.045
499.000	556.647	79.995	19.996	100.160	19.965	6.029	1.004
500.000	557.683	79.998	19.996	100.157	19.967	5.878	1.032
501.000	558.711	79.997	19.995	100.158	19.970	5.695	1.043
502.000	559.723	79.996	19.996	100.159	19.968	5.857	0.995
503.000	560.738	79.996	19.995	100.160	19.965	6.032	1.018
504.000	561.785	79.997	19.996	100.160	19.971	5.685	1.021
505.001	562.786	79.996	19.996	100.160	19.972	5.603	1.034
506.000	563.821	79.997	19.995	100.159	19.968	5.868	1.000
507.000	564.821	79.995	19.996	100.160	19.972	5.612	1.017
508.000	565.773	79.996	19.995	100.161	19.971	5.661	0.977
509.000	566.817	79.998	19.996	100.160	19.966	5.975	1.034
510.000	567.845	79.997	19.996	100.161	19.969	5.805	1.012
511.000	568.836	79.996	19.996	100.155	19.963	6.122	1.003
512.000	569.833	79.995	19.995	100.154	19.966	5.962	1.022
513.000	570.891	79.995	19.994	100.158	19.964	6.073	1.011
514.000	571.910	79.996	19.996	100.162	19.966	5.928	1.045
515.000	572.916	79.996	19.996	100.157	19.969	5.789	0.997
516.000	573.928	79.993	19.995	100.158	19.966	5.943	1.014
517.000	574.996	79.995	19.995	100.160	19.962	6.180	1.057
518.000	576.014	79.997	19.996	100.159	19.966	5.949	1.039
519.000	577.008	79.995	19.996	100.146	19.967	5.920	0.989
520.000	578.032	79.995	19.996	100.137	19.969	5.784	1.018
521.000	579.069	79.995	19.996	100.143	19.965	6.036	1.039
522.000	580.047	79.994	19.996	100.153	19.970	5.740	0.985
523.000	581.064	79.995	19.997	100.151	19.965	6.031	1.014
524.000	582.070	79.996	19.996	100.144	19.964	6.101	1.009
525.000	583.082	79.996	19.995	100.149	19.962	6.196	0.990
526.000	584.094	79.996	19.995	100.153	19.968	5.857	1.004
527.000	585.055	79.996	19.995	100.156	19.969	5.802	0.995
528.000	586.072	79.998	19.995	100.151	19.965	6.029	1.009
529.000	587.113	79.996	19.994	100.150	19.967	5.919	1.037
530.000	588.065	79.997	19.994	100.146	19.965	6.004	0.957
531.000	589.058	79.996	19.995	100.152	19.968	5.833	1.017
532.000	590.097	79.997	19.995	100.162	19.968	5.828	1.001
533.000	591.062	79.997	19.994	100.162	19.970	5.744	0.992
534.000	592.106	79.997	19.996	100.160	19.968	5.852	1.020
535.000	593.134	79.995	19.994	100.158	19.972	5.620	1.025
536.000	594.153	79.998	19.995	100.160	19.967	5.903	1.031
537.000	595.161	79.997	19.994	100.156	19.967	5.883	1.009
538.000	596.189	79.996	19.994	100.158	19.967	5.925	1.027
539.000	597.215	79.997	19.994	100.157	19.969	5.800	1.022
540.000	598.202	79.997	19.995	100.159	19.968	5.863	0.987
541.000	599.199	79.996	19.995	100.161	19.965	6.003	0.991
542.000	600.229	79.996	19.995	100.156	19.968	5.826	1.023
543.000	601.228	79.996	19.996	100.150	19.966	5.949	1.021
544.000	602.244	79.995	19.996	100.149	19.969	5.753	1.008
545.000	603.241	79.995	19.995	100.154	19.967	5.891	1.017
546.000	604.261	79.996	19.995	100.156	19.967	5.921	1.003
547.000	605.294	79.998	19.996	100.151	19.966	5.934	1.019
548.000	606.243	79.996	19.995	100.145	19.971	5.664	0.978
549.001	607.286	79.996	19.996	100.146	19.966	5.934	1.000
550.000	608.244	79.995	19.996	100.153	19.971	5.690	0.996
551.000	609.265	79.997	19.997	100.157	19.968	5.849	1.018
552.000	610.269	79.996	19.996	100.151	19.967	5.915	0.999
553.000	611.267	79.996	19.996	100.149	19.966	5.928	1.003
554.000	612.283	79.996	19.996	100.151	19.969	5.807	1.003
555.000	613.312	79.997	19.995	100.151	19.968	5.834	1.027
556.000	614.287	79.996	19.996	100.142	19.968	5.863	0.995
557.000	615.306	79.996	19.995	100.135	19.966	5.962	1.006
558.000	616.371	79.997	19.996	100.142	19.964	6.048	1.066
559.000	617.350	79.997	19.996	100.143	19.962	6.190	0.965
560.000	618.366	79.998	19.996	100.144	19.971	5.678	1.041
561.000	619.388	79.996	19.994	100.148	19.968	5.869	1.000
562.000	620.396	79.998	19.996	100.151	19.969	5.777	1.013
563.000	621.416	79.998	19.996	100.148	19.969	5.790	1.020
564.000	622.381	79.998	19.996	100.138	19.971	5.669	0.986
565.000	623.430	79.996	19.996	100.143	19.968	5.817	1.024
566.000	624.468	79.995	19.996	100.147	19.975	5.444	1.042
567.000	625.389	79.994	19.996	100.144	19.974	5.508	0.932
568.001	626.417	79.996	19.995	100.135	19.969	5.757	1.024
569.000	627.455	79.995	19.996	100.132	19.969	5.772	1.027
570.000	628.414	79.995	19.996	100.132	19.969	5.778	0.978
571.000	629.400	79.993	19.996	100.132	19.968	5.855	0.982
572.000	630.430	79.995	19.996	100.140	19.970	5.718	1.032
573.000	631.490	79.994	19.996	100.152	19.970	5.751	1.038
574.000	632.453	79.993	19.996	100.149	19.965	6.006	0.938
575.000	633.461	79.994	19.996	100.149	19.968	5.833	1.044
576.000	634.496	79.995	19.997	100.151	19.966	5.930	1.022
577.000	635.528	79.995	19.996	100.141	19.970	5.711	1.048
578.000	636.512	79.995	19.996	100.137	19.967	5.915	0.999
579.000	637.531	79.993	19.996	100.139	19.971	5.654	1.010
580.000	638.514	79.995	19.997	100.143	19.968	5.860	1.005
581.000	639.567	79.996	19.997	100.138	19.967	5.920	1.013
582.000	640.582	79.996	19.996	100.140	19.970	5.733	1.026
583.000	641.521	79.996	19.996	100.143	19.972	5.621	0.960
584.000	642.549	79.994	19.996	100.140	19.970	5.709	1.006
585.001	643.550	79.995	19.995	100.128	19.973	5.565	1.012
586.000	644.552	79.996	19.996	100.130	19.970	5.751	0.987
587.000	645.525	79.997	19.995	100.131	19.969	5.792	0.986
588.000	646.515	79.995	19.996	100.132	19.970	5.711	0.991
589.000	647.584	79.996	19.996	100.132	19.970	5.732	1.043
590.000	648.577	79.996	19.996	100.136	19.970	5.706	0.991
591.000	649.565	79.995	19.995	100.149	19.975	5.447	1.023
592.000	650.527	79.994	19.994	100.152	19.969	5.762	0.981
593.000	651.620	79.997	19.996	100.152	19.971	5.671	1.071
594.000	652.611	79.995	19.996	100.146	19.973	5.570	1.031
595.000	653.642	79.996	19.995	100.146	19.976	5.369	0.955
596.000	654.676	79.994	19.995	100.141	19.971	5.686	1.053
597.000	655.678	79.995	19.996	100.139	19.969	5.763	1.007
598.001	656.689	79.994	19.996	100.137	19.970	5.724	0.996
599.000	657.686	79.996	19.995	100.134	19.971	5.679	0.999
600.000	658.675	79.995	19.995	100.130	19.971	5.679	1.012
601.000	659.701	79.994	19.996	100.129	19.973	5.525	1.020
602.000	660.710	79.994	19.996	100.132	19.973	5.523	1.005
603.000	661.751	79.993	19.995	100.133	19.970	5.725	1.041
604.000	662.731	79.996	19.996	100.133	19.970	5.729	0.983
605.000	663.779	79.995	19.996	100.136	19.974	5.493	1.031
606.000	664.755	79.995	19.996	100.136	19.974	5.503	0.977
607.000	665.764	79.995	19.995	100.133	19.971	5.674	1.013
608.000	666.759	79.997	19.995	100.133	19.970	5.713	1.009
609.000	667.753	79.996	19.996	100.134	19.971	5.642	1.013
610.000	668.751	79.996	19.995	100.125	19.976	5.367	0.980
611.000	669.799	79.996	19.995	100.126	19.977	5.327	1.035
612.000	670.813	79.997	19.995	100.126	19.973	5.526	1.014
613.000	671.804	79.997	19.996	100.125	19.973	5.566	0.997
614.000	672.800	79.998	19.995	100.123	19.974	5.466	1.003
615.000	673.845	79.998	19.995	100.133	19.970	5.746	1.024
616.000	674.875	79.998	19.995	100.135	19.973	5.531	1.046
617.000	675.876	79.998	19.995	100.130	19.971	5.682	0.999
618.000	676.901	79.998	19.995	100.121	19.973	5.543	1.020
619.000	677.887	79.999	19.995	100.120	19.969	5.759	0.999
620.000	678.939	79.998	19.995	100.123	19.970	5.747	1.038
621.000	679.978	79.997	19.995	100.125	19.968	5.826	1.019
622.000	680.948	79.998	19.995	100.124	19.967	5.882	1.010
623.000	681.981	79.996	19.994	100.124	19.969	5.761	1.006
624.000	683.036	79.997	19.995	100.125	19.968	5.863	1.062
625.000	684.029	79.998	19.995	100.126	19.973	5.551	0.993
626.000	685.033	79.997	19.995	100.126	19.968	5.825	1.018
627.000	686.044	79.998	19.994	100.123	19.971	5.649	1.009
628.000	687.037	79.997	19.995	100.120	19.973	5.526	1.015
629.000	688.050	79.996	19.995	100.118	19.975	5.418	1.010
630.000	689.061	79.998	19.996	100.118	19.975	5.456	1.001
631.001	690.061	79.997	19.995	100.123	19.975	5.415	0.996
632.000	691.096	79.996	19.996	100.122	19.972	5.631	1.042
633.000	692.128	79.997	19.995	100.121	19.970	5.703	1.012
634.000	693.150	79.997	19.995	100.122	19.972	5.634	1.021
635.000	694.160	80.000	19.995	100.122	19.972	5.623	1.006
636.000	695.168	79.996	19.995	100.123	19.971	5.672	1.018
637.000	696.173	79.998	19.995	100.126	19.973	5.564	1.010
638.000	697.213	79.997	19.996	100.125	19.970	5.706	1.041
639.000	698.226	80.000	19.996	100.122	19.971	5.676	1.015
640.000	699.248	79.997	19.995	100.122	19.969	5.763	1.003
641.000	700.220	79.999	19.996	100.122	19.973	5.561	1.001
642.000	701.267	79.998	19.997	100.123	19.978	5.264	1.018
643.000	702.246	79.998	19.995	100.123	19.972	5.598	0.994
644.000	703.248	79.998	19.995	100.124	19.973	5.572	1.008
645.000	704.284	79.998	19.996	100.124	19.970	5.707	1.037
646.000	705.270	79.996	19.996	100.126	19.970	5.695	0.987
647.000	706.299	79.994	19.995	100.126	19.973	5.544	1.007
648.000	707.267	79.995	19.995	100.128	19.968	5.851	0.995
649.000	708.278	79.995	19.997	100.132	19.968	5.816	1.018
650.000	709.304	79.995	19.996	100.132	19.975	5.407	1.001
651.001	710.309	79.995	19.995	100.125	19.974	5.464	1.015
652.000	711.318	79.995	19.995	100.125	19.970	5.714	0.991
653.000	712.313	79.994	19.995	100.126	19.973	5.575	1.037
654.000	713.300	79.995	19.996	100.125	19.970	5.706	0.972
655.000	714.353	79.995	19.995	100.125	19.969	5.806	1.018
656.000	715.370	79.995	19.995	100.125	19.970	5.749	1.030
657.000	716.414	79.995	19.996	100.126	19.970	5.695	1.045
658.000	717.394	79.995	19.996	100.127	19.969	5.782	1.001
659.000	718.431	79.995	19.995	100.126	19.968	5.864	0.992
660.000	719.437	79.993	19.996	100.126	19.969	5.775	1.016
661.000	720.417	79.995	19.996	100.127	19.971	5.689	1.000
662.000	721.419	79.995	19.996	100.127	19.970	5.694	0.998
663.000	722.393	79.994	19.995	100.124	19.968	5.823	0.987
664.000	723.445	79.995	19.997	100.124	19.970	5.742	1.034
665.000	724.444	79.995	19.996	100.121	19.968	5.821	0.994
666.000	725.423	79.996	19.996	100.121	19.969	5.797	0.995
667.000	726.445	79.997	19.996	100.121	19.968	5.824	1.018
668.000	727.411	79.996	19.996	100.123	19.971	5.673	0.976
669.000	728.417	79.997	19.997	100.120	19.972	5.580	0.994
670.000	729.419	79.995	19.997	100.118	19.971	5.676	1.010
671.000	730.400	79.995	19.996	100.111	19.973	5.522	0.987
672.000	731.425	79.996	19.997	100.114	19.970	5.729	1.016
673.000	732.426	79.996	19.996	100.117	19.969	5.787	0.991
674.000	733.418	79.995	19.997	100.117	19.968	5.841	1.008
675.000	734.429	79.994	19.996	100.115	19.966	5.941	0.990
676.000	735.390	79.995	19.996	100.106	19.968	5.818	0.994
677.000	736.390	79.996	19.996	100.100	19.970	5.744	0.970
678.000	737.398	79.995	19.996	100.104	19.967	5.920	1.024