File: 01_Data/Cotton_Shirt/MCC/Cotton_Shirt_MCC_30K_min_210709_R2.txt
Sample ID:	C:\MCC\MCC Cal\Test\Cotton_Shirt\Cotton_Shirt_MCC_30K_min_210709_R2.txt
Sample Weight (mg):	4.89
Heating Rate (C/s):	1
Combustor Temp (C):	900
N2 Flow Rate (cc/min):	80
O2 Flow Rate (cc/min):	20
Calibration File:	C:\MCC\MCC Cal\Coeff1 JN10440_30_210304.txt.txt
T Correction Coefficients:	0	1.024463	0
Time Shift (s):	14
*
Time (s)	Temperature (C)	N2 flow rate (cc/min)	O2 flow rate (cc/min)	Flow Rate (cc/min)	Oxygen (%)	HRR (W/g)	Heating rate (C/s)
0.000	110.904	79.995	19.995	99.926	20.018	0.049	0.004
1.000	110.897	79.996	19.997	99.924	20.016	0.168	-0.016
2.000	110.897	79.997	19.996	99.926	20.017	0.113	0.022
3.000	110.849	79.997	19.996	99.928	20.014	0.297	-0.059
4.000	110.828	79.999	19.996	99.926	20.013	0.379	-0.025
5.000	110.882	79.998	19.995	99.925	20.015	0.247	0.019
6.000	110.876	80.000	19.995	99.927	20.021	-0.183	0.000
7.000	110.859	79.997	19.995	99.933	20.016	0.130	0.001
8.000	110.842	79.999	19.995	99.934	20.017	0.090	-0.021
9.001	110.819	79.997	19.995	99.932	20.017	0.085	-0.026
10.000	110.829	79.998	19.995	99.931	20.013	0.378	0.009
11.000	110.793	80.000	19.996	99.944	20.013	0.353	-0.012
12.001	110.761	79.998	19.995	99.955	20.013	0.366	-0.031
13.001	110.806	80.000	19.995	99.954	20.005	0.830	0.039
14.000	110.778	79.996	19.995	99.962	20.005	0.830	-0.026
15.000	110.783	79.999	19.996	100.008	19.998	1.335	0.017
16.000	110.819	79.996	19.995	100.065	19.991	1.785	0.005
17.000	110.835	79.999	19.995	100.115	19.986	2.077	0.029
18.000	110.859	79.999	19.996	100.153	19.979	2.548	0.018
19.000	110.925	79.998	19.995	100.183	19.978	2.605	0.070
20.000	111.020	80.000	19.996	100.191	19.977	2.676	0.086
21.000	111.111	79.997	19.994	100.188	19.975	2.791	0.084
22.000	111.159	79.999	19.996	100.190	19.966	3.371	0.065
23.000	111.328	79.998	19.995	100.204	19.968	3.235	0.144
24.000	111.400	79.998	19.995	100.206	19.967	3.315	0.075
25.000	111.570	79.998	19.995	100.213	19.960	3.711	0.143
26.000	111.723	79.997	19.996	100.220	19.960	3.724	0.169
27.000	111.855	79.997	19.996	100.228	19.962	3.607	0.118
28.000	112.016	79.997	19.996	100.237	19.957	3.963	0.195
29.000	112.222	79.998	19.995	100.244	19.952	4.245	0.184
30.000	112.418	79.997	19.995	100.255	19.956	4.026	0.174
31.000	112.628	80.000	19.995	100.272	19.956	4.007	0.227
32.000	112.876	80.000	19.995	100.281	19.952	4.230	0.221
33.000	113.088	80.000	19.996	100.280	19.951	4.302	0.233
34.000	113.375	80.000	19.996	100.282	19.947	4.589	0.282
35.000	113.666	79.999	19.995	100.288	19.945	4.711	0.279
36.000	113.954	80.001	19.995	100.291	19.943	4.822	0.276
37.000	114.278	80.000	19.994	100.304	19.942	4.868	0.309
38.000	114.556	80.001	19.994	100.319	19.940	5.030	0.300
39.000	114.858	80.000	19.995	100.322	19.938	5.161	0.314
40.000	115.257	79.999	19.994	100.322	19.934	5.414	0.358
41.000	115.577	80.001	19.994	100.320	19.933	5.462	0.324
42.000	115.962	79.999	19.995	100.323	19.935	5.330	0.398
43.000	116.352	79.997	19.994	100.337	19.932	5.527	0.372
44.000	116.733	79.996	19.995	100.351	19.935	5.342	0.369
45.000	117.134	79.996	19.994	100.358	19.930	5.643	0.402
46.000	117.550	79.997	19.995	100.359	19.933	5.488	0.415
47.001	118.032	79.997	19.996	100.362	19.930	5.683	0.490
48.000	118.490	79.997	19.996	100.360	19.935	5.370	0.433
49.000	118.948	79.996	19.995	100.360	19.933	5.485	0.460
50.000	119.405	79.995	19.994	100.361	19.926	5.938	0.469
51.000	119.890	79.998	19.996	100.363	19.927	5.837	0.476
52.000	120.361	79.998	19.995	100.363	19.929	5.743	0.472
53.000	120.883	79.996	19.995	100.362	19.933	5.476	0.500
54.000	121.448	79.996	19.995	100.358	19.929	5.716	0.552
55.000	121.918	79.996	19.996	100.357	19.926	5.917	0.517
56.000	122.495	79.997	19.997	100.357	19.927	5.835	0.544
57.000	123.079	79.995	19.995	100.356	19.933	5.460	0.566
58.000	123.625	79.997	19.995	100.356	19.931	5.574	0.553
59.000	124.190	79.997	19.996	100.358	19.929	5.699	0.581
60.000	124.759	79.995	19.996	100.358	19.931	5.579	0.580
61.000	125.341	79.996	19.996	100.358	19.926	5.919	0.572
62.000	125.934	79.998	19.997	100.358	19.926	5.939	0.584
63.000	126.543	79.996	19.997	100.355	19.931	5.597	0.598
64.000	127.138	79.995	19.995	100.351	19.935	5.368	0.608
65.000	127.771	79.995	19.995	100.352	19.929	5.747	0.621
66.000	128.401	79.997	19.995	100.356	19.929	5.701	0.625
67.000	129.034	79.997	19.996	100.357	19.927	5.846	0.633
68.000	129.633	79.995	19.995	100.358	19.926	5.895	0.632
69.000	130.339	79.995	19.995	100.357	19.929	5.758	0.664
70.000	130.958	79.997	19.996	100.357	19.927	5.849	0.632
71.000	131.650	79.996	19.996	100.359	19.927	5.866	0.668
72.000	132.327	79.996	19.995	100.363	19.925	5.954	0.698
73.000	132.943	79.997	19.996	100.368	19.927	5.886	0.639
74.000	133.697	79.998	19.996	100.368	19.931	5.572	0.712
75.000	134.372	79.998	19.995	100.366	19.925	5.983	0.687
76.000	135.079	79.995	19.995	100.368	19.925	5.989	0.704
77.000	135.799	79.995	19.997	100.328	19.927	5.838	0.706
78.000	136.505	79.995	19.996	100.305	19.924	6.037	0.713
79.000	137.197	79.996	19.996	100.311	19.923	6.111	0.704
80.000	137.942	79.994	19.997	100.411	19.928	5.769	0.730
81.000	138.691	79.995	19.996	100.454	19.924	6.041	0.748
82.000	139.430	79.994	19.996	100.440	19.926	5.933	0.729
83.000	140.149	79.995	19.996	100.384	19.922	6.181	0.726
84.000	140.946	79.997	19.997	100.367	19.930	5.693	0.770
85.000	141.698	79.996	19.996	100.367	19.923	6.085	0.782
86.000	142.462	79.998	19.997	100.380	19.923	6.128	0.752
87.000	143.260	79.996	19.998	100.392	19.923	6.099	0.803
88.000	144.085	79.998	19.998	100.402	19.921	6.267	0.819
89.000	144.873	79.999	19.997	100.403	19.924	6.067	0.801
90.000	145.676	79.998	19.997	100.398	19.919	6.396	0.793
91.000	146.475	79.999	19.996	100.394	19.927	5.875	0.797
92.000	147.294	79.998	19.995	100.393	19.921	6.243	0.803
93.000	148.148	79.999	19.995	100.395	19.922	6.203	0.837
94.000	148.947	79.998	19.995	100.395	19.919	6.362	0.811
95.000	149.801	79.997	19.994	100.395	19.927	5.858	0.851
96.000	150.632	79.997	19.996	100.391	19.929	5.707	0.845
97.000	151.432	79.998	19.995	100.392	19.925	5.996	0.797
98.000	152.317	79.996	19.994	100.388	19.920	6.310	0.868
99.001	153.152	79.996	19.995	100.384	19.924	6.043	0.845
100.000	154.000	79.997	19.995	100.379	19.928	5.822	0.855
101.000	154.872	79.997	19.995	100.377	19.926	5.909	0.872
102.000	155.748	79.999	19.995	100.382	19.924	6.080	0.865
103.000	156.582	79.998	19.996	100.385	19.929	5.729	0.852
104.000	157.477	79.996	19.995	100.387	19.928	5.816	0.875
105.000	158.367	79.997	19.995	100.392	19.924	6.022	0.892
106.000	159.227	79.995	19.995	100.388	19.922	6.191	0.850
107.000	160.146	79.996	19.995	100.375	19.931	5.611	0.908
108.000	161.023	79.996	19.994	100.367	19.925	5.981	0.910
109.000	161.965	79.997	19.995	100.366	19.927	5.837	0.926
110.000	162.883	79.998	19.995	100.369	19.924	6.024	0.901
111.000	163.768	79.997	19.995	100.365	19.933	5.492	0.897
112.000	164.704	79.998	19.994	100.364	19.928	5.781	0.928
113.000	165.629	79.998	19.995	100.362	19.929	5.739	0.907
114.000	166.589	79.999	19.995	100.367	19.931	5.607	0.966
115.000	167.492	79.999	19.996	100.366	19.925	5.957	0.919
116.000	168.481	80.000	19.995	100.363	19.931	5.631	0.951
117.000	169.325	79.999	19.995	100.361	19.929	5.743	0.894
118.000	170.339	79.999	19.993	100.368	19.931	5.591	0.992
119.000	171.277	79.998	19.994	100.370	19.923	6.093	0.926
120.000	172.217	79.999	19.994	100.364	19.933	5.490	0.947
121.001	173.174	79.999	19.996	100.361	19.926	5.941	0.947
122.001	174.109	79.999	19.995	100.359	19.934	5.411	0.968
123.000	175.034	79.998	19.994	100.360	19.930	5.668	0.912
124.000	176.031	79.998	19.992	100.358	19.927	5.868	0.982
125.000	176.990	79.998	19.997	100.358	19.927	5.861	0.953
126.000	177.979	79.998	19.996	100.358	19.925	5.980	0.998
127.000	178.935	79.997	19.996	100.359	19.928	5.763	0.965
128.000	179.906	79.997	19.995	100.359	19.923	6.119	0.973
129.000	180.916	79.998	19.995	100.359	19.928	5.782	0.990
130.000	181.851	79.997	19.996	100.359	19.932	5.532	0.955
131.000	182.864	79.997	19.996	100.357	19.921	6.233	1.003
132.000	183.853	79.996	19.995	100.355	19.927	5.829	0.996
133.000	184.817	79.996	19.994	100.356	19.930	5.682	0.967
134.000	185.862	79.998	19.996	100.359	19.933	5.472	1.009
135.000	186.857	79.996	19.994	100.357	19.934	5.418	1.034
136.000	187.894	79.998	19.997	100.354	19.929	5.751	1.015
137.000	188.829	79.997	19.995	100.353	19.931	5.607	0.960
138.000	189.859	79.996	19.995	100.347	19.929	5.725	1.014
139.000	190.855	79.994	19.996	100.348	19.928	5.763	0.988
140.000	191.856	79.997	19.996	100.348	19.930	5.641	1.011
141.000	192.902	79.996	19.997	100.338	19.929	5.693	1.033
142.000	193.905	79.996	19.995	100.330	19.933	5.481	1.005
143.000	194.910	79.995	19.997	100.337	19.929	5.737	0.997
144.000	195.904	79.997	19.997	100.335	19.928	5.772	1.003
145.000	196.917	79.996	19.996	100.324	19.931	5.572	1.013
146.000	197.940	79.996	19.996	100.318	19.927	5.843	1.027
147.000	199.000	79.996	19.995	100.325	19.927	5.833	1.038
148.000	200.047	79.997	19.996	100.328	19.929	5.742	1.056
149.000	201.018	79.997	19.996	100.327	19.932	5.509	1.002
150.000	202.039	79.996	19.996	100.322	19.933	5.488	1.003
151.001	203.089	79.996	19.996	100.318	19.931	5.622	1.025
152.000	204.142	79.998	19.996	100.317	19.926	5.901	1.065
153.000	205.112	79.997	19.997	100.317	19.930	5.660	0.993
154.000	206.161	79.995	19.995	100.318	19.934	5.416	1.032
155.000	207.236	79.995	19.996	100.319	19.927	5.852	1.055
156.000	208.261	79.995	19.997	100.319	19.928	5.763	1.044
157.000	209.305	79.994	19.997	100.320	19.926	5.945	1.037
158.000	210.343	79.996	19.995	100.322	19.928	5.779	1.049
159.000	211.346	79.996	19.997	100.321	19.929	5.708	1.026
160.000	212.372	79.996	19.996	100.322	19.932	5.556	1.009
161.000	213.436	79.997	19.995	100.321	19.931	5.566	1.072
162.000	214.467	79.997	19.997	100.321	19.930	5.680	1.029
163.000	215.492	79.996	19.996	100.321	19.928	5.791	1.021
164.000	216.526	79.998	19.997	100.320	19.924	6.018	1.003
165.000	217.615	79.997	19.996	100.320	19.933	5.493	1.090
166.000	218.650	79.996	19.995	100.319	19.925	5.960	1.040
167.000	219.678	79.996	19.996	100.311	19.927	5.855	1.043
168.000	220.660	79.998	19.996	100.302	19.926	5.924	1.007
169.000	221.726	79.998	19.995	100.297	19.934	5.397	1.048
170.000	222.772	79.996	19.996	100.293	19.924	6.042	1.039
171.000	223.785	79.997	19.995	100.289	19.929	5.700	1.014
172.000	224.827	79.996	19.995	100.286	19.927	5.850	1.040
173.000	225.887	79.996	19.995	100.291	19.930	5.688	1.057
174.000	226.930	79.998	19.996	100.293	19.923	6.120	1.044
175.000	227.979	79.996	19.996	100.292	19.929	5.702	1.044
176.000	229.020	79.996	19.996	100.286	19.928	5.810	1.037
177.000	230.031	79.997	19.996	100.290	19.929	5.753	1.031
178.000	231.088	79.998	19.995	100.287	19.928	5.768	1.052
179.000	232.117	79.996	19.995	100.289	19.927	5.875	1.033
180.000	233.154	79.997	19.996	100.287	19.925	5.967	1.030
181.000	234.183	79.996	19.995	100.282	19.921	6.262	1.037
182.000	235.236	79.997	19.994	100.283	19.924	6.041	1.035
183.000	236.262	79.998	19.996	100.287	19.920	6.275	1.053
184.000	237.319	79.997	19.994	100.289	19.921	6.266	1.040
185.000	238.344	79.996	19.995	100.286	19.920	6.279	1.023
186.000	239.392	79.997	19.995	100.282	19.917	6.474	1.058
187.000	240.380	80.000	19.996	100.288	19.918	6.439	0.999
188.000	241.436	79.997	19.994	100.287	19.918	6.421	1.031
189.000	242.449	79.998	19.996	100.289	19.916	6.541	1.005
190.000	243.478	79.999	19.995	100.292	19.915	6.599	1.024
191.001	244.480	79.999	19.994	100.286	19.909	6.996	1.022
192.000	245.496	79.998	19.995	100.277	19.908	7.090	1.034
193.000	246.506	79.999	19.995	100.277	19.911	6.853	1.007
194.000	247.587	79.999	19.995	100.282	19.904	7.334	1.060
195.000	248.574	79.999	19.995	100.285	19.902	7.465	1.004
196.000	249.599	79.999	19.996	100.286	19.900	7.557	1.020
197.000	250.629	79.999	19.995	100.284	19.901	7.492	1.021
198.000	251.678	80.000	19.996	100.284	19.899	7.635	1.036
199.000	252.688	79.998	19.996	100.281	19.893	8.045	1.029
200.000	253.693	80.000	19.995	100.281	19.892	8.082	1.002
201.000	254.701	79.999	19.995	100.280	19.895	7.909	1.016
202.000	255.704	79.997	19.994	100.280	19.887	8.390	1.008
203.000	256.729	79.996	19.996	100.280	19.886	8.503	1.024
204.000	257.714	79.996	19.996	100.279	19.887	8.406	0.983
205.000	258.739	79.997	19.996	100.280	19.881	8.818	1.031
206.000	259.769	79.994	19.996	100.282	19.881	8.826	1.012
207.000	260.780	79.995	19.996	100.282	19.876	9.147	1.017
208.000	261.755	79.996	19.996	100.295	19.874	9.272	0.984
209.000	262.806	79.996	19.995	100.301	19.869	9.557	1.020
210.000	263.790	79.997	19.995	100.299	19.867	9.719	1.020
211.000	264.796	79.995	19.996	100.291	19.869	9.592	0.999
212.000	265.781	79.995	19.995	100.285	19.862	10.019	0.992
213.000	266.810	79.996	19.994	100.289	19.862	10.031	1.021
214.000	267.836	79.995	19.995	100.297	19.851	10.739	1.009
215.000	268.790	79.996	19.995	100.306	19.855	10.450	1.007
216.000	269.814	79.996	19.995	100.299	19.854	10.523	0.995
217.000	270.855	79.995	19.994	100.293	19.852	10.683	1.028
218.000	271.861	79.997	19.996	100.288	19.844	11.152	1.020
219.000	272.889	79.996	19.995	100.293	19.839	11.479	1.025
220.000	273.834	79.996	19.994	100.302	19.833	11.873	0.946
221.000	274.848	79.996	19.994	100.312	19.827	12.243	1.005
222.000	275.856	79.998	19.996	100.318	19.828	12.210	0.998
223.000	276.861	79.997	19.994	100.319	19.820	12.712	1.013
224.000	277.854	79.998	19.994	100.320	19.816	12.969	0.978
225.000	278.863	79.997	19.995	100.320	19.808	13.471	0.998
226.000	279.804	79.996	19.995	100.321	19.805	13.659	0.978
227.000	280.797	79.998	19.995	100.322	19.799	14.043	1.003
228.000	281.764	79.996	19.996	100.322	19.792	14.473	0.963
229.000	282.773	79.995	19.997	100.320	19.795	14.298	0.998
230.000	283.824	79.996	19.995	100.320	19.792	14.529	1.051
231.000	284.815	79.993	19.995	100.321	19.784	15.038	0.984
232.000	285.809	79.996	19.995	100.322	19.778	15.383	0.993
233.000	286.769	79.995	19.996	100.323	19.769	15.942	0.964
234.000	287.752	79.996	19.995	100.326	19.766	16.176	1.002
235.000	288.733	79.996	19.996	100.327	19.755	16.857	0.973
236.000	289.703	79.996	19.997	100.328	19.752	17.077	0.964
237.000	290.703	79.995	19.996	100.326	19.746	17.461	0.988
238.000	291.696	79.995	19.996	100.333	19.742	17.723	0.994
239.001	292.705	79.996	19.995	100.343	19.731	18.414	1.026
240.000	293.670	79.994	19.995	100.346	19.726	18.746	0.967
241.000	294.654	79.995	19.995	100.345	19.717	19.336	0.981
242.000	295.650	79.996	19.995	100.353	19.713	19.582	1.007
243.000	296.669	79.996	19.996	100.353	19.700	20.388	0.997
244.000	297.643	79.997	19.995	100.359	19.690	21.018	0.974
245.000	298.631	79.998	19.996	100.365	19.683	21.484	0.996
246.000	299.615	79.998	19.995	100.368	19.673	22.165	0.965
247.000	300.591	79.998	19.995	100.373	19.669	22.397	0.985
248.001	301.556	79.999	19.999	100.375	19.662	22.870	0.979
249.000	302.533	80.014	20.001	100.386	19.645	23.962	0.973
250.000	303.516	80.017	20.002	100.399	19.637	24.414	0.996
251.000	304.529	80.017	20.003	100.417	19.625	25.237	0.979
252.000	305.493	80.014	20.006	100.432	19.617	25.747	0.969
253.000	306.473	80.014	20.007	100.438	19.605	26.535	0.995
254.000	307.460	80.017	20.009	100.439	19.594	27.190	0.989
255.000	308.456	80.015	20.007	100.445	19.575	28.416	0.974
256.000	309.438	80.015	20.004	100.456	19.571	28.686	0.988
257.000	310.423	80.015	20.005	100.456	19.549	30.102	0.989
258.000	311.407	80.016	20.006	100.449	19.535	31.036	0.988
259.000	312.463	80.014	20.003	100.434	19.521	31.923	1.036
260.000	313.429	79.997	19.999	100.432	19.506	32.876	0.990
261.000	314.415	79.996	19.997	100.433	19.489	33.991	0.979
262.000	315.422	79.997	19.997	100.445	19.471	35.114	1.014
263.000	316.405	79.994	19.996	100.461	19.458	35.985	0.987
264.000	317.374	79.995	19.996	100.471	19.440	37.151	0.961
265.000	318.413	79.997	19.998	100.472	19.420	38.392	1.048
266.000	319.371	79.997	19.996	100.483	19.406	39.328	0.948
267.000	320.385	79.998	19.997	100.500	19.381	40.946	1.018
268.000	321.352	79.998	19.997	100.510	19.361	42.228	0.963
269.000	322.344	79.994	19.995	100.516	19.342	43.445	0.993
270.000	323.352	79.998	19.996	100.521	19.320	44.859	0.996
271.000	324.320	79.999	19.995	100.532	19.298	46.297	0.967
272.000	325.312	79.999	19.994	100.543	19.271	48.039	1.008
273.000	326.309	79.999	19.995	100.554	19.243	49.844	0.990
274.000	327.293	80.000	19.996	100.566	19.213	51.791	0.999
275.000	328.287	79.999	19.995	100.582	19.190	53.291	0.999
276.000	329.289	79.998	19.995	100.589	19.156	55.487	0.994
277.000	330.295	79.999	19.996	100.600	19.132	56.982	0.998
278.000	331.282	79.999	19.996	100.615	19.100	59.091	0.985
279.000	332.327	79.997	19.994	100.634	19.061	61.586	1.045
280.000	333.322	79.997	19.996	100.652	19.027	63.846	0.998
281.000	334.303	79.999	19.995	100.667	18.992	66.054	0.991
282.000	335.305	79.996	19.995	100.685	18.954	68.523	0.982
283.000	336.302	79.996	19.996	100.701	18.911	71.339	1.015
284.000	337.301	79.997	19.995	100.718	18.877	73.577	0.981
285.000	338.318	79.997	19.995	100.736	18.828	76.773	1.012
286.000	339.303	79.996	19.994	100.767	18.779	79.905	0.992
287.000	340.280	79.997	19.995	100.785	18.734	82.852	0.984
288.000	341.278	79.997	19.995	100.800	18.679	86.413	1.007
289.000	342.256	79.995	19.996	100.828	18.632	89.479	0.973
290.000	343.254	79.995	19.996	100.864	18.577	93.043	1.012
291.001	344.291	79.998	19.995	100.888	18.512	97.232	1.009
292.000	345.231	79.997	19.996	100.851	18.456	100.897	0.954
293.000	346.215	79.996	19.995	100.856	18.391	105.089	0.994
294.000	347.209	79.996	19.995	100.946	18.328	109.190	0.994
295.000	348.243	79.999	19.995	101.043	18.270	112.995	1.017
296.000	349.248	79.997	19.995	101.067	18.188	118.308	1.006
297.000	350.208	79.997	19.995	101.045	18.117	122.880	0.974
298.000	351.266	79.998	19.996	101.060	18.045	127.596	1.033
299.000	352.295	79.997	19.996	101.083	17.970	132.448	1.011
300.000	353.253	79.996	19.996	101.117	17.890	137.629	0.982
301.000	354.278	79.996	19.996	101.150	17.814	142.613	1.025
302.000	355.272	79.995	19.994	101.173	17.728	148.159	0.977
303.000	356.233	79.997	19.994	101.198	17.647	153.391	0.990
304.000	357.269	79.995	19.995	101.224	17.570	158.382	1.024
305.000	358.243	79.996	19.994	101.251	17.484	163.916	0.976
306.000	359.271	79.994	19.993	101.275	17.391	169.958	1.029
307.000	360.232	79.998	19.996	101.292	17.314	174.886	0.983
308.000	361.259	79.999	19.996	101.313	17.231	180.226	1.018
309.000	362.258	79.996	19.995	101.331	17.151	185.405	1.004
310.000	363.251	79.995	19.994	101.348	17.072	190.406	0.982
311.000	364.284	79.997	19.994	101.363	16.998	195.138	1.017
312.000	365.242	79.998	19.996	101.373	16.928	199.599	0.986
313.000	366.274	79.996	19.995	101.376	16.852	204.403	1.007
314.000	367.229	79.996	19.996	101.377	16.785	208.676	0.975
315.000	368.222	79.992	19.996	101.377	16.721	212.685	1.017
316.000	369.266	79.995	19.996	101.376	16.669	215.917	1.019
317.000	370.231	79.995	19.997	101.368	16.618	219.084	0.956
318.000	371.238	79.995	19.997	101.355	16.580	221.379	1.016
319.000	372.278	79.997	19.997	101.344	16.544	223.580	1.026
320.000	373.266	79.997	19.995	101.325	16.517	225.203	0.990
321.000	374.287	79.996	19.995	101.295	16.500	226.090	0.997
322.000	375.279	79.998	19.996	101.261	16.497	226.156	1.029
323.000	376.271	79.999	19.997	101.226	16.503	225.580	0.986
324.000	377.303	79.997	19.996	101.186	16.517	224.536	1.025
325.000	378.289	79.998	19.996	101.142	16.549	222.365	0.992
326.001	379.293	79.999	19.996	101.097	16.586	219.851	1.005
327.000	380.314	79.996	19.995	101.047	16.632	216.746	1.008
328.000	381.335	79.998	19.996	100.987	16.699	212.386	1.040
329.000	382.336	79.998	19.996	100.921	16.771	207.662	0.995
330.000	383.348	80.000	19.997	100.855	16.865	201.584	1.006
331.000	384.351	80.000	19.995	100.791	16.969	194.892	0.998
332.000	385.390	80.000	19.996	100.721	17.079	187.856	1.033
333.000	386.413	79.998	19.995	100.652	17.199	180.169	1.032
334.000	387.434	80.000	19.996	100.583	17.336	171.380	1.039
335.000	388.498	79.999	19.996	100.511	17.475	162.498	1.044
336.000	389.488	80.000	19.996	100.444	17.615	153.542	0.999
337.000	390.533	80.000	19.997	100.385	17.772	143.539	1.031
338.000	391.549	79.998	19.996	100.327	17.932	133.336	1.019
339.000	392.575	79.997	19.995	100.273	18.083	123.676	1.039
340.000	393.622	79.999	19.997	100.231	18.241	113.600	1.051
341.000	394.718	79.997	19.997	100.192	18.394	103.824	1.061
342.000	395.712	79.997	19.996	100.169	18.551	93.836	1.021
343.000	396.760	79.998	19.996	100.153	18.694	84.702	1.035
344.001	397.744	79.999	19.997	100.140	18.829	76.030	1.010
345.000	398.819	79.997	19.997	100.132	18.958	67.767	1.047
346.000	399.868	79.996	19.997	100.137	19.070	60.652	1.041
347.000	400.875	79.997	19.997	100.146	19.178	53.717	1.021
348.000	401.852	79.996	19.998	100.159	19.276	47.436	0.998
349.000	402.934	79.996	19.997	100.165	19.363	41.907	1.065
350.000	403.985	79.997	19.995	100.172	19.433	37.440	1.032
351.000	405.025	80.000	19.997	100.180	19.502	32.998	1.051
352.000	406.016	79.999	19.997	100.187	19.565	29.005	1.009
353.000	407.094	79.999	19.994	100.199	19.614	25.877	1.053
354.000	408.104	80.000	19.994	100.198	19.654	23.289	1.021
355.000	409.147	79.996	19.995	100.197	19.690	20.968	1.045
356.000	410.187	80.000	19.995	100.196	19.730	18.459	1.037
357.000	411.206	79.997	19.995	100.192	19.756	16.767	1.027
358.000	412.239	79.997	19.995	100.184	19.774	15.638	1.026
359.000	413.249	79.999	19.996	100.177	19.799	14.051	1.014
360.000	414.245	79.998	19.995	100.176	19.817	12.885	1.009
361.000	415.257	79.998	19.994	100.177	19.825	12.372	1.009
362.000	416.247	79.996	19.994	100.179	19.838	11.550	0.990
363.000	417.321	79.996	19.995	100.178	19.845	11.061	1.036
364.000	418.334	79.998	19.994	100.174	19.856	10.403	1.034
365.000	419.336	79.995	19.995	100.164	19.863	9.929	0.999
366.000	420.326	79.997	19.996	100.165	19.864	9.857	1.037
367.000	421.353	79.996	19.995	100.165	19.876	9.107	0.999
368.000	422.356	79.997	19.995	100.165	19.874	9.225	0.995
369.000	423.350	79.997	19.994	100.165	19.884	8.594	1.007
370.000	424.396	79.996	19.995	100.164	19.886	8.442	1.046
371.000	425.395	79.994	19.995	100.164	19.882	8.703	1.012
372.001	426.434	79.996	19.994	100.163	19.888	8.358	1.016
373.000	427.437	79.996	19.996	100.162	19.893	7.995	0.989
374.000	428.423	79.996	19.996	100.160	19.892	8.092	0.998
375.000	429.483	79.994	19.995	100.161	19.893	8.029	1.045
376.000	430.451	79.999	19.997	100.153	19.892	8.104	0.997
377.000	431.512	79.996	19.997	100.144	19.892	8.075	1.031
378.000	432.530	79.997	19.996	100.146	19.896	7.813	1.009
379.000	433.534	79.998	19.996	100.159	19.902	7.424	1.022
380.000	434.524	79.996	19.995	100.162	19.899	7.662	0.997
381.000	435.542	79.996	19.996	100.155	19.892	8.069	1.037
382.000	436.567	79.997	19.996	100.153	19.902	7.465	1.003
383.000	437.541	79.996	19.995	100.155	19.901	7.511	0.995
384.000	438.604	79.998	19.996	100.160	19.902	7.432	1.045
385.000	439.594	79.998	19.996	100.155	19.900	7.552	0.985
386.000	440.564	79.996	19.995	100.150	19.902	7.443	1.017
387.000	441.631	79.997	19.995	100.152	19.901	7.480	1.023
388.000	442.581	79.997	19.995	100.160	19.895	7.873	0.992
389.000	443.632	79.996	19.996	100.161	19.903	7.362	1.009
390.000	444.649	79.995	19.995	100.156	19.895	7.906	1.009
391.000	445.636	79.997	19.996	100.153	19.909	6.990	1.004
392.000	446.643	79.996	19.995	100.144	19.914	6.672	1.011
393.000	447.681	79.997	19.996	100.142	19.912	6.811	1.019
394.000	448.619	79.995	19.996	100.148	19.902	7.411	0.974
395.000	449.648	79.996	19.995	100.149	19.906	7.161	1.021
396.000	450.659	79.997	19.996	100.148	19.906	7.154	0.995
397.000	451.617	79.995	19.995	100.150	19.904	7.295	0.978
398.000	452.649	79.997	19.996	100.154	19.907	7.089	1.055
399.000	453.635	79.998	19.996	100.158	19.908	7.053	0.983
400.000	454.662	79.996	19.995	100.158	19.917	6.487	1.014
401.000	455.594	79.997	19.997	100.150	19.918	6.393	0.954
402.000	456.628	79.997	19.995	100.149	19.910	6.937	1.043
403.000	457.657	79.996	19.995	100.151	19.909	7.017	1.005
404.000	458.482	79.999	19.995	100.142	19.911	6.857	0.890
405.000	459.447	79.996	19.996	100.140	19.914	6.683	1.165
406.000	460.491	79.997	19.996	100.148	19.910	6.930	0.622
407.000	462.087	79.998	19.996	100.149	19.914	6.678	1.584
408.000	462.491	79.996	19.996	100.144	19.917	6.509	0.907
409.000	463.745	79.998	19.997	100.145	19.914	6.691	0.810
410.000	464.767	79.999	19.996	100.146	19.913	6.752	1.067
411.000	465.749	79.998	19.996	100.143	19.916	6.574	0.918
412.000	466.674	79.997	19.995	100.141	19.910	6.958	1.006
413.000	467.690	79.996	19.996	100.154	19.915	6.598	1.030
414.000	468.629	79.998	19.996	100.160	19.916	6.525	0.965
415.000	469.693	79.997	19.996	100.161	19.914	6.691	1.071
416.000	470.725	79.997	19.996	100.160	19.917	6.484	0.971
417.000	471.698	79.997	19.995	100.161	19.914	6.700	1.009
418.000	472.719	79.997	19.996	100.154	19.916	6.543	1.005
419.000	473.718	79.996	19.996	100.152	19.918	6.393	0.968
420.000	474.722	79.997	19.996	100.145	19.918	6.447	1.037
421.000	475.757	79.998	19.995	100.143	19.919	6.348	1.006
422.000	476.739	79.998	19.997	100.136	19.919	6.346	1.025
423.000	477.692	79.999	19.995	100.132	19.920	6.302	0.970
424.001	478.757	79.998	19.996	100.132	19.921	6.208	1.008
425.000	479.675	79.997	19.996	100.134	19.920	6.309	0.957
426.000	480.701	79.997	19.995	100.143	19.924	6.027	1.025
427.000	481.689	79.998	19.996	100.151	19.925	5.984	1.009
428.000	482.710	79.997	19.995	100.150	19.920	6.309	1.022
429.000	483.756	79.997	19.996	100.141	19.921	6.225	1.020
430.000	484.740	79.996	19.996	100.143	19.926	5.929	0.979
431.000	485.767	79.997	19.995	100.144	19.929	5.728	1.010
432.000	486.748	79.996	19.997	100.140	19.929	5.719	1.030
433.000	487.770	79.997	19.996	100.134	19.930	5.660	0.975
434.000	488.751	79.997	19.996	100.129	19.925	5.957	0.995
435.000	489.781	79.999	19.996	100.127	19.932	5.533	1.051
436.000	490.808	79.999	19.997	100.123	19.932	5.534	1.007
437.000	491.780	79.995	19.996	100.131	19.927	5.846	0.989
438.000	492.787	80.000	19.997	100.131	19.930	5.641	0.989
439.000	493.828	79.998	19.997	100.129	19.930	5.658	1.042
440.000	494.844	79.995	19.995	100.125	19.928	5.761	1.035
441.000	495.896	79.996	19.996	100.125	19.938	5.168	1.032
442.000	496.892	79.998	19.995	100.127	19.936	5.298	0.995
443.000	497.911	79.996	19.996	100.128	19.935	5.359	1.018
444.000	498.946	79.995	19.995	100.128	19.929	5.702	1.046
445.000	499.934	79.999	19.995	100.125	19.932	5.504	0.981
446.000	500.948	79.997	19.996	100.123	19.937	5.199	1.020
447.000	501.978	79.998	19.996	100.121	19.931	5.601	1.021
448.000	502.980	79.996	19.996	100.122	19.936	5.244	1.008
449.000	503.998	79.996	19.996	100.122	19.936	5.289	1.023
450.000	504.999	79.997	19.995	100.122	19.937	5.183	1.017
451.000	506.031	79.997	19.995	100.123	19.936	5.246	1.004
452.000	507.043	79.998	19.996	100.123	19.939	5.058	1.018
453.000	508.066	79.996	19.995	100.124	19.936	5.289	1.020
454.001	509.097	79.997	19.996	100.125	19.936	5.258	1.033
455.000	510.093	79.998	19.997	100.130	19.942	4.885	1.001
456.000	511.128	79.998	19.996	100.131	19.943	4.842	1.017
457.000	512.148	79.995	19.996	100.126	19.950	4.372	1.022
458.000	513.121	79.995	19.995	100.121	19.940	4.992	0.971
459.000	514.161	79.997	19.996	100.121	19.941	4.948	1.050
460.000	515.187	79.996	19.995	100.120	19.951	4.308	1.028
461.000	516.224	79.995	19.994	100.124	19.947	4.590	1.014
462.000	517.238	79.997	19.996	100.125	19.952	4.240	1.025
463.000	518.294	79.998	19.996	100.125	19.945	4.713	1.037
464.000	519.295	79.996	19.996	100.121	19.952	4.254	1.025
465.000	520.338	79.996	19.995	100.120	19.950	4.359	1.041
466.000	521.317	79.996	19.996	100.113	19.951	4.333	0.986
467.001	522.328	79.997	19.996	100.112	19.948	4.521	1.034
468.000	523.363	79.994	19.995	100.114	19.954	4.110	0.995
469.000	524.405	79.999	19.995	100.123	19.952	4.216	1.039
470.000	525.444	79.996	19.995	100.122	19.951	4.318	1.049
471.000	526.451	79.993	19.996	100.122	19.953	4.150	0.997
472.000	527.473	79.997	19.996	100.117	19.952	4.263	1.028
473.000	528.468	79.996	19.995	100.117	19.948	4.487	1.021
474.000	529.513	79.998	19.996	100.117	19.952	4.274	1.043
475.000	530.551	79.997	19.996	100.123	19.953	4.192	1.033
476.000	531.565	79.996	19.996	100.125	19.954	4.117	1.012
477.000	532.594	79.995	19.994	100.127	19.948	4.494	1.038
478.000	533.625	79.998	19.995	100.126	19.953	4.202	1.010
479.000	534.702	79.996	19.996	100.119	19.948	4.480	1.058
480.000	535.750	79.996	19.995	100.110	19.958	3.861	1.044
481.000	536.745	79.996	19.994	100.114	19.951	4.291	1.041
482.000	537.777	79.998	19.995	100.118	19.958	3.863	1.015
483.000	538.817	79.995	19.995	100.120	19.955	4.070	1.042
484.000	539.809	79.998	19.995	100.122	19.951	4.312	0.997
485.000	540.881	79.998	19.995	100.123	19.959	3.802	1.061
486.000	541.904	79.999	19.994	100.120	19.958	3.883	1.023
487.000	542.936	79.998	19.994	100.118	19.955	4.068	1.024
488.000	543.910	79.997	19.994	100.118	19.960	3.706	0.996
489.000	544.916	79.998	19.995	100.120	19.955	4.027	1.005
490.000	545.927	79.996	19.995	100.122	19.951	4.312	1.005
491.000	546.990	79.994	19.994	100.125	19.957	3.926	1.078
492.000	548.000	79.996	19.996	100.125	19.955	4.021	0.993
493.000	549.032	79.997	19.996	100.123	19.956	3.998	1.050
494.000	550.071	79.996	19.996	100.124	19.958	3.851	1.021
495.000	551.087	79.996	19.995	100.120	19.957	3.911	1.029
496.000	552.144	79.996	19.998	100.116	19.965	3.400	1.048
497.000	553.181	79.996	19.995	100.110	19.961	3.682	1.025
498.000	554.192	79.996	19.995	100.113	19.961	3.656	1.012
499.000	555.233	79.997	19.996	100.120	19.961	3.678	1.047
500.000	556.275	79.997	19.996	100.122	19.958	3.851	1.048
501.000	557.268	79.997	19.995	100.121	19.963	3.565	0.994
502.000	558.250	79.996	19.995	100.120	19.967	3.308	1.005
503.000	559.332	79.997	19.995	100.118	19.957	3.908	1.048
504.000	560.339	79.997	19.995	100.116	19.961	3.645	1.003
505.000	561.360	79.998	19.996	100.114	19.964	3.508	1.024
506.000	562.378	79.997	19.996	100.112	19.961	3.652	1.025
507.000	563.375	80.000	19.997	100.113	19.962	3.582	1.007
508.000	564.437	79.998	19.996	100.113	19.963	3.539	1.058
509.000	565.407	79.998	19.996	100.115	19.962	3.629	0.987
510.000	566.420	79.996	19.996	100.116	19.959	3.828	1.020
511.000	567.484	79.999	19.996	100.116	19.962	3.603	1.039
512.000	568.498	80.000	19.996	100.111	19.967	3.259	1.022
513.000	569.507	80.000	19.996	100.111	19.962	3.631	1.009
514.000	570.559	79.998	19.995	100.114	19.962	3.581	1.058
515.000	571.557	80.000	19.997	100.115	19.967	3.280	0.978
516.000	572.601	79.997	19.996	100.107	19.967	3.304	1.039
517.000	573.645	79.996	19.995	100.105	19.961	3.643	1.052
518.000	574.666	79.996	19.995	100.105	19.964	3.502	1.031
519.000	575.714	79.996	19.997	100.108	19.965	3.437	1.032
520.000	576.780	79.995	19.995	100.106	19.968	3.229	1.052
521.001	577.756	79.996	19.996	100.107	19.960	3.711	0.988
522.000	578.774	79.995	19.996	100.112	19.965	3.436	1.019
523.000	579.767	79.995	19.997	100.119	19.965	3.438	1.015
524.000	580.813	79.994	19.996	100.114	19.966	3.382	1.013
525.000	581.833	79.999	19.998	100.111	19.969	3.171	1.039
526.000	582.833	79.995	19.996	100.108	19.966	3.364	1.010
527.000	583.864	79.997	19.997	100.107	19.962	3.589	1.026
528.001	584.883	79.996	19.997	100.102	19.962	3.582	0.998
529.000	585.886	79.996	19.997	100.097	19.964	3.492	1.024
530.000	586.934	79.998	19.995	100.089	19.963	3.567	1.044
531.000	587.950	79.997	19.996	100.101	19.961	3.685	1.009
532.000	588.900	79.998	19.996	100.066	19.962	3.605	0.981
533.000	589.938	79.996	19.994	100.034	19.964	3.478	1.016
534.001	590.956	79.996	19.995	100.044	19.964	3.479	1.014
535.000	591.996	79.996	19.994	100.151	19.966	3.372	1.029
536.000	592.968	79.996	19.996	100.178	19.970	3.101	0.976
537.000	593.997	79.998	19.996	100.128	19.968	3.249	1.057
538.001	595.024	79.996	19.995	100.104	19.963	3.551	1.006
539.000	596.112	79.996	19.996	100.100	19.965	3.422	1.065
540.000	597.098	79.997	19.995	100.100	19.973	2.883	0.999
541.000	598.061	79.998	19.996	100.102	19.967	3.307	0.994
542.000	599.089	79.996	19.996	100.103	19.955	4.022	1.036
543.000	600.135	79.997	19.995	100.106	19.970	3.120	1.031
544.000	601.151	79.996	19.995	100.102	19.969	3.142	1.012
545.000	602.149	79.997	19.995	100.095	19.971	3.009	1.025
546.000	603.184	79.996	19.995	100.097	19.970	3.125	0.991
547.000	604.171	79.995	19.996	100.106	19.968	3.193	1.013
548.000	605.171	79.997	19.995	100.114	19.972	2.993	0.997
549.000	606.249	79.995	19.995	100.109	19.968	3.203	1.062
550.000	607.244	79.996	19.996	100.099	19.969	3.139	1.007
551.001	608.251	79.995	19.995	100.094	19.951	4.307	0.992
552.000	609.268	79.995	19.995	100.101	19.970	3.123	1.006
553.000	610.233	79.992	19.996	100.105	19.973	2.916	0.989
554.000	611.289	79.995	19.996	100.101	19.969	3.161	1.058
555.000	612.296	79.996	19.995	100.105	19.971	3.013	0.965
556.000	613.104	79.994	19.995	100.106	19.970	3.065	1.014
557.000	614.261	79.994	19.994	100.100	19.970	3.121	1.021
558.000	615.355	79.995	19.995	100.102	19.970	3.090	1.040
559.000	616.359	79.997	19.995	100.107	19.968	3.229	1.005
560.000	617.411	79.996	19.996	100.106	19.975	2.768	1.057
561.000	618.394	79.998	19.994	100.104	19.969	3.180	0.979
562.000	619.358	79.998	19.996	100.092	19.967	3.262	1.027
563.000	620.436	80.000	19.997	100.087	19.973	2.890	0.983
564.000	621.414	79.997	19.996	100.087	19.964	3.453	1.018
565.000	621.971	80.000	19.995	100.086	19.971	3.041	0.838
566.000	623.389	79.998	19.995	100.084	19.970	3.088	1.289
567.000	624.415	79.999	19.994	100.083	19.973	2.883	0.884
568.000	625.440	79.998	19.995	100.083	19.971	3.050	1.012
569.000	626.472	79.997	19.994	100.086	19.975	2.770	1.033
570.000	627.435	79.997	19.995	100.091	19.973	2.897	0.990
571.000	628.476	79.999	19.995	100.096	19.973	2.926	1.030
572.000	629.497	79.998	19.996	100.093	19.973	2.931	1.022
573.000	630.473	79.997	19.995	100.091	19.972	2.949	0.987
574.000	631.478	79.998	19.996	100.085	19.979	2.547	1.004
575.000	632.534	79.999	19.996	100.088	19.973	2.903	1.050
576.000	633.544	79.997	19.996	100.090	19.974	2.850	0.985
577.001	634.577	79.997	19.995	100.091	19.976	2.725	1.041
578.000	635.612	79.997	19.996	100.088	19.976	2.714	0.970
579.000	636.615	79.997	19.996	100.084	19.973	2.871	1.082
580.000	637.654	79.996	19.994	100.086	19.972	2.972	1.003
581.000	638.666	79.997	19.996	100.087	19.973	2.888	1.036
582.000	639.648	79.998	19.996	100.084	19.974	2.830	1.005
583.000	640.671	79.998	19.997	100.084	19.974	2.841	1.005
584.000	641.687	79.999	19.996	100.084	19.972	2.952	1.026
585.000	642.694	79.999	19.996	100.083	19.979	2.551	0.990
586.000	643.672	79.999	19.996	100.081	19.977	2.662	0.995
587.000	644.679	79.998	19.996	100.081	19.977	2.624	0.999
588.000	645.716	79.999	19.996	100.086	19.980	2.445	1.028
589.000	646.706	79.999	19.995	100.092	19.971	3.057	1.022
590.000	647.748	80.000	19.995	100.098	19.977	2.671	1.005
591.000	648.720	80.000	19.996	100.098	19.973	2.905	0.999
592.000	649.732	79.999	19.995	100.089	19.971	3.036	1.005
593.000	650.782	79.999	19.996	100.082	19.980	2.487	1.049
594.000	651.802	79.997	19.995	100.084	19.974	2.864	1.023
595.000	652.837	79.998	19.996	100.084	19.977	2.636	1.002
596.000	653.853	79.998	19.997	100.082	19.971	3.058	1.037
597.000	654.861	79.997	19.995	100.082	19.973	2.888	1.010
598.000	655.887	79.998	19.996	100.082	19.974	2.813	1.021
599.000	656.873	79.996	19.996	100.083	19.970	3.105	1.002
600.000	657.940	79.996	19.995	100.085	19.978	2.571	1.026
601.000	658.900	79.995	19.995	100.086	19.980	2.431	1.000
602.000	659.966	79.996	19.997	100.086	19.972	2.973	1.046
603.000	660.957	79.997	19.996	100.088	19.975	2.780	0.979
604.000	661.949	79.997	19.996	100.094	19.976	2.679	1.013
605.000	662.964	79.996	19.996	100.093	19.977	2.618	1.001
606.000	663.924	79.994	19.996	100.084	19.979	2.537	1.006
607.000	664.979	79.995	19.996	100.081	19.976	2.726	0.995
608.000	665.991	79.995	19.997	100.084	19.973	2.897	1.036
609.000	666.979	79.993	19.997	100.084	19.981	2.415	0.998
610.000	667.997	79.996	19.997	100.085	19.974	2.832	1.015
611.000	668.970	79.997	19.996	100.085	19.977	2.618	0.979
612.000	669.970	79.995	19.998	100.085	19.982	2.302	1.006
613.000	670.997	79.994	19.996	100.086	19.977	2.617	1.006
614.000	672.019	79.995	19.997	100.085	19.975	2.780	1.037
615.000	673.071	79.995	19.996	100.085	19.978	2.592	1.048
616.000	674.097	79.996	19.995	100.086	19.979	2.547	1.017
617.000	675.103	79.997	19.997	100.087	19.981	2.420	1.016
618.000	676.130	79.996	19.995	100.087	19.978	2.573	1.011
619.000	677.136	79.998	19.996	100.086	19.979	2.544	1.020
620.000	678.166	79.996	19.995	100.088	19.978	2.575	1.030
621.001	679.164	79.997	19.995	100.089	19.979	2.523	0.978
622.000	680.160	79.997	19.994	100.087	19.980	2.424	1.012
623.000	681.158	79.997	19.996	100.086	19.983	2.292	1.021
624.000	682.197	79.996	19.995	100.087	19.977	2.622	1.013
625.000	683.202	79.997	19.995	100.087	19.976	2.685	1.001
626.000	684.238	79.996	19.996	100.087	19.977	2.648	1.049
627.000	685.224	79.997	19.995	100.083	19.976	2.679	1.000
628.000	686.252	79.995	19.996	100.082	19.981	2.418	1.000
629.000	687.243	79.997	19.996	100.082	19.977	2.674	1.012
630.000	688.223	79.995	19.996	100.084	19.980	2.457	0.982
631.000	689.234	79.996	19.996	100.085	19.981	2.422	1.025
632.000	690.280	79.995	19.995	100.086	19.982	2.345	1.000
633.000	691.283	79.995	19.996	100.085	19.980	2.424	1.025
634.000	692.292	79.995	19.995	100.084	19.982	2.297	1.002
635.000	693.342	79.997	19.995	100.083	19.980	2.455	1.054
636.000	694.320	79.996	19.996	100.086	19.981	2.410	0.992
637.000	695.357	79.997	19.996	100.088	19.986	2.093	1.028
638.000	696.358	79.997	19.995	100.085	19.977	2.653	1.012
639.000	697.399	79.997	19.996	100.080	19.981	2.411	1.010
640.000	698.404	79.997	19.995	100.082	19.980	2.432	1.033
641.000	699.440	79.997	19.996	100.083	19.975	2.756	1.014
642.000	700.456	79.997	19.995	100.082	19.976	2.700	1.015
643.000	701.427	80.001	19.995	100.079	19.976	2.681	0.997
644.000	702.491	79.998	19.995	100.079	19.976	2.737	1.043
645.000	703.509	79.999	19.994	100.081	19.976	2.735	1.006
646.001	704.520	79.995	19.996	100.082	19.982	2.358	1.024
647.000	705.547	79.998	19.994	100.082	19.976	2.707	1.015
648.000	706.529	79.998	19.996	100.082	19.979	2.535	0.998
649.000	707.514	79.999	19.995	100.082	19.978	2.575	0.999
650.000	708.501	79.998	19.996	100.083	19.977	2.636	0.972
651.000	709.576	79.998	19.995	100.084	19.983	2.262	1.053
652.000	710.533	79.997	19.995	100.083	19.982	2.302	0.975
653.000	711.500	79.997	19.996	100.083	19.980	2.484	0.998
654.000	712.509	79.997	19.995	100.083	19.978	2.603	0.994
655.000	713.511	79.998	19.996	100.083	19.980	2.445	1.004
656.000	714.538	79.998	19.995	100.083	19.978	2.580	1.019
657.000	715.543	79.997	19.995	100.085	19.979	2.500	1.005
658.000	716.559	79.997	19.996	100.086	19.977	2.627	1.013
659.000	717.566	79.997	19.996	100.085	19.983	2.271	1.013
660.000	718.566	79.997	19.996	100.084	19.976	2.681	1.005
661.001	719.574	79.998	19.996	100.082	19.981	2.417	1.014
662.000	720.602	79.998	19.996	100.072	19.981	2.391	0.990
663.001	721.599	79.998	19.995	100.070	19.978	2.556	1.022
664.000	722.582	79.998	19.996	100.079	19.980	2.485	0.977
665.000	723.575	79.997	19.994	100.084	19.977	2.631	1.013
666.000	724.590	79.999	19.995	100.085	19.981	2.401	1.010
667.000	725.595	79.997	19.995	100.084	19.978	2.599	1.010
668.000	726.604	80.000	19.996	100.084	19.981	2.408	0.998
669.000	727.603	79.998	19.995	100.082	19.978	2.594	1.018
670.000	728.604	79.999	19.996	100.082	19.980	2.478	0.991
671.000	729.637	79.999	19.995	100.081	19.978	2.572	1.013
672.000	730.622	79.999	19.996	100.083	19.979	2.531	0.982
673.000	731.656	79.999	19.996	100.083	19.978	2.577	1.043
674.000	732.668	79.999	19.996	100.085	19.984	2.219	1.008
675.000	733.635	79.998	19.995	100.085	19.981	2.363	0.961
676.000	734.654	79.995	19.996	100.084	19.981	2.406	1.028
677.000	735.631	79.997	19.996	100.083	19.980	2.455	0.978
678.000	736.591	79.998	19.996	100.084	19.984	2.201	0.967
678.500	737.074	79.998	19.996	100.085	19.985	2.159	0.966