File: 01_Data/Cotton_Shirt/MCC/Cotton_Shirt_MCC_30K_min_210709_R3.txt
Sample ID:	C:\MCC\MCC Cal\Test\Cotton_Shirt\Cotton_Shirt_MCC_30K_min_210709_R3.txt
Sample Weight (mg):	4.95
Heating Rate (C/s):	1
Combustor Temp (C):	900
N2 Flow Rate (cc/min):	80
O2 Flow Rate (cc/min):	20
Calibration File:	C:\MCC\MCC Cal\Coeff1 JN10440_30_210304.txt.txt
T Correction Coefficients:	0	1.024463	0
Time Shift (s):	14
*
Time (s)	Temperature (C)	N2 flow rate (cc/min)	O2 flow rate (cc/min)	Flow Rate (cc/min)	Oxygen (%)	HRR (W/g)	Heating rate (C/s)
-0.001	112.319	79.996	19.995	99.923	20.074	0.096	-0.007
1.000	112.300	79.995	19.995	99.920	20.071	0.273	-0.023
2.000	112.294	79.996	19.996	99.917	20.075	0.045	0.004
3.000	112.296	79.997	19.995	99.913	20.073	0.179	0.003
4.000	112.238	79.996	19.995	99.914	20.072	0.230	-0.047
5.000	112.231	79.997	19.995	99.918	20.070	0.325	-0.005
6.000	112.238	79.997	19.995	99.928	20.072	0.242	-0.012
7.000	112.274	79.997	19.995	99.925	20.070	0.366	0.007
8.000	112.255	79.997	19.996	99.920	20.068	0.459	-0.016
8.999	112.226	79.997	19.996	99.922	20.063	0.803	-0.014
9.999	112.251	79.998	19.995	99.934	20.065	0.657	0.029
11.000	112.212	79.998	19.994	99.962	20.061	0.896	-0.031
12.000	112.237	79.998	19.994	99.993	20.063	0.799	-0.003
12.999	112.283	79.997	19.994	100.017	20.059	1.047	0.048
13.999	112.254	79.996	19.994	100.029	20.058	1.128	-0.025
14.999	112.276	79.996	19.995	100.041	20.051	1.550	0.025
15.999	112.329	79.998	19.996	100.065	20.044	1.990	0.025
17.000	112.323	79.996	19.995	100.083	20.046	1.844	0.021
18.000	112.369	79.997	19.994	100.109	20.041	2.181	0.043
19.000	112.460	79.997	19.996	100.134	20.033	2.677	0.083
20.000	112.514	79.997	19.995	100.149	20.029	2.932	0.066
21.000	112.575	79.998	19.995	100.155	20.032	2.738	0.067
22.000	112.721	79.995	19.994	100.165	20.024	3.266	0.120
23.000	112.831	79.996	19.994	100.181	20.027	3.048	0.107
24.000	112.924	79.998	19.995	100.197	20.023	3.299	0.102
25.000	113.078	79.998	19.995	100.217	20.020	3.517	0.126
26.000	113.205	79.999	19.996	100.223	20.017	3.681	0.152
27.000	113.389	79.998	19.996	100.225	20.016	3.755	0.170
28.000	113.583	79.997	19.996	100.236	20.014	3.894	0.184
29.000	113.776	79.999	19.996	100.248	20.015	3.841	0.185
30.000	114.031	79.999	19.996	100.246	20.012	3.984	0.235
31.000	114.240	79.998	19.997	100.249	20.010	4.123	0.238
32.000	114.460	79.998	19.997	100.265	20.009	4.219	0.197
32.999	114.721	79.997	19.995	100.278	20.007	4.314	0.270
33.999	114.960	79.998	19.996	100.278	20.005	4.469	0.244
35.000	115.283	79.999	19.997	100.277	20.004	4.541	0.309
35.999	115.570	79.997	19.995	100.276	20.004	4.493	0.278
37.000	115.865	79.999	19.996	100.276	20.004	4.543	0.287
38.001	116.196	79.998	19.995	100.276	20.000	4.743	0.337
39.000	116.510	79.997	19.995	100.277	20.001	4.679	0.314
40.000	116.848	79.997	19.996	100.278	19.998	4.893	0.352
40.999	117.237	79.997	19.995	100.277	20.003	4.592	0.362
41.999	117.588	79.995	19.996	100.280	20.003	4.558	0.359
43.000	117.987	79.996	19.995	100.292	20.002	4.629	0.394
44.000	118.381	79.995	19.996	100.305	20.002	4.631	0.393
44.999	118.766	79.997	19.996	100.308	19.998	4.888	0.377
45.999	119.148	79.996	19.995	100.309	19.999	4.817	0.384
46.999	119.594	79.997	19.996	100.309	19.997	4.953	0.439
47.999	120.012	79.995	19.995	100.310	19.995	5.103	0.412
48.999	120.431	79.996	19.995	100.312	19.995	5.105	0.425
49.999	120.885	79.995	19.996	100.319	19.994	5.134	0.458
50.999	121.362	79.995	19.996	100.320	19.991	5.315	0.469
51.999	121.836	79.995	19.995	100.328	19.991	5.363	0.478
52.999	122.350	79.994	19.996	100.337	19.994	5.172	0.512
53.999	122.878	79.994	19.995	100.348	19.989	5.460	0.490
54.999	123.403	79.996	19.996	100.352	19.991	5.352	0.539
56.000	123.945	79.996	19.997	100.358	19.989	5.458	0.534
56.999	124.438	79.995	19.996	100.359	19.991	5.357	0.510
57.999	125.024	79.997	19.996	100.360	19.986	5.662	0.555
58.999	125.566	79.996	19.996	100.360	19.989	5.501	0.572
59.999	126.136	79.995	19.997	100.369	19.984	5.798	0.551
60.999	126.744	79.996	19.995	100.381	19.984	5.772	0.605
61.999	127.324	79.997	19.996	100.386	19.980	6.015	0.576
62.999	127.948	79.996	19.996	100.379	19.984	5.810	0.618
64.000	128.555	79.997	19.997	100.386	19.981	5.979	0.610
65.000	129.189	79.995	19.996	100.394	19.982	5.888	0.626
65.999	129.832	79.995	19.996	100.401	19.981	6.005	0.654
66.999	130.438	79.995	19.997	100.399	19.984	5.765	0.611
67.999	131.152	79.997	19.996	100.398	19.985	5.721	0.680
68.999	131.780	79.996	19.995	100.398	19.978	6.184	0.648
70.000	132.511	79.995	19.995	100.399	19.980	6.022	0.723
71.001	133.195	79.995	19.996	100.400	19.979	6.080	0.687
71.999	133.895	79.995	19.996	100.400	19.976	6.265	0.705
72.999	134.638	79.992	19.995	100.400	19.979	6.077	0.722
74.000	135.332	79.995	19.995	100.400	19.979	6.134	0.708
75.000	136.100	79.995	19.996	100.400	19.983	5.881	0.753
75.999	136.842	79.995	19.996	100.403	19.979	6.130	0.727
76.999	137.589	79.995	19.995	100.404	19.975	6.333	0.752
78.000	138.378	79.994	19.995	100.404	19.975	6.359	0.777
79.000	139.112	79.996	19.995	100.403	19.976	6.294	0.751
80.000	139.870	79.995	19.996	100.402	19.977	6.215	0.770
80.999	140.738	79.996	19.995	100.400	19.977	6.203	0.810
82.000	141.545	79.997	19.996	100.397	19.976	6.270	0.830
82.999	142.299	79.997	19.995	100.397	19.974	6.447	0.774
83.999	143.140	79.997	19.995	100.399	19.974	6.397	0.839
85.000	143.998	79.997	19.995	100.400	19.981	5.980	0.818
86.000	144.820	79.998	19.994	100.399	19.978	6.177	0.835
86.999	145.659	79.997	19.994	100.399	19.974	6.428	0.863
87.999	146.469	79.997	19.996	100.396	19.977	6.230	0.822
88.999	147.341	79.997	19.996	100.397	19.979	6.119	0.832
90.000	148.169	79.998	19.995	100.401	19.980	6.031	0.860
90.999	149.075	79.997	19.995	100.402	19.980	6.011	0.866
91.999	149.977	79.997	19.995	100.397	19.979	6.076	0.903
92.999	150.824	79.997	19.996	100.397	19.980	6.069	0.855
94.001	151.667	79.997	19.996	100.397	19.972	6.548	0.855
94.999	152.591	79.997	19.996	100.396	19.974	6.398	0.901
95.999	153.487	79.998	19.995	100.396	19.977	6.252	0.902
96.999	154.335	79.998	19.996	100.396	19.977	6.247	0.870
97.999	155.270	79.996	19.995	100.396	19.979	6.112	0.911
98.999	156.186	79.995	19.994	100.392	19.977	6.251	0.919
99.999	157.131	79.997	19.996	100.387	19.980	6.054	0.929
101.000	158.034	79.997	19.995	100.383	19.977	6.213	0.914
101.999	158.948	79.998	19.996	100.387	19.979	6.125	0.919
102.999	159.884	79.997	19.995	100.383	19.983	5.869	0.945
104.000	160.811	79.998	19.995	100.383	19.983	5.869	0.916
104.999	161.770	79.999	19.995	100.381	19.980	6.031	0.945
105.999	162.679	79.998	19.995	100.381	19.981	5.989	0.947
106.999	163.595	79.998	19.996	100.381	19.984	5.787	0.915
107.999	164.640	79.997	19.995	100.385	19.982	5.911	0.985
108.999	165.581	80.000	19.995	100.386	19.982	5.908	0.975
110.000	166.553	79.999	19.995	100.374	19.980	6.040	0.975
110.999	167.558	79.998	19.995	100.366	19.980	6.030	0.981
111.999	168.519	79.998	19.995	100.369	19.979	6.128	0.957
113.000	169.482	79.998	19.995	100.372	19.982	5.890	0.996
113.999	170.484	79.998	19.995	100.371	19.982	5.938	0.992
115.000	171.488	79.997	19.995	100.376	19.980	6.040	1.002
116.000	172.497	79.998	19.995	100.373	19.982	5.889	0.967
116.999	173.459	79.996	19.995	100.362	19.981	5.959	0.997
117.999	174.517	79.997	19.996	100.359	19.983	5.870	1.039
119.000	175.506	79.996	19.996	100.360	19.980	6.045	1.009
119.999	176.507	79.994	19.996	100.363	19.979	6.103	0.973
120.999	177.489	79.994	19.996	100.362	19.981	5.993	1.002
121.999	178.525	79.995	19.997	100.360	19.983	5.874	1.037
122.999	179.543	79.996	19.996	100.360	19.984	5.772	1.011
123.999	180.549	79.995	19.995	100.360	19.983	5.877	1.021
124.999	181.554	79.996	19.995	100.360	19.985	5.710	0.998
125.999	182.576	79.997	19.996	100.359	19.983	5.875	1.016
126.999	183.627	79.995	19.995	100.359	19.981	5.976	1.041
127.999	184.636	79.995	19.996	100.360	19.981	5.997	1.006
129.000	185.676	79.996	19.995	100.360	19.983	5.831	1.040
130.000	186.731	79.995	19.996	100.357	19.986	5.688	1.061
131.000	187.805	79.995	19.996	100.352	19.984	5.802	1.063
132.000	188.829	79.994	19.995	100.349	19.985	5.735	1.053
133.000	189.888	79.996	19.995	100.345	19.986	5.676	1.024
134.000	190.914	79.997	19.995	100.345	19.988	5.523	1.051
135.000	191.968	79.995	19.995	100.344	19.984	5.783	1.027
136.000	193.007	79.997	19.995	100.341	19.984	5.797	1.062
137.000	194.082	79.995	19.997	100.333	19.987	5.573	1.054
138.000	195.117	79.997	19.995	100.325	19.987	5.588	1.063
139.000	196.136	79.995	19.996	100.325	19.985	5.748	1.006
140.000	197.223	79.995	19.995	100.325	19.988	5.559	1.081
141.000	198.270	79.996	19.996	100.324	19.985	5.748	1.058
142.000	199.302	79.996	19.996	100.322	19.987	5.587	1.033
143.000	200.321	79.995	19.997	100.321	19.986	5.658	1.041
144.000	201.384	79.995	19.997	100.321	19.988	5.549	1.049
145.000	202.437	79.995	19.996	100.321	19.985	5.704	1.023
146.000	203.501	79.996	19.995	100.320	19.986	5.647	1.097
147.000	204.555	79.995	19.997	100.319	19.986	5.631	1.053
148.000	205.649	79.995	19.997	100.317	19.989	5.473	1.085
149.000	206.737	79.994	19.996	100.313	19.991	5.337	1.063
150.000	207.749	79.996	19.996	100.311	19.989	5.463	1.061
151.000	208.813	79.996	19.997	100.312	19.987	5.584	1.044
152.000	209.889	79.994	19.997	100.307	19.986	5.657	1.046
153.000	210.918	79.995	19.996	100.304	19.989	5.463	1.060
154.000	211.983	79.994	19.997	100.301	19.987	5.581	1.065
155.000	213.088	79.994	19.995	100.297	19.989	5.440	1.087
156.000	214.099	79.997	19.997	100.293	19.993	5.240	1.030
157.000	215.153	79.995	19.996	100.290	19.991	5.351	1.038
158.000	216.207	79.997	19.995	100.289	19.989	5.452	1.063
159.000	217.261	79.997	19.996	100.288	19.989	5.488	1.039
160.000	218.328	79.996	19.995	100.291	19.986	5.657	1.076
161.000	219.361	79.996	19.996	100.289	19.990	5.400	1.048
162.000	220.431	79.998	19.995	100.281	19.992	5.288	1.058
163.000	221.453	79.998	19.995	100.287	19.989	5.467	1.043
164.000	222.550	79.998	19.997	100.289	19.986	5.656	1.077
165.000	223.643	79.998	19.996	100.286	19.993	5.230	1.058
166.000	224.658	79.997	19.996	100.279	19.987	5.595	1.046
167.000	225.689	79.999	19.995	100.279	19.985	5.748	1.036
168.000	226.729	79.999	19.995	100.282	19.985	5.720	1.048
169.000	227.811	79.998	19.996	100.279	19.988	5.512	1.065
170.000	228.855	79.997	19.997	100.279	19.986	5.631	1.044
171.000	229.953	80.000	19.996	100.278	19.984	5.758	1.100
172.000	230.966	79.996	19.996	100.280	19.989	5.467	1.046
173.000	232.030	79.996	19.996	100.276	19.987	5.572	1.019
174.000	233.045	79.996	19.996	100.267	19.986	5.661	1.039
175.000	234.097	79.996	19.995	100.267	19.984	5.766	1.035
176.000	235.111	79.996	19.996	100.274	19.987	5.579	1.039
177.000	236.112	79.996	19.995	100.277	19.983	5.861	0.994
178.000	237.220	79.997	19.995	100.273	19.983	5.836	1.090
179.000	238.195	79.996	19.996	100.273	19.979	6.102	0.992
180.000	239.194	79.997	19.995	100.275	19.982	5.904	1.028
181.000	240.285	79.996	19.995	100.274	19.979	6.075	1.037
182.000	241.303	79.995	19.995	100.275	19.977	6.252	1.032
183.000	242.302	79.997	19.996	100.274	19.978	6.140	1.001
184.000	243.368	79.997	19.995	100.271	19.980	6.058	1.057
185.000	244.371	79.996	19.995	100.266	19.975	6.383	1.009
186.000	245.386	79.999	19.996	100.270	19.971	6.589	1.011
187.000	246.422	79.999	19.995	100.278	19.972	6.570	1.037
188.000	247.413	79.998	19.995	100.278	19.972	6.569	1.016
189.000	248.432	79.999	19.995	100.279	19.965	6.970	0.998
190.000	249.491	80.000	19.995	100.280	19.961	7.219	1.053
191.000	250.561	79.999	19.995	100.276	19.964	7.059	1.085
192.000	251.559	79.999	19.993	100.276	19.962	7.180	0.999
193.000	252.551	79.998	19.995	100.278	19.965	6.977	1.013
194.000	253.516	79.997	19.995	100.281	19.959	7.376	0.968
195.000	254.566	79.997	19.994	100.278	19.962	7.204	1.019
196.000	255.603	79.995	19.994	100.278	19.955	7.624	1.034
197.000	256.579	79.996	19.994	100.276	19.955	7.602	0.970
198.000	257.598	79.996	19.995	100.279	19.945	8.219	1.027
199.000	258.602	79.995	19.996	100.281	19.944	8.280	1.010
200.000	259.584	79.994	19.996	100.283	19.940	8.536	1.007
201.000	260.609	79.994	19.996	100.278	19.941	8.507	1.001
202.000	261.531	79.996	19.996	100.279	19.935	8.889	0.942
203.000	262.526	79.993	19.995	100.279	19.932	9.094	0.999
204.000	263.542	79.994	19.996	100.283	19.931	9.152	0.993
205.000	264.542	79.995	19.996	100.283	19.927	9.390	1.012
206.000	265.576	79.996	19.995	100.282	19.925	9.528	1.017
207.000	266.552	79.994	19.996	100.283	19.921	9.793	0.985
208.000	267.583	79.994	19.996	100.282	19.916	10.087	1.004
209.000	268.547	79.995	19.997	100.282	19.914	10.203	1.001
210.000	269.524	79.995	19.997	100.282	19.910	10.476	0.951
211.000	270.548	79.996	19.996	100.283	19.904	10.843	1.022
212.000	271.528	79.994	19.995	100.283	19.903	10.900	0.990
213.000	272.513	79.996	19.995	100.282	19.899	11.184	0.991
214.000	273.501	79.996	19.995	100.281	19.892	11.621	0.984
215.000	274.494	79.995	19.995	100.282	19.894	11.493	1.002
216.000	275.484	79.995	19.996	100.283	19.885	12.060	0.995
217.000	276.438	79.995	19.995	100.290	19.881	12.288	0.951
218.000	277.436	79.995	19.996	100.293	19.878	12.464	0.998
219.000	278.419	79.995	19.995	100.283	19.875	12.683	0.985
220.000	279.418	79.994	19.995	100.278	19.867	13.196	0.976
221.000	280.391	79.997	19.996	100.285	19.865	13.291	0.991
222.000	281.347	79.995	19.995	100.294	19.862	13.482	0.966
223.000	282.333	79.994	19.995	100.306	19.853	14.075	0.989
224.000	283.344	79.995	19.996	100.312	19.852	14.137	0.997
225.000	284.305	79.995	19.996	100.307	19.845	14.587	0.979
226.000	285.263	79.996	19.996	100.301	19.841	14.813	0.965
227.000	286.247	79.994	19.996	100.304	19.835	15.224	0.952
228.000	287.266	79.992	19.996	100.309	19.829	15.605	1.010
229.000	288.245	79.995	19.996	100.317	19.822	16.022	0.992
230.000	289.214	79.995	19.996	100.318	19.815	16.446	0.983
231.000	290.180	79.995	19.997	100.318	19.810	16.766	0.965
232.000	291.163	79.993	19.996	100.317	19.804	17.166	0.970
233.000	292.175	79.995	19.997	100.317	19.802	17.307	0.994
234.000	293.129	79.995	19.997	100.322	19.793	17.880	1.008
235.000	294.128	79.995	19.996	100.324	19.783	18.533	0.964
236.001	295.132	79.995	19.998	100.327	19.776	18.975	0.999
237.000	296.123	79.994	19.996	100.335	19.769	19.396	0.989
238.000	297.097	79.996	19.996	100.343	19.759	20.019	0.976
239.000	298.056	79.995	19.997	100.346	19.751	20.527	0.968
240.000	299.038	79.996	19.997	100.346	19.745	20.896	0.977
241.000	299.977	79.998	19.997	100.350	19.737	21.404	0.960
242.000	300.984	79.998	19.995	100.358	19.726	22.145	0.994
243.000	301.959	79.998	19.997	100.359	19.716	22.725	0.990
244.000	302.966	79.998	19.995	100.358	19.709	23.222	0.980
245.000	303.939	79.996	19.995	100.363	19.699	23.855	0.982
246.000	304.899	79.997	19.995	100.374	19.689	24.449	0.956
247.000	305.886	79.998	19.996	100.387	19.678	25.147	0.987
248.000	306.903	79.997	19.994	100.395	19.667	25.885	0.997
249.000	307.881	79.997	19.996	100.397	19.653	26.738	0.997
250.000	308.838	79.996	19.996	100.398	19.642	27.426	0.967
251.000	309.872	79.997	19.994	100.397	19.627	28.430	1.013
252.000	310.838	79.997	19.995	100.398	19.615	29.193	0.959
253.000	311.825	79.996	19.995	100.405	19.602	30.011	1.004
254.000	312.836	79.996	19.995	100.415	19.588	30.892	0.998
255.000	313.851	79.997	19.995	100.426	19.576	31.672	1.029
256.000	314.794	79.997	19.995	100.431	19.557	32.864	0.952
257.000	315.814	79.996	19.995	100.439	19.543	33.728	1.006
258.000	316.784	79.995	19.995	100.442	19.527	34.759	0.986
259.000	317.812	79.996	19.994	100.450	19.510	35.849	1.022
260.000	318.801	79.996	19.996	100.462	19.489	37.189	0.988
261.000	319.802	79.998	19.996	100.474	19.472	38.251	0.995
262.000	320.794	79.998	19.995	100.482	19.457	39.195	0.990
263.000	321.756	79.998	19.995	100.491	19.435	40.614	0.979
264.000	322.744	79.998	19.995	100.502	19.417	41.758	0.987
265.000	323.723	79.998	19.995	100.513	19.395	43.136	0.981
266.000	324.756	79.998	19.995	100.520	19.370	44.791	1.012
267.000	325.767	79.999	19.994	100.525	19.346	46.283	1.018
268.000	326.784	79.999	19.995	100.534	19.326	47.542	1.016
269.000	327.815	79.998	19.996	100.548	19.299	49.278	1.027
270.000	328.766	79.998	19.995	100.561	19.273	50.986	0.959
271.000	329.791	79.999	19.994	100.577	19.244	52.804	1.019
272.000	330.746	79.998	19.995	100.592	19.210	54.973	0.974
273.000	331.777	79.999	19.995	100.608	19.182	56.784	0.994
274.000	332.788	79.998	19.994	100.622	19.152	58.692	1.024
275.000	333.797	79.996	19.994	100.631	19.119	60.822	0.993
276.000	334.796	79.996	19.994	100.644	19.086	62.937	1.015
277.000	335.807	79.996	19.995	100.660	19.047	65.415	1.015
278.000	336.826	79.996	19.995	100.685	19.007	67.965	1.017
279.000	337.795	79.996	19.995	100.705	18.962	70.823	0.995
280.000	338.812	79.996	19.995	100.728	18.922	73.419	0.976
281.000	339.798	79.997	19.996	100.746	18.875	76.422	1.015
282.000	340.797	79.996	19.996	100.765	18.831	79.270	0.991
283.000	341.796	79.997	19.996	100.781	18.787	82.060	0.998
284.000	342.771	79.995	19.996	100.805	18.733	85.553	1.004
285.000	343.815	79.996	19.996	100.827	18.681	88.889	0.997
286.000	344.755	79.995	19.995	100.852	18.623	92.583	0.983
287.000	345.799	79.996	19.995	100.880	18.562	96.502	1.012
288.000	346.816	79.996	19.996	100.904	18.498	100.622	1.016
289.000	347.784	79.997	19.995	100.929	18.437	104.553	0.989
290.000	348.794	79.997	19.996	100.954	18.366	109.100	1.008
291.000	349.799	79.998	19.997	100.982	18.303	113.153	0.987
292.000	350.792	79.996	19.996	101.012	18.233	117.616	1.018
293.000	351.843	79.997	19.997	101.041	18.163	122.148	1.022
294.000	352.814	79.997	19.996	101.060	18.086	127.085	0.990
295.000	353.823	79.997	19.996	101.087	18.012	131.805	1.008
296.000	354.854	79.997	19.996	101.120	17.928	137.223	1.019
297.000	355.866	79.997	19.996	101.154	17.853	141.985	1.022
298.000	356.854	79.995	19.996	101.182	17.770	147.290	0.986
299.000	357.908	79.997	19.996	101.204	17.688	152.580	1.033
300.000	358.845	79.996	19.996	101.228	17.610	157.523	0.976
301.000	359.845	79.997	19.996	101.252	17.525	163.003	0.988
302.000	360.858	79.996	19.996	101.279	17.438	168.539	1.004
303.000	361.833	79.997	19.996	101.294	17.358	173.647	0.978
304.000	362.823	79.996	19.996	101.310	17.274	178.941	1.006
305.000	363.862	79.995	19.996	101.326	17.185	184.601	1.011
306.000	364.857	79.996	19.996	101.344	17.108	189.455	0.997
307.000	365.844	79.995	19.995	101.359	17.028	194.524	0.994
308.000	366.850	79.995	19.996	101.374	16.956	199.064	1.017
309.000	367.852	79.995	19.996	101.378	16.884	203.561	0.996
310.000	368.842	79.995	19.995	101.380	16.811	208.129	0.991
311.000	369.886	79.995	19.995	101.381	16.750	211.915	1.027
312.000	370.856	79.997	19.998	101.380	16.696	215.279	0.990
313.000	371.875	79.995	19.995	101.379	16.649	218.134	1.032
314.000	372.906	79.995	19.997	101.367	16.602	221.006	0.988
315.000	373.875	79.998	19.996	101.351	16.574	222.656	1.020
316.000	374.890	79.996	19.997	101.334	16.541	224.577	1.007
317.000	375.903	79.997	19.997	101.306	16.526	225.393	1.001
318.000	376.913	79.998	19.998	101.267	16.515	225.928	0.992
319.000	377.913	79.997	19.997	101.228	16.518	225.570	1.001
320.000	378.906	79.996	19.996	101.192	16.533	224.507	1.003
321.000	379.964	79.998	19.996	101.155	16.557	222.795	1.033
322.000	380.950	79.997	19.997	101.105	16.597	220.124	1.002
323.000	381.928	79.998	19.996	101.054	16.639	217.361	0.987
324.000	382.938	79.998	19.996	100.996	16.698	213.487	1.006
325.000	383.996	79.997	19.996	100.935	16.774	208.639	1.039
326.000	384.980	79.997	19.996	100.875	16.862	202.963	1.010
327.000	386.015	79.997	19.996	100.812	16.957	196.922	1.013
328.000	386.987	79.997	19.995	100.741	17.072	189.637	1.002
329.000	388.056	79.998	19.997	100.670	17.188	182.247	1.046
330.000	389.061	79.997	19.995	100.604	17.318	174.007	1.031
331.000	390.074	79.996	19.995	100.539	17.458	165.206	0.994
332.000	391.121	79.995	19.995	100.470	17.600	156.227	1.041
333.000	392.130	79.998	19.995	100.404	17.753	146.586	1.022
334.000	393.171	79.996	19.996	100.346	17.907	136.890	1.023
335.000	394.211	79.995	19.996	100.293	18.058	127.360	1.044
336.000	395.248	79.998	19.995	100.249	18.210	117.769	1.030
337.000	396.241	79.997	19.995	100.215	18.363	108.121	1.018
338.000	397.254	79.997	19.995	100.190	18.511	98.771	1.025
339.000	398.330	79.997	19.995	100.164	18.659	89.448	1.042
340.000	399.362	79.998	19.995	100.140	18.796	80.757	1.027
341.000	400.399	79.997	19.995	100.125	18.927	72.520	1.055
342.000	401.421	79.998	19.995	100.127	19.050	64.781	1.005
343.000	402.450	79.999	19.995	100.126	19.155	58.100	1.035
344.000	403.484	79.998	19.995	100.125	19.261	51.411	1.035
345.000	404.486	79.999	19.995	100.134	19.350	45.793	1.033
346.000	405.565	79.999	19.995	100.148	19.437	40.279	1.052
347.000	406.566	79.998	19.995	100.158	19.509	35.759	1.013
348.000	407.655	79.999	19.995	100.162	19.572	31.788	1.063
349.000	408.631	79.998	19.995	100.162	19.630	28.150	1.002
350.000	409.649	79.999	19.995	100.165	19.677	25.157	1.008
351.000	410.652	79.997	19.996	100.176	19.719	22.477	1.010
352.000	411.710	79.998	19.994	100.185	19.758	20.016	1.050
353.000	412.743	79.997	19.995	100.184	19.789	18.078	1.019
354.000	413.744	79.996	19.995	100.176	19.814	16.522	1.022
355.000	414.731	79.997	19.996	100.169	19.839	14.907	1.002
356.000	415.781	79.996	19.996	100.164	19.854	13.963	1.033
357.000	416.793	79.996	19.996	100.167	19.878	12.445	1.013
358.000	417.816	79.996	19.996	100.172	19.883	12.176	1.019
359.000	418.838	79.996	19.995	100.173	19.898	11.192	1.026
360.000	419.898	79.997	19.995	100.166	19.903	10.884	1.041
361.000	420.876	79.997	19.995	100.164	19.913	10.277	1.003
362.000	421.921	79.998	19.995	100.163	19.921	9.731	1.020
363.000	422.935	79.996	19.996	100.161	19.928	9.310	1.029
364.000	423.948	79.997	19.995	100.161	19.933	8.980	1.010
365.000	424.949	79.998	19.995	100.162	19.933	9.016	1.016
366.000	425.997	79.996	19.995	100.163	19.937	8.748	1.047
367.000	426.985	79.996	19.995	100.161	19.939	8.608	0.982
368.000	428.012	79.997	19.995	100.160	19.943	8.347	1.032
369.000	429.059	79.997	19.995	100.160	19.947	8.132	1.029
370.000	430.035	79.996	19.996	100.152	19.949	7.988	1.000
371.000	431.033	79.995	19.996	100.147	19.948	8.072	0.982
372.000	432.090	79.995	19.995	100.157	19.947	8.140	1.054
373.000	433.091	79.997	19.996	100.166	19.949	8.010	0.999
374.000	434.136	79.997	19.995	100.166	19.950	7.910	1.034
375.000	435.129	79.996	19.996	100.162	19.951	7.850	1.014
376.000	436.139	79.997	19.996	100.162	19.953	7.725	1.010
377.000	437.170	79.997	19.996	100.163	19.955	7.625	1.043
378.000	438.160	79.997	19.996	100.164	19.957	7.475	0.987
379.000	439.174	79.995	19.996	100.157	19.960	7.314	1.000
380.000	440.189	79.995	19.996	100.144	19.957	7.485	1.007
381.000	441.178	79.995	19.996	100.145	19.957	7.494	1.011
382.000	442.222	79.996	19.997	100.161	19.959	7.320	1.029
383.000	443.241	79.996	19.997	100.168	19.954	7.690	1.014
384.000	444.201	79.994	19.997	100.164	19.957	7.476	0.988
385.000	445.248	79.994	19.996	100.161	19.961	7.211	1.020
386.000	446.217	79.994	19.995	100.162	19.959	7.335	1.003
387.000	447.223	79.993	19.996	100.159	19.961	7.215	0.979
388.000	448.215	79.995	19.995	100.159	19.963	7.107	0.982
389.000	449.209	79.995	19.997	100.153	19.961	7.233	0.993
390.000	450.229	79.995	19.995	100.159	19.959	7.360	1.031
391.000	451.217	79.995	19.996	100.127	19.961	7.196	0.987
392.000	452.225	79.996	19.996	100.082	19.956	7.567	0.998
393.000	453.228	79.996	19.996	100.080	19.962	7.147	1.022
394.000	454.263	79.997	19.996	100.196	19.962	7.155	1.016
395.000	455.268	79.996	19.995	100.218	19.962	7.167	0.994
396.000	456.259	79.996	19.996	100.182	19.966	6.897	1.020
397.000	457.250	79.995	19.995	100.141	19.961	7.258	0.988
398.000	458.246	79.998	19.996	100.152	19.965	6.944	0.996
399.000	459.250	79.998	19.997	100.157	19.963	7.093	1.020
400.000	460.266	79.997	19.996	100.157	19.960	7.267	1.003
401.000	461.255	79.996	19.997	100.156	19.964	7.009	0.987
402.000	462.256	79.997	19.996	100.144	19.963	7.105	1.019
403.000	463.295	79.998	19.996	100.142	19.965	6.997	1.008
404.000	464.293	79.996	19.997	100.141	19.962	7.148	0.988
405.000	465.277	79.998	19.997	100.152	19.964	7.036	0.988
406.000	466.275	79.997	19.995	100.152	19.963	7.112	0.999
407.000	467.254	79.997	19.997	100.153	19.967	6.827	0.997
408.000	468.286	79.997	19.997	100.153	19.968	6.800	1.016
409.000	469.263	79.996	19.996	100.152	19.963	7.073	0.983
410.000	470.280	79.997	19.998	100.150	19.968	6.802	1.008
411.000	471.272	79.997	19.998	100.152	19.969	6.724	1.018
412.000	472.288	79.996	19.996	100.156	19.966	6.915	0.979
413.000	473.285	79.996	19.997	100.151	19.969	6.701	1.018
414.000	474.319	79.996	19.995	100.151	19.968	6.782	1.025
415.000	475.320	79.998	19.996	100.144	19.968	6.810	1.036
416.000	476.295	79.997	19.996	100.142	19.968	6.801	0.983
417.000	477.343	79.997	19.995	100.147	19.968	6.771	0.998
418.000	478.348	79.998	19.995	100.149	19.975	6.315	1.025
419.000	479.355	79.998	19.996	100.141	19.972	6.552	1.004
420.000	480.398	79.997	19.995	100.136	19.969	6.705	1.013
421.000	481.371	79.999	19.996	100.144	19.969	6.743	0.988
422.000	482.392	79.999	19.996	100.138	19.970	6.667	1.031
423.000	483.361	79.999	19.995	100.128	19.976	6.260	0.960
424.000	484.384	79.998	19.995	100.123	19.971	6.602	1.042
425.000	485.355	79.999	19.996	100.128	19.972	6.507	0.969
426.000	486.389	80.000	19.995	100.127	19.977	6.211	1.039
427.000	487.384	79.997	19.995	100.130	19.971	6.583	0.988
428.000	488.423	79.998	19.994	100.135	19.974	6.408	1.018
429.000	489.403	79.997	19.996	100.133	19.981	5.961	1.006
430.000	490.402	79.997	19.995	100.135	19.973	6.454	1.023
431.000	491.391	79.998	19.996	100.130	19.974	6.393	1.002
432.000	492.437	79.996	19.997	100.130	19.974	6.393	1.009
433.000	493.429	79.995	19.996	100.128	19.978	6.148	1.009
434.000	494.456	79.997	19.996	100.128	19.972	6.563	1.000
435.000	495.470	79.995	19.995	100.130	19.991	5.332	1.031
436.000	496.439	79.996	19.997	100.098	19.975	6.318	1.001
437.000	497.538	79.996	19.996	100.054	19.979	6.115	1.048
438.000	498.469	79.996	19.995	100.050	19.987	5.602	0.984
439.000	499.544	79.995	19.995	100.156	19.985	5.715	1.021
440.000	500.527	79.996	19.996	100.220	19.989	5.456	1.020
441.000	501.610	79.994	19.996	100.213	19.985	5.736	1.034
442.000	502.577	79.995	19.996	100.145	19.987	5.605	1.018
443.000	503.656	79.996	19.996	100.143	19.986	5.640	0.992
444.000	504.571	79.996	19.996	100.150	19.987	5.590	0.996
445.000	505.622	79.995	19.995	100.140	19.987	5.591	1.034
446.000	506.596	79.995	19.995	100.128	19.988	5.516	0.992
447.000	507.594	79.995	19.995	100.124	19.988	5.542	1.010
448.000	508.342	79.995	19.995	100.126	19.992	5.289	1.042
449.000	509.848	79.996	19.996	100.127	19.988	5.536	1.290
450.000	510.514	79.997	19.995	100.127	19.994	5.169	0.756
451.000	511.895	79.997	19.994	100.127	19.993	5.194	1.073
452.000	512.715	79.997	19.995	100.130	19.990	5.411	0.991
453.000	513.706	79.996	19.995	100.130	19.991	5.357	0.914
454.000	514.816	79.996	19.994	100.127	19.991	5.309	1.179
455.000	515.802	79.998	19.995	100.127	19.991	5.301	0.925
456.000	516.896	79.997	19.995	100.126	19.991	5.340	1.045
457.000	517.876	79.996	19.995	100.126	19.991	5.304	1.023
458.000	518.933	79.995	19.995	100.127	19.993	5.232	1.042
459.000	519.977	79.996	19.995	100.127	19.993	5.189	1.028
460.000	521.007	79.996	19.995	100.126	19.995	5.093	1.047
461.000	522.012	79.995	19.997	100.125	19.994	5.144	1.010
462.000	523.003	79.996	19.996	100.124	19.996	5.045	1.021
463.000	524.048	79.995	19.995	100.120	19.994	5.131	1.057
464.000	525.117	79.995	19.995	100.121	19.999	4.856	1.036
465.000	526.161	79.995	19.996	100.118	19.995	5.083	1.029
466.000	527.122	79.995	19.996	100.118	19.996	5.009	0.997
467.000	528.185	79.994	19.996	100.124	19.996	5.028	1.026
468.000	529.215	79.995	19.995	100.126	20.001	4.694	1.050
469.000	530.219	79.996	19.996	100.126	20.001	4.708	0.999
470.000	531.267	79.995	19.996	100.125	19.999	4.820	1.065
471.000	532.303	79.994	19.994	100.124	20.002	4.660	1.041
472.000	533.331	79.996	19.996	100.121	20.003	4.591	0.998
473.000	534.368	79.996	19.995	100.121	20.003	4.563	1.042
474.000	535.456	79.996	19.996	100.121	20.002	4.606	1.075
475.000	536.488	79.996	19.995	100.121	20.007	4.311	1.037
476.000	537.467	79.997	19.996	100.122	20.001	4.672	1.001
477.000	538.495	79.997	19.996	100.124	20.003	4.562	1.015
478.000	539.542	79.998	19.997	100.128	20.001	4.684	1.042
479.000	540.599	79.997	19.996	100.127	20.005	4.447	1.053
480.000	541.590	79.997	19.996	100.123	20.004	4.510	1.018
481.000	542.630	79.997	19.995	100.122	20.005	4.466	1.023
482.000	543.693	79.997	19.996	100.120	20.002	4.649	1.055
483.000	544.691	79.996	19.996	100.118	20.004	4.512	1.019
484.000	545.724	79.996	19.996	100.119	20.000	4.749	1.005
485.000	546.733	79.997	19.997	100.120	19.999	4.830	1.025
486.000	547.772	79.997	19.996	100.121	20.006	4.405	1.040
487.000	548.786	79.995	19.995	100.121	20.000	4.774	1.013
488.000	549.823	79.996	19.996	100.121	20.006	4.390	1.030
489.000	550.819	79.996	19.996	100.120	20.007	4.330	1.014
490.000	551.832	79.996	19.996	100.119	20.008	4.249	1.007
491.000	552.889	79.996	19.997	100.119	20.007	4.337	1.040
492.000	553.909	79.995	19.997	100.121	20.003	4.574	1.012
493.000	554.952	79.994	19.996	100.118	20.006	4.366	1.056
494.000	555.982	79.995	19.996	100.118	20.008	4.242	1.027
495.000	556.996	79.995	19.996	100.119	20.009	4.224	1.021
496.000	558.005	79.996	19.997	100.116	20.009	4.222	1.004
497.000	559.051	79.997	19.995	100.112	20.007	4.312	1.052
498.000	560.056	79.995	19.996	100.110	20.010	4.157	1.016
499.000	561.087	79.997	19.995	100.113	20.005	4.424	1.014
500.000	562.079	79.995	19.996	100.116	20.007	4.333	1.011
501.000	563.125	79.996	19.995	100.117	20.009	4.218	1.038
502.000	564.182	79.998	19.995	100.117	20.005	4.465	1.046
503.000	565.182	79.998	19.996	100.116	20.011	4.072	1.002
504.000	566.190	79.998	19.995	100.114	20.007	4.322	1.028
505.000	567.220	79.997	19.994	100.105	20.008	4.231	1.006
506.000	568.230	79.997	19.994	100.101	20.009	4.211	1.010
507.000	569.230	79.998	19.994	100.092	20.010	4.110	1.034
508.000	570.253	79.996	19.995	100.100	20.007	4.325	1.008
509.000	571.260	79.997	19.994	100.104	20.014	3.903	1.005
510.000	572.318	79.997	19.995	100.106	20.012	4.036	1.036
511.000	573.322	79.995	19.995	100.108	20.007	4.305	1.015
512.000	574.339	79.995	19.994	100.106	20.012	4.010	1.027
513.000	575.384	79.996	19.995	100.106	20.013	3.927	1.043
514.000	576.415	79.995	19.994	100.106	20.012	3.989	1.016
515.000	577.383	79.994	19.996	100.107	20.011	4.082	1.009
516.000	578.383	79.996	19.995	100.109	20.013	3.960	0.993
517.000	579.437	79.997	19.996	100.116	20.011	4.089	1.015
518.000	580.399	79.997	19.995	100.121	20.011	4.087	1.009
519.000	581.447	79.996	19.995	100.117	20.009	4.221	1.009
520.000	582.438	79.996	19.995	100.109	20.012	4.015	0.989
521.000	583.464	79.995	19.995	100.108	20.015	3.845	1.017
522.000	584.418	79.995	19.995	100.113	20.014	3.860	0.992
523.000	585.470	79.995	19.996	100.110	20.015	3.800	1.029
524.000	586.470	79.995	19.995	100.108	20.010	4.123	1.013
525.000	587.489	79.995	19.994	100.104	20.011	4.077	1.008
526.000	588.479	79.996	19.996	100.108	20.010	4.104	0.990
527.000	589.467	79.997	19.996	100.105	20.013	3.940	1.002
528.000	590.485	79.997	19.995	100.106	20.016	3.774	0.995
529.000	591.468	79.997	19.995	100.106	20.013	3.922	1.020
530.000	592.474	79.996	19.996	100.109	20.010	4.152	1.000
531.000	593.493	79.997	19.996	100.101	20.014	3.878	1.002
532.000	594.484	79.996	19.995	100.100	20.008	4.270	1.001
533.000	595.541	79.996	19.995	100.102	20.011	4.061	1.041
534.000	596.542	79.995	19.996	100.107	20.010	4.125	0.996
535.000	597.553	79.997	19.996	100.109	20.012	4.009	1.016
536.000	598.562	79.997	19.997	100.109	20.009	4.178	1.003
537.000	599.535	79.995	19.996	100.112	20.012	4.017	1.001
538.000	600.561	79.996	19.995	100.114	20.010	4.108	1.010
539.000	601.554	79.995	19.994	100.108	20.011	4.066	0.988
540.000	602.526	79.995	19.995	100.097	20.006	4.409	1.004
541.000	603.535	79.995	19.994	100.091	20.010	4.139	1.010
542.000	604.569	79.995	19.996	100.088	20.010	4.114	0.974
543.000	605.539	79.994	19.995	100.093	20.010	4.128	0.996
544.000	606.539	79.995	19.996	100.102	20.011	4.092	0.994
545.000	607.504	79.995	19.996	100.100	20.012	4.019	1.029
546.000	608.469	79.995	19.995	100.100	20.012	4.019	0.891
547.000	609.537	79.996	19.995	100.103	20.007	4.318	1.097
548.000	610.544	79.995	19.995	100.111	20.011	4.041	1.013
549.000	611.573	79.996	19.995	100.115	20.007	4.291	0.988
550.000	612.550	79.995	19.996	100.103	20.000	4.776	0.997
551.000	613.573	79.996	19.996	100.090	20.013	3.950	1.017
552.000	614.561	79.997	19.996	100.088	20.011	4.040	1.022
553.000	615.562	79.996	19.997	100.090	20.014	3.884	0.999
554.000	616.592	79.997	19.996	100.102	20.008	4.245	1.004
555.000	617.615	79.997	19.996	100.109	20.009	4.164	1.037
556.000	618.589	79.997	19.995	100.114	20.014	3.879	0.986
557.000	619.592	79.997	19.996	100.114	20.016	3.733	0.987
558.000	620.611	79.998	19.995	100.114	20.014	3.888	1.015
559.000	621.594	79.997	19.996	100.110	20.015	3.836	0.999
560.000	622.616	79.997	19.995	100.107	20.014	3.879	1.011
561.000	623.626	79.998	19.995	100.108	20.016	3.774	1.014
562.000	624.666	79.998	19.995	100.105	20.013	3.914	0.999
563.000	625.569	79.997	19.995	100.099	20.013	3.933	0.980
564.000	626.795	79.997	19.995	100.099	20.010	4.103	1.192
565.000	627.647	79.997	19.995	100.101	20.012	4.034	0.845
566.000	628.640	79.997	19.996	100.099	20.015	3.833	1.012
567.000	629.670	79.997	19.995	100.091	20.009	4.169	1.035
568.000	630.674	79.996	19.996	100.093	20.011	4.044	0.939
569.000	631.676	79.998	19.996	100.101	20.011	4.054	1.035
570.000	632.686	79.996	19.996	100.099	20.010	4.147	1.027
571.000	633.693	79.997	19.996	100.094	20.012	3.991	0.996
572.000	634.742	79.997	19.996	100.096	20.007	4.343	1.037
573.000	635.761	79.996	19.995	100.110	20.011	4.078	1.032
574.000	636.696	79.997	19.996	100.115	20.016	3.728	0.947
575.000	637.820	79.999	19.996	100.119	20.012	3.985	1.095
576.000	638.772	79.997	19.996	100.119	20.018	3.629	0.985
577.000	639.797	79.997	19.996	100.107	20.013	3.916	1.013
578.000	640.799	79.997	19.995	100.095	20.016	3.746	1.004
579.000	641.787	79.997	19.997	100.095	20.017	3.669	0.991
580.000	642.849	79.998	19.997	100.107	20.018	3.643	1.042
581.000	643.851	79.997	19.995	100.107	20.014	3.891	1.010
582.000	644.818	79.997	19.997	100.100	20.017	3.678	0.980
583.000	645.845	79.998	19.996	100.102	20.015	3.844	1.013
584.000	646.881	79.996	19.996	100.106	20.014	3.890	1.030
585.000	647.856	79.998	19.996	100.098	20.013	3.930	0.984
586.000	648.893	79.997	19.996	100.089	20.012	4.021	1.033
587.000	649.922	79.998	19.997	100.084	20.010	4.103	1.041
588.000	650.939	79.998	19.996	100.090	20.016	3.772	1.007
589.000	651.953	79.995	19.997	100.096	20.012	4.021	1.012
590.000	652.973	79.996	19.996	100.097	20.015	3.810	1.007
591.000	654.032	79.996	19.996	100.093	20.010	4.141	1.067
592.000	655.039	79.998	19.997	100.093	20.017	3.719	1.028
593.000	656.070	79.997	19.996	100.090	20.012	4.033	1.007
594.000	657.034	79.997	19.995	100.085	20.013	3.961	1.000
595.000	658.103	79.996	19.996	100.085	20.011	4.044	1.036
596.000	659.129	79.997	19.995	100.092	20.012	3.980	1.030
597.000	660.145	79.997	19.995	100.095	20.011	4.070	1.006
598.000	661.191	79.994	19.995	100.089	20.018	3.633	1.049
599.000	662.151	79.996	19.996	100.084	20.012	3.995	0.987
600.000	663.191	79.996	19.994	100.083	20.013	3.939	1.025
601.000	664.222	79.997	19.995	100.083	20.012	3.996	1.039
602.000	665.208	79.995	19.996	100.084	20.014	3.881	0.982
603.000	666.247	79.995	19.995	100.086	20.014	3.873	1.040
604.000	667.289	79.996	19.995	100.094	20.011	4.062	1.025
605.000	668.264	79.995	19.995	100.101	20.016	3.781	0.985
606.000	669.241	79.996	19.996	100.094	20.017	3.693	1.000
607.000	670.326	79.997	19.996	100.094	20.016	3.743	1.041
608.000	671.303	79.995	19.995	100.099	20.016	3.724	1.007
609.000	672.290	79.997	19.996	100.100	20.016	3.741	1.002
610.000	673.293	79.997	19.996	100.091	20.017	3.701	0.996
611.000	674.353	79.996	19.994	100.088	20.015	3.794	1.034
612.000	675.367	79.997	19.996	100.096	20.014	3.866	1.006
613.000	676.405	79.997	19.996	100.098	20.012	3.985	1.062
614.000	677.391	79.998	19.996	100.090	20.014	3.890	0.991
615.000	678.414	79.995	19.995	100.086	20.009	4.171	1.013
616.000	679.466	79.996	19.996	100.087	20.017	3.692	1.022
617.000	680.450	79.996	19.995	100.093	20.013	3.960	0.996
618.000	681.432	79.995	19.996	100.094	20.013	3.961	1.026
619.000	682.486	79.996	19.995	100.092	20.014	3.894	1.011
620.000	683.506	79.995	19.995	100.085	20.016	3.760	1.018
621.000	684.465	79.996	19.995	100.087	20.014	3.906	0.993
622.000	685.537	79.995	19.994	100.089	20.017	3.681	1.053
623.000	686.564	79.996	19.995	100.085	20.012	3.981	1.026
624.000	687.570	79.994	19.996	100.086	20.015	3.839	0.991
625.000	688.548	79.995	19.995	100.088	20.019	3.557	1.014
626.000	689.592	79.996	19.995	100.097	20.020	3.484	1.015
627.000	690.588	79.997	19.995	100.107	20.018	3.619	0.990
628.000	691.587	79.997	19.996	100.102	20.019	3.581	1.013
629.000	692.622	79.996	19.995	100.090	20.020	3.495	1.042
630.000	693.612	79.998	19.995	100.086	20.014	3.889	0.977
631.000	694.661	79.997	19.995	100.087	20.017	3.660	1.047
632.000	695.686	79.996	19.996	100.087	20.012	3.980	1.018
633.000	696.688	79.996	19.995	100.088	20.016	3.771	1.039
634.000	697.703	79.998	19.995	100.087	20.016	3.764	1.005
635.000	698.696	79.998	19.995	100.091	20.017	3.675	0.991
636.000	699.711	79.997	19.996	100.091	20.014	3.884	1.013
637.000	700.742	79.995	19.994	100.093	20.011	4.073	1.028
638.000	701.728	79.997	19.995	100.089	20.011	4.047	1.000
639.000	702.743	79.998	19.997	100.088	20.006	4.411	1.002
640.000	703.785	79.997	19.995	100.040	20.008	4.269	1.027
641.000	704.795	79.996	19.996	100.016	20.008	4.289	1.032
642.000	705.808	79.996	19.996	100.028	20.012	4.010	1.009
643.000	706.804	79.997	19.997	100.082	20.015	3.791	1.007
644.000	707.812	79.998	19.996	100.159	20.014	3.852	0.995
645.000	708.813	79.996	19.998	100.164	20.018	3.653	1.007
646.000	709.853	79.997	19.996	100.119	20.016	3.739	1.028
647.000	710.808	79.997	19.996	100.099	20.018	3.638	0.972
648.000	711.845	79.998	19.996	100.098	20.017	3.703	1.019
649.000	712.831	79.996	19.997	100.094	20.016	3.760	1.003
650.000	713.840	79.997	19.995	100.094	20.012	4.009	0.991
651.000	714.860	79.998	19.996	100.093	20.011	4.038	1.029
652.000	715.890	79.997	19.996	100.087	20.015	3.797	1.006
653.000	716.914	79.997	19.996	100.082	20.016	3.761	1.018
654.000	717.908	79.999	19.995	100.083	20.020	3.512	1.010
655.000	718.907	79.997	19.994	100.083	20.017	3.717	1.017
656.000	719.948	79.998	19.995	100.082	20.017	3.708	1.010
657.000	720.944	79.999	19.996	100.081	20.016	3.766	1.017
658.000	721.956	80.000	19.996	100.081	20.017	3.662	1.023
659.000	722.939	79.998	19.997	100.079	20.014	3.859	0.989
660.000	723.961	79.998	19.995	100.079	20.017	3.675	1.022
661.000	725.008	79.998	19.995	100.079	20.018	3.629	1.015
662.000	725.989	79.998	19.996	100.080	20.015	3.825	1.015
663.000	726.977	79.997	19.996	100.078	20.018	3.654	0.973
664.000	727.962	79.997	19.995	100.075	20.020	3.510	1.000
665.000	729.006	79.997	19.995	100.076	20.015	3.825	1.007
666.000	729.991	79.996	19.995	100.077	20.014	3.861	0.998
667.000	731.014	79.995	19.996	100.077	20.017	3.687	1.026
668.000	732.016	79.995	19.997	100.077	20.017	3.682	1.021
669.000	733.016	79.995	19.997	100.076	20.014	3.873	0.979
670.000	734.023	79.996	19.996	100.079	20.014	3.894	1.015
671.000	735.034	79.997	19.996	100.078	20.015	3.817	1.000
672.000	735.997	79.996	19.997	100.078	20.009	4.175	0.994
673.000	736.966	79.997	19.996	100.072	20.011	4.050	0.958
673.500	737.490	79.996	19.996	100.038	20.015	3.842	0.988