File: 01_Data/Cotton_Sheets/Cone/Cotton_Sheet_Cone_HF25Scan_220429_R1.csv
Names,Time,Stack TC,Smoke TC,Exh Press,Smoke Comp,Smoke Meas,CO Meter,CO2 Meter,O2 Meter,Sample Mass,Ext Coeff,Start Test,Flame Verif
Chan Gain,,500,500,1,1,1,1,1,1,1,1,1.0,1.0
Offset,,0,0,0.138979,0,0,0,0,0,0,0,0.0,0.0
Gain,,1,1,25.011,14.099,15.1965,1,1,1,1.00087,0.986176,1.0,1.0
Units,sec,C,C,Pa,%,%,%,%,%,g,/m,,
Baseline,,16.7992,17.2332,158.386,105.871,101.981,0.000911645,0.0482146,21.0306,-833.698,0.323797,,
2,0.25,15.5235,15.9834,156.741,105.345,101.471,0.000715693,0.0521363,21.0261,187.293,0.324067,0.0,0.0
4,0.75,15.1462,14.7669,160.514,105.364,101.437,0.000705189,0.0521453,21.0261,187.213,0.328622,0.0,0.0
6,1.25,15.4459,15.1017,159.688,105.368,101.508,0.000718897,0.0521396,21.0261,187.263,0.322891,0.0,0.0
8,1.75,15.4351,15.2569,158.17,105.372,101.426,0.000749994,0.0521279,21.0262,187.223,0.330203,0.0,0.0
10,2.25,15.0506,15.64,157.966,105.378,101.313,0.000786618,0.052112,21.0263,187.253,0.340284,0.0,0.0
12,2.75,15.2158,15.0574,153.234,105.386,101.246,0.000826575,0.0520991,21.0264,187.233,0.346699,0.0,0.0
14,3.25,15.6122,16.2166,155.868,105.394,101.184,0.000868475,0.0520887,21.0264,187.243,0.352637,0.0,0.0
16,3.75,15.4709,16.0845,159.517,105.386,101.343,0.000910995,0.0520802,21.0265,187.213,0.338342,0.0,0.0
18,4.25,15.0463,15.2778,162.338,105.408,101.393,0.000949251,0.0520734,21.0265,187.223,0.335983,0.0,0.0
20,4.75,15.2989,15.1314,158.741,105.414,101.335,0.000983672,0.0520678,21.0261,187.203,0.341424,0.0,0.0
22,5.25,15.3724,16.0241,160.311,105.423,101.168,0.00101155,0.0520362,21.0258,187.213,0.356394,0.0,0.0
24,5.75,15.3407,15.595,155.223,105.428,101.266,0.00103414,0.0520106,21.0253,187.203,0.348455,0.0,0.0
26,6.25,15.5947,15.3328,157.558,105.431,101.121,0.00105243,0.0520984,21.0247,187.223,0.361033,0.0,0.0
28,6.75,14.9627,15.8093,158.622,105.439,101.029,0.00107571,0.0521695,21.0226,187.213,0.369607,0.0,0.0
30,7.25,15.2854,15.4529,156.964,105.435,100.807,0.00109456,0.0543487,21.0194,187.213,0.388286,0.0,0.0
32,7.75,15.6266,16.269,157.248,105.467,100.464,0.0011026,0.0601153,21.0169,187.183,0.420437,0.0,0.0
34,8.25,15.5584,15.8203,159.671,105.454,100.236,0.00113161,0.0683876,21.0107,187.153,0.438934,0.0,0.0
36,8.75,15.5712,15.8423,153.134,105.449,101.667,0.00116886,0.0750881,21.0002,187.133,0.315944,0.0,1.0
38,9.25,15.0421,15.6377,148.267,105.459,103.227,0.00122005,0.0959522,20.9917,187.113,0.185019,0.0,1.0
40,9.75,15.1739,15.1221,145.273,105.468,103.476,0.00128043,0.112852,20.9755,186.992,0.164954,0.0,1.0
42,10.25,15.7038,16.0524,146.313,105.458,103.41,0.00132934,0.134645,20.9542,187.023,0.169649,0.0,1.0
44,10.75,15.7931,15.9849,141.601,105.47,104.229,0.00141136,0.147775,20.9293,186.922,0.102322,0.0,1.0
46,11.25,15.8839,16.7955,143.902,105.468,103.326,0.00147779,0.170227,20.9023,186.882,0.177525,0.0,1.0
48,11.75,16.3213,16.8782,141.987,105.481,104.06,0.00156314,0.194852,20.8723,186.842,0.117338,0.0,1.0
50,12.25,16.4625,17.0741,142.351,105.475,104.419,0.00163227,0.220595,20.8408,186.702,0.087055,0.0,1.0
52,12.75,16.696,16.8679,139.734,105.478,103.811,0.00171132,0.241446,20.8153,186.742,0.137854,0.0,1.0
54,13.25,17.4797,17.5223,144.141,105.481,104.56,0.00177536,0.263538,20.7946,186.622,0.0758769,0.0,1.0
56,13.75,17.2727,17.633,138.349,105.492,104.632,0.00184001,0.281431,20.7779,186.622,0.0707724,0.0,0.0
58,14.25,17.8853,17.8169,137.674,105.479,104.767,0.00190388,0.29497,20.7643,186.522,0.0586044,0.0,0.0
60,14.75,18.4626,18.0859,140.891,105.477,104.115,0.00195562,0.305077,20.7533,186.512,0.112429,0.0,0.0
62,15.25,19.1815,18.0638,139.968,105.483,103.841,0.00205954,0.3074,20.7467,186.442,0.135731,0.0,0.0
64,15.75,19.1099,19.1114,146.207,105.484,103.237,0.00214371,0.309281,20.7434,186.432,0.186288,0.0,0.0
66,16.25,19.6546,19.0111,144.929,105.492,103.177,0.0022632,0.306345,20.7408,186.392,0.191935,0.0,0.0
68,16.75,19.7995,19.493,147.839,105.475,103.016,0.00240616,0.299954,20.7487,186.412,0.204101,0.0,0.0
70,17.25,20.1539,19.7656,150.989,105.486,102.227,0.00258113,0.288971,20.7551,186.392,0.271517,0.0,0.0
72,17.75,20.5187,20.085,151.69,105.483,102.091,0.00277612,0.274848,20.77,186.402,0.282705,0.0,0.0
74,18.25,20.3059,20.8714,150.524,105.495,102.012,0.00300116,0.263408,20.782,186.372,0.290415,0.0,0.0
76,18.75,19.8002,20.9405,154.814,105.479,101.628,0.00324383,0.243582,20.8044,186.382,0.321695,0.0,0.0
78,19.25,20.6683,21.2169,155.601,105.489,101.731,0.00350839,0.227523,20.8226,186.372,0.313858,0.0,0.0
80,19.75,21.2742,20.427,155.148,105.481,101.693,0.00378386,0.210993,20.8447,186.382,0.316347,0.0,0.0
82,20.25,21.3841,20.5035,152.708,105.489,101.673,0.00406285,0.194433,20.8627,186.362,0.318749,0.0,0.0
84,20.75,20.6327,21.1329,155.897,105.489,101.582,0.00433911,0.179031,20.8816,186.372,0.32649,0.0,0.0
86,21.25,20.6809,21.1507,161.623,105.489,101.859,0.00456288,0.164765,20.8969,186.362,0.302945,0.0,0.0
88,21.75,20.6917,20.8917,161.561,105.482,101.75,0.00465827,0.151804,20.9034,186.362,0.311567,0.0,0.0
90,22.25,20.6863,20.85,156.415,105.496,101.803,0.00488943,0.140042,20.9158,186.362,0.308312,0.0,0.0
92,22.75,20.5942,21.0065,158.701,105.486,101.558,0.00507666,0.130514,20.9268,186.362,0.328297,0.0,0.0
94,23.25,20.3033,21.2294,158.986,105.493,101.683,0.00524814,0.121173,20.9357,186.362,0.318238,0.0,0.0
96,23.75,20.7015,20.6939,156.994,105.486,101.748,0.00538704,0.113607,20.9441,186.372,0.312081,0.0,0.0
98,24.25,20.8552,20.3488,156.611,105.512,101.662,0.00549954,0.10711,20.9519,186.362,0.321566,0.0,0.0
100,24.75,20.6463,20.4325,157.954,105.491,101.561,0.00559686,0.104166,20.9584,186.372,0.328449,0.0,0.0
102,25.25,20.1417,20.6436,161.266,105.506,101.736,0.00567569,0.0991316,20.9638,186.362,0.3148,0.0,0.0
104,25.75,19.9125,21.1254,158.193,105.5,101.93,0.00574079,0.0947657,20.9687,186.362,0.297799,0.0,0.0
106,26.25,20.2373,20.6664,160.695,105.515,101.695,0.00579351,0.0912294,20.973,186.372,0.318971,0.0,0.0
108,26.75,20.1381,20.6855,157.251,105.506,101.712,0.00582259,0.088365,20.9765,186.362,0.316815,0.0,0.0
110,27.25,19.8476,20.6013,154.669,105.529,101.699,0.00584615,0.0859626,20.9794,186.352,0.31982,0.0,0.0
112,27.75,19.5867,20.2039,157.206,105.519,101.823,0.00584542,0.0840167,20.9819,186.352,0.308447,0.0,0.0
114,28.25,19.2897,19.8403,158.709,105.523,101.639,0.00584483,0.0823396,20.9842,186.352,0.324346,0.0,0.0
116,28.75,18.958,20.3958,159.555,105.507,101.626,0.00584435,0.0808903,20.986,186.352,0.324146,0.0,0.0
118,29.25,19.4637,20.3265,157.518,105.521,101.774,0.00578583,0.0793879,20.9877,186.352,0.312801,0.0,0.0
120,29.75,19.287,20.0651,159.33,105.505,101.762,0.00573843,0.0781709,20.9893,186.352,0.312486,0.0,0.0
122,30.25,19.5172,20.3906,156.435,105.517,101.737,0.00565909,0.0769117,20.9906,186.352,0.315598,0.0,0.0
124,30.75,19.6974,19.981,153.23,105.514,101.753,0.00555799,0.0756455,20.9921,186.342,0.31401,0.0,0.0
126,31.25,19.3995,19.8014,157.364,105.532,101.67,0.005432,0.07462,20.9933,186.342,0.322442,0.0,0.0
128,31.75,19.1712,19.2455,153.458,105.499,101.797,0.00529027,0.0732975,20.9947,186.332,0.309071,0.0,0.0
130,32.25,18.8389,19.6396,158.959,105.516,101.732,0.00513858,0.0722263,20.9959,186.342,0.315892,0.0,0.0
132,32.75,18.0906,19.3272,157.154,105.499,101.73,0.00498251,0.071179,20.9977,186.332,0.314708,0.0,0.0
134,33.25,18.9609,19.8271,155.679,105.513,101.818,0.0048561,0.0701692,20.9991,186.332,0.308312,0.0,0.0
136,33.75,19.227,20.0082,159.827,105.5,101.724,0.00466293,0.0692076,21.0003,186.332,0.315331,0.0,0.0
138,34.25,19.716,19.6038,161.195,105.514,101.848,0.00450645,0.0682995,21.0013,186.322,0.305897,0.0,0.0
140,34.75,19.4347,19.8093,157.358,105.492,101.727,0.00428181,0.0674851,21.002,186.332,0.31435,0.0,0.0
142,35.25,19.001,19.8005,156.433,105.502,101.781,0.00409985,0.0667543,21.0027,186.342,0.310584,0.0,0.0
144,35.75,18.6886,19.7931,155.169,105.495,101.731,0.00395246,0.0661624,21.0032,186.352,0.314317,0.0,0.0
146,36.25,18.1765,18.8943,156.049,105.504,101.683,0.00368672,0.0655058,21.004,186.342,0.31912,0.0,0.0
148,36.75,18.5293,19.2377,155.102,105.498,101.729,0.00347147,0.064974,21.0047,186.342,0.31472,0.0,0.0
150,37.25,18.9404,19.3865,156.591,105.49,101.766,0.00319622,0.0643252,21.0055,186.342,0.310856,0.0,0.0
152,37.75,19.0511,19.0269,159.607,105.473,101.649,0.00297327,0.0637997,21.0063,186.342,0.319425,0.0,0.0
154,38.25,18.9057,19.2016,156.893,105.485,101.711,0.00273446,0.0632093,21.007,186.332,0.315126,0.0,0.0
156,38.75,18.8407,19.2838,155.009,105.473,101.695,0.00254102,0.0625827,21.0076,186.332,0.315514,0.0,0.0
158,39.25,18.9172,19.1949,155.893,105.464,101.683,0.00234557,0.0620752,21.0083,186.342,0.315839,0.0,0.0
160,39.75,19.0817,19.3806,156.429,105.473,101.74,0.00218726,0.0613103,21.009,186.332,0.311693,0.0,0.0
162,40.25,18.2437,18.6899,159.998,105.474,101.682,0.0020191,0.0606908,21.0096,186.342,0.316694,0.0,0.0
164,40.75,17.4092,18.5129,158.422,105.469,101.874,0.00188288,0.0600674,21.0106,186.342,0.299987,0.0,0.0
166,41.25,18.6002,19.2179,156.714,105.453,101.797,0.00175347,0.0594529,21.0113,186.332,0.305256,0.0,0.0
168,41.75,19.0842,19.2329,156.885,105.452,101.617,0.00163146,0.0588836,21.0124,186.312,0.320459,0.0,0.0
170,42.25,18.4471,19.385,159.646,105.451,101.723,0.00153264,0.0583581,21.0132,186.342,0.311348,0.0,0.0
172,42.75,18.5409,19.6168,152.492,105.431,101.666,0.00143861,0.0578395,21.0139,186.332,0.314616,0.0,0.0
174,43.25,18.5669,18.4379,159.406,105.429,101.581,0.00134986,0.0573358,21.0145,186.342,0.321663,0.0,0.0
176,43.75,18.6779,18.6552,152.082,105.423,101.729,0.0012659,0.0569277,21.0149,186.332,0.308545,0.0,0.0
178,44.25,18.7503,18.9142,154.951,105.417,101.762,0.00118703,0.0565157,21.0153,186.332,0.305251,0.0,0.0
180,44.75,18.7431,19.3471,161.781,105.421,101.727,0.00110855,0.056182,21.0156,186.332,0.308522,0.0,0.0
182,45.25,18.4287,19.2681,156.716,105.395,101.678,0.00103184,0.0558302,21.0158,186.342,0.310584,0.0,0.0
184,45.75,18.6732,19.3243,160.336,105.392,101.62,0.000953853,0.0555452,21.016,186.352,0.31527,0.0,0.0
186,46.25,18.6153,19.2239,157.931,105.394,101.567,0.000876411,0.0553144,21.0162,186.332,0.319914,0.0,0.0
188,46.75,18.3024,18.9916,159.105,105.378,101.693,0.000813683,0.0551275,21.0163,186.322,0.307984,0.0,0.0
190,47.25,18.5685,19.1346,158.602,105.375,101.599,0.000753366,0.0549689,21.0164,186.332,0.31567,0.0,0.0
192,47.75,18.3346,18.998,163.856,105.361,101.719,0.000695952,0.054834,21.017,186.332,0.304287,0.0,0.0
194,48.25,18.4527,19.0993,157.412,105.36,101.662,0.000649447,0.0547176,21.0175,186.342,0.309108,0.0,0.0
196,48.75,18.2676,18.8946,156.628,105.341,101.529,0.000620207,0.0546168,21.0178,186.352,0.318848,0.0,0.0
198,49.25,18.0336,18.9446,156.569,105.338,101.718,0.000596522,0.0545353,21.0182,186.342,0.302494,0.0,0.0
200,49.75,18.151,18.8069,161.214,105.325,101.718,0.000595727,0.0544835,21.0184,186.342,0.301473,0.0,0.0
202,50.25,17.9915,18.9784,151.953,105.3,101.514,0.000611633,0.0544544,21.0186,186.342,0.316755,0.0,0.0
204,50.75,17.9189,19.0667,153.425,105.297,101.629,0.000643559,0.0544308,21.0188,186.342,0.306716,0.0,0.0
206,51.25,17.9062,18.5197,157.669,105.279,101.478,0.000686557,0.0545612,21.0189,186.342,0.318101,0.0,0.0
208,51.75,17.9794,18.7902,157.187,105.279,101.621,0.000721385,0.0546667,21.019,186.342,0.305973,0.0,0.0
210,52.25,18.4097,19.1049,154.591,105.264,101.539,0.000777358,0.0548094,21.0191,186.332,0.311651,0.0,0.0
212,52.75,18.1657,18.7366,158.835,105.253,101.592,0.000822697,0.0549765,21.0192,186.332,0.306229,0.0,0.0
214,53.25,17.9672,18.5549,157.665,105.235,101.506,0.000866667,0.0551118,21.0192,186.332,0.312127,0.0,0.0
216,53.75,17.6762,18.9775,157.305,105.234,101.415,0.000902283,0.0552215,21.0193,186.332,0.31977,0.0,0.0
218,54.25,18.0426,18.5741,157.282,105.222,101.379,0.000931132,0.0553103,21.0193,186.332,0.321862,0.0,0.0
220,54.75,18.0928,19.1964,160.079,105.214,101.442,0.000954499,0.0553414,21.0193,186.342,0.315775,0.0,0.0
222,55.25,18.2797,18.6334,156.565,105.196,101.452,0.000961283,0.0553667,21.0194,186.332,0.313569,0.0,0.0
224,55.75,18.0041,18.2881,155.63,105.191,101.448,0.000972884,0.0553192,21.0194,186.332,0.313421,0.0,0.0
226,56.25,18.0329,18.5598,154.311,105.177,101.411,0.00098228,0.0552807,21.0194,186.332,0.315421,0.0,0.0
228,56.75,17.347,18.6259,159.782,105.172,101.45,0.000979024,0.0552088,21.0194,186.332,0.311706,0.0,0.0
230,57.25,17.7768,18.9156,155.227,105.141,101.531,0.000976387,0.0551506,21.0194,186.332,0.302244,0.0,0.0
232,57.75,17.886,18.7273,155.161,105.146,101.397,0.000963388,0.0550748,21.0194,186.322,0.314131,0.0,0.0
234,58.25,18.0768,18.458,161.426,105.126,101.424,0.000952859,0.0550289,21.0194,186.322,0.310097,0.0,0.0
236,58.75,17.9514,18.5209,154.351,105.131,101.433,0.000927141,0.0549505,21.0194,186.322,0.30973,0.0,0.0
238,59.25,17.9258,18.4983,157.35,105.118,101.486,0.00089084,0.0547648,21.0199,186.322,0.304201,0.0,0.0
240,59.75,17.3845,18.3962,153.527,105.109,101.348,0.000861436,0.0546144,21.0202,186.332,0.315245,0.0,0.0
242,60.25,17.6751,18.4891,155.23,105.09,101.535,0.000811102,0.0544246,21.0206,186.322,0.297749,0.0,0.0
244,60.75,17.4889,18.4291,157.323,105.097,101.348,0.000770332,0.054271,21.021,186.322,0.314178,0.0,0.0
246,61.25,17.7693,18.4315,158.973,105.064,101.297,0.000729065,0.0541254,21.0213,186.332,0.315917,0.0,0.0
248,61.75,17.4997,18.2835,156.823,105.071,101.398,0.000688221,0.0539886,21.0216,186.332,0.30778,0.0,0.0
250,62.25,17.4494,18.4321,158.29,105.04,101.302,0.000650701,0.0538778,21.0218,186.322,0.313498,0.0,0.0
252,62.75,17.7553,18.6603,156.192,105.043,101.391,0.000616317,0.0537473,21.0219,186.332,0.30607,0.0,0.0
254,63.25,17.6055,18.2404,161.109,105.034,101.443,0.000588465,0.0536416,21.0221,186.322,0.300935,0.0,0.0
256,63.75,17.4838,17.7496,163.435,105.032,101.16,0.000563371,0.0535274,21.0222,186.312,0.324876,0.0,0.0
258,64.25,17.7302,18.198,159.459,105.014,101.403,0.000540764,0.0534092,21.0223,186.312,0.302707,0.0,0.0
260,64.75,17.4599,18.5777,158.947,105.006,101.173,0.000523085,0.0532991,21.0223,186.322,0.321678,0.0,0.0
262,65.25,17.4983,17.7293,160.451,104.987,101.229,0.000509335,0.0531972,21.0224,186.322,0.315358,0.0,0.0
264,65.75,17.1934,17.912,160.213,104.99,101.368,0.000503902,0.0531145,21.0224,186.312,0.303729,0.0,0.0
266,66.25,17.457,18.8071,159.208,104.973,101.288,0.000504634,0.0530069,21.0225,186.312,0.309116,0.0,0.0
268,66.75,17.5121,18.0301,158.508,104.961,101.253,0.000518478,0.0529197,21.0225,186.312,0.311134,0.0,0.0
270,67.25,17.4334,18.1003,159.269,104.949,101.25,0.000529692,0.0528705,21.0225,186.322,0.310454,0.0,0.0
272,67.75,17.3983,18.2748,156.339,104.951,101.255,0.000560466,0.05285,21.0225,186.322,0.31016,0.0,0.0
274,68.25,16.9849,17.9342,159.91,104.925,101.224,0.000573586,0.0528262,21.0226,186.322,0.310612,0.0,0.0
276,68.75,17.1059,17.8715,155.778,104.914,101.116,0.000596021,0.0528005,21.0226,186.302,0.318968,0.0,0.0
278,69.25,17.264,17.9386,154.779,104.92,101.164,0.00064555,0.0527797,21.0226,186.312,0.31534,0.0,0.0
280,69.75,16.9181,17.4531,155.932,104.901,101.162,0.000685668,0.0527628,21.0226,186.322,0.313978,0.0,0.0
282,70.25,17.7808,18.4141,162.52,104.872,101.034,0.000718163,0.0527277,21.0226,186.322,0.322548,0.0,0.0
284,70.75,17.2587,17.8787,158.32,104.875,101.139,0.000758507,0.05268,21.0226,186.322,0.313756,0.0,0.0
286,71.25,16.7552,17.1154,158.686,104.858,101.231,0.000803805,0.0526597,21.0226,186.312,0.304522,0.0,0.0
288,71.75,16.8841,17.3187,158.225,104.845,101.215,0.000840497,0.0525977,21.0226,186.312,0.304879,0.0,0.0
290,72.25,17.5874,18.1388,159.452,104.833,100.985,0.000865387,0.0525476,21.0225,186.312,0.323567,0.0,0.0
292,72.75,17.4724,17.6471,159.125,104.831,101.115,0.000885548,0.052507,21.0225,186.302,0.312198,0.0,0.0
294,73.25,17.4687,17.9578,156.951,104.826,101.186,0.000895843,0.0524665,21.0225,186.302,0.305699,0.0,0.0
296,73.75,17.48,17.916,157.622,104.813,101.092,0.000904182,0.052427,21.0225,186.312,0.312762,0.0,0.0
298,74.25,17.5487,18.6316,160.712,104.793,101.153,0.000908523,0.052395,21.0225,186.312,0.305816,0.0,0.0
300,74.75,16.882,18.2465,159.925,104.794,101.151,0.000912038,0.052369,21.0225,186.302,0.30605,0.0,0.0
302,75.25,16.7341,17.8082,154.298,104.781,101.179,0.000923336,0.052348,21.0225,186.312,0.30264,0.0,0.0
304,75.75,16.6843,17.889,157.793,104.769,101.139,0.000932487,0.0523381,21.0224,186.312,0.305095,0.0,0.0
306,76.25,17.3926,17.701,155.578,104.762,100.98,0.000953181,0.0523366,21.0224,186.302,0.318029,0.0,0.0
308,76.75,17.2324,17.831,156.4,104.748,101.014,0.000969944,0.0523081,21.0224,186.312,0.314027,0.0,0.0
310,77.25,17.1876,18.1933,157.593,104.738,101.083,0.000983521,0.0522851,21.0224,186.302,0.307263,0.0,0.0
312,77.75,17.3501,18.2084,158.48,104.728,100.953,0.00100056,0.0522593,21.0224,186.312,0.317562,0.0,0.0
314,78.25,17.2786,17.9077,152.889,104.715,100.916,0.00101436,0.052232,21.0224,186.322,0.319675,0.0,0.0
316,78.75,17.523,18.1291,156.053,104.706,101.096,0.00103278,0.0522778,21.0224,186.312,0.303517,0.0,0.0
318,79.25,16.4232,16.9658,162.007,104.719,101.073,0.00104771,0.0523148,21.0224,186.322,0.306533,0.0,0.0
320,79.75,16.829,17.335,158.701,104.686,100.994,0.00106425,0.0523519,21.0224,186.322,0.310546,0.0,0.0
322,80.25,17.0279,18.1827,156.313,104.684,101.004,0.00108166,0.0523885,21.0224,186.312,0.309494,0.0,0.0
324,80.75,17.1488,18.314,158.21,104.669,100.999,0.00109512,0.052418,21.0224,186.312,0.308762,0.0,0.0
326,81.25,17.0493,18.3103,155.878,104.652,100.938,0.00110545,0.0524284,21.0224,186.312,0.31258,0.0,0.0
328,81.75,17.1946,17.7265,156.087,104.65,100.894,0.00110428,0.0524368,21.0224,186.312,0.316184,0.0,0.0
330,82.25,17.1679,17.838,156.39,104.644,101.113,0.00109475,0.0524708,21.0224,186.312,0.296898,0.0,0.0
332,82.75,17.2425,17.3048,156.972,104.63,100.858,0.00106924,0.0524983,21.0224,186.322,0.31757,0.0,0.0
334,83.25,17.4024,18.2956,159.598,104.616,100.926,0.00103256,0.0525349,21.0224,186.312,0.310629,0.0,0.0
336,83.75,17.4255,18.1425,157.505,104.609,100.876,0.00100286,0.0525774,21.0224,186.312,0.31435,0.0,0.0
338,84.25,16.9923,18.0332,157.754,104.604,100.925,0.000961656,0.0526189,21.0224,186.312,0.309713,0.0,0.0
340,84.75,17.1427,17.9662,160.994,104.596,100.911,0.000912857,0.052659,21.0224,186.312,0.310265,0.0,0.0
342,85.25,16.6082,17.979,156.826,104.579,100.787,0.000869524,0.0526914,21.0224,186.312,0.319495,0.0,0.0
344,85.75,16.8589,17.9181,156.64,104.562,100.921,0.000830998,0.0527313,21.0224,186.312,0.306614,0.0,0.0
346,86.25,17.6883,18.5115,156.545,104.553,100.99,0.000797889,0.0527636,21.0224,186.312,0.299946,0.0,0.0
348,86.75,16.9033,17.6951,157.724,104.554,100.795,0.000769358,0.0527683,21.0224,186.322,0.316722,0.0,0.0
350,87.25,16.9484,17.4698,158.195,104.544,100.954,0.000746247,0.0527529,21.0224,186.322,0.302223,0.0,0.0
352,87.75,17.4786,17.8448,155.587,104.533,100.82,0.000722708,0.0527404,21.0224,186.322,0.312788,0.0,0.0
354,88.25,16.9802,17.2158,157.09,104.532,100.816,0.000703641,0.0527302,21.0224,186.312,0.313151,0.0,0.0
356,88.75,17.3148,18.1671,160.525,104.504,100.81,0.000680966,0.0527363,21.0224,186.312,0.311354,0.0,0.0
358,89.25,17.0504,17.7509,158.534,104.507,100.807,0.0006626,0.0527541,21.0224,186.322,0.311767,0.0,0.0
360,89.75,16.7078,17.3508,157.752,104.489,100.793,0.000647723,0.0527685,21.0224,186.322,0.311499,0.0,0.0
362,90.25,17.2001,17.6134,159.619,104.483,100.976,0.000635673,0.0527666,21.0224,186.312,0.295373,0.0,0.0
364,90.75,17.3189,17.6851,156.228,104.456,100.744,0.000625913,0.052765,21.0224,186.322,0.312977,0.0,0.0
366,91.25,16.8534,17.5009,156.622,104.455,100.816,0.000627646,0.0527502,21.0224,186.322,0.3067,0.0,0.0
368,91.75,16.8656,18.3151,160.7,104.452,100.735,0.000629051,0.0527382,21.0224,186.332,0.313491,0.0,0.0
370,92.25,16.7142,17.7066,154.283,104.441,100.767,0.000627778,0.0526877,21.0224,186.322,0.309814,0.0,0.0
372,92.75,17.3277,18.1663,158.261,104.415,100.704,0.000626748,0.0526469,21.0224,186.322,0.313016,0.0,0.0
374,93.25,16.7699,17.58,161.104,104.421,100.839,0.000625913,0.0526138,21.0224,186.322,0.30193,0.0,0.0
376,93.75,16.9543,17.2705,160.982,104.403,100.612,0.000625237,0.0525463,21.0224,186.312,0.319954,0.0,0.0
378,94.25,17.0371,17.5113,157.529,104.4,100.622,0.000592168,0.0524916,21.0224,186.312,0.318826,0.0,0.0
380,94.75,17.1655,17.7262,159.11,104.381,100.631,0.000565382,0.0524901,21.0223,186.312,0.316496,0.0,0.0
382,95.25,17.3534,17.0388,155.822,104.385,100.725,0.000529241,0.0525275,21.0222,186.322,0.308764,0.0,0.0
384,95.75,16.8213,17.8395,155.587,104.369,100.715,0.000499966,0.0525578,21.0221,186.332,0.30836,0.0,0.0
386,96.25,17.2207,17.2207,156.358,104.371,100.666,0.000473847,0.0525824,21.022,186.342,0.312611,0.0,0.0
388,96.75,16.8433,17.9662,159.696,104.344,100.707,0.00045269,0.0526158,21.022,186.372,0.306857,0.0,0.0
390,97.25,17.0707,17.9079,155.99,104.351,100.651,0.000441572,0.0526429,21.0219,186.352,0.312286,0.0,0.0
392,97.75,16.9963,17.4735,156.541,104.329,100.714,0.000432565,0.0526649,21.0219,186.362,0.305051,0.0,0.0
394,98.25,16.7685,17.8475,157.813,104.323,100.769,0.000438577,0.0526826,21.0219,186.362,0.299848,0.0,0.0
396,98.75,16.7934,17.6065,155.483,104.303,100.659,0.000455424,0.0527242,21.0219,186.372,0.307647,0.0,0.0
398,99.25,16.6268,18.1054,158.138,104.311,100.599,0.000482386,0.0527578,21.0218,186.332,0.313509,0.0,0.0
400,99.75,16.7035,17.6245,155.713,104.283,100.55,0.000516211,0.0527851,21.0218,186.272,0.315337,0.0,0.0
402,100.25,16.7675,17.3618,159.281,104.286,100.491,0.00054361,0.0528072,21.0218,186.322,0.3207,0.0,0.0
404,100.75,17.3256,17.6508,157.696,104.261,100.439,0.000592328,0.0528322,21.0218,186.312,0.323102,0.0,0.0
406,101.25,16.9804,17.3862,157.411,104.27,100.469,0.000631789,0.0528589,21.0218,186.352,0.321256,0.0,0.0
408,101.75,16.9422,17.6777,152.542,104.237,100.635,0.000677024,0.0528662,21.0218,186.282,0.304183,0.0,0.0
410,102.25,17.0836,17.1945,158.69,104.242,100.737,0.000713663,0.0528593,21.0218,186.312,0.295886,0.0,0.0
412,102.75,16.8305,17.8213,155.888,104.22,100.537,0.000748422,0.0528537,21.0218,186.332,0.31125,0.0,0.0
414,103.25,17.0063,17.4729,160.579,104.229,100.619,0.00078115,0.052822,21.0213,186.322,0.304936,0.0,0.0
416,103.75,16.9511,17.246,158.522,104.198,100.481,0.000801943,0.0527964,21.021,186.302,0.314214,0.0,0.0
418,104.25,16.8945,17.4082,155.782,104.196,100.522,0.000813641,0.0527892,21.0207,186.292,0.310599,0.0,0.0
420,104.75,16.2712,17.2595,159.104,104.185,100.611,0.000823117,0.0527833,21.0205,186.302,0.301934,0.0,0.0
422,105.25,17.0831,17.2199,163.229,104.184,100.522,0.000809213,0.0527857,21.0203,186.312,0.309558,0.0,0.0
424,105.75,16.931,17.2852,153.841,104.169,100.497,0.00077853,0.0527941,21.0201,186.302,0.310463,0.0,0.0
426,106.25,16.1248,16.9046,154.419,104.168,100.334,0.000739094,0.0528009,21.02,186.282,0.324419,0.0,0.0
428,106.75,16.3462,16.7217,157.144,104.165,100.701,0.000694025,0.05282,21.0199,186.292,0.292564,0.0,0.0
430,107.25,16.8303,17.5842,159.281,104.159,100.657,0.000648647,0.0528354,21.0198,186.282,0.295808,0.0,0.0
432,107.75,16.7402,17.4759,155.71,104.142,100.491,0.000603907,0.0528887,21.0198,186.292,0.308731,0.0,0.0
434,108.25,17.1332,17.2335,154.776,104.136,100.398,0.000561334,0.0529318,21.0197,186.312,0.316183,0.0,0.0
436,108.75,16.8876,17.3543,155.546,104.123,100.442,0.000521148,0.0529596,21.0197,186.312,0.311351,0.0,0.0
438,109.25,16.3772,17.3471,158.754,104.122,100.631,0.000488598,0.0529756,21.0196,186.312,0.295039,0.0,0.0
440,109.75,16.3216,17.3676,154.445,104.129,100.467,0.00046103,0.0529887,21.0196,186.312,0.309659,0.0,0.0
442,110.25,16.9646,17.5589,158.003,104.122,100.438,0.0004387,0.0530128,21.0196,186.312,0.311607,0.0,0.0
444,110.75,17.4402,18.262,159.183,104.111,100.404,0.000423018,0.0530537,21.0195,186.322,0.313626,0.0,0.0
446,111.25,16.4912,17.4489,156.294,104.098,100.569,0.000410316,0.0531062,21.0195,186.312,0.298304,0.0,0.0
448,111.75,16.98,17.354,154.505,104.098,100.369,0.000400028,0.0531487,21.0195,186.312,0.315559,0.0,0.0
450,112.25,16.8836,17.5007,156.739,104.09,100.548,0.000410952,0.0532646,21.0195,186.322,0.299501,0.0,0.0
452,112.75,16.9518,17.3758,153.746,104.084,100.456,0.000419801,0.0533585,21.0195,186.322,0.306904,0.0,0.0
454,113.25,16.5746,17.4303,160.991,104.086,100.476,0.000442624,0.0534752,21.0195,186.322,0.305401,0.0,0.0
456,113.75,16.8351,17.9217,156.95,104.099,100.453,0.000461111,0.0535698,21.0195,186.322,0.308395,0.0,0.0
458,114.25,16.4152,17.0277,152.744,104.07,100.358,0.000479255,0.0536322,21.0195,186.322,0.314185,0.0,0.0
460,114.75,16.3508,16.8874,157.798,104.073,100.399,0.000496805,0.0536698,21.0195,186.312,0.310959,0.0,0.0
462,115.25,17.0126,17.5096,156.403,104.068,100.293,0.00051102,0.0537002,21.0195,186.312,0.319685,0.0,0.0
464,115.75,16.7794,17.6047,160.856,104.057,100.387,0.000515307,0.0536963,21.0195,186.312,0.310674,0.0,0.0
466,116.25,16.3426,17.4205,153.259,104.064,100.353,0.000518779,0.0536674,21.0195,186.312,0.314089,0.0,0.0
468,116.75,16.7516,17.0526,154.848,104.046,100.434,0.000521592,0.0536583,21.0195,186.322,0.30567,0.0,0.0
470,117.25,16.818,16.7146,157.215,104.061,100.455,0.000508215,0.0536638,21.0199,186.302,0.305087,0.0,0.0
472,117.75,16.732,17.6257,155.008,104.039,100.498,0.00049738,0.0536682,21.0203,186.302,0.29959,0.0,0.0
474,118.25,16.1087,17.1514,161.662,104.036,100.399,0.000498237,0.0536583,21.0205,186.312,0.307772,0.0,0.0
476,118.75,16.2255,16.8777,155.885,104.053,100.461,0.000498931,0.0536502,21.0208,186.322,0.303849,0.0,0.0
478,119.25,17.2531,17.785,155.334,104.043,100.359,0.000507734,0.0536437,21.021,186.312,0.311856,0.0,0.0
480,119.75,17.1323,17.8495,160.692,104.035,100.484,0.000522282,0.0536791,21.0211,186.322,0.300466,0.0,0.0
482,120.25,17.1452,17.6604,157.954,104.032,100.266,0.000541042,0.0537078,21.0212,186.322,0.31896,0.0,0.0
484,120.75,16.4675,17.1775,154.897,104.046,100.511,0.000562517,0.0537174,21.0209,186.312,0.299005,0.0,0.0
486,121.25,16.7986,17.1528,155.512,104.029,100.391,0.000579912,0.0537253,21.0206,186.312,0.307877,0.0,0.0
488,121.75,16.45,17.1586,163.279,104.027,100.36,0.000607262,0.0537173,21.0204,186.312,0.310488,0.0,0.0
490,122.25,16.5612,17.4764,155.887,104.019,100.307,0.000629415,0.053698,21.0202,186.312,0.314331,0.0,0.0
492,122.75,16.5886,17.2758,157.931,104.025,100.35,0.000665448,0.0536824,21.0201,186.312,0.311154,0.0,0.0
494,123.25,16.5555,17.7427,161.088,104.023,100.381,0.000694635,0.053724,21.02,186.312,0.308291,0.0,0.0
496,123.75,16.8358,17.2811,158.366,104.03,100.409,0.000735169,0.0537578,21.0199,186.302,0.306471,0.0,0.0
498,124.25,16.84,17.4161,157.901,104.021,100.336,0.000752449,0.0537987,21.0198,186.302,0.31199,0.0,0.0
500,124.75,16.3815,16.7206,158.02,104.028,100.404,0.000784539,0.0538318,21.0198,186.312,0.306764,0.0,0.0
502,125.25,16.9119,17.0426,162.213,104.021,100.3,0.000812819,0.0538372,21.0197,186.322,0.315186,0.0,0.0
504,125.75,16.9549,17.2908,158.146,104.019,100.303,0.000835725,0.0538223,21.0197,186.322,0.314687,0.0,0.0
506,126.25,16.554,17.3202,153.18,104.018,100.416,0.000858727,0.053803,21.0196,186.322,0.304861,0.0,0.0
508,126.75,16.4586,17.1033,157.283,104.024,100.364,0.000881361,0.053781,21.0196,186.322,0.309882,0.0,0.0
510,127.25,16.5476,17.2925,158.621,104.024,100.376,0.000902236,0.0537716,21.0196,186.322,0.308843,0.0,0.0
512,127.75,16.8338,17.6909,156.961,104.022,100.477,0.000921433,0.053742,21.0196,186.322,0.299991,0.0,0.0
514,128.25,16.5817,17.2157,155.394,104.02,100.302,0.000933805,0.053718,21.0195,186.332,0.314839,0.0,0.0
516,128.75,16.5626,17.271,160.659,104.024,100.435,0.000940967,0.0536443,21.02,186.332,0.303724,0.0,0.0
518,129.25,17.0658,17.1494,161.51,104.021,100.427,0.000939145,0.0535846,21.0203,186.332,0.304193,0.0,0.0
520,129.75,16.7923,17.2636,157.52,104.033,100.457,0.000930809,0.0535148,21.0206,186.342,0.302598,0.0,0.0
522,130.25,16.5324,17.2925,155.037,104.018,100.331,0.000918976,0.0534389,21.0208,186.332,0.312256,0.0,0.0
524,130.75,16.7775,17.5755,157.884,104.035,100.464,0.000911525,0.0533775,21.021,186.332,0.302143,0.0,0.0
526,131.25,16.7926,17.6209,152.554,104.034,100.338,0.000898783,0.0533277,21.0211,186.332,0.312944,0.0,0.0
528,131.75,16.5474,17.075,154.13,104.039,100.466,0.000877606,0.0532874,21.0212,186.342,0.302345,0.0,0.0
530,132.25,16.4184,17.1831,159.481,104.039,100.497,0.000860452,0.0532548,21.0213,186.332,0.29963,0.0,0.0
532,132.75,16.3575,17.326,162.143,104.045,100.369,0.000846558,0.0532069,21.0214,186.322,0.31112,0.0,0.0
534,133.25,16.4456,16.938,159.111,104.035,100.414,0.000819628,0.0531488,21.0212,186.322,0.306461,0.0,0.0
536,133.75,16.1903,16.7117,156.448,104.055,100.369,0.000797814,0.0531241,21.0209,186.322,0.312018,0.0,0.0
538,134.25,16.417,17.5996,155.669,104.037,100.339,0.000769297,0.0530817,21.0206,186.322,0.313114,0.0,0.0
540,134.75,16.8605,17.3697,162.723,104.055,100.459,0.000746198,0.0530475,21.0204,186.312,0.304268,0.0,0.0
542,135.25,16.9201,17.4232,157.696,104.046,100.581,0.000700984,0.053034,21.0202,186.312,0.293055,0.0,0.0
544,135.75,16.4554,17.0818,163.777,104.064,100.313,,0.0530359,,186.312,0.317608,0.0,0.0
546,136.25,16.5202,17.5143,155.013,104.065,100.346,,0.0530375,,186.312,0.314796,0.0,0.0
548,136.75,16.4012,17.5201,158.923,104.082,100.408,,0.0530795,,186.312,0.310839,0.0,0.0
550,137.25,15.7499,16.5269,158.329,104.074,100.441,,0.0531135,,186.312,0.307395,0.0,0.0
552,137.75,16.1446,16.7997,154.774,104.086,100.351,,0.0531267,,186.322,0.316152,0.0,0.0
554,138.25,16.3813,16.5926,152.487,104.088,100.493,,0.0531246,,186.312,0.304103,0.0,0.0
556,138.75,16.4453,17.0702,158.158,104.095,100.32,,,,186.312,0.319542,0.0,0.0
558,139.25,16.4877,17.2569,157.113,104.09,100.396,,,,186.302,0.312633,0.0,0.0
560,139.75,16.5746,17.2648,156.413,104.105,100.422,,,,186.302,0.311647,0.0,0.0
562,140.25,16.7801,17.11,159.153,104.101,100.523,,,,186.292,0.302549,0.0,0.0
564,140.75,16.8648,17.1308,158.188,104.12,100.576,,,,186.302,0.299565,0.0,0.0
566,141.25,16.1278,16.6295,158.065,104.122,100.46,,,,186.312,0.30973,0.0,0.0
568,141.75,16.1815,16.6892,154.62,104.132,100.599,,,,186.312,0.298612,0.0,0.0
570,142.25,16.6067,17.3273,159.135,104.122,100.58,,,,186.312,0.299425,0.0,0.0
572,142.75,16.6374,17.1604,157.509,104.148,100.506,,,,186.312,0.307878,0.0,0.0
574,143.25,15.7928,16.2126,156.116,104.143,100.58,,,,186.312,0.301104,0.0,0.0
576,143.75,16.1535,16.602,156.087,104.15,100.475,,,,186.312,0.310768,0.0,0.0
578,144.25,16.2299,17.1271,152.998,104.166,100.486,,,,186.312,0.311131,0.0,0.0
580,144.75,16.6908,17.3369,159.563,104.155,100.479,,,,186.312,0.310881,0.0,0.0
582,145.25,16.3488,16.9859,157.056,104.172,100.485,,,,186.312,0.311752,0.0,0.0
584,145.75,16.8752,17.3434,159.653,104.196,100.524,,,,186.292,0.310404,0.0,0.0
586,146.25,16.7451,17.2224,158.764,104.182,100.464,,,,186.292,0.31441,0.0,0.0
587,146.5,16.6482,16.9052,157.986,104.193,100.632,,,,186.292,0.300895,0.0,0.0