File: 01_Data/Cotton_Sheets/Cone/Cotton_Sheet_Cone_HF75Scan_220429_R1.csv
Names,Time,Stack TC,Smoke TC,Exh Press,Smoke Comp,Smoke Meas,CO Meter,CO2 Meter,O2 Meter,Sample Mass,Ext Coeff,Start Test,Flame Verif
Chan Gain,,500,500,1,1,1,1,1,1,1,1,1.0,1.0
Offset,,0,0,0.138979,0,0,0,0,0,0,0,0.0,0.0
Gain,,1,1,25.011,14.099,15.1965,1,1,1,1.00087,0.986176,1.0,1.0
Units,sec,C,C,Pa,%,%,%,%,%,g,/m,,
Baseline,,38.0124,39.5413,145.226,106.182,103.594,0.000670199,0.0495671,21.0269,-836.031,0.213468,,
2,0.25,35.2894,37.7237,143.012,105.808,102.98,0.00107349,0.0533464,21.0028,185.021,0.234374,0.0,0.0
4,0.75,34.9896,36.739,142.964,105.783,102.763,0.00123548,0.0742502,20.9735,184.801,0.250546,0.0,0.0
6,1.25,35.7771,37.057,147.832,105.788,101.295,0.00143259,0.0911823,20.9499,184.701,0.375385,0.0,0.0
8,1.75,34.8976,37.2427,125.526,105.78,106.971,0.00165154,0.142039,20.8728,184.62,-0.0968861,0.0,1.0
10,2.25,35.5509,37.0922,116.29,105.768,107.902,0.00191044,0.183233,20.8104,184.22,-0.172744,0.0,1.0
12,2.75,35.6142,36.6041,105.158,105.745,108.225,0.00219355,0.237376,20.7598,184.63,-0.200556,0.0,1.0
14,3.25,36.3331,37.8316,101.774,105.749,108.026,0.00242287,0.29993,20.7188,184.13,-0.184287,0.0,1.0
16,3.75,37.0146,38.2569,112.67,105.721,106.098,0.00271444,0.352064,20.6857,183.94,-0.0307251,0.0,1.0
18,4.25,38.5033,38.8971,117.404,105.72,105.266,0.00304584,0.395612,20.6588,184.11,0.0371972,0.0,1.0
20,4.75,39.2784,39.5155,132.26,105.705,104.562,0.00339466,0.419292,20.637,183.95,0.0941229,0.0,1.0
22,5.25,40.6236,41.1522,135.825,105.719,104.285,0.00374956,0.428037,20.6312,184.01,0.118148,0.0,1.0
24,5.75,41.4006,41.5063,140.523,105.715,104.484,0.00403703,0.435121,20.637,183.98,0.101346,0.0,1.0
26,6.25,41.8515,42.7557,142.043,105.717,103.875,0.00425661,0.426835,20.6395,183.96,0.15205,0.0,1.0
28,6.75,41.4771,42.4854,142.772,105.717,103.851,0.00463209,0.407502,20.667,184.02,0.154129,0.0,1.0
30,7.25,42.0041,43.1307,143.704,105.721,103.538,0.00499049,0.391842,20.6893,183.93,0.180449,0.0,0.0
32,7.75,41.9379,43.5474,144.814,105.723,103.619,0.00532962,0.360118,20.7258,184.01,0.173924,0.0,0.0
34,8.25,41.8266,43.5655,144.269,105.737,103.594,0.00563117,0.334421,20.7553,183.92,0.177177,0.0,0.0
36,8.75,41.8203,43.277,142.234,105.733,103.527,0.0058996,0.30281,20.7876,183.96,0.182403,0.0,0.0
38,9.25,41.9182,43.7223,146.128,105.732,103.344,0.00611702,0.289334,20.8137,183.95,0.197652,0.0,0.0
40,9.75,42.4759,43.1551,141.643,105.739,103.249,0.00627819,0.263113,20.8374,183.93,0.206174,0.0,0.0
42,10.25,41.7738,43.8855,145.373,105.747,103.457,0.00640874,0.239015,20.8589,183.96,0.189344,0.0,0.0
44,10.75,42.025,43.4457,142.859,105.746,103.287,0.00645626,0.217582,20.8763,183.92,0.203552,0.0,0.0
46,11.25,41.6746,43.6869,143.051,105.764,103.797,0.00644235,0.198499,20.8939,183.96,0.162409,0.0,0.0
48,11.75,41.6011,43.6017,143.783,105.745,103.108,0.00635935,0.183042,20.9082,183.95,0.218417,0.0,0.0
50,12.25,41.7149,43.6307,147.74,105.764,103.516,0.00622756,0.167669,20.9213,183.97,0.185863,0.0,0.0
52,12.75,41.8188,43.7448,143.953,105.752,103.326,0.00612081,0.155217,20.9335,183.98,0.200747,0.0,0.0
54,13.25,40.9678,43.5033,146.004,105.755,103.18,0.0058542,0.143531,20.9447,183.99,0.213233,0.0,0.0
56,13.75,40.9771,43.3108,145.427,105.758,103.644,0.00563825,0.132626,20.955,184.01,0.174645,0.0,0.0
58,14.25,40.8787,43.1724,143.093,105.754,103.067,0.00531224,0.123793,20.9643,183.99,0.222655,0.0,0.0
60,14.75,41.0587,42.8174,144.817,105.76,103.49,0.00504818,0.114592,20.9726,183.99,0.187647,0.0,0.0
62,15.25,41.2446,42.8649,142.268,105.766,103.123,0.00468746,0.10714,20.9794,183.98,0.218857,0.0,0.0
64,15.75,40.9381,42.997,146.728,105.779,103.484,0.00439529,0.0998178,20.9853,183.97,0.189738,0.0,0.0
66,16.25,40.5217,42.7343,144.239,105.778,103.115,0.00415862,0.0938869,20.9905,183.96,0.220543,0.0,0.0
68,16.75,41.0553,42.6074,145.307,105.782,103.149,0.00388164,0.0881959,20.9948,183.95,0.218017,0.0,0.0
70,17.25,40.6336,42.7969,145.302,105.781,103.625,0.00358053,0.0835862,20.9993,183.96,0.178132,0.0,0.0
72,17.75,40.3859,42.6418,144.41,105.804,103.051,0.00345216,0.0791984,21.0013,183.96,0.228025,0.0,0.0
74,18.25,40.5517,42.4195,141.484,105.781,103.244,0.003186,0.0756444,21.0046,183.95,0.209977,0.0,0.0
76,18.75,40.9159,42.3701,144.804,105.789,103.354,0.00292842,0.0727656,21.0077,183.95,0.201405,0.0,0.0
78,19.25,40.698,42.9385,146.005,105.794,103.106,0.00269937,0.0700829,21.0103,183.97,0.222658,0.0,0.0
80,19.75,39.77,42.791,144.011,105.804,103.079,0.00249546,0.0675942,21.0128,183.96,0.225724,0.0,0.0
82,20.25,40.512,42.9222,143.44,105.801,103.348,0.00231118,0.0655783,21.0148,183.96,0.20293,0.0,0.0
84,20.75,40.2223,42.8232,147.701,105.791,103.146,0.0021447,0.0645115,21.0169,183.94,0.218992,0.0,0.0
86,21.25,40.2754,42.3458,139.314,105.798,103.448,0.00200986,0.0626873,21.0186,183.94,0.194269,0.0,0.0
88,21.75,40.5935,42.0332,145.154,105.808,103.333,0.00186918,0.0610952,21.0201,183.94,0.204736,0.0,0.0
90,22.25,40.6864,41.8912,146.753,105.802,102.863,0.00175523,0.0597028,21.0216,183.95,0.243704,0.0,0.0
92,22.75,39.8643,42.5403,143.598,105.815,103.653,0.00162789,0.0585749,21.0229,183.95,0.178589,0.0,0.0
94,23.25,40.2223,42.3731,143.576,105.813,103.244,0.00152474,0.0574306,21.0238,183.96,0.21258,0.0,0.0
96,23.75,40.2056,41.677,148.816,105.816,102.978,0.00140737,0.0565036,21.0246,183.97,0.235198,0.0,0.0
98,24.25,40.0279,41.852,142.47,105.813,103.033,0.00131231,0.0556578,21.0253,183.95,0.230321,0.0,0.0
100,24.75,40.0751,41.8872,145.05,105.826,103.251,0.00123531,0.0549727,21.0258,183.96,0.213052,0.0,0.0
102,25.25,40.0362,41.9375,141.326,105.823,103.357,0.00114519,0.0543092,21.0262,183.95,0.203987,0.0,0.0
104,25.75,39.8683,41.6896,144.65,105.827,103.472,0.0010722,0.0537718,21.0266,183.97,0.194722,0.0,0.0
106,26.25,40.0747,41.8645,145.171,105.844,102.952,0.00100463,0.0532937,21.0271,183.96,0.239663,0.0,0.0
108,26.75,39.7893,42.0777,144.904,105.841,103.223,0.000949901,0.0528678,21.0277,183.96,0.216654,0.0,0.0
110,27.25,39.1822,41.627,143.65,105.844,103.412,0.000904935,0.0525229,21.0282,183.95,0.201097,0.0,0.0
112,27.75,39.1355,41.2458,141.149,105.843,103.391,0.000867942,0.0522299,21.0286,183.94,0.202775,0.0,0.0
114,28.25,39.6235,41.9462,142.576,105.829,103.431,0.000837343,0.0519926,21.0289,183.93,0.19831,0.0,0.0
116,28.75,39.6724,41.8376,145.969,105.845,103.696,0.000811987,0.0517462,21.0288,183.93,0.177457,0.0,0.0
118,29.25,39.8002,41.458,143.375,105.831,103.225,0.000785739,0.0515465,21.0286,183.92,0.215728,0.0,0.0
120,29.75,40.1055,41.7079,138.939,105.854,103.263,0.00075934,0.0513442,21.0289,183.93,0.21444,0.0,0.0
122,30.25,39.8605,41.3726,145.59,105.836,103.164,0.000737956,0.0511802,21.0292,183.92,0.221208,0.0,0.0
124,30.75,39.8357,41.5352,145.11,105.851,103.333,0.000708584,0.0510474,21.0294,183.94,0.208218,0.0,0.0
126,31.25,39.6497,40.7778,145.837,105.848,103.078,0.000684793,0.0509399,21.0296,183.94,0.229351,0.0,0.0
128,31.75,39.1348,41.4204,146.443,105.862,103.479,0.000665522,0.0508385,21.0297,183.92,0.196989,0.0,0.0
130,32.25,39.5864,41.1612,146.183,105.853,103.095,0.000636662,0.0507435,21.0299,183.91,0.228372,0.0,0.0
132,32.75,39.8735,41.6383,145.557,105.859,103.303,0.000613286,0.0506666,21.0299,183.93,0.211374,0.0,0.0
134,33.25,39.381,41.2939,142.865,105.847,103.164,0.000593147,0.0505771,21.0298,183.94,0.222119,0.0,0.0
136,33.75,39.6434,41.5097,150.416,105.868,103.16,0.000576834,0.0505047,21.0295,183.93,0.224192,0.0,0.0
138,34.25,39.6291,41.3141,140.34,105.851,103.308,0.000568438,0.0504246,21.0292,183.93,0.210388,0.0,0.0
140,34.75,39.6613,41.376,152.165,105.865,103.285,0.000561637,0.0503405,21.029,183.93,0.213381,0.0,0.0
142,35.25,39.39,40.8412,142.824,105.877,103.341,0.000558538,0.0502723,21.0288,183.91,0.209702,0.0,0.0
144,35.75,38.9934,40.8228,148.388,105.874,103.539,0.000556027,0.0501493,21.0286,183.92,0.192898,0.0,0.0
146,36.25,39.3165,41.4138,147.154,105.859,103.478,0.000546255,0.0500497,21.0285,183.93,0.196745,0.0,0.0
148,36.75,39.3035,41.1495,147.016,105.885,103.517,0.000543626,0.0499554,21.0284,183.92,0.195634,0.0,0.0
150,37.25,39.4391,41.1376,144.677,105.855,103.476,0.0005307,0.0498791,21.0284,183.94,0.196619,0.0,0.0
152,37.75,39.4106,41.1867,145.816,105.878,103.619,0.000520231,0.0498173,21.0283,183.93,0.186624,0.0,0.0
154,38.25,39.4126,41.0184,143.181,105.853,103.397,0.00051175,0.0497672,21.0282,183.93,0.203041,0.0,0.0
156,38.75,38.7862,40.799,145.445,105.88,103.214,0.000504881,0.0497266,21.0282,183.95,0.220596,0.0,0.0
158,39.25,38.9931,40.737,145.001,105.865,103.162,0.000499318,0.0496869,21.0282,183.93,0.223755,0.0,0.0
160,39.75,39.3221,41.1176,145.151,105.886,103.44,0.000488791,0.0496807,21.0281,183.93,0.202176,0.0,0.0
162,40.25,39.3977,41.3284,147.769,105.86,103.457,0.000480264,0.0496701,21.0282,183.92,0.19867,0.0,0.0
164,40.75,39.154,41.3261,146.269,105.865,103.058,0.000479378,0.0496615,21.0283,183.94,0.232467,0.0,0.0
166,41.25,39.1439,41.2342,145.435,105.865,103.513,0.000478659,0.0496275,21.0284,183.92,0.194363,0.0,0.0
168,41.75,39.2139,41.2743,142.289,105.869,103.282,0.000502169,0.0495999,21.0285,183.92,0.21404,0.0,0.0
170,42.25,38.7565,40.9458,144.498,105.856,103.225,0.000521211,0.0495775,21.0285,183.93,0.217656,0.0,0.0
172,42.75,39.1405,40.8827,142.6,105.872,103.307,0.000551228,0.0495238,21.0285,183.93,0.212153,0.0,0.0
174,43.25,38.9787,41.0485,142.329,105.856,103.399,0.000588674,0.0494481,21.0286,183.92,0.203133,0.0,0.0
176,43.75,38.8734,40.8184,144.644,105.878,103.486,0.000627257,0.0493868,21.0286,183.89,0.197708,0.0,0.0
178,44.25,39.2552,40.8053,142.479,105.864,103.167,0.000665937,0.0493372,21.0286,183.88,0.22326,0.0,0.0
180,44.75,38.7785,40.9974,145.451,105.862,103.281,0.000695363,0.049297,21.0286,183.87,0.213559,0.0,0.0
182,45.25,38.7779,40.7736,144.886,105.855,103.178,0.000717485,0.0492644,21.0286,183.88,0.22155,0.0,0.0
184,45.75,39.257,41.0006,146.208,105.866,103.184,0.000735403,0.049238,21.0286,183.87,0.221994,0.0,0.0
186,46.25,38.4468,40.7884,145.608,105.863,103.426,0.000739761,0.0492167,21.0286,183.86,0.201475,0.0,0.0
188,46.75,39.3258,40.8535,144.957,105.861,103.653,0.000734151,0.0491994,21.0287,183.87,0.182278,0.0,0.0
190,47.25,38.8792,41.3196,143.646,105.856,103.154,0.000727069,0.0491853,21.0287,183.87,0.223681,0.0,0.0
192,47.75,39.2094,40.9113,144.009,105.875,103.229,0.000719048,0.049174,21.0287,183.88,0.218962,0.0,0.0
194,48.25,38.8587,40.8335,144.288,105.859,103.543,0.000712552,0.0491648,21.0287,183.89,0.191429,0.0,0.0
196,48.75,38.8486,40.2727,143.643,105.866,103.46,0.000701734,0.0491438,21.0287,183.87,0.198891,0.0,0.0
198,49.25,38.7946,40.7517,147.474,105.871,103.297,0.000698824,0.0491268,21.0287,183.87,0.212864,0.0,0.0
200,49.75,38.6266,41.1122,145.269,105.866,103.209,0.000690231,0.0490987,21.0287,183.87,0.219933,0.0,0.0
202,50.25,38.3542,40.51,146.5,105.856,103.489,0.000683272,0.0490632,21.0286,183.9,0.195608,0.0,0.0
204,50.75,38.7794,40.3554,145.36,105.865,103.302,0.00067884,0.0490344,21.0284,183.88,0.212054,0.0,0.0
206,51.25,38.9972,40.7947,146.112,105.865,103.151,0.00067525,0.049011,21.0283,183.87,0.224653,0.0,0.0
208,51.75,39.036,40.6043,147.425,105.881,103.168,0.000677417,0.0489921,21.0282,183.87,0.22455,0.0,0.0
210,52.25,38.4418,40.6972,145.75,105.86,103.222,0.000683741,0.0489761,21.0282,183.89,0.218317,0.0,0.0
212,52.75,38.8041,40.4724,147.428,105.853,103.423,0.000688864,0.0489631,21.0283,183.89,0.200903,0.0,0.0
214,53.25,38.5076,40.3758,147.747,105.881,103.526,0.000703168,0.048939,21.0287,183.86,0.194578,0.0,0.0
216,53.75,38.4744,40.2637,148.15,105.859,103.314,0.000723895,0.0489195,21.0287,183.86,0.210555,0.0,0.0
218,54.25,38.7357,40.2582,141.392,105.861,103.161,0.000749573,0.0489173,21.0285,183.88,0.22348,0.0,0.0
220,54.75,38.7459,40.374,143.043,105.881,103.656,0.000778374,0.0489154,21.0284,183.88,0.183699,0.0,0.0
222,55.25,38.7665,40.3425,145.808,105.881,103.321,0.000805515,0.048914,21.0283,183.9,0.211653,0.0,0.0
224,55.75,38.6694,39.9716,146.434,105.865,103.346,0.000830928,0.0489128,21.0282,183.89,0.208403,0.0,0.0
226,56.25,38.7437,40.0101,145.308,105.884,103.205,0.000848337,0.0489118,21.0281,183.9,0.221685,0.0,0.0
228,56.75,38.7789,40.3341,148.524,105.856,103.423,0.00085958,0.0489182,21.0281,183.88,0.201075,0.0,0.0
230,57.25,38.3246,40.537,146.863,105.865,103.134,0.000859796,0.0489297,21.028,183.89,0.226054,0.0,0.0
232,57.75,38.9137,40.5282,144.699,105.873,103.138,0.00085197,0.0489527,21.028,183.88,0.226372,0.0,0.0
234,58.25,38.2369,40.4732,145.051,105.873,103.232,0.000836743,0.0489712,21.028,183.87,0.218518,0.0,0.0
236,58.75,39.1742,40.26,147.946,105.878,103.272,0.000816412,0.0489727,21.0279,183.87,0.215524,0.0,0.0
238,59.25,38.5279,40.4704,146.875,105.883,103.602,0.000799944,0.0489739,21.0279,183.87,0.188408,0.0,0.0
240,59.75,38.4577,40.4437,145.947,105.883,103.698,0.000769431,0.0489478,21.0279,183.87,0.180431,0.0,0.0
242,60.25,37.9836,40.0082,147.091,105.878,103.337,0.00072926,0.0489266,21.0279,183.88,0.210196,0.0,0.0
244,60.75,38.0753,40.1846,147.249,105.877,103.224,0.000696722,0.0489501,21.028,183.86,0.219494,0.0,0.0
246,61.25,38.2106,40.3844,142.982,105.907,103.278,0.000655913,0.0489692,21.0282,183.87,0.217448,0.0,0.0
248,61.75,38.4955,40.194,146.896,105.885,103.281,0.000622857,0.0489846,21.0283,183.87,0.215383,0.0,0.0
250,62.25,38.313,40.3392,148.8,105.899,103.269,0.000596082,0.0489971,21.0283,183.87,0.217479,0.0,0.0
252,62.75,38.062,40.135,144.608,105.901,103.148,0.000575662,0.0490072,21.0284,183.86,0.227836,0.0,0.0
254,63.25,37.9292,39.8975,141.576,105.904,103.111,0.000560262,0.0490229,21.0284,183.86,0.231158,0.0,0.0
256,63.75,37.5949,39.6993,146.842,105.916,102.859,0.000552226,0.0490424,21.0283,183.84,0.253374,0.0,0.0
258,64.25,38.2767,39.9368,146.866,105.912,103.608,0.00054971,0.0490582,21.0285,183.86,0.190329,0.0,0.0
260,64.75,38.2605,39.7106,145.959,105.924,103.257,0.000547672,0.0490981,21.0288,183.83,0.220602,0.0,0.0
262,65.25,38.2078,39.9572,144.415,105.914,103.638,0.000546022,0.0491304,21.0291,183.83,0.18788,0.0,0.0
264,65.75,38.2669,40.2904,143.264,105.918,103.397,0.000545953,0.0491566,21.0294,183.84,0.20838,0.0,0.0
266,66.25,37.4917,40.0608,144.357,105.932,103.374,0.000547038,0.0491507,21.0295,183.84,0.211449,0.0,0.0
268,66.75,37.6453,39.8746,142.618,105.924,103.14,0.000547917,0.0491459,21.0297,183.85,0.230472,0.0,0.0
270,67.25,38.2302,40.1167,146.326,105.918,103.448,0.000558776,0.0491421,21.0298,183.85,0.204081,0.0,0.0
272,67.75,38.3303,40.638,145.634,105.918,103.191,0.000576704,0.0491389,21.0299,183.84,0.225633,0.0,0.0
274,68.25,38.026,40.157,146.1,105.94,103.171,0.000593129,0.0491499,21.03,183.82,0.229131,0.0,0.0
276,68.75,37.9903,40.0916,145.096,105.925,103.116,0.000608146,0.0491589,21.0301,183.83,0.23253,0.0,0.0
278,69.25,38.7684,40.1895,145.453,105.927,103.178,0.000610162,0.049159,21.0297,183.82,0.227494,0.0,0.0
280,69.75,38.1158,40.2289,145.657,105.924,103.214,0.000602662,0.0491526,21.0294,183.83,0.224216,0.0,0.0
282,70.25,38.216,39.1757,145.105,105.929,103.539,0.000587711,0.0491475,21.0291,183.84,0.197359,0.0,0.0
284,70.75,37.8949,39.6116,143.572,105.943,103.519,0.000567614,0.0491298,21.0289,183.84,0.200223,0.0,0.0
286,71.25,38.2573,39.98,143.678,105.935,103.376,0.000546899,0.0491154,21.0287,183.83,0.2115,0.0,0.0
288,71.75,38.3707,40.3477,142.875,105.93,103.685,0.000526128,0.0490824,21.0286,183.84,0.185272,0.0,0.0
290,72.25,38.0346,39.5461,144.028,105.945,103.483,0.000509304,0.0490364,21.0285,183.84,0.203349,0.0,0.0
292,72.75,38.5503,39.951,143.114,105.928,103.079,0.000493268,0.0490205,21.0284,183.82,0.235811,0.0,0.0
294,73.25,38.2869,40.6988,149.105,105.944,103.225,0.000480279,0.0490269,21.0283,183.82,0.224899,0.0,0.0
296,73.75,38.6074,40.0631,146.43,105.941,103.459,0.000469758,0.0490321,21.0283,183.82,0.205085,0.0,0.0
298,74.25,37.7097,39.3983,144.719,105.95,103.5,0.00045642,0.0490363,21.028,183.83,0.202374,0.0,0.0
300,74.75,37.9856,39.4907,145.432,105.949,103.604,0.000445617,0.0490611,21.0276,183.85,0.193553,0.0,0.0
302,75.25,38.4485,40.1292,146.161,105.961,103.476,0.000436233,0.0491005,21.0272,183.83,0.20523,0.0,0.0
304,75.75,37.8809,39.6876,147.498,105.943,103.476,0.000428062,0.0491323,21.0274,183.82,0.203789,0.0,0.0
306,76.25,38.0439,40.4341,145.202,105.962,103.696,0.000422077,0.0491724,21.0275,183.82,0.187017,0.0,0.0
308,76.75,37.9266,39.404,141.278,105.942,103.38,0.000417799,0.0492177,21.0272,183.81,0.211784,0.0,0.0
310,77.25,38.414,40.2795,144.969,105.958,103.259,0.000415601,0.0492544,21.0269,183.81,0.223187,0.0,0.0
312,77.75,38.3656,39.9452,145.34,105.955,103.359,0.000414961,0.049277,21.0267,183.84,0.214553,0.0,0.0
314,78.25,38.3962,39.9222,148.07,105.974,103.234,0.000414442,0.0492889,21.0265,183.82,0.226655,0.0,0.0
316,78.75,38.1152,39.4941,147.357,105.958,103.139,0.000423654,0.0492985,21.0263,183.84,0.23329,0.0,0.0
318,79.25,37.834,39.9998,143.498,105.973,103.522,0.000431115,0.0493063,21.0262,183.84,0.202447,0.0,0.0
320,79.75,37.7838,39.9496,145.183,105.973,103.418,0.000443496,0.0493198,21.0261,183.83,0.211097,0.0,0.0
322,80.25,38.5378,39.438,145.596,105.981,103.095,0.00045923,0.0493371,21.0261,183.83,0.238882,0.0,0.0
324,80.75,38.2276,39.435,145.034,105.979,103.662,0.000471974,0.0493511,21.026,183.81,0.191242,0.0,0.0
326,81.25,37.8909,39.6544,144.287,105.981,103.557,0.000502779,0.0493354,21.0259,183.82,0.200137,0.0,0.0
328,81.75,37.5112,39.4392,145.618,105.967,103.576,0.000527731,0.0493226,21.0259,183.8,0.197422,0.0,0.0
330,82.25,38.3952,39.5354,144.393,105.986,103.255,0.000559996,0.0492716,21.0259,183.8,0.225855,0.0,0.0
332,82.75,38.1861,39.5679,145.597,105.988,103.73,0.000586131,0.0492303,21.0258,183.81,0.186299,0.0,0.0
334,83.25,38.292,39.8717,145.582,105.988,103.276,0.000615739,0.0491969,21.0258,183.81,0.224204,0.0,0.0
336,83.75,37.7544,39.2991,145.582,105.991,103.73,0.000639722,0.0491833,21.0258,183.82,0.186469,0.0,0.0
338,84.25,37.9105,40.2816,143.335,105.992,103.781,0.000657879,0.0491723,21.0258,183.83,0.18232,0.0,0.0
340,84.75,38.3083,39.5827,145.15,105.986,103.268,0.000671444,0.0491421,21.0258,183.81,0.224802,0.0,0.0
342,85.25,38.1299,40.0509,143.599,106,103.576,0.000682431,0.0490983,21.0258,183.79,0.200056,0.0,0.0
344,85.75,38.0848,39.4101,144.782,105.991,103.235,0.000691966,0.0490557,21.0258,183.81,0.227946,0.0,0.0
346,86.25,37.8514,39.1963,143.44,106,103.823,0.00070026,0.0490147,21.026,183.81,0.179548,0.0,0.0
348,86.75,38.0282,39.9941,145.05,105.986,103.73,0.000712055,0.0489958,21.0262,183.77,0.186194,0.0,0.0
350,87.25,37.6234,39.6867,148.891,105.995,103.539,0.00072618,0.0489934,21.0264,183.77,0.202769,0.0,0.0
352,87.75,38.2189,39.8136,144.889,105.994,103.352,0.000737621,0.0489914,21.0265,183.77,0.21837,0.0,0.0
354,88.25,37.764,40.186,148.583,105.998,103.231,0.000756538,0.0489898,21.0266,183.78,0.228854,0.0,0.0
356,88.75,38.2563,39.4592,146.336,105.992,103.088,0.000771861,0.0489614,21.0267,183.74,0.240342,0.0,0.0
358,89.25,38.108,40.0157,145.189,106.007,103.782,0.000775829,0.0489383,21.027,183.75,0.18351,0.0,0.0
360,89.75,37.9526,39.4046,144.563,106.011,103.367,0.000779043,0.0488519,21.0274,183.74,0.218493,0.0,0.0
362,90.25,38.0818,40.0162,146.43,106.004,103.346,0.000774076,0.048782,21.0278,183.75,0.219678,0.0,0.0
364,90.75,37.6842,39.7236,141.863,106.002,103.411,0.000763241,0.0487659,21.0281,183.77,0.214031,0.0,0.0
366,91.25,38.2484,39.5332,150.883,106.011,103.387,0.000751926,0.0487529,21.0283,183.76,0.216825,0.0,0.0
368,91.75,37.8477,39.5799,144.46,105.996,103.87,0.000740476,0.0487424,21.0283,183.77,0.17533,0.0,0.0
370,92.25,38.205,39.889,143.755,105.999,103.593,0.000731202,0.0487339,21.0284,183.78,0.19863,0.0,0.0
372,92.75,38.3318,39.2441,141.744,106.004,103.405,0.00072369,0.0487413,21.0284,183.78,0.214785,0.0,0.0
374,93.25,37.6827,39.8293,146.394,105.988,103.544,0.000718874,0.0487601,21.0284,183.76,0.201784,0.0,0.0
376,93.75,38.0377,39.8054,144.537,106.005,103.679,0.000716116,0.0487753,21.0284,183.76,0.19196,0.0,0.0
378,94.25,38.3057,39.9077,142.954,106.001,103.535,0.000713881,0.0487327,21.0284,183.76,0.203574,0.0,0.0
380,94.75,37.7876,39.7032,142.8,106.002,103.811,0.000716513,0.0486982,21.0284,183.77,0.18069,0.0,0.0
382,95.25,37.9533,39.3651,146.577,106,103.604,0.000722643,0.0487244,21.0284,183.77,0.197805,0.0,0.0
384,95.75,38.2434,39.7562,144.191,106.005,103.862,0.00072507,0.0487742,21.0285,183.74,0.176689,0.0,0.0
386,96.25,37.8955,39.4921,145.026,106.004,103.996,0.000724752,0.0488403,21.0285,183.74,0.165428,0.0,0.0
388,96.75,37.837,39.6259,145.04,105.993,103.645,0.000724494,0.0488937,21.0285,183.73,0.193802,0.0,0.0
390,97.25,38.3057,39.297,147.129,105.991,103.532,0.000713435,0.0489156,21.0285,183.75,0.203111,0.0,0.0
392,97.75,38.4285,39.2737,142.116,106.004,103.634,0.000704477,0.0489141,21.0285,183.73,0.195602,0.0,0.0
394,98.25,37.6521,39.9209,146.614,105.989,103.536,0.000679146,0.0489129,21.0285,183.74,0.202551,0.0,0.0
396,98.75,38.0691,39.6133,141.791,105.996,103.583,0.000658628,0.0489526,21.0285,183.74,0.199193,0.0,0.0
398,99.25,38.3077,39.9082,144.415,105.986,103.259,0.000620329,0.0489847,21.0285,183.75,0.225539,0.0,0.0
400,99.75,38.0742,39.7122,143.326,105.989,103.539,0.000589307,0.0490785,21.0285,183.75,0.202313,0.0,0.0
402,100.25,37.8982,39.6512,148.236,105.98,103.686,0.000542514,0.0491545,21.0285,183.74,0.189303,0.0,0.0
404,100.75,37.802,39.7012,144.686,105.993,103.504,0.000504612,0.0492296,21.0285,183.71,0.205612,0.0,0.0
406,101.25,37.9916,39.3314,148.054,105.979,103.596,0.000473911,0.0492904,21.0282,183.73,0.196709,0.0,0.0
408,101.75,37.8387,39.4453,144.858,105.995,103.343,0.000447096,0.0493397,21.0278,183.73,0.219213,0.0,0.0
410,102.25,37.773,39.9016,144.263,105.989,103.734,0.000423624,0.0493796,21.0275,183.73,0.186092,0.0,0.0
412,102.75,37.7972,39.6398,142.208,105.986,103.59,0.000410311,0.0493848,21.0274,183.71,0.197773,0.0,0.0
414,103.25,38.0367,40.0934,145.876,105.97,103.397,0.000404659,0.049389,21.0274,183.71,0.212561,0.0,0.0
416,103.75,38.2527,40.4073,144.037,105.982,103.588,0.000407049,0.0493925,21.0273,183.7,0.197647,0.0,0.0
418,104.25,38.2122,40.0601,142.457,105.963,103.354,0.000415257,0.0493681,21.0272,183.71,0.215647,0.0,0.0
420,104.75,38.2542,39.3677,143.251,105.976,103.396,0.000421906,0.0493484,21.0272,183.71,0.213243,0.0,0.0
422,105.25,38.2698,39.437,143.118,105.963,103.46,0.000439334,0.0493828,21.0272,183.71,0.206801,0.0,0.0
424,105.75,38.3086,39.8168,149.813,105.973,103.275,0.00045345,0.0494559,21.0269,183.72,0.22313,0.0,0.0
426,106.25,37.8165,39.6755,142.219,105.969,103.367,0.000475663,0.0495223,21.0265,183.73,0.215052,0.0,0.0
428,106.75,38.3358,39.5521,149.544,105.962,103.199,0.000503357,0.0495825,21.0262,183.72,0.22859,0.0,0.0
430,107.25,38.2121,40.0124,147.503,105.958,103.452,0.000525789,0.0496312,21.0259,183.73,0.20707,0.0,0.0
432,107.75,37.8873,40.044,145.725,105.98,103.259,0.000560456,0.0496436,21.0257,183.71,0.22501,0.0,0.0
434,108.25,38.2588,39.4586,145.202,105.966,103.383,0.000603385,0.0496536,21.0255,183.7,0.213448,0.0,0.0
436,108.75,37.4223,39.5025,143.668,105.961,103.294,0.000638157,0.0496617,21.0255,183.7,0.22048,0.0,0.0
438,109.25,37.9826,39.67,141.736,105.941,103.291,0.000681563,0.0496683,21.0254,183.71,0.219133,0.0,0.0
440,109.75,37.8351,39.7253,140.429,105.958,103.478,0.000730439,0.049695,21.0254,183.7,0.204868,0.0,0.0
442,110.25,38.0756,39.6482,143.851,105.959,103.558,0.000780833,0.049736,21.0254,183.71,0.198269,0.0,0.0
444,110.75,38.0323,39.3428,142.107,105.944,103.409,0.000831375,0.0497691,21.0254,183.72,0.209483,0.0,0.0
446,111.25,38.3289,39.7582,146.429,105.938,103.633,0.000872314,0.0497745,21.0254,183.72,0.190347,0.0,0.0
448,111.75,38.0796,39.9739,142.029,105.944,102.959,0.000926012,0.0497597,21.0254,183.73,0.247237,0.0,0.0
450,112.25,38.1975,39.3766,146.481,105.918,103.263,0.000969508,0.0497476,21.0254,183.71,0.219609,0.0,0.0
452,112.75,37.9459,39.9983,144.793,105.927,103.192,0.00102045,0.0497379,21.0254,183.71,0.226324,0.0,0.0
454,113.25,38.1553,39.8157,141.425,105.918,103.583,0.00106172,0.04973,21.0254,183.72,0.192765,0.0,0.0
456,113.75,38.2097,40.4046,148.054,105.928,103.724,0.00109998,0.0497507,21.0254,183.72,0.181842,0.0,0.0
458,114.25,38.3629,39.7758,146.53,105.911,103.505,0.00113097,0.0497675,21.0258,183.73,0.198751,0.0,0.0
460,114.75,37.8055,39.6228,140.81,105.912,103.524,0.00115124,0.0497811,21.0262,183.73,0.197341,0.0,0.0
462,115.25,38.0487,39.812,146.875,105.899,102.921,0.00116765,0.0497379,21.0265,183.73,0.246774,0.0,0.0
464,115.75,38.2428,39.2625,141.287,105.912,103.325,0.00118095,0.0496743,21.0267,183.74,0.213873,0.0,0.0
466,116.25,37.8636,39.9653,144.832,105.896,103.059,0.00116392,0.0495972,21.0269,183.77,0.234889,0.0,0.0
468,116.75,37.603,39.8095,145.759,105.896,103.308,0.00115013,0.0495418,21.027,183.76,0.214041,0.0,0.0
470,117.25,38.1361,39.3585,144.054,105.902,103.344,0.00112625,0.0495034,21.0272,183.76,0.211547,0.0,0.0
472,117.75,37.9,39.5697,144.442,105.897,103.157,0.00109547,0.0494723,21.0273,183.77,0.226819,0.0,0.0
474,118.25,37.6715,39.8182,144.516,105.884,103.91,0.00105973,0.0494542,21.0273,183.75,0.1628,0.0,0.0
476,118.75,38.1046,39.7844,144.788,105.898,103.305,0.00102107,0.049446,21.0274,183.75,0.214453,0.0,0.0
478,119.25,38.2537,39.6011,144.938,105.882,103.248,0.00098594,0.0494393,21.0275,183.73,0.21797,0.0,0.0
480,119.75,38.2586,39.5807,142.436,105.889,103.461,0.000954058,0.0494746,21.0275,183.71,0.200603,0.0,0.0
482,120.25,37.8472,39.8894,143.184,105.879,103.365,0.000930138,0.0495032,21.0275,183.71,0.207859,0.0,0.0
484,120.75,37.6698,39.8969,144.573,105.895,103.169,0.000912477,0.0494856,21.0276,183.7,0.225594,0.0,0.0
486,121.25,37.5874,39.9592,145.771,105.876,103.212,0.000905793,0.0494714,21.0276,183.7,0.220396,0.0,0.0
488,121.75,37.8574,39.4988,142.458,105.878,103.278,,0.0494328,,183.71,0.215054,0.0,0.0
490,122.25,38.009,39.3373,142.989,105.863,103.439,,0.0494016,,183.68,0.200393,0.0,0.0
492,122.75,37.4674,40.1997,148.51,105.876,103.6,,0.0493762,,183.69,0.188,0.0,0.0
494,123.25,37.7128,39.4423,146.902,105.869,103.267,,0.0493557,,183.68,0.215283,0.0,0.0
496,123.75,38.7964,39.4938,142.36,105.87,103.316,,0.0493255,,183.69,0.211276,0.0,0.0
498,124.25,38.1104,39.6963,141.862,105.871,103.491,,0.0493011,,183.71,0.196679,0.0,0.0
500,124.75,38.0712,39.3071,144.231,105.868,103.471,,,,183.68,0.198105,0.0,0.0
502,125.25,38.4317,39.6836,146.97,105.863,103.408,,,,183.68,0.202989,0.0,0.0
504,125.75,38.3616,39.3782,143.895,105.867,103.374,,,,183.67,0.206141,0.0,0.0
506,126.25,37.9243,39.941,142.944,105.866,103.672,,,,183.64,0.181114,0.0,0.0
508,126.75,37.8489,39.395,144.195,105.857,103.231,,,,183.65,0.217291,0.0,0.0
510,127.25,38.3189,39.4622,144.935,105.848,103.519,,,,183.66,0.192456,0.0,0.0
512,127.75,38.148,39.4866,141.155,105.854,103.261,,,,183.66,0.214561,0.0,0.0
514,128.25,38.0928,39.5418,140.022,105.849,103.448,,,,183.65,0.198493,0.0,0.0
516,128.75,38.0036,39.7148,145.531,105.85,103.372,,,,183.65,0.204925,0.0,0.0
518,129.25,37.8621,39.6078,143.777,105.852,103.223,,,,183.64,0.217572,0.0,0.0
520,129.75,38.2019,39.1128,139.885,105.844,103.096,,,,183.64,0.227595,0.0,0.0
522,130.25,38.1786,39.5231,146.617,105.839,103.119,,,,183.65,0.225224,0.0,0.0
524,130.75,38.3095,39.4066,145.22,105.85,103.616,,,,183.62,0.184497,0.0,0.0
526,131.25,38.1158,39.9386,144.754,105.848,103.258,,,,183.64,0.214338,0.0,0.0
528,131.75,38.3625,39.7038,147.116,105.838,103.402,,,,183.64,0.201493,0.0,0.0
530,132.25,38.2395,39.6048,145.552,105.842,103.141,,,,183.65,0.223567,0.0,0.0