File: 01_Data/Cotton_Sheets/Cone/Cotton_Sheet_Cone_HF75Scan_220429_R2.csv
Names,Time,Stack TC,Smoke TC,Exh Press,Smoke Comp,Smoke Meas,CO Meter,CO2 Meter,O2 Meter,Sample Mass,Ext Coeff,Start Test,Flame Verif
Chan Gain,,500,500,1,1,1,1,1,1,1,1,1.0,1.0
Offset,,0,0,0.138979,0,0,0,0,0,0,0,0.0,0.0
Gain,,1,1,25.011,14.099,15.1965,1,1,1,1.00087,0.986176,1.0,1.0
Units,sec,C,C,Pa,%,%,%,%,%,g,/m,,
Baseline,,39.5001,41.019,144.643,105.963,103.468,0.000754016,0.0491688,21.0238,-836.433,0.206181,,
2,0.25,36.4298,38.6291,141.523,105.538,102.634,0.00137157,0.0699066,20.9807,179.016,0.241401,0.0,1.0
4,0.75,36.6657,37.7219,158.738,105.519,102.159,0.00153886,0.090527,20.9469,178.605,0.279933,0.0,1.0
6,1.25,36.5932,37.7092,130.676,105.54,105.347,0.00177416,0.10723,20.8638,178.705,0.0158387,0.0,1.0
8,1.75,36.0417,37.6825,118.97,105.504,107.819,0.00196476,0.162993,20.7965,178.415,-0.18776,0.0,0.0
10,2.25,37.0144,38.3584,113.87,105.521,107.834,0.00219176,0.208161,20.742,178.425,-0.187572,0.0,1.0
12,2.75,36.7661,38.6028,104.312,105.536,108.154,0.00244099,0.275817,20.6978,178.255,-0.212008,0.0,1.0
14,3.25,38.4849,39.3023,102.734,105.509,107.746,0.00264286,0.330618,20.6621,178.115,-0.181526,0.0,1.0
16,3.75,38.3147,39.3813,112.105,105.494,105.435,0.00296697,0.380384,20.6331,178.015,0.004796,0.0,1.0
18,4.25,39.705,40.4381,125.88,105.493,105.428,0.0032295,0.420695,20.6096,178.035,0.00536903,0.0,1.0
20,4.75,41.3166,41.8762,131.05,105.479,105.107,0.00360344,0.44232,20.6003,178.055,0.0305778,0.0,1.0
22,5.25,42.104,42.4505,138.55,105.489,104.875,0.00390633,0.449911,20.6015,178.005,0.0504596,0.0,1.0
24,5.75,42.8337,43.238,139.477,105.46,103.953,0.00431861,0.456061,20.6184,178.085,0.124554,0.0,1.0
26,6.25,43.1655,44.1311,138.769,105.474,103.767,0.00465256,0.433185,20.6464,177.995,0.14117,0.0,1.0
28,6.75,43.7331,44.2336,143.446,105.449,103.734,0.00503849,0.414655,20.6783,178.055,0.141868,0.0,1.0
30,7.25,43.0618,44.422,141.965,105.461,103.126,0.00535109,0.390894,20.7125,178.015,0.193746,0.0,0.0
32,7.75,43.0948,44.4135,142.784,105.444,103.192,0.00566277,0.36377,20.7446,178.045,0.186774,0.0,0.0
34,8.25,43.0075,44.6067,143.664,105.454,103.068,0.00591523,0.33615,20.7745,177.995,0.197972,0.0,0.0
36,8.75,42.9728,45.0722,140.014,105.435,103.237,0.00611972,0.308695,20.7987,177.995,0.182265,0.0,0.0
38,9.25,43.3285,44.6589,143.131,105.445,103.38,0.0062642,0.282657,20.8211,178.005,0.171039,0.0,0.0
40,9.75,43.4772,44.3369,142.061,105.421,103.004,0.00638123,0.258149,20.8418,177.975,0.200662,0.0,0.0
42,10.25,43.0986,44.6874,140.351,105.433,103.365,0.00639896,0.233994,20.8585,177.995,0.171402,0.0,0.0
44,10.75,42.5071,44.944,143.802,105.405,103.23,0.00641331,0.214429,20.8755,177.975,0.180373,0.0,0.0
46,11.25,43.1672,44.8167,142.203,105.421,103.015,0.00631211,0.19654,20.8912,177.985,0.199696,0.0,0.0
48,11.75,42.3996,44.9302,144.631,105.411,103.163,0.00623013,0.180214,20.9055,177.965,0.186469,0.0,0.0
50,12.25,42.9952,44.8942,141.62,105.407,103.052,0.00602654,0.16699,20.9192,177.975,0.19549,0.0,0.0
52,12.75,43.0177,44.6912,144.601,105.412,102.929,0.00586164,0.154447,20.9322,177.985,0.206233,0.0,0.0
54,13.25,43.0602,45.0349,144.185,105.412,102.757,0.00557664,0.142639,20.9427,177.975,0.220635,0.0,0.0
56,13.75,42.9961,44.7853,147.186,105.389,102.897,0.00534579,0.13201,20.9512,177.955,0.207019,0.0,0.0
58,14.25,42.8428,44.4186,147.156,105.413,103.169,0.0051588,0.122442,20.9607,177.935,0.186137,0.0,0.0
60,14.75,41.9425,44.2075,140.913,105.395,103.206,0.00488229,0.113101,20.9684,177.965,0.181508,0.0,0.0
62,15.25,42.0662,44.478,144.247,105.403,103.095,0.00454577,0.105535,20.9754,177.945,0.191514,0.0,0.0
64,15.75,42.0003,44.1228,143.798,105.375,102.92,0.00427319,0.0982855,20.9811,177.965,0.203976,0.0,0.0
66,16.25,42.1455,43.9353,146.873,105.397,103.096,0.00392079,0.0924136,20.9864,177.945,0.190941,0.0,0.0
68,16.75,42.2561,43.6274,144.832,105.382,102.725,0.00363534,0.0876573,20.9913,177.955,0.220891,0.0,0.0
70,17.25,41.7474,44.0441,145.753,105.38,102.748,0.00332151,0.0831088,20.9957,177.955,0.218798,0.0,0.0
72,17.75,42.1162,44.2148,145.913,105.369,103.08,0.0030673,0.0787981,20.9997,177.945,0.189968,0.0,0.0
74,18.25,41.5718,43.8109,146.571,105.372,102.89,0.00279228,0.0753065,21.0032,177.935,0.206226,0.0,0.0
76,18.75,41.6668,44.0779,144.703,105.356,102.714,0.00256951,0.0718661,21.0062,177.915,0.219671,0.0,0.0
78,19.25,41.5027,43.6098,143.162,105.373,102.776,0.00235594,0.0690793,21.0087,177.915,0.215856,0.0,0.0
80,19.75,41.6289,43.8694,142.948,105.362,103.042,0.00215313,0.0665932,21.0111,177.915,0.192595,0.0,0.0
82,20.25,41.4917,43.8704,143.548,105.359,102.822,0.00198886,0.0643734,21.013,177.915,0.210822,0.0,0.0
84,20.75,41.2597,43.4919,147.306,105.357,102.741,0.00182558,0.0624253,21.0151,177.905,0.217512,0.0,0.0
86,21.25,41.4923,43.3336,147.655,105.372,102.898,0.00169142,0.0607123,21.0167,177.895,0.205489,0.0,0.0
88,21.75,41.6597,43.6167,142.664,105.369,103.282,0.00158103,0.0592104,21.018,177.895,0.173059,0.0,0.0
90,22.25,41.2897,43.0432,145.592,105.381,102.897,0.00149161,0.057891,21.0191,177.915,0.206347,0.0,0.0
92,22.75,40.9524,43.2232,143.741,105.362,102.873,0.00142427,0.0568223,21.02,177.905,0.206853,0.0,0.0
94,23.25,41.5091,43.6817,144.433,105.365,102.727,0.00137431,0.0557532,21.0211,177.905,0.219319,0.0,0.0
96,23.75,41.3689,42.6936,144.531,105.358,103.057,0.00133384,0.0548871,21.0221,177.915,0.191071,0.0,0.0
98,24.25,41.227,43.3658,143.713,105.371,102.906,0.0013071,0.0540094,21.0228,177.915,0.204755,0.0,0.0
100,24.75,42.2622,43.3305,144.09,105.36,103.263,0.0012743,0.0532983,21.0237,177.915,0.173941,0.0,0.0
102,25.25,41.8038,43.229,143.76,105.365,103.018,0.00126427,0.0526796,21.0239,177.895,0.194906,0.0,0.0
104,25.75,41.5363,43.4147,143.278,105.383,103.038,0.00124712,0.0521399,21.0243,177.885,0.194679,0.0,0.0
106,26.25,41.2899,43.3187,144.12,105.372,102.642,0.00122242,0.0516671,21.0246,177.895,0.227073,0.0,0.0
108,26.75,40.7739,43.1423,142.552,105.368,102.757,0.00119269,0.051252,21.0249,177.895,0.216992,0.0,0.0
110,27.25,41.6552,42.8057,143.871,105.375,103.062,0.00114928,0.0509157,21.0253,177.905,0.191985,0.0,0.0
112,27.75,41.6463,42.9781,147.31,105.373,102.832,0.00111412,0.0503533,21.0259,177.915,0.211133,0.0,0.0
114,28.25,40.79,43.0515,143.5,105.375,102.739,0.00107477,0.050202,21.0264,177.935,0.219116,0.0,0.0
116,28.75,41.1876,43.6235,143.77,105.362,103.197,0.0010429,0.049929,21.0267,177.925,0.179566,0.0,0.0
118,29.25,40.9051,42.85,140.605,105.37,103.101,0.00101709,0.049695,21.0271,177.925,0.188287,0.0,0.0
120,29.75,40.1416,42.5841,144.719,105.362,103.136,0.000986529,0.0494983,21.0273,177.915,0.184699,0.0,0.0
122,30.25,41.029,42.7107,143.917,105.36,102.837,0.000961774,0.0493326,21.0275,177.915,0.209719,0.0,0.0
124,30.75,40.5004,42.6301,146.082,105.377,102.603,0.000934738,0.049177,21.0277,177.905,0.230781,0.0,0.0
126,31.25,41.1548,42.8794,142.223,105.364,102.935,0.000906552,0.0490317,21.0278,177.915,0.201809,0.0,0.0
128,31.75,40.4739,43.1564,143.222,105.363,102.966,0.000874838,0.048914,21.0279,177.895,0.199053,0.0,0.0
130,32.25,40.9945,42.3404,144.288,105.363,102.783,0.000841152,0.048778,21.028,177.875,0.214493,0.0,0.0
132,32.75,40.5141,42.6334,143.332,105.366,102.98,0.000803083,0.0486679,21.028,177.895,0.198135,0.0,0.0
134,33.25,40.8903,42.4072,144.589,105.37,102.719,0.000762542,0.0485787,21.0277,177.885,0.220485,0.0,0.0
136,33.75,40.8442,42.4622,143.58,105.362,102.883,0.000722096,0.0485064,21.0273,177.895,0.20596,0.0,0.0
138,34.25,40.8814,42.2972,145.865,105.375,102.52,0.000682487,0.0484265,21.0271,177.895,0.237609,0.0,0.0
140,34.75,40.6909,42.7535,145.405,105.377,102.914,0.000650404,0.0483425,21.0269,177.915,0.204622,0.0,0.0
142,35.25,41.0101,43.0751,145.626,105.372,102.59,0.00062803,0.0482531,21.0267,177.925,0.231452,0.0,0.0
144,35.75,40.7337,42.6165,143.793,105.38,102.865,0.000609907,0.0481614,21.0266,177.925,0.209003,0.0,0.0
146,36.25,41.1256,42.0313,144.712,105.391,102.531,0.000606642,0.0480871,21.0265,177.925,0.238013,0.0,0.0
148,36.75,40.6165,42.2333,146.798,105.384,102.813,0.00061427,0.048027,21.0264,177.925,0.21369,0.0,0.0
150,37.25,40.569,42.452,144.523,105.379,102.522,0.00062045,0.0479782,21.0263,177.905,0.237729,0.0,0.0
152,37.75,39.9925,42.028,144.397,105.378,102.73,0.000631165,0.0479117,21.0263,177.895,0.22018,0.0,0.0
154,38.25,40.5438,42.3108,142.952,105.372,102.604,0.000644983,0.0478577,21.0265,177.915,0.230239,0.0,0.0
156,38.75,40.2853,42.1851,143.774,105.391,103.138,0.000656176,0.0477784,21.0268,177.895,0.186941,0.0,0.0
158,39.25,40.6678,41.9769,143.941,105.381,103.063,0.000653188,0.0476821,21.0271,177.885,0.192362,0.0,0.0
160,39.75,40.5732,42.3299,143.401,105.393,102.829,0.000641889,0.0476041,21.0273,177.885,0.213101,0.0,0.0
162,40.25,39.7361,41.9846,142.719,105.378,102.898,0.000624746,0.0475409,21.0275,177.895,0.205945,0.0,0.0
164,40.75,40.2432,41.8026,144.639,105.41,102.603,0.000610861,0.0475032,21.0277,177.895,0.233501,0.0,0.0
166,41.25,40.402,42.1989,147.974,105.389,103.315,0.000594795,0.0474727,21.0278,177.905,0.171883,0.0,0.0
168,41.75,40.7997,42.232,141.537,105.397,103.279,0.000581782,0.047448,21.0279,177.895,0.175658,0.0,0.0
170,42.25,40.334,41.9452,142.848,105.391,103.03,0.000591724,0.047428,21.028,177.905,0.196013,0.0,0.0
172,42.75,40.2884,42.0856,142.108,105.422,102.751,0.000599776,0.0473441,21.028,177.885,0.22195,0.0,0.0
174,43.25,40.3333,41.9907,149.688,105.397,102.775,0.000621528,0.0472761,21.0281,177.865,0.217911,0.0,0.0
176,43.75,39.799,42.1826,145.068,105.412,103.076,0.000652853,0.0471939,21.0281,177.885,0.19385,0.0,0.0
178,44.25,40.0692,41.831,145.892,105.398,102.845,0.0006814,0.0471274,21.0282,177.895,0.212125,0.0,0.0
180,44.75,40.4296,41.7582,143.835,105.418,103.004,0.000707381,0.0471006,21.0284,177.915,0.20038,0.0,0.0
182,45.25,40.0822,42.0521,140.65,105.416,102.724,0.000728425,0.0470789,21.0289,177.895,0.223834,0.0,0.0
184,45.75,39.9448,41.7231,144.68,105.435,102.753,0.000741852,0.0470613,21.0292,177.875,0.222853,0.0,0.0
186,46.25,40.0709,41.5902,146.302,105.414,102.855,0.000752728,0.047047,21.0295,177.885,0.212612,0.0,0.0
188,46.75,40.1321,42.2581,139.153,105.435,102.756,0.000759124,0.0470355,21.0297,177.865,0.222654,0.0,0.0
190,47.25,40.2005,41.8818,144.021,105.431,102.808,0.000764306,0.046972,21.0299,177.855,0.218004,0.0,0.0
192,47.75,39.9206,42.0766,140.693,105.46,102.871,0.000767297,0.0469205,21.03,177.865,0.215025,0.0,0.0
194,48.25,40.7105,42.0076,144.76,105.435,102.768,0.000769719,0.0468788,21.0301,177.885,0.221643,0.0,0.0
196,48.75,40.3311,41.7239,146.717,105.461,103.129,0.000765652,0.0468451,21.0302,177.885,0.1934,0.0,0.0
198,49.25,39.5467,41.4767,142.676,105.454,102.643,0.000762357,0.0468313,21.0303,177.875,0.233664,0.0,0.0
200,49.75,39.9007,41.2265,145.808,105.468,103.021,0.000759689,0.0468201,21.0304,177.885,0.203069,0.0,0.0
202,50.25,39.9413,42.0987,140.017,105.454,103.515,0.000740649,0.0467975,21.0304,177.865,0.160534,0.0,0.0
204,50.75,39.6275,41.8495,141.743,105.478,103.104,0.000725226,0.0467792,21.0305,177.845,0.196916,0.0,0.0
206,51.25,39.9251,41.3762,145.197,105.474,102.884,0.000712099,0.0467644,21.0305,177.845,0.215097,0.0,0.0
208,51.75,39.5944,41.5472,141.874,105.483,102.689,0.000700896,0.0467524,21.0305,177.835,0.232235,0.0,0.0
210,52.25,40.2473,41.8379,145.191,105.491,103.042,0.000696897,0.0467426,21.0306,177.825,0.203186,0.0,0.0
212,52.75,39.5071,42.0283,149.812,105.508,102.742,0.000698226,0.0467347,21.0306,177.835,0.229864,0.0,0.0
214,53.25,38.9759,41.4884,144.693,105.494,103.232,0.000708188,0.0467284,21.0306,177.825,0.187485,0.0,0.0
216,53.75,39.4179,41.7302,148.413,105.509,102.863,0.000724253,0.0467367,21.0306,177.815,0.219714,0.0,0.0
218,54.25,39.7979,41.6047,144.706,105.504,102.931,0.000737266,0.0467435,21.0306,177.805,0.21359,0.0,0.0
220,54.75,39.7246,41.9256,143.055,105.529,103.153,0.000745395,0.0467633,21.0306,177.825,0.196991,0.0,0.0
222,55.25,39.5504,41.6729,145.857,105.518,103.018,0.000751979,0.0467921,21.0306,177.835,0.207434,0.0,0.0
224,55.75,40.0518,41.6054,146.282,105.531,103.365,0.000747158,0.0467798,21.0306,177.835,0.179373,0.0,0.0
226,56.25,39.9946,41.8934,143.61,105.527,102.882,0.000734115,0.0467378,21.0306,177.794,0.219557,0.0,0.0
228,56.75,40.0022,41.7775,143.047,105.547,102.767,0.00072355,0.0467037,21.0306,177.805,0.23093,0.0,0.0
230,57.25,39.4262,41.1513,146.534,105.544,103.467,0.000705351,0.0466626,21.0306,177.835,0.172009,0.0,0.0
232,57.75,39.2116,41.1764,144.76,105.556,102.914,0.000690609,0.0466293,21.0306,177.855,0.21927,0.0,0.0
234,58.25,39.3709,41.101,145.163,105.548,103.001,0.000689516,0.0465753,21.0306,177.835,0.211383,0.0,0.0
236,58.75,39.2472,41.1707,143.942,105.563,103.109,0.00068863,0.0465315,21.0306,177.845,0.203472,0.0,0.0
238,59.25,39.9125,41.3146,144.086,105.567,103.375,0.000701176,0.046496,21.0306,177.845,0.181558,0.0,0.0
240,59.75,40.1388,41.5928,142.113,105.569,103.102,0.000711338,0.0464808,21.0306,177.835,0.204585,0.0,0.0
242,60.25,39.1365,40.9572,150.31,105.572,102.83,0.000719569,0.0464685,21.0306,177.815,0.227594,0.0,0.0
244,60.75,39.7421,41.1322,148.668,105.592,102.911,0.000726236,0.0464585,21.0307,177.815,0.2225,0.0,0.0
246,61.25,39.5421,41.5264,145.982,105.613,103.096,0.000731637,0.0464505,21.0308,177.805,0.208651,0.0,0.0
248,61.75,40.2614,42.1048,142.701,105.606,102.982,0.000728396,0.0464368,21.0309,177.825,0.217662,0.0,0.0
250,62.25,39.8229,41.1002,145.462,105.61,103.238,0.000718918,0.0464193,21.031,177.815,0.196466,0.0,0.0
252,62.75,39.6547,41.7191,142.181,105.621,102.776,0.0007068,0.0464052,21.031,177.815,0.236216,0.0,0.0
254,63.25,39.6313,41.0234,144.67,105.625,103.233,0.000692988,0.0463723,21.0311,177.825,0.198162,0.0,0.0
256,63.75,39.7647,41.5092,144.724,105.647,102.873,0.000681801,0.0463265,21.0311,177.815,0.230134,0.0,0.0
258,64.25,39.8843,41.4472,148.2,105.658,103.56,0.000664303,0.0462965,21.0312,177.805,0.173489,0.0,0.0
260,64.75,39.6831,41.1659,142.265,105.657,103.532,0.00065013,0.0462786,21.0312,177.825,0.175705,0.0,0.0
262,65.25,39.7251,41.3611,145.504,105.664,103.099,0.000638016,0.0462712,21.0312,177.845,0.21261,0.0,0.0
264,65.75,38.8959,41.5225,146.867,105.662,103.257,0.000627632,0.0462717,21.0312,177.835,0.199175,0.0,0.0
266,66.25,38.7521,40.9178,142.887,105.672,102.928,0.000625565,0.046272,21.0312,177.845,0.227577,0.0,0.0
268,66.75,39.2839,41.6524,143.129,105.683,103.28,0.000627687,0.0462994,21.0312,177.815,0.198923,0.0,0.0
270,67.25,39.3999,41.1792,143.474,105.687,103.525,0.000631318,0.0463216,21.0313,177.815,0.178751,0.0,0.0
272,67.75,39.7886,41.606,142.279,105.686,103.431,0.000645107,0.0463324,21.0313,177.805,0.186587,0.0,0.0
274,68.25,39.3751,41.7554,145.789,105.705,103.068,0.000656276,0.0463347,21.0313,177.785,0.21856,0.0,0.0
276,68.75,39.2917,41.8194,146.604,105.716,103.334,0.00066913,0.0463367,21.0313,177.785,0.19713,0.0,0.0
278,69.25,39.3449,41.45,141.72,105.714,103.244,0.000682969,0.0462976,21.0313,177.794,0.204529,0.0,0.0
280,69.75,39.2329,41.5212,147.569,105.723,103.316,0.000703826,0.0462809,21.0313,177.815,0.199208,0.0,0.0
282,70.25,39.0888,41.3209,141.439,105.748,103.323,0.00072072,0.0462795,21.0313,177.825,0.200738,0.0,0.0
284,70.75,39.4031,41.7075,144.15,105.732,103.377,0.000734405,0.0462784,21.0313,177.825,0.194897,0.0,0.0
286,71.25,39.7263,41.1317,146.024,105.757,103.101,0.00075514,0.0462917,21.0313,177.825,0.220056,0.0,0.0
288,71.75,39.1003,41.5109,146.992,105.756,103.391,0.000771935,0.0463153,21.0313,177.835,0.195669,0.0,0.0
290,72.25,39.4154,41.2616,142.803,105.766,103.202,0.000784333,0.0463131,21.0313,177.805,0.21232,0.0,0.0
292,72.75,39.3415,41.0197,145.689,105.774,103.065,0.000794375,0.046292,21.0313,177.805,0.224429,0.0,0.0
294,73.25,39.5772,41.3755,147.848,105.774,103.238,0.000794891,0.046275,21.0313,177.805,0.209958,0.0,0.0
296,73.75,39.1754,41.3686,145.544,105.779,103.132,0.000788453,0.0462612,21.0313,177.805,0.219213,0.0,0.0
298,74.25,39.3814,41.3079,143.156,105.804,103.363,0.000776257,0.04625,21.0313,177.805,0.201935,0.0,0.0
300,74.75,38.9533,41.4846,144.375,105.794,103.639,0.000760097,0.0462694,21.0313,177.805,0.178066,0.0,0.0
302,75.25,39.4087,41.2638,144.493,105.801,103.319,0.000742566,0.0463108,21.0313,177.785,0.205416,0.0,0.0
304,75.75,39.3647,41.321,146.232,105.813,103.378,0.000724369,0.0463087,21.0313,177.774,0.201393,0.0,0.0
306,76.25,39.7985,40.7321,140.878,105.823,103.173,0.00070963,0.046275,21.0313,177.785,0.219375,0.0,0.0
308,76.75,38.7894,41.3582,148.41,105.828,103.264,0.000679616,0.0462619,21.0313,177.774,0.21214,0.0,0.0
310,77.25,39.9025,41.1038,142.049,105.833,103.212,0.000655306,0.0462641,21.0313,177.774,0.216915,0.0,0.0
312,77.75,39.4322,41.1147,145.208,105.83,103.351,0.000628007,0.0462659,21.0313,177.785,0.205058,0.0,0.0
314,78.25,39.2093,41.0469,142.581,105.847,103.611,0.000599049,0.0462809,21.0313,177.794,0.18468,0.0,0.0
316,78.75,39.2456,41.0831,146.124,105.858,103.141,0.000575593,0.0463215,21.0313,177.794,0.224982,0.0,0.0
318,79.25,39.0026,40.7586,143.564,105.876,103.373,0.000559003,0.0463801,21.0313,177.794,0.206953,0.0,0.0
320,79.75,38.8733,41.1399,147.204,105.864,103.29,0.000545564,0.0464276,21.0313,177.815,0.212884,0.0,0.0
322,80.25,39.0616,41.1643,146.114,105.875,103.327,0.000544272,0.0464731,21.0313,177.774,0.210726,0.0,0.0
324,80.75,39.1738,40.8894,142.572,105.883,103.116,0.000542063,0.0465165,21.0313,177.774,0.229082,0.0,0.0
326,81.25,39.4395,40.9256,149.146,105.888,103.205,0.000544712,0.0465516,21.0313,177.774,0.222002,0.0,0.0
328,81.75,39.0159,41.4667,144.716,105.892,103.258,0.000550851,0.0466206,21.0313,177.764,0.217849,0.0,0.0
330,82.25,38.867,41.1366,144.326,105.926,103.565,0.000556458,0.0466765,21.0313,177.774,0.194943,0.0,0.0
332,82.75,38.6679,40.6596,146.549,105.904,103.5,0.000561571,0.0467218,21.0313,177.805,0.198612,0.0,0.0
334,83.25,39.1202,41.2064,141.929,105.911,103.372,0.000565712,0.0467412,21.0313,177.774,0.20992,0.0,0.0
336,83.75,39.059,41.0932,141.504,105.91,103.158,0.000569066,0.0467956,21.0313,177.785,0.227761,0.0,0.0
338,84.25,39.3827,40.6397,144.952,105.939,103.268,0.000562146,0.0468589,21.0311,177.764,0.220902,0.0,0.0
340,84.75,39.0597,40.6684,144.112,105.923,103.229,0.000556541,0.0469173,21.0307,177.764,0.222902,0.0,0.0
342,85.25,39.3874,40.7839,143.893,105.946,103.368,0.000552001,0.046971,21.0303,177.754,0.213109,0.0,0.0
344,85.75,38.6809,40.2941,141.846,105.939,103.372,0.000539893,0.0470146,21.0301,177.794,0.212202,0.0,0.0
346,86.25,39.2097,40.7809,145.864,105.967,103.179,0.000530085,0.0470498,21.0299,177.785,0.230683,0.0,0.0
348,86.75,39.4557,40.8197,143.998,105.947,103.4,0.000526958,0.0470713,21.0297,177.774,0.210506,0.0,0.0
350,87.25,39.4951,41.2549,148.452,105.969,103.742,0.000524426,0.0470822,21.0296,177.774,0.183745,0.0,0.0
352,87.75,39.0765,41.0349,143.461,105.951,103.454,0.000519839,0.0470982,21.0295,177.754,0.206318,0.0,0.0
354,88.25,38.8877,40.1716,148.211,105.978,103.183,0.000513842,0.0471176,21.0294,177.754,0.231212,0.0,0.0
356,88.75,38.6876,40.8246,141.51,105.959,103.551,0.000502647,0.0471332,21.0293,177.764,0.198889,0.0,0.0
358,89.25,39.2116,41.387,145.594,106,103.699,0.000487876,0.0472001,21.0292,177.774,0.189836,0.0,0.0
360,89.75,39.783,40.8714,144.171,105.967,103.931,0.000469576,0.0472543,21.0292,177.754,0.16788,0.0,0.0
362,90.25,38.7098,40.5942,145.93,105.983,103.724,0.000449052,0.0473053,21.0292,177.744,0.186381,0.0,0.0
364,90.75,39.0877,41.0013,146.241,105.976,103.404,0.000432428,0.0473531,21.0291,177.744,0.212584,0.0,0.0
366,91.25,39.2043,40.9198,146.766,105.998,103.723,0.000418962,0.0473989,21.0291,177.774,0.187719,0.0,0.0
368,91.75,38.9687,41.6845,147.111,105.997,103.46,0.000408055,0.0474424,21.0291,177.764,0.209572,0.0,0.0
370,92.25,38.7377,40.9222,144.741,106.004,103.324,0.000410053,0.0474705,21.0288,177.754,0.221468,0.0,0.0
372,92.75,38.6815,40.1488,144.518,106.001,103.179,0.00041167,0.0474868,21.0284,177.744,0.233454,0.0,0.0
374,93.25,38.8962,41.032,146.439,106.004,103.635,0.000413615,0.0475215,21.0281,177.744,0.195563,0.0,0.0
376,93.75,39.1771,41.4388,145.008,106.013,103.537,0.00041576,0.0475688,21.0283,177.754,0.204438,0.0,0.0
378,94.25,38.8641,41.0577,144.528,106.023,103.648,0.000413696,0.0476071,21.0284,177.734,0.195951,0.0,0.0
380,94.75,38.8786,40.9206,148.058,106.023,103.486,0.000408604,0.0476923,21.0281,177.734,0.209512,0.0,0.0
382,95.25,38.8855,40.8709,144.771,106.019,103.555,0.000401945,0.0477614,21.0278,177.724,0.203422,0.0,0.0
384,95.75,39.2237,40.9735,144.295,106.02,103.739,0.000394271,0.0478173,21.028,177.734,0.18816,0.0,0.0
386,96.25,39.2009,40.486,145.357,106.024,103.564,0.000389956,0.0478626,21.0282,177.724,0.203064,0.0,0.0
388,96.75,38.7003,40.4444,142.757,106.017,103.496,0.00038817,0.0478993,21.0279,177.724,0.208128,0.0,0.0
390,97.25,39.1737,40.8194,146.846,106.033,103.407,0.000386724,0.0479426,21.0277,177.724,0.216982,0.0,0.0
392,97.75,38.9157,40.8282,146.397,106.04,103.475,0.000401202,0.0479705,21.0275,177.734,0.211842,0.0,0.0
394,98.25,39.3439,40.8987,144.303,106.035,103.534,0.000412929,0.0479867,21.0273,177.744,0.20646,0.0,0.0
396,98.75,39.0371,40.8899,145.904,106.043,103.736,0.000422427,0.0479998,21.0272,177.764,0.190213,0.0,0.0
398,99.25,39.1091,40.5079,145.929,106.049,103.767,0.000465057,0.0479698,21.0271,177.744,0.188153,0.0,0.0
400,99.75,38.9045,40.5417,145.646,106.047,103.432,0.000499587,0.0479454,21.027,177.744,0.215975,0.0,0.0
402,100.25,39.1479,41.2847,142.987,106.056,103.756,0.000552874,0.0479122,21.027,177.734,0.189639,0.0,0.0
404,100.75,38.8651,40.8671,145.059,106.05,103.975,0.000596037,0.0478853,21.0269,177.734,0.170919,0.0,0.0
406,101.25,38.9566,41.3051,144.099,106.058,103.725,0.000639888,0.0478635,21.0269,177.714,0.192405,0.0,0.0
408,101.75,39.4107,41.1454,144.723,106.062,103.593,0.000683408,0.0478864,21.0268,177.754,0.203755,0.0,0.0
410,102.25,39.1825,41.0827,145.676,106.075,103.535,0.000721834,0.0479051,21.0268,177.734,0.209649,0.0,0.0
412,102.75,38.7897,40.4687,141.348,106.072,103.717,0.000755817,0.0479201,21.0268,177.764,0.194298,0.0,0.0
414,103.25,39.3809,40.5814,146.708,106.083,103.729,0.000790967,0.0479323,21.0268,177.754,0.19417,0.0,0.0
416,103.75,38.8224,40.7872,143.269,106.106,103.684,0.000841364,0.047928,21.0267,177.744,0.199708,0.0,0.0
418,104.25,38.9844,40.9444,143.351,106.084,103.365,0.000868223,0.0479116,21.0267,177.734,0.22462,0.0,0.0
420,104.75,39.1497,40.9042,142.851,106.095,103.455,0.000914153,0.0478912,21.0267,177.734,0.217967,0.0,0.0
422,105.25,39.3207,40.8189,141.507,106.085,103.371,0.000951356,0.0478683,21.0267,177.694,0.224216,0.0,0.0
424,105.75,39.4006,40.6397,144.738,106.098,103.363,0.000991032,0.0478568,21.0267,177.684,0.225894,0.0,0.0
426,106.25,39.2772,40.8008,142.731,106.097,103.777,0.00103176,0.047854,21.0267,177.694,0.191198,0.0,0.0
428,106.75,39.3278,40.6608,143.118,106.094,103.716,0.00106474,0.0478297,21.0269,177.714,0.196056,0.0,0.0
430,107.25,38.4881,40.8896,143.754,106.113,103.624,0.00108192,0.0478099,21.027,177.724,0.205332,0.0,0.0
432,107.75,39.4949,40.7905,145.036,106.108,103.801,0.00108725,0.047776,21.0277,177.704,0.190099,0.0,0.0
434,108.25,39.0227,40.9961,141.28,106.103,103.511,0.00109156,0.0477215,21.0282,177.734,0.214016,0.0,0.0
436,108.75,39.0789,40.4896,142.631,106.116,103.667,0.00107211,0.0476773,21.0287,177.714,0.201943,0.0,0.0
438,109.25,39.2209,40.6507,146.429,106.127,103.788,0.00105635,0.0476416,21.029,177.714,0.192838,0.0,0.0
440,109.75,38.9269,40.8766,142.706,106.115,104.307,0.00103635,0.047634,21.0293,177.714,0.148635,0.0,0.0
442,110.25,39.2351,41.0772,144.887,106.132,103.782,0.00102014,0.0476471,21.0296,177.734,0.193687,0.0,0.0
444,110.75,39.1827,40.0021,145.616,106.131,103.768,0.00100219,0.0476577,21.0298,177.724,0.194742,0.0,0.0
446,111.25,39.2735,41.2018,144.917,106.141,103.577,0.000987643,0.0477205,21.0299,177.734,0.211526,0.0,0.0
448,111.75,39.126,40.9964,144.449,106.143,103.958,0.000978276,0.0477714,21.0301,177.704,0.179922,0.0,0.0
450,112.25,39.6422,40.5134,145.48,106.138,103.647,0.000970689,0.0478261,21.0302,177.704,0.205473,0.0,0.0
452,112.75,38.5883,40.8779,149.626,106.147,103.637,0.000964544,0.0478705,21.0302,177.694,0.207019,0.0,0.0
454,113.25,39.0749,41.133,143.875,106.146,104.037,0.000983717,0.0478928,21.0299,177.674,0.17361,0.0,0.0
456,113.75,39.6923,40.6974,146.54,106.166,103.596,0.000999247,0.047911,21.0296,177.684,0.212007,0.0,0.0
458,114.25,39.0745,40.8454,143.489,106.161,103.809,0.00101433,0.0479256,21.0293,177.694,0.193864,0.0,0.0
460,114.75,39.1736,40.657,141.963,106.186,103.868,0.00102655,0.0479375,21.0291,177.694,0.190991,0.0,0.0
462,115.25,38.7743,40.7212,143.487,106.183,104.001,0.00102373,0.0479543,21.0289,177.684,0.179629,0.0,0.0
464,115.75,39.1916,41.178,143.761,106.186,103.703,0.00101001,0.0479743,21.0286,177.694,0.204644,0.0,0.0
466,116.25,38.386,41.0495,143.399,106.181,103.416,0.000986828,0.0479905,21.0284,177.684,0.228234,0.0,0.0
468,116.75,39.1796,40.5872,146.443,106.191,103.255,0.00095719,0.0480443,21.0282,177.704,0.24259,0.0,0.0
470,117.25,38.9413,41.1052,143.546,106.201,103.436,0.000919853,0.0480878,21.0281,177.694,0.228143,0.0,0.0
472,117.75,38.7834,40.5905,145.797,106.22,104.129,0.000877615,0.0481584,21.0279,177.704,0.171969,0.0,0.0
474,118.25,39.6307,40.996,144.725,106.195,103.987,0.000837058,0.0482473,21.0278,177.694,0.181733,0.0,0.0
476,118.75,39.0476,40.7143,141.762,106.214,103.653,0.000798497,0.0483264,21.0278,177.674,0.211136,0.0,0.0
478,119.25,39.2076,41.1167,143.305,106.195,103.715,0.000767263,0.0483969,21.0277,177.674,0.204448,0.0,0.0
480,119.75,39.1051,40.7792,146.064,106.216,103.747,0.000747038,0.0484612,21.0276,177.674,0.203458,0.0,0.0
482,120.25,38.7378,40.5583,142.305,106.217,103.73,0.000735223,0.0485196,21.0276,177.654,0.204956,0.0,0.0
484,120.75,38.8214,40.7802,147.216,106.231,103.743,0.000737712,0.0485527,21.0276,177.664,0.205032,0.0,0.0
486,121.25,38.9895,40.43,141.364,106.239,103.838,0.000750581,0.0485667,21.0275,177.664,0.197704,0.0,0.0
488,121.75,39.5276,40.7755,142.773,106.231,103.617,0.000761004,0.048578,21.0275,177.674,0.215483,0.0,0.0
490,122.25,38.755,40.4261,139.235,106.225,103.653,0.000777514,0.0485943,21.0275,177.674,0.212008,0.0,0.0
492,122.75,39.309,40.1728,142.74,106.24,103.966,0.000805746,0.0486139,21.0275,177.674,0.18719,0.0,0.0
494,123.25,39.3355,40.8337,144.663,106.226,104.068,,0.0486298,,177.674,0.177581,0.0,0.0
496,123.75,39.0069,40.8196,142.524,106.245,103.74,,0.048602,,177.674,0.20639,0.0,0.0
498,124.25,39.4792,40.8418,143.045,106.24,103.521,,0.0485795,,177.674,0.224311,0.0,0.0
500,124.75,38.8135,41.2128,144.667,106.254,103.704,,0.0485206,,177.674,0.210065,0.0,0.0
502,125.25,39.1959,41.0694,142.352,106.245,103.858,,0.0484955,,177.684,0.196495,0.0,0.0
504,125.75,39.4791,40.6036,143.337,106.245,103.861,,0.048474,,177.664,0.196334,0.0,0.0
506,126.25,38.7873,40.7788,143.871,106.243,103.75,,,,177.644,0.205434,0.0,0.0
508,126.75,39.7374,41.1265,144.96,106.261,103.682,,,,177.674,0.212552,0.0,0.0
510,127.25,39.2078,41.242,142.934,106.24,104.269,,,,177.654,0.161952,0.0,0.0
512,127.75,39.1206,40.6429,147.565,106.265,103.709,,,,177.664,0.210624,0.0,0.0
514,128.25,39.4944,41.3361,147.752,106.274,103.531,,,,177.654,0.226191,0.0,0.0
516,128.75,39.1767,40.7243,143.055,106.262,104.195,,,,177.644,0.169937,0.0,0.0
518,129.25,38.7796,40.615,147.597,106.262,103.646,,,,177.644,0.215641,0.0,0.0
520,129.75,39.1873,41.0324,146.492,106.281,103.947,,,,177.654,0.192062,0.0,0.0
522,130.25,38.8922,41.089,139.42,106.266,103.739,,,,177.644,0.208253,0.0,0.0
524,130.75,39.3236,40.871,143.248,106.282,103.847,,,,177.644,0.200473,0.0,0.0
526,131.25,38.8449,40.638,146.275,106.284,104.18,,,,177.654,0.172989,0.0,0.0
528,131.75,39.0004,40.512,144.464,106.278,103.79,,,,177.644,0.204907,0.0,0.0
530,132.25,39.0413,41.0861,146.164,106.287,103.955,,,,177.644,0.191858,0.0,0.0
532,132.75,39.1801,40.8318,146.015,106.292,103.775,,,,177.614,0.207342,0.0,0.0
534,133.25,39.9079,41.2983,143.722,106.273,104.079,,,,177.614,0.180512,0.0,0.0
536,133.75,39.3495,40.7747,143.983,106.285,103.982,,,,177.624,0.189518,0.0,0.0