File: 01_Data/Cotton_Sheets/Cone/Cotton_Sheet_Cone_HF25Scan_220429_R2.csv
Names,Time,Stack TC,Smoke TC,Exh Press,Smoke Comp,Smoke Meas,CO Meter,CO2 Meter,O2 Meter,Sample Mass,Ext Coeff,Start Test,Flame Verif
Chan Gain,,500,500,1,1,1,1,1,1,1,1,1.0,1.0
Offset,,0,0,0.138979,0,0,0,0,0,0,0,0.0,0.0
Gain,,1,1,25.011,14.099,15.1965,1,1,1,1.00087,0.986176,1.0,1.0
Units,sec,C,C,Pa,%,%,%,%,%,g,/m,,
Baseline,,18.4103,18.9511,157.204,105.214,101.25,0.00087714,0.054708,21.0145,-833.86,0.332198,,
2,0.25,16.8919,17.3559,155.279,105.521,101.586,0.000772633,0.0582588,21.0088,190.375,0.328781,0.0,0.0
4,0.75,16.4146,17.1083,156.156,105.513,101.704,0.000788782,0.0581775,21.0091,190.385,0.318085,0.0,0.0
6,1.25,16.7922,17.5133,155.439,105.513,101.522,0.000801862,0.0581117,21.0093,190.385,0.333567,0.0,0.0
8,1.75,17.5977,17.546,155.339,105.513,101.581,0.000820904,0.0579904,21.0094,190.395,0.328506,0.0,0.0
10,2.25,17.1257,17.1698,156.882,105.519,101.437,0.000836327,0.0578921,21.0096,190.385,0.341295,0.0,0.0
12,2.75,17.2588,17.3866,159.186,105.52,101.433,0.000843993,0.0577338,21.0097,190.395,0.341677,0.0,0.0
14,3.25,16.9149,17.5279,158.85,105.524,101.3,0.000850203,0.0575348,21.0098,190.385,0.353389,0.0,0.0
16,3.75,17.1748,17.295,151.051,105.536,101.303,0.000846979,0.0573735,21.0096,190.385,0.354143,0.0,0.0
18,4.25,16.9687,17.323,155.856,105.53,101.189,0.000836939,0.0571206,21.0093,190.375,0.363359,0.0,0.0
20,4.75,17.1858,17.4154,157.789,105.533,101.165,0.000818652,0.0569157,21.009,190.375,0.365628,0.0,0.0
22,5.25,16.8295,17.8332,152.274,105.535,101.248,0.000794702,0.0566819,21.0088,190.355,0.358747,0.0,0.0
24,5.75,16.7315,17.7566,154.514,105.534,101.306,0.000773399,0.0564924,21.0086,190.375,0.35365,0.0,0.0
26,6.25,17.3394,17.8138,159.55,105.534,101.228,0.00075443,0.0562746,21.0085,190.365,0.360421,0.0,0.0
28,6.75,16.9959,18.0572,156.78,105.532,101.103,0.000739066,0.0560403,21.0083,190.365,0.370876,0.0,0.0
30,7.25,17.0563,17.3575,156.194,105.545,101.177,0.000741852,0.0558433,21.0082,190.365,0.365619,0.0,0.0
32,7.75,16.9075,17.931,158.601,105.541,100.883,0.000757817,0.0556774,21.0077,190.355,0.390486,0.0,0.0
34,8.25,17.3061,17.2742,153.606,105.546,100.63,0.000770749,0.0562445,21.0073,190.355,0.412569,0.0,0.0
36,8.75,16.9662,17.1609,156.023,105.542,100.351,0.000848666,0.0573353,21.0065,190.345,0.436281,0.0,0.0
38,9.25,17.4033,17.455,160.853,105.549,99.6786,0.000911779,0.0582188,21.0053,190.295,0.495049,0.0,0.0
40,9.75,16.9828,17.2825,159.544,105.537,99.4847,0.0010137,0.0679342,20.9997,190.295,0.510901,0.0,0.0
42,10.25,16.8572,18.1861,156.109,105.542,101.197,0.00109625,0.0758037,20.9911,190.245,0.363667,0.0,0.0
44,10.75,16.6431,17.9495,155.223,105.553,103.858,0.00118351,0.082178,20.9841,189.985,0.140013,0.0,1.0
46,11.25,17.3944,17.3245,146.424,105.547,104.07,0.00127255,0.111318,20.9526,190.095,0.121922,0.0,1.0
48,11.75,17.4567,17.5525,146.536,105.535,104.148,0.00136126,0.134922,20.9271,190.195,0.114387,0.0,1.0
50,12.25,17.3689,17.9298,142.019,105.539,104.357,0.00144804,0.166994,20.8893,190.075,0.097461,0.0,1.0
52,12.75,17.5513,18.1775,134.902,105.537,105.372,0.00152919,0.192973,20.8587,189.935,0.0135008,0.0,1.0
54,13.25,18.2659,18.2325,135.101,105.555,106.002,0.00160468,0.218401,20.827,189.935,-0.0366059,0.0,1.0
56,13.75,18.2717,18.9279,132.94,105.536,106.223,0.00166584,0.242946,20.8012,189.815,-0.056116,0.0,1.0
58,14.25,18.9143,19.1269,141.845,105.535,105.423,0.00173326,0.264261,20.7804,189.825,0.00921025,0.0,1.0
60,14.75,19.4553,19.5054,134.223,105.53,104.343,0.00180397,0.282817,20.7635,189.695,0.0978352,0.0,1.0
62,15.25,19.5157,19.6964,136.331,105.53,105.017,0.00189003,0.297848,20.7498,189.725,0.0421491,0.0,1.0
64,15.75,19.5893,19.7789,141.318,105.533,104.975,0.00198565,0.306073,20.7387,189.595,0.0458355,0.0,0.0
66,16.25,20.1934,19.5897,140.58,105.528,104.024,0.0020631,0.312735,20.7298,189.615,0.124187,0.0,0.0
68,16.75,20.3064,20.0714,144.002,105.52,103.956,0.00223058,0.308574,20.7326,189.555,0.129224,0.0,0.0
70,17.25,20.6225,21.0637,146.176,105.525,103.381,0.00236624,0.305204,20.7348,189.585,0.177598,0.0,0.0
72,17.75,21.0938,21.0483,147.575,105.517,102.381,0.00262033,0.295885,20.7367,189.545,0.260999,0.0,0.0
74,18.25,21.3847,21.5787,151.905,105.513,102.416,0.00282615,0.282406,20.7455,189.555,0.257672,0.0,0.0
76,18.75,21.8203,21.8158,156.587,105.512,102.014,0.00299286,0.271488,20.7594,189.525,0.291665,0.0,0.0
78,19.25,22.3261,22.0142,156.593,105.508,101.89,0.00323582,0.25372,20.7705,189.535,0.301859,0.0,0.0
80,19.75,22.3939,22.0942,153.785,105.508,101.77,0.00352975,0.239328,20.7902,189.525,0.312023,0.0,0.0
82,20.25,22.5979,22.1786,152.211,105.5,101.977,0.00382234,0.221106,20.8062,189.525,0.293785,0.0,0.0
84,20.75,21.7177,22.2674,153.711,105.5,101.665,0.0041084,0.206345,20.8261,189.525,0.320306,0.0,0.0
86,21.25,22.1979,22.1964,155.94,105.492,101.667,0.00434011,0.194389,20.8423,189.515,0.319473,0.0,0.0
88,21.75,22.2242,22.4588,151.738,105.486,101.667,0.00459027,0.180985,20.8554,189.525,0.318983,0.0,0.0
90,22.25,22.3015,22.2864,158.546,105.474,101.526,0.00484913,0.166779,20.8725,189.515,0.33,0.0,0.0
92,22.75,22.251,22.2783,158.56,105.48,101.555,0.00509927,0.155272,20.8864,189.515,0.327966,0.0,0.0
94,23.25,22.0651,22.4981,155.613,105.464,101.473,0.00533829,0.143182,20.9025,189.515,0.333726,0.0,0.0
96,23.75,21.9673,22.6107,154.627,105.472,101.478,0.00556131,0.13339,20.9155,189.515,0.33393,0.0,0.0
98,24.25,21.5816,22.5764,154.929,105.458,101.53,0.00576843,0.123874,20.9278,189.505,0.328409,0.0,0.0
100,24.75,21.8883,22.2335,153.867,105.477,101.487,0.00595256,0.116167,20.9378,189.505,0.333528,0.0,0.0
102,25.25,21.8946,22.3806,158.269,105.455,101.548,0.00603881,0.109389,20.9427,189.505,0.326586,0.0,0.0
104,25.75,21.7468,22.401,160.904,105.47,101.503,0.00618564,0.103418,20.9512,189.515,0.331658,0.0,0.0
106,26.25,21.4304,22.1876,157.367,105.443,101.449,0.00630398,0.0982999,20.9589,189.505,0.334021,0.0,0.0
108,26.75,21.9072,22.1752,156.191,105.458,101.47,0.00638478,0.0939011,20.9651,189.505,0.333473,0.0,0.0
110,27.25,22.6189,21.7377,153.719,105.434,101.584,0.00643669,0.0903381,20.9711,189.495,0.32185,0.0,0.0
112,27.75,21.5575,22.3314,156.121,105.443,101.544,0.00647873,0.0870415,20.9759,189.495,0.325989,0.0,0.0
114,28.25,21.7108,21.4321,155.932,105.427,101.522,0.0064677,0.085636,20.9798,189.495,0.326465,0.0,0.0
116,28.75,21.3622,21.8197,158.452,105.434,101.625,0.00641819,0.0828498,20.9829,189.495,0.3183,0.0,0.0
118,29.25,21.2274,22.2634,154.517,105.42,101.521,0.00637808,0.0803771,20.9855,189.505,0.326058,0.0,0.0
120,29.75,20.4076,21.5682,156.821,105.437,101.624,0.00624651,0.0781801,20.988,189.505,0.318626,0.0,0.0
122,30.25,20.7402,21.543,152.999,105.427,101.517,0.00613995,0.0764005,20.9905,189.495,0.326904,0.0,0.0
124,30.75,21.0469,21.1711,159.884,105.43,101.494,0.00595604,0.0746716,20.9929,189.495,0.329198,0.0,0.0
126,31.25,20.9089,21.38,161.676,105.417,101.482,0.00580707,0.0730126,20.9953,189.485,0.329091,0.0,0.0
128,31.75,20.579,21.3744,158.054,105.417,101.554,0.00558293,0.0716688,20.9975,189.495,0.32297,0.0,0.0
130,32.25,21.1836,21.2063,157.884,105.418,101.498,0.00540137,0.0700076,20.9995,189.495,0.327853,0.0,0.0
132,32.75,20.3345,20.9922,157.691,105.426,101.458,0.00513761,0.0686621,21.0015,189.485,0.331893,0.0,0.0
134,33.25,20.4579,20.9746,157.587,105.407,101.408,0.00492397,0.0670955,21.0036,189.485,0.334572,0.0,0.0
136,33.75,20.5012,20.9755,158.721,105.413,101.492,0.00463336,0.0658266,21.0053,189.485,0.327868,0.0,0.0
138,34.25,20.337,21.4643,158.752,105.401,101.451,0.00439797,0.0644178,21.0076,189.495,0.330433,0.0,0.0
140,34.75,20.2361,21.1726,156.302,105.413,101.577,0.00420731,0.0632766,21.0094,189.505,0.320638,0.0,0.0
142,35.25,19.8454,20.3321,153.937,105.406,101.554,0.00390524,0.0621075,21.0108,189.515,0.321972,0.0,0.0
144,35.75,20.1878,21.4636,157.818,105.403,101.437,0.00366056,0.0611606,21.012,189.515,0.331796,0.0,0.0
146,36.25,19.99,21.1948,158.335,105.387,101.475,0.00338938,0.0603005,21.013,189.515,0.327248,0.0,0.0
148,36.75,20.2765,20.7479,158.222,105.405,101.699,0.00316972,0.0595202,21.0138,189.515,0.309622,0.0,0.0
150,37.25,20.5191,20.6449,156.178,105.387,101.508,0.00295666,0.0588881,21.0144,189.515,0.324481,0.0,0.0
152,37.75,20.2624,20.7535,157.142,105.392,101.392,0.00275244,0.0581859,21.0154,189.505,0.334755,0.0,0.0
154,38.25,20.1366,21.0596,157.818,105.393,101.489,0.00255896,0.0576171,21.0161,189.505,0.326561,0.0,0.0
156,38.75,20.5513,20.5998,163.061,105.392,101.485,0.00237697,0.0570849,21.0168,189.505,0.326806,0.0,0.0
158,39.25,20.0439,20.8624,157.422,105.378,101.398,0.00219644,0.0565894,21.0173,189.505,0.333001,0.0,0.0
160,39.75,20.3091,21.1653,156.493,105.378,101.437,0.0020204,0.0561595,21.0177,189.505,0.329749,0.0,0.0
162,40.25,20.5229,20.1014,154.82,105.376,101.477,0.00187781,0.0557856,21.018,189.515,0.326175,0.0,0.0
164,40.75,19.8074,20.5185,155.95,105.382,101.49,0.00170552,0.0554398,21.0183,189.505,0.325524,0.0,0.0
166,41.25,19.5422,20.535,155.655,105.365,101.394,0.00156597,0.0551211,21.0187,189.505,0.332297,0.0,0.0
168,41.75,19.3439,20.1717,155.551,105.367,101.444,0.00145293,0.0548202,21.0193,189.505,0.328242,0.0,0.0
170,42.25,19.7671,20.9419,156.928,105.359,101.418,0.00136137,0.0545378,21.0198,189.505,0.329856,0.0,0.0
172,42.75,19.3294,20.6532,159.628,105.36,101.485,0.00125101,0.054309,21.0202,189.515,0.324116,0.0,0.0
174,43.25,19.5419,20.7685,156.118,105.351,101.476,0.00116162,0.0540559,21.0206,189.505,0.32424,0.0,0.0
176,43.75,20.2264,21.2872,157.561,105.355,101.399,0.00108679,0.0538508,21.0209,189.495,0.331089,0.0,0.0
178,44.25,19.1569,20.2122,159.342,105.347,101.459,0.00102619,0.0536847,21.0212,189.485,0.325275,0.0,0.0
180,44.75,19.629,20.0853,156.484,105.359,101.452,0.000979511,0.0534859,21.0214,189.475,0.326893,0.0,0.0
182,45.25,19.9303,20.2699,158.593,105.356,101.485,0.000941702,0.053267,21.0216,189.475,0.323839,0.0,0.0
184,45.75,19.9217,20.1355,158.606,105.349,101.539,0.000921932,0.0530897,21.0218,189.485,0.318653,0.0,0.0
186,46.25,19.6981,20.3986,156.472,105.342,101.565,0.000905919,0.0529032,21.0219,189.485,0.315837,0.0,0.0
188,46.75,19.4962,20.4182,154.899,105.343,101.439,0.000907428,0.0527136,21.022,189.485,0.326658,0.0,0.0
190,47.25,19.5366,20.3495,153.626,105.331,101.468,0.00090865,0.05251,21.022,189.485,0.323252,0.0,0.0
192,47.75,19.2223,19.8125,157.449,105.332,101.422,0.000921711,0.0523002,21.0223,189.485,0.327199,0.0,0.0
194,48.25,18.6085,19.8326,156.674,105.32,101.425,0.00093229,0.0520873,21.0228,189.475,0.326007,0.0,0.0
196,48.75,19.0732,19.9982,157.254,105.324,101.39,0.00094086,0.0518764,21.0231,189.475,0.329332,0.0,0.0
198,49.25,19.3704,19.3901,159.202,105.312,101.507,0.000954792,0.051677,21.0234,189.465,0.318341,0.0,0.0
200,49.75,19.7174,20.2026,160.552,105.317,101.354,0.000972369,0.0514897,21.0237,189.475,0.331814,0.0,0.0
202,50.25,19.3682,19.8884,155.409,105.314,101.442,0.000986607,0.0513309,21.0239,189.475,0.324089,0.0,0.0
204,50.75,19.188,20.4421,154.795,105.32,101.426,0.000996932,0.0511959,21.0243,189.475,0.325888,0.0,0.0
206,51.25,19.6061,20.2855,159.738,105.306,101.323,0.00100529,0.0510722,21.0248,189.475,0.333512,0.0,0.0
208,51.75,19.2695,20.2038,157.053,105.322,101.38,0.0010012,0.0509592,21.0252,189.475,0.330026,0.0,0.0
210,52.25,18.3952,19.7999,155.705,105.307,101.402,0.000997885,0.0508677,21.0255,189.475,0.32689,0.0,0.0
212,52.75,18.6526,19.7599,156.702,105.328,101.369,0.000975886,0.0507579,21.0258,189.475,0.331356,0.0,0.0
214,53.25,19.0135,20.2301,159.72,105.306,101.579,0.000958067,0.0506368,21.026,189.485,0.311719,0.0,0.0
216,53.75,19.311,19.7448,155.833,105.319,101.376,0.000929156,0.0505387,21.0262,189.485,0.330059,0.0,0.0
218,54.25,19.3054,20.085,157.755,105.309,101.37,0.000905739,0.0504457,21.0264,189.485,0.329721,0.0,0.0
220,54.75,18.8143,20.0281,152.195,105.31,101.377,0.000881946,0.0503704,21.0262,189.485,0.32927,0.0,0.0
222,55.25,18.9592,19.7133,158.264,105.291,101.37,0.000862674,0.0502958,21.026,189.475,0.328347,0.0,0.0
224,55.75,19.1325,20.1064,154.654,105.298,101.376,0.000847064,0.0502354,21.0257,189.465,0.328328,0.0,0.0
226,56.25,18.9376,19.8676,155.102,105.305,101.354,0.000839244,0.0501729,21.0255,189.475,0.330825,0.0,0.0
228,56.75,19.1252,19.7169,154.893,105.293,101.395,0.00083291,0.0501223,21.0254,189.465,0.326276,0.0,0.0
230,57.25,18.9079,20.352,154.466,105.301,101.443,0.000835017,0.0500884,21.0252,189.455,0.322839,0.0,0.0
232,57.75,18.8564,19.8153,155.046,105.285,101.31,0.000836724,0.0500674,21.0251,189.455,0.332924,0.0,0.0
234,58.25,19.2414,20.0393,156.236,105.285,101.386,0.000842932,0.0500504,21.025,189.475,0.326507,0.0,0.0
236,58.75,18.5523,20.3577,161.652,105.282,101.369,0.000847961,0.0500909,21.025,189.475,0.327649,0.0,0.0
238,59.25,18.6481,20.0759,157.387,105.284,101.428,0.000853241,0.0501236,21.0249,189.485,0.322801,0.0,0.0
240,59.75,19.1372,19.2571,160.354,105.301,101.279,0.000857518,0.0501502,21.0249,189.485,0.336881,0.0,0.0
242,60.25,19.2479,19.5513,155.02,105.286,101.339,0.000858488,0.0501717,21.0248,189.465,0.330536,0.0,0.0
244,60.75,19.2189,19.8394,157.871,105.273,101.449,0.000857029,0.0501891,21.0248,189.475,0.320101,0.0,0.0
246,61.25,18.5712,19.6108,154.948,105.278,101.367,0.000855848,0.0502032,21.0248,189.495,0.327453,0.0,0.0
248,61.75,19.0295,19.8139,157.74,105.262,101.354,0.000842828,0.0502003,21.0247,189.485,0.327328,0.0,0.0
250,62.25,19.0353,19.052,155.106,105.276,101.367,0.000832282,0.0501852,21.0245,189.485,0.327276,0.0,0.0
252,62.75,18.7731,19.2876,153.04,105.261,101.454,0.00082374,0.0501729,21.0244,189.465,0.318712,0.0,0.0
254,63.25,18.9178,19.3503,156.505,105.27,101.364,0.000814409,0.0501622,21.0243,189.475,0.327129,0.0,0.0
256,63.75,19.1825,19.7196,158.778,105.262,101.303,0.00080685,0.0501536,21.0242,189.475,0.331609,0.0,0.0
258,64.25,18.6553,19.7373,158.298,105.261,101.272,0.000817616,0.050133,21.0241,189.485,0.334227,0.0,0.0
260,64.75,18.8385,19.8672,158.441,105.256,101.404,0.000826337,0.0501164,21.0241,189.475,0.322484,0.0,0.0
262,65.25,18.9303,19.2915,157.09,105.251,101.32,0.0008334,0.0500815,21.024,189.475,0.329294,0.0,0.0
264,65.75,18.6753,19.3082,163.944,105.241,101.507,0.000854368,0.0500339,21.024,189.475,0.312468,0.0,0.0
266,66.25,18.8125,19.0219,157.135,105.244,101.432,0.000885075,0.0499954,21.0244,189.475,0.31912,0.0,0.0
268,66.75,18.6258,18.9476,159.091,105.237,101.228,0.000909947,0.04995,21.0248,189.475,0.335975,0.0,0.0
270,67.25,18.692,19.4644,155.85,105.245,101.452,0.000930094,0.0499003,21.0251,189.465,0.31753,0.0,0.0
272,67.75,18.3095,19.6541,154.819,105.233,101.376,0.000937517,0.0498601,21.0253,189.455,0.323059,0.0,0.0
274,68.25,18.9579,19.3205,155.571,105.243,101.378,0.000935524,0.0498061,21.0255,189.475,0.323674,0.0,0.0
276,68.75,18.51,19.0913,160.334,105.234,101.322,0.000919939,0.0497431,21.0256,189.475,0.327725,0.0,0.0
278,69.25,18.5737,19.6011,154.043,105.242,101.287,0.000894742,0.0496921,21.0258,189.475,0.331403,0.0,0.0
280,69.75,18.9425,19.5494,156.066,105.214,101.339,0.000874333,0.049705,21.0259,189.465,0.324629,0.0,0.0
282,70.25,18.8944,19.1463,156.184,105.235,101.389,0.000845698,0.0497154,21.0259,189.465,0.322017,0.0,0.0
284,70.75,18.6668,18.7898,156.765,105.226,101.374,0.00081161,0.0497103,21.026,189.465,0.322581,0.0,0.0
286,71.25,18.5619,19.4285,157.006,105.228,101.302,0.000783999,0.0497205,21.0261,189.445,0.328969,0.0,0.0
288,71.75,18.487,19.1321,155.957,105.214,101.369,0.000764044,0.0497415,21.0262,189.435,0.322136,0.0,0.0
290,72.25,18.7774,18.9565,157.091,105.208,101.405,0.000747881,0.0497586,21.0264,189.415,0.318478,0.0,0.0
292,72.75,18.481,19.8042,160.939,105.191,101.426,0.000733584,0.0498266,21.0265,189.405,0.315279,0.0,0.0
294,73.25,18.6591,18.8823,154.633,105.214,101.292,0.000722004,0.0498817,21.0266,189.405,0.328558,0.0,0.0
296,73.75,18.8846,19.4521,154.175,105.196,101.286,0.000700572,0.0499264,21.0267,189.415,0.327662,0.0,0.0
298,74.25,18.3065,19.3796,157.57,105.209,101.291,0.000683212,0.0499768,21.0268,189.395,0.328324,0.0,0.0
300,74.75,17.5128,19.79,158.883,105.211,101.35,0.000657739,0.0500177,21.0269,189.385,0.323396,0.0,0.0
302,75.25,18.256,19.1061,155.495,105.214,101.292,0.000641473,0.0500865,21.0269,189.405,0.328629,0.0,0.0
304,75.75,18.613,18.7587,161.806,105.189,101.248,0.000604154,0.0501743,21.027,189.405,0.330304,0.0,0.0
306,76.25,17.779,18.8557,153.425,105.193,101.299,0.000565372,0.0502955,21.0265,189.405,0.326309,0.0,0.0
308,76.75,17.7003,19.0411,158.697,105.177,101.228,0.000533958,0.0504385,21.0262,189.395,0.331133,0.0,0.0
310,77.25,18.3609,19.0942,155.459,105.19,101.311,0.000496478,0.050583,21.026,189.375,0.325068,0.0,0.0
312,77.75,18.5053,18.6617,160.033,105.179,101.249,0.000466119,0.0507257,21.0257,189.395,0.329412,0.0,0.0
314,78.25,18.2939,19.7965,161.935,105.192,101.327,0.000452359,0.0508008,21.0256,189.405,0.323823,0.0,0.0
316,78.75,18.6428,19.3425,160.051,105.178,101.403,0.000441214,0.0509292,21.0254,189.425,0.316236,0.0,0.0
318,79.25,17.5566,18.8667,160.773,105.18,101.287,0.000449041,0.0510333,21.0251,189.435,0.326238,0.0,0.0
320,79.75,17.2499,18.1019,157.346,105.166,101.399,0.00045538,0.0511854,21.0246,189.395,0.3156,0.0,0.0
322,80.25,18.6083,18.7555,158.005,105.171,101.266,0.00046622,0.0513086,21.0242,189.405,0.327348,0.0,0.0
324,80.75,18.2995,18.9265,157.472,105.162,101.273,0.000480135,0.0514156,21.0239,189.415,0.32601,0.0,0.0
326,81.25,18.3138,18.9848,156.841,105.165,101.343,0.000493941,0.0515086,21.0236,189.395,0.320208,0.0,0.0
328,81.75,17.7303,18.7887,158.754,105.155,101.284,0.000507407,0.0516054,21.0234,189.415,0.324423,0.0,0.0
330,82.25,18.1774,18.9502,155.02,105.156,101.254,0.000518314,0.0517031,21.0233,189.415,0.327101,0.0,0.0
332,82.75,18.467,18.5824,156.144,105.15,101.345,0.000532222,0.0517965,21.0231,189.405,0.318847,0.0,0.0
334,83.25,18.0153,17.8695,157.069,105.158,101.261,0.000548054,0.051885,21.023,189.385,0.326652,0.0,0.0
336,83.75,17.6309,18.4645,155.583,105.151,101.331,0.000560877,0.0519567,21.0229,189.375,0.3201,0.0,0.0
338,84.25,17.9387,18.9135,156.027,105.153,101.236,0.000584521,0.0520148,21.0228,189.375,0.328363,0.0,0.0
340,84.75,17.933,19.0612,151.859,105.141,101.193,0.000603673,0.0520618,21.0228,189.415,0.331132,0.0,0.0
342,85.25,18.7297,18.9058,157.07,105.15,101.205,0.000634861,0.0521356,21.0225,189.405,0.330844,0.0,0.0
344,85.75,17.5495,18.8723,157.151,105.146,101.301,0.000660123,0.0522275,21.0221,189.415,0.322285,0.0,0.0
346,86.25,18.3628,18.9064,152.943,105.142,101.267,0.000690234,0.0523092,21.0217,189.415,0.324902,0.0,0.0
348,86.75,18.4029,19.0299,153.191,105.134,101.316,0.000714624,0.0523817,21.0214,189.385,0.320067,0.0,0.0
350,87.25,18.0169,18.4632,157.361,105.139,101.287,0.000738,0.0524404,21.0212,189.405,0.322872,0.0,0.0
352,87.75,17.1495,18.4875,151.473,105.132,101.298,0.000756934,0.0524737,21.021,189.405,0.321398,0.0,0.0
354,88.25,18.072,18.3621,158.739,105.134,101.259,0.000772271,0.0524879,21.0209,189.365,0.324903,0.0,0.0
356,88.75,18.41,18.0045,151.798,105.125,101.236,0.000777455,0.0524993,21.0207,189.385,0.326097,0.0,0.0
358,89.25,17.8661,19.2508,158.757,105.127,101.263,0.000781654,0.0525086,21.0205,189.415,0.32398,0.0,0.0
360,89.75,18.0579,18.7883,161.569,105.126,101.302,0.000779343,0.0525089,21.0204,189.455,0.320507,0.0,0.0
362,90.25,18.2221,18.6139,154.246,105.128,101.299,0.00077233,0.0525028,21.0202,189.395,0.321036,0.0,0.0
364,90.75,18.0387,18.2574,161.514,105.119,101.271,0.000766649,0.0524978,21.0201,189.425,0.322629,0.0,0.0
366,91.25,17.474,18.4037,157.554,105.117,101.243,0.000758874,0.0524938,21.0201,189.415,0.324833,0.0,0.0
368,91.75,18.0028,18.7408,155.568,105.119,101.459,0.000749721,0.0524905,21.02,189.415,0.306564,0.0,0.0
370,92.25,17.9687,19.0574,152.808,105.107,101.273,0.000742308,0.0524879,21.0199,189.425,0.321484,0.0,0.0
372,92.75,17.5419,18.7281,155.564,105.106,101.221,0.000744743,0.0524857,21.0199,189.375,0.325815,0.0,0.0
374,93.25,18.0139,18.629,156.248,105.112,101.295,0.000746715,0.052484,21.0199,189.385,0.320007,0.0,0.0
376,93.75,18.1068,18.286,158.242,105.106,101.181,0.000755549,0.0525098,21.0198,189.405,0.329296,0.0,0.0
378,94.25,17.9023,18.6297,155.208,105.106,101.248,0.000762704,0.0525306,21.0198,189.425,0.323508,0.0,0.0
380,94.75,17.8844,18.9247,156.491,105.11,101.306,0.000772119,0.0525475,21.0198,189.415,0.318875,0.0,0.0
382,95.25,17.8295,19.0048,158.164,105.105,101.249,0.000779744,0.0525612,21.0198,189.435,0.323327,0.0,0.0
384,95.75,17.7859,18.8945,158.833,105.109,101.26,0.000785921,0.0525722,21.0198,189.435,0.322735,0.0,0.0
386,96.25,17.7994,18.5117,156.781,105.127,101.187,0.000790925,0.0525405,21.0198,189.415,0.33044,0.0,0.0
388,96.75,17.9143,18.6676,154.233,105.153,101.369,0.000791359,0.0525148,21.0198,189.415,0.317072,0.0,0.0
390,97.25,17.6583,18.6532,153.959,105.165,101.308,0.00079171,0.0525083,21.0197,189.425,0.323213,0.0,0.0
392,97.75,18.3491,18.3339,157.003,105.188,101.402,0.000791995,0.0525158,21.0197,189.405,0.317128,0.0,0.0
394,98.25,17.4693,18.6405,157.634,105.195,101.406,0.000787401,0.0525355,21.0197,189.425,0.317339,0.0,0.0
396,98.75,17.8269,18.1596,157.998,105.217,101.356,0.000783681,0.0525515,21.0197,189.405,0.323457,0.0,0.0
398,99.25,17.8356,18.4674,157.045,105.238,101.259,0.000781873,0.0525508,21.0197,189.395,0.333427,0.0,0.0
400,99.75,17.9728,18.43,158.119,105.269,101.365,0.000780409,0.0525503,21.0197,189.415,0.326869,0.0,0.0
402,100.25,17.6299,18.2877,157.928,105.275,101.392,0.000770781,0.0525642,21.0197,189.425,0.325069,0.0,0.0
404,100.75,18.0382,18.6562,160.588,105.309,101.53,0.0007541,0.0525882,21.0197,189.415,0.316118,0.0,0.0
406,101.25,17.4568,18.5277,157.074,105.325,101.591,0.000732595,0.0526077,21.0197,189.415,0.312211,0.0,0.0
408,101.75,17.8267,18.3127,157.79,105.353,101.529,0.000715175,0.0526507,21.0197,189.445,0.319912,0.0,0.0
410,102.25,17.7072,18.2328,159.297,105.357,101.579,0.000688431,0.0526855,21.0197,189.455,0.315924,0.0,0.0
412,102.75,17.6351,18.7939,159.801,105.378,101.453,0.000655397,0.0526865,21.0197,189.445,0.328403,0.0,0.0
414,103.25,17.5217,17.7937,155.703,105.379,101.574,0.000629907,0.0526873,21.0197,189.475,0.318085,0.0,0.0
416,103.75,18.1258,18.5283,159.915,105.417,101.558,0.000610401,0.052688,21.0196,189.475,0.322576,0.0,0.0
418,104.25,17.8674,18.3671,155.748,105.432,101.607,0.000594601,0.0526886,21.0194,189.475,0.319699,0.0,0.0
420,104.75,17.8521,18.3563,157.746,105.444,101.586,0.000596388,0.0526958,21.0193,189.455,0.322469,0.0,0.0
422,105.25,17.5522,17.9123,161.787,105.447,101.555,0.000610964,0.0527077,21.0192,189.445,0.325323,0.0,0.0
424,105.75,17.6573,17.908,158.525,105.46,101.678,0.000631019,0.0527102,21.0192,189.455,0.31588,0.0,0.0
426,106.25,17.6173,18.5256,156.638,105.474,101.636,0.000654687,0.0527058,21.0191,189.445,0.320711,0.0,0.0
428,106.75,17.6006,18.4907,153.628,105.496,101.62,0.000676397,0.0527022,21.0191,189.445,0.323852,0.0,0.0
430,107.25,17.6932,18.3813,154.93,105.505,101.669,0.000696267,0.0526993,21.019,189.445,0.320409,0.0,0.0
432,107.75,17.82,18.2787,155.784,105.523,101.798,0.000710457,0.052697,21.019,189.435,0.310818,0.0,0.0
434,108.25,17.7472,17.9447,157.395,105.526,101.675,0.000720238,0.0526951,21.019,189.445,0.321594,0.0,0.0
436,108.75,17.7635,18.6231,156.296,105.544,101.738,0.000723718,0.0527071,21.019,189.435,0.317746,0.0,0.0
438,109.25,17.6824,18.2505,158.235,105.549,101.67,0.000722539,0.0527169,21.0189,189.455,0.323893,0.0,0.0
440,109.75,17.9567,18.6644,154.153,105.577,101.795,0.000717967,0.0527383,21.0189,189.445,0.315577,0.0,0.0
442,110.25,17.9496,18.1547,160.705,105.572,101.665,0.000714263,0.0527557,21.0189,189.445,0.326267,0.0,0.0
444,110.75,17.7342,18.3159,155.78,105.596,101.703,0.000711263,0.0527698,21.0189,189.445,0.324931,0.0,0.0
446,111.25,17.915,19.0082,155.709,105.605,101.781,0.000708833,0.0527884,21.0189,189.445,0.319046,0.0,0.0
448,111.75,18.0032,18.1247,155.958,105.619,101.82,0.00071575,0.0528098,21.0189,189.455,0.316904,0.0,0.0
450,112.25,17.8506,18.5477,156.256,105.629,101.804,0.000729349,0.05282,21.019,189.445,0.319127,0.0,0.0
452,112.75,17.3717,18.2285,153.892,105.632,101.793,0.000743492,0.0528219,21.0191,189.445,0.320242,0.0,0.0
454,113.25,18.2468,18.1891,156.975,105.634,101.867,0.000757764,0.0528234,21.0191,189.445,0.314083,0.0,0.0
456,113.75,17.483,18.1605,153.141,105.668,101.745,0.000769323,0.0528246,21.0192,189.445,0.327305,0.0,0.0
458,114.25,17.7765,18.0211,160.33,105.659,101.741,0.000771704,0.0528121,21.0192,189.445,0.326842,0.0,0.0
460,114.75,18.097,17.7096,159.347,105.685,101.644,0.000767348,0.0528019,21.0194,189.455,0.337239,0.0,0.0
462,115.25,16.5754,18.0066,158.028,105.686,101.857,0.00075113,0.0527936,21.0196,189.455,0.319248,0.0,0.0
464,115.75,17.3637,17.9409,155.745,105.705,101.856,0.000726574,0.0528012,21.0197,189.455,0.320841,0.0,0.0
466,116.25,17.2695,18.7643,154.426,105.706,101.826,0.000686203,0.0528074,21.0198,189.455,0.323506,0.0,0.0
468,116.75,17.7429,18.478,154.265,105.72,101.767,0.000653503,0.0528267,21.0199,189.465,0.329669,0.0,0.0
470,117.25,17.6502,18.4507,160.073,105.711,101.93,0.000618586,0.0528552,21.0199,189.455,0.315069,0.0,0.0
472,117.75,17.7565,18.1059,156.745,105.733,101.878,0.000590304,0.052864,21.02,189.455,0.321238,0.0,0.0
474,118.25,17.625,18.4513,154.983,105.732,101.899,0.000567395,0.0528582,21.02,189.445,0.319471,0.0,0.0
476,118.75,17.6946,18.5862,159.805,105.748,101.849,0.000553656,0.0528607,21.0201,189.445,0.325027,0.0,0.0
478,119.25,17.3837,18.4699,160.613,105.748,101.964,0.000544428,0.0528692,21.0201,189.445,0.315189,0.0,0.0
480,119.75,17.4761,17.9076,156.478,105.768,102.027,0.000538665,0.0528625,21.0201,189.435,0.311568,0.0,0.0
482,120.25,17.7726,18.576,152.531,105.765,101.968,0.000533997,0.052857,21.0201,189.435,0.316316,0.0,0.0
484,120.75,17.5727,18.2472,158.124,105.784,101.823,0.000527807,0.0528597,21.0202,189.435,0.33011,0.0,0.0
486,121.25,17.8427,18.6628,154.823,105.787,101.886,0.000522793,0.0528684,21.0202,189.435,0.325079,0.0,0.0
488,121.75,18.1441,18.5283,156.32,105.791,102.051,0.000525959,0.0528754,21.0202,189.435,0.311389,0.0,0.0
490,122.25,17.6707,17.935,154.991,105.801,101.99,0.000528523,0.0528946,21.0202,189.435,0.317424,0.0,0.0
492,122.75,17.4758,18.0197,159.148,105.812,101.881,0.000538844,0.0529102,21.0202,189.435,0.327473,0.0,0.0
494,123.25,17.1319,18.074,154.181,105.821,102.058,0.000554622,0.0528821,21.0202,189.425,0.313226,0.0,0.0
496,123.75,17.8526,18.7122,156.445,105.821,102.009,0.000567402,0.0528594,21.0202,189.425,0.31743,0.0,0.0
498,124.25,17.6544,18.5384,156.735,105.83,102.048,0.00058869,0.0528545,21.0205,189.435,0.314786,0.0,0.0
500,124.75,17.5441,18.5026,153.635,105.843,101.997,0.000605933,0.0528506,21.0207,189.425,0.320206,0.0,0.0
502,125.25,17.3147,18.5346,154.947,105.846,102.162,0.0006199,0.0528617,21.0209,189.435,0.3065,0.0,0.0
504,125.75,17.5755,18.3594,156.913,105.865,101.919,0.000631213,0.0528835,21.021,189.425,0.328649,0.0,0.0
506,126.25,17.5228,18.0333,152.779,105.863,101.964,0.000645453,0.0528865,21.0212,189.425,0.324652,0.0,0.0
508,126.75,17.3243,17.9868,156.495,105.865,102.009,0.000661555,0.0528758,21.0213,189.425,0.321051,0.0,0.0
510,127.25,17.8044,18.4333,154.798,105.874,101.973,0.000686025,0.052867,21.0213,189.425,0.324744,0.0,0.0
512,127.75,17.5196,18.4007,157.82,105.875,102.056,0.000716128,0.0528528,21.0214,189.425,0.317814,0.0,0.0
514,128.25,17.5086,18.2925,159.942,105.878,102.112,0.000751945,0.0528349,21.0215,189.425,0.313301,0.0,0.0
516,128.75,17.6115,18.3255,155.198,105.882,102.065,0.000791246,0.0528204,21.0215,189.425,0.317665,0.0,0.0
518,129.25,17.7802,18.6566,153.988,105.893,102.184,0.000831977,0.0528222,21.0215,189.425,0.308443,0.0,0.0
520,129.75,17.8357,17.7248,154.521,105.883,101.989,0.000872976,0.0528236,21.0216,189.425,0.324184,0.0,0.0
522,130.25,17.226,18.4596,158.77,105.896,102.034,0.000908093,0.052852,21.0216,189.415,0.321384,0.0,0.0
524,130.75,17.6971,18.3928,156.174,105.897,102.215,0.000938253,0.0528749,21.0216,189.425,0.30613,0.0,0.0
526,131.25,17.5821,17.9635,159.402,105.911,102.084,0.000962684,0.0528935,21.0216,189.425,0.318408,0.0,0.0
528,131.75,17.626,18.3673,155.328,105.899,102.137,0.000966586,0.0529014,21.0216,189.415,0.31291,0.0,0.0
530,132.25,17.5679,18.3123,153.285,105.901,102.092,0.000955449,0.0529014,21.0216,189.415,0.316857,0.0,0.0
532,132.75,17.6666,18.1831,153.139,105.909,102.098,0.000950701,0.0528871,21.0216,189.425,0.317049,0.0,0.0
534,133.25,17.7392,18.7537,155.53,105.912,102.023,0.000858282,0.0528626,21.0217,189.435,0.323553,0.0,0.0
536,133.75,18.1451,17.9705,155.827,105.909,102.043,0.000833421,0.0528428,21.0217,189.425,0.321691,0.0,0.0
538,134.25,17.4866,18.1004,157.032,105.924,102.084,0.000790908,0.0527996,21.0212,189.425,0.319388,0.0,0.0
540,134.75,17.4656,18.336,157.463,105.912,102.096,0.000756473,0.0527647,21.0209,189.425,0.317492,0.0,0.0
542,135.25,17.3774,18.1371,153.835,105.922,102.087,0.000662368,0.0527221,21.0205,189.425,0.319012,0.0,0.0
544,135.75,17.5493,18.2086,153.46,105.909,102.133,0.000586144,0.0526971,21.0202,189.425,0.314032,0.0,0.0
546,136.25,17.9811,18.5172,155.475,105.922,102.098,0.000521997,0.0526363,21.0199,189.425,0.318143,0.0,0.0
548,136.75,17.4219,18.2589,158.603,105.913,102.091,0.000470039,0.05262,21.0197,189.435,0.317956,0.0,0.0
550,137.25,17.7747,18.5311,156.687,105.913,102.129,0.00044359,0.0525848,21.0195,189.435,0.314773,0.0,0.0
552,137.75,16.994,18.0972,155.196,105.898,102.087,,0.05255,,189.435,0.317004,0.0,0.0
554,138.25,17.6009,18.3604,156.036,105.922,102.097,,0.0525217,,189.425,0.318182,0.0,0.0
556,138.75,17.2219,18.0758,158.661,105.909,102.117,,0.0524988,,189.425,0.315408,0.0,0.0
558,139.25,17.361,18.5899,156.629,105.924,102.096,,0.0524803,,189.425,0.318476,0.0,0.0
560,139.75,17.7544,17.8957,162.726,105.918,101.968,,0.0524867,,189.425,0.328766,0.0,0.0
562,140.25,17.4714,17.8239,154.605,105.921,102.103,,0.0525112,,189.435,0.317571,0.0,0.0
564,140.75,17.9186,18.1632,157.546,105.92,102.088,,,,189.435,0.318792,0.0,0.0
566,141.25,17.4704,17.7119,154.742,105.924,102.212,,,,189.425,0.308619,0.0,0.0
568,141.75,17.1761,17.4116,155.3,105.915,102.006,,,,189.415,0.325256,0.0,0.0
570,142.25,17.5727,18.0695,161.446,105.918,101.963,,,,189.425,0.329269,0.0,0.0
572,142.75,17.8144,18.2458,157.568,105.904,102.139,,,,189.425,0.313135,0.0,0.0
574,143.25,17.2338,17.9465,161.757,105.922,102.099,,,,189.425,0.31799,0.0,0.0
576,143.75,17.288,17.7347,155.065,105.907,102.191,,,,189.425,0.309019,0.0,0.0
578,144.25,17.6334,18.118,159.052,105.913,102.008,,,,189.425,0.324957,0.0,0.0
580,144.75,17.5653,17.8099,155.976,105.896,102.061,,,,189.425,0.3191,0.0,0.0
582,145.25,17.2802,18.0715,154.662,105.92,102.044,,,,189.425,0.322452,0.0,0.0
584,145.75,17.1138,17.8612,155.101,105.909,102.105,,,,189.425,0.316429,0.0,0.0
586,146.25,17.5742,18.1272,159.499,105.916,102.077,,,,189.415,0.319384,0.0,0.0
588,146.75,17.5382,18.6788,157.596,105.9,102.056,,,,189.415,0.319888,0.0,0.0
590,147.25,17.3081,17.9843,157.736,105.906,102.074,,,,189.415,0.318773,0.0,0.0
592,147.75,17.6644,18.3752,158.415,105.903,102.066,,,,189.425,0.31923,0.0,0.0
594,148.25,17.0437,17.8263,159.083,105.909,102.069,,,,189.425,0.319451,0.0,0.0
595,148.5,17.6032,17.746,156.894,105.901,102.145,,,,189.415,0.312414,0.0,0.0