File: 01_Data/Cotton_Sheets/Cone/Cotton_Sheet_Cone_HF50Scan_220429_R3.csv
Names,Time,Stack TC,Smoke TC,Exh Press,Smoke Comp,Smoke Meas,CO Meter,CO2 Meter,O2 Meter,Sample Mass,Ext Coeff,Start Test,Flame Verif
Chan Gain,,500,500,1,1,1,1,1,1,1,1,1.0,1.0
Offset,,0,0,0.138979,0,0,0,0,0,0,0,0.0,0.0
Gain,,1,1,25.011,14.099,15.1965,1,1,1,1.00087,0.986176,1.0,1.0
Units,sec,C,C,Pa,%,%,%,%,%,g,/m,,
Baseline,,29.9268,30.941,149.523,106.231,103.135,0.000667559,0.0486211,21.0297,-835.332,0.255902,,
2,0.25,28.4308,29.1704,150.654,105.73,102.351,0.000749365,0.0497232,21.0221,189.074,0.280992,0.0,0.0
4,0.75,27.7882,28.9179,154.283,105.735,102.486,0.000796312,0.0496089,21.0204,188.724,0.269981,0.0,0.0
6,1.25,27.8402,29.113,150.691,105.75,102.097,0.000887505,0.0520109,21.019,188.984,0.304119,0.0,0.0
8,1.75,27.8148,29.0456,147.873,105.745,101.681,0.000961372,0.0562017,20.9986,188.794,0.339086,0.0,0.0
10,2.25,27.877,28.8576,148.972,105.757,101.425,0.0011011,0.0686386,20.982,188.764,0.361769,0.0,0.0
12,2.75,28.3281,28.8387,142.236,105.767,103.749,0.00121428,0.0868506,20.9687,188.694,0.166676,0.0,0.0
14,3.25,28.0768,29.3627,138.728,105.766,106.968,0.00130595,0.115616,20.9223,188.594,-0.0977491,0.0,1.0
16,3.75,28.1201,29.1712,127.004,105.775,106.523,0.00151254,0.151529,20.8847,188.534,-0.0609662,0.0,1.0
18,4.25,28.578,29.0372,124.311,105.778,107.023,0.00167988,0.193569,20.8419,188.143,-0.101261,0.0,1.0
20,4.75,28.7791,29.5166,125.569,105.796,107.697,0.00187569,0.239277,20.796,188.314,-0.154044,0.0,1.0
22,5.25,28.9835,30.3299,110.255,105.78,108.401,0.00208854,0.276301,20.7588,188.174,-0.211781,0.0,1.0
24,5.75,29.8241,30.155,119.697,105.814,107.33,0.00231947,0.318728,20.7286,188.043,-0.123049,0.0,1.0
26,6.25,30.6625,30.9135,122.463,105.806,106.449,0.00255919,0.353093,20.7042,188.143,-0.0524072,0.0,1.0
28,6.75,31.8843,32.0314,131.783,105.828,104.537,0.00275337,0.380929,20.6844,187.963,0.106153,0.0,1.0
30,7.25,32.6957,32.6252,139.705,105.816,104.559,0.00301332,0.387363,20.6684,188.073,0.103399,0.0,1.0
32,7.75,33.1961,33.5079,141.743,105.834,104.459,0.0033163,0.392574,20.6718,187.953,0.113094,0.0,1.0
34,8.25,33.3957,33.3957,139.485,105.837,104.221,0.00365512,0.38625,20.6894,188.053,0.133139,0.0,0.0
36,8.75,33.6224,34.1226,145.373,105.848,103.55,0.00401365,0.371637,20.7035,187.963,0.189899,0.0,0.0
38,9.25,33.7579,33.9481,144.818,105.848,103.728,0.00430405,0.352745,20.7314,187.973,0.17503,0.0,0.0
40,9.75,34.0745,34.5926,148.978,105.875,103.264,0.00472761,0.331092,20.754,187.953,0.215977,0.0,0.0
42,10.25,34.4806,35.2468,146.282,105.859,103.469,0.0050707,0.313553,20.7774,187.943,0.197482,0.0,0.0
44,10.75,34.2942,35.1158,148.033,105.878,103.08,0.00547676,0.293114,20.8009,187.993,0.231696,0.0,0.0
46,11.25,34.1467,34.6407,146.199,105.867,103.188,0.00580567,0.27095,20.8231,187.953,0.221718,0.0,0.0
48,11.75,34.3339,35.202,148.414,105.889,103.059,0.00607209,0.249425,20.8441,187.983,0.234287,0.0,0.0
50,12.25,33.6639,34.8947,144.583,105.871,103.221,0.006354,0.228775,20.861,187.943,0.219306,0.0,0.0
52,12.75,34.1217,35.3804,146.432,105.891,102.967,0.00658234,0.209925,20.8771,187.963,0.242213,0.0,0.0
54,13.25,34.1665,35.0886,150.635,105.886,103.02,0.00671864,0.192744,20.8921,187.963,0.237311,0.0,0.0
56,13.75,33.9349,35.1339,150.761,105.905,103.288,0.00682905,0.178828,20.906,187.973,0.216418,0.0,0.0
58,14.25,34.2674,35.3524,149.559,105.902,103.256,0.00678777,0.165804,20.9186,187.973,0.218852,0.0,0.0
60,14.75,34.2126,34.8414,149.182,105.911,103.111,0.00675434,0.153678,20.9302,187.993,0.231759,0.0,0.0
62,15.25,33.9686,35.1198,149.513,105.907,103.026,0.0064752,0.143856,20.9455,187.983,0.238602,0.0,0.0
64,15.75,34.1071,35.0576,151.208,105.933,102.915,0.00640011,0.133165,20.9512,187.963,0.250022,0.0,0.0
66,16.25,33.6949,34.9391,148.378,105.914,103.029,0.0059705,0.124505,20.9651,187.983,0.238894,0.0,0.0
68,16.75,33.4476,34.3399,149.745,105.938,102.728,0.00585493,0.11569,20.9698,187.983,0.266168,0.0,0.0
70,17.25,33.0752,34.8627,146.943,105.926,102.985,0.0055086,0.10855,20.9777,187.973,0.243579,0.0,0.0
72,17.75,33.3002,34.1777,149.478,105.942,102.781,0.00522807,0.101329,20.9842,187.963,0.262107,0.0,0.0
74,18.25,32.8647,33.8698,151.484,105.942,102.576,0.00500084,0.0924112,20.9903,187.943,0.279302,0.0,0.0
76,18.75,32.7431,34.0942,150.108,105.969,103.22,0.00464676,0.0896496,20.9953,187.973,0.227399,0.0,0.0
78,19.25,32.8274,34.078,148.585,105.952,103.014,0.00435996,0.0824839,20.9997,187.963,0.243303,0.0,0.0
80,19.75,33.0361,33.7027,148.193,105.961,102.74,0.00407566,0.0802848,21.0036,187.933,0.266978,0.0,0.0
82,20.25,33.2459,34.1474,150.63,105.969,102.924,0.0037986,0.0765243,21.0067,187.943,0.252197,0.0,0.0
84,20.75,32.818,33.6974,147.984,105.988,103.177,0.00354025,0.0731776,21.0101,187.943,0.232486,0.0,0.0
86,21.25,32.2462,33.833,150.861,105.97,102.862,0.00330043,0.070196,21.0129,187.943,0.257488,0.0,0.0
88,21.75,32.6462,33.6964,151.344,105.995,102.674,0.00307614,0.067781,21.0152,187.983,0.275409,0.0,0.0
90,22.25,32.7991,33.8058,153.808,105.978,102.882,0.00286742,0.0655955,21.017,187.963,0.256482,0.0,0.0
92,22.75,33.0786,34.1838,145.349,106.016,103.248,0.00269836,0.0636189,21.0185,187.963,0.228895,0.0,0.0
94,23.25,32.6885,34.2028,150.14,106.008,103.287,0.00250564,0.0618891,21.0197,187.973,0.224961,0.0,0.0
96,23.75,32.8781,33.8323,149.274,106.014,103.29,0.00234953,0.0603723,21.0206,187.973,0.225145,0.0,0.0
98,24.25,32.6118,34.1501,149.564,106.01,102.959,0.00217707,0.0590578,21.0214,187.963,0.252572,0.0,0.0
100,24.75,32.371,33.7959,146.899,106.032,102.993,0.00203737,0.057916,21.0223,187.953,0.251627,0.0,0.0
102,25.25,32.3674,33.6396,144.77,106.029,103.048,0.00192422,0.0569554,21.0232,187.953,0.246637,0.0,0.0
104,25.75,32.4048,33.7547,148.003,106.032,102.804,0.00178902,0.0561451,21.0239,187.963,0.26746,0.0,0.0
106,26.25,32.3712,33.2374,149.71,106.037,103.18,0.00167951,0.0554888,21.0245,187.963,0.236252,0.0,0.0
108,26.75,32.4373,33.6779,149.88,106.056,102.645,0.0015908,0.0549165,21.025,187.943,0.282786,0.0,0.0
110,27.25,32.6938,33.4295,148.223,106.072,102.878,0.00149479,0.0544529,21.0252,187.943,0.264483,0.0,0.0
112,27.75,32.6147,33.4283,147.288,106.061,102.937,0.00141701,0.0541131,21.0251,187.963,0.258615,0.0,0.0
114,28.25,32.685,34.0047,147.354,106.062,102.761,0.00134639,0.0538701,21.025,187.963,0.273547,0.0,0.0
116,28.75,32.3737,33.3913,145.528,106.075,102.955,0.00128231,0.0536732,21.025,187.963,0.258331,0.0,0.0
118,29.25,31.8441,33.1529,150.229,106.075,102.801,0.00121703,0.0535137,21.0249,187.973,0.271278,0.0,0.0
120,29.75,32.3408,33.3285,151.549,106.088,102.762,0.0011521,0.0534845,21.025,187.973,0.275535,0.0,0.0
122,30.25,32.283,33.013,148.879,106.084,102.849,0.0010995,0.0535509,21.0251,187.953,0.267922,0.0,0.0
124,30.75,31.951,33.0005,146.546,106.101,102.851,0.00102313,0.0535619,21.0252,187.953,0.269096,0.0,0.0
126,31.25,31.7985,32.536,148.43,106.094,103.144,0.000961271,0.0535321,21.0253,187.943,0.243917,0.0,0.0
128,31.75,31.1336,32.8548,147.575,106.105,102.943,0.000900315,0.0534441,21.0254,187.943,0.26173,0.0,0.0
130,32.25,32.1715,33.4859,150.802,106.091,102.963,0.000850941,0.0533153,21.0254,187.923,0.258928,0.0,0.0
132,32.75,32.2344,32.9645,152.073,106.114,102.747,0.000810947,0.053211,21.0254,187.933,0.278928,0.0,0.0
134,33.25,31.7273,33.1442,147.391,106.115,102.919,0.000767707,0.0531129,21.0255,187.913,0.264595,0.0,0.0
136,33.75,31.8427,33.49,147.593,106.128,103.045,0.000732682,0.0530335,21.0255,187.933,0.254977,0.0,0.0
138,34.25,31.5461,32.434,153.448,106.128,103.007,0.000688653,0.0529284,21.0255,187.923,0.258205,0.0,0.0
140,34.75,31.5239,32.5318,146.927,106.134,103.03,0.00065299,0.0528433,21.0256,187.943,0.256757,0.0,0.0
142,35.25,31.3892,31.8242,149.603,106.138,102.751,0.000616498,0.0527316,21.0256,187.943,0.280541,0.0,0.0
144,35.75,31.7371,32.2484,147.354,106.148,102.937,0.000580095,0.0526024,21.0256,187.933,0.265666,0.0,0.0
146,36.25,31.7954,32.8465,145.486,106.143,103.127,0.000548708,0.0524979,21.0256,187.933,0.249429,0.0,0.0
148,36.75,31.1171,32.3894,151.328,106.165,102.98,0.000521574,0.0523346,21.026,187.933,0.263523,0.0,0.0
150,37.25,31.2888,32.7497,149.615,106.155,103.019,0.000503397,0.0521317,21.0264,187.943,0.25941,0.0,0.0
152,37.75,31.4248,32.9677,151.482,106.16,103.267,0.000492095,0.0518888,21.0267,187.933,0.239017,0.0,0.0
154,38.25,30.8856,32.5792,149.155,106.174,103.16,0.000482941,0.0516214,21.0269,187.933,0.249118,0.0,0.0
156,38.75,31.4998,32.8031,146.147,106.176,103.271,0.000481229,0.0514048,21.0271,187.933,0.239965,0.0,0.0
158,39.25,31.2592,32.3044,150.775,106.177,103.207,0.000484977,0.0510666,21.0273,187.933,0.245361,0.0,0.0
160,39.75,31.4474,32.0323,150.591,106.199,103.035,0.000488012,0.0507927,21.0274,187.943,0.261622,0.0,0.0
162,40.25,31.0663,32.7629,149.22,106.199,103.043,0.000494274,0.0504353,21.0275,187.953,0.260992,0.0,0.0
164,40.75,31.5223,32.6352,147.312,106.202,103.133,0.000502769,0.0501458,21.028,187.933,0.253687,0.0,0.0
166,41.25,32.025,32.8661,152.921,106.21,102.994,0.000511552,0.04983,21.0284,187.923,0.265995,0.0,0.0
168,41.75,31.099,32.3652,147.981,106.214,102.996,0.000520378,0.0495742,21.0288,187.933,0.266081,0.0,0.0
170,42.25,31.8163,32.9393,151.368,106.217,103.217,0.000527527,0.0493669,21.0291,187.953,0.247806,0.0,0.0
172,42.75,30.8974,32.8926,150.61,106.226,103.141,0.000533318,0.0491314,21.0293,187.943,0.254879,0.0,0.0
174,43.25,31.4358,31.9984,151.13,106.224,102.961,0.000539277,0.0489405,21.0295,187.933,0.269883,0.0,0.0
176,43.75,31.1154,32.6441,151.526,106.245,103.133,0.000545245,0.0488074,21.0296,187.933,0.257121,0.0,0.0
178,44.25,31.2906,32.2178,149.668,106.242,103.076,0.000550079,0.0487187,21.0297,187.923,0.261662,0.0,0.0
180,44.75,30.9757,32.6395,152.069,106.236,102.872,0.000553995,0.048647,21.0298,187.933,0.278314,0.0,0.0
182,45.25,31.3255,32.0817,147.756,106.237,103.007,0.000555264,0.0486159,21.0299,187.943,0.267117,0.0,0.0
184,45.75,31.2786,32.8654,150.149,106.24,102.957,0.00055458,0.0485908,21.03,187.953,0.271566,0.0,0.0
186,46.25,31.4031,32.3602,151.706,106.255,102.866,0.000554026,0.048584,21.03,187.933,0.280432,0.0,0.0
188,46.75,30.9683,32.0728,150.097,106.258,103.157,0.000553578,0.0485785,21.0301,187.933,0.256185,0.0,0.0
190,47.25,31.3337,32.2339,145.17,106.259,103.174,0.000553214,0.0485604,21.0301,187.943,0.25485,0.0,0.0
192,47.75,31.0682,32.4484,150.009,106.254,102.96,0.000557358,0.0485458,21.0301,187.943,0.272453,0.0,0.0
194,48.25,31.138,32.1133,148.606,106.285,103.117,0.00056471,0.0485205,21.0301,187.943,0.261736,0.0,0.0
196,48.75,31.0897,32.0366,148.517,106.269,103.452,0.000570665,0.0484999,21.0302,187.933,0.232361,0.0,0.0
198,49.25,30.6756,32.5542,149.248,106.27,103.169,0.000580397,0.0484761,21.0302,187.923,0.256119,0.0,0.0
200,49.75,30.9615,31.8425,149.542,106.259,103.071,0.00058828,0.0484504,21.0302,187.933,0.263453,0.0,0.0
202,50.25,30.7617,31.8198,152.347,106.275,103.178,0.000594665,0.0484296,21.0302,187.933,0.255801,0.0,0.0
204,50.75,30.7266,32.0203,149.095,106.263,103.064,0.000587157,0.0484128,21.0302,187.923,0.264387,0.0,0.0
206,51.25,31.03,31.9799,147.794,106.281,103.246,0.000569663,0.0483991,21.0302,187.933,0.250651,0.0,0.0
208,51.75,30.885,31.6444,148.577,106.268,103.059,0.000555493,0.048361,21.0303,187.923,0.265235,0.0,0.0
210,52.25,30.4322,32.1883,150.046,106.279,103.476,0.000516328,0.0483301,21.0303,187.913,0.231185,0.0,0.0
212,52.75,30.758,32.0307,151.025,106.27,103.061,0.000484604,0.048305,21.0303,187.903,0.265184,0.0,0.0
214,53.25,30.5944,31.9722,147.648,106.276,103.067,0.000440863,0.0482701,21.0303,187.913,0.265238,0.0,0.0
216,53.75,31.1015,31.8429,147.85,106.282,103.216,0.000405433,0.0482287,21.0303,187.913,0.253282,0.0,0.0
218,54.25,30.1437,32.0292,148.837,106.292,103.287,0.000377367,0.0481951,21.0303,187.913,0.248143,0.0,0.0
220,54.75,31.2357,32.1029,153.514,106.272,102.854,0.000345755,0.0482085,21.0304,187.913,0.282773,0.0,0.0
222,55.25,30.6986,32.3088,149.359,106.297,103.118,0.000348016,0.0482194,21.0304,187.903,0.262639,0.0,0.0
224,55.75,30.7326,32.0563,148.9,106.279,103.205,0.000351882,0.0482824,21.0304,187.903,0.253858,0.0,0.0
226,56.25,30.3197,31.3557,146.201,106.285,102.951,0.000374658,0.0483335,21.0304,187.913,0.275749,0.0,0.0
228,56.75,30.5096,31.805,148.701,106.28,102.944,0.000410788,0.0483605,21.0304,187.913,0.275914,0.0,0.0
230,57.25,30.4231,31.5251,149.283,106.294,102.902,0.000456545,0.0483696,21.0304,187.913,0.280582,0.0,0.0
232,57.75,30.944,32.0785,147.107,106.291,102.825,0.000508451,0.0483587,21.0304,187.913,0.286806,0.0,0.0
234,58.25,30.3862,31.4207,147.47,106.291,103.076,0.000550496,0.0483423,21.0304,187.913,0.26569,0.0,0.0
236,58.75,30.308,31.7987,154.175,106.286,102.949,0.000602643,0.0483142,21.0304,187.893,0.275941,0.0,0.0
238,59.25,30.7485,32.0541,149.359,106.293,103.091,0.000644882,0.0482915,21.0304,187.893,0.264581,0.0,0.0
240,59.75,30.6284,31.7602,147.802,106.286,102.933,0.000677826,0.0483016,21.0301,187.903,0.27734,0.0,0.0
242,60.25,30.5346,31.6919,152.846,106.295,103.128,0.000703367,0.0483354,21.0297,187.893,0.261721,0.0,0.0
244,60.75,30.6319,31.6602,151.198,106.291,103.214,0.000724056,0.0483628,21.0294,187.893,0.254102,0.0,0.0
246,61.25,30.2889,32.2672,147.407,106.3,103.341,0.000738909,0.0483851,21.0292,187.893,0.244191,0.0,0.0
248,61.75,30.0314,31.9156,148.443,106.288,102.952,0.000749226,0.048403,21.029,187.913,0.275847,0.0,0.0
250,62.25,30.3108,31.5254,145.222,106.292,103.186,0.000755678,0.0484447,21.0288,187.893,0.256501,0.0,0.0
252,62.75,30.503,31.3393,146.02,106.291,103.209,0.000759191,0.0484785,21.0287,187.883,0.254562,0.0,0.0
254,63.25,30.2627,31.758,147.854,106.306,103.129,0.000755055,0.0485058,21.0285,187.913,0.262479,0.0,0.0
256,63.75,29.6902,31.491,147.991,106.272,103.355,0.000745422,0.0485822,21.0285,187.883,0.240788,0.0,0.0
258,64.25,30.3329,31.513,148.665,106.294,103.446,0.000730007,0.048644,21.0284,187.883,0.234935,0.0,0.0
260,64.75,30.3731,31.9958,148.839,106.272,103.028,0.000710669,0.0486941,21.0283,187.883,0.268163,0.0,0.0
262,65.25,30.094,31.5395,145.712,106.29,103.171,0.000695005,0.0487347,21.0283,187.893,0.257609,0.0,0.0
264,65.75,29.9609,31.0614,147.605,106.266,103.299,0.000673883,0.0487676,21.0278,187.883,0.244997,0.0,0.0
266,66.25,30.2983,31.8491,150.38,106.282,103.3,0.000655506,0.0488078,21.0274,187.873,0.246179,0.0,0.0
268,66.75,30.536,31.5359,151.768,106.259,103.185,0.000639479,0.0488403,21.0271,187.853,0.253995,0.0,0.0
270,67.25,29.9975,31.8579,152.65,106.288,102.847,0.000626498,0.0488802,21.0268,187.863,0.284654,0.0,0.0
272,67.75,30.3926,31.5216,147.175,106.263,103.103,0.000614081,0.0489125,21.0266,187.863,0.26123,0.0,0.0
274,68.25,30.1696,31.6366,151.149,106.26,103.04,0.000602311,0.0489929,21.0265,187.873,0.2662,0.0,0.0
276,68.75,30.2014,31.7088,149.542,106.246,103.268,0.000586439,0.0490581,21.0263,187.863,0.245987,0.0,0.0
278,69.25,30.2709,31.4887,147.14,106.263,103.219,0.000567877,0.0491108,21.0262,187.853,0.251395,0.0,0.0
280,69.75,29.7814,31.0343,148.346,106.24,103.14,0.000552842,0.0491536,21.0261,187.833,0.256226,0.0,0.0
282,70.25,29.8873,31.7479,151.895,106.254,102.886,0.000517791,0.0491882,21.0261,187.863,0.27865,0.0,0.0
284,70.75,30.0901,31.8723,148.372,106.254,103.211,0.0004894,0.0492162,21.026,187.873,0.251433,0.0,0.0
286,71.25,30.2361,31.3864,147.291,106.258,103.101,0.000449468,0.0492389,21.026,187.863,0.260927,0.0,0.0
288,71.75,30.3492,31.6599,149.838,106.243,102.882,0.000417124,0.0493115,21.0261,187.873,0.278051,0.0,0.0
290,72.25,30.2753,31.5021,151.273,106.239,103.141,0.000383962,0.0493846,21.0262,187.863,0.255965,0.0,0.0
292,72.75,30.2131,31.6501,148.773,106.255,103.344,0.000350835,0.0494567,21.0263,187.863,0.240281,0.0,0.0
294,73.25,29.9372,31.7181,151.703,106.225,103.076,0.000324002,0.049515,21.0263,187.873,0.260334,0.0,0.0
296,73.75,29.8892,31.6507,146.651,106.221,103.072,0.000297204,0.0495901,21.0264,187.863,0.260365,0.0,0.0
298,74.25,30.2369,31.2011,146.501,106.217,102.973,0.000270942,0.049651,21.0263,187.863,0.268274,0.0,0.0
300,74.75,30.3212,31.5284,148.429,106.212,102.89,0.00024967,0.0497146,21.0262,187.863,0.274901,0.0,0.0
302,75.25,30.4247,31.3377,149.635,106.22,103.07,0.00023497,0.0497789,21.0261,187.873,0.260415,0.0,0.0
304,75.75,30.3468,31.5765,152.987,106.215,102.999,0.000225342,0.049831,21.026,187.863,0.266026,0.0,0.0
306,76.25,30.1502,31.215,151.972,106.194,103.023,0.000223871,0.0498589,21.026,187.863,0.262245,0.0,0.0
308,76.75,30.1206,31.283,146.889,106.194,102.978,0.000228377,0.0498687,21.0259,187.853,0.265988,0.0,0.0
310,77.25,29.692,30.8803,151.46,106.177,103.034,0.000235824,0.0498766,21.0259,187.873,0.259947,0.0,0.0
312,77.75,29.7181,31.3164,150.161,106.187,102.838,0.000245275,0.0499644,21.0259,187.893,0.277275,0.0,0.0
314,78.25,29.5254,31.3236,149.162,106.178,102.868,0.000257362,0.0500355,21.0259,187.873,0.274004,0.0,0.0
316,78.75,29.592,31.6602,149.612,106.18,103.127,0.000271143,0.0500859,21.0258,187.863,0.252373,0.0,0.0
318,79.25,30.091,31.7682,150.764,106.161,103.053,0.000286105,0.0501204,21.0258,187.863,0.257014,0.0,0.0
320,79.75,30.1986,31.2409,147.942,106.164,103.207,0.000301644,0.0501269,21.0258,187.853,0.24431,0.0,0.0
322,80.25,29.778,31.118,148.175,106.152,103.014,0.000314231,0.0501129,21.0258,187.863,0.259515,0.0,0.0
324,80.75,30.3793,31.4739,149.352,106.152,102.932,0.000332851,0.0501015,21.0258,187.853,0.266481,0.0,0.0
326,81.25,30.0542,31.4974,147.034,106.136,103.102,0.000347933,0.0501059,21.0258,187.853,0.250934,0.0,0.0
328,81.75,30.3414,31.3565,150.152,106.143,102.973,0.00036015,0.0501023,21.0258,187.863,0.262354,0.0,0.0
330,82.25,30.2388,31.1985,147.44,106.122,102.952,0.000374951,0.0500929,21.0255,187.863,0.262349,0.0,0.0
332,82.75,30.0612,30.7718,147.069,106.128,103.298,0.000386939,0.0500854,21.0249,187.863,0.233819,0.0,0.0
334,83.25,29.9014,31.2202,146.879,106.111,103.079,0.000390631,0.0500928,21.0245,187.873,0.250772,0.0,0.0
336,83.75,29.8723,31.7674,150.21,106.106,102.935,0.000393622,0.0500988,21.0241,187.853,0.262424,0.0,0.0
338,84.25,30.4069,31.4175,150.952,106.087,102.837,0.000382806,0.0501319,21.0238,187.853,0.269183,0.0,0.0
340,84.75,29.9743,31.7806,148.141,106.094,103.152,0.000374044,0.050184,21.0236,187.853,0.24326,0.0,0.0
342,85.25,30.1596,30.8745,149.049,106.083,103.135,0.000351309,0.0502262,21.0234,187.863,0.243822,0.0,0.0
344,85.75,30.2778,31.2449,147.298,106.075,102.944,0.000332894,0.0502461,21.0233,187.853,0.259192,0.0,0.0
346,86.25,29.9682,31.5675,150.096,106.064,103.033,0.000303548,0.0502493,21.0231,187.843,0.250836,0.0,0.0
348,86.75,29.8326,30.6199,147.195,106.056,102.921,0.000279778,0.050252,21.023,187.843,0.259524,0.0,0.0
350,87.25,29.7343,30.8851,154.224,106.026,103.057,0.000248504,0.0502542,21.0229,187.833,0.245688,0.0,0.0
352,87.75,29.8749,31.4128,147.298,106.044,103.119,0.000223172,0.050263,21.0229,187.833,0.241952,0.0,0.0
354,88.25,29.78,31.0673,147.962,106.01,102.805,0.000202653,0.0502766,21.0228,187.833,0.265591,0.0,0.0
356,88.75,29.7767,31.5878,146.431,106.018,102.808,0.000181225,0.0502877,21.0228,187.833,0.265989,0.0,0.0
358,89.25,29.7242,31.4724,144.078,105.99,103.358,0.000163868,0.0502966,21.0227,187.843,0.217549,0.0,0.0
360,89.75,29.8059,31.3019,151.214,105.986,102.969,0.000159425,0.0503181,21.0227,187.843,0.249783,0.0,0.0
362,90.25,29.7426,31.5614,151.083,105.954,103.243,0.000155826,0.0503484,21.0227,187.833,0.224226,0.0,0.0
364,90.75,29.626,31.5034,147.575,105.953,102.853,0.000163729,0.0503729,21.0227,187.853,0.256863,0.0,0.0
366,91.25,30.0264,30.7145,150.437,105.93,102.738,0.000170131,0.0503792,21.0227,187.853,0.264684,0.0,0.0
368,91.75,29.9461,30.2091,150.279,105.942,102.773,0.000181646,0.0503843,21.0226,187.853,0.262661,0.0,0.0
370,92.25,29.6664,31.1341,148.615,105.936,102.777,0.00019667,0.0503884,21.0226,187.853,0.261892,0.0,0.0
372,92.75,30.1612,31.2575,150.031,105.922,103.003,0.00021897,0.0503918,21.0226,187.853,0.24174,0.0,0.0
374,93.25,29.7711,31.8659,147.64,105.899,102.796,0.000246151,0.0504216,21.0226,187.843,0.257196,0.0,0.0
376,93.75,29.9759,30.8742,150.707,105.905,102.965,0.000273869,0.0504458,21.0226,187.843,0.243568,0.0,0.0
378,94.25,30.2321,31.1527,149.013,105.895,102.88,0.000301451,0.0504582,21.0226,187.863,0.249857,0.0,0.0
380,94.75,29.4356,31.1588,149.472,105.882,102.978,0.000323793,0.0504619,21.0226,187.853,0.240614,0.0,0.0
382,95.25,29.3629,30.7604,150.177,105.868,102.863,0.000343791,0.0504648,21.0226,187.863,0.249081,0.0,0.0
384,95.75,30.3236,30.7006,148.49,105.861,102.884,0.000361699,0.0504266,21.0226,187.843,0.246764,0.0,0.0
386,96.25,29.8222,30.4698,145.532,105.831,102.738,0.000376206,0.0503955,21.0226,187.833,0.256633,0.0,0.0
388,96.75,29.732,30.3947,147.966,105.832,102.929,0.000387956,0.0503975,21.0226,187.843,0.240631,0.0,0.0
390,97.25,30.0134,30.8457,149.103,105.808,103.074,0.000397473,0.0503992,21.0228,187.853,0.22643,0.0,0.0
392,97.75,29.7457,31.2643,151.66,105.812,102.672,0.000407083,0.0504683,21.023,187.853,0.260597,0.0,0.0
394,98.25,29.7103,31.277,150.048,105.799,102.833,0.000416578,0.0505243,21.0231,187.843,0.245955,0.0,0.0
396,98.75,30.0386,31.2206,149.157,105.784,102.496,0.000422368,0.0505696,21.0233,187.843,0.273128,0.0,0.0
398,99.25,30.1084,31.0336,151.887,105.76,102.399,0.000425347,0.0505921,21.0234,187.853,0.279382,0.0,0.0
400,99.75,29.9902,31.3794,147.341,105.762,102.691,0.000425859,0.0505974,21.0234,187.843,0.254875,0.0,0.0
402,100.25,29.8596,31.3375,149.177,105.739,102.659,0.000424563,0.0506017,21.0235,187.843,0.25578,0.0,0.0
404,100.75,29.6101,31.2355,150.393,105.739,102.82,0.000422247,0.0505646,21.0236,187.853,0.24216,0.0,0.0
406,101.25,29.8424,30.9766,148.765,105.728,102.828,0.00041923,0.0505202,21.0236,187.853,0.240539,0.0,0.0
408,101.75,30.5223,31.3526,144.54,105.736,102.815,0.000416787,0.0504714,21.0236,187.833,0.242374,0.0,0.0
410,102.25,30.1177,31.2531,150.103,105.697,102.508,0.000414808,0.0504318,21.0237,187.853,0.265079,0.0,0.0
412,102.75,30.3614,31.354,145.141,105.702,102.703,0.000403486,0.0503998,21.0237,187.853,0.24904,0.0,0.0
414,103.25,29.7008,30.7297,148.715,105.675,102.83,0.000394316,0.0503739,21.0237,187.853,0.236089,0.0,0.0
416,103.75,29.5758,30.4696,151.908,105.665,102.657,0.000380556,0.0503664,21.0237,187.853,0.24981,0.0,0.0
418,104.25,29.9175,30.8549,148.101,105.644,102.667,0.00036371,0.0503604,21.0239,187.853,0.247333,0.0,0.0
420,104.75,29.7827,31.2037,149.442,105.644,102.459,0.000347534,0.0503559,21.024,187.853,0.264856,0.0,0.0
422,105.25,29.7719,31.0473,148.236,105.607,102.473,0.000332151,0.0503526,21.0241,187.863,0.260612,0.0,0.0
424,105.75,29.908,30.7013,144.821,105.612,102.451,0.000320325,0.05035,21.0242,187.863,0.26288,0.0,0.0
426,106.25,29.6821,31.0732,148.981,105.585,102.492,0.000311315,0.0503478,21.0243,187.863,0.257213,0.0,0.0
428,106.75,29.9363,31.3107,151.466,105.591,102.806,0.000305916,0.0503054,21.0244,187.873,0.231208,0.0,0.0
430,107.25,30.1852,30.4271,150.421,105.573,102.521,0.000303253,0.0502639,21.0244,187.863,0.25376,0.0,0.0
432,107.75,30.0972,31.2057,149.796,105.545,102.443,0.000301095,0.0502238,21.0245,187.863,0.258045,0.0,0.0
434,108.25,29.9011,30.9616,145.927,105.543,102.291,0.000302957,0.0501843,21.0245,187.853,0.270759,0.0,0.0
436,108.75,29.3543,30.9456,149.245,105.535,102.138,0.000304464,0.0501458,21.0245,187.843,0.283006,0.0,0.0
438,109.25,29.6929,30.9369,151.974,105.518,102.371,0.000313919,0.0500932,21.0245,187.843,0.26197,0.0,0.0
440,109.75,29.9816,30.9085,150.031,105.496,102.29,0.000328988,0.0500314,21.0246,187.853,0.267032,0.0,0.0
442,110.25,30.025,30.8001,144.783,105.488,102.796,0.000346263,0.0499813,21.0246,187.843,0.223564,0.0,0.0
444,110.75,29.4423,30.9749,154.904,105.484,102.394,0.000364816,0.0499407,21.0246,187.873,0.257188,0.0,0.0
446,111.25,29.4808,31.3556,146.439,105.453,102.844,0.000381746,0.0499078,21.0246,187.853,0.216722,0.0,0.0
448,111.75,29.5192,31.439,147.183,105.459,102.75,0.000397169,0.0498948,21.0246,187.833,0.225178,0.0,0.0
450,112.25,29.7727,31.0826,148.403,105.438,102.596,0.000409662,0.0498842,21.0246,187.833,0.236346,0.0,0.0
452,112.75,29.8635,31.1463,148.361,105.419,102.366,0.000420986,0.0498542,21.0246,187.843,0.254284,0.0,0.0
454,113.25,30.2044,31.02,149.11,105.399,102.387,0.000430158,0.0498106,21.0246,187.833,0.250858,0.0,0.0
456,113.75,29.8283,30.8409,146.427,105.387,102.408,0.000438221,0.0497682,21.0246,187.833,0.248035,0.0,0.0
458,114.25,30.3333,31.1323,147.401,105.371,102.613,0.000445323,0.0497275,21.0251,187.833,0.22943,0.0,0.0
460,114.75,30.261,31.2912,148.076,105.365,102.355,0.000451709,0.0496944,21.0254,187.833,0.250701,0.0,0.0
462,115.25,29.6689,31.5314,150.365,105.372,102.521,0.000457452,0.0496406,21.0257,187.813,0.237206,0.0,0.0
464,115.75,29.9221,30.804,149.976,105.368,102.179,0.000462104,0.0495969,21.0259,187.823,0.26589,0.0,0.0
466,116.25,29.4235,31.2264,148.184,105.374,102.368,0.000465872,0.0495331,21.0261,187.813,0.25038,0.0,0.0
468,116.75,29.5092,30.8105,149.88,105.363,102.312,0.000468924,0.0494556,21.0263,187.813,0.254205,0.0,0.0
470,117.25,29.7475,31.0215,151.008,105.375,102.275,0.000478369,0.0493929,21.0264,187.793,0.258329,0.0,0.0
472,117.75,29.2464,30.8079,152.302,105.369,102.13,0.000492295,0.0493557,21.0265,187.793,0.270009,0.0,0.0
474,118.25,30.0056,30.8348,145.578,105.38,102.246,0.000514991,0.0493255,21.0266,187.813,0.261152,0.0,0.0
476,118.75,29.7907,30.961,155.916,105.369,102.146,0.000543649,0.049274,21.0267,187.813,0.26871,0.0,0.0
478,119.25,29.573,31.0514,148.62,105.386,102.178,0.000566862,0.0492322,21.0267,187.813,0.267452,0.0,0.0
480,119.75,30.2026,31.4926,152.174,105.387,102.374,0.000603436,0.0492127,21.0267,187.813,0.250895,0.0,0.0
482,120.25,30.0862,31.046,150.084,105.388,102.15,0.000649055,0.0492097,21.0265,187.823,0.269945,0.0,0.0
484,120.75,29.3419,30.8416,147.572,105.375,102.353,0.000691087,0.0491787,21.0263,187.813,0.251744,0.0,0.0
486,121.25,29.5286,30.8058,146.256,105.39,102.564,0.000729705,0.0491279,21.0266,187.813,0.23513,0.0,0.0
488,121.75,29.8987,31.0343,148.624,105.381,102.585,0.000760351,0.0490868,21.0268,187.813,0.232628,0.0,0.0
490,122.25,29.1655,30.724,147.964,105.399,102.424,0.000784602,0.0490535,21.027,187.803,0.247692,0.0,0.0
492,122.75,29.3785,31.2084,154.054,105.379,102.31,0.000804246,0.0489723,21.0271,187.813,0.255704,0.0,0.0
494,123.25,29.6843,30.9343,149.193,105.39,102.274,0.000820157,0.0489066,21.0272,187.803,0.259647,0.0,0.0
496,123.75,29.5249,30.6564,148.712,105.395,102.283,0.000817449,0.0488398,21.0273,187.813,0.25929,0.0,0.0
498,124.25,30.0437,30.906,147.372,105.393,102.703,0.000815256,0.0487928,21.0274,187.803,0.223646,0.0,0.0
500,124.75,29.7504,31.0258,147.008,105.403,102.562,,0.0487611,,187.813,0.23638,0.0,0.0
502,125.25,29.5606,30.6665,145.057,105.415,102.24,,0.0487355,,187.803,0.264558,0.0,0.0
504,125.75,29.165,30.9727,152.41,105.394,102.677,,0.0486858,,187.813,0.225939,0.0,0.0
506,126.25,30.0422,30.6446,151.731,105.41,102.209,,0.0486196,,187.813,0.26676,0.0,0.0
508,126.75,30.1542,30.674,150.267,105.398,102.166,,0.0485659,,187.813,0.269423,0.0,0.0
510,127.25,30.2489,31.1861,148.74,105.416,102.303,,0.0485153,,187.813,0.25933,0.0,0.0
512,127.75,29.5756,30.8062,153.084,105.419,102.341,,,,187.813,0.256366,0.0,0.0
514,128.25,29.7766,31.3432,150.379,105.415,102.387,,,,187.823,0.252124,0.0,0.0
516,128.75,29.9606,30.9656,148.387,105.416,102.298,,,,187.813,0.259726,0.0,0.0
518,129.25,29.3347,30.93,144.77,105.43,102.203,,,,187.823,0.268859,0.0,0.0
520,129.75,29.2321,30.371,151.594,105.411,102.237,,,,187.823,0.264441,0.0,0.0
522,130.25,29.6037,30.8448,150.348,105.435,102.604,,,,187.813,0.235509,0.0,0.0
524,130.75,29.7266,30.9074,150.952,105.44,102.245,,,,187.813,0.266249,0.0,0.0
526,131.25,29.5879,30.7869,150.245,105.445,102.388,,,,187.813,0.254486,0.0,0.0
528,131.75,29.6965,30.8999,148.271,105.444,102.415,,,,187.813,0.252144,0.0,0.0
530,132.25,29.4891,30.7453,150.909,105.466,102.254,,,,187.813,0.267543,0.0,0.0
532,132.75,29.7845,30.689,149.665,105.448,102.529,,,,187.813,0.242791,0.0,0.0
534,133.25,29.6393,30.5226,146.105,105.465,102.194,,,,187.803,0.272539,0.0,0.0
536,133.75,29.0299,30.2711,145.652,105.449,102.482,,,,187.793,0.246963,0.0,0.0
538,134.25,30.3066,30.8428,150.938,105.464,102.309,,,,187.803,0.262778,0.0,0.0
540,134.75,30.0573,31.1972,150.777,105.455,102.448,,,,187.813,0.250241,0.0,0.0
542,135.25,29.7987,30.5515,147.228,105.488,102.345,,,,187.803,0.261656,0.0,0.0
543,135.5,29.8674,31.2508,149.997,105.471,102.368,,,,187.813,0.258285,0.0,0.0