File: 01_Data/LW_GypBoard_Unpainted_Paper/MCC/LW_GypBoard_Unpainted_Paper_MCC_30K_min_211130_R2.txt
Sample ID:	C:\MCC\MCC Cal\Test\LW_GypBoard_Unpainted_Paper_MCC_30K_min_211130_R2.txt
Sample Weight (mg):	4.81
Heating Rate (C/s):	0.5
Combustor Temp (C):	900
N2 Flow Rate (cc/min):	80
O2 Flow Rate (cc/min):	20
Calibration File:	C:\MCC\MCC Cal\Coeff1 JN10440_30_210304.txt.txt
T Correction Coefficients:	0	1.024463	0
Time Shift (s):	14
*
Time (s)	Temperature (C)	N2 flow rate (cc/min)	O2 flow rate (cc/min)	Flow Rate (cc/min)	Oxygen (%)	HRR (W/g)	Heating rate (C/s)
-0.001	109.419	80.008	19.993	103.122	20.074	0.092	0.009
2.000	109.414	80.007	19.995	103.125	20.068	0.518	-0.006
4.000	109.378	80.006	19.994	103.130	20.072	0.217	-0.041
6.000	109.354	80.005	19.994	103.134	20.067	0.597	-0.010
8.000	109.411	80.007	19.994	103.158	20.067	0.551	0.007
10.000	109.438	80.007	19.994	103.167	20.066	0.625	0.012
12.000	109.455	80.006	19.994	103.182	20.056	1.274	0.035
14.000	109.497	80.007	19.994	103.223	20.059	1.088	0.026
16.000	109.497	80.009	19.994	103.235	20.053	1.528	0.001
18.000	109.586	80.007	19.995	103.246	20.051	1.636	0.045
20.000	109.710	80.007	19.993	103.294	20.050	1.706	0.049
22.000	109.821	80.009	19.995	103.289	20.043	2.155	0.077
24.000	110.024	80.007	19.995	103.293	20.041	2.324	0.101
26.000	110.205	80.007	19.993	103.309	20.042	2.230	0.075
28.000	110.466	80.008	19.996	103.323	20.044	2.134	0.101
30.000	110.744	80.006	19.995	103.318	20.038	2.511	0.149
32.000	111.014	80.007	19.995	103.319	20.038	2.511	0.158
34.000	111.348	80.008	19.994	103.322	20.034	2.785	0.185
35.999	111.690	80.008	19.994	103.324	20.039	2.430	0.185
38.000	112.029	80.008	19.995	103.326	20.037	2.605	0.153
39.999	112.399	80.008	19.994	103.327	20.037	2.555	0.161
41.999	112.819	80.010	19.996	103.325	20.033	2.865	0.195
44.000	113.276	80.009	19.995	103.326	20.036	2.617	0.212
46.000	113.713	80.010	19.994	103.324	20.033	2.854	0.218
47.999	114.179	80.008	19.995	103.325	20.030	3.017	0.225
49.999	114.671	80.009	19.995	103.324	20.029	3.139	0.235
51.999	115.164	80.008	19.996	103.331	20.028	3.165	0.236
54.000	115.671	80.007	19.995	103.336	20.036	2.650	0.259
55.999	116.167	80.007	19.996	103.357	20.031	2.988	0.256
57.999	116.807	80.007	19.997	103.338	20.030	3.064	0.329
59.999	117.314	80.006	19.996	103.356	20.030	3.027	0.306
62.000	117.877	80.007	19.996	103.361	20.036	2.650	0.259
63.999	118.473	80.007	19.995	103.359	20.031	2.964	0.324
66.000	119.148	80.005	19.995	103.359	20.030	3.079	0.335
68.000	119.748	80.008	19.995	103.357	20.025	3.358	0.342
69.999	120.377	80.007	19.995	103.356	20.026	3.281	0.312
71.999	121.036	80.006	19.994	103.348	20.030	3.048	0.336
74.000	121.725	80.007	19.995	103.340	20.030	3.055	0.354
75.999	122.403	80.008	19.995	103.345	20.029	3.108	0.342
78.000	123.100	80.006	19.994	103.360	20.027	3.228	0.356
79.999	123.800	80.007	19.994	103.357	20.029	3.114	0.330
81.999	124.462	80.006	19.994	103.363	20.028	3.169	0.346
84.001	125.190	80.006	19.994	103.366	20.031	3.009	0.350
85.999	125.931	80.006	19.994	103.367	20.026	3.296	0.352
88.000	126.636	80.004	19.995	103.369	20.028	3.189	0.361
89.999	127.441	80.005	19.994	103.368	20.029	3.119	0.410
91.999	128.133	80.005	19.994	103.370	20.028	3.165	0.384
94.000	128.954	80.005	19.994	103.370	20.026	3.281	0.417
95.999	129.690	80.005	19.993	103.368	20.025	3.414	0.391
97.999	130.505	80.006	19.993	103.369	20.023	3.489	0.376
99.999	131.308	80.007	19.995	103.370	20.024	3.417	0.418
101.999	132.090	80.008	19.994	103.366	20.026	3.285	0.395
103.999	132.905	80.009	19.993	103.364	20.028	3.151	0.395
105.999	133.709	80.008	19.995	103.366	20.030	3.073	0.416
108.000	134.551	80.008	19.994	103.367	20.034	2.770	0.428
109.999	135.392	80.008	19.993	103.366	20.033	2.871	0.421
111.999	136.187	80.008	19.994	103.367	20.033	2.847	0.419
114.000	137.092	80.007	19.994	103.370	20.030	3.015	0.465
115.999	137.953	80.009	19.993	103.367	20.032	2.880	0.438
117.999	138.831	80.007	19.994	103.372	20.029	3.101	0.426
120.000	139.705	80.008	19.996	103.369	20.027	3.219	0.476
122.000	140.626	80.008	19.995	103.370	20.032	2.923	0.481
123.999	141.481	80.009	19.994	103.370	20.028	3.187	0.455
125.999	142.363	80.009	19.995	103.372	20.032	2.928	0.443
127.999	143.326	80.010	19.994	103.372	20.025	3.369	0.458
130.000	144.166	80.010	19.995	103.369	20.027	3.224	0.449
132.000	145.120	80.011	19.995	103.377	20.032	2.926	0.459
134.000	146.055	80.009	19.994	103.368	20.033	2.812	0.490
136.000	146.955	80.010	19.995	103.367	20.028	3.182	0.462
138.000	147.875	80.007	19.995	103.368	20.030	3.050	0.469
140.000	148.809	80.007	19.995	103.370	20.033	2.851	0.447
142.000	149.792	80.007	19.995	103.370	20.032	2.880	0.484
144.000	150.726	80.006	19.994	103.370	20.027	3.245	0.456
146.000	151.696	80.004	19.992	103.370	20.025	3.359	0.459
148.000	152.626	80.007	19.998	103.374	20.031	3.007	0.492
150.000	153.573	80.006	19.996	103.373	20.029	3.092	0.461
152.001	154.547	80.007	19.995	103.374	20.033	2.864	0.459
154.000	155.506	80.006	19.996	103.372	20.033	2.867	0.487
156.000	156.511	80.007	19.995	103.373	20.033	2.862	0.498
158.000	157.489	80.006	19.994	103.369	20.027	3.215	0.456
160.000	158.430	80.006	19.994	103.369	20.028	3.178	0.460
162.000	159.434	80.007	19.995	103.369	20.028	3.200	0.497
164.000	160.395	80.008	19.995	103.370	20.030	3.014	0.491
166.000	161.389	80.008	19.995	103.370	20.030	3.029	0.484
168.000	162.374	80.006	19.996	103.372	20.034	2.808	0.472
170.000	163.401	80.008	19.995	103.370	20.027	3.217	0.489
172.000	164.421	80.007	19.994	103.366	20.025	3.360	0.520
174.000	165.439	80.007	19.994	103.366	20.035	2.724	0.486
176.000	166.455	80.007	19.996	103.364	20.033	2.865	0.525
178.000	167.447	80.006	19.995	103.364	20.027	3.248	0.512
180.000	168.432	80.005	19.994	103.365	20.034	2.805	0.487
182.000	169.473	80.007	19.995	103.366	20.031	2.964	0.499
184.000	170.485	80.008	19.994	103.367	20.037	2.587	0.500
186.000	171.462	80.008	19.995	103.366	20.030	3.045	0.484
188.000	172.504	80.008	19.994	103.362	20.031	3.008	0.517
190.000	173.492	80.007	19.994	103.365	20.028	3.167	0.511
192.000	174.519	80.007	19.994	103.358	20.038	2.512	0.476
194.000	175.564	80.009	19.995	103.354	20.030	3.041	0.501
196.000	176.513	80.007	19.994	103.356	20.034	2.762	0.480
198.000	177.587	80.008	19.995	103.356	20.039	2.428	0.540
200.000	178.584	80.006	19.994	103.353	20.034	2.795	0.505
202.000	179.594	80.006	19.993	103.346	20.033	2.832	0.476
204.000	180.607	80.008	19.992	103.345	20.034	2.810	0.507
206.000	181.623	80.007	19.993	103.344	20.035	2.696	0.523
208.000	182.645	80.007	19.992	103.359	20.036	2.626	0.527
210.000	183.636	80.009	19.995	103.357	20.039	2.451	0.485
212.000	184.661	80.009	19.993	103.360	20.037	2.593	0.497
214.000	185.675	80.010	19.994	103.353	20.035	2.686	0.497
216.000	186.718	80.010	19.994	103.345	20.037	2.591	0.520
218.000	187.766	80.011	19.994	103.335	20.032	2.896	0.553
220.000	188.761	80.007	19.995	103.338	20.037	2.557	0.530
222.000	189.758	80.007	19.994	103.339	20.034	2.760	0.516
224.000	190.810	80.006	19.993	103.335	20.038	2.476	0.537
226.000	191.738	80.006	19.994	103.334	20.034	2.782	0.459
228.000	192.813	80.007	19.995	103.331	20.037	2.579	0.507
230.000	193.800	80.007	19.995	103.333	20.036	2.631	0.523
232.000	194.763	80.007	19.994	103.330	20.035	2.734	0.489
234.000	195.770	80.006	19.994	103.328	20.036	2.664	0.501
236.000	196.773	80.006	19.994	103.329	20.034	2.794	0.515
238.000	197.792	80.006	19.995	103.326	20.038	2.513	0.512
240.000	198.739	80.007	19.994	103.331	20.040	2.405	0.461
242.000	199.689	80.006	19.995	103.328	20.032	2.905	0.475
244.000	200.706	80.005	19.995	103.326	20.037	2.566	0.510
246.000	201.674	80.006	19.996	103.325	20.041	2.298	0.500
248.000	202.668	80.005	19.994	103.324	20.035	2.682	0.478
250.000	203.651	80.007	19.995	103.325	20.034	2.802	0.492
252.000	204.700	80.006	19.997	103.326	20.034	2.745	0.507
254.000	205.644	80.007	19.996	103.326	20.038	2.539	0.475
256.000	206.641	80.006	19.995	103.327	20.031	2.954	0.478
258.000	207.643	80.007	19.995	103.327	20.028	3.147	0.519
260.000	208.654	80.008	19.995	103.327	20.033	2.862	0.517
262.000	209.598	80.007	19.995	103.324	20.027	3.234	0.459
264.000	210.632	80.006	19.994	103.326	20.030	3.072	0.476
266.000	211.613	80.006	19.993	103.326	20.032	2.881	0.504
268.000	212.560	80.008	19.994	103.325	20.027	3.214	0.475
270.000	213.560	80.008	19.993	103.324	20.036	2.660	0.522
272.000	214.514	80.006	19.994	103.328	20.022	3.563	0.481
274.000	215.485	80.009	19.994	103.327	20.031	2.997	0.497
276.000	216.477	80.008	19.995	103.321	20.033	2.822	0.471
278.000	217.475	80.006	19.994	103.324	20.029	3.080	0.497
280.000	218.471	80.006	19.994	103.329	20.030	3.059	0.495
282.000	219.444	80.007	19.994	103.326	20.024	3.431	0.462
284.000	220.454	80.007	19.994	103.326	20.025	3.405	0.520
286.000	221.406	80.008	19.994	103.329	20.023	3.523	0.480
288.000	222.397	80.007	19.994	103.330	20.026	3.300	0.516
290.000	223.364	80.008	19.994	103.330	20.027	3.258	0.484
292.000	224.381	80.008	19.993	103.329	20.023	3.495	0.498
294.000	225.375	80.010	19.994	103.329	20.023	3.493	0.452
296.000	226.342	80.009	19.994	103.330	20.024	3.466	0.513
298.000	227.366	80.010	19.993	103.329	20.021	3.668	0.501
300.000	228.325	80.009	19.995	103.327	20.024	3.465	0.500
302.000	229.376	80.008	19.994	103.326	20.020	3.705	0.507
304.000	230.342	80.007	19.995	103.324	20.022	3.598	0.484
306.000	231.275	80.007	19.994	103.325	20.016	3.956	0.471
308.000	232.317	80.006	19.995	103.326	20.015	4.017	0.483
310.000	233.312	80.007	19.995	103.326	20.018	3.866	0.517
312.000	234.348	80.007	19.995	103.326	20.016	3.966	0.549
314.000	235.291	80.006	19.994	103.326	20.013	4.205	0.478
316.000	236.339	80.005	19.995	103.324	20.010	4.364	0.502
318.000	237.306	80.007	19.996	103.326	20.017	3.940	0.496
320.000	238.303	80.007	19.996	103.328	20.010	4.363	0.520
322.000	239.249	80.007	19.996	103.323	20.010	4.418	0.488
324.000	240.261	80.005	19.995	103.327	20.007	4.591	0.487
326.000	241.241	80.006	19.994	103.324	20.001	4.971	0.494
328.000	242.234	80.006	19.995	103.333	20.002	4.889	0.478
330.000	243.225	80.006	19.996	103.329	20.002	4.935	0.502
332.000	244.277	80.007	19.995	103.326	20.002	4.911	0.527
334.000	245.232	80.006	19.994	103.326	20.002	4.929	0.486
336.000	246.268	80.004	19.995	103.328	20.001	5.008	0.491
338.000	247.202	80.004	19.995	103.330	20.001	5.014	0.498
340.000	248.138	80.004	19.995	103.330	19.995	5.396	0.450
342.000	249.192	80.004	19.995	103.330	19.993	5.527	0.521
344.000	250.233	80.005	19.995	103.331	19.985	6.034	0.512
346.000	251.233	80.007	19.995	103.329	19.988	5.841	0.503
348.000	252.242	80.005	19.995	103.329	19.982	6.296	0.481
350.000	253.241	80.007	19.994	103.333	19.979	6.446	0.506
352.000	254.226	80.008	19.993	103.329	19.973	6.868	0.502
354.000	255.219	80.009	19.995	103.329	19.973	6.890	0.494
356.000	256.229	80.006	19.994	103.331	19.968	7.199	0.521
358.000	257.243	80.007	19.993	103.338	19.967	7.250	0.490
360.000	258.232	80.007	19.995	103.335	19.970	7.079	0.488
362.000	259.227	80.005	19.995	103.337	19.961	7.663	0.483
364.000	260.212	80.008	19.994	103.338	19.954	8.112	0.514
366.000	261.207	80.008	19.995	103.344	19.951	8.317	0.480
368.000	262.208	80.007	19.994	103.341	19.948	8.546	0.525
370.000	263.200	80.008	19.994	103.341	19.947	8.634	0.475
372.000	264.236	80.007	19.994	103.352	19.939	9.140	0.499
374.000	265.251	80.008	19.994	103.346	19.938	9.194	0.544
376.000	266.218	80.009	19.995	103.342	19.937	9.297	0.476
378.000	267.167	80.009	19.994	103.359	19.925	10.119	0.472
380.000	268.217	80.009	19.993	103.358	19.924	10.145	0.480
382.000	269.212	80.009	19.994	103.361	19.919	10.495	0.483
384.000	270.236	80.011	19.993	103.362	19.912	10.977	0.534
386.000	271.274	80.009	19.993	103.365	19.908	11.193	0.512
388.000	272.277	80.008	19.995	103.368	19.900	11.753	0.549
390.000	273.252	80.009	19.994	103.369	19.896	12.014	0.474
392.000	274.287	80.006	19.994	103.366	19.884	12.866	0.472
394.000	275.291	80.006	19.994	103.371	19.878	13.222	0.483
396.000	276.288	80.007	19.994	103.366	19.873	13.594	0.484
398.000	277.306	80.007	19.993	103.368	19.865	14.099	0.471
400.000	278.304	80.007	19.994	103.370	19.859	14.496	0.491
402.000	279.318	80.008	19.994	103.372	19.851	15.024	0.495
404.000	280.317	80.007	19.994	103.376	19.840	15.815	0.508
406.000	281.280	80.007	19.995	103.379	19.835	16.145	0.461
408.000	282.278	80.007	19.996	103.387	19.828	16.622	0.469
410.000	283.302	80.007	19.995	103.393	19.819	17.228	0.466
412.000	284.298	80.006	19.994	103.403	19.813	17.610	0.519
414.000	285.357	80.006	19.996	103.400	19.799	18.543	0.532
416.000	286.370	80.007	19.995	103.408	19.792	18.999	0.511
418.000	287.381	80.006	19.993	103.408	19.786	19.439	0.520
420.000	288.330	80.006	19.995	103.410	19.778	19.928	0.476
422.000	289.349	80.006	19.993	103.411	19.776	20.068	0.510
424.000	290.373	80.006	19.994	103.411	19.759	21.243	0.545
426.000	291.351	80.006	19.994	103.411	19.750	21.854	0.493
428.000	292.388	80.004	19.994	103.419	19.740	22.481	0.482
430.000	293.443	80.007	19.994	103.414	19.727	23.366	0.514
432.000	294.406	80.007	19.995	103.425	19.722	23.686	0.513
434.000	295.440	80.008	19.996	103.436	19.711	24.439	0.527
436.000	296.451	80.008	19.996	103.430	19.701	25.123	0.512
438.000	297.632	80.008	19.995	103.436	19.690	25.878	0.708
440.000	298.364	80.007	19.995	103.442	19.678	26.674	0.652
442.000	299.453	80.007	19.996	103.445	19.666	27.477	0.365
444.000	300.432	80.006	19.995	103.444	19.661	27.822	0.441
446.000	301.530	80.007	19.994	103.448	19.646	28.823	0.500
448.000	302.427	80.007	19.995	103.450	19.637	29.414	0.556
450.000	303.487	80.006	19.994	103.457	19.625	30.204	0.471
452.000	304.471	80.008	19.995	103.457	19.616	30.806	0.496
454.000	305.523	80.007	19.994	103.459	19.600	31.908	0.502
456.000	306.469	80.009	19.994	103.461	19.590	32.566	0.517
458.000	307.499	80.009	19.995	103.474	19.582	33.149	0.469
460.000	308.535	80.009	19.993	103.481	19.577	33.461	0.491
462.000	309.552	80.010	19.995	103.483	19.562	34.469	0.492
464.000	310.586	80.010	19.994	103.480	19.552	35.175	0.480
466.000	311.620	80.008	19.994	103.482	19.538	36.075	0.507
468.000	312.658	80.007	19.994	103.487	19.525	36.928	0.525
470.000	313.666	80.007	19.994	103.487	19.520	37.330	0.526
472.000	314.661	80.009	19.994	103.488	19.506	38.232	0.502
474.000	315.705	80.008	19.996	103.493	19.494	39.040	0.489
476.000	316.737	80.006	19.994	103.510	19.486	39.560	0.538
478.000	317.765	80.006	19.995	103.514	19.478	40.140	0.498
480.000	318.772	80.005	19.995	103.525	19.458	41.467	0.508
482.000	319.769	80.007	19.993	103.524	19.453	41.819	0.493
484.000	320.804	80.007	19.995	103.524	19.438	42.835	0.503
486.000	321.853	80.007	19.994	103.529	19.426	43.605	0.489
488.000	322.882	80.007	19.994	103.537	19.413	44.527	0.512
490.000	323.873	80.006	19.993	103.536	19.399	45.444	0.498
492.000	324.903	80.006	19.995	103.553	19.385	46.386	0.526
494.000	325.944	80.008	19.994	103.559	19.371	47.348	0.532
496.000	326.950	80.005	19.995	103.559	19.353	48.510	0.500
498.000	327.957	80.008	19.995	103.562	19.336	49.683	0.537
500.000	328.975	80.007	19.995	103.563	19.322	50.645	0.491
502.000	329.972	80.007	19.995	103.568	19.307	51.634	0.529
504.000	330.984	80.005	19.996	103.570	19.292	52.636	0.494
506.000	332.025	80.005	19.994	103.571	19.273	53.929	0.493
508.000	333.057	80.006	19.996	103.585	19.253	55.254	0.519
510.000	334.040	80.007	19.995	103.599	19.234	56.544	0.487
512.000	335.082	80.007	19.995	103.599	19.212	58.059	0.493
514.000	336.120	80.008	19.996	103.599	19.196	59.111	0.497
516.000	337.101	80.008	19.994	103.609	19.177	60.391	0.470
518.000	338.177	80.009	19.994	103.624	19.153	62.046	0.549
520.000	339.109	80.009	19.995	103.635	19.133	63.346	0.503
522.000	340.148	80.009	19.995	103.638	19.114	64.631	0.515
524.000	341.117	80.008	19.995	103.639	19.097	65.815	0.471
526.000	342.113	80.008	19.994	103.640	19.068	67.712	0.508
528.000	343.078	80.007	19.994	103.656	19.049	69.020	0.498
530.000	344.139	80.006	19.995	103.651	19.031	70.204	0.494
532.000	345.141	80.007	19.995	103.670	19.007	71.818	0.490
534.000	346.162	80.008	19.996	103.670	18.990	72.977	0.517
536.000	347.167	80.008	19.996	103.663	18.976	73.956	0.535
538.000	348.127	80.008	19.996	103.679	18.953	75.445	0.473
540.000	349.170	80.008	19.995	103.679	18.945	75.969	0.511
542.000	350.206	80.010	19.995	103.679	18.935	76.689	0.512
544.000	351.182	80.009	19.993	103.675	18.919	77.710	0.494
546.000	352.163	80.009	19.993	103.677	18.916	77.943	0.516
548.000	353.228	80.010	19.994	103.664	18.910	78.337	0.520
550.000	354.167	80.008	19.994	103.651	18.912	78.181	0.490
552.000	355.186	80.009	19.995	103.641	18.917	77.796	0.473
554.000	356.179	80.007	19.995	103.633	18.928	77.039	0.486
556.000	357.186	80.008	19.994	103.611	18.942	76.115	0.464
558.000	358.234	80.007	19.995	103.605	18.950	75.531	0.537
560.000	359.224	80.007	19.994	103.591	18.976	73.794	0.498
562.000	360.211	80.007	19.996	103.575	19.005	71.821	0.480
564.000	361.212	80.005	19.996	103.549	19.033	69.947	0.512
566.000	362.202	80.008	19.994	103.530	19.073	67.215	0.467
568.000	363.246	80.006	19.996	103.521	19.109	64.838	0.510
570.000	364.234	80.007	19.995	103.496	19.154	61.785	0.491
572.000	365.297	80.007	19.995	103.476	19.201	58.653	0.476
574.000	366.368	80.008	19.995	103.445	19.250	55.326	0.528
576.000	367.349	80.006	19.994	103.415	19.294	52.348	0.528
578.000	368.347	80.008	19.994	103.402	19.354	48.311	0.455
580.000	369.418	80.009	19.995	103.382	19.405	44.902	0.552
582.000	370.416	80.009	19.995	103.367	19.459	41.326	0.507
584.000	371.462	80.007	19.993	103.345	19.515	37.540	0.537
586.000	372.488	80.006	19.994	103.330	19.565	34.195	0.545
588.000	373.535	80.007	19.995	103.319	19.613	31.015	0.509
590.000	374.622	80.006	19.994	103.300	19.661	27.742	0.536
592.000	375.625	80.006	19.995	103.291	19.703	24.923	0.543
594.000	376.642	80.007	19.995	103.290	19.744	22.198	0.502
596.000	377.625	80.006	19.994	103.290	19.780	19.824	0.450
598.000	378.739	80.008	19.995	103.286	19.811	17.728	0.514
600.000	379.703	80.009	19.994	103.288	19.839	15.840	0.503
602.000	380.792	80.007	19.996	103.279	19.864	14.135	0.550
604.000	381.794	80.009	19.995	103.278	19.884	12.842	0.501
606.000	382.800	80.007	19.995	103.278	19.904	11.455	0.496
608.000	383.815	80.009	19.995	103.280	19.918	10.575	0.512
610.000	384.816	80.008	19.994	103.278	19.927	9.910	0.498
612.000	385.878	80.008	19.996	103.281	19.937	9.299	0.534
614.000	386.847	80.008	19.994	103.271	19.949	8.479	0.499
616.000	387.925	80.008	19.995	103.272	19.951	8.325	0.535
618.000	388.931	80.006	19.995	103.278	19.951	8.327	0.499
620.000	389.909	80.007	19.994	103.282	19.960	7.702	0.483
622.000	390.935	80.009	19.995	103.277	19.965	7.424	0.501
624.000	391.984	80.008	19.995	103.285	19.965	7.422	0.538
626.000	393.019	80.008	19.994	103.281	19.970	7.031	0.499
628.000	394.041	80.007	19.995	103.283	19.966	7.308	0.531
630.000	395.082	80.010	19.996	103.284	19.969	7.137	0.515
632.000	396.044	80.009	19.996	103.279	19.971	6.970	0.496
634.000	397.072	80.008	19.995	103.277	19.970	7.056	0.524
636.000	398.096	80.006	19.994	103.267	19.972	6.895	0.501
638.000	399.092	80.006	19.995	103.281	19.975	6.703	0.510
640.000	400.132	80.006	19.995	103.282	19.968	7.183	0.498
642.000	401.087	80.006	19.994	103.274	19.971	6.970	0.481
644.000	402.130	80.007	19.995	103.279	19.975	6.698	0.524
646.000	403.115	80.008	19.995	103.264	19.977	6.564	0.475
648.000	404.153	80.006	19.994	103.263	19.976	6.653	0.504
650.000	405.154	80.006	19.995	103.278	19.977	6.584	0.481
652.000	406.111	80.006	19.994	103.277	19.979	6.449	0.476
654.000	407.078	80.006	19.994	103.277	19.979	6.489	0.469
656.000	408.140	80.008	19.995	103.277	19.978	6.554	0.495
658.000	409.145	80.006	19.995	103.280	19.975	6.723	0.510
660.000	410.165	80.006	19.995	103.287	19.979	6.493	0.513
662.000	411.175	80.007	19.996	103.280	19.979	6.486	0.510
664.000	412.181	80.007	19.995	103.265	19.977	6.571	0.482
666.000	413.164	80.006	19.996	103.270	19.984	6.130	0.484
668.000	414.164	80.004	19.994	103.270	19.983	6.210	0.473
670.000	415.104	80.006	19.995	103.279	19.983	6.170	0.477
672.000	416.095	80.007	19.995	103.281	19.981	6.312	0.490
674.000	417.126	80.006	19.995	103.266	19.986	6.021	0.508
676.000	418.128	80.007	19.996	103.274	19.984	6.142	0.496
678.000	419.118	80.007	19.993	103.270	19.981	6.356	0.498
680.000	420.148	80.008	19.994	103.268	19.985	6.029	0.505
682.000	421.114	80.008	19.994	103.267	19.986	5.977	0.479
684.000	422.150	80.009	19.994	103.274	19.987	5.916	0.508
686.000	423.134	80.008	19.994	103.266	19.987	5.903	0.483
688.000	424.129	80.009	19.994	103.263	19.989	5.793	0.490
690.000	425.177	80.008	19.995	103.275	19.990	5.703	0.513
692.000	426.141	80.007	19.994	103.271	19.987	5.906	0.477
694.000	427.167	80.007	19.994	103.257	19.988	5.833	0.501
696.000	428.154	80.008	19.996	103.254	19.987	5.941	0.515
698.000	429.188	80.009	19.996	103.264	19.996	5.344	0.516
700.000	430.211	80.007	19.995	103.258	19.996	5.350	0.518
702.000	431.247	80.008	19.995	103.258	19.996	5.326	0.539
704.000	432.225	80.009	19.996	103.251	19.995	5.405	0.506
706.000	433.260	80.009	19.995	103.256	19.998	5.212	0.512
708.000	434.270	80.010	19.995	103.248	19.993	5.521	0.526
710.000	435.303	80.011	19.994	103.252	19.991	5.627	0.544
712.000	436.344	80.009	19.996	103.250	19.997	5.227	0.527
714.000	437.343	80.009	19.994	103.250	19.998	5.160	0.488
716.000	438.338	80.010	19.994	103.249	19.997	5.254	0.509
718.000	439.360	80.008	19.996	103.251	20.000	5.049	0.506
720.000	440.357	80.005	19.995	103.250	19.998	5.164	0.510
722.000	441.391	80.008	19.996	103.250	20.003	4.854	0.522
724.000	442.346	80.008	19.996	103.248	20.002	4.896	0.512
726.000	443.352	80.004	19.996	103.248	20.002	4.944	0.481
728.000	444.374	80.007	19.996	103.255	20.004	4.773	0.494
730.000	445.424	80.006	19.997	103.260	20.001	4.973	0.527
732.000	446.397	80.007	19.997	103.250	20.004	4.786	0.511
734.000	447.395	80.007	19.996	103.253	20.006	4.637	0.516
736.000	448.409	80.008	19.994	103.254	20.010	4.371	0.496
738.000	449.456	80.008	19.995	103.258	20.006	4.637	0.531
740.000	450.432	80.008	19.994	103.250	20.009	4.437	0.493
742.000	451.432	80.007	19.994	103.252	20.009	4.466	0.464
744.000	452.445	80.007	19.994	103.252	20.014	4.101	0.520
746.000	453.475	80.007	19.994	103.253	20.014	4.141	0.530
748.000	454.493	80.006	19.994	103.253	20.013	4.189	0.495
750.000	455.523	80.006	19.994	103.251	20.013	4.176	0.521
752.000	456.517	80.006	19.994	103.255	20.018	3.878	0.498
754.000	457.516	80.007	19.995	103.256	20.020	3.731	0.503
756.000	458.514	80.006	19.995	103.255	20.022	3.551	0.492
758.000	459.576	80.006	19.995	103.252	20.019	3.770	0.508
760.000	460.570	80.007	19.995	103.258	20.020	3.737	0.491
762.000	461.603	80.008	19.996	103.250	20.023	3.529	0.510
764.000	462.592	80.006	19.994	103.250	20.021	3.619	0.514
766.000	463.626	80.009	19.996	103.250	20.025	3.397	0.539
768.000	464.604	80.009	19.995	103.251	20.026	3.307	0.489
770.000	465.633	80.010	19.994	103.249	20.031	2.947	0.495
772.000	466.638	80.009	19.995	103.248	20.029	3.094	0.507
774.000	467.645	80.008	19.994	103.247	20.027	3.242	0.519
776.000	468.660	80.007	19.994	103.250	20.030	3.029	0.535
778.000	469.686	80.008	19.995	103.248	20.030	3.072	0.512
780.000	470.730	80.008	19.995	103.249	20.026	3.340	0.495
782.000	471.722	80.008	19.995	103.248	20.027	3.226	0.493
784.000	472.759	80.007	19.996	103.246	20.029	3.084	0.524
786.000	473.788	80.009	19.996	103.248	20.028	3.189	0.511
788.000	474.848	80.009	19.995	103.250	20.032	2.925	0.540
790.000	475.863	80.010	19.996	103.252	20.030	3.011	0.521
792.000	476.889	80.012	19.994	103.249	20.033	2.842	0.496
794.000	477.911	80.010	19.995	103.248	20.034	2.759	0.490
796.000	478.976	80.008	19.993	103.249	20.030	3.051	0.534
798.000	480.025	80.010	19.994	103.248	20.030	3.033	0.515
800.000	481.068	80.008	19.995	103.250	20.033	2.824	0.557
802.000	482.058	80.008	19.994	103.244	20.035	2.682	0.513
804.000	483.115	80.007	19.994	103.254	20.034	2.752	0.525
806.000	484.177	80.008	19.993	103.255	20.036	2.620	0.521
808.000	485.212	80.007	19.994	103.250	20.036	2.653	0.506
810.000	486.246	80.007	19.995	103.250	20.035	2.682	0.527
812.000	487.306	80.007	19.995	103.250	20.037	2.607	0.514
814.000	488.303	80.006	19.995	103.250	20.039	2.410	0.530
816.000	489.393	80.006	19.995	103.250	20.033	2.869	0.516
818.000	490.393	80.007	19.995	103.249	20.038	2.485	0.501
820.000	491.467	80.007	19.997	103.248	20.037	2.563	0.537
822.000	492.439	80.007	19.996	103.244	20.035	2.723	0.506
824.000	493.500	80.007	19.995	103.241	20.036	2.618	0.526
826.000	494.554	80.007	19.996	103.239	20.037	2.594	0.524
828.000	495.574	80.008	19.995	103.245	20.036	2.629	0.528
830.000	496.620	80.008	19.995	103.246	20.037	2.546	0.518
832.000	497.657	80.006	19.995	103.245	20.040	2.355	0.511
834.000	498.679	80.007	19.994	103.248	20.044	2.083	0.523
836.000	499.758	80.007	19.994	103.242	20.045	2.013	0.537
838.000	500.835	80.008	19.995	103.233	20.043	2.202	0.543
840.000	501.894	80.007	19.995	103.249	20.044	2.111	0.556
842.000	502.949	80.006	19.995	103.243	20.044	2.078	0.478
844.000	504.018	80.009	19.995	103.243	20.046	1.947	0.541
846.000	505.065	80.008	19.996	103.248	20.046	1.942	0.540
848.000	506.145	80.010	19.994	103.244	20.044	2.103	0.529
850.000	507.195	80.010	19.994	103.236	20.045	2.041	0.510
852.000	508.308	80.008	19.994	103.244	20.044	2.098	0.536
854.000	509.400	80.009	19.994	103.237	20.043	2.155	0.542
856.000	510.451	80.009	19.995	103.242	20.043	2.175	0.561
858.000	511.490	80.009	19.994	103.236	20.044	2.131	0.514
860.000	512.537	80.007	19.995	103.237	20.046	1.960	0.512
862.000	513.615	80.007	19.995	103.244	20.050	1.727	0.539
864.000	514.702	80.008	19.994	103.242	20.047	1.886	0.547
866.000	515.763	80.006	19.993	103.242	20.047	1.927	0.546
868.000	516.824	80.008	19.995	103.243	20.050	1.721	0.528
870.000	517.887	80.010	19.994	103.240	20.045	2.007	0.546
872.000	518.963	80.010	19.994	103.232	20.050	1.712	0.555
874.000	520.018	80.008	19.993	103.233	20.047	1.879	0.526
876.000	521.030	80.010	19.994	103.221	20.046	1.980	0.508
878.000	522.111	80.009	19.993	103.227	20.048	1.835	0.509
880.000	523.207	80.009	19.994	103.223	20.044	2.081	0.551
882.000	524.243	80.008	19.994	103.215	20.047	1.894	0.526
884.000	525.313	80.006	19.995	103.229	20.049	1.778	0.544
886.000	526.320	80.007	19.996	103.231	20.046	1.938	0.503
888.000	527.335	80.006	19.996	103.218	20.046	1.941	0.526
890.000	528.378	80.007	19.996	103.230	20.050	1.682	0.522
892.000	529.475	80.007	19.996	103.218	20.046	1.967	0.545
894.000	530.504	80.006	19.994	103.224	20.050	1.677	0.524
896.000	531.522	80.007	19.994	103.217	20.048	1.851	0.525
898.000	532.618	80.008	19.995	103.227	20.046	1.987	0.541
900.000	533.570	80.006	19.994	103.224	20.050	1.717	0.495
902.000	534.658	80.007	19.995	103.226	20.056	1.313	0.518
904.000	535.716	80.006	19.996	103.230	20.053	1.506	0.522
906.000	536.664	80.007	19.995	103.237	20.054	1.409	0.494
908.000	537.775	80.007	19.996	103.225	20.051	1.640	0.534
910.000	538.783	80.007	19.995	103.224	20.053	1.491	0.512
912.000	539.837	80.007	19.996	103.216	20.052	1.583	0.555
914.000	540.847	80.007	19.996	103.218	20.051	1.646	0.526
916.000	541.879	80.006	19.995	103.220	20.056	1.322	0.532
918.000	542.891	80.006	19.996	103.225	20.052	1.539	0.504
920.000	543.899	80.005	19.996	103.225	20.049	1.778	0.540
922.000	544.908	80.007	19.995	103.227	20.050	1.728	0.507
924.000	545.916	80.006	19.996	103.241	20.050	1.728	0.509
926.000	546.927	80.007	19.993	103.235	20.052	1.548	0.468
928.000	547.994	80.007	19.996	103.232	20.053	1.470	0.536
930.000	549.005	80.009	19.994	103.233	20.056	1.302	0.529
932.000	550.011	80.009	19.994	103.242	20.056	1.291	0.517
934.000	551.024	80.008	19.994	103.229	20.056	1.280	0.538
936.000	552.048	80.009	19.995	103.224	20.054	1.464	0.516
938.000	553.017	80.008	19.994	103.229	20.051	1.666	0.486
940.000	554.063	80.009	19.995	103.245	20.051	1.636	0.530
942.000	555.074	80.008	19.994	103.231	20.056	1.311	0.521
944.000	556.110	80.009	19.995	103.235	20.055	1.401	0.517
946.000	557.094	80.007	19.994	103.241	20.053	1.484	0.512
948.000	558.092	80.008	19.994	103.216	20.054	1.464	0.502
950.000	559.108	80.007	19.995	103.217	20.050	1.669	0.500
952.000	560.102	80.009	19.995	103.220	20.053	1.515	0.494
954.000	561.134	80.009	19.994	103.217	20.056	1.330	0.531
956.000	562.124	80.010	19.995	103.225	20.055	1.350	0.477
958.000	563.183	80.010	19.994	103.233	20.057	1.218	0.516
960.000	564.135	80.010	19.994	103.222	20.058	1.135	0.492
962.000	565.104	80.009	19.994	103.220	20.059	1.084	0.489
964.000	566.114	80.009	19.994	103.223	20.056	1.293	0.533
966.000	567.108	80.008	19.994	103.217	20.059	1.128	0.524
968.000	568.134	80.008	19.995	103.221	20.059	1.111	0.516
970.000	569.173	80.009	19.995	103.220	20.060	1.010	0.490
972.000	570.133	80.007	19.995	103.219	20.059	1.098	0.501
974.000	571.168	80.008	19.995	103.226	20.060	1.012	0.510
976.000	572.225	80.008	19.994	103.227	20.060	1.021	0.523
978.000	573.252	80.007	19.995	103.225	20.060	1.032	0.515
980.000	574.225	80.007	19.996	103.222	20.058	1.135	0.496
982.000	575.317	80.007	19.996	103.223	20.060	1.007	0.527
984.000	576.315	80.007	19.996	103.240	20.058	1.135	0.514
986.000	577.352	80.006	19.994	103.214	20.059	1.085	0.548
988.000	578.374	80.007	19.996	103.223	20.059	1.073	0.533
990.000	579.381	80.007	19.995	103.226	20.060	1.014	0.482
992.000	580.445	80.006	19.995	103.237	20.060	1.027	0.555
994.000	581.492	80.006	19.995	103.243	20.057	1.266	0.517
996.000	582.546	80.007	19.994	103.226	20.059	1.120	0.526
998.000	583.522	80.006	19.995	103.221	20.056	1.282	0.466
1000.000	584.575	80.007	19.995	103.221	20.060	1.062	0.494
1002.000	585.618	80.005	19.996	103.219	20.058	1.175	0.504
1004.000	586.673	80.004	19.996	103.228	20.060	1.038	0.516
1006.000	587.703	80.006	19.995	103.230	20.062	0.926	0.512
1008.000	588.765	80.007	19.995	103.215	20.057	1.225	0.534
1010.000	589.779	80.006	19.995	103.223	20.057	1.253	0.508
1012.000	590.833	80.007	19.995	103.219	20.055	1.370	0.519
1014.000	591.902	80.007	19.996	103.214	20.058	1.177	0.536
1016.000	592.925	80.008	19.997	103.215	20.058	1.181	0.502
1018.000	593.997	80.008	19.995	103.220	20.057	1.243	0.546
1020.000	595.043	80.008	19.994	103.216	20.057	1.252	0.504
1022.000	596.082	80.008	19.995	103.221	20.056	1.295	0.502
1024.000	597.066	80.007	19.995	103.212	20.056	1.313	0.479
1025.999	598.100	80.008	19.994	103.217	20.054	1.451	0.507
1028.000	599.104	80.008	19.996	103.213	20.057	1.208	0.492
1030.000	600.125	80.007	19.995	103.216	20.057	1.201	0.494
1031.999	601.122	80.007	19.994	103.214	20.058	1.135	0.498
1034.000	602.134	80.008	19.994	103.211	20.060	1.027	0.526
1035.999	603.148	80.008	19.994	103.220	20.061	0.955	0.509
1037.999	604.144	80.008	19.993	103.213	20.062	0.911	0.501
1040.000	605.104	80.010	19.994	103.212	20.059	1.067	0.485
1041.999	606.141	80.010	19.994	103.210	20.058	1.159	0.507
1043.999	607.152	80.010	19.994	103.209	20.060	1.054	0.502
1045.999	608.162	80.008	19.994	103.217	20.062	0.922	0.508
1047.999	609.206	80.008	19.994	103.212	20.064	0.762	0.537
1049.999	610.194	80.007	19.996	103.227	20.062	0.917	0.494
1051.999	611.201	80.010	19.995	103.214	20.058	1.185	0.505
1053.999	612.180	80.007	19.995	103.211	20.058	1.192	0.486
1055.999	613.236	80.008	19.994	103.219	20.057	1.242	0.527
1057.999	614.229	80.007	19.995	103.212	20.058	1.155	0.544
1059.999	615.256	80.008	19.994	103.221	20.062	0.872	0.519
1062.001	616.270	80.006	19.993	103.225	20.059	1.080	0.500
1064.001	617.238	80.007	19.995	103.226	20.062	0.882	0.500
1066.000	618.185	80.007	19.994	103.235	20.061	0.957	0.499
1068.000	619.183	80.008	19.995	103.219	20.062	0.917	0.511
1070.000	620.150	80.007	19.994	103.217	20.057	1.225	0.489
1072.000	621.177	80.007	19.995	103.222	20.061	0.935	0.490
1074.000	622.182	80.005	19.996	103.227	20.059	1.120	0.518
1076.000	623.225	80.005	19.995	103.227	20.059	1.097	0.515
1078.000	624.280	80.005	19.994	103.232	20.058	1.179	0.528
1080.000	625.249	80.006	19.996	103.239	20.056	1.293	0.504
1082.000	626.237	80.005	19.995	103.248	20.058	1.146	0.512
1084.000	627.298	80.007	19.996	103.244	20.055	1.399	0.504
1086.000	628.339	80.007	19.994	103.226	20.055	1.346	0.511
1088.000	629.427	80.007	19.996	103.228	20.055	1.348	0.527
1090.000	630.433	80.006	19.996	103.229	20.056	1.322	0.506
1092.000	631.498	80.007	19.996	103.234	20.059	1.109	0.525
1094.000	632.529	80.008	19.995	103.230	20.058	1.142	0.548
1096.000	633.614	80.007	19.995	103.211	20.062	0.922	0.555
1098.000	634.623	80.008	19.995	103.211	20.059	1.133	0.533
1100.000	635.672	80.008	19.996	103.227	20.061	0.946	0.522
1102.000	636.727	80.007	19.996	103.216	20.059	1.109	0.528
1104.000	637.783	80.008	19.995	103.228	20.062	0.911	0.496
1106.000	638.867	80.007	19.994	103.236	20.059	1.131	0.505
1108.000	639.907	80.007	19.995	103.218	20.061	0.964	0.521
1110.000	640.993	80.008	19.996	103.217	20.066	0.632	0.575
1112.000	642.020	80.008	19.995	103.210	20.058	1.190	0.524
1114.000	643.058	80.008	19.995	103.217	20.057	1.221	0.529
1116.000	644.039	80.008	19.995	103.226	20.058	1.155	0.490
1118.000	645.113	80.010	19.994	103.226	20.061	0.937	0.519
1120.000	646.113	80.010	19.995	103.221	20.060	1.058	0.530
1122.000	647.124	80.009	19.995	103.213	20.059	1.111	0.498
1124.000	648.164	80.011	19.994	103.217	20.056	1.284	0.549
1126.001	649.170	80.009	19.993	103.218	20.061	0.995	0.508
1128.000	650.155	80.011	19.994	103.227	20.059	1.067	0.473
1130.000	651.179	80.008	19.995	103.225	20.059	1.109	0.510
1132.000	652.232	80.007	19.995	103.247	20.057	1.267	0.538
1134.000	653.210	80.007	19.994	103.234	20.057	1.240	0.487
1136.000	654.261	80.007	19.993	103.215	20.061	0.942	0.514
1138.000	655.282	80.005	19.995	103.222	20.058	1.148	0.536
1140.001	656.301	80.006	19.994	103.226	20.059	1.115	0.504
1142.000	657.265	80.007	19.995	103.231	20.056	1.273	0.495
1144.000	658.354	80.006	19.994	103.227	20.058	1.198	0.509
1146.000	659.315	80.006	19.994	103.226	20.060	1.062	0.543
1148.000	660.325	80.008	19.996	103.225	20.060	1.019	0.509
1150.000	661.342	80.008	19.995	103.240	20.063	0.854	0.512
1152.000	662.278	80.009	19.994	103.229	20.060	1.021	0.469
1154.000	663.276	80.008	19.994	103.219	20.065	0.725	0.477
1156.001	664.233	80.008	19.994	103.224	20.061	0.966	0.470
1158.000	665.159	80.008	19.994	103.212	20.061	0.972	0.475
1160.000	666.166	80.007	19.994	103.210	20.061	0.994	0.514
1162.000	667.054	80.008	19.995	103.222	20.061	0.996	0.458
1164.000	667.978	80.009	19.996	103.216	20.064	0.760	0.483
1166.000	668.865	80.005	19.994	103.213	20.062	0.895	0.483
1168.000	669.818	80.006	19.996	103.230	20.067	0.566	0.475
1170.000	670.677	80.008	19.995	103.225	20.061	0.961	0.456
1172.000	671.571	80.007	19.995	103.234	20.061	0.957	0.449
1174.000	672.380	80.008	19.995	103.226	20.065	0.689	0.400
1176.000	673.341	80.009	19.996	103.235	20.063	0.834	0.460
1178.000	674.224	80.009	19.996	103.230	20.060	1.025	0.460
1180.000	675.103	80.010	19.995	103.234	20.061	0.976	0.414
1182.000	676.019	80.009	19.995	103.240	20.058	1.187	0.482
1184.000	676.898	80.010	19.994	103.235	20.061	0.975	0.450
1186.000	677.769	80.008	19.995	103.232	20.056	1.284	0.433
1188.000	678.759	80.008	19.995	103.245	20.058	1.159	0.451
1190.000	679.678	80.008	19.995	103.247	20.060	1.008	0.454
1192.000	680.604	80.007	19.995	103.246	20.059	1.122	0.472
1194.000	681.581	80.007	19.995	103.248	20.063	0.805	0.473
1196.000	682.528	80.007	19.995	103.237	20.062	0.876	0.463
1198.000	683.521	80.007	19.996	103.249	20.061	0.968	0.478
1200.000	684.531	80.007	19.994	103.229	20.058	1.156	0.511
1202.000	685.545	80.008	19.994	103.241	20.060	1.032	0.523
1204.000	686.536	80.009	19.996	103.236	20.061	0.992	0.483
1206.000	687.509	80.009	19.995	103.242	20.059	1.133	0.468
1208.000	688.602	80.008	19.995	103.244	20.059	1.128	0.519
1210.000	689.637	80.008	19.994	103.248	20.057	1.233	0.519
1212.000	690.632	80.007	19.993	103.245	20.057	1.216	0.510
1214.000	691.713	80.006	19.994	103.245	20.059	1.128	0.542
1216.000	692.744	80.007	19.994	103.246	20.061	0.946	0.526
1218.000	693.802	80.007	19.994	103.246	20.060	1.023	0.539
1220.000	694.832	80.006	19.994	103.242	20.058	1.135	0.528
1222.000	695.885	80.006	19.994	103.247	20.061	0.951	0.497
1224.000	696.944	80.005	19.994	103.239	20.061	0.938	0.526
1226.000	697.973	80.005	19.993	103.225	20.062	0.926	0.511
1228.000	699.007	80.007	19.995	103.242	20.060	1.065	0.505
1230.000	700.107	80.007	19.995	103.230	20.058	1.157	0.558
1232.000	701.110	80.008	19.995	103.228	20.060	1.034	0.501
1234.000	702.192	80.006	19.993	103.221	20.058	1.177	0.519
1236.000	703.198	80.008	19.993	103.213	20.062	0.882	0.494
1238.000	704.265	80.008	19.995	103.221	20.061	0.984	0.518
1240.000	705.347	80.008	19.995	103.212	20.063	0.808	0.572
1242.000	706.318	80.006	19.995	103.211	20.061	0.973	0.500
1244.000	707.321	80.007	19.995	103.212	20.062	0.871	0.473
1246.000	708.409	80.007	19.994	103.219	20.061	0.986	0.531
1248.000	709.476	80.008	19.994	103.219	20.060	1.056	0.539
1250.000	710.482	80.006	19.994	103.219	20.061	0.948	0.515
1252.000	711.523	80.008	19.995	103.214	20.062	0.878	0.536
1254.000	712.560	80.008	19.993	103.213	20.061	0.938	0.514
1256.000	713.544	80.007	19.994	103.218	20.064	0.764	0.494
1258.000	714.602	80.006	19.994	103.219	20.061	0.997	0.462
1260.000	715.624	80.009	19.994	103.219	20.060	1.012	0.516
1262.000	716.646	80.007	19.994	103.222	20.062	0.869	0.474
1264.000	717.718	80.009	19.995	103.213	20.063	0.823	0.508
1266.000	718.701	80.008	19.995	103.213	20.064	0.790	0.498
1268.000	719.709	80.006	19.995	103.213	20.062	0.927	0.531
1270.000	720.720	80.007	19.995	103.212	20.065	0.714	0.519
1272.000	721.712	80.006	19.996	103.211	20.064	0.762	0.493
1274.000	722.718	80.007	19.994	103.213	20.063	0.843	0.494
1276.000	723.712	80.006	19.994	103.212	20.066	0.654	0.510
1278.000	724.683	80.008	19.995	103.212	20.061	0.938	0.461
1280.000	725.694	80.008	19.994	103.212	20.064	0.793	0.494
1282.000	726.685	80.009	19.995	103.212	20.063	0.826	0.491
1284.000	727.648	80.009	19.995	103.203	20.064	0.768	0.472
1286.000	728.651	80.009	19.995	103.209	20.062	0.922	0.498
1288.000	729.606	80.010	19.996	103.208	20.061	0.948	0.468
1290.000	730.598	80.010	19.995	103.207	20.060	1.008	0.500
1292.000	731.576	80.007	19.993	103.204	20.061	0.979	0.485
1294.000	732.593	80.007	19.995	103.208	20.059	1.100	0.505
1296.000	733.535	80.005	19.995	103.207	20.060	1.043	0.484
1298.000	734.511	80.007	19.996	103.207	20.060	1.037	0.494
1300.000	735.493	80.007	19.996	103.208	20.061	0.997	0.466
1302.000	736.452	80.007	19.995	103.208	20.058	1.192	0.487
1304.001	737.403	80.006	19.994	103.210	20.059	1.111	0.466
1306.000	738.356	80.008	19.996	103.200	20.064	0.791	0.495
1308.000	739.304	80.007	19.994	103.185	20.061	0.997	0.470
1310.000	740.329	80.008	19.994	103.204	20.063	0.839	0.508
1312.000	741.255	80.008	19.994	103.206	20.065	0.685	0.492
1314.000	742.173	80.007	19.995	103.206	20.060	1.014	0.478
1316.000	743.137	80.006	19.994	103.208	20.062	0.926	0.494
1318.000	744.050	80.008	19.996	103.209	20.058	1.173	0.477