File: 01_Data/LW_GypBoard_Unpainted_Paper/MCC/LW_GypBoard_Unpainted_Paper_MCC_30K_min_211130_R3.txt
Sample ID:	C:\MCC\MCC Cal\Test\LW_GypBoard_Unpainted_Paper_MCC_30K_min_211130_R3.txt
Sample Weight (mg):	4.82
Heating Rate (C/s):	0.5
Combustor Temp (C):	900
N2 Flow Rate (cc/min):	80
O2 Flow Rate (cc/min):	20
Calibration File:	C:\MCC\MCC Cal\Coeff1 JN10440_30_210304.txt.txt
T Correction Coefficients:	0	1.024463	0
Time Shift (s):	14
*
Time (s)	Temperature (C)	N2 flow rate (cc/min)	O2 flow rate (cc/min)	Flow Rate (cc/min)	Oxygen (%)	HRR (W/g)	Heating rate (C/s)
-0.001	112.221	80.006	19.996	103.115	20.147	-0.293	-0.029
2.000	112.211	80.006	19.994	103.128	20.142	-0.022	-0.011
4.000	112.191	80.006	19.994	103.118	20.144	-0.143	0.000
6.000	112.229	80.005	19.994	103.093	20.149	-0.430	0.008
8.000	112.208	80.008	19.994	103.098	20.146	-0.278	0.015
10.000	112.197	80.008	19.994	103.117	20.143	-0.073	0.003
11.999	112.189	80.008	19.995	103.130	20.142	0.022	0.033
13.999	112.176	80.009	19.993	103.163	20.141	0.064	-0.033
16.000	112.251	80.006	19.994	103.169	20.136	0.380	0.011
18.000	112.286	80.007	19.994	103.172	20.136	0.383	0.013
20.000	112.371	80.006	19.994	103.169	20.134	0.565	0.031
22.000	112.415	80.005	19.994	103.175	20.126	1.088	-0.001
24.000	112.525	80.005	19.994	103.177	20.123	1.303	0.066
26.000	112.691	80.006	19.994	103.229	20.122	1.343	0.127
28.000	112.782	80.005	19.994	103.274	20.119	1.519	0.063
30.000	113.002	80.005	19.994	103.286	20.116	1.760	0.093
32.000	113.231	80.006	19.994	103.299	20.113	1.980	0.144
33.999	113.498	80.005	19.994	103.326	20.111	2.064	0.119
35.999	113.780	80.004	19.995	103.325	20.108	2.275	0.137
38.000	114.088	80.006	19.994	103.327	20.111	2.097	0.147
39.999	114.474	80.005	19.995	103.327	20.108	2.259	0.168
41.999	114.841	80.005	19.995	103.338	20.105	2.459	0.188
43.999	115.214	80.006	19.995	103.339	20.108	2.297	0.195
46.000	115.652	80.005	19.995	103.342	20.108	2.299	0.218
47.999	116.084	80.004	19.994	103.339	20.110	2.129	0.207
49.999	116.591	80.005	19.996	103.330	20.104	2.551	0.254
51.999	117.070	80.003	19.994	103.350	20.108	2.285	0.268
54.001	117.614	80.004	19.996	103.343	20.104	2.524	0.265
56.000	118.137	80.005	19.995	103.337	20.105	2.513	0.257
58.000	118.714	80.005	19.994	103.336	20.103	2.632	0.280
59.999	119.345	80.006	19.995	103.348	20.107	2.368	0.294
62.000	119.935	80.005	19.995	103.347	20.107	2.355	0.328
64.000	120.519	80.005	19.995	103.361	20.106	2.441	0.327
65.999	121.165	80.004	19.996	103.364	20.107	2.358	0.330
67.999	121.841	80.006	19.995	103.362	20.105	2.514	0.364
70.000	122.468	80.007	19.996	103.363	20.103	2.597	0.302
71.999	123.196	80.006	19.995	103.365	20.104	2.540	0.370
74.000	123.929	80.006	19.994	103.367	20.102	2.716	0.380
75.999	124.641	80.007	19.994	103.366	20.102	2.683	0.377
77.999	125.375	80.007	19.996	103.365	20.099	2.863	0.339
80.000	126.141	80.007	19.993	103.365	20.105	2.456	0.373
81.999	126.908	80.006	19.995	103.366	20.106	2.430	0.377
84.000	127.676	80.007	19.995	103.369	20.101	2.758	0.401
86.000	128.445	80.008	19.994	103.366	20.101	2.751	0.394
87.999	129.246	80.009	19.994	103.365	20.104	2.529	0.371
89.999	130.073	80.007	19.994	103.364	20.103	2.626	0.405
92.000	130.911	80.009	19.994	103.363	20.102	2.698	0.398
93.999	131.769	80.008	19.995	103.363	20.099	2.904	0.450
96.000	132.588	80.008	19.994	103.364	20.103	2.637	0.415
97.999	133.460	80.007	19.995	103.362	20.103	2.626	0.443
99.999	134.312	80.005	19.995	103.362	20.102	2.661	0.459
101.999	135.178	80.005	19.995	103.364	20.106	2.448	0.412
103.999	136.048	80.003	19.995	103.366	20.107	2.338	0.429
105.999	136.947	80.006	19.995	103.364	20.107	2.346	0.429
107.999	137.877	80.005	19.995	103.366	20.106	2.415	0.473
110.001	138.742	80.004	19.995	103.367	20.109	2.234	0.436
111.999	139.715	80.006	19.994	103.366	20.108	2.268	0.502
114.000	140.631	80.005	19.993	103.368	20.108	2.296	0.467
115.999	141.589	80.006	19.994	103.370	20.108	2.267	0.468
118.000	142.515	80.005	19.995	103.369	20.105	2.489	0.465
119.999	143.463	80.005	19.995	103.365	20.106	2.384	0.458
121.999	144.444	80.006	19.994	103.364	20.108	2.265	0.480
123.999	145.404	80.006	19.995	103.361	20.109	2.202	0.495
125.999	146.368	80.003	19.994	103.369	20.106	2.389	0.503
127.999	147.306	80.005	19.995	103.358	20.110	2.146	0.472
130.000	148.295	80.003	19.995	103.365	20.109	2.248	0.471
132.000	149.271	80.003	19.995	103.367	20.109	2.195	0.472
134.000	150.293	80.003	19.994	103.360	20.109	2.213	0.512
136.000	151.249	80.006	19.995	103.354	20.108	2.279	0.501
138.000	152.266	80.006	19.996	103.363	20.115	1.797	0.512
140.000	153.233	80.006	19.996	103.364	20.112	1.998	0.503
142.000	154.223	80.006	19.994	103.352	20.114	1.853	0.470
144.000	155.213	80.007	19.995	103.353	20.112	2.042	0.522
146.000	156.190	80.007	19.996	103.359	20.113	1.952	0.487
148.000	157.161	80.006	19.995	103.354	20.115	1.813	0.500
150.000	158.174	80.007	19.995	103.346	20.116	1.749	0.481
152.000	159.196	80.007	19.997	103.342	20.112	2.037	0.537
154.000	160.181	80.007	19.996	103.346	20.114	1.871	0.485
156.000	161.216	80.006	19.995	103.332	20.110	2.147	0.503
158.000	162.207	80.003	19.995	103.332	20.114	1.853	0.524
160.000	163.198	80.006	19.995	103.336	20.115	1.844	0.508
162.000	164.230	80.005	19.996	103.337	20.115	1.831	0.511
164.000	165.231	80.007	19.996	103.326	20.114	1.849	0.489
166.000	166.240	80.007	19.997	103.326	20.116	1.717	0.494
168.000	167.220	80.007	19.995	103.324	20.116	1.726	0.494
170.000	168.238	80.005	19.994	103.329	20.118	1.607	0.502
172.000	169.275	80.008	19.994	103.325	20.117	1.701	0.527
174.000	170.262	80.007	19.993	103.325	20.115	1.803	0.498
176.000	171.301	80.006	19.995	103.328	20.116	1.715	0.515
178.000	172.270	80.006	19.994	103.328	20.117	1.657	0.493
180.000	173.310	80.005	19.993	103.328	20.117	1.649	0.507
182.000	174.310	80.006	19.995	103.328	20.118	1.591	0.490
184.000	175.351	80.004	19.994	103.329	20.120	1.451	0.524
186.000	176.310	80.006	19.994	103.321	20.119	1.541	0.497
188.000	177.290	80.004	19.995	103.323	20.121	1.433	0.494
190.000	178.302	80.005	19.995	103.322	20.121	1.424	0.481
192.000	179.282	80.005	19.995	103.317	20.121	1.389	0.511
194.000	180.295	80.006	19.994	103.323	20.123	1.291	0.515
196.000	181.294	80.005	19.994	103.329	20.124	1.236	0.520
198.000	182.292	80.005	19.994	103.327	20.123	1.258	0.500
200.000	183.305	80.007	19.994	103.329	20.121	1.416	0.497
202.000	184.301	80.005	19.995	103.320	20.124	1.189	0.521
204.000	185.322	80.005	19.994	103.317	20.124	1.229	0.506
206.000	186.346	80.004	19.995	103.317	20.121	1.434	0.508
208.000	187.379	80.005	19.995	103.307	20.124	1.222	0.544
210.000	188.321	80.003	19.995	103.309	20.123	1.247	0.505
212.000	189.282	80.004	19.995	103.300	20.126	1.053	0.481
214.000	190.299	80.006	19.994	103.300	20.124	1.242	0.480
216.000	191.292	80.005	19.995	103.296	20.123	1.245	0.496
218.000	192.253	80.005	19.995	103.294	20.124	1.209	0.486
220.000	193.297	80.004	19.996	103.297	20.125	1.170	0.484
222.000	194.247	80.004	19.995	103.302	20.125	1.115	0.492
224.000	195.224	80.007	19.994	103.301	20.129	0.880	0.499
226.000	196.261	80.006	19.994	103.297	20.127	1.000	0.498
228.000	197.232	80.007	19.994	103.294	20.125	1.148	0.503
230.000	198.202	80.006	19.994	103.298	20.122	1.324	0.475
232.000	199.202	80.007	19.994	103.290	20.125	1.146	0.503
234.000	200.178	80.007	19.995	103.292	20.126	1.108	0.515
236.000	201.165	80.006	19.995	103.290	20.127	0.985	0.506
238.000	202.219	80.004	19.994	103.296	20.129	0.904	0.516
240.000	203.156	80.007	19.995	103.293	20.128	0.957	0.494
242.000	204.125	80.005	19.995	103.294	20.125	1.139	0.481
244.000	205.103	80.007	19.996	103.293	20.126	1.058	0.490
246.000	206.084	80.005	19.994	103.292	20.127	1.044	0.488
248.000	207.100	80.006	19.996	103.289	20.128	0.957	0.493
250.000	208.113	80.007	19.996	103.290	20.126	1.049	0.530
252.000	209.095	80.008	19.996	103.290	20.129	0.908	0.471
254.000	210.039	80.006	19.994	103.289	20.125	1.115	0.469
256.000	211.082	80.004	19.996	103.289	20.128	0.913	0.500
258.000	212.031	80.006	19.995	103.291	20.122	1.365	0.464
260.000	213.017	80.004	19.996	103.290	20.126	1.093	0.481
262.000	214.042	80.005	19.994	103.290	20.125	1.139	0.504
264.000	215.011	80.003	19.996	103.293	20.124	1.234	0.496
266.000	216.014	80.005	19.995	103.292	20.121	1.418	0.506
268.000	216.972	80.006	19.995	103.290	20.124	1.221	0.479
270.000	217.967	80.007	19.996	103.289	20.123	1.282	0.481
272.000	218.901	80.006	19.994	103.289	20.125	1.170	0.451
274.000	219.908	80.006	19.995	103.290	20.123	1.295	0.494
276.000	220.925	80.006	19.995	103.289	20.121	1.394	0.507
278.000	221.902	80.005	19.997	103.289	20.122	1.361	0.496
280.000	222.905	80.004	19.994	103.288	20.118	1.585	0.500
282.000	223.876	80.004	19.995	103.289	20.122	1.315	0.477
284.000	224.875	80.006	19.995	103.289	20.123	1.298	0.502
286.000	225.879	80.005	19.995	103.287	20.123	1.289	0.535
288.000	226.833	80.005	19.995	103.288	20.122	1.317	0.494
290.000	227.844	80.006	19.994	103.288	20.117	1.695	0.498
292.000	228.835	80.004	19.994	103.288	20.118	1.599	0.535
294.000	229.866	80.004	19.995	103.289	20.120	1.506	0.458
296.000	230.857	80.004	19.996	103.289	20.115	1.799	0.506
298.000	231.905	80.003	19.995	103.289	20.114	1.911	0.480
300.000	232.892	80.005	19.994	103.288	20.115	1.821	0.518
302.000	233.918	80.005	19.994	103.290	20.113	1.979	0.531
304.000	234.871	80.005	19.993	103.292	20.112	1.981	0.472
306.000	235.841	80.005	19.994	103.292	20.113	1.940	0.487
308.000	236.866	80.007	19.995	103.291	20.108	2.311	0.488
310.000	237.871	80.004	19.996	103.290	20.108	2.278	0.518
312.000	238.872	80.006	19.995	103.291	20.108	2.265	0.500
314.000	239.867	80.006	19.994	103.291	20.106	2.437	0.505
316.000	240.851	80.005	19.994	103.291	20.103	2.590	0.492
318.000	241.835	80.005	19.995	103.292	20.102	2.705	0.500
320.000	242.854	80.005	19.995	103.290	20.100	2.790	0.498
322.000	243.825	80.004	19.995	103.292	20.099	2.912	0.494
324.000	244.854	80.005	19.995	103.292	20.096	3.090	0.508
326.000	245.834	80.004	19.994	103.291	20.097	3.002	0.501
328.000	246.859	80.008	19.994	103.291	20.096	3.066	0.499
330.000	247.850	80.008	19.994	103.290	20.093	3.265	0.480
332.000	248.845	80.006	19.994	103.290	20.087	3.677	0.525
334.000	249.927	80.007	19.995	103.287	20.087	3.664	0.532
336.000	250.895	80.005	19.994	103.286	20.085	3.811	0.510
338.000	251.901	80.005	19.996	103.287	20.081	4.103	0.503
340.000	252.928	80.007	19.997	103.290	20.080	4.156	0.518
342.000	253.932	80.003	19.995	103.288	20.076	4.444	0.523
344.000	254.958	80.004	19.995	103.290	20.074	4.549	0.516
346.000	255.941	80.003	19.995	103.288	20.071	4.749	0.521
348.000	256.940	80.004	19.995	103.288	20.066	5.106	0.489
350.000	257.919	80.005	19.996	103.289	20.063	5.314	0.507
352.000	258.961	80.005	19.996	103.293	20.059	5.576	0.516
354.000	259.916	80.004	19.994	103.295	20.058	5.619	0.478
356.000	260.924	80.005	19.994	103.301	20.052	5.996	0.485
358.000	261.939	80.005	19.994	103.298	20.050	6.127	0.477
360.000	262.951	80.005	19.994	103.300	20.046	6.402	0.501
362.000	263.948	80.007	19.995	103.303	20.040	6.830	0.504
364.000	264.958	80.005	19.995	103.317	20.038	6.968	0.512
366.000	265.947	80.007	19.995	103.308	20.030	7.473	0.496
368.000	266.940	80.005	19.995	103.304	20.025	7.820	0.487
370.000	267.984	80.006	19.994	103.308	20.019	8.225	0.534
372.000	268.932	80.004	19.995	103.319	20.013	8.636	0.506
374.000	269.979	80.004	19.995	103.316	20.007	9.062	0.524
376.000	270.967	80.005	19.994	103.326	20.003	9.308	0.487
378.000	271.966	80.002	19.996	103.328	20.000	9.533	0.509
380.000	272.974	80.004	19.996	103.331	19.995	9.867	0.470
382.000	273.956	80.006	19.995	103.329	19.990	10.177	0.484
384.000	274.962	80.006	19.995	103.330	19.982	10.728	0.493
386.000	275.944	80.004	19.994	103.332	19.974	11.252	0.472
388.000	276.963	80.005	19.994	103.333	19.969	11.586	0.476
390.000	277.952	80.007	19.993	103.332	19.962	12.046	0.491
392.000	278.954	80.008	19.993	103.332	19.956	12.467	0.492
394.000	280.000	80.005	19.995	103.330	19.951	12.760	0.502
396.000	281.004	80.009	19.994	103.331	19.940	13.498	0.514
398.000	281.963	80.006	19.994	103.329	19.934	13.928	0.484
400.000	282.943	80.005	19.995	103.336	19.925	14.536	0.484
402.000	283.968	80.005	19.995	103.336	19.916	15.129	0.477
404.000	284.989	80.007	19.995	103.357	19.910	15.551	0.500
406.000	285.980	80.008	19.995	103.352	19.901	16.148	0.498
408.000	286.992	80.009	19.995	103.364	19.896	16.444	0.529
410.000	287.994	80.009	19.994	103.364	19.884	17.252	0.499
412.000	288.948	80.007	19.995	103.365	19.876	17.823	0.483
414.000	289.936	80.007	19.995	103.366	19.862	18.722	0.464
416.000	290.944	80.004	19.994	103.368	19.859	18.924	0.468
418.000	291.975	80.005	19.993	103.369	19.846	19.816	0.479
420.000	292.976	80.003	19.997	103.371	19.837	20.400	0.508
422.000	294.025	80.004	19.995	103.375	19.827	21.098	0.522
424.000	294.967	80.005	19.995	103.386	19.819	21.638	0.461
426.000	295.974	80.004	19.995	103.394	19.807	22.430	0.484
428.000	296.970	80.004	19.995	103.396	19.801	22.858	0.511
430.000	297.994	80.003	19.996	103.394	19.790	23.581	0.526
432.000	298.985	80.005	19.996	103.407	19.779	24.310	0.545
434.000	299.980	80.004	19.995	103.407	19.774	24.663	0.487
436.000	300.979	80.004	19.995	103.407	19.761	25.534	0.496
438.000	302.008	80.004	19.995	103.410	19.751	26.179	0.526
440.000	303.016	80.003	19.997	103.410	19.738	27.063	0.510
442.000	304.006	80.005	19.996	103.409	19.732	27.443	0.503
444.000	305.064	80.004	19.996	103.410	19.722	28.159	0.544
446.000	306.045	80.005	19.994	103.411	19.713	28.755	0.515
448.000	307.046	80.004	19.994	103.415	19.702	29.459	0.501
450.000	308.034	80.004	19.994	103.425	19.690	30.253	0.508
452.000	309.049	80.004	19.994	103.435	19.682	30.835	0.507
454.000	310.053	80.006	19.996	103.427	19.670	31.633	0.490
456.000	311.061	80.005	19.995	103.435	19.659	32.338	0.494
458.000	312.145	80.003	19.994	103.439	19.649	32.999	0.538
460.000	313.122	80.005	19.994	103.445	19.640	33.624	0.495
462.000	314.196	80.006	19.994	103.445	19.630	34.310	0.533
464.000	315.168	80.007	19.996	103.444	19.618	35.073	0.495
466.000	316.229	80.006	19.994	103.446	19.612	35.535	0.520
468.000	317.184	80.006	19.995	103.455	19.597	36.531	0.489
470.000	318.203	80.006	19.993	103.455	19.590	36.988	0.503
472.000	319.229	80.004	19.995	103.467	19.576	37.891	0.506
474.000	320.265	80.007	19.994	103.476	19.566	38.612	0.512
476.000	321.280	80.005	19.994	103.470	19.551	39.571	0.519
478.000	322.296	80.009	19.995	103.483	19.539	40.387	0.533
480.000	323.311	80.006	19.995	103.485	19.528	41.116	0.511
482.000	324.352	80.007	19.994	103.483	19.515	42.029	0.523
484.000	325.338	80.007	19.994	103.488	19.501	42.995	0.496
486.000	326.338	80.006	19.993	103.490	19.487	43.914	0.472
488.000	327.399	80.006	19.994	103.500	19.475	44.705	0.526
490.000	328.413	80.009	19.994	103.505	19.460	45.727	0.508
492.000	329.369	80.008	19.995	103.516	19.445	46.732	0.494
494.000	330.440	80.008	19.995	103.524	19.423	48.210	0.495
496.000	331.458	80.007	19.994	103.524	19.407	49.249	0.527
498.000	332.489	80.007	19.995	103.531	19.391	50.338	0.491
500.000	333.492	80.005	19.995	103.533	19.372	51.607	0.497
502.000	334.585	80.004	19.995	103.543	19.353	52.938	0.531
504.000	335.572	80.004	19.995	103.555	19.334	54.168	0.507
506.000	336.562	80.004	19.994	103.563	19.313	55.629	0.487
508.000	337.586	80.005	19.995	103.565	19.292	57.044	0.515
510.000	338.595	80.005	19.995	103.578	19.273	58.275	0.522
512.000	339.626	80.004	19.995	103.576	19.252	59.697	0.505
514.000	340.600	80.005	19.995	103.591	19.235	60.843	0.502
516.000	341.599	80.005	19.995	103.601	19.214	62.215	0.519
518.000	342.612	80.005	19.995	103.603	19.194	63.620	0.515
520.000	343.628	80.004	19.995	103.604	19.174	64.953	0.499
522.000	344.586	80.004	19.996	103.602	19.151	66.474	0.497
524.000	345.628	80.006	19.996	103.606	19.133	67.694	0.513
526.000	346.637	80.006	19.996	103.612	19.115	68.892	0.523
528.000	347.660	80.004	19.997	103.610	19.096	70.139	0.495
530.000	348.684	80.004	19.996	103.613	19.082	71.108	0.506
532.000	349.676	80.005	19.995	103.621	19.070	71.892	0.525
534.000	350.688	80.003	19.995	103.618	19.061	72.508	0.505
536.000	351.656	80.006	19.995	103.612	19.049	73.271	0.458
538.000	352.723	80.004	19.995	103.606	19.043	73.668	0.521
540.000	353.726	80.006	19.995	103.605	19.037	74.059	0.491
542.000	354.798	80.004	19.995	103.604	19.034	74.271	0.515
544.000	355.798	80.008	19.996	103.599	19.042	73.705	0.497
546.000	356.820	80.006	19.995	103.590	19.047	73.371	0.501
548.000	357.867	80.009	19.995	103.577	19.058	72.652	0.556
550.000	358.859	80.005	19.995	103.563	19.072	71.680	0.513
552.000	359.922	80.006	19.994	103.548	19.092	70.337	0.495
554.000	360.922	80.006	19.995	103.523	19.118	68.574	0.530
556.000	361.961	80.007	19.996	103.507	19.149	66.483	0.503
558.000	362.992	80.006	19.995	103.493	19.179	64.450	0.511
560.000	364.021	80.005	19.994	103.479	19.216	61.925	0.504
562.000	365.083	80.007	19.993	103.452	19.256	59.249	0.526
564.000	366.088	80.007	19.995	103.442	19.302	56.182	0.523
566.000	367.131	80.007	19.994	103.412	19.350	52.952	0.524
568.000	368.128	80.006	19.994	103.384	19.398	49.769	0.498
570.000	369.215	80.007	19.994	103.356	19.448	46.412	0.548
572.000	370.227	80.007	19.994	103.334	19.502	42.773	0.530
574.000	371.259	80.008	19.994	103.324	19.555	39.272	0.526
576.000	372.247	80.005	19.994	103.303	19.606	35.824	0.475
578.000	373.329	80.004	19.995	103.292	19.655	32.520	0.508
580.000	374.372	80.005	19.994	103.277	19.705	29.180	0.524
582.000	375.356	80.004	19.995	103.258	19.752	26.080	0.517
584.000	376.399	80.004	19.996	103.253	19.800	22.838	0.530
586.000	377.434	80.002	19.994	103.249	19.842	20.048	0.522
588.000	378.468	80.003	19.994	103.245	19.880	17.520	0.526
590.000	379.500	80.003	19.996	103.236	19.913	15.280	0.538
592.000	380.494	80.005	19.995	103.224	19.945	13.197	0.517
594.000	381.498	80.005	19.994	103.217	19.968	11.619	0.507
596.000	382.516	80.003	19.994	103.223	19.994	9.907	0.497
598.000	383.545	80.005	19.996	103.222	20.014	8.579	0.498
600.000	384.613	80.004	19.994	103.220	20.028	7.646	0.515
602.000	385.600	80.003	19.995	103.216	20.040	6.832	0.491
604.000	386.619	80.006	19.996	103.214	20.052	6.039	0.511
606.000	387.618	80.005	19.995	103.214	20.061	5.439	0.506
608.000	388.648	80.005	19.996	103.215	20.068	4.954	0.489
610.000	389.640	80.001	19.996	103.215	20.072	4.688	0.515
612.000	390.671	80.004	19.995	103.213	20.074	4.521	0.516
614.000	391.698	80.004	19.996	103.215	20.078	4.281	0.499
616.000	392.691	80.003	19.996	103.212	20.085	3.821	0.509
618.000	393.732	80.004	19.997	103.215	20.089	3.546	0.520
620.000	394.739	80.004	19.996	103.214	20.092	3.339	0.498
622.000	395.790	80.006	19.995	103.218	20.092	3.315	0.499
624.000	396.777	80.005	19.994	103.218	20.096	3.108	0.470
626.000	397.795	80.005	19.995	103.215	20.094	3.224	0.498
628.000	398.815	80.005	19.995	103.214	20.096	3.075	0.531
630.000	399.843	80.006	19.994	103.214	20.096	3.086	0.510
632.000	400.821	80.005	19.994	103.216	20.097	3.009	0.488
634.000	401.816	80.005	19.995	103.216	20.097	3.035	0.478
636.000	402.867	80.005	19.993	103.214	20.098	2.978	0.518
638.000	403.871	80.005	19.994	103.215	20.099	2.859	0.503
640.000	404.897	80.006	19.994	103.215	20.097	3.024	0.511
642.000	405.867	80.004	19.995	103.215	20.099	2.901	0.495
644.000	406.891	80.007	19.994	103.216	20.099	2.863	0.492
646.000	407.893	80.007	19.993	103.217	20.102	2.679	0.509
648.000	408.880	80.008	19.994	103.213	20.100	2.815	0.516
650.000	409.860	80.006	19.995	103.210	20.102	2.700	0.510
652.000	410.868	80.007	19.994	103.213	20.099	2.885	0.496
654.000	411.852	80.007	19.994	103.218	20.104	2.529	0.480
656.000	412.850	80.005	19.994	103.210	20.101	2.778	0.504
658.000	413.824	80.005	19.994	103.213	20.102	2.667	0.520
660.000	414.789	80.005	19.994	103.218	20.103	2.599	0.474
662.000	415.792	80.006	19.994	103.214	20.106	2.421	0.501
664.000	416.807	80.007	19.994	103.216	20.104	2.564	0.504
666.000	417.775	80.006	19.995	103.215	20.108	2.305	0.485
668.000	418.855	80.004	19.994	103.217	20.106	2.436	0.517
670.000	419.805	80.005	19.995	103.213	20.106	2.438	0.484
672.000	420.851	80.004	19.994	103.213	20.109	2.194	0.509
674.000	421.884	80.005	19.995	103.214	20.109	2.223	0.516
676.000	422.897	80.005	19.994	103.212	20.110	2.133	0.532
678.000	423.910	80.006	19.997	103.215	20.111	2.071	0.499
680.000	424.903	80.005	19.995	103.233	20.117	1.688	0.483
682.000	425.953	80.003	19.995	103.219	20.117	1.704	0.511
684.000	426.927	80.004	19.996	103.214	20.116	1.734	0.464
686.000	427.983	80.002	19.995	103.216	20.115	1.831	0.531
688.000	429.020	80.004	19.994	103.214	20.118	1.622	0.536
690.000	430.028	80.003	19.996	103.213	20.119	1.543	0.490
692.000	431.044	80.003	19.994	103.212	20.121	1.409	0.528
694.000	432.058	80.004	19.996	103.215	20.120	1.472	0.519
696.000	433.117	80.002	19.995	103.214	20.122	1.363	0.510
698.000	434.149	80.005	19.996	103.213	20.124	1.233	0.508
700.000	435.173	80.005	19.995	103.214	20.123	1.281	0.501
702.000	436.145	80.005	19.995	103.213	20.123	1.308	0.498
704.000	437.192	80.007	19.994	103.213	20.124	1.233	0.545
706.000	438.213	80.004	19.995	103.212	20.126	1.072	0.497
708.000	439.205	80.003	19.996	103.212	20.126	1.099	0.492
710.000	440.238	80.003	19.995	103.210	20.129	0.896	0.497
712.000	441.267	80.005	19.997	103.209	20.130	0.797	0.496
714.000	442.280	80.004	19.997	103.209	20.133	0.638	0.478
716.000	443.325	80.004	19.995	103.208	20.131	0.735	0.523
718.000	444.266	80.005	19.994	103.206	20.134	0.537	0.473
720.000	445.345	80.005	19.995	103.205	20.136	0.442	0.555
722.000	446.357	80.008	19.994	103.209	20.137	0.363	0.524
724.000	447.335	80.005	19.994	103.206	20.137	0.333	0.511
726.000	448.383	80.006	19.994	103.209	20.136	0.399	0.501
728.000	449.364	80.005	19.994	103.209	20.140	0.130	0.476
730.000	450.391	80.004	19.994	103.209	20.142	-0.018	0.511
732.000	451.406	80.008	19.994	103.208	20.142	0.038	0.511
734.000	452.433	80.008	19.994	103.200	20.140	0.163	0.526
736.000	453.436	80.004	19.994	103.201	20.140	0.114	0.489
738.000	454.473	80.005	19.995	103.200	20.140	0.167	0.535
740.000	455.494	80.003	19.994	103.207	20.144	-0.110	0.494
742.000	456.532	80.004	19.995	103.195	20.144	-0.143	0.520
744.000	457.577	80.006	19.995	103.209	20.144	-0.136	0.534
746.000	458.530	80.003	19.995	103.208	20.149	-0.491	0.524
748.000	459.559	80.004	19.994	103.211	20.144	-0.103	0.520
750.000	460.527	80.005	19.994	103.213	20.152	-0.660	0.469
752.000	461.598	80.003	19.994	103.213	20.148	-0.423	0.510
754.000	462.620	80.003	19.993	103.211	20.154	-0.790	0.540
756.000	463.585	80.005	19.993	103.201	20.151	-0.619	0.515
758.000	464.639	80.002	19.994	103.210	20.152	-0.640	0.508
760.000	465.634	80.003	19.995	103.206	20.154	-0.764	0.488
762.000	466.650	80.003	19.994	103.213	20.155	-0.889	0.517
764.000	467.697	80.004	19.995	103.212	20.155	-0.843	0.540
766.000	468.688	80.002	19.994	103.212	20.155	-0.854	0.532
768.000	469.780	80.003	19.995	103.211	20.156	-0.922	0.512
770.000	470.795	80.004	19.995	103.208	20.158	-1.050	0.502
772.000	471.835	80.004	19.997	103.193	20.158	-1.033	0.513
774.000	472.835	80.004	19.995	103.201	20.160	-1.218	0.524
776.000	473.879	80.007	19.995	103.200	20.158	-1.043	0.520
778.000	474.910	80.003	19.996	103.191	20.160	-1.224	0.532
780.000	475.948	80.006	19.994	103.190	20.163	-1.363	0.517
782.000	476.971	80.007	19.995	103.189	20.162	-1.308	0.496
784.000	478.020	80.007	19.994	103.190	20.162	-1.327	0.509
786.000	479.060	80.006	19.995	103.197	20.161	-1.235	0.521
788.000	480.053	80.005	19.995	103.204	20.162	-1.307	0.509
790.000	481.051	80.005	19.995	103.204	20.161	-1.286	0.503
792.000	482.101	80.005	19.995	103.189	20.166	-1.614	0.480
794.000	483.149	80.004	19.995	103.191	20.165	-1.559	0.503
796.000	484.166	80.004	19.996	103.189	20.166	-1.625	0.524
798.000	485.213	80.003	19.996	103.201	20.164	-1.480	0.534
800.000	486.272	80.005	19.995	103.198	20.166	-1.599	0.525
802.000	487.271	80.005	19.995	103.192	20.165	-1.532	0.503
804.000	488.319	80.008	19.995	103.188	20.169	-1.781	0.526
806.000	489.342	80.006	19.994	103.191	20.171	-1.922	0.546
808.000	490.372	80.010	19.994	103.181	20.170	-1.852	0.515
810.000	491.363	80.006	19.993	103.179	20.170	-1.856	0.494
812.000	492.402	80.006	19.993	103.178	20.167	-1.691	0.511
814.000	493.452	80.005	19.994	103.188	20.169	-1.827	0.531
816.000	494.498	80.004	19.995	103.200	20.169	-1.805	0.499
818.000	495.534	80.005	19.994	103.197	20.171	-1.953	0.523
820.000	496.582	80.004	19.995	103.196	20.168	-1.717	0.526
822.000	497.564	80.002	19.994	103.188	20.174	-2.126	0.503
824.000	498.626	80.004	19.994	103.200	20.173	-2.087	0.511
826.000	499.628	80.004	19.994	103.191	20.175	-2.208	0.491
828.000	500.633	80.003	19.995	103.180	20.174	-2.098	0.508
830.000	501.688	80.002	19.995	103.191	20.172	-2.006	0.513
832.000	502.720	80.005	19.995	103.193	20.179	-2.466	0.524
834.000	503.675	80.005	19.994	103.200	20.177	-2.356	0.483
836.000	504.762	80.004	19.994	103.184	20.174	-2.156	0.509
838.000	505.774	80.004	19.995	103.187	20.178	-2.406	0.484
840.000	506.806	80.005	19.996	103.190	20.175	-2.215	0.513
842.000	507.796	80.006	19.996	103.191	20.179	-2.433	0.493
844.000	508.778	80.005	19.994	103.179	20.177	-2.338	0.499
846.000	509.805	80.004	19.996	103.178	20.178	-2.427	0.475
848.000	510.777	80.003	19.995	103.178	20.178	-2.411	0.449
850.000	511.840	80.003	19.994	103.180	20.179	-2.482	0.544
852.000	512.848	80.003	19.995	103.183	20.178	-2.363	0.520
854.000	513.826	80.006	19.995	103.189	20.179	-2.440	0.526
856.000	514.834	80.001	19.995	103.179	20.181	-2.622	0.495
858.000	515.893	80.004	19.995	103.179	20.181	-2.565	0.485
860.000	516.933	80.005	19.995	103.176	20.182	-2.660	0.527
862.000	517.946	80.005	19.996	103.180	20.184	-2.792	0.520
864.000	518.962	80.006	19.995	103.174	20.183	-2.717	0.512
866.000	519.986	80.006	19.996	103.173	20.178	-2.389	0.502
868.000	520.950	80.007	19.995	103.177	20.172	-2.024	0.498
870.000	521.975	80.005	19.995	103.185	20.181	-2.614	0.487
872.000	523.055	80.005	19.995	103.175	20.181	-2.567	0.472
874.000	524.067	80.005	19.995	103.173	20.186	-2.913	0.570
876.000	525.160	80.004	19.995	103.182	20.182	-2.689	0.475
878.000	526.021	80.005	19.995	103.176	20.183	-2.757	0.454
880.000	526.926	80.005	19.994	103.174	20.185	-2.874	0.436
882.000	528.160	80.007	19.994	103.181	20.188	-3.054	0.452
884.000	528.875	80.007	19.994	103.177	20.185	-2.893	0.505
886.000	529.760	80.004	19.995	103.173	20.184	-2.789	-0.097
888.000	531.263	80.006	19.996	103.177	20.185	-2.857	0.306
890.000	532.310	80.005	19.996	103.181	20.187	-3.021	0.585
892.000	533.414	80.004	19.995	103.173	20.186	-2.953	0.612
894.000	534.189	80.004	19.996	103.183	20.185	-2.836	0.459
896.000	535.432	80.004	19.996	103.193	20.188	-3.038	0.406
898.000	536.416	80.004	19.996	103.190	20.187	-3.014	0.523
900.000	537.545	80.004	19.995	103.192	20.189	-3.157	0.575
902.000	538.518	80.004	19.995	103.178	20.188	-3.069	0.564
904.000	539.566	80.005	19.995	103.182	20.183	-2.726	0.553
906.000	540.639	80.005	19.995	103.189	20.185	-2.845	0.549
908.000	541.689	80.004	19.995	103.189	20.185	-2.878	0.514
910.000	542.716	80.004	19.995	103.178	20.185	-2.896	0.535
912.000	543.784	80.004	19.996	103.179	20.188	-3.036	0.561
914.000	544.861	80.006	19.994	103.181	20.188	-3.052	0.511
916.000	545.888	80.005	19.994	103.178	20.186	-2.940	0.530
918.000	546.896	80.005	19.995	103.184	20.190	-3.182	0.515
920.000	548.025	80.005	19.995	103.184	20.187	-3.028	0.534
922.000	549.087	80.005	19.994	103.182	20.186	-2.935	0.561
924.000	550.140	80.003	19.995	103.178	20.186	-2.944	0.562
926.000	551.233	80.004	19.996	103.174	20.184	-2.812	0.534
928.000	552.254	80.004	19.995	103.175	20.187	-3.006	0.503
930.000	553.332	80.003	19.996	103.174	20.187	-3.012	0.521
932.000	554.406	80.005	19.996	103.178	20.188	-3.037	0.559
934.000	555.473	80.006	19.994	103.181	20.187	-2.986	0.543
936.000	556.528	80.004	19.995	103.177	20.188	-3.054	0.532
938.000	557.548	80.006	19.993	103.176	20.189	-3.107	0.508
940.000	558.586	80.007	19.994	103.175	20.189	-3.145	0.510
942.000	559.657	80.008	19.996	103.175	20.188	-3.054	0.532
944.000	560.655	80.005	19.995	103.181	20.186	-2.938	0.516
946.000	561.723	80.007	19.994	103.187	20.190	-3.212	0.515
948.000	562.762	80.005	19.995	103.177	20.189	-3.114	0.514
950.000	563.776	80.004	19.995	103.175	20.189	-3.138	0.516
952.000	564.821	80.005	19.994	103.175	20.189	-3.162	0.523
954.000	565.824	80.006	19.995	103.176	20.189	-3.155	0.513
956.000	566.829	80.004	19.995	103.176	20.190	-3.188	0.516
958.000	567.832	80.006	19.994	103.179	20.193	-3.404	0.496
960.000	568.837	80.006	19.994	103.177	20.192	-3.362	0.506
962.000	569.832	80.006	19.995	103.176	20.191	-3.263	0.498
964.000	570.807	80.007	19.994	103.172	20.193	-3.417	0.474
966.000	571.807	80.007	19.994	103.172	20.196	-3.602	0.486
968.000	572.823	80.006	19.995	103.175	20.194	-3.450	0.504
970.000	573.850	80.006	19.995	103.174	20.195	-3.558	0.505
972.000	574.893	80.005	19.995	103.173	20.191	-3.259	0.533
974.000	575.932	80.006	19.996	103.178	20.192	-3.312	0.510
976.000	576.888	80.004	19.995	103.177	20.193	-3.402	0.501
978.000	577.963	80.003	19.996	103.173	20.191	-3.250	0.506
980.000	578.950	80.003	19.996	103.176	20.193	-3.374	0.486
982.000	579.950	80.004	19.996	103.177	20.192	-3.305	0.499
984.000	581.027	80.004	19.996	103.173	20.192	-3.351	0.532
986.000	582.074	80.004	19.995	103.171	20.188	-3.069	0.535
988.000	583.069	80.004	19.995	103.176	20.191	-3.241	0.504
990.000	584.099	80.005	19.995	103.175	20.192	-3.343	0.499
992.000	585.152	80.004	19.995	103.172	20.194	-3.452	0.481
994.000	586.275	80.004	19.994	103.174	20.192	-3.314	0.556
996.000	587.291	80.006	19.994	103.177	20.193	-3.386	0.536
998.000	588.395	80.005	19.993	103.174	20.193	-3.407	0.556
1000.000	589.411	80.004	19.993	103.175	20.193	-3.389	0.539
1002.000	590.475	80.004	19.994	103.181	20.191	-3.283	0.558
1004.000	591.528	80.005	19.994	103.177	20.191	-3.250	0.527
1006.000	592.589	80.005	19.994	103.177	20.192	-3.314	0.532
1008.000	593.688	80.002	19.995	103.176	20.194	-3.464	0.526
1010.000	594.765	80.003	19.995	103.179	20.193	-3.398	0.530
1012.000	595.820	80.005	19.994	103.180	20.194	-3.477	0.523
1014.000	596.891	80.004	19.996	103.181	20.192	-3.343	0.513
1016.000	597.936	80.005	19.995	103.178	20.194	-3.492	0.516
1018.000	599.002	80.007	19.993	103.178	20.193	-3.404	0.557
1020.000	600.014	80.004	19.993	103.176	20.194	-3.448	0.512
1022.000	601.062	80.005	19.993	103.177	20.193	-3.396	0.520
1024.000	602.096	80.007	19.995	103.177	20.196	-3.627	0.533
1025.999	603.110	80.004	19.993	103.174	20.193	-3.428	0.494
1027.999	604.140	80.005	19.995	103.173	20.195	-3.514	0.507
1029.999	605.162	80.005	19.995	103.172	20.193	-3.394	0.517
1031.999	606.188	80.006	19.994	103.170	20.194	-3.484	0.527
1033.999	607.189	80.006	19.995	103.171	20.196	-3.614	0.519
1036.000	608.170	80.004	19.995	103.172	20.193	-3.420	0.494
1037.999	609.146	80.006	19.997	103.172	20.196	-3.578	0.474
1039.999	610.160	80.007	19.996	103.171	20.196	-3.596	0.484
1041.999	611.155	80.005	19.996	103.172	20.195	-3.516	0.484
1044.000	612.193	80.004	19.996	103.174	20.193	-3.417	0.521
1046.000	613.202	80.006	19.995	103.173	20.194	-3.466	0.501
1047.999	614.207	80.007	19.996	103.174	20.194	-3.495	0.494
1050.000	615.279	80.006	19.996	103.179	20.195	-3.547	0.543
1051.999	616.295	80.004	19.996	103.180	20.196	-3.591	0.533
1053.999	617.329	80.006	19.995	103.174	20.188	-3.076	0.534
1055.999	618.331	80.004	19.995	103.173	20.192	-3.351	0.532
1058.000	619.343	80.003	19.995	103.174	20.192	-3.330	0.511
1059.999	620.404	80.004	19.995	103.173	20.194	-3.450	0.507
1061.999	621.453	80.003	19.996	103.177	20.194	-3.497	0.523
1064.000	622.487	80.003	19.995	103.175	20.197	-3.644	0.529
1065.999	623.487	80.003	19.995	103.177	20.192	-3.303	0.493
1067.999	624.528	80.003	19.995	103.174	20.195	-3.501	0.512
1069.999	625.558	80.002	19.996	103.175	20.192	-3.310	0.492
1071.999	626.580	80.003	19.995	103.179	20.193	-3.369	0.531
1073.999	627.632	80.002	19.998	103.172	20.192	-3.334	0.516
1075.999	628.676	80.002	19.995	103.175	20.196	-3.572	0.509
1077.999	629.729	80.004	19.995	103.177	20.195	-3.512	0.547
1079.999	630.760	80.002	19.995	103.177	20.193	-3.418	0.532
1082.000	631.795	80.003	19.995	103.179	20.193	-3.415	0.517
1084.000	632.789	80.004	19.994	103.177	20.195	-3.532	0.509
1086.000	633.860	80.000	19.994	103.178	20.195	-3.514	0.504
1087.999	634.968	80.002	19.995	103.177	20.197	-3.653	0.564
1089.999	635.928	80.004	19.995	103.175	20.198	-3.735	0.512
1092.000	636.997	80.003	19.994	103.174	20.192	-3.329	0.506
1094.000	638.001	80.005	19.998	103.174	20.195	-3.517	0.472
1095.999	639.016	80.006	19.995	103.173	20.195	-3.538	0.497
1097.999	640.065	80.006	19.996	103.174	20.196	-3.583	0.518
1100.000	641.057	80.005	19.995	103.175	20.195	-3.503	0.516
1101.999	642.111	80.006	19.995	103.173	20.194	-3.457	0.537
1103.999	643.122	80.006	19.995	103.173	20.195	-3.554	0.493
1105.999	644.136	80.006	19.995	103.176	20.194	-3.462	0.508
1107.999	645.129	80.005	19.997	103.174	20.197	-3.668	0.504
1109.999	646.130	80.005	19.996	103.170	20.198	-3.716	0.514
1111.999	647.118	80.003	19.995	103.171	20.195	-3.517	0.514
1113.999	648.156	80.006	19.995	103.172	20.196	-3.629	0.470
1115.999	649.187	80.007	19.994	103.174	20.197	-3.664	0.508
1117.999	650.202	80.006	19.994	103.173	20.195	-3.541	0.507
1120.000	651.200	80.004	19.994	103.180	20.192	-3.352	0.489
1121.999	652.243	80.006	19.995	103.179	20.193	-3.431	0.510
1124.000	653.251	80.008	19.996	103.173	20.193	-3.386	0.513
1125.999	654.306	80.005	19.993	103.173	20.196	-3.619	0.538
1127.999	655.286	80.004	19.993	103.173	20.194	-3.485	0.496
1129.999	656.292	80.005	19.996	103.172	20.192	-3.344	0.478
1131.999	657.269	80.004	19.996	103.173	20.195	-3.549	0.463
1133.999	658.317	80.004	19.996	103.178	20.197	-3.662	0.527
1135.999	659.316	80.003	19.998	103.186	20.193	-3.426	0.512
1138.000	660.279	80.003	19.994	103.190	20.194	-3.445	0.489
1139.999	661.324	80.003	19.995	103.195	20.192	-3.332	0.496
1141.999	662.338	80.004	19.994	103.185	20.196	-3.578	0.492
1143.999	663.330	80.003	19.995	103.182	20.193	-3.373	0.496
1145.999	664.322	80.004	19.996	103.184	20.193	-3.408	0.484
1147.999	665.345	80.003	19.996	103.187	20.202	-4.015	0.504
1149.999	666.351	80.004	19.995	103.185	20.195	-3.563	0.503
1151.999	667.296	80.003	19.995	103.177	20.198	-3.739	0.480
1154.000	668.302	80.003	19.996	103.192	20.196	-3.587	0.491
1156.000	669.318	80.004	19.996	103.182	20.195	-3.532	0.542
1157.999	669.877	80.002	19.996	103.191	20.194	-3.492	0.186
1159.999	671.424	80.004	19.998	103.194	20.204	-4.130	0.285
1161.999	672.557	80.003	19.994	103.176	20.196	-3.604	0.758
1163.999	673.286	80.003	19.996	103.188	20.194	-3.470	0.435
1166.000	674.388	80.003	19.997	103.177	20.198	-3.725	0.537
1167.999	675.446	80.005	19.995	103.189	20.196	-3.575	0.483
1169.999	676.398	80.004	19.996	103.191	20.198	-3.740	0.498
1172.000	677.467	80.005	19.996	103.183	20.199	-3.782	0.510
1173.999	678.289	80.005	19.995	103.186	20.193	-3.405	0.544
1175.999	679.479	80.006	19.995	103.194	20.196	-3.628	0.350
1177.999	680.393	80.005	19.996	103.199	20.196	-3.611	0.432
1179.999	681.493	80.006	19.995	103.199	20.197	-3.655	0.499
1182.000	682.494	80.005	19.995	103.186	20.200	-3.837	0.543
1183.999	683.478	80.004	19.994	103.193	20.200	-3.857	0.495
1186.000	684.515	80.004	19.995	103.196	20.194	-3.496	0.475
1187.999	685.493	80.005	19.995	103.195	20.196	-3.573	0.465
1189.999	686.534	80.003	19.994	103.192	20.196	-3.622	0.498
1191.999	687.543	80.004	19.994	103.187	20.197	-3.695	0.492
1194.000	688.550	80.005	19.994	103.183	20.194	-3.472	0.493
1195.999	689.608	80.005	19.995	103.182	20.196	-3.607	0.528
1197.999	690.621	80.006	19.994	103.184	20.197	-3.647	0.494
1199.999	691.567	80.006	19.994	103.200	20.197	-3.657	0.505
1201.999	692.636	80.007	19.994	103.181	20.197	-3.651	0.500
1204.000	693.587	80.007	19.994	103.176	20.199	-3.807	0.502
1205.999	694.598	80.006	19.994	103.185	20.197	-3.644	0.489
1208.000	695.617	80.005	19.994	103.178	20.195	-3.558	0.501
1209.999	696.616	80.005	19.995	103.175	20.198	-3.721	0.502
1211.999	697.596	80.005	19.995	103.180	20.200	-3.862	0.484
1213.999	698.604	80.003	19.996	103.180	20.201	-3.911	0.479
1216.000	699.599	80.003	19.995	103.173	20.199	-3.827	0.512
1218.000	700.616	80.002	19.996	103.178	20.199	-3.796	0.512
1220.000	701.571	80.005	19.995	103.183	20.197	-3.686	0.477
1221.999	702.598	80.004	19.997	103.180	20.200	-3.876	0.524
1223.999	703.588	80.006	19.995	103.173	20.198	-3.748	0.475
1225.999	704.609	80.003	19.996	103.171	20.205	-4.175	0.508
1227.999	705.634	80.005	19.995	103.176	20.199	-3.792	0.508
1229.999	706.607	80.006	19.997	103.174	20.198	-3.757	0.489
1231.999	707.639	80.005	19.995	103.172	20.201	-3.933	0.517
1233.999	708.672	80.004	19.995	103.172	20.200	-3.869	0.495
1236.000	709.684	80.003	19.995	103.173	20.199	-3.827	0.520
1238.000	710.705	80.004	19.997	103.173	20.198	-3.743	0.485
1239.999	711.694	80.003	19.995	103.171	20.200	-3.845	0.502
1241.999	712.695	80.002	19.995	103.172	20.199	-3.792	0.494
1244.000	713.713	80.003	19.997	103.171	20.199	-3.770	0.490
1245.999	714.779	80.004	19.996	103.172	20.201	-3.942	0.541
1247.999	715.767	80.002	19.995	103.173	20.198	-3.735	0.563
1250.000	716.739	80.005	19.997	103.173	20.198	-3.744	0.510
1251.999	717.719	80.004	19.995	103.174	20.199	-3.810	0.485
1253.999	718.707	80.004	19.995	103.174	20.202	-3.968	0.492
1255.999	719.735	80.005	19.997	103.173	20.203	-4.080	0.504
1257.999	720.712	80.005	19.995	103.172	20.199	-3.767	0.525
1259.999	721.735	80.005	19.995	103.171	20.198	-3.763	0.498
1261.999	722.698	80.005	19.994	103.173	20.202	-3.999	0.463
1264.000	723.728	80.005	19.995	103.174	20.198	-3.708	0.495
1265.999	724.695	80.004	19.993	103.172	20.201	-3.946	0.491
1268.000	725.744	80.004	19.995	103.171	20.200	-3.896	0.501
1270.000	726.738	80.005	19.995	103.175	20.199	-3.803	0.515
1271.999	727.737	80.004	19.994	103.169	20.199	-3.771	0.506
1274.000	728.708	80.006	19.991	103.167	20.197	-3.696	0.497
1276.000	729.752	80.005	19.994	103.173	20.197	-3.687	0.528
1278.000	730.688	80.007	19.994	103.167	20.199	-3.775	0.487
1280.000	731.733	80.006	19.996	103.167	20.198	-3.713	0.511
1281.999	732.705	80.007	19.995	103.157	20.199	-3.772	0.483
1283.999	733.672	80.006	19.994	103.165	20.200	-3.891	0.495
1286.001	734.666	80.005	19.995	103.161	20.200	-3.847	0.484
1287.999	735.651	80.004	19.993	103.165	20.198	-3.737	0.468
1289.999	736.655	80.005	19.996	103.166	20.197	-3.658	0.488
1291.999	737.692	80.004	19.997	103.171	20.198	-3.728	0.521
1294.000	738.643	80.004	19.994	103.163	20.199	-3.825	0.502
1295.999	739.693	80.004	19.994	103.164	20.194	-3.475	0.502
1297.999	740.712	80.005	19.996	103.164	20.197	-3.680	0.515
1299.999	741.715	80.004	19.994	103.160	20.195	-3.548	0.523
1301.999	742.736	80.005	19.994	103.165	20.194	-3.491	0.511
1303.499	743.490	80.005	19.995	103.170	20.195	-3.524	0.503