File: 01_Data/Pressure_Treated_Deck/STA/N2/30K_min/Pressure_Treated_Deck_STA_N2_30KData_212106_R2.csv
##Temp./Â°C,Time/min,Mass loss(subtr.2)/mg,DSC(subtr.2)/mW,Sensit./(uV/mW)
50.645,10.01,-0.01568,-0.01590729,0.6235
51.245,10.99092,-0.0156447,0.04159869,0.62349
51.845,11.2018,-0.01592044,0.10044,0.62349
52.445,11.34843,-0.01496588,0.17016,0.62348
53.045,11.4614,-0.01438986,0.23593,0.62347
53.645,11.55979,-0.0168863,0.2888,0.62346
54.245,11.64475,-0.01530063,0.33554,0.62346
54.845,11.71987,-0.01490866,0.38783,0.62345
55.445,11.78825,-0.0148133,0.44017,0.62344
56.045,11.85167,-0.01762023,0.49266,0.62343
56.645,11.9105,-0.01684034,0.53888,0.62341
57.245,11.96679,-0.01563275,0.59336,0.6234
57.845,12.02027,-0.01555042,0.62042,0.62339
58.445,12.07095,-0.01743114,0.66651,0.62338
59.045,12.11936,-0.01949703,0.69824,0.62336
59.645,12.1665,-0.01773168,0.73714,0.62335
60.245,12.21081,-0.01657872,0.76708,0.62334
60.845,12.2547,-0.01494687,0.8097,0.62332
61.445,12.29862,-0.01503142,0.84424,0.6233
62.045,12.33971,-0.01850633,0.8725,0.62329
62.645,12.37997,-0.0185406,0.89967,0.62327
63.245,12.41958,-0.01718945,0.92755,0.62326
63.845,12.45841,-0.0165006,0.96599,0.62324
64.445,12.49634,-0.0163746,1.00287,0.62322
65.045,12.53333,-0.01605533,1.02735,0.6232
65.645,12.57,-0.01645957,1.05898,0.62318
66.245,12.60633,-0.01936358,1.07883,0.62316
66.845,12.64184,-0.01935946,1.11299,0.62314
67.445,12.67661,-0.01763291,1.13204,0.62312
68.045,12.7113,-0.01628512,1.15735,0.6231
68.645,12.7455,-0.01573965,1.19232,0.62308
69.245,12.77921,-0.01463343,1.21532,0.62305
69.845,12.8125,-0.01626677,1.24751,0.62303
70.445,12.84562,-0.01828272,1.27672,0.62301
71.045,12.87855,-0.01925895,1.30089,0.62298
71.645,12.911,-0.02000552,1.31815,0.62296
72.245,12.9429,-0.01875556,1.34129,0.62293
72.845,12.97456,-0.01838604,1.36344,0.62291
73.445,13.00605,-0.01884573,1.38772,0.62288
74.045,13.0374,-0.01872973,1.41208,0.62285
74.645,13.06845,-0.01766935,1.43514,0.62283
75.245,13.09943,-0.0184109,1.45473,0.6228
75.845,13.13011,-0.02106647,1.48358,0.62277
76.445,13.16068,-0.02116493,1.49396,0.62274
77.045,13.1909,-0.0210573,1.50908,0.62271
77.645,13.221,-0.01999145,1.55106,0.62268
78.245,13.251,-0.02017179,1.57948,0.62265
78.845,13.2807,-0.01987871,1.59162,0.62262
79.445,13.3101,-0.02127803,1.6226,0.62259
80.045,13.33937,-0.02262874,1.63927,0.62256
80.645,13.36846,-0.0227685,1.66259,0.62253
81.245,13.39745,-0.0243878,1.68329,0.62249
81.845,13.42632,-0.0243813,1.71664,0.62246
82.445,13.455,-0.02419261,1.73304,0.62242
83.045,13.4835,-0.02435348,1.74257,0.62239
83.645,13.5119,-0.02431829,1.76098,0.62235
84.245,13.54008,-0.02436359,1.80222,0.62232
84.845,13.56805,-0.0240481,1.80901,0.62228
85.445,13.5958,-0.02433837,1.8254,0.62225
86.045,13.6235,-0.0260281,1.84993,0.62221
86.645,13.65086,-0.02693364,1.86783,0.62217
87.245,13.6782,-0.027116,1.89049,0.62213
87.845,13.70546,-0.02743108,1.88898,0.62209
88.445,13.73262,-0.02739829,1.91484,0.62205
89.045,13.75959,-0.02863112,1.94039,0.62201
89.645,13.7864,-0.03024057,1.95637,0.62197
90.245,13.8131,-0.03041218,1.96998,0.62193
90.845,13.8395,-0.03148265,1.98693,0.62189
91.445,13.8658,-0.03003786,2.00466,0.62185
92.045,13.8919,-0.03152034,2.01283,0.62181
92.645,13.918,-0.03148148,2.03531,0.62176
93.245,13.9439,-0.03147993,2.05001,0.62172
93.845,13.9697,-0.03148001,2.06646,0.62168
94.445,13.9954,-0.03147834,2.06856,0.62163
95.045,14.02111,-0.03149817,2.08919,0.62159
95.645,14.0466,-0.03122557,2.08849,0.62154
96.245,14.07184,-0.03146663,2.10067,0.6215
96.845,14.097,-0.03266672,2.10683,0.62145
97.445,14.12209,-0.03280035,2.12858,0.6214
98.045,14.1472,-0.03271319,2.14471,0.62135
98.645,14.17206,-0.03403052,2.14727,0.62131
99.245,14.19687,-0.03397574,2.15118,0.62126
99.845,14.22148,-0.03432777,2.1593,0.62121
100.445,14.24596,-0.03294206,2.16738,0.62116
101.045,14.2703,-0.03302345,2.16567,0.62111
101.645,14.29454,-0.03407798,2.17719,0.62106
102.245,14.3187,-0.0342983,2.18022,0.62101
102.845,14.3428,-0.03433197,2.17915,0.62096
103.445,14.3667,-0.03432298,2.1872,0.6209
104.045,14.3906,-0.03568076,2.18278,0.62085
104.645,14.4143,-0.03565114,2.18329,0.6208
105.245,14.43798,-0.03557256,2.17403,0.62075
105.845,14.46165,-0.03696296,2.17901,0.62069
106.445,14.4852,-0.03727052,2.18825,0.62064
107.045,14.50869,-0.03718148,2.1925,0.62058
107.645,14.5321,-0.03717991,2.19136,0.62053
108.245,14.5553,-0.03718012,2.18854,0.62047
108.845,14.5785,-0.03718129,2.17873,0.62041
109.445,14.60155,-0.03765503,2.18625,0.62036
110.045,14.62451,-0.03847497,2.18359,0.6203
110.645,14.6474,-0.03850496,2.18402,0.62024
111.245,14.67014,-0.03849235,2.17481,0.62018
111.845,14.69285,-0.03741494,2.16737,0.62012
112.445,14.71544,-0.03852615,2.16099,0.62006
113.045,14.73805,-0.03877684,2.16097,0.62
113.645,14.76058,-0.0388308,2.16472,0.61994
114.245,14.783,-0.03883018,2.16596,0.61988
114.845,14.80535,-0.03882997,2.15249,0.61982
115.445,14.8275,-0.03882943,2.15051,0.61976
116.045,14.8497,-0.03882853,2.14832,0.6197
116.645,14.8718,-0.03846077,2.15372,0.61963
117.245,14.89385,-0.03886471,2.14106,0.61957
117.845,14.91581,-0.03885727,2.12547,0.61951
118.445,14.9376,-0.03957497,2.11741,0.61944
119.045,14.95933,-0.04014357,2.11651,0.61938
119.645,14.98099,-0.03921803,2.1266,0.61931
120.245,15.00262,-0.0402827,2.11658,0.61925
120.845,15.02425,-0.04159476,2.10211,0.61918
121.445,15.0458,-0.04167697,2.10615,0.61911
122.045,15.0672,-0.04154142,2.11299,0.61905
122.645,15.0885,-0.04034251,2.1253,0.61898
123.245,15.10984,-0.04036983,2.13858,0.61891
123.845,15.1311,-0.04036844,2.12989,0.61884
124.445,15.15228,-0.04170754,2.11317,0.61877
125.045,15.1734,-0.04047071,2.11744,0.6187
125.645,15.19444,-0.04046398,2.12129,0.61863
126.245,15.21545,-0.04137873,2.14321,0.61856
126.845,15.23635,-0.0417637,2.14107,0.61849
127.445,15.2572,-0.04288391,2.15024,0.61842
128.045,15.27801,-0.04310529,2.14432,0.61835
128.645,15.2987,-0.04316763,2.13539,0.61827
129.245,15.3193,-0.04179341,2.1469,0.6182
129.845,15.33991,-0.04179003,2.13774,0.61813
130.445,15.3604,-0.04179002,2.13832,0.61805
131.045,15.38086,-0.04179092,2.14605,0.61798
131.645,15.40122,-0.04135875,2.15938,0.61791
132.245,15.4215,-0.04049754,2.14158,0.61783
132.845,15.44184,-0.04048177,2.13332,0.61775
133.445,15.4621,-0.04048553,2.13928,0.61768
134.045,15.48235,-0.04057373,2.14138,0.6176
134.645,15.50259,-0.04194858,2.14919,0.61752
135.245,15.52271,-0.04241053,2.1542,0.61745
135.845,15.54277,-0.04193385,2.16286,0.61737
136.445,15.5628,-0.0420045,2.17572,0.61729
137.045,15.58271,-0.04200962,2.18426,0.61721
137.645,15.6027,-0.04201012,2.1786,0.61713
138.245,15.62258,-0.04201193,2.17095,0.61705
138.845,15.64241,-0.04203502,2.16171,0.61697
139.445,15.6622,-0.04116974,2.18794,0.61689
140.045,15.68196,-0.04071166,2.20441,0.61681
140.645,15.7016,-0.04070841,2.20151,0.61673
141.245,15.72115,-0.04077757,2.19104,0.61664
141.845,15.7407,-0.04173192,2.205,0.61656
142.445,15.76026,-0.04080503,2.18802,0.61648
143.045,15.7797,-0.04210254,2.19311,0.61639
143.645,15.79921,-0.04211627,2.19865,0.61631
144.245,15.8186,-0.0421195,2.21338,0.61623
144.845,15.838,-0.04211994,2.22316,0.61614
145.445,15.8573,-0.04211999,2.21777,0.61606
146.045,15.8766,-0.04212,2.23203,0.61597
146.645,15.89581,-0.04212,2.23165,0.61588
147.245,15.915,-0.04212,2.23274,0.6158
147.845,15.93425,-0.04212,2.24231,0.61571
148.445,15.95341,-0.04211999,2.24379,0.61562
149.045,15.97264,-0.04211988,2.27466,0.61553
149.645,15.9918,-0.04211887,2.27095,0.61544
150.245,16.0109,-0.0421125,2.27247,0.61536
150.845,16.0299,-0.04244995,2.28652,0.61527
151.445,16.04889,-0.04211082,2.303,0.61518
152.045,16.06782,-0.0421186,2.31554,0.61509
152.645,16.08664,-0.04211984,2.32575,0.61499
153.245,16.10549,-0.04211998,2.33643,0.6149
153.845,16.1244,-0.04212,2.33383,0.61481
154.445,16.14327,-0.04211999,2.33878,0.61472
155.045,16.1621,-0.04211993,2.35765,0.61463
155.645,16.1811,-0.04211958,2.37401,0.61453
156.245,16.19975,-0.04212119,2.36667,0.61444
156.845,16.21852,-0.04092266,2.38179,0.61435
157.445,16.23721,-0.04125593,2.40008,0.61425
158.045,16.2559,-0.04216319,2.40825,0.61416
158.645,16.27456,-0.0421575,2.40318,0.61406
159.245,16.2932,-0.04377856,2.42872,0.61397
159.845,16.31184,-0.04366664,2.44929,0.61387
160.445,16.33052,-0.04366017,2.45457,0.61377
161.045,16.34911,-0.04365997,2.46161,0.61368
161.645,16.36768,-0.04365994,2.47743,0.61358
162.245,16.3862,-0.04365905,2.47622,0.61348
162.845,16.40474,-0.04364817,2.47887,0.61338
163.445,16.42315,-0.04352375,2.48066,0.61328
164.045,16.44161,-0.04218725,2.48786,0.61319
164.645,16.46,-0.04222996,2.50254,0.61309
165.245,16.4785,-0.04138187,2.5149,0.61299
165.845,16.49684,-0.04091764,2.53196,0.61289
166.445,16.51519,-0.04116332,2.53602,0.61278
167.045,16.5335,-0.04252539,2.54086,0.61268
167.645,16.55177,-0.04245672,2.54862,0.61258
168.245,16.57001,-0.04245023,2.57106,0.61248
168.845,16.58825,-0.04159903,2.59245,0.61238
169.445,16.60647,-0.04148011,2.60273,0.61227
170.045,16.62474,-0.04146195,2.61243,0.61217
170.645,16.643,-0.04145998,2.62733,0.61207
171.245,16.66114,-0.04145922,2.63509,0.61196
171.845,16.6794,-0.04146466,2.64716,0.61186
172.445,16.69754,-0.04191754,2.65999,0.61175
173.045,16.7156,-0.04281337,2.66893,0.61165
173.645,16.73374,-0.04277367,2.67969,0.61154
174.245,16.75178,-0.04277019,2.66934,0.61143
174.845,16.7698,-0.04277001,2.7041,0.61133
175.445,16.7878,-0.04277119,2.72723,0.61122
176.045,16.80576,-0.04285231,2.73181,0.61111
176.645,16.82367,-0.04489396,2.73246,0.611
177.245,16.84163,-0.04539795,2.74173,0.6109
177.845,16.85955,-0.04540576,2.75692,0.61079
178.445,16.87744,-0.04489665,2.76147,0.61068
179.045,16.89535,-0.04476693,2.77212,0.61057
179.645,16.91325,-0.04475135,2.78921,0.61046
180.245,16.93114,-0.04475005,2.80802,0.61035
180.845,16.94899,-0.04475,2.82443,0.61024
181.445,16.96685,-0.04475,2.85502,0.61012
182.045,16.98465,-0.04474999,2.84194,0.61001
182.645,17.00242,-0.04474992,2.85459,0.6099
183.245,17.02015,-0.04474995,2.86772,0.60979
183.845,17.03789,-0.0447571,2.87888,0.60968
184.445,17.05552,-0.04391428,2.89022,0.60956
185.045,17.07319,-0.04487077,2.91851,0.60945
185.645,17.09082,-0.04475179,2.94105,0.60933
186.245,17.10843,-0.04478293,2.95947,0.60922
186.845,17.12604,-0.04355448,2.9631,0.6091
187.445,17.1436,-0.0433369,2.95919,0.60899
188.045,17.16123,-0.04332029,2.9882,0.60887
188.645,17.1787,-0.04332399,2.9894,0.60876
189.245,17.1963,-0.04357911,3.0141,0.60864
189.845,17.21371,-0.04590292,3.02508,0.60852
190.445,17.23115,-0.045961,3.03676,0.60841
191.045,17.24857,-0.04595987,3.04352,0.60829
191.645,17.26601,-0.04596005,3.0437,0.60817
192.245,17.28335,-0.04596067,3.06946,0.60805
192.845,17.30069,-0.04596168,3.07112,0.60793
193.445,17.31811,-0.04591996,3.09745,0.60781
194.045,17.33544,-0.04704744,3.10978,0.60769
194.645,17.35281,-0.04726671,3.12609,0.60757
195.245,17.37022,-0.04727968,3.14401,0.60745
195.845,17.38748,-0.04729885,3.1589,0.60733
196.445,17.40476,-0.04669581,3.16627,0.60721
197.045,17.42205,-0.04734368,3.19121,0.60709
197.645,17.43928,-0.04727733,3.19883,0.60697
198.245,17.45647,-0.04727843,3.20597,0.60684
198.845,17.47385,-0.04727456,3.19474,0.60672
199.445,17.49107,-0.04726094,3.20112,0.6066
200.045,17.50829,-0.04810865,3.22543,0.60647
200.645,17.52551,-0.04860599,3.23213,0.60635
201.245,17.54273,-0.04860047,3.24625,0.60623
201.845,17.55989,-0.04859999,3.25759,0.6061
202.445,17.57702,-0.04859952,3.28377,0.60598
203.045,17.59413,-0.04859437,3.29227,0.60585
203.645,17.6112,-0.04857872,3.3012,0.60572
204.245,17.6283,-0.04942095,3.3066,0.6056
204.845,17.6454,-0.04990916,3.33535,0.60547
205.445,17.66253,-0.05048665,3.36277,0.60534
206.045,17.67959,-0.05122711,3.38185,0.60522
206.645,17.69667,-0.0512502,3.38658,0.60509
207.245,17.7137,-0.05154236,3.41224,0.60496
207.845,17.73079,-0.0525426,3.43826,0.60483
208.445,17.74779,-0.05254545,3.45323,0.6047
209.045,17.7649,-0.05170436,3.46649,0.60457
209.645,17.7819,-0.05125827,3.48735,0.60444
210.245,17.7989,-0.05118478,3.50627,0.60431
210.845,17.8159,-0.0528264,3.50302,0.60418
211.445,17.83295,-0.05389876,3.52318,0.60405
212.045,17.84992,-0.05384983,3.54851,0.60392
212.645,17.86692,-0.05385128,3.56377,0.60379
213.245,17.8839,-0.05388974,3.57952,0.60366
213.845,17.90086,-0.05521254,3.57543,0.60352
214.445,17.91775,-0.0551583,3.60659,0.60339
215.045,17.93468,-0.05516646,3.6209,0.60326
215.645,17.95157,-0.05516054,3.64548,0.60313
216.245,17.9685,-0.05396602,3.65014,0.60299
216.845,17.98538,-0.05390816,3.67008,0.60286
217.445,18.00228,-0.05403656,3.66711,0.60272
218.045,18.01914,-0.05517581,3.70833,0.60259
218.645,18.03598,-0.05518007,3.71678,0.60245
219.245,18.05273,-0.05519197,3.72579,0.60232
219.845,18.06955,-0.05515987,3.75337,0.60218
220.445,18.0864,-0.05682482,3.77528,0.60205
221.045,18.1033,-0.05786269,3.79985,0.60191
221.645,18.12002,-0.05780091,3.81358,0.60177
222.245,18.13697,-0.05841001,3.81262,0.60163
222.845,18.1538,-0.05967645,3.83707,0.6015
223.445,18.17052,-0.05977529,3.86708,0.60136
224.045,18.18732,-0.06020644,3.88043,0.60122
224.645,18.2042,-0.0609458,3.90006,0.60108
225.245,18.221,-0.05976096,3.91329,0.60094
225.845,18.23772,-0.05970524,3.93727,0.6008
226.445,18.2545,-0.0610514,3.96736,0.60066
227.045,18.2712,-0.06117561,3.98213,0.60052
227.645,18.28794,-0.06199255,3.99916,0.60038
228.245,18.30471,-0.0625265,4.00888,0.60024
228.845,18.3215,-0.06251835,4.03955,0.6001
229.445,18.33819,-0.06272191,4.05795,0.59996
230.045,18.35494,-0.06392237,4.07206,0.59982
230.645,18.37164,-0.063843,4.08548,0.59967
231.245,18.3883,-0.06375889,4.09449,0.59953
231.845,18.40495,-0.06509411,4.09913,0.59939
232.445,18.42163,-0.06520362,4.12314,0.59924
233.045,18.4383,-0.06660168,4.13879,0.5991
233.645,18.45496,-0.06689745,4.15212,0.59896
234.245,18.47167,-0.06823705,4.16235,0.59881
234.845,18.4883,-0.06922296,4.17131,0.59867
235.445,18.50499,-0.06978136,4.18529,0.59852
236.045,18.52169,-0.07110311,4.19676,0.59838
236.645,18.53833,-0.07142237,4.18996,0.59823
237.245,18.5549,-0.07183545,4.20354,0.59809
237.845,18.57155,-0.07280977,4.21709,0.59794
238.445,18.58817,-0.07381171,4.22335,0.59779
239.045,18.60474,-0.0752133,4.23747,0.59765
239.645,18.62131,-0.07699026,4.23984,0.5975
240.245,18.63786,-0.07735093,4.25622,0.59735
240.845,18.6543,-0.07755036,4.25389,0.5972
241.445,18.6709,-0.07867372,4.26309,0.59705
242.045,18.6875,-0.07877007,4.25994,0.59691
242.645,18.70407,-0.08022124,4.25844,0.59676
243.245,18.72065,-0.0810911,4.26476,0.59661
243.845,18.7373,-0.082223,4.2663,0.59646
244.445,18.75388,-0.08348112,4.2615,0.59631
245.045,18.77037,-0.08502412,4.2833,0.59616
245.645,18.78689,-0.08545094,4.29689,0.59601
246.245,18.80343,-0.08700613,4.3209,0.59585
246.845,18.81993,-0.08873348,4.29304,0.5957
247.445,18.83643,-0.09027143,4.30549,0.59555
248.045,18.85294,-0.09126232,4.30377,0.5954
248.645,18.8694,-0.09213745,4.31326,0.59525
249.245,18.88591,-0.09364937,4.30285,0.5951
249.845,18.90235,-0.09463898,4.29213,0.59494
250.445,18.91882,-0.09571325,4.30118,0.59479
251.045,18.9353,-0.09725401,4.29015,0.59464
251.645,18.95172,-0.09897661,4.27467,0.59448
252.245,18.96821,-0.10058,4.25793,0.59433
252.845,18.98469,-0.10154,4.26362,0.59417
253.445,19.0012,-0.10367,4.25481,0.59402
254.045,19.01771,-0.1059,4.24603,0.59386
254.645,19.03416,-0.10739,4.24231,0.59371
255.245,19.05067,-0.10765,4.22684,0.59355
255.845,19.06713,-0.10985,4.20882,0.5934
256.445,19.08359,-0.11209,4.18922,0.59324
257.045,19.09999,-0.11363,4.18724,0.59308
257.645,19.1164,-0.11516,4.18806,0.59293
258.245,19.13283,-0.11678,4.18557,0.59277
258.845,19.14925,-0.11871,4.1704,0.59261
259.445,19.16562,-0.11999,4.16882,0.59245
260.045,19.18205,-0.11997,4.16239,0.59229
260.645,19.1984,-0.12165,4.16126,0.59214
261.245,19.21481,-0.12357,4.1564,0.59198
261.845,19.23122,-0.12604,4.14145,0.59182
262.445,19.24764,-0.12793,4.14556,0.59166
263.045,19.264,-0.12952,4.14347,0.5915
263.645,19.28042,-0.13165,4.13475,0.59134
264.245,19.29683,-0.13348,4.14311,0.59118
264.845,19.31326,-0.13551,4.16093,0.59102
265.445,19.3296,-0.13686,4.16472,0.59086
266.045,19.34606,-0.13875,4.14375,0.59069
266.645,19.36243,-0.14179,4.1568,0.59053
267.245,19.37879,-0.14366,4.15469,0.59037
267.845,19.39518,-0.14558,4.15481,0.59021
268.445,19.41152,-0.14646,4.15635,0.59005
269.045,19.4279,-0.14788,4.15788,0.58988
269.645,19.44424,-0.14976,4.16663,0.58972
270.245,19.46061,-0.15166,4.16651,0.58956
270.845,19.47695,-0.154,4.16589,0.58939
271.445,19.49329,-0.1562,4.17798,0.58923
272.045,19.50966,-0.15869,4.17269,0.58907
272.645,19.52599,-0.16094,4.17746,0.5889
273.245,19.54235,-0.16361,4.17837,0.58874
273.845,19.5587,-0.16584,4.18828,0.58857
274.445,19.575,-0.16815,4.20015,0.58841
275.045,19.5914,-0.16955,4.21894,0.58824
275.645,19.60775,-0.17156,4.21707,0.58807
276.245,19.62407,-0.17388,4.21661,0.58791
276.845,19.6404,-0.17689,4.23345,0.58774
277.445,19.65674,-0.17912,4.24893,0.58758
278.045,19.67308,-0.1816,4.23309,0.58741
278.645,19.6894,-0.1843,4.24165,0.58724
279.245,19.70574,-0.18578,4.25883,0.58707
279.845,19.72211,-0.18933,4.26565,0.58691
280.445,19.73846,-0.19232,4.26308,0.58674
281.045,19.75481,-0.19459,4.26406,0.58657
281.645,19.77114,-0.1971,4.26394,0.5864
282.245,19.78748,-0.20025,4.28083,0.58623
282.845,19.8038,-0.20248,4.29508,0.58606
283.445,19.82014,-0.2069,4.29972,0.58589
284.045,19.83651,-0.21079,4.29535,0.58572
284.645,19.85272,-0.2132,4.30042,0.58555
285.245,19.86903,-0.21659,4.30494,0.58538
285.845,19.8854,-0.21958,4.2961,0.58521
286.445,19.9017,-0.22111,4.30642,0.58504
287.045,19.91805,-0.22506,4.30932,0.58487
287.645,19.93446,-0.22822,4.32074,0.5847
288.245,19.951,-0.23126,4.32881,0.58453
288.845,19.96736,-0.23499,4.31044,0.58435
289.445,19.98376,-0.23798,4.31852,0.58418
290.045,20.0001,-0.24078,4.31885,0.58401
290.645,20.01644,-0.24455,4.33658,0.58384
291.245,20.0328,-0.24856,4.31164,0.58366
291.845,20.04908,-0.25397,4.3034,0.58349
292.445,20.06542,-0.25804,4.31611,0.58332
293.045,20.08178,-0.26285,4.31125,0.58314
293.645,20.0981,-0.26753,4.30154,0.58297
294.245,20.11447,-0.27165,4.30945,0.58279
294.845,20.13082,-0.27662,4.30226,0.58262
295.445,20.14716,-0.28018,4.29599,0.58244
296.045,20.1635,-0.28497,4.29307,0.58227
296.645,20.17987,-0.28965,4.2977,0.58209
297.245,20.19618,-0.29421,4.30165,0.58192
297.845,20.21248,-0.29935,4.30282,0.58174
298.445,20.22876,-0.3037,4.29673,0.58157
299.045,20.2451,-0.30856,4.29818,0.58139
299.645,20.26136,-0.31353,4.29308,0.58121
300.245,20.27766,-0.31867,4.29997,0.58104
300.845,20.29401,-0.32413,4.28192,0.58086
301.445,20.31036,-0.32996,4.26723,0.58068
302.045,20.3267,-0.33565,4.2674,0.5805
302.645,20.34308,-0.34089,4.26835,0.58033
303.245,20.3594,-0.34768,4.28222,0.58015
303.845,20.37574,-0.35397,4.28104,0.57997
304.445,20.3921,-0.35958,4.26825,0.57979
305.045,20.40846,-0.36682,4.27129,0.57961
305.645,20.42482,-0.37229,4.26085,0.57943
306.245,20.44119,-0.37884,4.25389,0.57925
306.845,20.45756,-0.38412,4.26344,0.57907
307.445,20.47392,-0.38974,4.26235,0.57889
308.045,20.49025,-0.39717,4.2689,0.57871
308.645,20.50659,-0.4027,4.27109,0.57853
309.245,20.5229,-0.41056,4.26212,0.57835
309.845,20.53925,-0.41657,4.25596,0.57817
310.445,20.55562,-0.4226,4.25706,0.57799
311.045,20.57196,-0.43106,4.26621,0.57781
311.645,20.58831,-0.43736,4.26712,0.57763
312.245,20.60465,-0.44515,4.25958,0.57745
312.845,20.621,-0.45149,4.26427,0.57727
313.445,20.63736,-0.45806,4.27168,0.57708
314.045,20.65369,-0.4664,4.25805,0.5769
314.645,20.67002,-0.47297,4.27957,0.57672
315.245,20.6864,-0.48057,4.26504,0.57654
315.845,20.7028,-0.48714,4.26859,0.57635
316.445,20.7191,-0.49465,4.271,0.57617
317.045,20.73541,-0.5029,4.28123,0.57598
317.645,20.7517,-0.51,4.30857,0.5758
318.245,20.7681,-0.5195,4.29657,0.57562
318.845,20.78442,-0.52684,4.30772,0.57543
319.445,20.80078,-0.53544,4.3217,0.57525
320.045,20.81718,-0.54503,4.32595,0.57506
320.645,20.83357,-0.55245,4.33959,0.57488
321.245,20.84989,-0.56165,4.35182,0.57469
321.845,20.86628,-0.5686,4.36205,0.57451
322.445,20.88268,-0.57741,4.38737,0.57432
323.045,20.89902,-0.58478,4.38125,0.57414
323.645,20.91542,-0.59342,4.39588,0.57395
324.245,20.9318,-0.60378,4.40786,0.57376
324.845,20.94817,-0.6114,4.43217,0.57358
325.445,20.96454,-0.62136,4.4319,0.57339
326.045,20.9809,-0.63039,4.45918,0.5732
326.645,20.9973,-0.64014,4.47517,0.57302
327.245,21.0137,-0.65111,4.48537,0.57283
327.845,21.0301,-0.65972,4.49133,0.57264
328.445,21.0465,-0.67069,4.52361,0.57245
329.045,21.06289,-0.67971,4.53386,0.57227
329.645,21.07931,-0.68957,4.54627,0.57208
330.245,21.09572,-0.6998,4.56572,0.57189
330.845,21.11212,-0.70886,4.57783,0.5717
331.445,21.12854,-0.72041,4.59155,0.57151
332.045,21.14483,-0.72959,4.6121,0.57132
332.645,21.16125,-0.74037,4.63585,0.57113
333.245,21.17765,-0.75145,4.64949,0.57094
333.845,21.19414,-0.76136,4.67676,0.57075
334.445,21.21057,-0.7731,4.68253,0.57056
335.045,21.2271,-0.7823,4.70649,0.57037
335.645,21.2436,-0.79396,4.72022,0.57018
336.245,21.26004,-0.80424,4.75043,0.56999
336.845,21.2765,-0.81458,4.78607,0.5698
337.445,21.2929,-0.82678,4.78707,0.56961
338.045,21.30939,-0.83681,4.81839,0.56942
338.645,21.32583,-0.84985,4.83608,0.56923
339.245,21.34233,-0.86033,4.86208,0.56904
339.845,21.3588,-0.87295,4.87864,0.56885
340.445,21.3753,-0.88555,4.89591,0.56865
341.045,21.39184,-0.89604,4.90983,0.56846
341.645,21.4084,-0.90875,4.93125,0.56827
342.245,21.4249,-0.91859,4.96391,0.56808
342.845,21.44139,-0.93117,5.00426,0.56789
343.445,21.45789,-0.94385,5.00664,0.56769
344.045,21.47438,-0.95495,5.03718,0.5675
344.645,21.49089,-0.96874,5.03699,0.56731
345.245,21.50737,-0.97939,5.07332,0.56711
345.845,21.52373,-0.99335,5.07969,0.56692
346.445,21.5401,-1.00567,5.11034,0.56673
347.045,21.5566,-1.01824,5.11789,0.56653
347.645,21.57315,-1.03379,5.15876,0.56634
348.245,21.58974,-1.04489,5.18404,0.56614
348.845,21.60635,-1.05911,5.20907,0.56595
349.445,21.62302,-1.07062,5.23985,0.56575
350.045,21.63966,-1.08392,5.24058,0.56556
350.645,21.65626,-1.09801,5.28396,0.56536
351.245,21.67275,-1.10945,5.31344,0.56517
351.845,21.68916,-1.12351,5.34174,0.56497
352.445,21.7056,-1.13446,5.34735,0.56478
353.045,21.72212,-1.14874,5.37154,0.56458
353.645,21.73869,-1.16289,5.40864,0.56438
354.245,21.75526,-1.17594,5.43987,0.56419
354.845,21.77197,-1.19213,5.4742,0.56399
355.445,21.7887,-1.20428,5.50471,0.5638
356.045,21.80542,-1.21968,5.5323,0.5636
356.645,21.82199,-1.23302,5.54495,0.5634
357.245,21.83855,-1.24711,5.60445,0.5632
357.845,21.85514,-1.2623,5.61875,0.56301
358.445,21.87177,-1.27462,5.66124,0.56281
359.045,21.8884,-1.29143,5.7008,0.56261
359.645,21.90501,-1.30427,5.73796,0.56241
360.245,21.92174,-1.3196,5.76611,0.56222
360.845,21.93839,-1.33449,5.8133,0.56202
361.445,21.95499,-1.34871,5.84933,0.56182
362.045,21.97162,-1.36666,5.88504,0.56162
362.645,21.98824,-1.38023,5.93835,0.56142
363.245,22.00489,-1.39692,5.97597,0.56122
363.845,22.02149,-1.41108,6.02358,0.56103
364.445,22.0382,-1.42659,6.05949,0.56083
365.045,22.05489,-1.444,6.10103,0.56063
365.645,22.07156,-1.4582,6.1528,0.56043
366.245,22.0882,-1.47459,6.18381,0.56023
366.845,22.10491,-1.48846,6.23955,0.56003
367.445,22.1216,-1.50537,6.3058,0.55983
368.045,22.1383,-1.52218,6.34503,0.55963
368.645,22.15501,-1.5378,6.39916,0.55943
369.245,22.17171,-1.55728,6.44123,0.55923
369.845,22.1885,-1.57218,6.49627,0.55903
370.445,22.20518,-1.59212,6.5434,0.55883
371.045,22.2219,-1.60816,6.57417,0.55863
371.645,22.23856,-1.62555,6.63152,0.55842
372.245,22.25531,-1.64493,6.69104,0.55822
372.845,22.27204,-1.66108,6.72793,0.55802
373.445,22.28876,-1.68142,6.76989,0.55782
374.045,22.30544,-1.69705,6.79709,0.55762
374.645,22.32218,-1.71565,6.84233,0.55742
375.245,22.33895,-1.73354,6.89601,0.55721
375.845,22.35566,-1.75087,6.94022,0.55701
376.445,22.37246,-1.77264,6.95477,0.55681
377.045,22.38926,-1.78885,6.9683,0.55661
377.645,22.4062,-1.80913,7.02318,0.55641
378.245,22.42304,-1.82601,7.01915,0.5562
378.845,22.4399,-1.84507,7.03787,0.556
379.445,22.45663,-1.86533,7.04391,0.5558
380.045,22.47344,-1.88276,7.04306,0.55559
380.645,22.49023,-1.90354,7.02079,0.55539
381.245,22.50698,-1.92009,7.00632,0.55519
381.845,22.52382,-1.94065,6.98719,0.55498
382.445,22.54064,-1.9586,6.9581,0.55478
383.045,22.5575,-1.97658,6.89991,0.55458
383.645,22.57433,-1.99716,6.83647,0.55437
384.245,22.59119,-2.01324,6.7761,0.55417
384.845,22.6081,-2.03484,6.70295,0.55396
385.445,22.62496,-2.05095,6.62344,0.55376
386.045,22.64187,-2.07013,6.53158,0.55355
386.645,22.65879,-2.08838,6.40829,0.55335
387.245,22.6757,-2.10539,6.2588,0.55314
387.845,22.69259,-2.12481,6.12655,0.55294
388.445,22.70939,-2.13905,5.97141,0.55273
389.045,22.72627,-2.15716,5.82227,0.55253
389.645,22.74315,-2.17106,5.65311,0.55232
390.245,22.76003,-2.18575,5.44683,0.55212
390.845,22.777,-2.20143,5.25525,0.55191
391.445,22.79411,-2.21483,5.03094,0.55171
392.045,22.81108,-2.23065,4.8069,0.5515
392.645,22.82807,-2.24216,4.56921,0.55129
393.245,22.8451,-2.25637,4.32239,0.55109
393.845,22.86209,-2.26757,4.0822,0.55088
394.445,22.8791,-2.27932,3.8468,0.55068
395.045,22.8961,-2.29094,3.61919,0.55047
395.645,22.9131,-2.2999,3.35744,0.55026
396.245,22.93007,-2.30992,3.11284,0.55006
396.845,22.94707,-2.31698,2.88143,0.54985
397.445,22.96411,-2.32586,2.66761,0.54964
398.045,22.98113,-2.33321,2.44387,0.54943
398.645,22.99819,-2.34021,2.25928,0.54923
399.245,23.01526,-2.34709,2.07581,0.54902
399.845,23.0323,-2.35195,1.89854,0.54881
400.445,23.04935,-2.35753,1.7494,0.5486
401.045,23.0664,-2.3614,1.60963,0.5484
401.645,23.08342,-2.3662,1.4656,0.54819
402.245,23.10045,-2.37063,1.33853,0.54798
402.845,23.11749,-2.37486,1.22241,0.54777
403.445,23.13456,-2.38028,1.1417,0.54756
404.045,23.15165,-2.38278,1.03137,0.54736
404.645,23.16872,-2.38586,0.96552,0.54715
405.245,23.18582,-2.3891,0.88882,0.54694
405.845,23.20287,-2.39188,0.8311,0.54673
406.445,23.21996,-2.39454,0.79165,0.54652
407.045,23.23701,-2.39768,0.73248,0.54631
407.645,23.25406,-2.40007,0.67944,0.5461
408.245,23.27114,-2.40184,0.64042,0.54589
408.845,23.28825,-2.40445,0.60965,0.54569
409.445,23.3053,-2.40787,0.57285,0.54548
410.045,23.32242,-2.41027,0.55608,0.54527
410.645,23.33951,-2.41304,0.51464,0.54506
411.245,23.35659,-2.4156,0.48848,0.54485
411.845,23.37367,-2.41855,0.44962,0.54464
412.445,23.39078,-2.42139,0.41373,0.54443
413.045,23.40789,-2.42364,0.38781,0.54422
413.645,23.425,-2.42544,0.37956,0.54401
414.245,23.44213,-2.42797,0.34491,0.5438
414.845,23.45928,-2.43001,0.32411,0.54359
415.445,23.47644,-2.43185,0.30367,0.54338
416.045,23.49359,-2.4336,0.28217,0.54317
416.645,23.51074,-2.43556,0.25009,0.54296
417.245,23.5279,-2.43771,0.2237,0.54274
417.845,23.54512,-2.43967,0.21851,0.54253
418.445,23.56229,-2.44206,0.20176,0.54232
419.045,23.57948,-2.44375,0.17683,0.54211
419.645,23.59669,-2.44531,0.1405,0.5419
420.245,23.6139,-2.44684,0.11569,0.54169
420.845,23.63104,-2.44906,0.10675,0.54148
421.445,23.64825,-2.45153,0.08120939,0.54127
422.045,23.66546,-2.45316,0.06351381,0.54106
422.645,23.6826,-2.45536,0.05037383,0.54084
423.245,23.69983,-2.45708,0.02557987,0.54063
423.845,23.71706,-2.45804,0.00069897,0.54042
424.445,23.73432,-2.45889,-0.01670563,0.54021
425.045,23.75157,-2.4603,-0.01695125,0.54
425.645,23.76885,-2.46169,-0.04023859,0.53978
426.245,23.78612,-2.46367,-0.07473411,0.53957
426.845,23.80339,-2.46658,-0.09891566,0.53936
427.445,23.82062,-2.46934,-0.11118,0.53915
428.045,23.83784,-2.47206,-0.13024,0.53894
428.645,23.85519,-2.47398,-0.16187,0.53872
429.245,23.87246,-2.47565,-0.16805,0.53851
429.845,23.8898,-2.47669,-0.2038,0.5383
430.445,23.90713,-2.47903,-0.233,0.53809
431.045,23.9245,-2.48087,-0.25338,0.53787
431.645,23.94184,-2.48283,-0.26722,0.53766
432.245,23.9592,-2.48422,-0.29148,0.53745
432.845,23.97655,-2.48505,-0.30558,0.53723
433.445,23.99391,-2.48649,-0.32698,0.53702
434.045,24.01125,-2.48852,-0.34236,0.53681
434.645,24.02863,-2.49064,-0.36157,0.53659
435.245,24.046,-2.49307,-0.38496,0.53638
435.845,24.06341,-2.49444,-0.40977,0.53617
436.445,24.0808,-2.49587,-0.42802,0.53595
437.045,24.09822,-2.49787,-0.43615,0.53574
437.645,24.11559,-2.49988,-0.44716,0.53553
438.245,24.13291,-2.50202,-0.46005,0.53531
438.845,24.15032,-2.50374,-0.46652,0.5351
439.445,24.1677,-2.5065,-0.48709,0.53489
440.045,24.18516,-2.50728,-0.5014,0.53467
440.645,24.20262,-2.50844,-0.51824,0.53446
441.245,24.22017,-2.50875,-0.54297,0.53424
441.845,24.23762,-2.51048,-0.5515,0.53403
442.445,24.2551,-2.51116,-0.56796,0.53382
443.045,24.27257,-2.51253,-0.57541,0.5336
443.645,24.29005,-2.51401,-0.59222,0.53339
444.245,24.3075,-2.51549,-0.60906,0.53317
444.845,24.32489,-2.51783,-0.60038,0.53296
445.445,24.34241,-2.51958,-0.61864,0.53274
446.045,24.35987,-2.52135,-0.63877,0.53253
446.645,24.37738,-2.52265,-0.66002,0.53231
447.245,24.3949,-2.52397,-0.67351,0.5321
447.845,24.41243,-2.52559,-0.68758,0.53188
448.445,24.42991,-2.52737,-0.6988,0.53167
449.045,24.4475,-2.52946,-0.70222,0.53145
449.645,24.46497,-2.5315,-0.70056,0.53124
450.245,24.48254,-2.53357,-0.70272,0.53102
450.845,24.50006,-2.53495,-0.71581,0.53081
451.445,24.51764,-2.53623,-0.69753,0.53059
452.045,24.53519,-2.53642,-0.70313,0.53038
452.645,24.55278,-2.53776,-0.69932,0.53016
453.245,24.57035,-2.53936,-0.70561,0.52995
453.845,24.588,-2.5403,-0.71626,0.52973
454.445,24.6055,-2.54145,-0.72117,0.52952
455.045,24.62313,-2.54309,-0.71444,0.5293
455.645,24.64075,-2.54477,-0.72847,0.52909
456.245,24.65835,-2.54684,-0.72118,0.52887
456.845,24.67599,-2.54927,-0.70852,0.52865
457.445,24.69366,-2.55048,-0.70359,0.52844
458.045,24.71125,-2.55161,-0.70223,0.52822
458.645,24.72886,-2.55331,-0.71375,0.52801
459.245,24.74646,-2.55488,-0.72253,0.52779
459.845,24.7641,-2.55629,-0.71879,0.52758
460.445,24.7818,-2.55694,-0.7045,0.52736
461.045,24.7995,-2.55861,-0.69794,0.52714
461.645,24.81721,-2.56018,-0.70253,0.52693
462.245,24.83493,-2.56141,-0.68235,0.52671
462.845,24.8526,-2.56305,-0.67353,0.5265
463.445,24.8703,-2.56292,-0.6755,0.52628
464.045,24.88796,-2.56308,-0.67152,0.52606
464.645,24.90563,-2.56451,-0.66949,0.52585
465.245,24.9234,-2.56563,-0.66348,0.52563
465.845,24.94109,-2.56672,-0.64639,0.52541
466.445,24.95885,-2.56926,-0.63079,0.5252
467.045,24.9766,-2.5708,-0.61475,0.52498
467.645,24.99435,-2.57206,-0.61356,0.52476
468.245,25.01205,-2.57304,-0.60084,0.52455
468.845,25.02984,-2.57454,-0.59097,0.52433
469.445,25.0476,-2.57528,-0.5694,0.52411
470.045,25.06539,-2.57598,-0.5655,0.5239
470.645,25.08319,-2.57653,-0.55372,0.52368
471.245,25.101,-2.5777,-0.53784,0.52346
471.845,25.11875,-2.57788,-0.53072,0.52325
472.445,25.13656,-2.57949,-0.5194,0.52303
473.045,25.1543,-2.58134,-0.50197,0.52281
473.645,25.17214,-2.58258,-0.48298,0.5226
474.245,25.18996,-2.58332,-0.46883,0.52238
474.845,25.2078,-2.58468,-0.45459,0.52216
475.445,25.22564,-2.58544,-0.44007,0.52195
476.045,25.24355,-2.5869,-0.40788,0.52173
476.645,25.26142,-2.5884,-0.41485,0.52151
477.245,25.27927,-2.59043,-0.41146,0.5213
477.845,25.29715,-2.59086,-0.39539,0.52108
478.445,25.31502,-2.59178,-0.39569,0.52086
479.045,25.33286,-2.59273,-0.3753,0.52064
479.645,25.35074,-2.59331,-0.34294,0.52043
480.245,25.36864,-2.59452,-0.32235,0.52021
480.845,25.38651,-2.59449,-0.31304,0.51999
481.445,25.4044,-2.596,-0.30394,0.51977
482.045,25.42234,-2.59658,-0.31256,0.51956
482.645,25.44024,-2.59638,-0.28602,0.51934
483.245,25.45816,-2.59803,-0.26563,0.51912
483.845,25.4761,-2.59947,-0.25367,0.51891
484.445,25.49403,-2.6004,-0.24655,0.51869
485.045,25.51203,-2.60325,-0.23283,0.51847
485.645,25.53001,-2.60417,-0.22965,0.51825
486.245,25.548,-2.6046,-0.21916,0.51804
486.845,25.5659,-2.60455,-0.21049,0.51782
487.445,25.5839,-2.60564,-0.20608,0.5176
488.045,25.6019,-2.60617,-0.19964,0.51738
488.645,25.61985,-2.60757,-0.18439,0.51717
489.245,25.63784,-2.6088,-0.18651,0.51695
489.845,25.65578,-2.60901,-0.18025,0.51673
490.445,25.67384,-2.61069,-0.18845,0.51651
491.045,25.69184,-2.6119,-0.17887,0.5163
491.645,25.70984,-2.61216,-0.1466,0.51608
492.245,25.72782,-2.61357,-0.1338,0.51586
492.845,25.7459,-2.61369,-0.13562,0.51564
493.445,25.7639,-2.61502,-0.12527,0.51542
494.045,25.78194,-2.61499,-0.13,0.51521
494.645,25.80003,-2.61634,-0.1244,0.51499
495.245,25.81811,-2.61683,-0.09401917,0.51477
495.845,25.8362,-2.61782,-0.09734655,0.51455
496.445,25.8542,-2.61777,-0.08931979,0.51434
497.045,25.8723,-2.61777,-0.08935683,0.51412
497.645,25.89039,-2.61776,-0.08893086,0.5139
498.245,25.90842,-2.61869,-0.08209024,0.51368
498.845,25.92651,-2.6194,-0.08074818,0.51346
499.445,25.9446,-2.62092,-0.06234939,0.51325
500.045,25.96266,-2.62177,-0.06051723,0.51303
500.645,25.9807,-2.62235,-0.04577988,0.51281
501.245,25.99886,-2.62349,-0.04274688,0.51259
501.845,26.017,-2.62532,-0.03145732,0.51238
502.445,26.03513,-2.62552,-0.04041127,0.51216
503.045,26.05329,-2.62667,-0.03577919,0.51194
503.645,26.07145,-2.62533,-0.0301742,0.51172
504.245,26.08959,-2.6264,-0.02547039,0.5115
504.845,26.10773,-2.62643,-0.02910693,0.51129
505.445,26.1259,-2.62673,-0.02629064,0.51107
506.045,26.14402,-2.62804,-0.02516922,0.51085
506.645,26.1622,-2.62856,-0.01988881,0.51063
507.245,26.1804,-2.62951,-0.02684711,0.51042
507.845,26.1986,-2.63117,-0.02629488,0.5102
508.445,26.21684,-2.63358,-0.02425434,0.50998
509.045,26.2351,-2.63405,-0.02397138,0.50976
509.645,26.25337,-2.63598,-0.03016929,0.50954
510.245,26.2716,-2.63652,-0.03650762,0.50933
510.845,26.2898,-2.63652,-0.02553101,0.50911
511.445,26.308,-2.63777,-0.01926265,0.50889
512.045,26.32625,-2.63776,-0.02182345,0.50867
512.645,26.3445,-2.63683,-0.02200307,0.50846
513.245,26.3627,-2.63784,-0.03640096,0.50824
513.845,26.381,-2.63826,-0.02404667,0.50802
514.445,26.3992,-2.6393,-0.02990467,0.5078
515.045,26.4174,-2.64001,-0.03209269,0.50758
515.645,26.43569,-2.64059,-0.03663762,0.50737
516.245,26.45397,-2.6406,-0.03217201,0.50715
516.845,26.4722,-2.64075,-0.03346145,0.50693
517.445,26.49055,-2.6419,-0.03799439,0.50671
518.045,26.5088,-2.64185,-0.0540494,0.5065
518.645,26.52712,-2.64329,-0.04815051,0.50628
519.245,26.5454,-2.64359,-0.05065186,0.50606
519.845,26.5637,-2.6449,-0.05066216,0.50584
520.445,26.58202,-2.64573,-0.0566547,0.50562
521.045,26.60039,-2.6464,-0.05902451,0.50541
521.645,26.6188,-2.64637,-0.04878157,0.50519
522.245,26.63712,-2.64758,-0.06019057,0.50497
522.845,26.65547,-2.6476,-0.06067523,0.50475
523.445,26.6738,-2.6491,-0.06560259,0.50454
524.045,26.6921,-2.64933,-0.07007971,0.50432
524.645,26.7105,-2.6507,-0.07279886,0.5041
525.245,26.72884,-2.65068,-0.07649698,0.50388
525.845,26.74721,-2.65109,-0.07536767,0.50367
526.445,26.7656,-2.65215,-0.07448835,0.50345
527.045,26.78395,-2.65284,-0.07623271,0.50323
527.645,26.80227,-2.65339,-0.07859695,0.50301
528.245,26.8206,-2.6538,-0.07656223,0.5028
528.845,26.839,-2.65475,-0.08933666,0.50258
529.445,26.8574,-2.65473,-0.09247292,0.50236
530.045,26.87582,-2.65472,-0.11029,0.50214
530.645,26.8943,-2.65551,-0.11067,0.50193
531.245,26.91275,-2.65603,-0.11105,0.50171
531.845,26.93119,-2.65605,-0.10792,0.50149
532.445,26.9496,-2.65605,-0.11561,0.50127
533.045,26.968,-2.65623,-0.13292,0.50106
533.645,26.98647,-2.65759,-0.15535,0.50084
534.245,27.00495,-2.65798,-0.15268,0.50062
534.845,27.02334,-2.65904,-0.14566,0.50041
535.445,27.04178,-2.65914,-0.15384,0.50019
536.045,27.0602,-2.66033,-0.15571,0.49997
536.645,27.0786,-2.66033,-0.16614,0.49975
537.245,27.09703,-2.66147,-0.16334,0.49954
537.845,27.11552,-2.66162,-0.16167,0.49932
538.445,27.13399,-2.66314,-0.16585,0.4991
539.045,27.15247,-2.6633,-0.17981,0.49889
539.645,27.17103,-2.66479,-0.17335,0.49867
540.245,27.1894,-2.66378,-0.16705,0.49845
540.845,27.208,-2.66455,-0.18142,0.49823
541.445,27.22646,-2.66464,-0.18344,0.49802
542.045,27.245,-2.66576,-0.18308,0.4978
542.645,27.2635,-2.6667,-0.19564,0.49758
543.245,27.28208,-2.66733,-0.20516,0.49737
543.845,27.3006,-2.66734,-0.2149,0.49715
544.445,27.3192,-2.66794,-0.2629,0.49693
545.045,27.3377,-2.66868,-0.263,0.49672
545.645,27.3563,-2.66857,-0.26029,0.4965
546.245,27.3749,-2.66991,-0.26073,0.49628
546.845,27.39343,-2.66998,-0.27262,0.49607
547.445,27.41201,-2.66998,-0.26241,0.49585
548.045,27.4306,-2.66998,-0.26776,0.49563
548.645,27.44915,-2.66994,-0.27911,0.49542
549.245,27.46773,-2.67128,-0.3011,0.4952
549.845,27.4863,-2.6712,-0.2984,0.49498
550.445,27.505,-2.67254,-0.29918,0.49477
551.045,27.5236,-2.67263,-0.30414,0.49455
551.645,27.54226,-2.67278,-0.32377,0.49434
552.245,27.56092,-2.67394,-0.32208,0.49412
552.845,27.57955,-2.67391,-0.33787,0.4939
553.445,27.59818,-2.67523,-0.32797,0.49369
554.045,27.6168,-2.67523,-0.33879,0.49347
554.645,27.63546,-2.67615,-0.34002,0.49325
555.245,27.6541,-2.67649,-0.34349,0.49304
555.845,27.67272,-2.67744,-0.35083,0.49282
556.445,27.69135,-2.67787,-0.37756,0.49261
557.045,27.70996,-2.67821,-0.38115,0.49239
557.645,27.7286,-2.67921,-0.39302,0.49217
558.245,27.74727,-2.67919,-0.39412,0.49196
558.845,27.766,-2.68018,-0.38178,0.49174
559.445,27.7846,-2.68091,-0.41869,0.49153
560.045,27.8033,-2.68184,-0.40483,0.49131
560.645,27.82193,-2.68191,-0.40237,0.4911
561.245,27.8406,-2.68317,-0.42002,0.49088
561.845,27.8593,-2.68255,-0.43492,0.49066
562.445,27.87797,-2.68173,-0.43367,0.49045
563.045,27.8967,-2.6831,-0.43669,0.49023
563.645,27.91545,-2.68304,-0.43908,0.49002
564.245,27.9342,-2.68455,-0.4458,0.4898
564.845,27.9529,-2.68481,-0.43727,0.48959
565.445,27.97165,-2.68639,-0.43701,0.48937
566.045,27.99042,-2.68755,-0.45566,0.48916
566.645,28.0092,-2.68882,-0.4603,0.48894
567.245,28.02788,-2.68884,-0.45495,0.48873
567.845,28.0466,-2.68885,-0.46631,0.48851
568.445,28.06535,-2.6888,-0.46342,0.4883
569.045,28.08404,-2.68988,-0.47822,0.48808
569.645,28.10285,-2.69026,-0.4836,0.48787
570.245,28.12162,-2.69028,-0.48408,0.48765
570.845,28.14044,-2.69064,-0.49817,0.48744
571.445,28.1592,-2.6916,-0.50016,0.48722
572.045,28.178,-2.69159,-0.50359,0.48701
572.645,28.19675,-2.6916,-0.52008,0.48679
573.245,28.21554,-2.69281,-0.5171,0.48658
573.845,28.23433,-2.69425,-0.51696,0.48636
574.445,28.2531,-2.69424,-0.52675,0.48615
575.045,28.27195,-2.69437,-0.52192,0.48594
575.645,28.2908,-2.69554,-0.52981,0.48572
576.245,28.3096,-2.69551,-0.55753,0.48551
576.845,28.3284,-2.69706,-0.56339,0.48529
577.445,28.3472,-2.6975,-0.56291,0.48508
578.045,28.366,-2.69843,-0.55684,0.48486
578.645,28.3848,-2.69839,-0.55604,0.48465
579.245,28.40359,-2.69839,-0.55905,0.48444
579.845,28.42241,-2.6984,-0.56066,0.48422
580.445,28.4412,-2.69844,-0.57722,0.48401
581.045,28.46009,-2.6997,-0.57877,0.48379
581.645,28.479,-2.6997,-0.59052,0.48358
582.245,28.49786,-2.6997,-0.59974,0.48337
582.845,28.5167,-2.69965,-0.59766,0.48315
583.445,28.5356,-2.7008,-0.60206,0.48294
584.045,28.55452,-2.701,-0.60455,0.48273
584.645,28.5734,-2.70096,-0.60812,0.48251
585.245,28.5922,-2.70218,-0.60616,0.4823
585.845,28.6111,-2.70244,-0.60927,0.48209
586.445,28.62994,-2.70244,-0.60951,0.48187
587.045,28.6488,-2.70372,-0.6211,0.48166
587.645,28.66783,-2.70375,-0.62437,0.48145
588.245,28.6868,-2.70375,-0.62443,0.48123
588.845,28.70569,-2.70366,-0.62734,0.48102
589.445,28.72472,-2.70501,-0.63915,0.48081
590.045,28.7436,-2.70512,-0.65648,0.4806
590.645,28.76245,-2.7065,-0.66223,0.48038
591.245,28.78135,-2.70562,-0.65373,0.48017
591.845,28.8003,-2.70508,-0.65836,0.47996
592.445,28.81918,-2.706,-0.66045,0.47975
593.045,28.83809,-2.7064,-0.66369,0.47953
593.645,28.8571,-2.70654,-0.6778,0.47932
594.245,28.87602,-2.70779,-0.68337,0.47911
594.845,28.89497,-2.70766,-0.6827,0.4789
595.445,28.914,-2.70846,-0.68898,0.47868
596.045,28.93295,-2.70857,-0.69505,0.47847
596.645,28.9519,-2.7104,-0.68908,0.47826
597.245,28.9709,-2.71034,-0.70282,0.47805
597.845,28.98987,-2.71034,-0.70581,0.47784
598.445,29.00882,-2.71158,-0.72001,0.47762
599.045,29.02778,-2.7117,-0.73577,0.47741
599.645,29.04676,-2.71089,-0.73375,0.4772
600.245,29.06575,-2.71172,-0.74084,0.47699
600.845,29.08472,-2.71169,-0.74419,0.47678
601.445,29.1037,-2.71198,-0.75215,0.47657
602.045,29.1228,-2.71299,-0.75824,0.47636
602.645,29.1418,-2.71298,-0.76718,0.47614
603.245,29.16085,-2.71298,-0.78215,0.47593
603.845,29.1799,-2.71298,-0.8017,0.47572
604.445,29.1988,-2.71292,-0.79919,0.47551
605.045,29.21785,-2.71424,-0.80349,0.4753
605.645,29.2369,-2.71546,-0.81911,0.47509
606.245,29.2559,-2.7155,-0.82868,0.47488
606.845,29.27502,-2.71685,-0.83574,0.47467
607.445,29.2941,-2.71693,-0.84594,0.47446
608.045,29.31312,-2.71706,-0.86351,0.47425
608.645,29.33215,-2.71843,-0.85716,0.47404
609.245,29.35121,-2.71763,-0.87375,0.47383
609.845,29.37032,-2.71848,-0.88304,0.47361
610.445,29.38945,-2.71846,-0.89762,0.4734
611.045,29.40857,-2.71573,-0.9013,0.47319
611.645,29.4277,-2.71198,-0.89466,0.47298
612.245,29.4468,-2.70879,-0.90183,0.47277
612.845,29.4658,-2.71632,-0.9117,0.47256
613.445,29.4848,-2.72573,-0.92095,0.47235
614.045,29.5039,-2.73141,-0.93306,0.47215
614.645,29.52298,-2.7278,-0.95923,0.47194
615.245,29.54209,-2.72491,-0.96288,0.47173
615.845,29.56124,-2.72338,-0.9614,0.47152
616.445,29.5804,-2.7234,-0.97305,0.47131
617.045,29.5995,-2.7234,-0.97464,0.4711
617.645,29.6187,-2.72315,-0.98442,0.47089
618.245,29.63784,-2.72238,-1.00589,0.47068
618.845,29.657,-2.7224,-1.00084,0.47047
619.445,29.6762,-2.7234,-1.01909,0.47026
620.045,29.69523,-2.7237,-1.0228,0.47005
620.645,29.71432,-2.72451,-1.03166,0.46984
621.245,29.7335,-2.72502,-1.03775,0.46964
621.845,29.75262,-2.72505,-1.04076,0.46943
622.445,29.77181,-2.72512,-1.05662,0.46922
623.045,29.79115,-2.72647,-1.07985,0.46901
623.645,29.81039,-2.72768,-1.07246,0.4688
624.245,29.8296,-2.72768,-1.0681,0.46859
624.845,29.8489,-2.72765,-1.0713,0.46839
625.445,29.86804,-2.72892,-1.08443,0.46818
626.045,29.8873,-2.72899,-1.09735,0.46797
626.645,29.90642,-2.729,-1.11752,0.46776
627.245,29.9257,-2.729,-1.14312,0.46755
627.845,29.9449,-2.729,-1.14982,0.46735
628.445,29.9642,-2.72898,-1.1625,0.46714
629.045,29.98343,-2.72878,-1.16095,0.46693
629.645,30.0027,-2.7256,-1.16575,0.46672
630.245,30.022,-2.72273,-1.17598,0.46652
630.845,30.0412,-2.7255,-1.19149,0.46631
631.445,30.06042,-2.73093,-1.21328,0.4661
632.045,30.0796,-2.73686,-1.21124,0.4659
632.645,30.0989,-2.73774,-1.25133,0.46569
633.245,30.1181,-2.73582,-1.26926,0.46548
633.845,30.13745,-2.73451,-1.29008,0.46527
634.445,30.1567,-2.73428,-1.31538,0.46507
635.045,30.176,-2.73426,-1.32599,0.46486
635.645,30.19531,-2.73433,-1.34112,0.46466
636.245,30.2146,-2.73567,-1.34133,0.46445
636.845,30.2338,-2.73559,-1.35296,0.46424
637.445,30.2531,-2.73558,-1.37327,0.46404
638.045,30.27242,-2.73558,-1.37018,0.46383
638.645,30.29168,-2.73559,-1.38007,0.46362
639.245,30.31092,-2.73563,-1.37886,0.46342
639.845,30.33022,-2.73589,-1.3899,0.46321
640.445,30.3495,-2.73557,-1.37746,0.46301
641.045,30.3688,-2.73681,-1.3804,0.4628
641.645,30.38816,-2.73688,-1.37894,0.4626
642.245,30.40748,-2.73689,-1.38772,0.46239
642.845,30.4268,-2.7369,-1.38669,0.46219
643.445,30.4461,-2.73718,-1.38706,0.46198
644.045,30.46544,-2.73934,-1.39546,0.46178
644.645,30.4847,-2.73952,-1.41724,0.46157
645.245,30.50403,-2.73953,-1.40069,0.46137
645.845,30.52334,-2.73954,-1.39681,0.46116
646.445,30.54267,-2.7397,-1.42527,0.46096
647.045,30.562,-2.73975,-1.41853,0.46075
647.645,30.5814,-2.73952,-1.42963,0.46055
648.245,30.6009,-2.73952,-1.4507,0.46034
648.845,30.62027,-2.73952,-1.44251,0.46014
649.445,30.63963,-2.73952,-1.45941,0.45993
650.045,30.65905,-2.7401,-1.47132,0.45973
650.645,30.67843,-2.74099,-1.48174,0.45953
651.245,30.6978,-2.74172,-1.47421,0.45932
651.845,30.71717,-2.74226,-1.48031,0.45912
652.445,30.7366,-2.74225,-1.49251,0.45892
653.045,30.7559,-2.74322,-1.52089,0.45871
653.645,30.7752,-2.74356,-1.52182,0.45851
654.245,30.7946,-2.7436,-1.53102,0.45831
654.845,30.81397,-2.74391,-1.5366,0.4581
655.445,30.8333,-2.74463,-1.55144,0.4579
656.045,30.8528,-2.74358,-1.56286,0.4577
656.645,30.87223,-2.74367,-1.57964,0.45749
657.245,30.89165,-2.74494,-1.5963,0.45729
657.845,30.9111,-2.7449,-1.5932,0.45709
658.445,30.9305,-2.7449,-1.60587,0.45689
659.045,30.94991,-2.7449,-1.62728,0.45668
659.645,30.96937,-2.74617,-1.63044,0.45648
660.245,30.9888,-2.74744,-1.62747,0.45628
660.845,31.00818,-2.74747,-1.63696,0.45608
661.445,31.02764,-2.74823,-1.66287,0.45587
662.045,31.04693,-2.74733,-1.68302,0.45567
662.645,31.0663,-2.74757,-1.68287,0.45547
663.245,31.0858,-2.74753,-1.68411,0.45527
663.845,31.1053,-2.74747,-1.69302,0.45507
664.445,31.1247,-2.74841,-1.72872,0.45487
665.045,31.14432,-2.74852,-1.71157,0.45466
665.645,31.1638,-2.74853,-1.72422,0.45446
666.245,31.18325,-2.74862,-1.74079,0.45426
666.845,31.20273,-2.74884,-1.74185,0.45406
667.445,31.2222,-2.74893,-1.75851,0.45386
668.045,31.2416,-2.7502,-1.76196,0.45366
668.645,31.26107,-2.75016,-1.79191,0.45346
669.245,31.2805,-2.75016,-1.79615,0.45326
669.845,31.30009,-2.75016,-1.79685,0.45306
670.445,31.31969,-2.75016,-1.81439,0.45286
671.045,31.3393,-2.75076,-1.82962,0.45266
671.645,31.3588,-2.7515,-1.82836,0.45246
672.245,31.37837,-2.75028,-1.83359,0.45226
672.845,31.3979,-2.75017,-1.83313,0.45206
673.445,31.41733,-2.75016,-1.84211,0.45186
674.045,31.43688,-2.75016,-1.84833,0.45166
674.645,31.45638,-2.75027,-1.85767,0.45146
675.245,31.4759,-2.75155,-1.84903,0.45126
675.845,31.4955,-2.75159,-1.87802,0.45106
676.445,31.51507,-2.75248,-1.88687,0.45086
677.045,31.5346,-2.75274,-1.91073,0.45066
677.645,31.5541,-2.75402,-1.9184,0.45046
678.245,31.5736,-2.75411,-1.92316,0.45026
678.845,31.5931,-2.75411,-1.97634,0.45007
679.445,31.61263,-2.7541,-1.98811,0.44987
680.045,31.6322,-2.75259,-2.01037,0.44967
680.645,31.6518,-2.75267,-1.98793,0.44947
681.245,31.6714,-2.75268,-1.99773,0.44927
681.845,31.691,-2.7531,-2.00841,0.44907
682.445,31.71055,-2.75399,-2.02515,0.44888
683.045,31.7301,-2.754,-2.00983,0.44868
683.645,31.74965,-2.75529,-2.03643,0.44848
684.245,31.76925,-2.7553,-2.02514,0.44828
684.845,31.7888,-2.75525,-2.02246,0.44808
685.445,31.80838,-2.75662,-2.06038,0.44789
686.045,31.828,-2.75663,-2.07474,0.44769
686.645,31.84765,-2.75663,-2.06643,0.44749
687.245,31.8673,-2.75663,-2.05464,0.4473
687.845,31.88692,-2.75663,-2.05159,0.4471
688.445,31.90649,-2.75663,-2.0382,0.4469
689.045,31.9261,-2.75653,-2.02218,0.44671
689.645,31.94568,-2.75524,-2.02144,0.44651
690.245,31.9653,-2.75531,-2.02745,0.44631
690.845,31.9849,-2.75527,-2.03866,0.44612
691.445,32.0045,-2.75634,-2.05794,0.44592
692.045,32.02404,-2.75662,-2.06782,0.44572
692.645,32.04371,-2.75662,-2.06637,0.44553
693.245,32.0633,-2.75657,-2.08291,0.44533
693.845,32.08296,-2.75793,-2.0958,0.44514
694.445,32.10264,-2.75931,-2.09973,0.44494
695.045,32.1222,-2.75926,-2.09424,0.44475
695.645,32.14185,-2.75928,-2.10302,0.44455
696.245,32.16153,-2.75849,-2.13419,0.44435
696.845,32.18117,-2.75933,-2.14327,0.44416
697.445,32.20084,-2.75927,-2.13481,0.44396
698.045,32.22059,-2.75927,-2.13543,0.44377
698.645,32.24021,-2.75927,-2.15171,0.44357
699.245,32.2598,-2.75927,-2.17303,0.44338
699.845,32.27946,-2.75927,-2.16924,0.44319
700.445,32.29914,-2.7605,-2.1868,0.44299
701.045,32.3187,-2.76183,-2.17329,0.4428
701.645,32.3384,-2.76137,-2.17138,0.4426
702.245,32.35808,-2.76056,-2.19235,0.44241
702.845,32.3778,-2.76058,-2.20281,0.44222
703.445,32.39744,-2.76061,-2.1956,0.44202
704.045,32.41714,-2.76132,-2.20357,0.44183
704.645,32.43685,-2.76156,-2.2012,0.44163
705.245,32.4565,-2.76179,-2.22092,0.44144
705.845,32.47614,-2.76189,-2.21815,0.44125
706.445,32.49572,-2.76191,-2.22333,0.44105
707.045,32.5154,-2.76219,-2.21229,0.44086
707.645,32.53513,-2.76325,-2.22311,0.44067
708.245,32.5548,-2.76297,-2.23837,0.44048
708.845,32.5747,-2.76185,-2.27344,0.44028
709.445,32.59446,-2.7619,-2.26447,0.44009
710.045,32.61419,-2.76191,-2.26607,0.4399
710.645,32.6339,-2.76209,-2.26389,0.43971
711.245,32.6537,-2.76326,-2.27748,0.43951
711.845,32.6733,-2.76321,-2.27388,0.43932
712.445,32.69307,-2.76321,-2.28489,0.43913
713.045,32.7128,-2.76321,-2.29281,0.43894
713.645,32.7325,-2.76321,-2.29044,0.43875
714.245,32.75228,-2.76321,-2.28753,0.43855
714.845,32.77205,-2.76322,-2.29679,0.43836
715.445,32.79176,-2.76328,-2.30485,0.43817
716.045,32.8116,-2.76457,-2.31349,0.43798
716.645,32.83141,-2.76453,-2.32504,0.43779
717.245,32.8512,-2.76453,-2.30415,0.4376
717.845,32.87105,-2.76453,-2.32398,0.43741
718.445,32.89078,-2.76453,-2.3315,0.43722
719.045,32.9105,-2.76455,-2.33757,0.43703
719.645,32.93031,-2.76585,-2.32977,0.43684
720.245,32.95003,-2.76584,-2.3396,0.43665
720.845,32.96975,-2.76583,-2.33701,0.43646
721.445,32.98958,-2.76715,-2.36748,0.43627
722.045,33.00939,-2.76715,-2.3751,0.43608
722.645,33.02926,-2.76624,-2.39141,0.43589
723.245,33.04909,-2.76642,-2.37974,0.4357
723.845,33.0689,-2.76717,-2.38414,0.43551
724.445,33.08871,-2.76716,-2.40003,0.43532
725.045,33.1085,-2.76716,-2.41557,0.43513
725.645,33.12835,-2.76716,-2.43348,0.43494
726.245,33.14819,-2.76716,-2.43463,0.43475
726.845,33.16802,-2.76716,-2.42512,0.43456
727.445,33.18783,-2.76716,-2.43105,0.43437
728.045,33.20767,-2.76716,-2.44059,0.43419
728.645,33.22746,-2.76717,-2.44295,0.434
729.245,33.24731,-2.7676,-2.4533,0.43381
729.845,33.2671,-2.7685,-2.45989,0.43362
730.445,33.2868,-2.76847,-2.45532,0.43343
731.045,33.30762,-2.76847,-2.45395,0.43325
731.645,33.32882,-2.76847,-2.4469,0.43306
731.845,33.33319,-2.76847,-2.44392,0.433