File: 01_Data/Pressure_Treated_Deck/STA/N2/30K_min/Pressure_Treated_Deck_STA_N2_30KData_212206_R3.csv
##Temp./Â°C,Time/min,Mass loss(subtr.2)/mg,DSC(subtr.2)/mW,Sensit./(uV/mW)
50.631,10.00917,-0.01722,-0.07464209,0.6235
51.231,10.99715,-0.01874529,0.04907822,0.62349
51.831,11.20728,-0.01703444,0.16459,0.62349
52.431,11.35127,-0.01763668,0.26271,0.62348
53.031,11.46534,-0.01843594,0.36158,0.62347
53.631,11.56,-0.0166218,0.44974,0.62346
54.231,11.64349,-0.01871299,0.55727,0.62346
54.831,11.7178,-0.0178684,0.63864,0.62345
55.431,11.78663,-0.01988384,0.70968,0.62344
56.031,11.85029,-0.01957348,0.79425,0.62343
56.631,11.90923,-0.01930406,0.86044,0.62341
57.231,11.96429,-0.01857292,0.93009,0.6234
57.831,12.01703,-0.01874774,0.99632,0.62339
58.431,12.06832,-0.01877998,1.07213,0.62338
59.031,12.11693,-0.01978923,1.11927,0.62336
59.631,12.1639,-0.02020583,1.19067,0.62335
60.231,12.20952,-0.01951474,1.2478,0.62334
60.831,12.25276,-0.01974769,1.30176,0.62332
61.431,12.295,-0.01972687,1.36303,0.62331
62.031,12.33671,-0.0205763,1.42146,0.62329
62.631,12.3774,-0.01925333,1.48887,0.62327
63.231,12.41681,-0.01969451,1.52282,0.62326
63.831,12.4556,-0.02017131,1.57104,0.62324
64.431,12.4933,-0.02123124,1.62552,0.62322
65.031,12.53054,-0.02113545,1.67602,0.6232
65.631,12.5671,-0.02067274,1.71988,0.62318
66.231,12.603,-0.02164354,1.76459,0.62316
66.831,12.6384,-0.02239165,1.79987,0.62314
67.431,12.67349,-0.0222618,1.84837,0.62312
68.031,12.7079,-0.02163145,1.88368,0.6231
68.631,12.74198,-0.02143617,1.93711,0.62308
69.231,12.77571,-0.02061033,1.98119,0.62305
69.831,12.80903,-0.02084118,2.01055,0.62303
70.431,12.8421,-0.02244287,2.05697,0.62301
71.031,12.87462,-0.0233624,2.09648,0.62298
71.631,12.907,-0.02364223,2.14646,0.62296
72.231,12.93907,-0.02194869,2.17627,0.62293
72.831,12.97109,-0.02242979,2.21433,0.62291
73.431,13.0028,-0.02205006,2.25162,0.62288
74.031,13.0342,-0.02257686,2.28723,0.62286
74.631,13.06526,-0.02285741,2.31446,0.62283
75.231,13.09598,-0.02404869,2.3596,0.6228
75.831,13.12665,-0.02369366,2.39642,0.62277
76.431,13.157,-0.02426147,2.42638,0.62274
77.031,13.1872,-0.02578143,2.46054,0.62271
77.631,13.2172,-0.02713936,2.50096,0.62268
78.231,13.24719,-0.02657524,2.54606,0.62265
78.831,13.27699,-0.02709046,2.57917,0.62262
79.431,13.3065,-0.02717681,2.60632,0.62259
80.031,13.3358,-0.02872026,2.64628,0.62256
80.631,13.36493,-0.03009073,2.67309,0.62253
81.231,13.3938,-0.03115561,2.71045,0.62249
81.831,13.42254,-0.02996785,2.74631,0.62246
82.431,13.4511,-0.02883417,2.77526,0.62242
83.031,13.47966,-0.02993119,2.81043,0.62239
83.631,13.50777,-0.03062543,2.84082,0.62236
84.231,13.5358,-0.02973372,2.88984,0.62232
84.831,13.56383,-0.02849866,2.90558,0.62228
85.431,13.5918,-0.02987483,2.92983,0.62225
86.031,13.6198,-0.02984907,2.9667,0.62221
86.631,13.64732,-0.03128257,2.99624,0.62217
87.231,13.6746,-0.03282727,3.02164,0.62213
87.831,13.70175,-0.03150291,3.04835,0.62209
88.431,13.7287,-0.03177595,3.08027,0.62205
89.031,13.7557,-0.03239962,3.11668,0.62202
89.631,13.7826,-0.03148969,3.12496,0.62197
90.231,13.8093,-0.03280964,3.16042,0.62193
90.831,13.8358,-0.03270836,3.18234,0.62189
91.431,13.8621,-0.03410263,3.21775,0.62185
92.031,13.8882,-0.03277984,3.23145,0.62181
92.631,13.9143,-0.03419675,3.25637,0.62177
93.231,13.94033,-0.03415157,3.29444,0.62172
93.831,13.96636,-0.03545357,3.31567,0.62168
94.431,13.99195,-0.03565014,3.32838,0.62163
95.031,14.0175,-0.03674215,3.33946,0.62159
95.631,14.04311,-0.0375608,3.36206,0.62154
96.231,14.0684,-0.03706677,3.3876,0.6215
96.831,14.0934,-0.03667177,3.40835,0.62145
97.431,14.1183,-0.03805615,3.41359,0.6214
98.031,14.1432,-0.03806001,3.42148,0.62136
98.631,14.1682,-0.03805637,3.44019,0.62131
99.231,14.1932,-0.03946224,3.46097,0.62126
99.831,14.21791,-0.039343,3.46832,0.62121
100.431,14.24247,-0.04086301,3.4902,0.62116
101.031,14.26692,-0.04080161,3.51038,0.62111
101.631,14.29135,-0.04081481,3.53232,0.62106
102.231,14.3156,-0.04217929,3.55032,0.62101
102.831,14.3396,-0.04210952,3.56714,0.62096
103.431,14.3636,-0.04210664,3.57415,0.62091
104.031,14.3875,-0.04207229,3.57127,0.62085
104.631,14.4113,-0.04347591,3.58798,0.6208
105.231,14.43498,-0.04350906,3.60352,0.62075
105.831,14.4586,-0.04308063,3.62605,0.62069
106.431,14.4821,-0.04343692,3.62074,0.62064
107.031,14.5055,-0.04349361,3.63311,0.62058
107.631,14.52885,-0.04374423,3.62464,0.62053
108.231,14.55199,-0.04376594,3.63416,0.62047
108.831,14.5753,-0.04377342,3.65995,0.62041
109.431,14.5984,-0.04434865,3.66641,0.62036
110.031,14.6212,-0.04470987,3.67358,0.6203
110.631,14.64422,-0.04474683,3.67155,0.62024
111.231,14.6669,-0.04475151,3.68971,0.62018
111.831,14.6896,-0.0451214,3.70189,0.62012
112.431,14.7125,-0.04604192,3.68883,0.62007
113.031,14.73506,-0.04601907,3.68221,0.62001
113.631,14.7577,-0.04740008,3.69381,0.61995
114.231,14.77984,-0.04645298,3.69548,0.61988
114.831,14.80215,-0.04759938,3.68462,0.61982
115.431,14.8244,-0.04759959,3.69678,0.61976
116.031,14.8465,-0.04621417,3.70007,0.6197
116.631,14.8689,-0.04681648,3.71236,0.61964
117.231,14.8909,-0.04747978,3.70122,0.61957
117.831,14.9129,-0.04748622,3.71465,0.61951
118.431,14.93491,-0.04743826,3.72084,0.61944
119.031,14.95674,-0.0487068,3.71229,0.61938
119.631,14.97846,-0.04880571,3.7271,0.61931
120.231,15.0001,-0.04886928,3.73542,0.61925
120.831,15.02167,-0.05013689,3.72685,0.61918
121.431,15.04311,-0.05014314,3.74396,0.61911
122.031,15.06446,-0.05044192,3.76085,0.61905
122.631,15.08588,-0.05099504,3.76092,0.61898
123.231,15.1072,-0.04975414,3.75511,0.61891
123.831,15.12855,-0.04979234,3.77037,0.61884
124.431,15.14981,-0.05013238,3.77503,0.61877
125.031,15.171,-0.05013111,3.78389,0.6187
125.631,15.1921,-0.05035894,3.7934,0.61863
126.231,15.213,-0.05072474,3.79302,0.61856
126.831,15.23395,-0.05015098,3.80219,0.61849
127.431,15.2548,-0.05007163,3.81366,0.61842
128.031,15.2756,-0.05106227,3.8172,0.61835
128.631,15.29631,-0.05127268,3.83765,0.61828
129.231,15.31701,-0.05274113,3.84499,0.6182
129.831,15.3376,-0.05275785,3.84985,0.61813
130.431,15.3582,-0.05274644,3.85368,0.61806
131.031,15.3787,-0.05171807,3.85802,0.61798
131.631,15.39906,-0.05253423,3.86337,0.61791
132.231,15.41932,-0.05121234,3.87272,0.61783
132.831,15.4394,-0.05121967,3.87791,0.61776
133.431,15.4597,-0.05123695,3.88088,0.61768
134.031,15.4799,-0.0525601,3.89522,0.6176
134.631,15.50009,-0.05254172,3.89755,0.61753
135.231,15.52045,-0.05254016,3.90374,0.61745
135.831,15.5405,-0.05254008,3.89804,0.61737
136.431,15.5606,-0.05254091,3.9181,0.61729
137.031,15.58044,-0.05208103,3.92014,0.61721
137.631,15.6003,-0.05199948,3.93806,0.61713
138.231,15.62019,-0.05253155,3.94999,0.61705
138.831,15.64005,-0.05250863,3.9528,0.61697
139.431,15.65988,-0.05119985,3.95234,0.61689
140.031,15.6797,-0.05121028,3.96927,0.61681
140.631,15.69938,-0.05222729,3.97108,0.61673
141.231,15.71906,-0.05254028,3.9777,0.61665
141.831,15.7386,-0.05255135,3.98771,0.61656
142.431,15.7581,-0.05220312,4.00879,0.61648
143.031,15.7776,-0.05221005,4.02151,0.6164
143.631,15.7972,-0.05222312,4.03929,0.61631
144.231,15.81656,-0.05135124,4.05855,0.61623
144.831,15.83593,-0.05123274,4.0727,0.61614
145.431,15.8553,-0.05132357,4.08196,0.61606
146.031,15.87434,-0.05262797,4.09196,0.61597
146.631,15.89352,-0.05254364,4.11689,0.61589
147.231,15.91279,-0.05250351,4.12467,0.6158
147.831,15.9321,-0.05342926,4.14211,0.61571
148.431,15.95129,-0.05383851,4.16434,0.61562
149.031,15.9707,-0.05384941,4.16864,0.61554
149.631,15.9898,-0.0538504,4.18609,0.61545
150.231,16.00894,-0.05384822,4.20904,0.61536
150.831,16.028,-0.05328296,4.22135,0.61527
151.431,16.0471,-0.05249396,4.22059,0.61518
152.031,16.06596,-0.0518088,4.23698,0.61509
152.631,16.08496,-0.05212149,4.26027,0.615
153.231,16.10365,-0.05211886,4.26131,0.61491
153.831,16.1224,-0.05340176,4.27394,0.61481
154.431,16.14131,-0.0535284,4.29395,0.61472
155.031,16.1602,-0.05352988,4.3037,0.61463
155.631,16.17904,-0.05353007,4.31405,0.61454
156.231,16.1981,-0.05353684,4.33477,0.61444
156.831,16.21694,-0.05384184,4.35165,0.61435
157.431,16.23566,-0.05269859,4.37144,0.61425
158.031,16.25433,-0.05255221,4.37547,0.61416
158.631,16.27295,-0.05254097,4.40173,0.61406
159.231,16.2915,-0.05254006,4.41757,0.61397
159.831,16.31011,-0.05254,4.4302,0.61387
160.431,16.32855,-0.05254,4.45439,0.61378
161.031,16.34713,-0.05237352,4.47169,0.61368
161.631,16.3657,-0.05178628,4.49024,0.61358
162.231,16.38421,-0.05253992,4.50436,0.61348
162.831,16.40275,-0.0525402,4.53159,0.61339
163.431,16.4213,-0.05254175,4.54268,0.61329
164.031,16.43976,-0.05254605,4.56537,0.61319
164.631,16.45821,-0.05349627,4.5774,0.61309
165.231,16.4766,-0.05396096,4.58626,0.61299
165.831,16.495,-0.054882,4.60153,0.61289
166.431,16.5134,-0.05484357,4.63049,0.61279
167.031,16.53169,-0.05483924,4.65213,0.61269
167.631,16.55,-0.05483598,4.6469,0.61258
168.231,16.5683,-0.05358534,4.66258,0.61248
168.831,16.5866,-0.05353042,4.67335,0.61238
169.431,16.6049,-0.05321686,4.68231,0.61228
170.031,16.6232,-0.05215811,4.70605,0.61217
170.631,16.64145,-0.05220676,4.72807,0.61207
171.231,16.6597,-0.05220992,4.73621,0.61196
171.831,16.6779,-0.05221009,4.74067,0.61186
172.431,16.69603,-0.05221158,4.7473,0.61175
173.031,16.7142,-0.05227221,4.77126,0.61165
173.631,16.73226,-0.05359202,4.7911,0.61154
174.231,16.7503,-0.05429169,4.79879,0.61144
174.831,16.76837,-0.05485753,4.81462,0.61133
175.431,16.78641,-0.05486717,4.82924,0.61122
176.031,16.80442,-0.05516072,4.85629,0.61111
176.631,16.82244,-0.05584675,4.86561,0.61101
177.231,16.84035,-0.0558311,4.88259,0.6109
177.831,16.85821,-0.05582666,4.8911,0.61079
178.431,16.8762,-0.05573756,4.90362,0.61068
179.031,16.89409,-0.05707172,4.91843,0.61057
179.631,16.912,-0.0571382,4.93563,0.61046
180.231,16.92999,-0.05713992,4.95364,0.61035
180.831,16.94795,-0.05714029,4.96645,0.61024
181.431,16.96574,-0.05714687,4.96346,0.61013
182.031,16.98353,-0.05722172,4.96825,0.61002
182.631,17.00133,-0.05601148,4.96671,0.6099
183.231,17.01908,-0.05582988,4.97948,0.60979
183.831,17.03683,-0.05582372,5.01955,0.60968
184.431,17.05461,-0.0557367,5.02667,0.60956
185.031,17.07232,-0.05700339,5.04785,0.60945
185.631,17.08996,-0.05712563,5.05059,0.60934
186.231,17.10754,-0.05797737,5.0782,0.60922
186.831,17.12507,-0.05846552,5.09464,0.60911
187.431,17.14266,-0.05846048,5.11549,0.60899
188.031,17.16017,-0.05845999,5.13157,0.60888
188.631,17.1777,-0.05846032,5.13956,0.60876
189.231,17.19521,-0.05846689,5.15943,0.60864
189.831,17.21276,-0.05852874,5.16116,0.60853
190.431,17.23021,-0.05740082,5.17147,0.60841
191.031,17.24768,-0.05714778,5.19895,0.60829
191.631,17.26511,-0.05714594,5.21309,0.60817
192.231,17.2825,-0.05711604,5.2395,0.60805
192.831,17.29991,-0.05786189,5.25561,0.60794
193.431,17.31729,-0.05847945,5.27474,0.60782
194.031,17.3346,-0.05846333,5.28199,0.6077
194.631,17.35197,-0.05846021,5.30085,0.60758
195.231,17.3693,-0.05845997,5.31913,0.60746
195.831,17.38666,-0.05846399,5.33167,0.60733
196.431,17.40397,-0.05851581,5.34991,0.60721
197.031,17.4213,-0.05768365,5.37021,0.60709
197.631,17.43863,-0.05747856,5.36705,0.60697
198.231,17.45597,-0.05747878,5.38561,0.60685
198.831,17.4732,-0.05747426,5.39905,0.60672
199.431,17.49053,-0.05793633,5.41545,0.6066
200.031,17.5078,-0.05882397,5.42793,0.60648
200.631,17.525,-0.05879883,5.45144,0.60635
201.231,17.54224,-0.05874098,5.45258,0.60623
201.831,17.55947,-0.05980461,5.49774,0.6061
202.431,17.57657,-0.06012565,5.50549,0.60598
203.031,17.59367,-0.06032915,5.51202,0.60585
203.631,17.61083,-0.06158355,5.53477,0.60573
204.231,17.62793,-0.0617736,5.55,0.6056
204.831,17.645,-0.0629271,5.56125,0.60547
205.431,17.66219,-0.06285654,5.58908,0.60535
206.031,17.67934,-0.06285005,5.59357,0.60522
206.631,17.69645,-0.06284989,5.61713,0.60509
207.231,17.71357,-0.06284955,5.63453,0.60496
207.831,17.73069,-0.06284792,5.64413,0.60483
208.431,17.74774,-0.06307537,5.66899,0.60471
209.031,17.76463,-0.06425713,5.68252,0.60458
209.631,17.7816,-0.06419321,5.70492,0.60445
210.231,17.7986,-0.06545133,5.71369,0.60432
210.831,17.81551,-0.06547076,5.73263,0.60419
211.431,17.8325,-0.06548691,5.7414,0.60406
212.031,17.84957,-0.06548826,5.76766,0.60392
212.631,17.8667,-0.06557667,5.77262,0.60379
213.231,17.88355,-0.06425321,5.79657,0.60366
213.831,17.90045,-0.06417018,5.80682,0.60353
214.431,17.91744,-0.06418022,5.82263,0.6034
215.031,17.93439,-0.06445134,5.84848,0.60326
215.631,17.95128,-0.06554686,5.87719,0.60313
216.231,17.96827,-0.06673977,5.88376,0.603
216.831,17.98532,-0.06678022,5.90525,0.60286
217.431,18.00216,-0.06680628,5.92287,0.60273
218.031,18.01906,-0.06679699,5.94423,0.60259
218.631,18.03592,-0.06795916,5.96021,0.60246
219.231,18.05276,-0.06809091,5.97797,0.60232
219.831,18.0696,-0.06810277,6.00104,0.60218
220.431,18.08643,-0.06882753,6.00658,0.60205
221.031,18.10324,-0.06943297,6.02212,0.60191
221.631,18.1201,-0.06984645,6.04107,0.60177
222.231,18.13691,-0.0710854,6.06232,0.60164
222.831,18.15373,-0.07250534,6.08607,0.6015
223.431,18.17052,-0.07352695,6.10916,0.60136
224.031,18.18732,-0.07348465,6.12453,0.60122
224.631,18.20413,-0.07349533,6.1289,0.60108
225.231,18.22091,-0.07352223,6.13166,0.60095
225.831,18.23766,-0.07264229,6.16696,0.60081
226.431,18.25441,-0.0722373,6.18522,0.60067
227.031,18.2712,-0.0735678,6.21866,0.60053
227.631,18.28789,-0.07348181,6.22233,0.60038
228.231,18.30463,-0.07446782,6.25006,0.60024
228.831,18.32135,-0.0749781,6.25981,0.6001
229.431,18.3381,-0.07765139,6.28248,0.59996
230.031,18.3548,-0.07808123,6.29759,0.59982
230.631,18.37152,-0.07946818,6.31602,0.59968
231.231,18.3882,-0.07965638,6.33372,0.59953
231.831,18.40492,-0.08093216,6.34784,0.59939
232.431,18.42156,-0.08086409,6.35751,0.59925
233.031,18.43825,-0.0820971,6.36818,0.5991
233.631,18.45492,-0.08207723,6.36775,0.59896
234.231,18.47158,-0.08292915,6.40285,0.59882
234.831,18.4882,-0.08298271,6.41698,0.59867
235.431,18.50487,-0.08451079,6.41746,0.59853
236.031,18.52157,-0.08474379,6.43107,0.59838
236.631,18.53809,-0.0859757,6.43668,0.59824
237.231,18.55474,-0.08603551,6.44263,0.59809
237.831,18.57137,-0.08776351,6.46203,0.59794
238.431,18.58801,-0.08757868,6.4796,0.5978
239.031,18.60464,-0.08889584,6.47735,0.59765
239.631,18.6213,-0.08893076,6.49516,0.5975
240.231,18.6379,-0.08948583,6.49815,0.59735
240.831,18.65445,-0.09044793,6.49866,0.59721
241.431,18.67105,-0.09189311,6.50725,0.59706
242.031,18.68764,-0.09242889,6.50246,0.59691
242.631,18.70422,-0.09402876,6.51293,0.59676
243.231,18.7209,-0.095395,6.51096,0.59661
243.831,18.73745,-0.09568062,6.51227,0.59646
244.431,18.7541,-0.09720652,6.49352,0.59631
245.031,18.77063,-0.09740632,6.5046,0.59616
245.631,18.78716,-0.09878965,6.50123,0.59601
246.231,18.80371,-0.10055,6.50803,0.59586
246.831,18.82027,-0.10232,6.50685,0.59571
247.431,18.83674,-0.10438,6.49784,0.59556
248.031,18.8533,-0.10664,6.47847,0.5954
248.631,18.8698,-0.10811,6.48212,0.59525
249.231,18.88628,-0.11013,6.48486,0.5951
249.831,18.90277,-0.11244,6.47817,0.59495
250.431,18.9193,-0.1141,6.48381,0.59479
251.031,18.93583,-0.11603,6.45648,0.59464
251.631,18.95232,-0.11711,6.44179,0.59448
252.231,18.96881,-0.11801,6.42751,0.59433
252.831,18.9853,-0.11964,6.44173,0.59418
253.431,19.00177,-0.12178,6.43323,0.59402
254.031,19.01824,-0.12381,6.42373,0.59387
254.631,19.03465,-0.12506,6.41457,0.59371
255.231,19.05113,-0.12664,6.40487,0.59356
255.831,19.06757,-0.12836,6.39575,0.5934
256.431,19.08403,-0.12895,6.38029,0.59324
257.031,19.10046,-0.12995,6.37931,0.59309
257.631,19.117,-0.13183,6.35523,0.59293
258.231,19.1335,-0.13366,6.35559,0.59277
258.831,19.14987,-0.13542,6.34411,0.59261
259.431,19.16626,-0.13745,6.33465,0.59246
260.031,19.1827,-0.13872,6.31766,0.5923
260.631,19.19905,-0.1405,6.32375,0.59214
261.231,19.21542,-0.14259,6.30925,0.59198
261.831,19.23178,-0.14505,6.29946,0.59182
262.431,19.24823,-0.14771,6.30805,0.59166
263.031,19.26465,-0.14918,6.28702,0.5915
263.631,19.28102,-0.15156,6.29347,0.59134
264.231,19.2974,-0.1541,6.29846,0.59118
264.831,19.3139,-0.15569,6.2744,0.59102
265.431,19.3303,-0.15718,6.26688,0.59086
266.031,19.34666,-0.15869,6.26996,0.5907
266.631,19.36305,-0.16053,6.2712,0.59054
267.231,19.3795,-0.16215,6.27178,0.59038
267.831,19.39586,-0.16375,6.28743,0.59021
268.431,19.41218,-0.16558,6.28022,0.59005
269.031,19.42859,-0.16912,6.30258,0.58989
269.631,19.445,-0.17173,6.28631,0.58972
270.231,19.46138,-0.17313,6.30888,0.58956
270.831,19.47779,-0.17496,6.31116,0.5894
271.431,19.4942,-0.17755,6.31979,0.58923
272.031,19.51061,-0.17982,6.31372,0.58907
272.631,19.52698,-0.18186,6.30981,0.58891
273.231,19.5433,-0.18432,6.30426,0.58874
273.831,19.55965,-0.18531,6.30806,0.58858
274.431,19.57604,-0.1868,6.32735,0.58841
275.031,19.5924,-0.18898,6.32601,0.58824
275.631,19.60878,-0.19156,6.31397,0.58808
276.231,19.6252,-0.19338,6.31981,0.58791
276.831,19.64161,-0.19646,6.32399,0.58775
277.431,19.65801,-0.19954,6.32713,0.58758
278.031,19.67439,-0.20104,6.33448,0.58741
278.631,19.69075,-0.2033,6.33967,0.58724
279.231,19.70709,-0.20641,6.33991,0.58708
279.831,19.72342,-0.20864,6.34747,0.58691
280.431,19.73976,-0.21178,6.34686,0.58674
281.031,19.75609,-0.21437,6.35528,0.58657
281.631,19.7725,-0.2162,6.33259,0.5864
282.231,19.7889,-0.21965,6.33636,0.58623
282.831,19.8052,-0.22335,6.35657,0.58607
283.431,19.8216,-0.22692,6.35785,0.5859
284.031,19.838,-0.23179,6.34383,0.58573
284.631,19.85436,-0.23603,6.33679,0.58556
285.231,19.87071,-0.23863,6.33451,0.58539
285.831,19.88703,-0.24185,6.35802,0.58522
286.431,19.90335,-0.24469,6.36396,0.58504
287.031,19.91965,-0.24704,6.36833,0.58487
287.631,19.93605,-0.25176,6.37162,0.5847
288.231,19.9524,-0.25526,6.37723,0.58453
288.831,19.96869,-0.25971,6.36526,0.58436
289.431,19.985,-0.26382,6.35627,0.58419
290.031,20.00139,-0.26817,6.37002,0.58401
290.631,20.01772,-0.27297,6.36954,0.58384
291.231,20.034,-0.27759,6.364,0.58367
291.831,20.05035,-0.28262,6.33787,0.58349
292.431,20.06673,-0.28622,6.35083,0.58332
293.031,20.08308,-0.29073,6.33205,0.58315
293.631,20.0994,-0.29488,6.32364,0.58297
294.231,20.11575,-0.29953,6.33192,0.5828
294.831,20.13211,-0.30498,6.2996,0.58262
295.431,20.14846,-0.30932,6.29782,0.58245
296.031,20.16483,-0.31464,6.30211,0.58227
296.631,20.18119,-0.31906,6.283,0.5821
297.231,20.1976,-0.324,6.27114,0.58192
297.831,20.21396,-0.32947,6.26499,0.58175
298.431,20.23028,-0.3339,6.25377,0.58157
299.031,20.2466,-0.33988,6.25907,0.58139
299.631,20.26296,-0.34461,6.24356,0.58122
300.231,20.2793,-0.35028,6.24481,0.58104
300.831,20.29566,-0.35592,6.23692,0.58086
301.431,20.31203,-0.36143,6.20724,0.58069
302.031,20.32845,-0.36857,6.20549,0.58051
302.631,20.3448,-0.37381,6.16826,0.58033
303.231,20.36116,-0.37908,6.18717,0.58015
303.831,20.3775,-0.3838,6.16311,0.57997
304.431,20.39377,-0.38878,6.15591,0.5798
305.031,20.4101,-0.39578,6.15437,0.57962
305.631,20.42643,-0.40122,6.13686,0.57944
306.231,20.44282,-0.40773,6.13809,0.57926
306.831,20.4592,-0.41374,6.13162,0.57908
307.431,20.4756,-0.41992,6.10042,0.5789
308.031,20.49202,-0.42792,6.1111,0.57872
308.631,20.50842,-0.43383,6.10286,0.57854
309.231,20.52468,-0.44141,6.08791,0.57836
309.831,20.54105,-0.44763,6.07644,0.57818
310.431,20.55741,-0.45479,6.06086,0.578
311.031,20.57379,-0.4636,6.05666,0.57781
311.631,20.59011,-0.47091,6.05304,0.57763
312.231,20.60654,-0.48014,6.06673,0.57745
312.831,20.6229,-0.48653,6.05104,0.57727
313.431,20.6392,-0.49349,6.03911,0.57709
314.031,20.65551,-0.50088,6.04132,0.5769
314.631,20.6719,-0.50756,6.03902,0.57672
315.231,20.6882,-0.51736,6.04444,0.57654
315.831,20.7045,-0.52532,6.06473,0.57636
316.431,20.72089,-0.53461,6.0447,0.57617
317.031,20.73722,-0.54324,6.02674,0.57599
317.631,20.75356,-0.55147,6.03963,0.57581
318.231,20.76991,-0.56238,6.04188,0.57562
318.831,20.78622,-0.57182,6.04832,0.57544
319.431,20.80262,-0.58123,6.03417,0.57525
320.031,20.81899,-0.58883,6.0417,0.57507
320.631,20.8354,-0.59657,6.05927,0.57488
321.231,20.85171,-0.60661,6.06972,0.5747
321.831,20.86807,-0.61474,6.06561,0.57451
322.431,20.8844,-0.62374,6.06191,0.57433
323.031,20.90075,-0.63118,6.06325,0.57414
323.631,20.91713,-0.63952,6.07769,0.57395
324.231,20.93354,-0.64989,6.09572,0.57377
324.831,20.9499,-0.65846,6.11952,0.57358
325.431,20.96637,-0.66941,6.12696,0.5734
326.031,20.9828,-0.67888,6.1121,0.57321
326.631,20.99915,-0.68969,6.12724,0.57302
327.231,21.01549,-0.70116,6.13777,0.57283
327.831,21.03191,-0.7107,6.15562,0.57265
328.431,21.04826,-0.72204,6.17195,0.57246
329.031,21.06466,-0.73079,6.1851,0.57227
329.631,21.08107,-0.74137,6.19953,0.57208
330.231,21.09751,-0.75192,6.20884,0.57189
330.831,21.1139,-0.76173,6.2215,0.57171
331.431,21.13032,-0.7743,6.25333,0.57152
332.031,21.1467,-0.78473,6.28089,0.57133
332.631,21.16313,-0.79712,6.28195,0.57114
333.231,21.17953,-0.80714,6.29172,0.57095
333.831,21.196,-0.81664,6.30529,0.57076
334.431,21.21242,-0.82823,6.31112,0.57057
335.031,21.22889,-0.83803,6.33218,0.57038
335.631,21.24532,-0.85127,6.34093,0.57019
336.231,21.2618,-0.86254,6.35688,0.57
336.831,21.27826,-0.87524,6.38307,0.56981
337.431,21.29475,-0.88901,6.40209,0.56962
338.031,21.3112,-0.90001,6.40297,0.56943
338.631,21.32767,-0.91282,6.41938,0.56923
339.231,21.3442,-0.92292,6.43729,0.56904
339.831,21.36054,-0.93531,6.44357,0.56885
340.431,21.3769,-0.94806,6.45969,0.56866
341.031,21.3933,-0.95972,6.48467,0.56847
341.631,21.40979,-0.97439,6.50521,0.56827
342.231,21.42625,-0.98595,6.52154,0.56808
342.831,21.44271,-1.00035,6.53125,0.56789
343.431,21.45935,-1.01329,6.55977,0.5677
344.031,21.47585,-1.02576,6.57802,0.5675
344.631,21.49234,-1.04059,6.59827,0.56731
345.231,21.5089,-1.05166,6.61708,0.56712
345.831,21.52545,-1.06541,6.63932,0.56692
346.431,21.54196,-1.07641,6.6523,0.56673
347.031,21.55848,-1.08941,6.65068,0.56654
347.631,21.57505,-1.10394,6.67197,0.56634
348.231,21.59156,-1.11628,6.70493,0.56615
348.831,21.60809,-1.13181,6.73055,0.56595
349.431,21.62469,-1.14359,6.74748,0.56576
350.031,21.6413,-1.15811,6.75485,0.56556
350.631,21.65778,-1.17212,6.77872,0.56537
351.231,21.67434,-1.18572,6.79622,0.56517
351.831,21.6909,-1.20193,6.8207,0.56498
352.431,21.7074,-1.21386,6.84899,0.56478
353.031,21.724,-1.2296,6.8629,0.56459
353.631,21.7406,-1.24323,6.88893,0.56439
354.231,21.75712,-1.25759,6.90421,0.56419
354.831,21.77373,-1.2735,6.92664,0.564
355.431,21.79036,-1.28655,6.95172,0.5638
356.031,21.80695,-1.30359,6.97276,0.5636
356.631,21.82357,-1.31736,7.00314,0.56341
357.231,21.8402,-1.33328,7.03574,0.56321
357.831,21.85685,-1.34876,7.07049,0.56301
358.431,21.87347,-1.36287,7.10394,0.56281
359.031,21.89009,-1.38058,7.12063,0.56262
359.631,21.90669,-1.39371,7.15059,0.56242
360.231,21.92332,-1.41079,7.1858,0.56222
360.831,21.93998,-1.42615,7.21898,0.56202
361.431,21.95666,-1.44235,7.26845,0.56182
362.031,21.97332,-1.46093,7.29543,0.56163
362.631,21.99,-1.47554,7.33489,0.56143
363.231,22.00669,-1.49411,7.38133,0.56123
363.831,22.0234,-1.50869,7.42562,0.56103
364.431,22.04007,-1.52498,7.46512,0.56083
365.031,22.05678,-1.54123,7.50795,0.56063
365.631,22.07348,-1.55609,7.54215,0.56043
366.231,22.0901,-1.57508,7.6027,0.56023
366.831,22.1068,-1.59004,7.6375,0.56003
367.431,22.1235,-1.60884,7.66861,0.55983
368.031,22.1402,-1.62619,7.7114,0.55963
368.631,22.15691,-1.64439,7.76759,0.55943
369.231,22.17364,-1.66488,7.81487,0.55923
369.831,22.19037,-1.68076,7.83808,0.55903
370.431,22.2071,-1.70099,7.8721,0.55883
371.031,22.2239,-1.71682,7.93441,0.55863
371.631,22.2406,-1.73424,7.97541,0.55843
372.231,22.2573,-1.75276,8.02324,0.55823
372.831,22.274,-1.77013,8.04849,0.55803
373.431,22.2908,-1.79222,8.09525,0.55782
374.031,22.30759,-1.80885,8.11934,0.55762
374.631,22.32439,-1.82896,8.14963,0.55742
375.231,22.34114,-1.84759,8.17228,0.55722
375.831,22.35795,-1.86681,8.20859,0.55702
376.431,22.37472,-1.88996,8.2563,0.55681
377.031,22.39147,-1.90846,8.28339,0.55661
377.631,22.40822,-1.93075,8.30054,0.55641
378.231,22.42502,-1.94776,8.29603,0.55621
378.831,22.44183,-1.96864,8.30314,0.556
379.431,22.45852,-1.9883,8.31859,0.5558
380.031,22.4753,-2.00807,8.28569,0.5556
380.631,22.49212,-2.0308,8.25183,0.55539
381.231,22.50892,-2.04832,8.23456,0.55519
381.831,22.5258,-2.06971,8.20747,0.55499
382.431,22.54271,-2.08628,8.1816,0.55478
383.031,22.5596,-2.10632,8.12638,0.55458
383.631,22.5764,-2.12774,8.05928,0.55438
384.231,22.59328,-2.14685,7.96972,0.55417
384.831,22.61018,-2.16963,7.88759,0.55397
385.431,22.62707,-2.18634,7.78629,0.55376
386.031,22.64396,-2.20725,7.67079,0.55356
386.631,22.66092,-2.2251,7.55011,0.55335
387.231,22.67791,-2.24367,7.41346,0.55315
387.831,22.6947,-2.2636,7.25472,0.55294
388.431,22.71164,-2.28029,7.10301,0.55274
389.031,22.72861,-2.30084,6.91261,0.55253
389.631,22.74556,-2.31508,6.72425,0.55233
390.231,22.76246,-2.33194,6.51588,0.55212
390.831,22.7795,-2.34856,6.29355,0.55192
391.431,22.79648,-2.36406,6.09207,0.55171
392.031,22.81346,-2.38051,5.85108,0.55151
392.631,22.83045,-2.39299,5.63095,0.5513
393.231,22.84743,-2.40733,5.38339,0.55109
393.831,22.86443,-2.41814,5.13146,0.55089
394.431,22.8814,-2.43108,4.89755,0.55068
395.031,22.89845,-2.44287,4.63333,0.55047
395.631,22.91545,-2.45352,4.38103,0.55027
396.231,22.9325,-2.4646,4.14412,0.55006
396.831,22.9496,-2.47376,3.91828,0.54985
397.431,22.96659,-2.48324,3.69872,0.54965
398.031,22.9836,-2.49001,3.48856,0.54944
398.631,23.00067,-2.49741,3.27148,0.54923
399.231,23.0177,-2.50413,3.10012,0.54902
399.831,23.03473,-2.51015,2.93791,0.54882
400.431,23.0518,-2.51691,2.76566,0.54861
401.031,23.0689,-2.52151,2.59961,0.5484
401.631,23.08596,-2.52679,2.47612,0.54819
402.231,23.10305,-2.53048,2.36336,0.54799
402.831,23.12009,-2.53466,2.23617,0.54778
403.431,23.13707,-2.53862,2.12461,0.54757
404.031,23.15416,-2.54239,2.04969,0.54736
404.631,23.1713,-2.54719,1.96069,0.54715
405.231,23.18844,-2.55071,1.89059,0.54694
405.831,23.20554,-2.55445,1.82603,0.54674
406.431,23.22273,-2.55768,1.76037,0.54653
407.031,23.23979,-2.55924,1.70536,0.54632
407.631,23.25682,-2.56059,1.66453,0.54611
408.231,23.2738,-2.56282,1.61082,0.5459
408.831,23.29085,-2.56494,1.56531,0.54569
409.431,23.30793,-2.56813,1.52208,0.54548
410.031,23.32507,-2.57212,1.48911,0.54527
410.631,23.34218,-2.57497,1.45643,0.54506
411.231,23.35933,-2.57743,1.42961,0.54485
411.831,23.37649,-2.58003,1.40026,0.54464
412.431,23.3936,-2.58215,1.36584,0.54443
413.031,23.41077,-2.58418,1.34304,0.54422
413.631,23.42794,-2.58712,1.33089,0.54401
414.231,23.44514,-2.58887,1.29561,0.5438
414.831,23.46228,-2.59076,1.27908,0.54359
415.431,23.47939,-2.59345,1.25477,0.54338
416.031,23.4966,-2.59616,1.2275,0.54317
416.631,23.5138,-2.59792,1.19892,0.54296
417.231,23.531,-2.60066,1.16197,0.54275
417.831,23.54821,-2.60389,1.17282,0.54254
418.431,23.56556,-2.60578,1.15587,0.54233
419.031,23.58276,-2.60791,1.12077,0.54212
419.631,23.59993,-2.60972,1.08276,0.54191
420.231,23.61712,-2.61164,1.07821,0.54169
420.831,23.63435,-2.6142,1.05447,0.54148
421.431,23.65156,-2.61672,1.02934,0.54127
422.031,23.66874,-2.62024,0.99584,0.54106
422.631,23.68596,-2.62301,0.98774,0.54085
423.231,23.70319,-2.62444,0.96285,0.54064
423.831,23.72042,-2.62595,0.93155,0.54043
424.431,23.73766,-2.6285,0.91224,0.54021
425.031,23.7549,-2.63128,0.88223,0.54
425.631,23.7722,-2.63284,0.85684,0.53979
426.231,23.78947,-2.63435,0.83273,0.53958
426.831,23.8067,-2.63576,0.82083,0.53937
427.431,23.82398,-2.63734,0.79372,0.53915
428.031,23.84124,-2.63894,0.76747,0.53894
428.631,23.8585,-2.64084,0.74578,0.53873
429.231,23.87576,-2.64366,0.71975,0.53852
429.831,23.8931,-2.64626,0.69508,0.5383
430.431,23.9104,-2.64809,0.68028,0.53809
431.031,23.92772,-2.64953,0.6494,0.53788
431.631,23.94509,-2.65136,0.61831,0.53767
432.231,23.96249,-2.65434,0.59106,0.53745
432.831,23.9798,-2.65707,0.57924,0.53724
433.431,23.99718,-2.65905,0.56514,0.53703
434.031,24.01454,-2.66056,0.54288,0.53681
434.631,24.03192,-2.66224,0.51313,0.5366
435.231,24.04924,-2.66406,0.48354,0.53639
435.831,24.06663,-2.66555,0.46281,0.53617
436.431,24.08399,-2.6672,0.43612,0.53596
437.031,24.10139,-2.66897,0.43121,0.53575
437.631,24.11876,-2.67135,0.42254,0.53553
438.231,24.13619,-2.67309,0.38518,0.53532
438.831,24.15367,-2.67435,0.36598,0.5351
439.431,24.17115,-2.67517,0.34782,0.53489
440.031,24.1886,-2.67697,0.32867,0.53468
440.631,24.20603,-2.67852,0.32509,0.53446
441.231,24.2235,-2.67998,0.31119,0.53425
441.831,24.24089,-2.68164,0.29587,0.53403
442.431,24.25829,-2.68352,0.28137,0.53382
443.031,24.27573,-2.68578,0.25563,0.53361
443.631,24.2932,-2.68861,0.24158,0.53339
444.231,24.3107,-2.69061,0.23423,0.53318
444.831,24.32816,-2.69214,0.22369,0.53296
445.431,24.3457,-2.69355,0.21074,0.53275
446.031,24.36324,-2.69498,0.20339,0.53253
446.631,24.38075,-2.6965,0.20317,0.53232
447.231,24.39826,-2.6982,0.18963,0.5321
447.831,24.4158,-2.70071,0.17793,0.53189
448.431,24.4333,-2.70274,0.16905,0.53167
449.031,24.4508,-2.70427,0.16059,0.53146
449.631,24.4682,-2.70595,0.15902,0.53124
450.231,24.48578,-2.70737,0.14881,0.53103
450.831,24.50328,-2.70872,0.15733,0.53081
451.431,24.52082,-2.71012,0.14413,0.5306
452.031,24.53836,-2.71182,0.15403,0.53038
452.631,24.55594,-2.71328,0.1537,0.53017
453.231,24.5735,-2.71495,0.1471,0.52995
453.831,24.5911,-2.71681,0.14896,0.52974
454.431,24.60864,-2.71874,0.15307,0.52952
455.031,24.62631,-2.71982,0.14655,0.52931
455.631,24.6439,-2.72132,0.16017,0.52909
456.231,24.6615,-2.72317,0.17332,0.52888
456.831,24.67911,-2.72503,0.19191,0.52866
457.431,24.69675,-2.72628,0.18825,0.52844
458.031,24.71433,-2.72812,0.18692,0.52823
458.631,24.7318,-2.7299,0.1902,0.52801
459.231,24.74933,-2.73099,0.2054,0.5278
459.831,24.7669,-2.73263,0.21714,0.52758
460.431,24.78455,-2.73405,0.23872,0.52736
461.031,24.80226,-2.73545,0.24029,0.52715
461.631,24.82003,-2.73699,0.237,0.52693
462.231,24.83785,-2.73876,0.2442,0.52672
462.831,24.85568,-2.74073,0.25689,0.5265
463.431,24.87334,-2.74239,0.27695,0.52628
464.031,24.891,-2.74499,0.2903,0.52607
464.631,24.9087,-2.74671,0.30896,0.52585
465.231,24.92643,-2.7483,0.32237,0.52564
465.831,24.94414,-2.74947,0.33648,0.52542
466.431,24.96187,-2.75094,0.34993,0.5252
467.031,24.97964,-2.75218,0.35662,0.52499
467.631,24.9974,-2.75239,0.37966,0.52477
468.231,25.01517,-2.75225,0.38404,0.52455
468.831,25.03294,-2.75378,0.40109,0.52434
469.431,25.05074,-2.75602,0.41512,0.52412
470.031,25.0685,-2.75854,0.43618,0.5239
470.631,25.08626,-2.75969,0.45145,0.52369
471.231,25.104,-2.7609,0.47552,0.52347
471.831,25.12181,-2.76102,0.48525,0.52325
472.431,25.13964,-2.76227,0.50817,0.52304
473.031,25.15747,-2.76516,0.52496,0.52282
473.631,25.1753,-2.76727,0.5286,0.5226
474.231,25.19315,-2.76933,0.54669,0.52239
474.831,25.21099,-2.76996,0.5658,0.52217
475.431,25.22883,-2.77066,0.5684,0.52195
476.031,25.2467,-2.77066,0.58224,0.52173
476.631,25.26454,-2.7706,0.60726,0.52152
477.231,25.28239,-2.77136,0.61334,0.5213
477.831,25.30019,-2.77209,0.62788,0.52108
478.431,25.31801,-2.77308,0.65037,0.52087
479.031,25.3359,-2.7747,0.66503,0.52065
479.631,25.35379,-2.77647,0.67477,0.52043
480.231,25.37165,-2.77682,0.6947,0.52021
480.831,25.38955,-2.77823,0.71368,0.52
481.431,25.4075,-2.77974,0.71858,0.51978
482.031,25.42544,-2.78057,0.72205,0.51956
482.631,25.44337,-2.78157,0.75456,0.51935
483.231,25.46134,-2.78331,0.75795,0.51913
483.831,25.4793,-2.78427,0.77063,0.51891
484.431,25.49727,-2.78583,0.77726,0.51869
485.031,25.5152,-2.7863,0.78465,0.51848
485.631,25.5332,-2.78756,0.78446,0.51826
486.231,25.55113,-2.78869,0.80293,0.51804
486.831,25.56919,-2.78888,0.81626,0.51782
487.431,25.58718,-2.79005,0.82798,0.51761
488.031,25.60515,-2.79053,0.83716,0.51739
488.631,25.62319,-2.79218,0.84339,0.51717
489.231,25.64123,-2.79369,0.84858,0.51695
489.831,25.65921,-2.79359,0.85636,0.51674
490.431,25.67729,-2.79368,0.8733,0.51652
491.031,25.6953,-2.79484,0.87461,0.5163
491.631,25.71339,-2.79543,0.86181,0.51608
492.231,25.73144,-2.79704,0.87087,0.51587
492.831,25.74953,-2.799,0.87297,0.51565
493.431,25.76756,-2.80075,0.884,0.51543
494.031,25.7856,-2.80169,0.89889,0.51521
494.631,25.80368,-2.80332,0.88875,0.51499
495.231,25.82178,-2.80332,0.88921,0.51478
495.831,25.83986,-2.80356,0.90481,0.51456
496.431,25.85795,-2.80464,0.89718,0.51434
497.031,25.87605,-2.80531,0.9012,0.51412
497.631,25.89419,-2.807,0.90905,0.51391
498.231,25.91227,-2.80859,0.90479,0.51369
498.831,25.93036,-2.8093,0.91418,0.51347
499.431,25.94848,-2.81039,0.91987,0.51325
500.031,25.96658,-2.81038,0.92801,0.51303
500.631,25.9847,-2.81136,0.92981,0.51282
501.231,26.00287,-2.81179,0.91649,0.5126
501.831,26.02104,-2.81195,0.94442,0.51238
502.431,26.0392,-2.81334,0.93696,0.51216
503.031,26.05738,-2.8133,0.91946,0.51195
503.631,26.07554,-2.81455,0.92059,0.51173
504.231,26.0937,-2.81465,0.92389,0.51151
504.831,26.11189,-2.81609,0.9261,0.51129
505.431,26.13009,-2.81636,0.92588,0.51107
506.031,26.1483,-2.81772,0.93788,0.51086
506.631,26.1665,-2.81787,0.92903,0.51064
507.231,26.18478,-2.81912,0.92543,0.51042
507.831,26.20308,-2.81905,0.91719,0.5102
508.431,26.2213,-2.81904,0.92767,0.50999
509.031,26.23954,-2.81903,0.91696,0.50977
509.631,26.25781,-2.81989,0.91128,0.50955
510.231,26.27601,-2.82038,0.92133,0.50933
510.831,26.29425,-2.82192,0.92571,0.50911
511.431,26.3125,-2.8223,0.91232,0.5089
512.031,26.33075,-2.82354,0.8969,0.50868
512.631,26.349,-2.82538,0.9018,0.50846
513.231,26.3672,-2.82684,0.90368,0.50824
513.831,26.3855,-2.82824,0.90039,0.50802
514.431,26.4038,-2.82869,0.90758,0.50781
515.031,26.4221,-2.83034,0.90331,0.50759
515.631,26.4404,-2.83021,0.89557,0.50737
516.231,26.45877,-2.83119,0.9038,0.50715
516.831,26.477,-2.83158,0.89889,0.50694
517.431,26.49533,-2.83217,0.90218,0.50672
518.031,26.5137,-2.83328,0.88891,0.5065
518.631,26.532,-2.83416,0.88182,0.50628
519.231,26.5503,-2.83495,0.87429,0.50606
519.831,26.5686,-2.8356,0.87776,0.50585
520.431,26.58697,-2.83692,0.87615,0.50563
521.031,26.6053,-2.83711,0.872,0.50541
521.631,26.62361,-2.83859,0.87772,0.50519
522.231,26.6419,-2.8387,0.87986,0.50498
522.831,26.66017,-2.83997,0.87635,0.50476
523.431,26.67851,-2.84059,0.87118,0.50454
524.031,26.69685,-2.84098,0.85801,0.50432
524.631,26.71521,-2.84097,0.84114,0.50411
525.231,26.7336,-2.84177,0.84806,0.50389
525.831,26.752,-2.84229,0.845,0.50367
526.431,26.77035,-2.84238,0.84831,0.50345
527.031,26.78871,-2.84361,0.83844,0.50324
527.631,26.8071,-2.84361,0.83699,0.50302
528.231,26.82553,-2.84372,0.83706,0.5028
528.831,26.84393,-2.84505,0.83136,0.50258
529.431,26.8624,-2.84519,0.82986,0.50237
530.031,26.88082,-2.84637,0.81341,0.50215
530.631,26.89925,-2.84636,0.80563,0.50193
531.231,26.91767,-2.84638,0.81005,0.50171
531.831,26.9361,-2.84702,0.80405,0.5015
532.431,26.9545,-2.84769,0.8002,0.50128
533.031,26.9729,-2.84915,0.79533,0.50106
533.631,26.99128,-2.84928,0.79571,0.50084
534.231,27.00972,-2.85035,0.79342,0.50063
534.831,27.02815,-2.85063,0.76372,0.50041
535.431,27.0466,-2.85063,0.75778,0.50019
536.031,27.0649,-2.85063,0.76741,0.49998
536.631,27.0833,-2.85066,0.77631,0.49976
537.231,27.1017,-2.85229,0.77748,0.49954
537.831,27.1202,-2.85224,0.78215,0.49932
538.431,27.1387,-2.85349,0.78546,0.49911
539.031,27.1573,-2.85349,0.76309,0.49889
539.631,27.1758,-2.85458,0.76722,0.49867
540.231,27.1943,-2.85474,0.75619,0.49846
540.831,27.2127,-2.85706,0.74994,0.49824
541.431,27.23125,-2.85753,0.74971,0.49802
542.031,27.24977,-2.85911,0.72164,0.49781
542.631,27.2683,-2.85932,0.73718,0.49759
543.231,27.28683,-2.86067,0.72894,0.49737
543.831,27.3054,-2.86071,0.71995,0.49716
544.431,27.324,-2.86215,0.68946,0.49694
545.031,27.34259,-2.86208,0.66354,0.49672
545.631,27.3611,-2.86343,0.64147,0.4965
546.231,27.37973,-2.86335,0.62846,0.49629
546.831,27.3983,-2.86336,0.60633,0.49607
547.431,27.41682,-2.86379,0.61131,0.49585
548.031,27.43538,-2.8649,0.60245,0.49564
548.631,27.454,-2.86603,0.58999,0.49542
549.231,27.4726,-2.86633,0.57887,0.49521
549.831,27.4912,-2.86755,0.57072,0.49499
550.431,27.5099,-2.86775,0.54768,0.49477
551.031,27.5285,-2.86713,0.54131,0.49456
551.631,27.5471,-2.86791,0.55166,0.49434
552.231,27.5657,-2.86784,0.53996,0.49412
552.831,27.58434,-2.86781,0.52909,0.49391
553.431,27.6029,-2.8693,0.52645,0.49369
554.031,27.6216,-2.86936,0.51968,0.49348
554.631,27.6403,-2.87061,0.51635,0.49326
555.231,27.65887,-2.87091,0.50771,0.49304
555.831,27.6775,-2.87194,0.49524,0.49283
556.431,27.69616,-2.87188,0.48854,0.49261
557.031,27.7147,-2.87331,0.47594,0.4924
557.631,27.73338,-2.87458,0.46678,0.49218
558.231,27.7521,-2.87454,0.4645,0.49196
558.831,27.7708,-2.87452,0.46512,0.49175
559.431,27.78963,-2.87524,0.45901,0.49153
560.031,27.80837,-2.87587,0.44182,0.49132
560.631,27.8271,-2.87586,0.42025,0.4911
561.231,27.8458,-2.87689,0.41973,0.49088
561.831,27.8644,-2.87714,0.41505,0.49067
562.431,27.88315,-2.87709,0.40736,0.49045
563.031,27.902,-2.87834,0.38659,0.49024
563.631,27.9207,-2.87849,0.39349,0.49002
564.231,27.9395,-2.87849,0.39528,0.48981
564.831,27.9584,-2.87875,0.37285,0.48959
565.431,27.97707,-2.87995,0.35187,0.48938
566.031,27.9958,-2.88102,0.35129,0.48916
566.631,28.0146,-2.88126,0.35039,0.48895
567.231,28.03336,-2.88234,0.33956,0.48873
567.831,28.0522,-2.88264,0.3335,0.48852
568.431,28.0709,-2.88315,0.32696,0.4883
569.031,28.0896,-2.88396,0.31405,0.48809
569.631,28.1083,-2.88397,0.29362,0.48787
570.231,28.1271,-2.88396,0.28333,0.48766
570.831,28.14588,-2.88502,0.27911,0.48744
571.431,28.1648,-2.88526,0.25677,0.48723
572.031,28.1836,-2.8852,0.24574,0.48701
572.631,28.2024,-2.88648,0.24495,0.4868
573.231,28.22127,-2.8866,0.23627,0.48658
573.831,28.2401,-2.88663,0.23379,0.48637
574.431,28.2589,-2.88791,0.21645,0.48615
575.031,28.27773,-2.88813,0.22953,0.48594
575.631,28.29655,-2.88952,0.2266,0.48573
576.231,28.31539,-2.8906,0.20349,0.48551
576.831,28.3343,-2.89095,0.18678,0.4853
577.431,28.3531,-2.89172,0.18116,0.48508
578.031,28.3719,-2.89228,0.15533,0.48487
578.631,28.3908,-2.89228,0.14121,0.48466
579.231,28.40963,-2.89334,0.14619,0.48444
579.831,28.42845,-2.89371,0.13379,0.48423
580.431,28.44727,-2.89507,0.12219,0.48401
581.031,28.46613,-2.89516,0.11978,0.4838
581.631,28.4851,-2.89549,0.1276,0.48359
582.231,28.50399,-2.89653,0.10713,0.48337
582.831,28.523,-2.89648,0.10443,0.48316
583.431,28.5419,-2.8971,0.10117,0.48295
584.031,28.56083,-2.89916,0.08053419,0.48273
584.631,28.57971,-2.89911,0.08659874,0.48252
585.231,28.5986,-2.89911,0.07007109,0.4823
585.831,28.61753,-2.89911,0.0665168,0.48209
586.431,28.6365,-2.89911,0.07195535,0.48188
587.031,28.65535,-2.89911,0.06067163,0.48167
587.631,28.67428,-2.8991,0.05884112,0.48145
588.231,28.69322,-2.89903,0.06357471,0.48124
588.831,28.71214,-2.90044,0.04169322,0.48103
589.431,28.73103,-2.90066,0.02461319,0.48081
590.031,28.75,-2.902,0.01751844,0.4806
590.631,28.7689,-2.90196,0.0176367,0.48039
591.231,28.7878,-2.90339,0.006612555,0.48018
591.831,28.8068,-2.90348,-0.00343681,0.47996
592.431,28.82582,-2.90349,-0.00077819,0.47975
593.031,28.8448,-2.9034,0.003239925,0.47954
593.631,28.86382,-2.90474,0.004665343,0.47933
594.231,28.8829,-2.90482,0.01329168,0.47911
594.831,28.90186,-2.90482,-0.01416371,0.4789
595.431,28.9209,-2.90531,-0.0175789,0.47869
596.031,28.9398,-2.90612,-0.02452691,0.47848
596.631,28.9588,-2.90675,-0.06192402,0.47826
597.231,28.9777,-2.90766,-0.04751012,0.47805
597.831,28.9967,-2.90905,-0.03902878,0.47784
598.431,29.01564,-2.90919,-0.03398984,0.47763
599.031,29.0345,-2.9092,-0.04871046,0.47742
599.631,29.0536,-2.9092,-0.05718832,0.47721
600.231,29.0727,-2.9092,-0.05362045,0.47699
600.831,29.09171,-2.90917,-0.07670223,0.47678
601.431,29.1108,-2.91001,-0.06980365,0.47657
602.031,29.12985,-2.91062,-0.08046199,0.47636
602.631,29.14885,-2.91126,-0.09122869,0.47615
603.231,29.1679,-2.91209,-0.09396204,0.47594
603.831,29.1869,-2.9129,-0.11145,0.47573
604.431,29.206,-2.9136,-0.12013,0.47552
605.031,29.2251,-2.91359,-0.13346,0.4753
605.631,29.24417,-2.91358,-0.15197,0.47509
606.231,29.2633,-2.91434,-0.13965,0.47488
606.831,29.2823,-2.91488,-0.14402,0.47467
607.431,29.3014,-2.91547,-0.13892,0.47446
608.031,29.32044,-2.91632,-0.15002,0.47425
608.631,29.33946,-2.91634,-0.15589,0.47404
609.231,29.35853,-2.91763,-0.15747,0.47383
609.831,29.37759,-2.91764,-0.15057,0.47362
610.431,29.3967,-2.9176,-0.15398,0.47341
611.031,29.41576,-2.91881,-0.16443,0.4732
611.631,29.43488,-2.91898,-0.16254,0.47299
612.231,29.45397,-2.9194,-0.1551,0.47278
612.831,29.47312,-2.92029,-0.1667,0.47257
613.431,29.4922,-2.92028,-0.15818,0.47236
614.031,29.51134,-2.92028,-0.17035,0.47215
614.631,29.53053,-2.92028,-0.16056,0.47194
615.231,29.5497,-2.92027,-0.19939,0.47173
615.831,29.56885,-2.92124,-0.20656,0.47152
616.431,29.588,-2.9216,-0.22255,0.47131
617.031,29.60717,-2.92156,-0.22607,0.4711
617.631,29.6263,-2.92278,-0.21608,0.47089
618.231,29.64541,-2.9229,-0.23614,0.47068
618.831,29.6646,-2.92291,-0.24596,0.47048
619.431,29.6837,-2.92291,-0.24569,0.47027
620.031,29.7029,-2.92287,-0.24635,0.47006
620.631,29.72205,-2.92381,-0.25944,0.46985
621.231,29.74121,-2.92422,-0.26625,0.46964
621.831,29.7604,-2.92427,-0.277,0.46943
622.431,29.77958,-2.92567,-0.2766,0.46922
623.031,29.79875,-2.92566,-0.27983,0.46901
623.631,29.818,-2.92563,-0.27031,0.46881
624.231,29.8372,-2.92689,-0.26934,0.4686
624.831,29.85635,-2.92696,-0.27045,0.46839
625.431,29.8755,-2.92708,-0.26883,0.46818
626.031,29.89469,-2.92837,-0.27546,0.46797
626.631,29.9139,-2.9283,-0.28309,0.46777
627.231,29.93314,-2.92829,-0.28152,0.46756
627.831,29.95242,-2.92829,-0.26843,0.46735
628.431,29.97164,-2.92824,-0.25618,0.46714
629.031,29.9909,-2.92942,-0.25522,0.46694
629.631,30.01012,-2.92975,-0.23982,0.46673
630.231,30.0294,-2.93104,-0.25192,0.46652
630.831,30.0486,-2.93103,-0.24553,0.46631
631.431,30.06785,-2.93126,-0.22506,0.46611
632.031,30.0871,-2.93239,-0.22852,0.4659
632.631,30.10633,-2.93235,-0.23154,0.46569
633.231,30.12557,-2.93231,-0.24375,0.46549
633.831,30.1448,-2.93376,-0.27347,0.46528
634.431,30.1641,-2.93501,-0.26611,0.46507
635.031,30.1834,-2.93498,-0.25689,0.46487
635.631,30.20265,-2.93498,-0.27156,0.46466
636.231,30.222,-2.93498,-0.28202,0.46445
636.831,30.24124,-2.93498,-0.28503,0.46425
637.431,30.2605,-2.93498,-0.28617,0.46404
638.031,30.2798,-2.93497,-0.27783,0.46384
638.631,30.2991,-2.93597,-0.28135,0.46363
639.231,30.31839,-2.93508,-0.27081,0.46342
639.831,30.33773,-2.93655,-0.2725,0.46322
640.431,30.357,-2.93662,-0.28209,0.46301
641.031,30.37626,-2.93663,-0.28593,0.46281
641.631,30.39555,-2.93662,-0.2796,0.4626
642.231,30.4149,-2.93757,-0.28763,0.4624
642.831,30.43419,-2.93798,-0.29116,0.46219
643.431,30.45358,-2.93949,-0.28979,0.46199
644.031,30.4729,-2.93954,-0.29695,0.46178
644.631,30.49219,-2.94049,-0.28625,0.46158
645.231,30.51159,-2.93938,-0.28035,0.46137
645.831,30.5309,-2.94087,-0.29384,0.46117
646.431,30.55025,-2.94078,-0.28801,0.46096
647.031,30.56965,-2.94149,-0.30502,0.46076
647.631,30.58902,-2.94211,-0.30653,0.46055
648.231,30.60838,-2.94207,-0.30388,0.46035
648.831,30.62776,-2.94352,-0.30131,0.46014
649.431,30.6472,-2.94373,-0.31055,0.45994
650.031,30.6666,-2.94491,-0.30854,0.45974
650.631,30.686,-2.94486,-0.30873,0.45953
651.231,30.70532,-2.94486,-0.30722,0.45933
651.831,30.72468,-2.94485,-0.31436,0.45912
652.431,30.74407,-2.94485,-0.31468,0.45892
653.031,30.7634,-2.94485,-0.30597,0.45872
653.631,30.78285,-2.94485,-0.30887,0.45851
654.231,30.8023,-2.94485,-0.30056,0.45831
654.831,30.8217,-2.94484,-0.2981,0.45811
655.431,30.8411,-2.94707,-0.29972,0.4579
656.031,30.8605,-2.94748,-0.32252,0.4577
656.631,30.8799,-2.94789,-0.3142,0.4575
657.231,30.89935,-2.9488,-0.31859,0.4573
657.831,30.9188,-2.9488,-0.28574,0.45709
658.431,30.93832,-2.9488,-0.30206,0.45689
659.031,30.9578,-2.9488,-0.30508,0.45669
659.631,30.9773,-2.9488,-0.28843,0.45649
660.231,30.99676,-2.9488,-0.27902,0.45628
660.831,31.0162,-2.9488,-0.28313,0.45608
661.431,31.03565,-2.9488,-0.26977,0.45588
662.031,31.0551,-2.94881,-0.27263,0.45568
662.631,31.07453,-2.94908,-0.25802,0.45548
663.231,31.094,-2.95032,-0.26095,0.45527
663.831,31.11344,-2.95062,-0.24816,0.45507
664.431,31.13295,-2.95173,-0.22952,0.45487
665.031,31.1525,-2.95291,-0.21744,0.45467
665.631,31.172,-2.95286,-0.21043,0.45447
666.231,31.19156,-2.95286,-0.19971,0.45427
666.831,31.211,-2.95286,-0.2027,0.45407
667.431,31.23051,-2.95285,-0.18396,0.45387
668.031,31.25,-2.95359,-0.17481,0.45366
668.631,31.26955,-2.95418,-0.17687,0.45346
669.231,31.28888,-2.95418,-0.18191,0.45326
669.831,31.30823,-2.95418,-0.17994,0.45306
670.431,31.3277,-2.95423,-0.18315,0.45286
671.031,31.3472,-2.95374,-0.17571,0.45266
671.631,31.3668,-2.95419,-0.1846,0.45246
672.231,31.38652,-2.9542,-0.17358,0.45226
672.831,31.40617,-2.95486,-0.17109,0.45206
673.431,31.4257,-2.95549,-0.16744,0.45186
674.031,31.44531,-2.95547,-0.17751,0.45166
674.631,31.4649,-2.95624,-0.1762,0.45146
675.231,31.48452,-2.95647,-0.19564,0.45126
675.831,31.50413,-2.95648,-0.20371,0.45106
676.431,31.52368,-2.95648,-0.20421,0.45087
677.031,31.5433,-2.95647,-0.19441,0.45067
677.631,31.56281,-2.95718,-0.17347,0.45047
678.231,31.58235,-2.95777,-0.19298,0.45027
678.831,31.60189,-2.9578,-0.19297,0.45007
679.431,31.62145,-2.9578,-0.20911,0.44987
680.031,31.641,-2.9578,-0.19527,0.44967
680.631,31.66052,-2.9578,-0.19757,0.44947
681.231,31.68004,-2.9578,-0.19707,0.44928
681.831,31.6996,-2.95816,-0.19194,0.44908
682.431,31.7192,-2.95878,-0.18694,0.44888
683.031,31.7388,-2.95911,-0.18699,0.44868
683.631,31.7584,-2.95912,-0.17332,0.44848
684.231,31.77801,-2.95967,-0.1647,0.44829
684.831,31.79764,-2.96044,-0.16407,0.44809
685.431,31.81725,-2.96039,-0.18099,0.44789
686.031,31.8368,-2.96165,-0.14597,0.44769
686.631,31.8564,-2.96174,-0.12153,0.4475
687.231,31.87606,-2.96172,-0.1002,0.4473
687.831,31.8957,-2.96109,-0.1057,0.4471
688.431,31.9153,-2.96111,-0.10265,0.44691
689.031,31.935,-2.96226,-0.09102712,0.44671
689.631,31.9545,-2.96267,-0.06158611,0.44651
690.231,31.9741,-2.96353,-0.04198624,0.44632
690.831,31.99373,-2.96502,-0.03995697,0.44612
691.431,32.0133,-2.96517,-0.01993063,0.44592
692.031,32.03297,-2.96668,-0.002290108,0.44573
692.631,32.0526,-2.96733,0.0002134732,0.44553
693.231,32.0723,-2.96808,0.003461557,0.44534
693.831,32.09195,-2.96813,-0.02821983,0.44514
694.431,32.11164,-2.96719,-0.02415097,0.44495
695.031,32.1312,-2.9665,0.01640017,0.44475
695.631,32.15092,-2.96521,0.007843527,0.44455
696.231,32.17042,-2.96525,0.004510636,0.44436
696.831,32.19003,-2.96523,0.008685887,0.44416
697.431,32.20977,-2.96529,0.00203063,0.44397
698.031,32.22953,-2.96591,0.02128049,0.44377
698.631,32.24917,-2.96591,0.04988809,0.44358
699.231,32.269,-2.96591,0.06204598,0.44338
699.831,32.28865,-2.96591,0.06664496,0.44319
700.431,32.30835,-2.96591,0.09371894,0.443
701.031,32.32805,-2.96715,0.10936,0.4428
701.631,32.34775,-2.96722,0.1069,0.44261
702.231,32.36743,-2.96841,0.1155,0.44241
702.831,32.38715,-2.96805,0.11034,0.44222
703.431,32.4068,-2.96738,0.11874,0.44203
704.031,32.4263,-2.96859,0.12774,0.44183
704.631,32.44585,-2.96854,0.12971,0.44164
705.231,32.4656,-2.96853,0.1355,0.44145
705.831,32.4852,-2.96952,0.11935,0.44125
706.431,32.50506,-2.96984,0.11162,0.44106
707.031,32.525,-2.96995,0.11055,0.44087
707.631,32.54477,-2.97126,0.15062,0.44067
708.231,32.56452,-2.97119,0.13358,0.44048
708.831,32.58422,-2.97118,0.12785,0.44029
709.431,32.60393,-2.97118,0.13697,0.44009
710.031,32.62365,-2.97118,0.1383,0.4399
710.631,32.6434,-2.97118,0.15612,0.43971
711.231,32.6631,-2.97118,0.15104,0.43952
711.831,32.68288,-2.97118,0.1731,0.43933
712.431,32.70264,-2.97118,0.19623,0.43913
713.031,32.72235,-2.97118,0.20391,0.43894
713.631,32.7421,-2.97118,0.21578,0.43875
714.231,32.76185,-2.97118,0.25338,0.43856
714.831,32.78156,-2.97118,0.25564,0.43837
715.431,32.8014,-2.97118,0.25108,0.43818
716.031,32.82118,-2.97118,0.24145,0.43799
716.631,32.841,-2.97115,0.24751,0.43779
717.231,32.8607,-2.97227,0.27634,0.4376
717.831,32.88046,-2.97249,0.31049,0.43741
718.431,32.9002,-2.97249,0.30988,0.43722
719.031,32.92,-2.97249,0.22743,0.43703
719.631,32.93979,-2.97249,0.25434,0.43684
720.231,32.95952,-2.97249,0.28352,0.43665
720.831,32.97927,-2.97248,0.31842,0.43646
721.431,32.99906,-2.9715,0.34108,0.43627
722.031,33.01885,-2.9728,0.34605,0.43608
722.631,33.03864,-2.97282,0.37225,0.43589
723.231,33.0585,-2.97309,0.38821,0.4357
723.831,33.07835,-2.97426,0.38491,0.43551
724.431,33.09814,-2.97424,0.40457,0.43532
725.031,33.1179,-2.97421,0.4293,0.43513
725.631,33.13769,-2.9755,0.43844,0.43495
726.231,33.1575,-2.97556,0.42203,0.43476
726.831,33.1773,-2.97556,0.41608,0.43457
727.431,33.1971,-2.97556,0.42803,0.43438
728.031,33.21695,-2.97574,0.41287,0.43419
728.631,33.2368,-2.97693,0.43777,0.434
729.231,33.2567,-2.97688,0.42484,0.43381
729.831,33.2766,-2.97688,0.43147,0.43363
730.431,33.29708,-2.97688,0.44022,0.43344
731.031,33.31755,-2.97688,0.4323,0.43325
731.431,33.33102,-2.97688,0.44668,0.43312