File: 01_Data/Pressure_Treated_Deck/STA/N2/30K_min/Pressure_Treated_Deck_STA_N2_30KData_211806_R1.csv
##Temp./Â°C,Time/min,Mass loss(subtr.2)/mg,DSC(subtr.2)/mW,Sensit./(uV/mW)
50.632,10.01,-0.03992,0.07097098,0.6235
51.232,10.996,-0.03471819,0.176,0.62349
51.832,11.2072,-0.03189486,0.27087,0.62349
52.432,11.3504,-0.03329898,0.3392,0.62348
53.032,11.46234,-0.03143829,0.41777,0.62347
53.632,11.5585,-0.03084195,0.46636,0.62346
54.232,11.6447,-0.03412777,0.53544,0.62346
54.832,11.71973,-0.03409986,0.60073,0.62345
55.432,11.78782,-0.03229105,0.65472,0.62344
56.032,11.85112,-0.03243893,0.71272,0.62343
56.632,11.911,-0.0325313,0.76855,0.62341
57.232,11.96645,-0.0320896,0.82666,0.6234
57.832,12.019,-0.03453652,0.87242,0.62339
58.432,12.06973,-0.03096177,0.91532,0.62338
59.032,12.11864,-0.03104618,0.9731,0.62336
59.632,12.16463,-0.03218704,1.01744,0.62335
60.232,12.20967,-0.03125519,1.04612,0.62334
60.832,12.25395,-0.03154565,1.09307,0.62332
61.432,12.2965,-0.03444891,1.13698,0.62331
62.032,12.33805,-0.03571594,1.17541,0.62329
62.632,12.37828,-0.03536199,1.21592,0.62327
63.232,12.4173,-0.03543584,1.25387,0.62326
63.832,12.45566,-0.03600166,1.29622,0.62324
64.432,12.49372,-0.03663275,1.32868,0.62322
65.032,12.53096,-0.0363315,1.36446,0.6232
65.632,12.56742,-0.0351955,1.40493,0.62318
66.232,12.60338,-0.03556327,1.43081,0.62316
66.832,12.6387,-0.03629461,1.47176,0.62314
67.432,12.6732,-0.03545219,1.51042,0.62312
68.032,12.70765,-0.0351429,1.52911,0.6231
68.632,12.7422,-0.0347499,1.55378,0.62308
69.232,12.7761,-0.03404763,1.58547,0.62305
69.832,12.80945,-0.03661267,1.62329,0.62303
70.432,12.8425,-0.03694384,1.65815,0.62301
71.032,12.8752,-0.03736492,1.68136,0.62298
71.632,12.90736,-0.03721428,1.6964,0.62296
72.232,12.93936,-0.03755187,1.74217,0.62293
72.832,12.97098,-0.03704418,1.76291,0.62291
73.432,13.0025,-0.03839396,1.80512,0.62288
74.032,13.0337,-0.0387612,1.81668,0.62286
74.632,13.06482,-0.03870872,1.85475,0.62283
75.232,13.09558,-0.03832527,1.86735,0.6228
75.832,13.12609,-0.03788514,1.89586,0.62277
76.432,13.15649,-0.03704763,1.93252,0.62274
77.032,13.1867,-0.03832616,1.94606,0.62271
77.632,13.2166,-0.03914885,1.97831,0.62268
78.232,13.2463,-0.03790282,2.0072,0.62265
78.832,13.27602,-0.03785365,2.02557,0.62262
79.432,13.3055,-0.03922666,2.04903,0.62259
80.032,13.33501,-0.03977087,2.08449,0.62256
80.632,13.3641,-0.04109381,2.10015,0.62253
81.232,13.39304,-0.04111101,2.12594,0.62249
81.832,13.4217,-0.03960414,2.15415,0.62246
82.432,13.45016,-0.03958984,2.17096,0.62242
83.032,13.47853,-0.03958877,2.19546,0.62239
83.632,13.5068,-0.03842851,2.21404,0.62236
84.232,13.53475,-0.03833067,2.24049,0.62232
84.832,13.56286,-0.03957092,2.25872,0.62228
85.432,13.59087,-0.04115716,2.28625,0.62225
86.032,13.61863,-0.04133409,2.31718,0.62221
86.632,13.64618,-0.04269122,2.32249,0.62217
87.232,13.6735,-0.04409421,2.34184,0.62213
87.832,13.70067,-0.04501741,2.36868,0.62209
88.432,13.72773,-0.04539054,2.38082,0.62205
89.032,13.7546,-0.04686111,2.39712,0.62202
89.632,13.7814,-0.0453754,2.42321,0.62197
90.232,13.8079,-0.04540167,2.43003,0.62193
90.832,13.8343,-0.0468309,2.45932,0.62189
91.432,13.86076,-0.04739465,2.47419,0.62185
92.032,13.88691,-0.04673202,2.5051,0.62181
92.632,13.91301,-0.0479019,2.5202,0.62177
93.232,13.93885,-0.04803941,2.53262,0.62172
93.832,13.96464,-0.04808817,2.5474,0.62168
94.432,13.99027,-0.04945452,2.57276,0.62163
95.032,14.01581,-0.04816307,2.5866,0.62159
95.632,14.0413,-0.04943291,2.59603,0.62154
96.232,14.0667,-0.0508473,2.61425,0.6215
96.832,14.092,-0.04945365,2.6422,0.62145
97.432,14.1171,-0.04930939,2.64546,0.6214
98.032,14.1421,-0.04831768,2.66346,0.62136
98.632,14.1669,-0.04946503,2.67544,0.62131
99.232,14.19154,-0.04946702,2.69308,0.62126
99.832,14.2158,-0.04999015,2.70571,0.62121
100.432,14.2404,-0.04976501,2.70727,0.62116
101.032,14.26491,-0.04947266,2.7175,0.62111
101.632,14.2893,-0.0494749,2.72965,0.62106
102.232,14.31379,-0.05043524,2.73451,0.62101
102.832,14.33784,-0.05077419,2.74738,0.62096
103.432,14.36166,-0.05078003,2.75745,0.62091
104.032,14.3856,-0.05077342,2.76815,0.62085
104.632,14.4093,-0.05205652,2.76824,0.6208
105.232,14.433,-0.05214052,2.77557,0.62075
105.832,14.4566,-0.05385958,2.79525,0.62069
106.432,14.48005,-0.0547311,2.7905,0.62064
107.032,14.50349,-0.05609238,2.79741,0.62058
107.632,14.5268,-0.05606696,2.81217,0.62053
108.232,14.5501,-0.05703661,2.80367,0.62047
108.832,14.57327,-0.05746515,2.82246,0.62041
109.432,14.59629,-0.05747171,2.82764,0.62036
110.032,14.61914,-0.05748202,2.83844,0.6203
110.632,14.6421,-0.05695588,2.83343,0.62024
111.232,14.66497,-0.05679204,2.84603,0.62018
111.832,14.68774,-0.05582136,2.8442,0.62012
112.432,14.71045,-0.05583204,2.85119,0.62007
113.032,14.733,-0.0560751,2.85351,0.62001
113.632,14.75545,-0.05713097,2.86386,0.61994
114.232,14.77779,-0.05637358,2.84882,0.61988
114.832,14.8002,-0.05583079,2.87273,0.61982
115.432,14.82249,-0.05593556,2.86543,0.61976
116.032,14.8447,-0.05720844,2.86926,0.6197
116.632,14.86682,-0.05763345,2.85505,0.61964
117.232,14.8887,-0.05757006,2.85179,0.61957
117.832,14.91068,-0.05758032,2.86562,0.61951
118.432,14.9325,-0.05758132,2.85845,0.61944
119.032,14.9543,-0.05760978,2.86899,0.61938
119.632,14.97609,-0.05722044,2.86836,0.61931
120.232,14.9978,-0.05722709,2.87269,0.61925
120.832,15.0194,-0.05632209,2.8858,0.61918
121.432,15.04093,-0.05594526,2.88103,0.61911
122.032,15.0623,-0.05612102,2.89014,0.61905
122.632,15.0836,-0.05725557,2.89674,0.61898
123.232,15.105,-0.05725035,2.88824,0.61891
123.832,15.1262,-0.05724971,2.895,0.61884
124.432,15.1474,-0.05724597,2.91027,0.61877
125.032,15.1685,-0.05848928,2.90168,0.6187
125.632,15.18951,-0.05702311,2.90453,0.61863
126.232,15.21049,-0.05857659,2.89879,0.61856
126.832,15.23134,-0.05824188,2.90565,0.61849
127.432,15.25213,-0.05855081,2.90079,0.61842
128.032,15.27297,-0.05857627,2.90714,0.61835
128.632,15.29371,-0.05890651,2.91005,0.61828
129.232,15.3145,-0.05953375,2.91665,0.6182
129.832,15.33505,-0.05981631,2.9306,0.61813
130.432,15.35552,-0.0609283,2.94391,0.61806
131.032,15.376,-0.06120894,2.94086,0.61798
131.632,15.3964,-0.06223497,2.95027,0.61791
132.232,15.41669,-0.06228582,2.96088,0.61783
132.832,15.43704,-0.0608239,2.9885,0.61776
133.432,15.4573,-0.06081754,3.01307,0.61768
134.032,15.47744,-0.05951411,3.02356,0.6176
134.632,15.4976,-0.06066462,3.02378,0.61753
135.232,15.51774,-0.06075389,3.02197,0.61745
135.832,15.53788,-0.06075597,3.04334,0.61737
136.432,15.5579,-0.06070973,3.054,0.61729
137.032,15.5779,-0.06172016,3.05639,0.61721
137.632,15.5978,-0.06173182,3.06509,0.61713
138.232,15.61757,-0.06122769,3.06772,0.61705
138.832,15.6374,-0.06110055,3.08247,0.61697
139.432,15.6571,-0.06109861,3.08294,0.61689
140.032,15.67673,-0.0613033,3.07608,0.61681
140.632,15.6964,-0.06098534,3.09305,0.61673
141.232,15.7161,-0.06089627,3.09611,0.61665
141.832,15.7357,-0.06003888,3.10928,0.61656
142.432,15.7552,-0.06076717,3.10705,0.61648
143.032,15.7747,-0.06076055,3.11849,0.6164
143.632,15.7942,-0.06076015,3.11043,0.61631
144.232,15.81356,-0.06076135,3.12214,0.61623
144.832,15.8329,-0.06078309,3.13114,0.61614
145.432,15.85229,-0.06216358,3.14917,0.61606
146.032,15.87166,-0.06208507,3.15384,0.61597
146.632,15.8908,-0.06208034,3.17096,0.61589
147.232,15.91005,-0.06208009,3.19153,0.6158
147.832,15.9293,-0.06206281,3.19257,0.61571
148.432,15.9483,-0.06213521,3.21008,0.61562
149.032,15.9674,-0.06208619,3.22568,0.61554
149.632,15.98661,-0.06208061,3.22456,0.61545
150.232,16.00562,-0.06208031,3.23106,0.61536
150.832,16.0246,-0.06208328,3.25557,0.61527
151.432,16.04356,-0.06211681,3.2733,0.61518
152.032,16.0625,-0.06121011,3.27548,0.61509
152.632,16.08141,-0.06074348,3.29335,0.615
153.232,16.1004,-0.06176984,3.31281,0.61491
153.832,16.11917,-0.06207033,3.31794,0.61481
154.432,16.13801,-0.06205372,3.34198,0.61472
155.032,16.15689,-0.06157814,3.35517,0.61463
155.632,16.17568,-0.06198742,3.36124,0.61454
156.232,16.19449,-0.06207455,3.37613,0.61444
156.832,16.21329,-0.0620796,3.38607,0.61435
157.432,16.23199,-0.06207997,3.39428,0.61425
158.032,16.25067,-0.06207999,3.40524,0.61416
158.632,16.26931,-0.06208008,3.41168,0.61406
159.232,16.28793,-0.06208264,3.42182,0.61397
159.832,16.30655,-0.06212487,3.44521,0.61387
160.432,16.3251,-0.0609221,3.46145,0.61378
161.032,16.3437,-0.06198651,3.47149,0.61368
161.632,16.36219,-0.06209053,3.48759,0.61358
162.232,16.38073,-0.06212711,3.48937,0.61348
162.832,16.3993,-0.06339664,3.51139,0.61339
163.432,16.41776,-0.06339904,3.51718,0.61329
164.032,16.43615,-0.063398,3.52619,0.61319
164.632,16.45458,-0.06334498,3.54304,0.61309
165.232,16.47297,-0.06198633,3.56622,0.61299
165.832,16.4913,-0.06207583,3.57534,0.61289
166.432,16.5097,-0.06208001,3.57656,0.61279
167.032,16.52808,-0.06207462,3.59544,0.61269
167.632,16.5464,-0.06198369,3.60343,0.61258
168.232,16.56474,-0.06331597,3.61989,0.61248
168.832,16.58304,-0.06338817,3.61346,0.61238
169.432,16.60129,-0.0633902,3.63252,0.61228
170.032,16.61954,-0.06338892,3.63647,0.61217
170.632,16.63775,-0.06333754,3.65697,0.61207
171.232,16.65587,-0.06431058,3.67598,0.61196
171.832,16.67403,-0.06441713,3.66947,0.61186
172.432,16.69219,-0.06354005,3.68611,0.61175
173.032,16.71031,-0.0630724,3.70341,0.61165
173.632,16.7285,-0.06306896,3.70478,0.61154
174.232,16.7466,-0.0630704,3.72327,0.61144
174.832,16.76463,-0.06310896,3.73123,0.61133
175.432,16.7825,-0.06435883,3.74475,0.61122
176.032,16.8005,-0.06304785,3.76184,0.61111
176.632,16.81847,-0.06306472,3.76992,0.61101
177.232,16.83644,-0.06317413,3.7854,0.6109
177.832,16.8544,-0.06447462,3.79519,0.61079
178.432,16.87245,-0.0643862,3.81012,0.61068
179.032,16.89034,-0.06438003,3.83144,0.61057
179.632,16.9082,-0.06438329,3.8323,0.61046
180.232,16.92608,-0.06451581,3.8329,0.61035
180.832,16.9439,-0.06543193,3.83555,0.61024
181.432,16.96173,-0.06537326,3.85328,0.61013
182.032,16.97952,-0.0653699,3.86808,0.61002
182.632,16.9973,-0.06536979,3.8837,0.6099
183.232,17.01491,-0.06536762,3.89431,0.60979
183.832,17.03247,-0.06535248,3.91117,0.60968
184.432,17.05017,-0.06570364,3.91006,0.60956
185.032,17.06793,-0.06568447,3.92312,0.60945
185.632,17.08556,-0.0665199,3.94727,0.60934
186.232,17.10334,-0.06818174,3.93467,0.60922
186.832,17.12108,-0.06832806,3.93956,0.60911
187.432,17.13862,-0.06854167,3.95855,0.60899
188.032,17.15619,-0.06912673,3.9693,0.60888
188.632,17.17372,-0.06833014,3.99237,0.60876
189.232,17.1912,-0.06833,4.00006,0.60864
189.832,17.2087,-0.06833,4.01521,0.60853
190.432,17.2262,-0.06833,4.02384,0.60841
191.032,17.24365,-0.06833,4.03463,0.60829
191.632,17.26106,-0.06833,4.04812,0.60817
192.232,17.2785,-0.06833,4.06405,0.60805
192.832,17.29597,-0.06833,4.06592,0.60793
193.432,17.3134,-0.06833,4.07213,0.60782
194.032,17.33075,-0.06833001,4.08752,0.6077
194.632,17.34812,-0.06832963,4.10878,0.60758
195.232,17.36544,-0.06832345,4.12432,0.60746
195.832,17.3827,-0.06892803,4.14217,0.60733
196.432,17.40004,-0.06964937,4.16266,0.60721
197.032,17.41732,-0.06965378,4.15535,0.60709
197.632,17.43457,-0.06965049,4.18283,0.60697
198.232,17.45184,-0.06965002,4.19484,0.60685
198.832,17.46911,-0.06965003,4.2091,0.60672
199.432,17.4863,-0.069651,4.23042,0.6066
200.032,17.5035,-0.06965982,4.23548,0.60648
200.632,17.52075,-0.06967604,4.2551,0.60635
201.232,17.53795,-0.07088639,4.25868,0.60623
201.832,17.5551,-0.07095719,4.27486,0.6061
202.432,17.5724,-0.07096917,4.28717,0.60598
203.032,17.58955,-0.07096991,4.31144,0.60585
203.632,17.60652,-0.07096399,4.32339,0.60573
204.232,17.62365,-0.07166247,4.33219,0.6056
204.832,17.64074,-0.07227007,4.36064,0.60547
205.432,17.65785,-0.07228302,4.37675,0.60535
206.032,17.67492,-0.07228095,4.38314,0.60522
206.632,17.6921,-0.07228289,4.3684,0.60509
207.232,17.70925,-0.07200866,4.3976,0.60496
207.832,17.72629,-0.07088141,4.4085,0.60483
208.432,17.74333,-0.07162144,4.42572,0.60471
209.032,17.7604,-0.07227514,4.44846,0.60458
209.632,17.77743,-0.07224584,4.45214,0.60445
210.232,17.7944,-0.07163518,4.46329,0.60432
210.832,17.81149,-0.06902248,4.48187,0.60419
211.432,17.82852,-0.06733528,4.49671,0.60405
212.032,17.84548,-0.06753652,4.52047,0.60392
212.632,17.86244,-0.07245544,4.53963,0.60379
213.232,17.87939,-0.07785902,4.53929,0.60366
213.832,17.89633,-0.08107601,4.56291,0.60353
214.432,17.91324,-0.0821552,4.57246,0.6034
215.032,17.9302,-0.08102919,4.58727,0.60326
215.632,17.94715,-0.07917047,4.60766,0.60313
216.232,17.96405,-0.07907834,4.61916,0.60299
216.832,17.98102,-0.07904371,4.63931,0.60286
217.432,17.99792,-0.07785316,4.65877,0.60273
218.032,18.0149,-0.07778249,4.66553,0.60259
218.632,18.0318,-0.07776845,4.67101,0.60246
219.232,18.0487,-0.07778482,4.69107,0.60232
219.832,18.06555,-0.07827649,4.70755,0.60218
220.432,18.0824,-0.07920333,4.75035,0.60205
221.032,18.09918,-0.07945641,4.76227,0.60191
221.632,18.1159,-0.08067016,4.77577,0.60177
222.232,18.13267,-0.08191848,4.79794,0.60164
222.832,18.14944,-0.08181308,4.79238,0.6015
223.432,18.16624,-0.08146101,4.8135,0.60136
224.032,18.18304,-0.08042042,4.82454,0.60122
224.632,18.19985,-0.0811463,4.85227,0.60108
225.232,18.21661,-0.08212566,4.86434,0.60094
225.832,18.23336,-0.08166025,4.87707,0.60081
226.432,18.25009,-0.08204163,4.89013,0.60067
227.032,18.26685,-0.08202758,4.90133,0.60053
227.632,18.28359,-0.08273548,4.90092,0.60038
228.232,18.30034,-0.08335326,4.9099,0.60024
228.832,18.31713,-0.08371717,4.90381,0.6001
229.432,18.33386,-0.08593936,4.91975,0.59996
230.032,18.35059,-0.08621016,4.94963,0.59982
230.632,18.3673,-0.08730826,4.95416,0.59968
231.232,18.38404,-0.08749114,4.95767,0.59953
231.832,18.40073,-0.08791925,4.97941,0.59939
232.432,18.41741,-0.08903025,4.99632,0.59925
233.032,18.4341,-0.08931764,5.01963,0.5991
233.632,18.45076,-0.09026237,5.0195,0.59896
234.232,18.46741,-0.09039671,5.02451,0.59882
234.832,18.48402,-0.09193129,5.03986,0.59867
235.432,18.50068,-0.09182626,5.05172,0.59853
236.032,18.51737,-0.09300687,5.05486,0.59838
236.632,18.534,-0.093132,5.05789,0.59823
237.232,18.55069,-0.09317459,5.06135,0.59809
237.832,18.5673,-0.0946866,5.06146,0.59794
238.432,18.58389,-0.09647303,5.07756,0.5978
239.032,18.60046,-0.09820958,5.08747,0.59765
239.632,18.61705,-0.09929805,5.08133,0.5975
240.232,18.6337,-0.10058,5.07467,0.59735
240.832,18.65024,-0.10192,5.07939,0.59721
241.432,18.66685,-0.10407,5.07552,0.59706
242.032,18.68344,-0.10557,5.07407,0.59691
242.632,18.69998,-0.10738,5.0653,0.59676
243.232,18.71649,-0.10805,5.08362,0.59661
243.832,18.73301,-0.10899,5.08031,0.59646
244.432,18.74952,-0.10957,5.08455,0.59631
245.032,18.76612,-0.10926,5.08357,0.59616
245.632,18.78271,-0.11092,5.04433,0.59601
246.232,18.79925,-0.11261,5.0456,0.59586
246.832,18.81578,-0.11464,5.05625,0.59571
247.432,18.83235,-0.11584,5.0537,0.59556
248.032,18.84885,-0.11716,5.0609,0.5954
248.632,18.86533,-0.11874,5.04532,0.59525
249.232,18.8818,-0.12046,5.054,0.5951
249.832,18.89829,-0.12238,5.05102,0.59495
250.432,18.91475,-0.12401,5.02892,0.59479
251.032,18.93123,-0.1255,5.0407,0.59464
251.632,18.9477,-0.12726,5.0356,0.59448
252.232,18.96412,-0.12881,5.02367,0.59433
252.832,18.9805,-0.12987,5.01665,0.59418
253.432,18.99699,-0.13174,5.00213,0.59402
254.032,19.01342,-0.13364,5.00017,0.59387
254.632,19.0299,-0.13522,4.97969,0.59371
255.232,19.04634,-0.13622,4.97083,0.59355
255.832,19.06279,-0.1381,4.96538,0.5934
256.432,19.07929,-0.13989,4.95657,0.59324
257.032,19.09575,-0.1401,4.95934,0.59309
257.632,19.11219,-0.14068,4.93391,0.59293
258.232,19.1286,-0.14249,4.91925,0.59277
258.832,19.14511,-0.14158,4.90493,0.59261
259.432,19.16156,-0.13893,4.90966,0.59246
260.032,19.17793,-0.1362,4.90803,0.5923
260.632,19.1944,-0.13842,4.89804,0.59214
261.232,19.2108,-0.1479,4.90853,0.59198
261.832,19.22721,-0.15876,4.90183,0.59182
262.432,19.2436,-0.16613,4.89307,0.59166
263.032,19.25999,-0.16496,4.87428,0.5915
263.632,19.27638,-0.16298,4.85787,0.59134
264.232,19.29277,-0.16272,4.86077,0.59118
264.832,19.30913,-0.16278,4.87292,0.59102
265.432,19.32551,-0.16309,4.855,0.59086
266.032,19.3419,-0.16476,4.86889,0.5907
266.632,19.35827,-0.16747,4.86516,0.59054
267.232,19.37461,-0.16998,4.86849,0.59037
267.832,19.39099,-0.17397,4.86659,0.59021
268.432,19.40738,-0.17605,4.87687,0.59005
269.032,19.42377,-0.1784,4.86393,0.58989
269.632,19.44015,-0.181,4.89441,0.58972
270.232,19.4565,-0.18262,4.88664,0.58956
270.832,19.47286,-0.18475,4.89252,0.5894
271.432,19.48925,-0.18702,4.90051,0.58923
272.032,19.50561,-0.18872,4.914,0.58907
272.632,19.52195,-0.19117,4.90042,0.58891
273.232,19.53828,-0.19365,4.91662,0.58874
273.832,19.55462,-0.19538,4.92446,0.58858
274.432,19.57094,-0.19775,4.92639,0.58841
275.032,19.58726,-0.20007,4.94346,0.58824
275.632,19.60364,-0.20313,4.93263,0.58808
276.232,19.62001,-0.2062,4.94428,0.58791
276.832,19.6364,-0.20919,4.95402,0.58775
277.432,19.6528,-0.21117,4.95011,0.58758
278.032,19.66923,-0.2139,4.9473,0.58741
278.632,19.6856,-0.21677,4.95252,0.58724
279.232,19.702,-0.2192,4.95204,0.58708
279.832,19.7183,-0.22287,4.95388,0.58691
280.432,19.73469,-0.22432,4.9561,0.58674
281.032,19.75103,-0.22663,4.96495,0.58657
281.632,19.76736,-0.22942,4.965,0.5864
282.232,19.78371,-0.23192,4.96608,0.58623
282.832,19.80009,-0.23441,4.97682,0.58607
283.432,19.81644,-0.23751,4.9807,0.5859
284.032,19.83282,-0.24048,4.98382,0.58573
284.632,19.84917,-0.24404,4.99047,0.58556
285.232,19.86554,-0.2481,4.98568,0.58539
285.832,19.88186,-0.25137,4.97402,0.58521
286.432,19.8982,-0.25491,5.00172,0.58504
287.032,19.9146,-0.2586,4.99064,0.58487
287.632,19.931,-0.26206,4.98422,0.5847
288.232,19.94735,-0.26738,4.98661,0.58453
288.832,19.9637,-0.27104,4.98992,0.58436
289.432,19.98006,-0.2751,4.98228,0.58419
290.032,19.9964,-0.27972,4.95644,0.58401
290.632,20.01278,-0.28336,4.94596,0.58384
291.232,20.02911,-0.28767,4.94512,0.58367
291.832,20.0455,-0.2921,4.94238,0.58349
292.432,20.06185,-0.29651,4.93627,0.58332
293.032,20.07822,-0.3024,4.93766,0.58315
293.632,20.09457,-0.30616,4.93009,0.58297
294.232,20.11092,-0.31,4.93957,0.5828
294.832,20.12733,-0.31393,4.90088,0.58262
295.432,20.1437,-0.31822,4.87916,0.58245
296.032,20.16006,-0.32557,4.87422,0.58227
296.632,20.17644,-0.33039,4.87361,0.5821
297.232,20.19281,-0.3361,4.87701,0.58192
297.832,20.2091,-0.34154,4.8668,0.58175
298.432,20.22545,-0.34657,4.86712,0.58157
299.032,20.24178,-0.35168,4.85541,0.58139
299.632,20.2581,-0.35589,4.85031,0.58122
300.232,20.27444,-0.36188,4.83636,0.58104
300.832,20.29081,-0.36719,4.81669,0.58086
301.432,20.30718,-0.37167,4.81715,0.58069
302.032,20.32351,-0.37704,4.80146,0.58051
302.632,20.33987,-0.38199,4.79477,0.58033
303.232,20.35622,-0.3879,4.78146,0.58015
303.832,20.37257,-0.39391,4.79568,0.57997
304.432,20.3889,-0.40045,4.78297,0.5798
305.032,20.4053,-0.40834,4.77769,0.57962
305.632,20.42165,-0.41394,4.75806,0.57944
306.232,20.43796,-0.42185,4.73501,0.57926
306.832,20.45429,-0.42927,4.74081,0.57908
307.432,20.4707,-0.4361,4.75276,0.5789
308.032,20.487,-0.4429,4.73744,0.57872
308.632,20.5034,-0.44871,4.71852,0.57854
309.232,20.51979,-0.4561,4.71591,0.57836
309.832,20.5362,-0.46177,4.70852,0.57818
310.432,20.55254,-0.46806,4.70653,0.578
311.032,20.56889,-0.47559,4.68866,0.57781
311.632,20.5852,-0.48304,4.68881,0.57763
312.232,20.6015,-0.49171,4.69587,0.57745
312.832,20.6178,-0.49821,4.70507,0.57727
313.432,20.63413,-0.5064,4.72885,0.57709
314.032,20.65044,-0.51269,4.71055,0.5769
314.632,20.6668,-0.51979,4.72437,0.57672
315.232,20.68316,-0.52809,4.71379,0.57654
315.832,20.69949,-0.53437,4.69363,0.57636
316.432,20.71582,-0.5433,4.69151,0.57617
317.032,20.73224,-0.55148,4.69408,0.57599
317.632,20.7486,-0.56078,4.71361,0.57581
318.232,20.765,-0.57069,4.71506,0.57562
318.832,20.78133,-0.57805,4.72255,0.57544
319.432,20.7977,-0.58762,4.73468,0.57525
320.032,20.81405,-0.59504,4.71991,0.57507
320.632,20.83025,-0.60397,4.74981,0.57488
321.232,20.84655,-0.61374,4.73407,0.5747
321.832,20.86293,-0.62236,4.74472,0.57451
322.432,20.87931,-0.6329,4.74791,0.57433
323.032,20.89568,-0.64193,4.73949,0.57414
323.632,20.91218,-0.65151,4.75858,0.57395
324.232,20.92868,-0.66068,4.77216,0.57377
324.832,20.94503,-0.66974,4.7904,0.57358
325.432,20.96144,-0.6815,4.80008,0.57339
326.032,20.9778,-0.69038,4.81454,0.57321
326.632,20.9942,-0.70086,4.82439,0.57302
327.232,21.01063,-0.7087,4.82823,0.57283
327.832,21.02704,-0.7176,4.82054,0.57265
328.432,21.04345,-0.72937,4.8462,0.57246
329.032,21.05986,-0.73928,4.86997,0.57227
329.632,21.07626,-0.7518,4.87404,0.57208
330.232,21.0927,-0.76148,4.89204,0.57189
330.832,21.1091,-0.77144,4.89966,0.5717
331.432,21.12552,-0.7825,4.92308,0.57152
332.032,21.1419,-0.79205,4.94301,0.57133
332.632,21.15831,-0.80486,4.96006,0.57114
333.232,21.17472,-0.8151,4.95408,0.57095
333.832,21.19114,-0.8262,4.95741,0.57076
334.432,21.20758,-0.83769,4.98779,0.57057
335.032,21.22404,-0.84809,4.99869,0.57038
335.632,21.24051,-0.86082,5.03008,0.57019
336.232,21.257,-0.86996,5.03677,0.57
336.832,21.27351,-0.88203,5.04963,0.56981
337.432,21.2899,-0.89356,5.06544,0.56962
338.032,21.3063,-0.9052,5.0768,0.56943
338.632,21.32271,-0.9191,5.09432,0.56923
339.232,21.33919,-0.93006,5.11976,0.56904
339.832,21.35564,-0.94455,5.13011,0.56885
340.432,21.3721,-0.95618,5.13478,0.56866
341.032,21.38864,-0.96818,5.15679,0.56847
341.632,21.40522,-0.98098,5.16907,0.56827
342.232,21.42171,-0.99181,5.17779,0.56808
342.832,21.43815,-1.00593,5.20047,0.56789
343.432,21.45466,-1.01718,5.22005,0.5677
344.032,21.47114,-1.03115,5.24026,0.5675
344.632,21.48765,-1.04591,5.26742,0.56731
345.232,21.50416,-1.05834,5.27356,0.56712
345.832,21.52078,-1.07352,5.28036,0.56692
346.432,21.53731,-1.08322,5.30994,0.56673
347.032,21.55384,-1.09683,5.32724,0.56654
347.632,21.57039,-1.10949,5.35256,0.56634
348.232,21.58691,-1.12189,5.37203,0.56615
348.832,21.60341,-1.13706,5.38486,0.56595
349.432,21.61991,-1.14921,5.40481,0.56576
350.032,21.63644,-1.16502,5.42296,0.56556
350.632,21.65299,-1.17781,5.43493,0.56537
351.232,21.66959,-1.19188,5.44074,0.56517
351.832,21.68615,-1.2069,5.48719,0.56498
352.432,21.70275,-1.22046,5.51069,0.56478
353.032,21.71933,-1.23742,5.5436,0.56458
353.632,21.736,-1.24971,5.55662,0.56439
354.232,21.75251,-1.26455,5.575,0.56419
354.832,21.7691,-1.28007,5.59936,0.564
355.432,21.78565,-1.29391,5.62249,0.5638
356.032,21.80224,-1.31,5.64538,0.5636
356.632,21.81876,-1.32366,5.67848,0.56341
357.232,21.83539,-1.34028,5.70747,0.56321
357.832,21.852,-1.35479,5.7357,0.56301
358.432,21.86864,-1.3699,5.76075,0.56281
359.032,21.88521,-1.38601,5.78084,0.56262
359.632,21.90188,-1.39979,5.81469,0.56242
360.232,21.91853,-1.41764,5.86666,0.56222
360.832,21.93515,-1.432,5.90761,0.56202
361.432,21.95166,-1.44827,5.95175,0.56182
362.032,21.9683,-1.46431,5.96287,0.56163
362.632,21.985,-1.47927,6.00837,0.56143
363.232,22.0017,-1.49747,6.05951,0.56123
363.832,22.01839,-1.51162,6.08539,0.56103
364.432,22.03515,-1.52891,6.12472,0.56083
365.032,22.05193,-1.54496,6.17069,0.56063
365.632,22.06854,-1.56163,6.20575,0.56043
366.232,22.08515,-1.58028,6.25708,0.56023
366.832,22.1018,-1.59442,6.30271,0.56003
367.432,22.1185,-1.61432,6.33218,0.55983
368.032,22.13522,-1.6294,6.37552,0.55963
368.632,22.15195,-1.64713,6.43955,0.55943
369.232,22.1687,-1.66408,6.46787,0.55923
369.832,22.1855,-1.68036,6.52066,0.55903
370.432,22.2022,-1.70056,6.56312,0.55883
371.032,22.21893,-1.71682,6.60138,0.55863
371.632,22.23566,-1.73802,6.64585,0.55843
372.232,22.25241,-1.75638,6.69478,0.55823
372.832,22.2692,-1.77627,6.72018,0.55803
373.432,22.28592,-1.79648,6.7446,0.55782
374.032,22.30268,-1.81345,6.79118,0.55762
374.632,22.31944,-1.83474,6.82653,0.55742
375.232,22.33619,-1.84995,6.85308,0.55722
375.832,22.3529,-1.87006,6.87882,0.55702
376.432,22.36972,-1.88973,6.90399,0.55681
377.032,22.38649,-1.90933,6.93776,0.55661
377.632,22.40324,-1.931,6.95405,0.55641
378.232,22.42002,-1.94749,6.9668,0.55621
378.832,22.43681,-1.96909,6.97438,0.556
379.432,22.4536,-1.98698,6.97406,0.5558
380.032,22.47035,-2.00698,6.95236,0.5556
380.632,22.48715,-2.02822,6.94571,0.55539
381.232,22.504,-2.04646,6.91428,0.55519
381.832,22.5208,-2.07046,6.88038,0.55499
382.432,22.53765,-2.0899,6.84299,0.55478
383.032,22.55446,-2.11184,6.794,0.55458
383.632,22.57132,-2.1297,6.72592,0.55438
384.232,22.58821,-2.14869,6.63613,0.55417
384.832,22.6051,-2.16995,6.56281,0.55397
385.432,22.622,-2.18611,6.46964,0.55376
386.032,22.63887,-2.20709,6.35094,0.55356
386.632,22.65578,-2.2236,6.23063,0.55335
387.232,22.67267,-2.24375,6.10284,0.55315
387.832,22.68956,-2.26179,5.95328,0.55294
388.432,22.70647,-2.27843,5.81042,0.55274
389.032,22.72336,-2.29756,5.63431,0.55253
389.632,22.7403,-2.3139,5.4498,0.55233
390.232,22.7572,-2.33285,5.23876,0.55212
390.832,22.77417,-2.34702,5.02109,0.55192
391.432,22.79114,-2.36236,4.80418,0.55171
392.032,22.8081,-2.3768,4.58089,0.55151
392.632,22.8251,-2.38934,4.32504,0.5513
393.232,22.84214,-2.40344,4.07955,0.55109
393.832,22.85913,-2.41314,3.83362,0.55089
394.432,22.8761,-2.42617,3.58961,0.55068
395.032,22.89312,-2.43626,3.34237,0.55047
395.632,22.91016,-2.44755,3.09352,0.55027
396.232,22.92717,-2.45773,2.85309,0.55006
396.832,22.9442,-2.46548,2.62394,0.54985
397.432,22.96132,-2.47482,2.4137,0.54965
398.032,22.97833,-2.48219,2.19572,0.54944
398.632,22.99535,-2.49065,1.9954,0.54923
399.232,23.0124,-2.49634,1.80969,0.54902
399.832,23.0294,-2.50151,1.64062,0.54882
400.432,23.04642,-2.5069,1.47945,0.54861
401.032,23.06345,-2.51149,1.33884,0.5484
401.632,23.0805,-2.51765,1.2068,0.54819
402.232,23.0975,-2.52114,1.08252,0.54799
402.832,23.1146,-2.52629,0.96613,0.54778
403.432,23.13167,-2.53014,0.86675,0.54757
404.032,23.14869,-2.53411,0.78758,0.54736
404.632,23.16574,-2.53644,0.68981,0.54715
405.232,23.18279,-2.54031,0.64991,0.54694
405.832,23.19979,-2.54456,0.56762,0.54674
406.432,23.21688,-2.54694,0.52247,0.54653
407.032,23.23398,-2.5491,0.46512,0.54632
407.632,23.2511,-2.55131,0.40872,0.54611
408.232,23.26816,-2.55289,0.35124,0.5459
408.832,23.2852,-2.55606,0.33164,0.54569
409.432,23.3023,-2.56063,0.29603,0.54548
410.032,23.31936,-2.5635,0.24628,0.54527
410.632,23.33644,-2.56574,0.23041,0.54506
411.232,23.35357,-2.56708,0.19853,0.54485
411.832,23.3707,-2.56936,0.17028,0.54464
412.432,23.3878,-2.57145,0.14049,0.54443
413.032,23.405,-2.57387,0.11486,0.54422
413.632,23.42213,-2.57726,0.07939767,0.54401
414.232,23.4392,-2.57983,0.06462832,0.5438
414.832,23.45641,-2.58145,0.02736531,0.54359
415.432,23.47355,-2.58336,0.02250544,0.54338
416.032,23.4907,-2.58503,-0.01246936,0.54317
416.632,23.50788,-2.58683,-0.04106477,0.54296
417.232,23.52506,-2.58932,-0.07212852,0.54275
417.832,23.54225,-2.59151,-0.09753336,0.54254
418.432,23.5594,-2.5937,-0.11475,0.54233
419.032,23.5766,-2.59621,-0.14177,0.54212
419.632,23.59376,-2.59897,-0.18366,0.54191
420.232,23.611,-2.60164,-0.20078,0.54169
420.832,23.62825,-2.60424,-0.20491,0.54148
421.432,23.64549,-2.60596,-0.23572,0.54127
422.032,23.6627,-2.60761,-0.2478,0.54106
422.632,23.67998,-2.61019,-0.27645,0.54085
423.232,23.6972,-2.6121,-0.30061,0.54064
423.832,23.71442,-2.61394,-0.32061,0.54043
424.432,23.73164,-2.61649,-0.33526,0.54021
425.032,23.7489,-2.61944,-0.35793,0.54
425.632,23.7662,-2.62112,-0.39919,0.53979
426.232,23.78347,-2.62287,-0.41605,0.53958
426.832,23.80077,-2.62476,-0.43374,0.53937
427.432,23.8181,-2.62723,-0.45675,0.53915
428.032,23.83533,-2.62888,-0.47294,0.53894
428.632,23.8526,-2.6304,-0.50569,0.53873
429.232,23.8699,-2.63223,-0.53945,0.53852
429.832,23.88717,-2.63436,-0.56144,0.5383
430.432,23.90447,-2.63704,-0.59114,0.53809
431.032,23.92182,-2.64069,-0.60773,0.53788
431.632,23.93916,-2.64327,-0.62303,0.53766
432.232,23.95648,-2.64512,-0.6588,0.53745
432.832,23.97379,-2.64646,-0.67144,0.53724
433.432,23.99113,-2.64794,-0.68652,0.53703
434.032,24.0085,-2.65013,-0.72042,0.53681
434.632,24.0259,-2.65228,-0.73119,0.5366
435.232,24.04325,-2.65437,-0.76747,0.53639
435.832,24.06062,-2.65653,-0.77654,0.53617
436.432,24.07798,-2.65817,-0.81162,0.53596
437.032,24.0954,-2.65914,-0.81544,0.53575
437.632,24.11274,-2.65996,-0.85055,0.53553
438.232,24.13016,-2.66186,-0.85966,0.53532
438.832,24.1476,-2.66343,-0.88446,0.5351
439.432,24.16499,-2.66432,-0.91418,0.53489
440.032,24.1824,-2.66591,-0.93803,0.53468
440.632,24.19987,-2.66799,-0.93908,0.53446
441.232,24.2172,-2.66974,-0.96112,0.53425
441.832,24.23465,-2.67109,-0.98074,0.53403
442.432,24.2521,-2.67252,-1.00503,0.53382
443.032,24.26957,-2.67456,-1.01634,0.53361
443.632,24.28698,-2.67612,-1.02809,0.53339
444.232,24.3045,-2.67726,-1.04073,0.53318
444.832,24.322,-2.67795,-1.04294,0.53296
445.432,24.33951,-2.6796,-1.05805,0.53275
446.032,24.357,-2.68044,-1.0606,0.53253
446.632,24.3745,-2.68254,-1.06845,0.53232
447.232,24.39197,-2.6847,-1.07851,0.5321
447.832,24.4095,-2.68737,-1.08585,0.53189
448.432,24.427,-2.68788,-1.09805,0.53167
449.032,24.44454,-2.68938,-1.11436,0.53146
449.632,24.46215,-2.6901,-1.11554,0.53124
450.232,24.4798,-2.69155,-1.11914,0.53103
450.832,24.4973,-2.69381,-1.13145,0.53081
451.432,24.51481,-2.69616,-1.13965,0.5306
452.032,24.53239,-2.69807,-1.14048,0.53038
452.632,24.5499,-2.70023,-1.13968,0.53017
453.232,24.5674,-2.70204,-1.14928,0.52995
453.832,24.585,-2.70347,-1.13938,0.52974
454.432,24.6026,-2.70416,-1.13699,0.52952
455.032,24.6202,-2.70585,-1.13003,0.52931
455.632,24.63779,-2.70679,-1.12756,0.52909
456.232,24.6554,-2.70828,-1.12578,0.52888
456.832,24.67297,-2.71041,-1.12166,0.52866
457.432,24.69059,-2.71206,-1.1099,0.52844
458.032,24.70828,-2.71383,-1.10599,0.52823
458.632,24.72595,-2.71547,-1.09997,0.52801
459.232,24.74364,-2.71586,-1.08647,0.5278
459.832,24.7613,-2.71726,-1.08203,0.52758
460.432,24.77894,-2.719,-1.07777,0.52736
461.032,24.79658,-2.7192,-1.07985,0.52715
461.632,24.81421,-2.72053,-1.06538,0.52693
462.232,24.83181,-2.72101,-1.05263,0.52672
462.832,24.8495,-2.72247,-1.05501,0.5265
463.432,24.86727,-2.72412,-1.04772,0.52628
464.032,24.88499,-2.72592,-1.02598,0.52607
464.632,24.9027,-2.72692,-1.02264,0.52585
465.232,24.9205,-2.72805,-1.01766,0.52564
465.832,24.93818,-2.72952,-1.00192,0.52542
466.432,24.95589,-2.73103,-0.99549,0.5252
467.032,24.97363,-2.73147,-0.95464,0.52499
467.632,24.9914,-2.73301,-0.9488,0.52477
468.232,25.00914,-2.73572,-0.9357,0.52455
468.832,25.02686,-2.73741,-0.92586,0.52434
469.432,25.0446,-2.73909,-0.91102,0.52412
470.032,25.06237,-2.74019,-0.89951,0.5239
470.632,25.08018,-2.74107,-0.89133,0.52369
471.232,25.0979,-2.7421,-0.87319,0.52347
471.832,25.11574,-2.74364,-0.8608,0.52325
472.432,25.13348,-2.74409,-0.84331,0.52304
473.032,25.1513,-2.74572,-0.8109,0.52282
473.632,25.1691,-2.749,-0.81531,0.5226
474.232,25.18693,-2.75052,-0.80387,0.52239
474.832,25.20476,-2.75111,-0.79096,0.52217
475.432,25.2226,-2.75252,-0.78176,0.52195
476.032,25.2405,-2.7547,-0.75661,0.52173
476.632,25.25838,-2.75568,-0.74536,0.52152
477.232,25.27629,-2.7578,-0.72923,0.5213
477.832,25.29419,-2.75859,-0.71494,0.52108
478.432,25.3121,-2.75913,-0.70038,0.52087
479.032,25.32994,-2.75915,-0.68877,0.52065
479.632,25.34783,-2.75953,-0.6733,0.52043
480.232,25.36574,-2.75968,-0.67331,0.52021
480.832,25.38364,-2.76163,-0.66569,0.52
481.432,25.40158,-2.76328,-0.65172,0.51978
482.032,25.41951,-2.76482,-0.63935,0.51956
482.632,25.43743,-2.76479,-0.63333,0.51934
483.232,25.45533,-2.76593,-0.63079,0.51913
483.832,25.4732,-2.76613,-0.6171,0.51891
484.432,25.49118,-2.76695,-0.59905,0.51869
485.032,25.50914,-2.76767,-0.60784,0.51848
485.632,25.52712,-2.76912,-0.5998,0.51826
486.232,25.54508,-2.77159,-0.59218,0.51804
486.832,25.56309,-2.77242,-0.5826,0.51782
487.432,25.58106,-2.7741,-0.5732,0.51761
488.032,25.59905,-2.77431,-0.57491,0.51739
488.632,25.61702,-2.77544,-0.55434,0.51717
489.232,25.63506,-2.77541,-0.56156,0.51695
489.832,25.65308,-2.77563,-0.54961,0.51674
490.432,25.67108,-2.77682,-0.54327,0.51652
491.032,25.68909,-2.77847,-0.52909,0.5163
491.632,25.70712,-2.78011,-0.53738,0.51608
492.232,25.72513,-2.78157,-0.52776,0.51586
492.832,25.74318,-2.78155,-0.53274,0.51565
493.432,25.76124,-2.78161,-0.52689,0.51543
494.032,25.77929,-2.78284,-0.51743,0.51521
494.632,25.79736,-2.78297,-0.51372,0.51499
495.232,25.8154,-2.7845,-0.51225,0.51478
495.832,25.83343,-2.78454,-0.51582,0.51456
496.432,25.85142,-2.78568,-0.52022,0.51434
497.032,25.86949,-2.78438,-0.51057,0.51412
497.632,25.8876,-2.78579,-0.51053,0.51391
498.232,25.90566,-2.78647,-0.51042,0.51369
498.832,25.92376,-2.78738,-0.50765,0.51347
499.432,25.94193,-2.78882,-0.51238,0.51325
500.032,25.96,-2.78997,-0.51305,0.51303
500.632,25.97803,-2.79137,-0.49354,0.51282
501.232,25.99616,-2.79305,-0.49574,0.5126
501.832,26.01427,-2.79297,-0.50367,0.51238
502.432,26.0324,-2.79415,-0.50602,0.51216
503.032,26.0506,-2.79296,-0.49771,0.51195
503.632,26.06881,-2.79421,-0.50329,0.51173
504.232,26.08701,-2.79465,-0.50868,0.51151
504.832,26.10521,-2.79598,-0.5149,0.51129
505.432,26.12337,-2.79775,-0.50798,0.51107
506.032,26.14154,-2.79989,-0.51256,0.51086
506.632,26.1597,-2.80058,-0.50946,0.51064
507.232,26.17786,-2.80183,-0.50458,0.51042
507.832,26.19603,-2.80311,-0.51136,0.5102
508.432,26.21419,-2.80369,-0.5218,0.50998
509.032,26.23237,-2.80479,-0.5136,0.50977
509.632,26.25051,-2.80515,-0.52463,0.50955
510.232,26.2687,-2.80612,-0.53741,0.50933
510.832,26.2869,-2.8061,-0.54721,0.50911
511.432,26.30515,-2.80697,-0.55638,0.5089
512.032,26.32337,-2.80739,-0.55678,0.50868
512.632,26.34165,-2.80742,-0.55348,0.50846
513.232,26.3599,-2.8074,-0.55698,0.50824
513.832,26.3781,-2.80904,-0.55934,0.50802
514.432,26.3963,-2.81018,-0.55685,0.50781
515.032,26.4146,-2.81036,-0.56313,0.50759
515.632,26.4328,-2.81087,-0.56457,0.50737
516.232,26.45105,-2.81081,-0.56355,0.50715
516.832,26.4693,-2.81082,-0.56401,0.50694
517.432,26.48763,-2.81129,-0.57186,0.50672
518.032,26.50585,-2.81251,-0.58814,0.5065
518.632,26.52417,-2.8137,-0.59349,0.50628
519.232,26.5425,-2.81493,-0.61129,0.50606
519.832,26.56083,-2.81488,-0.62286,0.50585
520.432,26.5792,-2.81614,-0.61438,0.50563
521.032,26.59755,-2.81618,-0.61801,0.50541
521.632,26.6159,-2.81618,-0.63468,0.50519
522.232,26.63428,-2.81696,-0.63458,0.50498
522.832,26.65263,-2.81748,-0.63457,0.50476
523.432,26.67098,-2.8175,-0.63978,0.50454
524.032,26.6893,-2.8175,-0.64991,0.50432
524.632,26.70767,-2.81748,-0.66502,0.50411
525.232,26.726,-2.81823,-0.66441,0.50389
525.832,26.74438,-2.81885,-0.66615,0.50367
526.432,26.76278,-2.82069,-0.68032,0.50345
527.032,26.78118,-2.82135,-0.69065,0.50324
527.632,26.7996,-2.82212,-0.69761,0.50302
528.232,26.818,-2.82233,-0.70793,0.5028
528.832,26.83639,-2.82314,-0.70229,0.50258
529.432,26.8548,-2.8231,-0.71503,0.50237
530.032,26.8732,-2.82308,-0.72261,0.50215
530.632,26.89155,-2.82344,-0.71493,0.50193
531.232,26.91,-2.82409,-0.73297,0.50171
531.832,26.9284,-2.82517,-0.73489,0.5015
532.432,26.94683,-2.82677,-0.74829,0.50128
533.032,26.9652,-2.82864,-0.75319,0.50106
533.632,26.9837,-2.83151,-0.76665,0.50084
534.232,27.0021,-2.8332,-0.76946,0.50063
534.832,27.0206,-2.83443,-0.77213,0.50041
535.432,27.03902,-2.83443,-0.79763,0.50019
536.032,27.05755,-2.8337,-0.79224,0.49998
536.632,27.07606,-2.83367,-0.79393,0.49976
537.232,27.09453,-2.83449,-0.81337,0.49954
537.832,27.113,-2.83467,-0.81525,0.49932
538.432,27.1316,-2.83595,-0.82558,0.49911
539.032,27.15007,-2.83725,-0.835,0.49889
539.632,27.1686,-2.83724,-0.8399,0.49867
540.232,27.1872,-2.83725,-0.86515,0.49846
540.832,27.20569,-2.83725,-0.8695,0.49824
541.432,27.22417,-2.83725,-0.88753,0.49802
542.032,27.2427,-2.83721,-0.89185,0.49781
542.632,27.2612,-2.83797,-0.89713,0.49759
543.232,27.2797,-2.83726,-0.91833,0.49737
543.832,27.29823,-2.83725,-0.94591,0.49715
544.432,27.3168,-2.83733,-0.94213,0.49694
545.032,27.33535,-2.83973,-0.94682,0.49672
545.632,27.35391,-2.83987,-0.95028,0.4965
546.232,27.37248,-2.83988,-0.9677,0.49629
546.832,27.391,-2.83986,-0.97099,0.49607
547.432,27.40958,-2.84094,-0.97236,0.49585
548.032,27.42819,-2.84135,-0.98306,0.49564
548.632,27.4468,-2.84289,-0.99816,0.49542
549.232,27.4654,-2.84391,-0.99836,0.49521
549.832,27.484,-2.84431,-1.00065,0.49499
550.432,27.5026,-2.84524,-1.01989,0.49477
551.032,27.5212,-2.84561,-1.02811,0.49456
551.632,27.5398,-2.84589,-1.04314,0.49434
552.232,27.55844,-2.84583,-1.05084,0.49412
552.832,27.5771,-2.84721,-1.06562,0.49391
553.432,27.5957,-2.84723,-1.0776,0.49369
554.032,27.61433,-2.84731,-1.07765,0.49347
554.632,27.63298,-2.84827,-1.08528,0.49326
555.232,27.6517,-2.8482,-1.09924,0.49304
555.832,27.6703,-2.84819,-1.10553,0.49283
556.432,27.68897,-2.8469,-1.12715,0.49261
557.032,27.7076,-2.84716,-1.11504,0.49239
557.632,27.7263,-2.84731,-1.13353,0.49218
558.232,27.74496,-2.84878,-1.13729,0.49196
558.832,27.76367,-2.849,-1.14241,0.49175
559.432,27.78234,-2.85016,-1.15069,0.49153
560.032,27.80097,-2.85137,-1.17376,0.49132
560.632,27.81962,-2.85172,-1.18566,0.4911
561.232,27.83825,-2.85291,-1.18044,0.49088
561.832,27.8569,-2.85303,-1.19577,0.49067
562.432,27.87565,-2.85326,-1.20782,0.49045
563.032,27.8943,-2.85568,-1.21986,0.49024
563.632,27.9131,-2.85579,-1.22669,0.49002
564.232,27.93185,-2.85775,-1.24361,0.48981
564.832,27.9505,-2.85822,-1.24014,0.48959
565.432,27.96926,-2.8595,-1.25278,0.48938
566.032,27.9881,-2.85979,-1.26675,0.48916
566.632,28.00682,-2.85984,-1.28848,0.48895
567.232,28.0256,-2.85991,-1.29925,0.48873
567.832,28.04437,-2.86152,-1.30166,0.48852
568.432,28.06318,-2.86168,-1.30793,0.4883
569.032,28.08189,-2.86294,-1.30423,0.48809
569.632,28.10067,-2.86426,-1.31578,0.48787
570.232,28.1194,-2.86484,-1.32649,0.48766
570.832,28.13823,-2.86519,-1.33932,0.48744
571.432,28.157,-2.86557,-1.34104,0.48723
572.032,28.17571,-2.86579,-1.34504,0.48701
572.632,28.1945,-2.86764,-1.35404,0.4868
573.232,28.2132,-2.86755,-1.36644,0.48658
573.832,28.232,-2.86767,-1.37443,0.48637
574.432,28.2508,-2.86884,-1.37787,0.48615
575.032,28.2697,-2.86884,-1.38436,0.48594
575.632,28.2885,-2.86884,-1.39553,0.48573
576.232,28.3074,-2.86883,-1.40802,0.48551
576.832,28.3262,-2.86982,-1.41032,0.4853
577.432,28.34502,-2.87013,-1.42878,0.48508
578.032,28.36386,-2.87015,-1.44595,0.48487
578.632,28.38271,-2.87016,-1.4596,0.48465
579.232,28.40151,-2.87165,-1.45893,0.48444
579.832,28.4204,-2.87195,-1.4751,0.48423
580.432,28.43918,-2.87313,-1.49247,0.48401
581.032,28.45802,-2.87307,-1.49181,0.4838
581.632,28.4769,-2.87429,-1.50049,0.48359
582.232,28.4958,-2.87435,-1.50324,0.48337
582.832,28.51473,-2.87521,-1.53048,0.48316
583.432,28.5336,-2.87429,-1.53198,0.48294
584.032,28.5525,-2.87573,-1.54023,0.48273
584.632,28.57143,-2.87602,-1.5547,0.48252
585.232,28.59025,-2.8773,-1.55642,0.4823
585.832,28.60915,-2.87859,-1.54897,0.48209
586.432,28.6281,-2.87861,-1.55562,0.48188
587.032,28.647,-2.87904,-1.5662,0.48166
587.632,28.6659,-2.88052,-1.56936,0.48145
588.232,28.6847,-2.88127,-1.5855,0.48124
588.832,28.7036,-2.88259,-1.5893,0.48103
589.432,28.7225,-2.88419,-1.59253,0.48081
590.032,28.74132,-2.88409,-1.59565,0.4806
590.632,28.7603,-2.88409,-1.60906,0.48039
591.232,28.77938,-2.88315,-1.61417,0.48017
591.832,28.79828,-2.88276,-1.62353,0.47996
592.432,28.81725,-2.88272,-1.62733,0.47975
593.032,28.8362,-2.88399,-1.63459,0.47954
593.632,28.8552,-2.8828,-1.64083,0.47933
594.232,28.8742,-2.88432,-1.64448,0.47911
594.832,28.8933,-2.88421,-1.64674,0.4789
595.432,28.9123,-2.8842,-1.65819,0.47869
596.032,28.93125,-2.8842,-1.65591,0.47848
596.632,28.9502,-2.8842,-1.65921,0.47826
597.232,28.9692,-2.88421,-1.68257,0.47805
597.832,28.9882,-2.8847,-1.69823,0.47784
598.432,29.00722,-2.88568,-1.7145,0.47763
599.032,29.0262,-2.88632,-1.71941,0.47742
599.632,29.0452,-2.88835,-1.72209,0.47721
600.232,29.06424,-2.88828,-1.72783,0.47699
600.832,29.0833,-2.88856,-1.75175,0.47678
601.432,29.1024,-2.88872,-1.77077,0.47657
602.032,29.1214,-2.88826,-1.7784,0.47636
602.632,29.14035,-2.88825,-1.80111,0.47615
603.232,29.15942,-2.88963,-1.80623,0.47594
603.832,29.1784,-2.88968,-1.81556,0.47573
604.432,29.1975,-2.8902,-1.82135,0.47552
605.032,29.21658,-2.88953,-1.82041,0.4753
605.632,29.23562,-2.88955,-1.83422,0.47509
606.232,29.25468,-2.88963,-1.83228,0.47488
606.832,29.27376,-2.89068,-1.85577,0.47467
607.432,29.29284,-2.89203,-1.8618,0.47446
608.032,29.31193,-2.89363,-1.85895,0.47425
608.632,29.3311,-2.89384,-1.85752,0.47404
609.232,29.3501,-2.89517,-1.86786,0.47383
609.832,29.3692,-2.89516,-1.89137,0.47362
610.432,29.38825,-2.89516,-1.88201,0.47341
611.032,29.40735,-2.89512,-1.89334,0.4732
611.632,29.4264,-2.89644,-1.89813,0.47299
612.232,29.44555,-2.89658,-1.89464,0.47278
612.832,29.4647,-2.89799,-1.88886,0.47257
613.432,29.4839,-2.89811,-1.88928,0.47236
614.032,29.503,-2.89812,-1.89241,0.47215
614.632,29.52218,-2.8981,-1.89643,0.47194
615.232,29.54134,-2.89889,-1.90235,0.47173
615.832,29.56048,-2.89943,-1.92045,0.47152
616.432,29.5796,-2.90006,-1.91509,0.47131
617.032,29.59873,-2.90076,-1.9353,0.4711
617.632,29.6179,-2.90075,-1.93916,0.47089
618.232,29.6371,-2.90078,-1.93697,0.47068
618.832,29.6562,-2.90135,-1.94022,0.47048
619.432,29.6754,-2.90208,-1.96317,0.47027
620.032,29.69459,-2.90207,-1.94554,0.47006
620.632,29.71374,-2.90207,-1.96622,0.46985
621.232,29.7329,-2.90204,-1.97288,0.46964
621.832,29.7521,-2.90294,-1.9783,0.46943
622.432,29.7713,-2.90358,-1.9847,0.46922
623.032,29.7905,-2.9043,-1.97486,0.46901
623.632,29.8096,-2.90492,-1.98345,0.46881
624.232,29.82876,-2.90492,-1.98308,0.4686
624.832,29.84794,-2.90608,-1.99391,0.46839
625.432,29.86713,-2.90623,-1.99023,0.46818
626.032,29.88638,-2.90624,-1.99705,0.46797
626.632,29.9056,-2.90625,-2.01327,0.46777
627.232,29.9249,-2.90648,-2.01399,0.46756
627.832,29.94417,-2.90769,-2.01244,0.46735
628.432,29.9634,-2.90868,-2.02548,0.46714
629.032,29.9826,-2.90929,-2.02616,0.46694
629.632,30.0018,-2.91055,-2.06743,0.46673
630.232,30.021,-2.91051,-2.07858,0.46652
630.832,30.04027,-2.91051,-2.10553,0.46631
631.432,30.0594,-2.91051,-2.10633,0.46611
632.032,30.0786,-2.91051,-2.10231,0.4659
632.632,30.09787,-2.91051,-2.10117,0.46569
633.232,30.11709,-2.91051,-2.09145,0.46549
633.832,30.13635,-2.91051,-2.0842,0.46528
634.432,30.1558,-2.91055,-2.08986,0.46507
635.032,30.17509,-2.91032,-2.10822,0.46487
635.632,30.1944,-2.9105,-2.1019,0.46466
636.232,30.2136,-2.91126,-2.11065,0.46445
636.832,30.2329,-2.91192,-2.11864,0.46425
637.432,30.2521,-2.91193,-2.13518,0.46404
638.032,30.2713,-2.91271,-2.13458,0.46383
638.632,30.2906,-2.91326,-2.14222,0.46363
639.232,30.30998,-2.91326,-2.1402,0.46342
639.832,30.3293,-2.91326,-2.13417,0.46322
640.432,30.3485,-2.91327,-2.13421,0.46301
641.032,30.36777,-2.91374,-2.14254,0.46281
641.632,30.38697,-2.91461,-2.15222,0.4626
642.232,30.4063,-2.91458,-2.16814,0.4624
642.832,30.4256,-2.91457,-2.21301,0.46219
643.432,30.44513,-2.91545,-2.23168,0.46198
644.032,30.46445,-2.91587,-2.22353,0.46178
644.632,30.48387,-2.91589,-2.2249,0.46157
645.232,30.5032,-2.91589,-2.22707,0.46137
645.832,30.52257,-2.9159,-2.23088,0.46117
646.432,30.542,-2.91597,-2.23003,0.46096
647.032,30.5614,-2.91724,-2.22527,0.46076
647.632,30.5808,-2.91585,-2.23283,0.46055
648.232,30.6002,-2.91589,-2.23906,0.46035
648.832,30.61954,-2.91651,-2.23683,0.46014
649.432,30.63887,-2.91747,-2.23844,0.45994
650.032,30.6582,-2.91746,-2.23301,0.45974
650.632,30.67762,-2.91752,-2.21321,0.45953
651.232,30.697,-2.91752,-2.20892,0.45933
651.832,30.71637,-2.91854,-2.21955,0.45912
652.432,30.73583,-2.91883,-2.21053,0.45892
653.032,30.7552,-2.91886,-2.20499,0.45872
653.632,30.7746,-2.91907,-2.20248,0.45851
654.232,30.794,-2.92034,-2.20869,0.45831
654.832,30.81342,-2.92022,-2.19985,0.45811
655.432,30.83285,-2.92147,-2.19472,0.4579
656.032,30.85237,-2.92178,-2.19243,0.4577
656.632,30.8718,-2.92293,-2.22045,0.4575
657.232,30.89126,-2.92293,-2.22326,0.4573
657.832,30.91068,-2.92427,-2.20048,0.45709
658.432,30.9301,-2.92423,-2.21426,0.45689
659.032,30.9494,-2.92392,-2.23507,0.45669
659.632,30.9689,-2.92356,-2.20816,0.45649
660.232,30.9884,-2.92356,-2.20991,0.45628
660.832,31.00783,-2.92473,-2.21219,0.45608
661.432,31.02727,-2.92487,-2.22025,0.45588
662.032,31.0468,-2.92484,-2.19773,0.45568
662.632,31.0662,-2.92602,-2.19874,0.45548
663.232,31.08574,-2.92619,-2.20185,0.45527
663.832,31.10525,-2.9262,-2.20071,0.45507
664.432,31.1247,-2.9262,-2.20552,0.45487
665.032,31.14412,-2.9262,-2.2173,0.45467
665.632,31.16357,-2.9262,-2.22305,0.45447
666.232,31.183,-2.9262,-2.22085,0.45427
666.832,31.20243,-2.92615,-2.21036,0.45407
667.432,31.2219,-2.92734,-2.20919,0.45387
668.032,31.24135,-2.92763,-2.19757,0.45366
668.632,31.2608,-2.92763,-2.19722,0.45346
669.232,31.28029,-2.92763,-2.19671,0.45326
669.832,31.29978,-2.92763,-2.20923,0.45306
670.432,31.31932,-2.92822,-2.20741,0.45286
671.032,31.3389,-2.92918,-2.20782,0.45266
671.632,31.3585,-2.92917,-2.22157,0.45246
672.232,31.378,-2.92892,-2.19672,0.45226
672.832,31.39757,-2.92841,-2.20596,0.45206
673.432,31.41716,-2.9298,-2.21332,0.45186
674.032,31.4367,-2.92994,-2.2045,0.45166
674.632,31.45615,-2.93121,-2.19573,0.45146
675.232,31.47575,-2.93116,-2.18756,0.45126
675.832,31.4953,-2.93143,-2.19646,0.45106
676.432,31.5148,-2.9325,-2.20412,0.45087
677.032,31.53438,-2.93245,-2.19269,0.45067
677.632,31.55398,-2.93245,-2.17909,0.45047
678.232,31.57355,-2.93245,-2.162,0.45027
678.832,31.59311,-2.93245,-2.17901,0.45007
679.432,31.6128,-2.93245,-2.19462,0.44987
680.032,31.63235,-2.93245,-2.17809,0.44967
680.632,31.6519,-2.93245,-2.18573,0.44947
681.232,31.67152,-2.93244,-2.19326,0.44928
681.832,31.69111,-2.93238,-2.17597,0.44908
682.432,31.7107,-2.93262,-2.15976,0.44888
683.032,31.7303,-2.93302,-2.15796,0.44868
683.632,31.74989,-2.93443,-2.16548,0.44848
684.232,31.76946,-2.93443,-2.1673,0.44829
684.832,31.78913,-2.93443,-2.16797,0.44809
685.432,31.8087,-2.93443,-2.16411,0.44789
686.032,31.82832,-2.93444,-2.15432,0.44769
686.632,31.84795,-2.9349,-2.12714,0.4475
687.232,31.86757,-2.93525,-2.10988,0.4473
687.832,31.8872,-2.9351,-2.11463,0.4471
688.432,31.90685,-2.93509,-2.11563,0.44691
689.032,31.92653,-2.9351,-2.1052,0.44671
689.632,31.946,-2.93542,-2.10214,0.44651
690.232,31.9656,-2.93638,-2.11526,0.44632
690.832,31.98522,-2.93721,-2.1015,0.44612
691.432,32.00481,-2.93864,-2.09333,0.44592
692.032,32.02452,-2.93871,-2.09147,0.44573
692.632,32.04432,-2.93871,-2.07799,0.44553
693.232,32.06398,-2.93871,-2.09013,0.44534
693.832,32.08368,-2.93874,-2.10138,0.44514
694.432,32.1033,-2.9401,-2.09038,0.44494
695.032,32.12298,-2.93862,-2.08382,0.44475
695.632,32.14266,-2.93871,-2.09402,0.44455
696.232,32.16233,-2.93944,-2.08246,0.44436
696.832,32.18196,-2.94134,-2.09007,0.44416
697.432,32.2017,-2.94147,-2.10715,0.44397
698.032,32.22133,-2.94289,-2.08258,0.44377
698.632,32.241,-2.94288,-2.04313,0.44358
699.232,32.26062,-2.9425,-2.0248,0.44338
699.832,32.28027,-2.94156,-2.01227,0.44319
700.432,32.2999,-2.94156,-1.98923,0.443
701.032,32.31962,-2.94156,-1.99835,0.4428
701.632,32.3393,-2.94156,-2.01836,0.44261
702.232,32.35901,-2.94156,-1.99875,0.44241
702.832,32.37873,-2.94156,-1.99379,0.44222
703.432,32.39841,-2.94156,-1.96866,0.44203
704.032,32.418,-2.94156,-1.95381,0.44183
704.632,32.43779,-2.94157,-1.94343,0.44164
705.232,32.45747,-2.94195,-1.91519,0.44144
705.832,32.47723,-2.94361,-1.88316,0.44125
706.432,32.497,-2.94355,-1.87271,0.44106
707.032,32.5167,-2.94355,-1.88019,0.44087
707.632,32.53648,-2.94376,-1.88296,0.44067
708.232,32.55623,-2.94385,-1.8602,0.44048
708.832,32.57597,-2.94389,-1.90777,0.44029
709.432,32.59572,-2.9444,-1.91133,0.44009
710.032,32.61551,-2.94518,-1.8583,0.4399
710.632,32.63528,-2.94504,-1.86658,0.43971
711.232,32.65505,-2.94477,-1.86124,0.43952
711.832,32.6748,-2.9447,-1.83022,0.43933
712.432,32.69455,-2.94359,-1.80447,0.43913
713.032,32.71432,-2.94364,-1.78392,0.43894
713.632,32.73406,-2.94364,-1.77045,0.43875
714.232,32.7538,-2.94364,-1.74788,0.43856
714.832,32.7735,-2.94364,-1.73556,0.43837
715.432,32.7933,-2.94364,-1.73559,0.43818
716.032,32.81305,-2.94358,-1.72537,0.43799
716.632,32.8328,-2.9448,-1.73029,0.43779
717.232,32.85256,-2.9449,-1.70383,0.4376
717.832,32.87234,-2.9461,-1.67523,0.43741
718.432,32.89213,-2.94627,-1.64852,0.43722
719.032,32.91186,-2.94627,-1.64232,0.43703
719.632,32.93161,-2.94628,-1.67168,0.43684
720.232,32.95136,-2.94636,-1.66114,0.43665
720.832,32.9711,-2.9476,-1.64557,0.43646
721.432,32.99086,-2.94761,-1.64407,0.43627
722.032,33.0107,-2.94656,-1.65859,0.43608
722.632,33.03051,-2.94628,-1.64673,0.43589
723.232,33.05028,-2.94628,-1.64962,0.4357
723.832,33.07009,-2.94628,-1.65897,0.43551
724.432,33.0899,-2.94628,-1.64228,0.43532
725.032,33.10972,-2.94628,-1.63889,0.43513
725.632,33.12959,-2.94689,-1.65973,0.43494
726.232,33.1494,-2.94887,-1.6507,0.43476
726.832,33.16924,-2.9489,-1.64047,0.43457
727.432,33.18908,-2.9489,-1.63991,0.43438
728.032,33.20883,-2.9489,-1.66374,0.43419
728.632,33.22862,-2.94913,-1.67865,0.434
729.232,33.24841,-2.95026,-1.66211,0.43381
729.832,33.26822,-2.95074,-1.65342,0.43363
730.432,33.28804,-2.95156,-1.64544,0.43344
731.032,33.30892,-2.9513,-1.63238,0.43325
731.632,33.33008,-2.95022,-1.62603,0.43306
731.732,33.33222,-2.95023,-1.62346,0.43303