File: 01_Data/Gypsum_Wallboard_Gypsum_Core/MCC/Gypsum_Wallboard_Gypsum_Core_MCC_30K_min_211004_R2.txt
Sample ID:	C:\MCC\MCC Cal\Test\Gypsum_Wallboard_GypsumCore_MCC_30K_min_211004_R2.txt
Sample Weight (mg):	4.76
Heating Rate (C/s):	0.5
Combustor Temp (C):	900
N2 Flow Rate (cc/min):	80
O2 Flow Rate (cc/min):	20
Calibration File:	C:\MCC\MCC Cal\Coeff1 JN10440_30_210304.txt.txt
T Correction Coefficients:	0	1.024463	0
Time Shift (s):	14
*
Time (s)	Temperature (C)	N2 flow rate (cc/min)	O2 flow rate (cc/min)	Flow Rate (cc/min)	Oxygen (%)	HRR (W/g)	Heating rate (C/s)
0.000	108.320	79.997	19.997	100.640	20.019	0.050	-0.017
2.000	108.350	79.996	19.996	100.640	20.022	-0.165	-0.009
3.999	108.368	79.998	19.996	100.634	20.017	0.145	0.007
6.000	108.338	79.997	19.995	100.652	20.019	0.040	0.015
8.000	108.301	79.995	19.996	100.654	20.016	0.210	-0.026
10.000	108.343	79.998	19.995	100.645	20.020	-0.065	0.005
12.000	108.308	79.995	19.996	100.639	20.018	0.099	-0.010
14.000	108.301	79.996	19.996	100.649	20.019	0.036	-0.046
16.000	108.351	79.996	19.995	100.661	20.018	0.108	0.022
18.000	108.354	79.995	19.994	100.666	20.017	0.176	-0.004
20.000	108.321	79.996	19.995	100.671	20.016	0.221	-0.019
22.000	108.371	79.997	19.995	100.717	20.011	0.570	0.021
24.000	108.451	79.997	19.995	100.762	20.007	0.847	0.044
26.000	108.508	79.998	19.995	100.754	20.002	1.164	0.025
28.000	108.629	79.998	19.995	100.762	19.995	1.611	0.071
30.000	108.779	79.998	19.995	100.797	19.995	1.611	0.079
32.000	108.929	79.996	19.994	100.816	19.992	1.816	0.070
33.999	109.149	79.997	19.996	100.841	19.989	2.039	0.125
35.999	109.375	79.995	19.995	100.860	19.986	2.220	0.096
37.999	109.632	79.994	19.995	100.867	19.979	2.667	0.125
39.999	109.915	79.994	19.996	100.876	19.975	2.910	0.135
42.000	110.241	79.995	19.996	100.869	19.973	3.073	0.167
43.999	110.633	79.994	19.995	100.873	19.970	3.286	0.216
45.999	111.096	79.996	19.996	100.864	19.969	3.313	0.259
47.999	111.478	79.995	19.996	100.867	19.973	3.056	0.171
49.999	111.867	79.993	19.996	100.862	19.971	3.203	0.206
51.999	112.341	79.996	19.997	100.864	19.968	3.424	0.226
53.999	112.862	79.996	19.996	100.877	19.972	3.151	0.242
55.999	113.326	79.996	19.995	100.866	19.969	3.354	0.254
57.999	113.850	79.995	19.995	100.889	19.970	3.296	0.262
59.999	114.466	79.996	19.996	100.894	19.975	2.919	0.317
61.999	115.012	79.995	19.995	100.870	19.977	2.802	0.300
64.000	115.605	79.995	19.995	100.873	19.974	2.978	0.300
65.999	116.208	79.994	19.996	100.861	19.975	2.950	0.307
67.999	116.831	79.995	19.996	100.859	19.971	3.197	0.307
69.999	117.519	79.994	19.996	100.869	19.973	3.087	0.325
71.999	118.156	79.996	19.995	100.889	19.978	2.736	0.361
73.999	118.885	79.995	19.996	100.885	19.970	3.297	0.361
75.999	119.555	79.995	19.996	100.879	19.973	3.076	0.355
77.999	120.218	79.995	19.997	100.891	19.977	2.831	0.331
79.999	120.960	79.996	19.996	100.893	19.970	3.294	0.358
81.999	121.651	79.997	19.995	100.892	19.973	3.040	0.354
83.999	122.400	79.996	19.995	100.896	19.972	3.123	0.359
86.001	123.214	79.997	19.996	100.896	19.971	3.181	0.369
87.999	123.917	79.997	19.996	100.900	19.973	3.092	0.349
89.999	124.711	79.997	19.995	100.899	19.971	3.175	0.361
91.999	125.555	79.998	19.995	100.899	19.969	3.312	0.412
93.999	126.291	79.997	19.996	100.899	19.971	3.215	0.386
95.999	127.190	79.996	19.994	100.900	19.967	3.440	0.427
97.999	128.002	79.996	19.995	100.899	19.972	3.164	0.399
99.999	128.847	79.997	19.994	100.899	19.971	3.190	0.413
101.999	129.703	79.998	19.994	100.900	19.969	3.301	0.425
103.999	130.533	79.997	19.995	100.905	19.972	3.141	0.418
106.000	131.417	79.998	19.995	100.871	19.970	3.297	0.446
107.999	132.326	79.999	19.994	100.914	19.969	3.332	0.460
110.000	133.181	79.999	19.994	100.937	19.971	3.229	0.404
111.999	134.123	79.997	19.995	100.899	19.969	3.362	0.462
113.999	135.020	79.998	19.995	100.898	19.967	3.438	0.485
115.999	135.945	79.998	19.995	100.897	19.968	3.371	0.460
118.000	136.878	79.997	19.995	100.897	19.966	3.512	0.441
120.000	137.803	79.997	19.994	100.899	19.973	3.096	0.456
121.999	138.731	79.997	19.994	100.897	19.972	3.162	0.475
123.999	139.674	79.997	19.996	100.897	19.970	3.290	0.473
125.999	140.630	79.997	19.995	100.896	19.972	3.132	0.468
128.000	141.586	79.995	19.995	100.896	19.970	3.276	0.472
130.000	142.568	79.996	19.996	100.896	19.969	3.321	0.510
132.000	143.579	79.996	19.996	100.896	19.969	3.355	0.513
134.000	144.552	79.996	19.995	100.898	19.973	3.062	0.487
136.000	145.530	79.997	19.995	100.897	19.969	3.330	0.506
138.000	146.513	79.995	19.995	100.891	19.969	3.308	0.488
140.000	147.496	79.998	19.996	100.890	19.969	3.328	0.501
142.000	148.454	79.994	19.997	100.890	19.972	3.105	0.478
144.000	149.457	79.996	19.995	100.891	19.971	3.222	0.524
146.000	150.441	79.996	19.997	100.894	19.974	3.027	0.482
148.000	151.452	79.995	19.996	100.894	19.973	3.096	0.510
150.000	152.443	79.996	19.995	100.890	19.971	3.218	0.486
152.000	153.454	79.995	19.995	100.886	19.974	2.987	0.495
154.000	154.442	79.994	19.996	100.893	19.975	2.933	0.505
156.000	155.416	79.995	19.996	100.890	19.975	2.953	0.521
158.000	156.376	79.996	19.996	100.879	19.971	3.169	0.478
160.000	157.424	79.996	19.997	100.885	19.972	3.163	0.526
162.000	158.371	79.995	19.996	100.885	19.971	3.194	0.466
164.000	159.398	79.996	19.996	100.872	19.972	3.106	0.505
166.000	160.409	79.996	19.995	100.869	19.972	3.161	0.490
168.000	161.437	79.995	19.996	100.878	19.971	3.224	0.532
170.000	162.396	79.996	19.995	100.868	19.971	3.172	0.473
172.000	163.387	79.995	19.996	100.862	19.974	3.023	0.510
174.000	164.390	79.994	19.996	100.866	19.972	3.098	0.507
176.000	165.374	79.995	19.995	100.860	19.970	3.269	0.494
178.000	166.443	79.996	19.995	100.861	19.978	2.755	0.506
180.000	167.441	79.997	19.995	100.859	19.976	2.837	0.485
182.000	168.431	79.997	19.994	100.858	19.974	2.979	0.513
184.000	169.442	79.997	19.995	100.859	19.974	3.001	0.521
186.000	170.461	79.996	19.994	100.859	19.977	2.808	0.494
188.000	171.453	79.997	19.994	100.858	19.976	2.891	0.505
190.000	172.426	79.997	19.995	100.857	19.979	2.668	0.467
192.000	173.460	79.997	19.994	100.856	19.981	2.510	0.562
194.000	174.510	79.997	19.995	100.856	19.978	2.745	0.506
196.000	175.486	79.997	19.996	100.853	19.981	2.555	0.488
198.000	176.476	79.997	19.995	100.853	19.978	2.731	0.465
200.000	177.473	79.995	19.996	100.848	19.978	2.711	0.512
202.000	178.467	79.994	19.996	100.848	19.977	2.819	0.509
204.000	179.480	79.995	19.995	100.850	19.976	2.843	0.525
206.000	180.473	79.996	19.996	100.847	19.979	2.690	0.488
208.000	181.485	79.996	19.995	100.850	19.976	2.841	0.487
210.000	182.481	79.996	19.996	100.854	19.982	2.485	0.481
212.000	183.469	79.995	19.995	100.845	19.980	2.585	0.505
214.000	184.461	79.995	19.995	100.849	19.980	2.574	0.498
216.000	185.463	79.997	19.995	100.853	19.979	2.676	0.529
218.000	186.447	79.996	19.994	100.854	19.981	2.567	0.492
220.000	187.454	79.996	19.994	100.856	19.980	2.572	0.479
222.000	188.438	79.997	19.994	100.853	19.983	2.399	0.467
224.000	189.474	79.997	19.995	100.837	19.981	2.504	0.499
226.000	190.414	79.997	19.996	100.827	19.980	2.630	0.487
228.000	191.401	79.997	19.995	100.828	19.981	2.563	0.488
230.000	192.377	79.993	19.995	100.839	19.979	2.646	0.469
232.000	193.384	79.995	19.996	100.833	19.979	2.696	0.517
234.000	194.395	79.995	19.996	100.832	19.980	2.615	0.494
236.000	195.392	79.996	19.995	100.838	19.980	2.608	0.508
238.000	196.317	79.995	19.995	100.828	19.980	2.603	0.482
240.000	197.329	79.995	19.995	100.847	19.980	2.599	0.490
242.000	198.296	79.995	19.996	100.831	19.977	2.831	0.510
244.000	199.215	79.997	19.996	100.826	19.977	2.786	0.465
246.000	200.223	79.997	19.996	100.828	19.979	2.671	0.474
248.000	201.188	79.997	19.996	100.838	19.978	2.701	0.504
250.000	202.186	79.998	19.996	100.821	19.978	2.741	0.484
252.000	203.179	79.997	19.996	100.821	19.978	2.755	0.499
254.000	204.172	79.996	19.996	100.830	19.979	2.644	0.495
256.000	205.128	79.996	19.996	100.823	19.982	2.498	0.493
258.000	206.102	79.996	19.997	100.821	19.981	2.525	0.474
260.000	207.100	79.996	19.996	100.821	19.976	2.835	0.504
262.000	208.117	79.996	19.997	100.821	19.983	2.401	0.490
264.000	209.092	79.996	19.997	100.820	19.979	2.658	0.468
266.000	210.063	79.995	19.996	100.817	19.978	2.764	0.489
268.000	211.056	79.997	19.996	100.822	19.979	2.635	0.493
270.000	212.021	79.997	19.997	100.821	19.981	2.559	0.482
272.000	213.025	79.998	19.996	100.818	19.983	2.423	0.481
274.000	214.012	79.998	19.994	100.816	19.981	2.532	0.495
276.000	214.992	79.998	19.994	100.815	19.982	2.500	0.512
278.000	215.953	79.999	19.994	100.815	19.984	2.354	0.467
280.000	216.937	79.996	19.994	100.818	19.985	2.288	0.487
282.000	217.946	79.994	19.995	100.819	19.984	2.358	0.480
284.000	218.939	79.995	19.996	100.818	19.982	2.498	0.520
286.000	219.907	79.995	19.995	100.821	19.985	2.273	0.484
288.000	220.905	79.996	19.996	100.821	19.980	2.576	0.483
290.000	221.881	79.995	19.995	100.819	19.982	2.495	0.497
292.000	222.888	79.995	19.995	100.820	19.980	2.615	0.486
294.000	223.879	79.995	19.995	100.820	19.982	2.459	0.517
296.000	224.859	79.995	19.995	100.820	19.979	2.696	0.519
298.000	225.859	79.995	19.995	100.820	19.982	2.450	0.485
300.000	226.806	79.996	19.995	100.819	19.985	2.255	0.476
302.000	227.828	79.996	19.994	100.815	19.984	2.360	0.512
304.000	228.825	79.996	19.995	100.818	19.982	2.469	0.511
306.000	229.842	79.996	19.994	100.821	19.981	2.529	0.516
308.000	230.805	79.996	19.994	100.818	19.980	2.602	0.502
310.000	231.840	79.996	19.996	100.817	19.979	2.640	0.492
312.000	232.820	79.995	19.995	100.818	19.975	2.934	0.492
314.000	233.813	79.995	19.996	100.816	19.979	2.660	0.485
316.000	234.809	79.996	19.996	100.817	19.977	2.785	0.542
318.000	235.755	79.996	19.995	100.808	19.980	2.575	0.464
320.000	236.821	79.994	19.996	100.814	19.980	2.624	0.510
322.000	237.780	79.996	19.996	100.816	19.977	2.815	0.517
324.000	238.742	79.996	19.995	100.760	19.975	2.902	0.472
326.000	239.715	79.996	19.996	100.844	19.979	2.640	0.455
328.000	240.713	79.996	19.995	100.841	19.980	2.618	0.524
330.000	241.697	79.996	19.996	100.809	19.978	2.739	0.511
332.000	242.728	79.997	19.995	100.812	19.978	2.719	0.487
334.000	243.746	79.997	19.996	100.813	19.978	2.752	0.511
336.000	244.696	79.997	19.996	100.802	19.982	2.442	0.487
338.000	245.706	79.997	19.996	100.812	19.977	2.777	0.474
340.000	246.691	79.997	19.994	100.813	19.978	2.730	0.504
342.000	247.686	79.996	19.999	100.809	19.980	2.611	0.476
344.000	248.688	79.995	19.997	100.811	19.979	2.672	0.507
346.000	249.733	79.996	19.995	100.808	19.981	2.555	0.522
348.000	250.769	79.997	19.996	100.812	19.979	2.696	0.506
350.000	251.740	79.996	19.995	100.800	19.976	2.836	0.461
352.000	252.753	79.996	19.996	100.800	19.978	2.715	0.480
354.000	253.752	79.996	19.995	100.802	19.977	2.811	0.530
356.000	254.785	79.997	19.997	100.800	19.978	2.760	0.525
358.000	255.756	79.996	19.996	100.807	19.979	2.680	0.534
360.000	256.730	79.996	19.996	100.813	19.981	2.548	0.496
362.000	257.743	79.996	19.997	100.806	19.982	2.498	0.495
364.000	258.733	79.997	19.995	100.798	19.977	2.792	0.499
366.000	259.738	79.994	19.995	100.795	19.981	2.541	0.511
368.000	260.740	79.994	19.995	100.807	19.977	2.771	0.491
370.000	261.713	79.995	19.995	100.806	19.982	2.453	0.486
372.000	262.742	79.994	19.996	100.809	19.982	2.474	0.525
374.000	263.721	79.995	19.995	100.799	19.983	2.397	0.501
376.000	264.719	79.996	19.995	100.794	19.983	2.381	0.497
378.000	265.677	79.995	19.996	100.811	19.982	2.496	0.454
380.000	266.669	79.995	19.996	100.803	19.984	2.348	0.469
382.000	267.683	79.997	19.996	100.794	19.981	2.524	0.485
384.000	268.708	79.995	19.995	100.803	19.982	2.469	0.561
386.000	269.660	79.996	19.995	100.797	19.978	2.764	0.455
388.000	270.703	79.995	19.995	100.791	19.981	2.553	0.511
390.000	271.684	79.995	19.996	100.791	19.976	2.886	0.500
392.000	272.729	79.996	19.996	100.794	19.981	2.533	0.515
394.000	273.693	79.995	19.995	100.795	19.981	2.506	0.474
396.000	274.692	79.997	19.995	100.791	19.982	2.488	0.475
398.000	275.689	79.996	19.995	100.786	19.981	2.548	0.501
400.000	276.658	79.996	19.996	100.785	19.985	2.300	0.474
402.000	277.649	79.995	19.995	100.782	19.982	2.449	0.497
404.000	278.650	79.995	19.994	100.781	19.985	2.291	0.520
406.000	279.629	79.996	19.995	100.790	19.986	2.183	0.505
408.000	280.647	79.996	19.995	100.794	19.982	2.465	0.511
410.000	281.658	79.996	19.994	100.786	19.983	2.401	0.490
412.000	282.650	79.997	19.995	100.796	19.982	2.447	0.511
414.000	283.661	79.996	19.996	100.791	19.983	2.422	0.515
416.000	284.620	79.997	19.996	100.798	19.985	2.289	0.462
418.000	285.612	79.996	19.995	100.800	19.982	2.443	0.510
420.000	286.690	79.996	19.996	100.800	19.984	2.314	0.505
422.000	287.607	79.995	19.996	100.792	19.986	2.204	0.471
424.000	288.635	79.996	19.997	100.784	19.988	2.080	0.496
426.000	289.646	79.996	19.996	100.789	19.984	2.312	0.513
428.000	290.639	79.996	19.997	100.781	19.984	2.319	0.523
430.000	291.690	79.995	19.996	100.784	19.983	2.416	0.512
432.000	292.683	79.996	19.995	100.786	19.986	2.190	0.487
434.000	293.676	79.997	19.995	100.786	19.984	2.348	0.491
436.000	294.684	79.997	19.995	100.785	19.985	2.246	0.503
438.000	295.723	79.998	19.995	100.786	19.980	2.630	0.514
440.000	296.694	79.999	19.996	100.782	19.980	2.589	0.505
442.000	297.683	79.998	19.995	100.783	19.981	2.517	0.504
444.000	298.708	79.995	19.995	100.780	19.982	2.445	0.536
446.000	299.692	79.994	19.997	100.780	19.983	2.377	0.508
448.000	300.690	79.995	19.995	100.781	19.982	2.492	0.491
450.000	301.675	79.995	19.995	100.784	19.983	2.377	0.529
452.000	302.675	79.995	19.997	100.793	19.979	2.636	0.488
454.000	303.668	79.995	19.996	100.780	19.985	2.256	0.500
456.000	304.672	79.996	19.997	100.777	19.983	2.434	0.510
458.000	305.652	79.996	19.997	100.780	19.982	2.483	0.486
460.000	306.654	79.997	19.996	100.780	19.985	2.251	0.517
462.000	307.634	79.996	19.995	100.781	19.981	2.504	0.488
464.000	308.621	79.996	19.995	100.778	19.979	2.637	0.501
466.000	309.636	79.996	19.995	100.779	19.979	2.637	0.491
468.000	310.754	79.997	19.996	100.780	19.978	2.750	0.523
470.000	311.683	79.995	19.995	100.779	19.978	2.731	0.504
472.000	312.982	79.996	19.996	100.780	19.981	2.506	0.782
474.000	313.979	79.995	19.994	100.781	19.976	2.850	0.670
476.000	314.697	79.994	19.995	100.734	19.981	2.539	0.630
478.000	315.728	79.995	19.996	100.825	19.980	2.594	0.518
480.000	316.732	79.995	19.995	100.810	19.983	2.402	0.494
482.000	317.717	79.994	19.995	100.782	19.983	2.406	0.490
484.000	318.744	79.993	19.995	100.784	19.979	2.648	0.503
486.000	319.715	79.993	19.995	100.782	19.982	2.463	0.517
488.000	320.730	79.994	19.995	100.783	19.981	2.522	0.513
490.000	321.743	79.995	19.996	100.783	19.985	2.269	0.502
492.000	322.719	79.994	19.996	100.782	19.983	2.407	0.511
494.000	323.743	79.996	19.996	100.784	19.982	2.492	0.483
496.000	324.729	79.996	19.996	100.781	19.985	2.290	0.481
498.000	325.774	79.997	19.995	100.781	19.983	2.386	0.532
500.000	326.770	79.997	19.995	100.783	19.984	2.337	0.503
502.000	327.820	79.997	19.994	100.783	19.982	2.466	0.551
504.000	328.783	79.997	19.994	100.783	19.982	2.488	0.502
506.000	329.815	79.996	19.995	100.781	19.985	2.285	0.506
508.000	330.782	79.996	19.996	100.781	19.982	2.463	0.484
510.000	331.824	79.995	19.996	100.780	19.982	2.461	0.509
512.000	332.834	79.996	19.995	100.779	19.984	2.335	0.514
514.000	333.835	79.996	19.995	100.774	19.985	2.254	0.508
516.000	334.845	79.997	19.997	100.780	19.986	2.218	0.498
518.000	335.892	79.996	19.996	100.777	19.985	2.242	0.517
520.000	336.921	79.998	19.995	100.778	19.987	2.154	0.514
522.000	337.871	79.998	19.995	100.774	19.982	2.443	0.492
524.000	338.893	79.997	19.994	100.774	19.985	2.240	0.463
526.000	339.941	79.997	19.995	100.775	19.981	2.508	0.509
528.000	340.993	79.996	19.995	100.777	19.982	2.494	0.509
530.000	342.000	79.996	19.995	100.777	19.985	2.301	0.520
532.000	342.938	79.994	19.995	100.774	19.984	2.364	0.480
534.000	343.967	79.995	19.996	100.765	19.982	2.447	0.508
536.000	344.951	79.994	19.996	100.767	19.983	2.375	0.487
538.000	345.980	79.994	19.997	100.778	19.982	2.440	0.488
540.000	346.928	79.993	19.996	100.773	19.983	2.393	0.499
542.000	347.963	79.994	19.997	100.777	19.985	2.238	0.527
544.000	348.972	79.993	19.996	100.775	19.983	2.382	0.485
546.000	349.987	79.993	19.997	100.773	19.987	2.144	0.504
548.000	350.970	79.993	19.997	100.777	19.984	2.304	0.504
550.000	351.941	79.995	19.996	100.774	19.983	2.429	0.520
552.000	352.955	79.994	19.994	100.775	19.980	2.578	0.505
554.000	354.004	79.995	19.995	100.780	19.981	2.567	0.494
556.000	354.992	79.995	19.995	100.766	19.982	2.436	0.471
558.000	355.982	79.994	19.995	100.758	19.981	2.509	0.505
560.000	357.008	79.995	19.994	100.770	19.984	2.342	0.490
562.000	358.000	79.993	19.996	100.772	19.983	2.420	0.510
564.000	358.974	79.994	19.995	100.773	19.983	2.412	0.486
566.000	359.920	79.993	19.995	100.767	19.983	2.428	0.481
568.000	360.949	79.993	19.996	100.760	19.984	2.306	0.530
570.000	361.944	79.994	19.995	100.764	19.984	2.322	0.474
572.000	362.930	79.996	19.994	100.760	19.984	2.355	0.505
574.000	363.927	79.997	19.995	100.763	19.984	2.330	0.516
576.000	364.924	79.996	19.996	100.754	19.981	2.509	0.503
578.000	365.937	79.996	19.995	100.755	19.984	2.319	0.488
580.000	366.921	79.997	19.995	100.748	19.983	2.427	0.509
582.000	367.899	79.997	19.995	100.757	19.981	2.504	0.497
584.000	368.934	79.996	19.995	100.761	19.981	2.538	0.507
586.000	369.925	79.996	19.995	100.762	19.977	2.801	0.474
588.000	370.925	79.996	19.995	100.754	19.979	2.637	0.514
590.000	371.889	79.995	19.995	100.757	19.983	2.414	0.463
592.000	372.949	79.997	19.996	100.767	19.982	2.448	0.507
594.000	373.946	79.997	19.995	100.774	19.983	2.425	0.524
596.000	374.921	79.996	19.995	100.765	19.983	2.369	0.499
598.000	375.918	79.997	19.995	100.769	19.983	2.392	0.502
600.000	376.892	79.997	19.995	100.764	19.979	2.680	0.468
602.000	377.917	79.998	19.996	100.757	19.985	2.301	0.511
604.000	378.899	79.999	19.996	100.767	19.986	2.171	0.495
606.000	379.904	79.998	19.996	100.748	19.983	2.397	0.493
608.000	380.929	79.996	19.994	100.748	19.983	2.421	0.491
610.000	381.874	79.996	19.995	100.749	19.985	2.274	0.502
612.000	382.870	79.995	19.996	100.753	19.988	2.088	0.532
614.000	383.864	79.996	19.995	100.743	19.987	2.144	0.495
616.000	384.808	79.994	19.995	100.742	19.984	2.347	0.487
618.000	385.802	79.994	19.997	100.751	19.987	2.161	0.495
620.000	386.787	79.995	19.995	100.760	19.988	2.092	0.476
622.000	387.775	79.994	19.995	100.747	19.988	2.083	0.521
624.000	388.751	79.994	19.995	100.748	19.988	2.056	0.505
626.000	389.739	79.996	19.996	100.745	19.987	2.124	0.482
628.000	390.729	79.995	19.996	100.757	19.986	2.234	0.485
630.000	391.735	79.995	19.996	100.756	19.985	2.241	0.486
632.000	392.670	79.996	19.995	100.758	19.991	1.860	0.474
634.000	393.702	79.994	19.996	100.755	19.989	1.988	0.504
636.000	394.700	79.995	19.997	100.754	19.989	2.002	0.469
638.000	395.713	79.996	19.997	100.747	19.985	2.285	0.474
640.000	396.693	79.995	19.997	100.746	19.984	2.306	0.495
642.000	397.615	79.995	19.997	100.742	19.986	2.187	0.492
644.000	398.591	79.994	19.996	100.751	19.988	2.042	0.462
646.000	399.641	79.996	19.996	100.759	19.984	2.362	0.506
648.000	400.622	79.996	19.995	100.754	19.986	2.195	0.505
650.000	401.616	79.993	19.996	100.748	19.986	2.186	0.495
652.000	402.591	79.995	19.996	100.756	19.988	2.083	0.511
654.000	403.559	79.996	19.996	100.750	19.988	2.097	0.483
656.000	404.551	79.997	19.996	100.743	19.984	2.346	0.482
658.000	405.550	79.997	19.996	100.756	19.985	2.248	0.548
660.000	406.521	79.997	19.996	100.763	19.984	2.324	0.522
662.000	407.521	79.997	19.998	100.766	19.983	2.408	0.495
664.000	408.526	79.998	19.995	100.750	19.984	2.324	0.528
666.000	409.566	79.997	19.996	100.750	19.981	2.540	0.519
668.000	410.541	79.997	19.996	100.752	19.984	2.347	0.515
670.000	411.498	79.997	19.996	100.740	19.985	2.302	0.509
672.000	412.532	79.996	19.996	100.744	19.983	2.430	0.504
674.000	413.533	79.996	19.995	100.752	19.986	2.191	0.502
676.000	414.488	79.997	19.995	100.750	19.985	2.273	0.491
678.000	415.435	79.997	19.996	100.745	19.981	2.514	0.488
680.000	416.424	79.999	19.996	100.745	19.983	2.388	0.474
682.000	417.440	79.997	19.995	100.747	19.986	2.227	0.532
684.000	418.410	79.998	19.995	100.743	19.985	2.238	0.505
686.000	419.463	79.997	19.996	100.746	19.984	2.315	0.521
688.000	420.429	79.998	19.995	100.747	19.985	2.272	0.487
690.000	421.450	79.998	19.995	100.745	19.987	2.121	0.513
692.000	422.435	79.998	19.994	100.750	19.986	2.221	0.490
694.000	423.374	79.997	19.996	100.745	19.983	2.374	0.483
696.000	424.381	79.994	19.994	100.746	19.985	2.277	0.485
698.000	425.405	79.996	19.997	100.751	19.987	2.139	0.508
700.000	426.366	79.995	19.996	100.755	19.987	2.137	0.481
702.000	427.353	79.996	19.996	100.752	19.983	2.415	0.497
704.000	428.420	79.996	19.996	100.750	19.981	2.563	0.550
706.000	429.418	79.994	19.996	100.746	19.981	2.511	0.494
708.000	430.435	79.995	19.996	100.746	19.980	2.570	0.501
710.000	431.433	79.996	19.996	100.745	19.982	2.450	0.547
712.000	432.439	79.995	19.996	100.740	19.983	2.381	0.495
714.000	433.492	79.996	19.995	100.744	19.984	2.349	0.505
716.000	434.541	79.995	19.996	100.743	19.983	2.369	0.518
718.000	435.544	79.995	19.995	100.749	19.987	2.106	0.483
720.000	436.576	79.997	19.995	100.741	19.985	2.291	0.516
722.000	437.625	79.997	19.996	100.744	19.984	2.349	0.504
724.000	438.690	79.997	19.995	100.741	19.985	2.238	0.511
726.000	439.759	79.995	19.997	100.749	19.986	2.201	0.539
728.000	440.785	79.994	19.996	100.746	19.985	2.264	0.525
730.000	441.818	79.995	19.997	100.743	19.986	2.236	0.526
732.000	442.849	79.994	19.997	100.746	19.987	2.151	0.520
734.000	443.922	79.994	19.997	100.747	19.983	2.381	0.530
736.000	444.924	79.995	19.997	100.742	19.987	2.135	0.485
738.000	446.025	79.994	19.996	100.741	19.987	2.146	0.522
740.000	447.089	79.997	19.995	100.744	19.983	2.374	0.526
742.000	448.154	79.997	19.995	100.752	19.989	2.013	0.539
744.000	449.215	79.998	19.996	100.749	19.991	1.860	0.562
746.000	450.279	79.996	19.996	100.743	19.989	1.995	0.529
748.000	451.365	79.997	19.995	100.744	19.990	1.934	0.521
750.000	452.478	79.997	19.996	100.745	19.990	1.970	0.568
752.000	453.470	79.997	19.996	100.742	19.990	1.950	0.512
754.000	454.563	79.998	19.994	100.744	19.987	2.162	0.552
756.000	455.677	79.996	19.996	100.743	19.991	1.864	0.588
758.000	456.707	79.997	19.995	100.744	19.986	2.219	0.496
760.000	457.761	79.997	19.996	100.744	19.991	1.874	0.516
762.000	458.837	79.996	19.995	100.746	19.989	2.031	0.539
764.000	459.891	79.998	19.995	100.748	19.988	2.081	0.507
766.000	460.927	79.998	19.995	100.751	19.986	2.216	0.523
768.000	461.997	79.996	19.997	100.744	19.987	2.167	0.551
770.000	463.067	79.998	19.996	100.741	19.988	2.067	0.531
772.000	464.082	79.998	19.996	100.740	19.988	2.049	0.529
774.000	465.116	79.997	19.997	100.739	19.991	1.858	0.492
776.000	466.177	79.998	19.995	100.740	19.987	2.104	0.533
778.000	467.240	79.997	19.996	100.740	19.989	2.038	0.498
780.000	468.282	79.994	19.996	100.741	19.992	1.828	0.521
782.000	469.304	79.997	19.996	100.744	19.991	1.887	0.556
784.000	470.376	79.996	19.996	100.741	19.989	2.013	0.546
786.000	471.426	79.996	19.995	100.740	19.988	2.050	0.519
788.000	472.474	79.997	19.995	100.741	19.989	2.027	0.549
790.000	473.476	79.996	19.996	100.740	19.988	2.070	0.481
792.000	474.581	79.995	19.996	100.741	19.988	2.047	0.534
794.000	475.595	79.997	19.997	100.740	19.987	2.166	0.517
796.000	476.652	79.997	19.996	100.740	19.987	2.115	0.514
798.000	477.692	79.995	19.996	100.739	19.992	1.819	0.512
800.000	478.694	79.996	19.996	100.739	19.989	2.007	0.495
802.000	479.706	79.994	19.995	100.740	19.990	1.946	0.494
804.000	480.709	79.996	19.995	100.740	19.993	1.731	0.484
806.000	481.745	79.996	19.995	100.741	19.991	1.858	0.495
808.000	482.730	79.994	19.995	100.743	19.989	1.979	0.509
810.000	483.782	79.995	19.995	100.744	19.992	1.837	0.501
812.000	484.805	79.995	19.995	100.745	19.995	1.599	0.512
814.000	485.810	79.996	19.996	100.743	19.993	1.713	0.537
816.000	486.811	79.994	19.996	100.741	19.990	1.923	0.494
818.000	487.884	79.994	19.996	100.744	19.990	1.914	0.522
820.000	488.883	79.996	19.996	100.743	19.992	1.831	0.492
822.000	489.906	79.995	19.997	100.742	19.991	1.840	0.502
824.000	490.929	79.996	19.996	100.741	19.991	1.842	0.502
826.000	491.950	79.997	19.996	100.742	19.991	1.849	0.511
828.000	492.965	79.996	19.997	100.742	19.989	1.989	0.518
830.000	493.994	79.996	19.996	100.741	19.992	1.828	0.505
832.000	495.023	79.996	19.996	100.737	19.993	1.711	0.476
834.000	496.013	79.997	19.996	100.739	19.990	1.930	0.491
836.000	497.052	79.995	19.997	100.738	19.993	1.714	0.505
838.000	498.024	79.996	19.996	100.739	19.991	1.853	0.517
840.000	499.057	79.996	19.995	100.740	19.992	1.838	0.511
842.000	500.012	79.995	19.996	100.740	19.989	1.979	0.486
844.000	501.030	79.997	19.996	100.738	19.993	1.723	0.501
846.000	502.005	79.997	19.996	100.741	19.997	1.506	0.486
848.000	502.984	79.996	19.996	100.742	19.992	1.815	0.472
850.000	503.992	79.997	19.995	100.740	19.991	1.873	0.500
852.000	504.993	79.998	19.996	100.737	19.989	2.023	0.487
854.000	505.998	80.000	19.995	100.738	19.991	1.898	0.510
856.000	506.991	79.999	19.996	100.738	19.992	1.822	0.497
858.000	507.968	79.998	19.996	100.737	19.994	1.702	0.495
860.000	508.970	79.998	19.996	100.736	19.990	1.945	0.505
862.000	510.014	79.996	19.995	100.731	19.993	1.759	0.458
864.000	511.023	79.996	19.995	100.741	19.992	1.835	0.508
866.000	511.993	79.995	19.995	100.740	19.991	1.898	0.475
868.000	512.993	79.996	19.996	100.738	19.991	1.880	0.509
870.000	513.961	79.996	19.995	100.742	19.988	2.049	0.474
872.000	515.053	79.995	19.994	100.740	19.995	1.623	0.512
874.000	516.065	79.994	19.996	100.743	19.995	1.596	0.499
876.000	517.101	79.995	19.995	100.741	19.997	1.490	0.514
878.000	518.094	79.996	19.995	100.741	19.989	2.006	0.489
880.000	519.089	79.996	19.996	100.739	19.991	1.882	0.465
882.000	520.106	79.996	19.996	100.742	19.991	1.887	0.497
884.000	521.139	79.996	19.994	100.742	19.991	1.871	0.471
886.000	522.163	79.995	19.996	100.739	19.991	1.865	0.511
888.000	523.205	79.995	19.995	100.742	19.989	2.022	0.519
890.000	524.185	79.996	19.997	100.742	19.990	1.948	0.481
892.000	525.200	79.995	19.997	100.743	19.991	1.847	0.512
894.000	526.270	79.994	19.996	100.743	19.989	2.033	0.539
896.000	527.293	79.995	19.997	100.744	19.990	1.959	0.516
898.000	528.361	79.996	19.997	100.744	19.990	1.907	0.533
900.000	529.427	79.995	19.997	100.743	19.992	1.785	0.491
902.000	530.501	79.995	19.996	100.739	19.989	2.029	0.539
904.000	531.576	79.997	19.996	100.739	19.991	1.867	0.540
906.000	532.614	79.997	19.996	100.738	19.989	1.993	0.509
908.000	533.692	79.997	19.996	100.740	19.988	2.072	0.501
910.000	534.740	79.998	19.996	100.739	19.987	2.106	0.521
912.000	535.854	79.998	19.997	100.740	19.991	1.901	0.517
914.000	536.875	79.998	19.997	100.738	19.991	1.849	0.512
916.000	537.910	79.996	19.996	100.737	19.988	2.049	0.496
918.000	538.970	79.997	19.996	100.735	19.986	2.207	0.527
920.000	540.052	79.997	19.997	100.733	19.986	2.194	0.519
922.000	541.048	79.996	19.997	100.736	19.987	2.122	0.506
924.000	542.100	79.997	19.998	100.728	19.987	2.137	0.534
926.000	543.173	79.996	19.997	100.733	19.986	2.194	0.514
928.000	544.190	79.999	19.996	100.734	19.990	1.971	0.513
930.000	545.204	79.998	19.996	100.732	19.989	1.993	0.485
932.000	546.233	79.997	19.993	100.730	19.989	2.011	0.517
934.000	547.245	79.997	19.996	100.732	19.991	1.853	0.518
936.000	548.260	80.000	19.995	100.739	19.994	1.693	0.493
938.000	549.253	79.998	19.995	100.730	19.989	1.986	0.520
940.000	550.276	79.997	19.997	100.738	19.985	2.272	0.533
942.000	551.354	79.997	19.996	100.739	19.985	2.277	0.533
944.000	552.307	79.996	19.996	100.739	19.994	1.707	0.520
946.000	553.338	79.995	19.995	100.742	19.987	2.113	0.491
948.000	554.308	79.995	19.995	100.739	19.989	2.025	0.490
950.000	555.344	79.996	19.996	100.741	19.992	1.811	0.531
952.000	556.343	79.995	19.995	100.740	19.992	1.799	0.472
954.000	557.301	79.994	19.996	100.741	19.989	2.002	0.531
956.000	558.296	79.995	19.996	100.727	19.992	1.810	0.499
958.000	559.272	79.996	19.996	100.733	19.993	1.763	0.487
960.000	560.253	79.995	19.997	100.732	19.990	1.943	0.484
962.000	561.209	79.996	19.996	100.734	19.991	1.854	0.512
964.000	562.157	79.997	19.996	100.730	19.996	1.569	0.500
966.000	563.117	79.996	19.996	100.740	19.991	1.896	0.458
968.000	564.104	79.997	19.995	100.732	19.992	1.795	0.491
970.000	565.080	79.995	19.995	100.733	19.993	1.749	0.506
972.000	566.003	79.996	19.995	100.729	19.989	2.016	0.471
974.000	566.956	79.997	19.996	100.722	19.992	1.809	0.466
976.000	567.927	79.995	19.995	100.729	19.990	1.917	0.481
978.000	568.866	79.996	19.996	100.731	19.992	1.792	0.480
980.000	569.830	79.993	19.996	100.737	19.992	1.809	0.463
982.000	570.755	79.995	19.996	100.739	19.991	1.899	0.489
984.000	571.726	79.997	19.996	100.727	19.990	1.971	0.462
986.000	572.682	79.996	19.997	100.728	19.989	2.002	0.521
988.000	573.606	79.998	19.996	100.731	19.993	1.774	0.434
990.000	574.619	79.997	19.996	100.731	19.991	1.851	0.486
992.000	575.610	79.997	19.996	100.723	19.991	1.862	0.484
994.000	576.532	79.999	19.996	100.730	19.994	1.666	0.477
996.000	577.461	80.000	19.996	100.731	19.990	1.950	0.470
998.000	578.427	79.998	19.996	100.729	19.989	2.020	0.464
1000.000	579.357	79.997	19.995	100.727	19.991	1.889	0.431
1002.000	580.303	79.997	19.996	100.729	19.990	1.909	0.452
1004.000	581.266	79.997	19.996	100.739	19.991	1.883	0.495
1006.000	582.248	79.995	19.996	100.737	19.992	1.803	0.473
1008.000	583.185	79.995	19.997	100.737	19.991	1.849	0.478
1010.000	584.148	79.996	19.997	100.739	19.996	1.515	0.519
1012.000	585.095	79.997	19.996	100.739	19.993	1.745	0.455
1014.000	586.112	79.998	19.996	100.738	19.988	2.061	0.504
1016.000	587.106	79.997	19.996	100.741	19.986	2.232	0.499
1018.000	588.082	79.998	19.997	100.739	19.989	1.984	0.495
1020.000	589.129	79.998	19.996	100.739	19.990	1.927	0.494
1022.000	590.155	79.997	19.995	100.742	19.986	2.191	0.498
1024.000	591.184	79.997	19.995	100.741	19.985	2.282	0.511
1026.000	592.178	79.994	19.995	100.740	19.985	2.279	0.491
1027.999	593.248	79.995	19.994	100.738	19.990	1.907	0.497
1030.000	594.282	79.997	19.995	100.738	19.986	2.178	0.500
1031.999	595.352	79.997	19.995	100.735	19.992	1.808	0.547
1033.999	596.404	79.997	19.996	100.738	19.987	2.115	0.570
1035.999	597.417	79.997	19.995	100.740	19.987	2.122	0.482
1037.999	598.439	79.995	19.996	100.740	19.991	1.847	0.532
1039.999	599.473	79.996	19.996	100.740	19.993	1.749	0.521
1041.999	600.543	79.996	19.996	100.739	19.991	1.882	0.538
1043.999	601.583	79.996	19.995	100.737	19.991	1.849	0.520
1045.999	602.591	79.998	19.996	100.738	19.986	2.184	0.515
1047.999	603.597	79.995	19.997	100.738	19.988	2.094	0.492
1049.999	604.593	79.998	19.996	100.740	19.988	2.092	0.502
1051.999	605.657	79.997	19.996	100.738	19.987	2.121	0.495
1053.999	606.661	79.997	19.996	100.735	19.990	1.932	0.504
1055.999	607.657	79.996	19.996	100.740	19.991	1.864	0.486
1057.999	608.667	79.996	19.997	100.741	19.990	1.963	0.499
1059.999	609.685	79.994	19.995	100.741	19.992	1.830	0.494
1061.999	610.710	79.994	19.994	100.739	19.990	1.928	0.490
1063.999	611.752	79.996	19.995	100.740	19.991	1.867	0.525
1066.000	612.786	79.997	19.995	100.741	19.990	1.966	0.503
1068.000	613.773	79.996	19.996	100.743	19.990	1.923	0.525
1070.000	614.830	79.996	19.997	100.743	19.990	1.932	0.529
1071.999	615.880	79.998	19.996	100.743	19.983	2.428	0.535
1073.999	616.911	79.997	19.995	100.743	19.986	2.182	0.510
1076.000	617.941	79.997	19.996	100.740	19.986	2.232	0.523
1077.999	618.925	79.996	19.995	100.741	19.983	2.381	0.471
1079.999	619.961	79.996	19.996	100.742	19.991	1.887	0.494
1081.999	620.984	79.996	19.995	100.740	19.987	2.155	0.533
1083.999	621.990	79.996	19.996	100.744	19.984	2.349	0.514
1085.999	623.022	79.997	19.996	100.747	19.988	2.095	0.486
1087.999	624.031	79.997	19.997	100.744	19.983	2.395	0.502
1089.999	625.006	79.997	19.996	100.743	19.989	2.002	0.498
1091.999	626.029	79.996	19.994	100.744	19.991	1.905	0.511
1093.999	627.048	79.996	19.996	100.742	19.988	2.098	0.506
1095.999	628.042	79.997	19.996	100.733	19.989	2.012	0.514
1097.999	629.065	79.998	19.996	100.733	19.989	1.988	0.489
1099.999	630.067	80.000	19.997	100.737	19.991	1.851	0.517
1101.999	631.047	79.998	19.995	100.737	19.984	2.322	0.493
1103.999	632.049	79.995	19.996	100.703	19.987	2.153	0.505
1105.999	633.045	79.995	19.996	100.734	19.987	2.135	0.520
1107.999	634.032	79.996	19.998	100.781	19.991	1.867	0.503
1110.001	635.077	79.995	19.996	100.738	19.988	2.086	0.529
1111.999	636.067	79.996	19.997	100.738	19.990	1.907	0.502
1113.999	637.073	79.997	19.996	100.739	19.991	1.867	0.479
1115.999	638.052	79.998	19.997	100.739	19.988	2.054	0.495
1118.000	639.076	79.996	19.995	100.739	19.987	2.142	0.507
1119.999	640.054	79.997	19.997	100.739	19.987	2.166	0.486
1122.000	641.068	79.994	19.995	100.740	19.987	2.106	0.518
1123.999	642.088	79.997	19.997	100.740	19.987	2.164	0.536
1125.999	643.105	79.995	19.995	100.739	19.991	1.882	0.538
1127.999	644.062	79.997	19.997	100.741	19.987	2.112	0.474
1129.999	645.130	79.994	19.995	100.740	19.984	2.362	0.518
1132.001	646.081	79.996	19.996	100.740	19.986	2.203	0.470
1133.999	647.107	79.996	19.995	100.745	19.989	2.002	0.491
1135.999	648.119	79.997	19.997	100.744	19.986	2.232	0.516
1138.000	649.133	79.996	19.996	100.752	19.995	1.634	0.503
1139.999	650.224	79.993	19.995	100.745	19.992	1.806	0.551
1141.999	651.214	79.996	19.996	100.742	19.989	1.991	0.520
1143.999	652.241	79.995	19.995	100.743	19.987	2.149	0.511
1146.000	653.300	79.998	19.995	100.744	19.989	2.006	0.489
1147.999	654.359	79.997	19.996	100.744	19.983	2.419	0.517
1149.999	655.439	79.998	19.996	100.745	19.988	2.042	0.529
1151.999	656.483	79.998	19.996	100.745	19.985	2.279	0.536
1153.999	657.540	79.998	19.996	100.746	19.990	1.941	0.525
1155.999	658.551	79.998	19.996	100.745	19.989	2.009	0.477
1157.999	659.647	79.998	19.995	100.743	19.984	2.315	0.526
1160.000	660.677	79.999	19.996	100.743	19.992	1.813	0.519
1161.999	661.734	79.996	19.997	100.741	19.988	2.051	0.530
1164.000	662.742	79.998	19.997	100.741	19.989	2.036	0.521
1165.999	663.862	79.998	19.998	100.741	19.991	1.900	0.543
1167.999	664.908	79.997	19.997	100.742	19.991	1.900	0.546
1169.999	665.965	79.996	19.996	100.742	19.986	2.227	0.537
1171.999	667.023	79.996	19.997	100.740	19.994	1.695	0.519
1173.999	668.058	79.999	19.997	100.742	19.986	2.214	0.542
1175.999	669.131	79.998	19.996	100.739	19.980	2.615	0.534
1177.999	670.146	79.998	19.995	100.742	19.986	2.175	0.508
1179.999	671.175	79.999	19.995	100.742	19.988	2.081	0.523
1182.000	672.198	80.000	19.997	100.739	19.988	2.076	0.504
1183.999	673.237	79.997	19.996	100.740	19.987	2.121	0.517
1186.000	674.267	79.997	19.996	100.739	19.992	1.778	0.500
1187.999	675.304	79.997	19.997	100.739	19.987	2.162	0.525
1189.999	676.358	79.995	19.997	100.741	19.992	1.812	0.504
1191.999	677.333	79.995	19.996	100.741	19.989	2.036	0.514
1193.999	678.385	79.995	19.998	100.748	19.990	1.921	0.500
1195.999	679.419	79.995	19.997	100.757	19.982	2.459	0.520
1197.999	680.445	79.995	19.999	100.747	19.996	1.531	0.516
1200.000	681.486	79.994	19.996	100.743	19.984	2.356	0.511
1201.999	682.520	79.995	19.998	100.746	19.981	2.509	0.521
1203.999	683.564	79.995	19.997	100.744	19.987	2.139	0.530
1205.999	684.598	79.996	19.997	100.739	19.990	1.945	0.513
1207.999	685.614	79.994	19.995	100.742	19.992	1.830	0.517
1210.000	686.571	79.995	19.994	100.741	19.990	1.909	0.469
1211.999	687.652	79.996	19.995	100.741	19.984	2.313	0.494
1213.999	688.665	79.994	19.995	100.745	19.978	2.748	0.519
1215.999	689.662	79.994	19.996	100.744	19.986	2.178	0.552
1217.999	690.719	79.994	19.995	100.748	19.984	2.342	0.535
1220.000	691.699	79.993	19.995	100.747	19.982	2.453	0.498
1221.999	692.661	79.995	19.995	100.744	19.996	1.551	0.470
1223.999	693.697	79.995	19.995	100.743	19.983	2.408	0.503
1225.999	694.654	79.995	19.996	100.742	19.984	2.326	0.510
1228.000	695.644	79.993	19.995	100.741	19.985	2.300	0.499
1229.999	696.687	79.995	19.995	100.742	19.984	2.338	0.495
1231.999	697.704	79.996	19.996	100.741	19.982	2.480	0.509
1233.999	698.703	79.994	19.996	100.741	19.986	2.210	0.516
1235.999	699.694	79.998	19.995	100.740	19.985	2.282	0.501
1237.999	700.680	79.997	19.994	100.744	19.978	2.701	0.503
1239.999	701.687	79.998	19.996	100.744	19.979	2.669	0.506
1241.999	702.694	79.998	19.996	100.740	19.980	2.599	0.516
1243.999	703.704	79.997	19.995	100.739	19.983	2.374	0.495
1245.999	704.695	79.995	19.994	100.740	19.979	2.683	0.475
1247.999	705.674	79.998	19.997	100.738	19.985	2.290	0.496
1249.999	706.704	79.997	19.995	100.738	19.987	2.164	0.522
1251.999	707.725	79.997	19.996	100.742	19.986	2.221	0.484
1253.999	708.739	79.996	19.995	100.741	19.983	2.424	0.478
1255.999	709.760	79.998	19.997	100.742	19.990	1.971	0.526
1257.999	710.757	79.997	19.996	100.742	19.981	2.516	0.485
1259.999	711.757	79.997	19.995	100.742	19.989	2.025	0.485
1262.000	712.800	79.999	19.996	100.740	19.980	2.580	0.511
1264.000	713.785	79.999	19.996	100.738	19.987	2.165	0.495
1265.999	714.831	80.001	19.997	100.736	19.987	2.144	0.544
1267.999	715.851	79.996	19.995	100.739	19.985	2.284	0.538
1269.999	716.851	79.995	19.997	100.739	19.987	2.124	0.526
1271.999	717.845	79.995	19.996	100.735	19.986	2.200	0.493
1273.999	718.835	79.998	19.996	100.730	19.986	2.189	0.515
1275.999	719.858	79.994	19.994	100.734	19.989	1.995	0.503
1277.999	720.822	79.994	19.996	100.738	19.986	2.185	0.482
1279.999	721.817	79.995	19.996	100.738	19.988	2.063	0.504
1281.999	722.798	79.996	19.995	100.740	19.993	1.772	0.489
1283.999	723.752	79.995	19.995	100.730	19.990	1.950	0.485
1285.999	724.716	79.995	19.996	100.734	19.992	1.809	0.447
1287.999	725.789	79.995	19.997	100.736	19.990	1.941	0.518
1289.999	726.734	79.995	19.997	100.738	19.988	2.070	0.503
1291.999	727.788	79.995	19.997	100.735	19.987	2.128	0.524
1293.999	728.781	79.994	19.997	100.736	19.988	2.086	0.508
1295.999	729.821	79.996	19.996	100.725	19.987	2.127	0.497
1297.999	730.800	79.996	19.997	100.734	19.986	2.181	0.537
1299.999	731.819	79.995	19.996	100.738	19.992	1.827	0.522
1301.999	732.772	79.996	19.997	100.736	19.990	1.925	0.504
1304.000	733.760	79.994	19.996	100.727	19.989	2.018	0.474
1306.000	734.806	79.995	19.995	100.716	19.988	2.074	0.498
1307.999	735.760	79.995	19.996	100.726	19.991	1.844	0.503
1309.999	736.772	79.997	19.996	100.720	19.988	2.047	0.500
1312.000	737.755	79.997	19.995	100.732	19.989	2.021	0.507
1313.999	738.754	79.998	19.996	100.735	19.989	1.986	0.511
1315.999	739.744	79.997	19.997	100.727	19.991	1.842	0.510
1318.001	740.742	79.998	19.997	100.735	19.991	1.894	0.500
1319.999	741.742	79.998	19.997	100.739	19.990	1.912	0.516
1321.999	742.737	79.998	19.995	100.737	19.989	1.973	0.486
1323.499	743.468	79.997	19.996	100.721	19.988	2.093	0.519