File: 01_Data/Gypsum_Wallboard_Gypsum_Core/MCC/Gypsum_Wallboard_Gypsum_Core_MCC_30K_min_211004_R3.txt
Sample ID:	C:\MCC\MCC Cal\Test\Gypsum_Wallboard_GypsumCore_MCC_30K_min_211004_R3.txt
Sample Weight (mg):	4.5
Heating Rate (C/s):	0.5
Combustor Temp (C):	900
N2 Flow Rate (cc/min):	80
O2 Flow Rate (cc/min):	20
Calibration File:	C:\MCC\MCC Cal\Coeff1 JN10440_30_210304.txt.txt
T Correction Coefficients:	0	1.024463	0
Time Shift (s):	14
*
Time (s)	Temperature (C)	N2 flow rate (cc/min)	O2 flow rate (cc/min)	Flow Rate (cc/min)	Oxygen (%)	HRR (W/g)	Heating rate (C/s)
0.000	108.340	79.995	19.997	100.583	20.085	0.325	0.015
2.000	108.358	79.994	19.996	100.584	20.088	0.116	0.009
4.000	108.378	79.996	19.997	100.584	20.087	0.201	-0.019
6.000	108.346	79.996	19.995	100.586	20.087	0.230	-0.011
8.000	108.345	79.997	19.995	100.604	20.088	0.133	-0.010
10.000	108.363	79.998	19.996	100.617	20.083	0.506	0.041
12.000	108.307	79.997	19.996	100.625	20.084	0.378	-0.005
14.000	108.341	79.997	19.995	100.635	20.080	0.700	0.025
16.000	108.387	79.996	19.994	100.659	20.077	0.884	0.035
18.000	108.404	79.995	19.995	100.663	20.073	1.163	-0.003
20.000	108.498	79.994	19.996	100.693	20.070	1.359	0.042
22.000	108.570	79.993	19.996	100.738	20.065	1.747	0.004
24.000	108.678	79.993	19.996	100.738	20.064	1.789	0.054
26.000	108.878	79.994	19.997	100.735	20.062	1.920	0.066
28.000	109.048	79.993	19.997	100.729	20.061	2.020	0.053
30.000	109.289	79.995	19.997	100.738	20.062	1.966	0.108
32.000	109.479	79.994	19.996	100.742	20.058	2.257	0.133
34.000	109.734	79.995	19.996	100.738	20.062	1.944	0.141
35.999	109.951	79.996	19.996	100.729	20.060	2.060	0.089
37.999	110.229	79.996	19.995	100.723	20.062	1.963	0.144
39.999	110.478	79.997	19.996	100.740	20.057	2.271	0.122
41.999	110.800	79.996	19.996	100.745	20.058	2.220	0.161
43.999	111.070	79.995	19.996	100.771	20.058	2.246	0.160
45.999	111.446	79.994	19.995	100.781	20.052	2.656	0.159
47.999	111.793	79.995	19.995	100.782	20.049	2.833	0.213
50.001	112.148	79.995	19.996	100.802	20.051	2.709	0.181
51.999	112.560	79.995	19.995	100.798	20.051	2.740	0.204
53.999	112.973	79.995	19.997	100.799	20.051	2.743	0.197
55.999	113.460	79.994	19.996	100.806	20.048	2.938	0.217
57.999	113.919	79.994	19.996	100.816	20.045	3.122	0.240
59.999	114.359	79.995	19.996	100.817	20.046	3.073	0.202
62.000	114.901	79.996	19.996	100.821	20.043	3.265	0.250
63.999	115.434	79.996	19.995	100.828	20.042	3.366	0.268
66.000	116.025	79.996	19.996	100.823	20.042	3.320	0.288
67.999	116.600	79.996	19.995	100.826	20.043	3.286	0.316
69.999	117.145	79.997	19.996	100.821	20.046	3.064	0.304
71.999	117.757	79.995	19.996	100.838	20.046	3.056	0.300
73.999	118.377	79.995	19.994	100.839	20.046	3.037	0.279
76.000	118.998	79.996	19.996	100.827	20.041	3.452	0.305
77.999	119.699	79.995	19.995	100.838	20.042	3.367	0.364
80.000	120.389	79.994	19.996	100.838	20.042	3.351	0.364
81.999	121.065	79.995	19.996	100.850	20.042	3.330	0.371
84.001	121.769	79.996	19.994	100.853	20.038	3.620	0.332
85.999	122.522	79.996	19.995	100.854	20.040	3.481	0.374
87.999	123.277	79.995	19.995	100.855	20.042	3.363	0.394
89.999	123.968	79.996	19.996	100.851	20.038	3.652	0.345
91.999	124.741	79.997	19.996	100.844	20.039	3.582	0.390
93.999	125.517	79.998	19.996	100.857	20.038	3.611	0.402
95.999	126.328	79.994	19.997	100.849	20.040	3.502	0.422
98.000	127.056	79.995	19.996	100.854	20.037	3.692	0.395
99.999	127.893	79.995	19.997	100.826	20.035	3.833	0.407
101.999	128.728	79.995	19.997	100.870	20.039	3.568	0.402
103.999	129.595	79.994	19.996	100.891	20.040	3.477	0.444
106.000	130.389	79.994	19.996	100.860	20.040	3.483	0.411
107.999	131.284	79.995	19.996	100.857	20.039	3.547	0.422
109.999	132.149	79.994	19.998	100.854	20.042	3.327	0.431
111.999	133.030	79.993	19.996	100.856	20.040	3.477	0.438
113.999	133.964	79.995	19.997	100.855	20.038	3.631	0.457
116.001	134.890	79.995	19.996	100.856	20.037	3.690	0.493
117.999	135.819	79.994	19.997	100.855	20.038	3.593	0.462
120.000	136.742	79.995	19.997	100.855	20.038	3.627	0.481
121.999	137.648	79.996	19.997	100.856	20.040	3.490	0.476
123.999	138.586	79.994	19.997	100.854	20.039	3.572	0.460
126.000	139.550	79.995	19.997	100.856	20.038	3.605	0.461
127.999	140.455	79.994	19.996	100.857	20.038	3.629	0.468
130.000	141.396	79.993	19.996	100.857	20.039	3.581	0.450
132.000	142.392	79.993	19.995	100.859	20.042	3.366	0.486
134.000	143.344	79.994	19.996	100.860	20.040	3.460	0.474
136.000	144.314	79.995	19.996	100.860	20.041	3.437	0.477
138.000	145.291	79.995	19.995	100.858	20.041	3.388	0.478
140.000	146.270	79.994	19.996	100.856	20.037	3.700	0.465
142.000	147.261	79.995	19.996	100.851	20.038	3.661	0.499
144.000	148.276	79.995	19.996	100.850	20.038	3.646	0.513
146.000	149.252	79.997	19.996	100.858	20.041	3.448	0.506
148.000	150.253	79.996	19.995	100.854	20.044	3.195	0.490
150.000	151.196	79.995	19.996	100.856	20.041	3.432	0.472
152.000	152.206	79.997	19.995	100.849	20.043	3.261	0.511
154.000	153.209	79.996	19.996	100.832	20.044	3.212	0.492
156.000	154.104	79.996	19.994	100.840	20.044	3.242	0.468
158.000	155.132	79.996	19.995	100.851	20.044	3.207	0.509
160.000	156.059	79.997	19.996	100.833	20.045	3.155	0.471
162.000	157.112	79.997	19.996	100.827	20.044	3.206	0.498
164.000	158.095	79.996	19.995	100.828	20.042	3.336	0.509
166.000	159.096	79.997	19.995	100.828	20.043	3.248	0.532
168.000	160.067	79.996	19.995	100.845	20.043	3.255	0.529
170.000	161.094	79.997	19.996	100.842	20.044	3.242	0.536
172.000	162.080	79.997	19.996	100.835	20.044	3.214	0.524
174.000	163.055	79.997	19.995	100.832	20.042	3.327	0.493
176.000	164.082	79.995	19.996	100.831	20.047	3.004	0.522
178.000	165.047	79.996	19.996	100.820	20.048	2.926	0.469
180.000	166.088	79.996	19.997	100.820	20.046	3.038	0.524
182.000	167.101	79.995	19.996	100.826	20.047	2.993	0.523
184.000	168.113	79.995	19.996	100.828	20.049	2.886	0.525
186.000	169.116	79.996	19.996	100.816	20.046	3.067	0.532
188.000	170.117	79.995	19.997	100.825	20.045	3.147	0.514
190.000	171.136	79.995	19.996	100.821	20.048	2.941	0.518
192.000	172.103	79.995	19.996	100.821	20.046	3.097	0.504
194.000	173.103	79.996	19.996	100.820	20.046	3.061	0.484
196.000	174.139	79.995	19.995	100.822	20.050	2.818	0.487
198.000	175.137	79.994	19.997	100.821	20.049	2.877	0.481
200.000	176.122	79.994	19.995	100.820	20.049	2.873	0.518
202.000	177.098	79.994	19.996	100.820	20.053	2.582	0.506
204.000	178.117	79.995	19.997	100.819	20.049	2.850	0.492
206.000	179.107	79.994	19.997	100.821	20.052	2.650	0.464
208.000	180.102	79.993	19.997	100.821	20.052	2.618	0.488
210.000	181.107	79.992	19.996	100.820	20.051	2.721	0.482
212.000	182.137	79.994	19.998	100.820	20.047	2.975	0.498
214.000	183.191	79.993	19.996	100.820	20.047	3.008	0.535
216.000	184.189	79.993	19.996	100.822	20.051	2.720	0.528
218.000	185.189	79.993	19.996	100.822	20.048	2.939	0.505
220.000	186.249	79.995	19.995	100.821	20.049	2.827	0.543
222.000	187.273	79.995	19.996	100.821	20.050	2.779	0.527
224.000	188.247	79.996	19.995	100.818	20.054	2.524	0.518
226.000	189.244	79.997	19.996	100.814	20.053	2.604	0.493
228.000	190.243	79.996	19.996	100.815	20.055	2.442	0.503
230.000	191.247	79.996	19.995	100.811	20.055	2.471	0.506
232.000	192.281	79.996	19.995	100.813	20.053	2.604	0.484
234.000	193.287	79.996	19.997	100.813	20.051	2.724	0.481
236.000	194.313	79.995	19.996	100.804	20.054	2.520	0.528
238.000	195.290	79.997	19.997	100.803	20.052	2.668	0.485
240.000	196.287	79.995	19.996	100.806	20.055	2.452	0.457
242.000	197.338	79.995	19.995	100.803	20.055	2.454	0.539
244.000	198.321	79.997	19.995	100.796	20.054	2.509	0.514
246.000	199.280	79.997	19.996	100.799	20.051	2.693	0.493
248.000	200.232	79.997	19.996	100.785	20.057	2.330	0.476
250.000	201.228	79.998	19.995	100.803	20.054	2.516	0.505
252.000	202.230	79.998	19.995	100.796	20.053	2.598	0.502
254.000	203.205	79.998	19.995	100.796	20.052	2.640	0.491
256.000	204.144	79.996	19.995	100.793	20.053	2.591	0.458
258.000	205.135	79.996	19.995	100.790	20.053	2.577	0.510
260.000	206.133	79.994	19.996	100.798	20.052	2.655	0.487
262.000	207.070	79.995	19.997	100.791	20.049	2.836	0.488
264.000	208.061	79.995	19.996	100.793	20.051	2.693	0.518
266.000	209.001	79.995	19.996	100.798	20.049	2.855	0.479
268.000	209.963	79.994	19.996	100.803	20.055	2.444	0.471
270.000	210.930	79.996	19.997	100.795	20.058	2.248	0.477
272.000	211.927	79.996	19.996	100.799	20.058	2.222	0.497
274.000	212.839	79.995	19.996	100.803	20.058	2.252	0.449
276.000	213.781	79.995	19.996	100.798	20.055	2.460	0.465
278.000	214.771	79.994	19.996	100.801	20.057	2.264	0.471
280.000	215.732	79.996	19.996	100.795	20.058	2.224	0.472
282.000	216.735	79.996	19.996	100.802	20.058	2.210	0.493
284.000	217.732	79.996	19.995	100.800	20.055	2.408	0.496
286.000	218.741	79.997	19.995	100.764	20.056	2.345	0.506
288.000	219.688	79.995	19.997	100.757	20.061	2.044	0.521
290.000	220.677	79.995	19.997	100.842	20.058	2.206	0.474
292.000	221.672	79.994	19.996	100.786	20.059	2.141	0.494
294.000	222.653	79.996	19.997	100.782	20.058	2.252	0.505
296.000	223.625	79.996	19.998	100.782	20.056	2.368	0.492
298.000	224.574	79.995	19.999	100.782	20.060	2.115	0.494
300.000	225.557	79.996	19.997	100.780	20.055	2.446	0.501
302.000	226.558	79.997	19.997	100.780	20.057	2.314	0.488
304.000	227.469	79.998	19.997	100.779	20.062	1.961	0.496
306.000	228.465	79.997	19.997	100.785	20.059	2.124	0.475
308.000	229.438	79.996	19.997	100.777	20.060	2.065	0.478
310.000	230.440	79.997	19.995	100.780	20.060	2.081	0.472
312.000	231.351	79.997	19.996	100.780	20.059	2.172	0.454
314.000	232.365	79.996	19.995	100.777	20.061	2.018	0.497
316.000	233.306	79.995	19.995	100.781	20.061	2.052	0.488
318.000	234.264	79.996	19.996	100.784	20.060	2.121	0.475
320.000	235.225	79.995	19.995	100.782	20.059	2.174	0.465
322.000	236.135	79.996	19.996	100.785	20.055	2.461	0.488
324.000	237.121	79.996	19.996	100.792	20.053	2.547	0.496
326.000	238.106	79.997	19.994	100.792	20.055	2.459	0.489
328.000	239.064	79.997	19.996	100.795	20.057	2.267	0.487
330.000	240.005	79.998	19.996	100.786	20.054	2.503	0.477
332.000	240.974	79.999	19.994	100.796	20.057	2.321	0.469
334.000	241.997	79.996	19.996	100.805	20.057	2.307	0.503
336.000	243.058	79.996	19.996	100.802	20.062	1.980	0.536
338.000	244.052	79.997	19.994	100.797	20.057	2.309	0.506
340.000	245.062	79.995	19.996	100.802	20.056	2.370	0.530
342.000	246.097	79.994	19.995	100.793	20.060	2.077	0.519
344.000	247.096	79.995	19.994	100.807	20.057	2.301	0.500
346.000	248.103	79.995	19.995	100.796	20.058	2.210	0.501
348.000	249.158	79.995	19.995	100.794	20.055	2.427	0.530
350.000	250.257	79.995	19.995	100.791	20.066	1.691	0.533
352.000	251.297	79.995	19.995	100.788	20.054	2.474	0.531
354.000	252.348	79.994	19.997	100.795	20.058	2.227	0.538
356.000	253.375	79.997	19.997	100.787	20.056	2.360	0.533
358.000	254.422	79.996	19.996	100.793	20.059	2.159	0.489
360.000	255.475	79.995	19.997	100.794	20.055	2.411	0.504
362.000	256.565	79.996	19.996	100.780	20.061	1.983	0.560
364.000	257.555	79.995	19.996	100.788	20.058	2.254	0.490
366.000	258.592	79.994	19.996	100.781	20.058	2.204	0.557
368.000	259.660	79.995	19.996	100.785	20.064	1.839	0.543
370.000	260.721	79.994	19.996	100.782	20.060	2.069	0.550
372.000	261.740	79.994	19.997	100.781	20.060	2.117	0.531
374.000	262.781	79.993	19.996	100.780	20.055	2.434	0.516
376.000	263.830	79.994	19.998	100.780	20.056	2.358	0.513
378.000	264.849	79.995	19.997	100.780	20.055	2.453	0.487
380.000	265.832	79.993	19.996	100.781	20.053	2.544	0.494
382.000	266.879	79.994	19.996	100.782	20.054	2.493	0.525
384.000	267.891	79.996	19.995	100.781	20.057	2.320	0.496
386.000	268.896	79.994	19.997	100.780	20.053	2.579	0.477
388.000	269.902	79.996	19.996	100.780	20.056	2.333	0.492
390.000	270.924	79.995	19.997	100.779	20.054	2.508	0.519
392.000	271.981	79.995	19.997	100.779	20.053	2.579	0.527
394.000	272.984	79.994	19.997	100.779	20.053	2.588	0.497
396.000	273.953	79.994	19.996	100.779	20.052	2.641	0.506
398.000	274.969	79.994	19.997	100.777	20.050	2.806	0.527
400.000	275.941	79.995	19.996	100.779	20.051	2.727	0.478
402.000	276.984	79.994	19.996	100.776	20.051	2.708	0.518
404.000	277.965	79.995	19.995	100.772	20.054	2.498	0.528
406.000	278.939	79.996	19.995	100.778	20.053	2.607	0.484
408.000	279.927	79.996	19.995	100.762	20.059	2.141	0.473
410.000	280.875	79.996	19.995	100.763	20.053	2.548	0.473
412.000	281.850	79.995	19.994	100.773	20.051	2.692	0.489
414.000	282.843	79.997	19.995	100.765	20.053	2.576	0.506
416.000	283.751	79.996	19.996	100.765	20.054	2.497	0.465
418.000	284.754	79.994	19.995	100.763	20.064	1.835	0.503
420.000	285.679	79.994	19.996	100.759	20.063	1.858	0.474
422.000	286.666	79.995	19.996	100.770	20.054	2.484	0.445
424.000	287.584	79.995	19.997	100.764	20.056	2.362	0.436
426.000	288.577	79.994	19.996	100.772	20.057	2.309	0.459
428.000	289.505	79.996	19.996	100.777	20.054	2.541	0.488
430.000	290.482	79.995	19.995	100.778	20.054	2.514	0.398
432.000	291.440	79.996	19.996	100.775	20.051	2.710	0.458
434.000	292.436	79.995	19.996	100.780	20.054	2.516	0.484
436.000	293.497	79.995	19.996	100.778	20.054	2.474	0.506
438.000	294.451	79.996	19.996	100.777	20.051	2.683	0.481
440.000	295.426	79.995	19.995	100.774	20.054	2.503	0.503
442.000	296.417	79.995	19.996	100.770	20.056	2.354	0.497
444.000	297.400	79.997	19.997	100.779	20.058	2.252	0.492
446.000	298.404	79.995	19.996	100.778	20.055	2.451	0.530
448.000	299.426	79.995	19.996	100.781	20.054	2.533	0.489
450.000	300.412	79.993	19.997	100.781	20.056	2.371	0.513
452.000	301.384	79.994	19.996	100.782	20.057	2.309	0.489
454.000	302.387	79.993	19.996	100.782	20.053	2.573	0.487
456.000	303.411	79.995	19.998	100.781	20.049	2.847	0.526
458.000	304.422	79.994	19.995	100.782	20.051	2.718	0.499
460.000	305.416	79.996	19.996	100.778	20.050	2.795	0.481
462.000	306.406	79.996	19.994	100.781	20.052	2.634	0.501
464.000	307.441	79.996	19.996	100.781	20.050	2.794	0.493
466.000	308.409	79.996	19.995	100.783	20.051	2.712	0.501
468.000	309.379	79.995	19.996	100.781	20.047	3.003	0.463
470.000	310.403	79.996	19.995	100.782	20.053	2.588	0.481
472.000	311.463	79.995	19.995	100.776	20.052	2.637	0.546
474.000	312.508	79.995	19.996	100.775	20.056	2.396	0.524
476.000	313.526	79.995	19.997	100.777	20.053	2.569	0.528
478.000	314.529	79.994	19.997	100.776	20.053	2.559	0.503
480.000	315.536	79.994	19.996	100.768	20.057	2.297	0.504
482.000	316.559	79.996	19.997	100.748	20.053	2.571	0.503
484.000	317.591	79.995	19.996	100.759	20.052	2.616	0.526
486.000	318.614	79.998	19.996	100.764	20.054	2.510	0.497
488.000	319.613	79.996	19.994	100.770	20.054	2.504	0.514
490.000	320.626	79.998	19.995	100.754	20.058	2.230	0.528
492.000	321.663	79.998	19.994	100.767	20.056	2.365	0.530
494.000	322.684	79.999	19.996	100.759	20.055	2.409	0.522
496.000	323.670	79.996	19.995	100.769	20.059	2.158	0.477
498.000	324.635	79.997	19.995	100.763	20.054	2.516	0.498
500.000	325.663	79.996	19.996	100.750	20.056	2.335	0.510
502.000	326.678	79.994	19.996	100.748	20.057	2.264	0.502
504.000	327.694	79.995	19.996	100.758	20.056	2.354	0.511
506.000	328.672	79.995	19.995	100.753	20.056	2.396	0.511
508.000	329.647	79.994	19.996	100.759	20.058	2.194	0.486
510.000	330.678	79.996	19.995	100.772	20.059	2.124	0.531
512.000	331.657	79.995	19.995	100.762	20.059	2.135	0.502
514.000	332.671	79.994	19.996	100.751	20.055	2.434	0.547
516.000	333.621	79.994	19.997	100.758	20.057	2.283	0.503
518.000	334.642	79.994	19.996	100.759	20.056	2.394	0.504
520.000	335.635	79.995	19.995	100.757	20.052	2.631	0.497
522.000	336.624	79.994	19.996	100.748	20.057	2.293	0.477
524.000	337.623	79.995	19.995	100.754	20.055	2.447	0.500
526.000	338.598	79.996	19.995	100.752	20.058	2.247	0.496
528.000	339.502	79.996	19.995	100.762	20.061	2.036	0.450
530.000	340.513	79.995	19.996	100.769	20.058	2.238	0.506
532.000	341.512	79.995	19.994	100.750	20.060	2.076	0.517
534.000	342.480	79.994	19.996	100.771	20.060	2.053	0.484
536.000	343.440	79.995	19.995	100.756	20.060	2.103	0.476
538.000	344.431	79.994	19.997	100.754	20.059	2.139	0.498
540.000	345.418	79.994	19.996	100.754	20.058	2.234	0.500
542.000	346.450	79.996	19.997	100.758	20.059	2.177	0.536
544.000	347.431	79.995	19.996	100.764	20.055	2.413	0.487
546.000	348.442	79.997	19.996	100.763	20.059	2.156	0.520
548.000	349.458	79.997	19.995	100.773	20.055	2.465	0.529
550.000	350.421	79.996	19.996	100.776	20.057	2.300	0.488
552.000	351.383	79.997	19.995	100.758	20.054	2.524	0.497
554.000	352.418	79.996	19.996	100.763	20.056	2.373	0.459
556.000	353.460	79.995	19.996	100.754	20.057	2.274	0.548
558.000	354.453	79.996	19.997	100.750	20.058	2.207	0.492
560.000	355.453	79.997	19.997	100.697	20.060	2.101	0.496
562.000	356.412	79.995	19.997	100.798	20.056	2.373	0.479
564.000	357.503	79.997	19.996	100.772	20.053	2.546	0.544
566.000	358.454	79.994	19.997	100.763	20.053	2.559	0.483
568.000	359.509	79.995	19.997	100.761	20.050	2.764	0.535
570.000	360.796	79.998	19.997	100.758	20.049	2.822	0.555
572.000	361.630	79.997	19.998	100.762	20.049	2.822	0.481
574.000	362.680	79.996	19.996	100.761	20.050	2.776	0.648
576.000	363.798	79.996	19.997	100.770	20.053	2.597	0.598
578.000	364.712	79.997	19.998	100.751	20.055	2.443	0.614
580.000	365.681	79.994	19.996	100.758	20.059	2.150	0.537
582.000	366.696	79.995	19.996	100.764	20.056	2.392	0.460
584.000	367.763	79.995	19.996	100.762	20.056	2.361	0.545
586.000	368.751	79.995	19.996	100.766	20.056	2.340	0.529
588.000	369.836	79.994	19.996	100.751	20.057	2.302	0.516
590.000	370.905	79.993	19.995	100.756	20.055	2.409	0.533
592.000	371.928	79.995	19.995	100.758	20.058	2.200	0.529
594.000	373.004	79.994	19.997	100.748	20.057	2.268	0.540
596.000	374.061	79.995	19.995	100.745	20.053	2.591	0.559
598.000	375.111	79.995	19.995	100.755	20.051	2.726	0.527
600.000	376.159	79.995	19.995	100.750	20.053	2.583	0.517
602.000	377.176	79.994	19.997	100.746	20.055	2.443	0.540
604.000	378.209	79.995	19.997	100.745	20.054	2.509	0.514
606.000	379.210	79.994	19.997	100.743	20.050	2.785	0.509
608.000	380.229	79.994	19.996	100.745	20.055	2.418	0.480
610.000	381.179	79.995	19.995	100.744	20.053	2.564	0.468
612.000	382.181	79.995	19.997	100.742	20.055	2.420	0.491
614.000	383.177	79.994	19.996	100.743	20.057	2.302	0.475
616.000	384.203	79.995	19.995	100.744	20.059	2.156	0.487
618.000	385.164	79.996	19.996	100.743	20.060	2.116	0.503
620.000	386.131	79.996	19.996	100.740	20.059	2.152	0.492
622.000	387.160	79.996	19.995	100.741	20.057	2.262	0.509
624.000	388.132	79.996	19.995	100.741	20.055	2.411	0.501
626.000	389.139	79.997	19.995	100.740	20.056	2.384	0.489
628.000	390.147	79.996	19.996	100.741	20.054	2.506	0.476
630.000	391.134	79.997	19.995	100.742	20.055	2.462	0.519
632.000	392.117	79.996	19.996	100.741	20.055	2.439	0.503
634.000	393.126	79.997	19.997	100.746	20.054	2.511	0.501
636.000	394.126	79.995	19.997	100.742	20.054	2.521	0.520
638.000	395.119	79.996	19.996	100.744	20.056	2.367	0.496
640.000	396.077	79.995	19.996	100.741	20.056	2.358	0.521
642.000	397.072	79.996	19.996	100.741	20.058	2.212	0.488
644.000	398.067	79.995	19.995	100.747	20.056	2.392	0.501
646.000	399.094	79.996	19.996	100.751	20.050	2.803	0.526
648.000	400.046	79.996	19.996	100.748	20.053	2.571	0.490
650.000	401.082	79.997	19.995	100.762	20.054	2.533	0.506
652.000	402.091	79.998	19.995	100.777	20.054	2.480	0.503
654.000	403.152	79.997	19.997	100.774	20.056	2.388	0.511
656.000	404.227	79.997	19.996	100.769	20.055	2.445	0.554
658.000	405.217	79.995	19.997	100.769	20.051	2.742	0.500
660.000	406.281	79.994	19.997	100.757	20.056	2.386	0.534
662.000	407.331	79.993	19.997	100.767	20.052	2.666	0.529
664.000	408.453	79.994	19.997	100.769	20.053	2.559	0.562
666.000	409.490	79.994	19.996	100.763	20.050	2.793	0.522
668.000	410.597	79.994	19.997	100.748	20.055	2.439	0.550
670.000	411.634	79.994	19.997	100.759	20.055	2.424	0.506
672.000	412.732	79.996	19.996	100.756	20.054	2.502	0.573
674.000	413.810	79.995	19.996	100.755	20.052	2.671	0.562
676.000	414.882	79.997	19.995	100.749	20.052	2.614	0.536
678.000	415.929	79.996	19.995	100.749	20.050	2.772	0.517
680.000	417.021	79.996	19.996	100.757	20.053	2.606	0.566
682.000	418.141	79.996	19.995	100.760	20.050	2.757	0.586
684.000	419.217	79.995	19.996	100.748	20.051	2.696	0.537
686.000	420.313	79.995	19.996	100.760	20.054	2.473	0.553
688.000	421.382	79.995	19.997	100.748	20.052	2.620	0.529
690.000	422.497	79.994	19.995	100.749	20.050	2.815	0.543
692.000	423.578	79.994	19.996	100.748	20.047	2.981	0.557
694.000	424.632	79.995	19.996	100.746	20.051	2.709	0.538
696.000	425.714	79.995	19.995	100.745	20.054	2.536	0.545
698.000	426.794	79.994	19.996	100.747	20.049	2.848	0.505
700.000	427.877	79.996	19.997	100.750	20.053	2.572	0.533
702.000	428.953	79.995	19.997	100.743	20.054	2.536	0.525
704.000	430.026	79.997	19.995	100.746	20.050	2.798	0.522
706.000	431.099	79.997	19.995	100.741	20.053	2.572	0.523
708.000	432.196	79.997	19.994	100.745	20.052	2.618	0.547
710.000	433.245	79.997	19.995	100.743	20.051	2.701	0.542
712.000	434.332	79.996	19.995	100.742	20.051	2.684	0.540
714.000	435.379	79.996	19.995	100.743	20.053	2.585	0.526
716.000	436.434	79.998	19.995	100.748	20.055	2.403	0.556
718.000	437.483	79.995	19.995	100.754	20.053	2.606	0.545
720.000	438.534	79.996	19.995	100.743	20.054	2.481	0.508
722.000	439.582	79.996	19.995	100.744	20.056	2.401	0.530
724.000	440.659	79.996	19.997	100.744	20.053	2.566	0.541
726.000	441.648	79.996	19.995	100.745	20.053	2.591	0.519
728.000	442.669	79.996	19.997	100.748	20.053	2.599	0.518
730.000	443.728	79.996	19.997	100.748	20.052	2.621	0.518
732.000	444.788	79.996	19.996	100.746	20.051	2.718	0.524
734.000	445.830	79.998	19.997	100.743	20.053	2.551	0.503
736.000	446.869	79.998	19.995	100.740	20.052	2.646	0.512
738.000	447.904	79.998	19.995	100.739	20.048	2.893	0.495
740.000	448.931	79.996	19.996	100.740	20.050	2.806	0.501
742.000	449.927	79.994	19.996	100.738	20.049	2.836	0.504
744.000	450.914	79.995	19.997	100.734	20.051	2.716	0.469
746.000	451.982	79.995	19.995	100.740	20.048	2.893	0.499
748.000	453.003	79.994	19.996	100.740	20.049	2.878	0.502
750.000	454.017	79.995	19.996	100.739	20.048	2.897	0.486
752.000	455.037	79.993	19.997	100.739	20.048	2.945	0.521
754.000	456.071	79.994	19.997	100.739	20.050	2.781	0.488
756.000	457.017	79.995	19.997	100.739	20.050	2.772	0.466
758.000	458.043	79.994	19.996	100.739	20.048	2.952	0.494
760.000	459.092	79.995	19.995	100.738	20.048	2.907	0.472
762.000	460.090	79.995	19.996	100.738	20.052	2.654	0.478
764.000	461.134	79.997	19.996	100.738	20.049	2.863	0.510
766.000	462.123	79.996	19.995	100.736	20.053	2.549	0.525
768.000	463.097	79.995	19.995	100.739	20.051	2.735	0.471
770.000	464.127	79.995	19.996	100.740	20.051	2.737	0.509
772.000	465.122	79.994	19.995	100.741	20.048	2.945	0.502
774.000	466.120	79.995	19.997	100.743	20.050	2.772	0.500
776.000	467.148	79.995	19.996	100.742	20.049	2.853	0.518
778.000	468.174	79.995	19.996	100.741	20.050	2.793	0.516
780.000	469.220	79.995	19.996	100.740	20.049	2.890	0.533
782.000	470.251	79.996	19.996	100.742	20.050	2.819	0.545
784.000	471.238	79.996	19.997	100.743	20.053	2.593	0.498
786.000	472.250	79.997	19.995	100.743	20.050	2.768	0.505
788.000	473.235	79.997	19.996	100.744	20.053	2.542	0.522
790.000	474.312	79.996	19.996	100.742	20.048	2.914	0.519
792.000	475.355	79.996	19.994	100.737	20.049	2.855	0.531
794.000	476.359	79.996	19.996	100.742	20.049	2.834	0.487
796.000	477.371	79.996	19.996	100.743	20.049	2.888	0.527
798.000	478.404	79.998	19.995	100.742	20.052	2.676	0.533
800.000	479.414	79.997	19.996	100.743	20.053	2.589	0.493
802.000	480.460	79.997	19.995	100.741	20.052	2.658	0.521
804.000	481.463	79.997	19.995	100.740	20.052	2.664	0.510
806.000	482.481	79.998	19.994	100.748	20.051	2.719	0.514
808.000	483.513	79.998	19.995	100.740	20.053	2.593	0.509
810.000	484.534	79.998	19.995	100.737	20.055	2.433	0.494
812.000	485.572	79.998	19.996	100.740	20.048	2.931	0.512
814.000	486.600	79.997	19.996	100.709	20.047	3.009	0.540
816.000	487.673	79.998	19.995	100.707	20.052	2.627	0.515
818.000	488.646	79.998	19.995	100.794	20.052	2.625	0.501
820.000	489.687	79.997	19.997	100.738	20.052	2.617	0.521
822.000	490.709	79.997	19.996	100.738	20.052	2.627	0.526
824.000	491.713	79.996	19.996	100.738	20.051	2.707	0.499
826.000	492.771	79.996	19.997	100.737	20.047	3.000	0.503
828.000	493.795	79.996	19.996	100.739	20.049	2.878	0.498
830.000	494.866	79.996	19.996	100.737	20.048	2.918	0.549
832.000	495.850	79.996	19.996	100.735	20.050	2.755	0.482
834.000	496.873	79.995	19.996	100.738	20.047	2.998	0.507
836.000	497.925	79.996	19.997	100.740	20.049	2.848	0.494
838.000	498.912	79.995	19.997	100.740	20.049	2.829	0.494
840.000	499.920	79.995	19.995	100.742	20.053	2.589	0.498
842.000	500.930	79.996	19.996	100.744	20.049	2.827	0.493
844.000	501.964	79.995	19.995	100.741	20.049	2.829	0.532
846.000	503.006	79.995	19.997	100.739	20.046	3.074	0.525
848.000	503.975	79.994	19.996	100.740	20.050	2.800	0.479
850.000	505.034	79.995	19.996	100.738	20.050	2.815	0.519
852.000	506.046	79.994	19.997	100.738	20.051	2.684	0.519
854.000	507.090	79.994	19.995	100.744	20.049	2.830	0.527
856.000	508.103	79.993	19.996	100.733	20.050	2.806	0.525
858.000	509.082	79.995	19.994	100.739	20.047	2.983	0.500
860.000	510.129	79.995	19.995	100.743	20.053	2.568	0.501
862.000	511.133	79.995	19.994	100.739	20.052	2.680	0.521
864.000	512.137	79.997	19.996	100.738	20.051	2.697	0.476
866.000	513.164	79.996	19.996	100.736	20.050	2.777	0.499
868.000	514.226	79.997	19.995	100.739	20.053	2.598	0.511
870.000	515.271	79.998	19.995	100.739	20.049	2.880	0.544
872.000	516.270	79.997	19.996	100.740	20.045	3.165	0.510
874.000	517.343	79.996	19.996	100.739	20.054	2.526	0.535
876.000	518.390	79.997	19.995	100.730	20.047	2.986	0.530
878.000	519.340	79.996	19.996	100.738	20.049	2.868	0.521
880.000	520.401	79.997	19.995	100.727	20.050	2.794	0.519
882.000	521.432	79.997	19.995	100.734	20.049	2.832	0.556
884.000	522.457	79.995	19.996	100.739	20.050	2.785	0.514
886.000	523.441	79.997	19.995	100.740	20.051	2.730	0.507
888.000	524.497	79.997	19.995	100.739	20.051	2.711	0.505
890.000	525.522	79.997	19.995	100.739	20.049	2.838	0.512
892.000	526.568	79.998	19.996	100.741	20.050	2.781	0.524
894.000	527.588	79.999	19.995	100.737	20.049	2.853	0.539
896.000	528.576	79.998	19.995	100.734	20.050	2.802	0.510
898.000	529.630	79.997	19.995	100.733	20.049	2.874	0.503
900.000	530.661	79.998	19.995	100.734	20.046	3.030	0.497
902.000	531.682	79.997	19.995	100.721	20.050	2.785	0.502
904.000	532.643	79.996	19.995	100.732	20.044	3.171	0.486
906.000	533.679	79.995	19.997	100.729	20.049	2.882	0.534
908.000	534.674	79.996	19.996	100.740	20.047	2.990	0.489
910.000	535.740	79.993	19.997	100.731	20.050	2.806	0.529
912.000	536.758	79.995	19.996	100.736	20.049	2.855	0.526
914.000	537.736	79.995	19.995	100.740	20.051	2.697	0.483
916.000	538.751	79.996	19.996	100.736	20.050	2.787	0.487
918.000	539.744	79.995	19.996	100.736	20.049	2.874	0.488
920.000	540.793	79.995	19.995	100.730	20.050	2.788	0.507
922.000	541.810	79.993	19.996	100.742	20.049	2.840	0.499
924.000	542.845	79.994	19.996	100.735	20.054	2.500	0.507
926.000	543.839	79.995	19.997	100.732	20.048	2.950	0.497
928.000	544.830	79.997	19.997	100.743	20.050	2.771	0.523
930.000	545.840	79.995	19.996	100.731	20.048	2.960	0.503
932.000	546.836	79.993	19.996	100.729	20.048	2.943	0.507
934.000	547.858	79.993	19.996	100.739	20.047	3.013	0.487
936.000	548.879	79.993	19.996	100.738	20.047	3.007	0.516
938.000	549.893	79.992	19.997	100.729	20.044	3.231	0.487
940.000	550.905	79.993	19.997	100.732	20.044	3.201	0.495
942.000	551.903	79.994	19.996	100.735	20.044	3.199	0.509
944.000	552.920	79.996	19.995	100.737	20.043	3.254	0.528
946.000	553.941	79.995	19.996	100.734	20.042	3.349	0.537
948.000	554.947	79.996	19.995	100.729	20.044	3.178	0.493
950.000	555.976	79.997	19.994	100.732	20.045	3.165	0.515
952.000	557.001	79.997	19.994	100.737	20.045	3.123	0.510
954.000	558.006	79.996	19.995	100.738	20.042	3.353	0.515
956.000	559.000	79.996	19.995	100.732	20.046	3.034	0.511
958.000	560.031	79.996	19.996	100.738	20.045	3.148	0.542
960.000	561.031	79.996	19.997	100.736	20.044	3.171	0.488
962.000	562.085	79.995	19.994	100.734	20.046	3.049	0.526
964.000	563.106	79.995	19.995	100.737	20.046	3.045	0.522
966.000	564.087	79.996	19.996	100.739	20.042	3.313	0.502
968.000	565.090	79.996	19.994	100.734	20.043	3.270	0.512
970.000	566.131	79.997	19.995	100.741	20.042	3.332	0.510
972.000	567.154	79.996	19.995	100.739	20.041	3.414	0.496
974.000	568.164	79.998	19.995	100.740	20.044	3.209	0.502
976.000	569.198	79.997	19.994	100.729	20.046	3.083	0.495
978.000	570.207	79.997	19.994	100.739	20.042	3.346	0.483
980.000	571.226	79.997	19.994	100.745	20.048	2.943	0.504
982.000	572.223	79.995	19.994	100.739	20.044	3.190	0.504
984.000	573.216	79.996	19.995	100.741	20.047	2.977	0.495
986.000	574.298	79.994	19.994	100.741	20.042	3.363	0.531
988.000	575.312	79.994	19.995	100.739	20.045	3.152	0.500
990.000	576.328	79.995	19.996	100.744	20.044	3.222	0.492
992.000	577.349	79.997	19.995	100.738	20.042	3.332	0.494
994.000	578.377	79.995	19.995	100.742	20.046	3.079	0.506
996.000	579.393	79.995	19.995	100.741	20.042	3.315	0.507
998.000	580.384	79.995	19.995	100.740	20.044	3.218	0.498
1000.000	581.428	79.994	19.996	100.739	20.043	3.304	0.508
1002.000	582.434	79.995	19.996	100.739	20.042	3.351	0.502
1004.000	583.404	79.994	19.997	100.739	20.042	3.349	0.501
1006.000	584.433	79.994	19.995	100.735	20.042	3.361	0.522
1008.000	585.416	79.995	19.995	100.729	20.042	3.378	0.495
1010.000	586.437	79.995	19.996	100.737	20.042	3.370	0.511
1012.000	587.458	79.994	19.995	100.738	20.037	3.703	0.514
1014.000	588.384	79.995	19.997	100.737	20.041	3.448	0.479
1016.000	589.464	79.994	19.997	100.736	20.040	3.488	0.512
1018.000	590.463	79.994	19.996	100.731	20.040	3.467	0.507
1020.000	591.466	79.995	19.996	100.738	20.041	3.429	0.476
1022.000	592.473	79.993	19.996	100.738	20.042	3.346	0.489
1024.000	593.445	79.995	19.996	100.739	20.045	3.114	0.477
1025.999	594.500	79.994	19.995	100.735	20.038	3.602	0.525
1027.999	595.511	79.995	19.996	100.721	20.043	3.279	0.514
1029.999	596.529	79.995	19.996	100.728	20.037	3.701	0.499
1031.999	597.528	79.996	19.997	100.738	20.041	3.424	0.488
1033.999	598.589	79.996	19.996	100.737	20.043	3.285	0.525
1035.999	599.576	79.996	19.996	100.740	20.040	3.509	0.517
1037.999	600.609	79.995	19.996	100.738	20.044	3.237	0.523
1039.999	601.611	79.995	19.995	100.738	20.041	3.395	0.495
1042.000	602.601	79.996	19.995	100.739	20.042	3.355	0.483
1043.999	603.620	79.995	19.996	100.739	20.042	3.332	0.484
1046.000	604.680	79.995	19.996	100.742	20.040	3.492	0.534
1047.999	605.678	79.996	19.995	100.744	20.039	3.532	0.504
1049.999	606.671	79.995	19.995	100.741	20.036	3.769	0.496
1051.999	607.730	79.997	19.996	100.741	20.040	3.462	0.516
1053.999	608.752	79.995	19.994	100.742	20.032	4.026	0.526
1055.999	609.781	79.997	19.995	100.740	20.034	3.878	0.520
1058.000	610.775	79.997	19.996	100.741	20.034	3.931	0.495
1059.999	611.722	79.995	19.996	100.737	20.037	3.724	0.471
1061.999	612.765	79.996	19.996	100.737	20.035	3.865	0.466
1063.999	613.803	79.996	19.996	100.737	20.034	3.914	0.486
1066.000	614.839	79.994	19.996	100.738	20.036	3.792	0.536
1068.001	615.820	79.994	19.996	100.738	20.034	3.927	0.498
1070.000	616.860	79.996	19.996	100.738	20.039	3.530	0.513
1072.000	617.844	79.995	19.995	100.736	20.038	3.652	0.499
1074.000	618.880	79.996	19.996	100.741	20.040	3.498	0.493
1076.000	619.907	79.994	19.995	100.740	20.042	3.359	0.506
1078.000	620.916	79.995	19.996	100.739	20.040	3.464	0.488
1080.000	621.930	79.996	19.996	100.741	20.039	3.568	0.517
1082.000	622.937	79.995	19.994	100.739	20.038	3.637	0.493
1084.000	624.009	79.996	19.996	100.740	20.036	3.787	0.545
1086.000	625.027	79.995	19.996	100.741	20.042	3.374	0.542
1088.000	626.028	79.995	19.997	100.739	20.040	3.477	0.520
1090.000	627.060	79.995	19.997	100.741	20.037	3.667	0.520
1092.000	628.075	79.996	19.995	100.745	20.042	3.357	0.496
1094.000	629.099	79.995	19.997	100.743	20.038	3.625	0.496
1096.000	630.097	79.994	19.998	100.743	20.039	3.572	0.488
1098.000	631.132	79.994	19.996	100.739	20.039	3.547	0.544
1100.000	632.131	79.995	19.998	100.734	20.038	3.656	0.512
1102.000	633.181	79.994	19.995	100.740	20.037	3.669	0.530
1104.000	634.142	79.995	19.997	100.735	20.039	3.536	0.523
1106.000	635.225	79.996	19.996	100.741	20.041	3.407	0.513
1108.000	636.219	79.996	19.996	100.733	20.038	3.646	0.544
1110.000	637.240	79.995	19.994	100.740	20.037	3.713	0.525
1112.000	638.244	79.996	19.995	100.742	20.037	3.726	0.532
1114.000	639.254	79.996	19.996	100.738	20.037	3.688	0.493
1116.000	640.276	79.996	19.996	100.743	20.034	3.922	0.539
1118.000	641.266	79.995	19.996	100.743	20.034	3.880	0.465
1120.000	642.310	79.995	19.995	100.742	20.034	3.870	0.518
1122.001	643.259	79.996	19.998	100.741	20.039	3.551	0.486
1124.000	644.285	79.995	19.997	100.745	20.042	3.372	0.531
1126.000	645.243	79.995	19.997	100.745	20.039	3.581	0.471
1128.000	646.306	79.996	19.997	100.744	20.040	3.483	0.540
1130.000	647.330	79.996	19.996	100.739	20.037	3.665	0.517
1132.000	648.326	79.996	19.995	100.739	20.036	3.743	0.517
1134.000	649.376	79.998	19.996	100.739	20.040	3.511	0.522
1136.000	650.361	79.998	19.995	100.740	20.037	3.720	0.501
1138.000	651.395	79.998	19.996	100.740	20.035	3.829	0.511
1140.000	652.426	79.999	19.995	100.744	20.035	3.853	0.490
1142.000	653.446	79.999	19.997	100.741	20.037	3.724	0.487
1144.000	654.462	79.997	19.997	100.742	20.034	3.937	0.515
1146.000	655.507	79.997	19.996	100.741	20.036	3.793	0.513
1148.000	656.520	79.995	19.996	100.740	20.033	3.951	0.492
1150.000	657.518	79.996	19.996	100.741	20.035	3.833	0.517
1152.000	658.507	79.995	19.996	100.747	20.035	3.857	0.514
1154.000	659.531	79.996	19.997	100.742	20.033	3.992	0.507
1156.000	660.487	79.995	19.997	100.747	20.032	4.078	0.482
1158.000	661.455	79.996	19.997	100.749	20.038	3.641	0.486
1160.000	662.443	79.996	19.996	100.748	20.037	3.709	0.506
1162.000	663.386	79.996	19.996	100.744	20.035	3.850	0.482
1164.000	664.336	79.995	19.995	100.744	20.034	3.910	0.464
1166.000	665.302	79.997	19.997	100.744	20.035	3.844	0.477
1168.000	666.247	79.997	19.994	100.747	20.037	3.667	0.462
1170.000	667.188	79.996	19.994	100.747	20.033	3.981	0.475
1172.000	668.102	79.997	19.996	100.743	20.030	4.175	0.437
1174.000	669.037	79.996	19.996	100.744	20.033	3.983	0.470
1176.000	669.944	79.996	19.995	100.745	20.031	4.099	0.431
1178.000	670.875	79.995	19.997	100.745	20.027	4.363	0.465
1180.000	671.806	79.994	19.995	100.745	20.028	4.344	0.482
1182.000	672.720	79.995	19.996	100.747	20.031	4.122	0.451
1184.000	673.592	79.994	19.996	100.752	20.028	4.314	0.454
1186.000	674.542	79.995	19.997	100.747	20.032	4.061	0.463
1188.000	675.524	79.996	19.996	100.744	20.031	4.099	0.495
1190.000	676.415	79.997	19.996	100.748	20.032	4.034	0.482
1192.000	677.354	79.996	19.995	100.749	20.034	3.906	0.438
1194.000	678.302	79.996	19.996	100.747	20.034	3.909	0.478
1196.000	679.191	79.997	19.996	100.756	20.030	4.211	0.470
1198.000	680.183	79.996	19.995	100.758	20.029	4.222	0.427
1200.000	681.145	79.997	19.995	100.747	20.028	4.289	0.496
1202.000	682.087	79.996	19.996	100.737	20.027	4.403	0.463
1204.000	683.080	79.996	19.996	100.745	20.024	4.605	0.500
1206.000	684.044	79.997	19.996	100.750	20.029	4.251	0.526
1208.001	685.000	79.998	19.996	100.742	20.026	4.494	0.469
1210.000	685.973	79.997	19.996	100.744	20.027	4.426	0.482
1212.000	686.958	79.997	19.997	100.744	20.025	4.502	0.481
1214.000	687.956	79.997	19.997	100.748	20.026	4.454	0.525
1216.000	688.902	79.998	19.997	100.748	20.030	4.188	0.503
1218.000	689.900	79.998	19.995	100.744	20.028	4.313	0.503
1220.000	690.914	79.999	19.996	100.740	20.028	4.317	0.536
1222.000	691.896	79.998	19.995	100.757	20.028	4.293	0.481
1224.000	692.939	79.996	19.996	100.755	20.030	4.171	0.504
1226.000	693.934	79.995	19.994	100.747	20.027	4.424	0.471
1228.000	695.003	79.996	19.995	100.747	20.029	4.240	0.505
1230.000	696.017	79.996	19.997	100.744	20.028	4.320	0.518
1232.000	697.096	79.997	19.995	100.754	20.026	4.466	0.525
1234.000	698.158	79.996	19.995	100.760	20.028	4.302	0.531
1236.000	699.165	79.995	19.995	100.756	20.026	4.447	0.542
1238.000	700.233	79.995	19.996	100.754	20.027	4.363	0.508
1240.000	701.281	79.996	19.995	100.747	20.025	4.500	0.552
1242.000	702.296	79.995	19.994	100.760	20.028	4.351	0.510
1244.000	703.371	79.995	19.995	100.752	20.030	4.217	0.490
1246.000	704.395	79.995	19.995	100.750	20.026	4.454	0.514
1248.000	705.432	79.995	19.996	100.749	20.028	4.340	0.501
1250.000	706.480	79.995	19.994	100.747	20.027	4.407	0.530
1252.000	707.504	79.995	19.995	100.742	20.027	4.396	0.517
1254.000	708.532	79.994	19.996	100.745	20.029	4.276	0.516
1256.000	709.568	79.994	19.995	100.742	20.025	4.548	0.560
1258.000	710.611	79.996	19.995	100.743	20.027	4.393	0.542
1260.000	711.594	79.995	19.994	100.746	20.031	4.125	0.483
1262.000	712.636	79.994	19.995	100.760	20.029	4.241	0.508
1264.001	713.681	79.996	19.995	100.748	20.021	4.796	0.527
1266.000	714.752	79.995	19.995	100.772	20.025	4.524	0.549
1268.000	715.814	79.996	19.996	100.753	20.025	4.541	0.537
1270.000	716.823	79.997	19.996	100.746	20.021	4.794	0.506
1272.000	717.863	79.997	19.996	100.743	20.024	4.570	0.503
1274.000	718.970	79.998	19.997	100.745	20.021	4.787	0.571
1276.000	720.023	79.997	19.996	100.740	20.020	4.884	0.517
1278.001	721.048	79.996	19.996	100.739	20.022	4.743	0.547
1280.000	722.099	79.997	19.996	100.744	20.019	4.971	0.513
1282.000	723.166	79.997	19.996	100.744	20.019	4.976	0.543
1284.000	724.202	79.996	19.996	100.744	20.023	4.705	0.522
1286.000	725.296	79.996	19.997	100.744	20.022	4.718	0.529
1288.000	726.334	79.996	19.996	100.742	20.026	4.445	0.529
1290.000	727.399	79.997	19.996	100.742	20.022	4.758	0.543
1292.000	728.466	79.997	19.995	100.754	20.022	4.768	0.537
1294.000	729.531	79.997	19.995	100.752	20.023	4.642	0.540
1296.000	730.570	79.997	19.996	100.744	20.023	4.642	0.516
1298.000	731.601	79.998	19.996	100.742	20.023	4.661	0.501
1300.000	732.693	79.997	19.997	100.741	20.027	4.420	0.523
1302.000	733.692	79.997	19.997	100.740	20.022	4.711	0.521
1304.000	734.743	79.996	19.996	100.743	20.024	4.606	0.510
1306.000	735.772	79.996	19.996	100.744	20.025	4.540	0.518
1308.000	736.806	79.994	19.997	100.745	20.024	4.636	0.524
1310.000	737.800	79.994	19.997	100.743	20.027	4.405	0.503
1312.000	738.827	79.994	19.996	100.741	20.023	4.638	0.484
1314.000	739.835	79.996	19.997	100.742	20.026	4.479	0.493
1316.000	740.827	79.994	19.995	100.741	20.021	4.811	0.493
1318.000	741.833	79.995	19.996	100.740	20.023	4.701	0.509
1320.000	742.879	79.995	19.997	100.742	20.022	4.749	0.515
1321.500	743.648	79.997	19.996	100.742	20.023	4.669	0.497