File: 01_Data/Eucalyptus_Flooring/STA/N2/30K_min/EUC_STA_N2_30KData_211312_R2.csv
##Temp./Â°C,Time/min,Mass loss(subtr.2)/mg,DSC(subtr.2)/(mW/mg),Sensit./(uV/mW)
48.563,10.00917,-0.04321,0.01942007,1.06963
49.163,10.53078,-0.04513649,0.05949284,1.06958
49.763,10.64922,-0.04475059,0.09512854,1.06952
50.363,10.73373,-0.04472728,0.12475,1.06947
50.963,10.80335,-0.04420047,0.15309,1.06941
51.563,10.86255,-0.045798,0.17888,1.06936
52.163,10.91581,-0.04533697,0.20433,1.0693
52.763,10.96425,-0.04514403,0.2269,1.06924
53.363,11.009,-0.04606675,0.24832,1.06918
53.963,11.05109,-0.0465853,0.26855,1.06912
54.563,11.09068,-0.04737342,0.28901,1.06906
55.163,11.12833,-0.04665618,0.30716,1.069
55.763,11.16455,-0.04502258,0.32608,1.06893
56.363,11.199,-0.04484312,0.34355,1.06887
56.963,11.23247,-0.04585905,0.35856,1.0688
57.563,11.26505,-0.04619717,0.37436,1.06874
58.163,11.29683,-0.04662015,0.39008,1.06867
58.763,11.32753,-0.04602159,0.40468,1.0686
59.363,11.3576,-0.04669405,0.42138,1.06853
59.963,11.3868,-0.04684283,0.43386,1.06846
60.563,11.41536,-0.0468409,0.44894,1.06839
61.163,11.44333,-0.04686298,0.46053,1.06832
61.763,11.47095,-0.04748884,0.47384,1.06824
62.363,11.49801,-0.04766549,0.48759,1.06817
62.963,11.52475,-0.04816943,0.49846,1.06809
63.563,11.55105,-0.04886285,0.51138,1.06802
64.163,11.57703,-0.04903708,0.52319,1.06794
64.763,11.60277,-0.04889722,0.53436,1.06786
65.363,11.6282,-0.04800953,0.54381,1.06778
65.963,11.65313,-0.04844909,0.55662,1.0677
66.563,11.67802,-0.04930585,0.56676,1.06762
67.163,11.70255,-0.04922235,0.57746,1.06754
67.763,11.727,-0.04879533,0.58642,1.06745
68.363,11.75121,-0.04761804,0.59343,1.06737
68.963,11.7752,-0.04674347,0.6057,1.06728
69.563,11.7989,-0.04771286,0.61605,1.0672
70.163,11.82247,-0.04798792,0.62447,1.06711
70.763,11.84576,-0.04815192,0.63349,1.06702
71.363,11.86908,-0.04846949,0.64154,1.06693
71.963,11.89231,-0.04903985,0.65109,1.06684
72.563,11.91548,-0.04941153,0.65887,1.06675
73.163,11.93851,-0.05016651,0.66582,1.06666
73.763,11.96129,-0.05059938,0.67434,1.06656
74.363,11.98395,-0.05040143,0.68285,1.06647
74.963,12.00642,-0.05060754,0.68994,1.06637
75.563,12.0289,-0.05143877,0.7,1.06628
76.163,12.0512,-0.0509642,0.70567,1.06618
76.763,12.07343,-0.05095035,0.71528,1.06608
77.363,12.09556,-0.05164484,0.72059,1.06598
77.963,12.11759,-0.05256941,0.72725,1.06588
78.563,12.1397,-0.0531755,0.73578,1.06578
79.163,12.16162,-0.05252307,0.74341,1.06568
79.763,12.18331,-0.05128758,0.75038,1.06558
80.363,12.2051,-0.05262865,0.7576,1.06547
80.963,12.22678,-0.05293488,0.76309,1.06537
81.563,12.24842,-0.05227189,0.76981,1.06526
82.163,12.2703,-0.05294698,0.77551,1.06515
82.763,12.29185,-0.05314698,0.77967,1.06505
83.363,12.31334,-0.05381729,0.78857,1.06494
83.963,12.33475,-0.05319486,0.79426,1.06483
84.563,12.3561,-0.05372299,0.79908,1.06472
85.163,12.37743,-0.05324464,0.80504,1.06461
85.763,12.39863,-0.05483875,0.80909,1.06449
86.363,12.41975,-0.05356601,0.81619,1.06438
86.963,12.44082,-0.05485913,0.82333,1.06426
87.563,12.4618,-0.05391474,0.82653,1.06415
88.163,12.48275,-0.0547419,0.83225,1.06403
88.763,12.5036,-0.05483677,0.83774,1.06391
89.363,12.52448,-0.05480139,0.84406,1.0638
89.963,12.54532,-0.05505999,0.84799,1.06368
90.563,12.5661,-0.05534488,0.85182,1.06356
91.163,12.587,-0.05622672,0.8578,1.06343
91.763,12.60781,-0.05558397,0.86174,1.06331
92.363,12.62856,-0.05638496,0.86592,1.06319
92.963,12.64925,-0.05637951,0.8689,1.06306
93.563,12.66992,-0.05540866,0.87175,1.06294
94.163,12.69053,-0.05634918,0.8775,1.06281
94.763,12.7111,-0.05636663,0.88176,1.06269
95.363,12.73167,-0.05634299,0.88487,1.06256
95.963,12.7522,-0.05725468,0.88626,1.06243
96.563,12.77272,-0.05625845,0.89225,1.0623
97.163,12.79323,-0.05635599,0.89365,1.06217
97.763,12.81372,-0.05717184,0.89582,1.06204
98.363,12.83414,-0.05765261,0.89977,1.0619
98.963,12.85455,-0.05763209,0.90303,1.06177
99.563,12.8749,-0.05890877,0.90489,1.06164
100.163,12.89526,-0.06002662,0.90642,1.0615
100.763,12.91568,-0.05998542,0.90769,1.06136
101.363,12.93605,-0.06105695,0.9112,1.06123
101.963,12.9564,-0.06134442,0.91111,1.06109
102.563,12.97665,-0.06010341,0.91617,1.06095
103.163,12.9969,-0.05998753,0.91564,1.06081
103.763,13.01717,-0.05942157,0.9177,1.06067
104.363,13.0375,-0.06017275,0.91725,1.06052
104.963,13.05772,-0.06022465,0.91824,1.06038
105.563,13.07797,-0.06109046,0.92151,1.06024
106.163,13.0982,-0.06153118,0.92148,1.06009
106.763,13.11841,-0.06153006,0.92373,1.05995
107.363,13.1387,-0.06152988,0.9231,1.0598
107.963,13.1589,-0.06152905,0.92276,1.05965
108.563,13.1791,-0.06152598,0.92421,1.0595
109.163,13.1993,-0.06285045,0.92343,1.05935
109.763,13.2194,-0.06285006,0.92314,1.0592
110.363,13.2395,-0.06284998,0.92353,1.05905
110.963,13.2596,-0.06284952,0.92438,1.0589
111.563,13.2797,-0.06284115,0.92528,1.05875
112.163,13.2999,-0.06388541,0.92366,1.05859
112.763,13.32006,-0.06412065,0.92251,1.05844
113.363,13.3402,-0.06357699,0.92435,1.05828
113.963,13.3603,-0.06482438,0.92257,1.05812
114.563,13.3804,-0.06481871,0.92382,1.05797
115.163,13.4005,-0.0647953,0.92398,1.05781
115.763,13.4206,-0.06414282,0.92268,1.05765
116.363,13.44069,-0.06415873,0.92393,1.05749
116.963,13.46081,-0.0641599,0.92184,1.05732
117.563,13.48091,-0.06415998,0.92367,1.05716
118.163,13.50095,-0.06415983,0.92339,1.057
118.763,13.52099,-0.06415757,0.92017,1.05683
119.363,13.5409,-0.06412721,0.92208,1.05667
119.963,13.56091,-0.06526382,0.92066,1.0565
120.563,13.581,-0.06546851,0.92283,1.05634
121.163,13.60094,-0.06546999,0.92209,1.05617
121.763,13.62086,-0.06547127,0.92186,1.056
122.363,13.6408,-0.06497021,0.92202,1.05583
122.963,13.66061,-0.06495665,0.92332,1.05566
123.563,13.6805,-0.06547246,0.9225,1.05549
124.163,13.7003,-0.06547951,0.92386,1.05531
124.763,13.7201,-0.06547989,0.92482,1.05514
125.363,13.7399,-0.06547912,0.92764,1.05497
125.963,13.75956,-0.06547351,0.92767,1.05479
126.563,13.77929,-0.06648057,0.9272,1.05462
127.163,13.79906,-0.06680012,0.92918,1.05444
127.763,13.81874,-0.06679992,0.93061,1.05426
128.363,13.8386,-0.06679785,0.93259,1.05408
128.963,13.8583,-0.06675992,0.93589,1.0539
129.563,13.8781,-0.06811786,0.93749,1.05372
130.163,13.89781,-0.06896475,0.9358,1.05354
130.763,13.91745,-0.06942271,0.93875,1.05336
131.363,13.9371,-0.06942585,0.94156,1.05317
131.963,13.9566,-0.06950743,0.94376,1.05299
132.563,13.9761,-0.06813605,0.94484,1.05281
133.163,13.99569,-0.06811137,0.94542,1.05262
133.763,14.0152,-0.06811025,0.9495,1.05243
134.363,14.03476,-0.06811197,0.95064,1.05224
134.963,14.0543,-0.06818136,0.95279,1.05206
135.563,14.07381,-0.06951236,0.95542,1.05187
136.163,14.0933,-0.06942728,0.95824,1.05168
136.763,14.1128,-0.06942554,0.9596,1.05149
137.363,14.1322,-0.06947878,0.96243,1.05129
137.963,14.1517,-0.0682735,0.9637,1.0511
138.563,14.17111,-0.06811154,0.96684,1.05091
139.163,14.1905,-0.06810994,0.96823,1.05071
139.763,14.20999,-0.06810884,0.97215,1.05052
140.363,14.2294,-0.06810569,0.97555,1.05032
140.963,14.2488,-0.0690797,0.97911,1.05012
141.563,14.2681,-0.06997922,0.98191,1.04992
142.163,14.28745,-0.07041893,0.98381,1.04972
142.763,14.30671,-0.07067365,0.98497,1.04952
143.363,14.32591,-0.07078496,0.98796,1.04932
143.963,14.34518,-0.06961287,0.99158,1.04912
144.563,14.3645,-0.07032331,0.99543,1.04892
145.163,14.38375,-0.07063138,0.99746,1.04872
145.763,14.403,-0.07194418,0.99914,1.04851
146.363,14.4222,-0.07204798,1.00268,1.04831
146.963,14.4415,-0.0720498,1.00443,1.0481
147.563,14.46064,-0.07204943,1.00883,1.04789
148.163,14.47986,-0.07204652,1.01132,1.04769
148.763,14.499,-0.07074972,1.01504,1.04748
149.363,14.51821,-0.07075053,1.01712,1.04727
149.963,14.53735,-0.07123287,1.02216,1.04706
150.563,14.5565,-0.07219557,1.02424,1.04685
151.163,14.5756,-0.07227164,1.02929,1.04663
151.763,14.5947,-0.07351457,1.03079,1.04642
152.363,14.61377,-0.07451316,1.03637,1.04621
152.963,14.6327,-0.07478638,1.03874,1.04599
153.563,14.6517,-0.07479912,1.03994,1.04578
154.163,14.6708,-0.07479995,1.04534,1.04556
154.763,14.68987,-0.0748,1.04782,1.04534
155.363,14.70889,-0.0748,1.05089,1.04513
155.963,14.72812,-0.0748,1.05174,1.04491
156.563,14.74726,-0.0748,1.05533,1.04469
157.163,14.76626,-0.0748,1.05788,1.04447
157.763,14.78535,-0.0748,1.06268,1.04425
158.363,14.8044,-0.07480006,1.06472,1.04402
158.963,14.82339,-0.07480079,1.06937,1.0438
159.563,14.84232,-0.07480839,1.07147,1.04358
160.163,14.86134,-0.07488685,1.07497,1.04335
160.763,14.88004,-0.07613268,1.07907,1.04313
161.363,14.89908,-0.07677429,1.08057,1.0429
161.963,14.91806,-0.07711793,1.08337,1.04267
162.563,14.93701,-0.07737261,1.08774,1.04245
163.163,14.956,-0.07742434,1.08867,1.04222
163.763,14.9752,-0.07742945,1.09445,1.04199
164.363,14.9941,-0.07742951,1.098,1.04176
164.963,15.01299,-0.07742479,1.09748,1.04153
165.563,15.03191,-0.07803306,1.1017,1.04129
166.163,15.0509,-0.0787309,1.10448,1.04106
166.763,15.0698,-0.07874866,1.10985,1.04083
167.363,15.0887,-0.07904101,1.11312,1.04059
167.963,15.1076,-0.08009894,1.11501,1.04036
168.563,15.1265,-0.08007377,1.11794,1.04012
169.163,15.1453,-0.08007038,1.12116,1.03988
169.763,15.16417,-0.08007004,1.12452,1.03964
170.363,15.183,-0.08007011,1.12638,1.03941
170.963,15.2018,-0.08007105,1.13104,1.03917
171.563,15.2207,-0.08007778,1.13251,1.03893
172.163,15.23949,-0.08009048,1.13611,1.03868
172.763,15.25828,-0.08159872,1.14099,1.03844
173.363,15.27718,-0.0823197,1.14421,1.0382
173.963,15.29597,-0.08417816,1.14438,1.03796
174.563,15.3147,-0.08365149,1.14936,1.03771
175.163,15.3335,-0.08267611,1.1518,1.03747
175.763,15.3523,-0.08271515,1.15333,1.03722
176.363,15.37106,-0.08408522,1.15776,1.03697
176.963,15.3899,-0.08401256,1.16079,1.03673
177.563,15.4086,-0.0840098,1.16403,1.03648
178.163,15.42733,-0.08400995,1.16787,1.03623
178.763,15.44594,-0.08400997,1.17027,1.03598
179.363,15.46455,-0.08400974,1.17218,1.03573
179.963,15.4832,-0.08400703,1.17454,1.03548
180.563,15.5019,-0.08398175,1.17728,1.03522
181.163,15.5205,-0.08477863,1.18168,1.03497
181.763,15.5391,-0.08533034,1.185,1.03472
182.363,15.5578,-0.08532866,1.18706,1.03446
182.963,15.5764,-0.08528215,1.18973,1.0342
183.563,15.59505,-0.08643542,1.1917,1.03395
184.163,15.61369,-0.0866265,1.19493,1.03369
184.763,15.6321,-0.08664307,1.19759,1.03343
185.363,15.65054,-0.08666647,1.19856,1.03317
185.963,15.66906,-0.08893809,1.20472,1.03291
186.563,15.6877,-0.08927772,1.2068,1.03265
187.163,15.70619,-0.08927304,1.20855,1.03239
187.763,15.7249,-0.08918451,1.21202,1.03213
188.363,15.7435,-0.0905129,1.21299,1.03187
188.963,15.7621,-0.09060391,1.21575,1.0316
189.563,15.7806,-0.09069103,1.21877,1.03134
190.163,15.7991,-0.09190985,1.22363,1.03108
190.763,15.8176,-0.09190696,1.22441,1.03081
191.363,15.8361,-0.09185963,1.22858,1.03054
191.963,15.8545,-0.09298861,1.23123,1.03028
192.563,15.87294,-0.09321697,1.23264,1.03001
193.163,15.8914,-0.09324009,1.23378,1.02974
193.763,15.90983,-0.09469008,1.23521,1.02947
194.363,15.9283,-0.09460501,1.2376,1.0292
194.963,15.9467,-0.09603323,1.23916,1.02893
195.563,15.96514,-0.09597963,1.24009,1.02865
196.163,15.9836,-0.09731767,1.24123,1.02838
196.763,16.0021,-0.09739813,1.24347,1.02811
197.363,16.02052,-0.09739981,1.24657,1.02783
197.963,16.03904,-0.09740011,1.24652,1.02756
198.563,16.05746,-0.09759847,1.24814,1.02728
199.163,16.076,-0.09877441,1.24929,1.02701
199.763,16.09445,-0.09878585,1.25169,1.02673
200.363,16.11288,-0.1006,1.25325,1.02645
200.963,16.13133,-0.10144,1.25444,1.02617
201.563,16.1497,-0.10221,1.25592,1.02589
202.163,16.168,-0.10246,1.25822,1.02561
202.763,16.18635,-0.10374,1.25816,1.02533
203.363,16.20475,-0.10418,1.25972,1.02505
203.963,16.2231,-0.10498,1.2623,1.02477
204.563,16.24146,-0.10498,1.26461,1.02448
205.163,16.2598,-0.10499,1.263,1.0242
205.763,16.27815,-0.10624,1.26491,1.02391
206.363,16.29646,-0.10617,1.26662,1.02363
206.963,16.3148,-0.10776,1.2683,1.02334
207.563,16.33313,-0.10818,1.26944,1.02305
208.163,16.35142,-0.10932,1.26912,1.02277
208.763,16.36974,-0.11051,1.27173,1.02248
209.363,16.3881,-0.11087,1.27329,1.02219
209.963,16.40642,-0.11226,1.27344,1.0219
210.563,16.42484,-0.1127,1.27224,1.02161
211.163,16.4433,-0.11387,1.27573,1.02132
211.763,16.46165,-0.11489,1.27567,1.02102
212.363,16.48006,-0.11549,1.27662,1.02073
212.963,16.49839,-0.11697,1.27899,1.02044
213.563,16.5167,-0.11692,1.27824,1.02014
214.163,16.53492,-0.11849,1.27797,1.01985
214.763,16.55321,-0.11858,1.27901,1.01955
215.363,16.57152,-0.12016,1.28088,1.01926
215.963,16.58979,-0.12126,1.27987,1.01896
216.563,16.6081,-0.1224,1.28159,1.01866
217.163,16.62642,-0.12357,1.27893,1.01836
217.763,16.6447,-0.12508,1.28213,1.01806
218.363,16.663,-0.12531,1.2808,1.01776
218.963,16.68129,-0.12669,1.28245,1.01746
219.563,16.6996,-0.12818,1.28294,1.01716
220.163,16.71789,-0.12894,1.28375,1.01686
220.763,16.73615,-0.13048,1.28152,1.01655
221.363,16.75441,-0.13153,1.2814,1.01625
221.963,16.7727,-0.13217,1.28333,1.01595
222.563,16.79094,-0.13362,1.28357,1.01564
223.163,16.80921,-0.13469,1.28142,1.01533
223.763,16.82749,-0.13505,1.28154,1.01503
224.363,16.84577,-0.13673,1.28052,1.01472
224.963,16.86399,-0.13773,1.28272,1.01441
225.563,16.8823,-0.13842,1.28216,1.0141
226.163,16.9006,-0.14009,1.27857,1.01379
226.763,16.91884,-0.14113,1.28015,1.01348
227.363,16.93712,-0.14215,1.27744,1.01317
227.963,16.95552,-0.1436,1.27568,1.01286
228.563,16.9737,-0.14532,1.27898,1.01255
229.163,16.99191,-0.14631,1.27623,1.01224
229.763,17.01016,-0.14694,1.27544,1.01192
230.363,17.02836,-0.14859,1.27411,1.01161
230.963,17.04648,-0.15002,1.27292,1.01129
231.563,17.06475,-0.15172,1.27316,1.01098
232.163,17.083,-0.15346,1.27227,1.01066
232.763,17.1012,-0.15518,1.27234,1.01034
233.363,17.11945,-0.15688,1.27086,1.01003
233.963,17.13772,-0.15837,1.26915,1.00971
234.563,17.15597,-0.15962,1.26641,1.00939
235.163,17.17419,-0.16133,1.26566,1.00907
235.763,17.19241,-0.16243,1.26487,1.00875
236.363,17.21061,-0.16362,1.26521,1.00843
236.963,17.2288,-0.16494,1.2633,1.0081
237.563,17.24708,-0.16752,1.25996,1.00778
238.163,17.2653,-0.16905,1.26092,1.00746
238.763,17.28358,-0.17038,1.25852,1.00714
239.363,17.30187,-0.17149,1.25613,1.00681
239.963,17.32011,-0.17339,1.2559,1.00649
240.563,17.3383,-0.17519,1.25041,1.00616
241.163,17.35649,-0.177,1.25051,1.00583
241.763,17.3747,-0.1793,1.25032,1.00551
242.363,17.39285,-0.18084,1.2474,1.00518
242.963,17.411,-0.18266,1.24489,1.00485
243.563,17.4291,-0.18447,1.24421,1.00452
244.163,17.44732,-0.18623,1.24219,1.00419
244.763,17.46547,-0.18793,1.24008,1.00386
245.363,17.48369,-0.19016,1.23724,1.00353
245.963,17.5019,-0.19208,1.23537,1.0032
246.563,17.5202,-0.19455,1.23205,1.00286
247.163,17.53838,-0.19677,1.23298,1.00253
247.763,17.5566,-0.19938,1.22956,1.0022
248.363,17.5748,-0.20125,1.2256,1.00186
248.963,17.59307,-0.20296,1.22337,1.00153
249.563,17.61126,-0.20458,1.22278,1.00119
250.163,17.62949,-0.20678,1.21706,1.00085
250.763,17.6477,-0.20859,1.2167,1.00052
251.363,17.66585,-0.21058,1.21347,1.00018
251.963,17.68393,-0.21308,1.21046,0.99984
252.563,17.70206,-0.21542,1.20759,0.9995
253.163,17.72018,-0.21769,1.20621,0.99916
253.763,17.73837,-0.22005,1.20239,0.99882
254.363,17.7565,-0.22262,1.19973,0.99848
254.963,17.7747,-0.22467,1.19741,0.99814
255.563,17.79295,-0.22732,1.19344,0.9978
256.163,17.81115,-0.22978,1.19293,0.99745
256.763,17.82926,-0.2321,1.18763,0.99711
257.363,17.84742,-0.23437,1.18578,0.99677
257.963,17.86564,-0.23631,1.18379,0.99642
258.563,17.8838,-0.23889,1.18066,0.99608
259.163,17.90191,-0.24183,1.17776,0.99573
259.763,17.92004,-0.24375,1.17455,0.99538
260.363,17.93824,-0.2458,1.17178,0.99504
260.963,17.95642,-0.24808,1.16917,0.99469
261.563,17.97464,-0.25054,1.16743,0.99434
262.163,17.99287,-0.25332,1.16278,0.99399
262.763,18.0111,-0.25585,1.16096,0.99364
263.363,18.0293,-0.25855,1.15954,0.99329
263.963,18.04741,-0.26132,1.15612,0.99294
264.563,18.06561,-0.26434,1.15215,0.99259
265.163,18.0838,-0.26725,1.15074,0.99224
265.763,18.10195,-0.26962,1.14493,0.99188
266.363,18.12012,-0.27279,1.14258,0.99153
266.963,18.13834,-0.27656,1.14202,0.99118
267.563,18.15644,-0.27918,1.13721,0.99082
268.163,18.17455,-0.28242,1.1341,0.99047
268.763,18.1927,-0.28574,1.13443,0.99011
269.363,18.2108,-0.28859,1.1295,0.98975
269.963,18.22897,-0.29139,1.1281,0.9894
270.563,18.24716,-0.29486,1.12467,0.98904
271.163,18.2653,-0.29778,1.12146,0.98868
271.763,18.2835,-0.30071,1.12087,0.98832
272.363,18.30163,-0.30351,1.1157,0.98796
272.963,18.3198,-0.30709,1.1134,0.9876
273.563,18.33792,-0.31141,1.11072,0.98724
274.163,18.3561,-0.31485,1.10892,0.98688
274.763,18.37421,-0.3192,1.10535,0.98652
275.363,18.39234,-0.32302,1.10142,0.98615
275.963,18.41048,-0.32548,1.09953,0.98579
276.563,18.4286,-0.32839,1.09674,0.98543
277.163,18.44678,-0.33222,1.09451,0.98506
277.763,18.46497,-0.33656,1.09081,0.9847
278.363,18.48321,-0.34049,1.08713,0.98433
278.963,18.50137,-0.34398,1.08844,0.98397
279.563,18.51957,-0.3481,1.08618,0.9836
280.163,18.53775,-0.35228,1.07902,0.98323
280.763,18.5559,-0.35531,1.07849,0.98286
281.363,18.57405,-0.35919,1.07419,0.9825
281.963,18.5922,-0.36418,1.0748,0.98213
282.563,18.61036,-0.36761,1.07086,0.98176
283.163,18.62852,-0.37254,1.06461,0.98139
283.763,18.6467,-0.37657,1.06161,0.98102
284.363,18.66487,-0.3818,1.05921,0.98065
284.963,18.68306,-0.38636,1.05582,0.98027
285.563,18.70131,-0.39133,1.05266,0.9799
286.163,18.71954,-0.39559,1.04933,0.97953
286.763,18.73777,-0.40005,1.04648,0.97916
287.363,18.75596,-0.40506,1.0431,0.97878
287.963,18.77413,-0.4095,1.04121,0.97841
288.563,18.7923,-0.41468,1.03553,0.97803
289.163,18.81043,-0.41902,1.03421,0.97766
289.763,18.82861,-0.42486,1.03083,0.97728
290.363,18.8468,-0.4296,1.02683,0.9769
290.963,18.86499,-0.43553,1.02069,0.97652
291.563,18.88314,-0.4403,1.01744,0.97615
292.163,18.9013,-0.44598,1.01038,0.97577
292.763,18.9195,-0.45133,1.00721,0.97539
293.363,18.9377,-0.45657,1.00555,0.97501
293.963,18.95597,-0.46412,1.00181,0.97463
294.563,18.97421,-0.4696,0.99575,0.97425
295.163,18.99247,-0.47795,0.99138,0.97387
295.763,19.01065,-0.48342,0.98465,0.97348
296.363,19.02889,-0.49021,0.98061,0.9731
296.963,19.0471,-0.49384,0.97479,0.97272
297.563,19.0653,-0.50047,0.97027,0.97234
298.163,19.0834,-0.50638,0.96507,0.97195
298.763,19.10153,-0.51354,0.95813,0.97157
299.363,19.11971,-0.51994,0.95422,0.97118
299.963,19.1378,-0.52571,0.94988,0.9708
300.563,19.15602,-0.5326,0.94418,0.97041
301.163,19.1742,-0.53878,0.93814,0.97002
301.763,19.1924,-0.54702,0.93413,0.96964
302.363,19.21061,-0.55376,0.92815,0.96925
302.963,19.22889,-0.56288,0.92501,0.96886
303.563,19.2471,-0.56952,0.92175,0.96847
304.163,19.26536,-0.57797,0.91613,0.96808
304.763,19.28364,-0.58514,0.91506,0.96769
305.363,19.30187,-0.59359,0.90823,0.9673
305.963,19.32006,-0.60151,0.90532,0.96691
306.563,19.33827,-0.60968,0.90105,0.96652
307.163,19.35643,-0.61874,0.89823,0.96613
307.763,19.3746,-0.6265,0.89552,0.96573
308.363,19.39275,-0.63569,0.89238,0.96534
308.963,19.41091,-0.64309,0.89076,0.96495
309.563,19.4291,-0.65292,0.88961,0.96455
310.163,19.44728,-0.66159,0.88649,0.96416
310.763,19.46555,-0.67265,0.88571,0.96376
311.363,19.48375,-0.68129,0.88546,0.96337
311.963,19.50198,-0.6911,0.88338,0.96297
312.563,19.52026,-0.70028,0.88121,0.96258
313.163,19.5385,-0.70999,0.88371,0.96218
313.763,19.5567,-0.72087,0.88285,0.96178
314.363,19.5749,-0.73013,0.88419,0.96138
314.963,19.5931,-0.74116,0.88488,0.96098
315.563,19.61127,-0.75049,0.88558,0.96058
316.163,19.62941,-0.76279,0.88919,0.96019
316.763,19.64764,-0.77229,0.89175,0.95978
317.363,19.66591,-0.78429,0.89312,0.95938
317.963,19.68415,-0.79419,0.89757,0.95898
318.563,19.70233,-0.80617,0.89873,0.95858
319.163,19.7207,-0.81706,0.90296,0.95818
319.763,19.7389,-0.82824,0.90742,0.95778
320.363,19.7571,-0.83994,0.91069,0.95737
320.963,19.77538,-0.85063,0.9168,0.95697
321.563,19.7937,-0.86378,0.9183,0.95657
322.163,19.81189,-0.87459,0.92512,0.95616
322.763,19.83014,-0.88866,0.92924,0.95576
323.363,19.84845,-0.8995,0.93359,0.95535
323.963,19.86669,-0.91313,0.93852,0.95494
324.563,19.8849,-0.92465,0.94149,0.95454
325.163,19.90322,-0.93867,0.94884,0.95413
325.763,19.9215,-0.95136,0.95244,0.95372
326.363,19.93974,-0.96463,0.95789,0.95332
326.963,19.95804,-0.97826,0.9617,0.95291
327.563,19.97635,-0.99126,0.96686,0.9525
328.163,19.99464,-1.00646,0.97055,0.95209
328.763,20.0129,-1.01929,0.97646,0.95168
329.363,20.03125,-1.03567,0.98121,0.95127
329.963,20.04955,-1.04824,0.98516,0.95086
330.563,20.06784,-1.06477,0.98814,0.95045
331.163,20.08615,-1.07794,0.99353,0.95003
331.763,20.10448,-1.09451,0.99593,0.94962
332.363,20.12276,-1.10803,1.0009,0.94921
332.963,20.14109,-1.12342,1.00257,0.9488
333.563,20.15942,-1.13838,1.0051,0.94838
334.163,20.17768,-1.15342,1.0078,0.94797
334.763,20.196,-1.17019,1.00968,0.94755
335.363,20.2143,-1.18527,1.0115,0.94714
335.963,20.23259,-1.20356,1.01235,0.94672
336.563,20.25098,-1.21837,1.01272,0.94631
337.163,20.26935,-1.2372,1.01638,0.94589
337.763,20.2877,-1.25194,1.01447,0.94547
338.363,20.30603,-1.27198,1.01456,0.94506
338.963,20.32439,-1.28862,1.01416,0.94464
339.563,20.34272,-1.3076,1.01217,0.94422
340.163,20.36104,-1.32493,1.01188,0.9438
340.763,20.37934,-1.34319,1.00991,0.94338
341.363,20.39769,-1.3622,1.00634,0.94296
341.963,20.41591,-1.37959,1.00412,0.94254
342.563,20.43423,-1.39956,1.00101,0.94212
343.163,20.4526,-1.41604,0.99489,0.9417
343.763,20.47104,-1.43603,0.99152,0.94128
344.363,20.4894,-1.45282,0.98493,0.94086
344.963,20.5079,-1.47444,0.97903,0.94044
345.563,20.5263,-1.49124,0.97461,0.94002
346.163,20.5447,-1.51202,0.96829,0.93959
346.763,20.56302,-1.52977,0.95917,0.93917
347.363,20.58139,-1.54997,0.95015,0.93875
347.963,20.59966,-1.56906,0.94106,0.93832
348.563,20.61804,-1.58962,0.93015,0.9379
349.163,20.6364,-1.61066,0.9193,0.93747
349.763,20.65492,-1.62938,0.90577,0.93705
350.363,20.67332,-1.65096,0.89466,0.93662
350.963,20.69174,-1.66838,0.88355,0.93619
351.563,20.7101,-1.69045,0.86626,0.93577
352.163,20.72845,-1.7075,0.85284,0.93534
352.763,20.74679,-1.72911,0.84037,0.93491
353.363,20.76517,-1.74608,0.81993,0.93448
353.963,20.78361,-1.76688,0.80783,0.93405
354.563,20.80206,-1.78464,0.79123,0.93363
355.163,20.82046,-1.80246,0.77269,0.9332
355.763,20.83889,-1.821,0.76118,0.93277
356.363,20.8573,-1.83849,0.74224,0.93234
356.963,20.87569,-1.85745,0.72478,0.93191
357.563,20.89404,-1.87329,0.71288,0.93148
358.163,20.91245,-1.8926,0.69622,0.93104
358.763,20.93088,-1.90795,0.67884,0.93061
359.363,20.94932,-1.92733,0.66229,0.93018
359.963,20.96781,-1.94282,0.64724,0.92975
360.563,20.98637,-1.95998,0.63088,0.92931
361.163,21.0048,-1.97349,0.61816,0.92888
361.763,21.02328,-1.98957,0.60285,0.92845
362.363,21.04175,-2.00298,0.58912,0.92801
362.963,21.0602,-2.01646,0.57542,0.92758
363.563,21.07861,-2.02963,0.56321,0.92714
364.163,21.0971,-2.04235,0.55329,0.92671
364.763,21.11553,-2.05598,0.54115,0.92627
365.363,21.13395,-2.06694,0.53181,0.92584
365.963,21.15245,-2.07941,0.52167,0.9254
366.563,21.1709,-2.08849,0.51348,0.92496
367.163,21.1894,-2.09996,0.50525,0.92453
367.763,21.2079,-2.10881,0.49662,0.92409
368.363,21.22641,-2.11972,0.49053,0.92365
368.963,21.24484,-2.12757,0.48283,0.92321
369.563,21.26335,-2.13674,0.47791,0.92277
370.163,21.28183,-2.14475,0.47427,0.92233
370.763,21.30031,-2.15283,0.46692,0.92189
371.363,21.3188,-2.16038,0.46213,0.92145
371.963,21.33735,-2.16738,0.4579,0.92101
372.563,21.35588,-2.17563,0.45455,0.92057
373.163,21.3744,-2.18225,0.45168,0.92013
373.763,21.39291,-2.18899,0.44361,0.91969
374.363,21.41144,-2.19418,0.44138,0.91925
374.963,21.42998,-2.20065,0.43716,0.91881
375.563,21.4485,-2.20559,0.431,0.91836
376.163,21.4671,-2.21195,0.42886,0.91792
376.763,21.48558,-2.21532,0.42638,0.91748
377.363,21.50411,-2.22047,0.42282,0.91703
377.963,21.52264,-2.22518,0.41736,0.91659
378.563,21.54121,-2.2306,0.41428,0.91614
379.163,21.55979,-2.23531,0.40958,0.9157
379.763,21.57845,-2.23919,0.40472,0.91525
380.363,21.59708,-2.24296,0.39832,0.91481
380.963,21.6157,-2.2472,0.3971,0.91436
381.563,21.63429,-2.25199,0.39177,0.91392
382.163,21.6529,-2.25599,0.38667,0.91347
382.763,21.67149,-2.26004,0.3842,0.91302
383.363,21.69004,-2.26407,0.37885,0.91258
383.963,21.7086,-2.26745,0.3739,0.91213
384.563,21.72719,-2.27153,0.36765,0.91168
385.163,21.74575,-2.27564,0.36233,0.91123
385.763,21.7643,-2.27836,0.36005,0.91078
386.363,21.78294,-2.28143,0.35479,0.91033
386.963,21.80159,-2.28475,0.34997,0.90988
387.563,21.8202,-2.28685,0.34239,0.90943
388.163,21.83885,-2.28897,0.33775,0.90898
388.763,21.85749,-2.29278,0.33263,0.90853
389.363,21.87614,-2.29641,0.32826,0.90808
389.963,21.89475,-2.29961,0.3255,0.90763
390.563,21.91341,-2.30327,0.31973,0.90718
391.163,21.932,-2.30597,0.31205,0.90673
391.763,21.95066,-2.30897,0.30716,0.90628
392.363,21.96929,-2.3111,0.30149,0.90582
392.963,21.98793,-2.31426,0.29631,0.90537
393.563,22.00662,-2.31676,0.29087,0.90492
394.163,22.02533,-2.31958,0.28713,0.90447
394.763,22.04404,-2.32215,0.28126,0.90401
395.363,22.06271,-2.32443,0.2762,0.90356
395.963,22.08136,-2.32721,0.27084,0.9031
396.563,22.09995,-2.33004,0.26576,0.90265
397.163,22.1186,-2.33174,0.26185,0.90219
397.763,22.1372,-2.33391,0.25642,0.90174
398.363,22.1559,-2.33635,0.25163,0.90128
398.963,22.17454,-2.33965,0.24785,0.90083
399.563,22.1933,-2.34254,0.24141,0.90037
400.163,22.212,-2.34543,0.23822,0.89991
400.763,22.2307,-2.34736,0.23488,0.89946
401.363,22.24939,-2.34928,0.23017,0.899
401.963,22.26812,-2.35184,0.22438,0.89854
402.563,22.2868,-2.35464,0.21982,0.89808
403.163,22.30548,-2.35743,0.21765,0.89763
403.763,22.32416,-2.35985,0.21558,0.89717
404.363,22.34284,-2.36196,0.20897,0.89671
404.963,22.3615,-2.36487,0.20471,0.89625
405.563,22.38025,-2.36843,0.2002,0.89579
406.163,22.39893,-2.3695,0.19797,0.89533
406.763,22.41766,-2.37146,0.19485,0.89487
407.363,22.4363,-2.37375,0.19355,0.89441
407.963,22.45504,-2.37528,0.18671,0.89395
408.563,22.47374,-2.37741,0.1876,0.89349
409.163,22.49245,-2.37972,0.18572,0.89303
409.763,22.51122,-2.38165,0.18377,0.89257
410.363,22.52994,-2.38378,0.17939,0.8921
410.963,22.54867,-2.38689,0.17881,0.89164
411.563,22.56738,-2.38944,0.1758,0.89118
412.163,22.58607,-2.39159,0.17276,0.89072
412.763,22.6048,-2.3942,0.17527,0.89025
413.363,22.62355,-2.39728,0.17205,0.88979
413.963,22.6423,-2.39915,0.16946,0.88933
414.563,22.6611,-2.40145,0.17025,0.88886
415.163,22.67986,-2.40387,0.16512,0.8884
415.763,22.69858,-2.40608,0.16575,0.88793
416.363,22.71728,-2.40831,0.168,0.88747
416.963,22.73611,-2.41062,0.16736,0.887
417.563,22.75485,-2.41287,0.16588,0.88654
418.163,22.77366,-2.41529,0.16311,0.88607
418.763,22.79247,-2.41757,0.16279,0.88561
419.363,22.81128,-2.41982,0.1641,0.88514
419.963,22.83006,-2.42171,0.16413,0.88468
420.563,22.84889,-2.42403,0.16248,0.88421
421.163,22.86766,-2.42584,0.16552,0.88374
421.763,22.88638,-2.4276,0.16653,0.88327
422.363,22.9052,-2.42961,0.16259,0.88281
422.963,22.92397,-2.43142,0.16445,0.88234
423.563,22.94282,-2.43341,0.16532,0.88187
424.163,22.9617,-2.43543,0.16871,0.8814
424.763,22.9806,-2.43764,0.16697,0.88093
425.363,22.99944,-2.4402,0.1685,0.88047
425.963,23.01824,-2.44262,0.17095,0.88
426.563,23.03708,-2.44445,0.175,0.87953
427.163,23.056,-2.44615,0.17645,0.87906
427.763,23.07479,-2.44822,0.1771,0.87859
428.363,23.09359,-2.45107,0.17855,0.87812
428.963,23.11244,-2.45273,0.18348,0.87765
429.563,23.13129,-2.454,0.18361,0.87718
430.163,23.15011,-2.45591,0.18723,0.87671
430.763,23.169,-2.45903,0.18851,0.87623
431.363,23.18786,-2.461,0.18879,0.87576
431.963,23.20674,-2.46327,0.19057,0.87529
432.563,23.22568,-2.46535,0.19472,0.87482
433.163,23.24458,-2.46783,0.19526,0.87435
433.763,23.2635,-2.47026,0.20108,0.87388
434.363,23.28246,-2.47206,0.20275,0.8734
434.963,23.3013,-2.47422,0.20473,0.87293
435.563,23.32018,-2.47593,0.20644,0.87246
436.163,23.33907,-2.47812,0.20837,0.87198
436.763,23.35784,-2.48009,0.21597,0.87151
437.363,23.37659,-2.48228,0.21853,0.87104
437.963,23.39549,-2.48394,0.21971,0.87056
438.563,23.41435,-2.48561,0.22521,0.87009
439.163,23.43329,-2.48748,0.22653,0.86961
439.763,23.45233,-2.48934,0.23337,0.86914
440.363,23.4713,-2.49124,0.23389,0.86866
440.963,23.4903,-2.49292,0.23846,0.86819
441.563,23.50921,-2.4947,0.24118,0.86771
442.163,23.52809,-2.49624,0.24361,0.86724
442.763,23.54704,-2.49788,0.24517,0.86676
443.363,23.5659,-2.49956,0.25141,0.86628
443.963,23.5848,-2.50156,0.25303,0.86581
444.563,23.60369,-2.50376,0.2556,0.86533
445.163,23.62266,-2.50589,0.26063,0.86486
445.763,23.64162,-2.50775,0.26312,0.86438
446.363,23.66066,-2.50888,0.27001,0.8639
446.963,23.67964,-2.51097,0.27014,0.86342
447.563,23.6986,-2.51287,0.27534,0.86295
448.163,23.71753,-2.51466,0.27907,0.86247
448.763,23.73646,-2.51622,0.28066,0.86199
449.363,23.75541,-2.51731,0.28622,0.86151
449.963,23.77436,-2.51919,0.2866,0.86103
450.563,23.79329,-2.52089,0.28901,0.86055
451.163,23.81227,-2.5226,0.29199,0.86007
451.763,23.83124,-2.52432,0.29672,0.8596
452.363,23.85025,-2.52604,0.29765,0.85912
452.963,23.86926,-2.52915,0.3032,0.85864
453.563,23.88831,-2.53105,0.30526,0.85816
454.163,23.90735,-2.53279,0.31078,0.85768
454.763,23.92643,-2.53454,0.31228,0.8572
455.363,23.9454,-2.53631,0.31374,0.85672
455.963,23.96445,-2.53806,0.31746,0.85623
456.563,23.98347,-2.53977,0.3188,0.85575
457.163,24.00245,-2.54134,0.32069,0.85527
457.763,24.02145,-2.54262,0.32528,0.85479
458.363,24.04046,-2.5439,0.32467,0.85431
458.963,24.05944,-2.54539,0.32745,0.85383
459.563,24.07841,-2.54698,0.33019,0.85335
460.163,24.09742,-2.54871,0.33379,0.85286
460.763,24.11639,-2.55055,0.33501,0.85238
461.363,24.13545,-2.55239,0.33731,0.8519
461.963,24.1545,-2.55419,0.34056,0.85142
462.563,24.17354,-2.55589,0.34314,0.85093
463.163,24.19258,-2.55759,0.34612,0.85045
463.763,24.21164,-2.55937,0.34815,0.84997
464.363,24.2306,-2.56069,0.35244,0.84948
464.963,24.2497,-2.56198,0.35065,0.849
465.563,24.26876,-2.56314,0.35424,0.84852
466.163,24.28775,-2.56483,0.35555,0.84803
466.763,24.30679,-2.56648,0.35674,0.84755
467.363,24.32585,-2.56759,0.35615,0.84706
467.963,24.3449,-2.56909,0.3597,0.84658
468.563,24.364,-2.57109,0.35988,0.84609
469.163,24.383,-2.57259,0.36636,0.84561
469.763,24.40204,-2.5757,0.36451,0.84512
470.363,24.42108,-2.57692,0.36605,0.84464
470.963,24.44015,-2.57817,0.36666,0.84415
471.563,24.4592,-2.57948,0.36931,0.84367
472.163,24.47837,-2.58076,0.37123,0.84318
472.763,24.49748,-2.58244,0.37206,0.8427
473.363,24.51653,-2.58408,0.37463,0.84221
473.963,24.53565,-2.58575,0.37144,0.84172
474.563,24.55469,-2.58708,0.37321,0.84124
475.163,24.57375,-2.58777,0.37528,0.84075
475.763,24.59286,-2.58916,0.37488,0.84026
476.363,24.6119,-2.59021,0.37784,0.83978
476.963,24.63095,-2.59091,0.37942,0.83929
477.563,24.65008,-2.59235,0.37728,0.8388
478.163,24.6692,-2.59429,0.38049,0.83831
478.763,24.68829,-2.59606,0.37848,0.83783
479.363,24.70747,-2.59664,0.37914,0.83734
479.963,24.7266,-2.5975,0.3806,0.83685
480.563,24.74571,-2.59913,0.38191,0.83636
481.163,24.76485,-2.60086,0.38313,0.83588
481.763,24.78395,-2.6025,0.38137,0.83539
482.363,24.80305,-2.60345,0.3832,0.8349
482.963,24.82216,-2.60442,0.38353,0.83441
483.563,24.84129,-2.60601,0.38322,0.83392
484.163,24.86038,-2.60783,0.38518,0.83343
484.763,24.87953,-2.60847,0.38647,0.83294
485.363,24.89865,-2.6093,0.38605,0.83245
485.963,24.91787,-2.61073,0.38779,0.83196
486.563,24.9371,-2.61367,0.38669,0.83147
487.163,24.9562,-2.61539,0.38759,0.83098
487.763,24.9754,-2.61697,0.38454,0.83049
488.363,24.99457,-2.61766,0.38668,0.83
488.963,25.0137,-2.6187,0.38708,0.82951
489.563,25.0329,-2.62023,0.38776,0.82902
490.163,25.05203,-2.62225,0.38621,0.82853
490.763,25.0712,-2.62354,0.38811,0.82804
491.363,25.09039,-2.62383,0.38766,0.82755
491.963,25.1096,-2.62512,0.39055,0.82706
492.563,25.12872,-2.62582,0.38582,0.82657
493.163,25.14786,-2.62622,0.38914,0.82608
493.763,25.16704,-2.62793,0.38986,0.82559
494.363,25.18629,-2.6292,0.38884,0.8251
494.963,25.20554,-2.62956,0.3878,0.8246
495.563,25.22476,-2.63113,0.38764,0.82411
496.163,25.24398,-2.63105,0.39071,0.82362
496.763,25.26316,-2.63308,0.38883,0.82313
497.363,25.28237,-2.63323,0.3883,0.82264
497.963,25.3016,-2.63478,0.38972,0.82214
498.563,25.32084,-2.63646,0.38809,0.82165
499.163,25.34011,-2.63822,0.38621,0.82116
499.763,25.35933,-2.63895,0.38749,0.82067
500.363,25.3785,-2.63989,0.38667,0.82017
500.963,25.39773,-2.64142,0.38673,0.81968
501.563,25.41692,-2.6434,0.38649,0.81919
502.163,25.43617,-2.64401,0.38942,0.81869
502.763,25.4554,-2.64519,0.38656,0.8182
503.363,25.4746,-2.64641,0.38535,0.81771
503.963,25.49389,-2.64696,0.38736,0.81721
504.563,25.51314,-2.64847,0.38592,0.81672
505.163,25.5324,-2.64984,0.38685,0.81623
505.763,25.55172,-2.6502,0.38287,0.81573
506.363,25.57098,-2.65141,0.38578,0.81524
506.963,25.5902,-2.65251,0.38594,0.81474
507.563,25.6095,-2.65323,0.38665,0.81425
508.163,25.62871,-2.65472,0.38512,0.81376
508.763,25.64798,-2.65626,0.38457,0.81326
509.363,25.66725,-2.65705,0.38677,0.81277
509.963,25.68652,-2.65766,0.38292,0.81227
510.563,25.7058,-2.65902,0.38441,0.81178
511.163,25.72511,-2.65982,0.38578,0.81128
511.763,25.7444,-2.66066,0.38199,0.81079
512.363,25.76374,-2.66229,0.38224,0.81029
512.963,25.78303,-2.66323,0.38273,0.8098
513.563,25.80228,-2.6642,0.38514,0.8093
514.163,25.82154,-2.66564,0.38373,0.80881
514.763,25.84081,-2.66739,0.38131,0.80831
515.363,25.8601,-2.66894,0.38187,0.80782
515.963,25.87947,-2.66889,0.38208,0.80732
516.563,25.8988,-2.67028,0.38226,0.80683
517.163,25.9181,-2.67053,0.381,0.80633
517.763,25.9374,-2.6718,0.37964,0.80583
518.363,25.95674,-2.67333,0.37761,0.80534
518.963,25.976,-2.67327,0.37665,0.80484
519.563,25.99536,-2.67465,0.37665,0.80434
520.163,26.01476,-2.67459,0.37625,0.80385
520.763,26.03405,-2.67594,0.37691,0.80335
521.363,26.05344,-2.67603,0.37624,0.80286
521.963,26.07282,-2.67763,0.3767,0.80236
522.563,26.09214,-2.67852,0.37627,0.80186
523.163,26.11148,-2.67915,0.37579,0.80137
523.763,26.1309,-2.68065,0.37551,0.80087
524.363,26.15021,-2.68138,0.37463,0.80037
524.963,26.16958,-2.68216,0.3758,0.79987
525.563,26.18875,-2.68388,0.37673,0.79938
526.163,26.2081,-2.68455,0.37536,0.79888
526.763,26.22743,-2.6855,0.3753,0.79838
527.363,26.24676,-2.68705,0.37419,0.79789
527.963,26.2662,-2.68832,0.37164,0.79739
528.563,26.2857,-2.68859,0.37474,0.79689
529.163,26.30517,-2.68959,0.37359,0.79639
529.763,26.3246,-2.68992,0.37056,0.7959
530.363,26.34398,-2.69086,0.36998,0.7954
530.963,26.3634,-2.69135,0.36991,0.7949
531.563,26.38277,-2.69285,0.36765,0.7944
532.163,26.4021,-2.69324,0.36914,0.7939
532.763,26.4215,-2.69445,0.36611,0.79341
533.363,26.44087,-2.69606,0.3647,0.79291
533.963,26.4603,-2.69642,0.36425,0.79241
534.563,26.47968,-2.69787,0.36461,0.79191
535.163,26.4991,-2.69882,0.36501,0.79141
535.763,26.5185,-2.70025,0.36445,0.79092
536.363,26.53797,-2.70089,0.36605,0.79042
536.963,26.5574,-2.70188,0.36217,0.78992
537.563,26.57685,-2.7032,0.36439,0.78942
538.163,26.59623,-2.70326,0.36163,0.78892
538.763,26.61566,-2.70455,0.36231,0.78842
539.363,26.63508,-2.70481,0.36338,0.78792
539.963,26.65445,-2.70641,0.3618,0.78743
540.563,26.6739,-2.70672,0.36371,0.78693
541.163,26.69336,-2.70763,0.36013,0.78643
541.763,26.71276,-2.70793,0.35953,0.78593
542.363,26.7322,-2.70912,0.36159,0.78543
542.963,26.7517,-2.71006,0.36039,0.78493
543.563,26.77099,-2.7108,0.3595,0.78443
544.163,26.79045,-2.71222,0.35794,0.78393
544.763,26.8099,-2.71367,0.3603,0.78343
545.363,26.8294,-2.71363,0.35702,0.78293
545.963,26.84882,-2.7146,0.35879,0.78243
546.563,26.8684,-2.71426,0.35841,0.78193
547.163,26.88784,-2.71577,0.35662,0.78144
547.763,26.90734,-2.71671,0.3578,0.78094
548.363,26.9268,-2.71713,0.356,0.78044
548.963,26.9463,-2.71774,0.35741,0.77994
549.563,26.9658,-2.71837,0.35644,0.77944
550.163,26.98527,-2.71891,0.3511,0.77894
550.763,27.00475,-2.71974,0.35304,0.77844
551.363,27.0242,-2.72094,0.35348,0.77794
551.963,27.0437,-2.72125,0.35292,0.77744
552.563,27.0632,-2.72228,0.35191,0.77694
553.163,27.0826,-2.7226,0.35218,0.77644
553.763,27.10207,-2.72326,0.35058,0.77594
554.363,27.1216,-2.72397,0.35157,0.77544
554.963,27.1411,-2.72544,0.35022,0.77494
555.563,27.16055,-2.72579,0.35068,0.77444
556.163,27.17993,-2.72723,0.35043,0.77394
556.763,27.1993,-2.72802,0.34636,0.77344
557.363,27.2188,-2.72895,0.3497,0.77294
557.963,27.2382,-2.73172,0.34608,0.77244
558.563,27.2577,-2.73258,0.34944,0.77194
559.163,27.27743,-2.73317,0.34659,0.77144
559.763,27.29699,-2.73316,0.34626,0.77094
560.363,27.31655,-2.73434,0.34407,0.77044
560.963,27.33607,-2.73447,0.34736,0.76994
561.563,27.3555,-2.73595,0.34826,0.76944
562.163,27.375,-2.73633,0.3455,0.76894
562.763,27.3946,-2.73736,0.34427,0.76844
563.363,27.4141,-2.73724,0.34554,0.76793
563.963,27.4337,-2.73861,0.34547,0.76743
564.563,27.45332,-2.73876,0.34761,0.76693
565.163,27.4729,-2.74052,0.34735,0.76643
565.763,27.4924,-2.74111,0.34631,0.76593
566.363,27.5119,-2.74185,0.34669,0.76543
566.963,27.5314,-2.74307,0.34451,0.76493
567.563,27.55092,-2.74324,0.34638,0.76443
568.163,27.5705,-2.74368,0.34497,0.76393
568.763,27.59,-2.74434,0.344,0.76343
569.363,27.6095,-2.74436,0.34633,0.76293
569.963,27.62898,-2.74566,0.34652,0.76243
570.563,27.64845,-2.74566,0.34821,0.76193
571.163,27.66795,-2.74689,0.34416,0.76143
571.763,27.68755,-2.74696,0.3463,0.76093
572.363,27.7071,-2.74715,0.34395,0.76042
572.963,27.72663,-2.74834,0.34567,0.75992
573.563,27.7461,-2.74841,0.34476,0.75942
574.163,27.7656,-2.74987,0.3465,0.75892
574.763,27.78515,-2.7511,0.34989,0.75842
575.363,27.8047,-2.75162,0.34821,0.75792
575.963,27.82439,-2.75296,0.35243,0.75742
576.563,27.84403,-2.75282,0.35239,0.75692
577.163,27.8637,-2.75414,0.35016,0.75642
577.763,27.8833,-2.75421,0.35434,0.75592
578.363,27.90285,-2.75424,0.35315,0.75542
578.963,27.92241,-2.75577,0.35089,0.75492
579.563,27.942,-2.75523,0.35375,0.75441
580.163,27.9616,-2.75627,0.35269,0.75391
580.763,27.9812,-2.75674,0.35592,0.75341
581.363,28.0008,-2.75768,0.35728,0.75291
581.963,28.02042,-2.75849,0.35733,0.75241
582.563,28.04,-2.75915,0.35807,0.75191
583.163,28.0596,-2.76048,0.35816,0.75141
583.763,28.07912,-2.76046,0.36066,0.75091
584.363,28.0987,-2.76109,0.36299,0.75041
584.963,28.11833,-2.7627,0.36516,0.74991
585.563,28.1379,-2.76311,0.36507,0.74941
586.163,28.1577,-2.76362,0.36798,0.74891
586.763,28.1773,-2.76466,0.36473,0.7484
587.363,28.1969,-2.76548,0.36531,0.7479
587.963,28.2164,-2.7648,0.36707,0.7474
588.563,28.23612,-2.76607,0.36936,0.7469
589.163,28.25573,-2.76632,0.37109,0.7464
589.763,28.27543,-2.76752,0.37224,0.7459
590.363,28.29506,-2.76771,0.36854,0.7454
590.963,28.31465,-2.76822,0.37514,0.7449
591.563,28.3343,-2.76905,0.37133,0.7444
592.163,28.35394,-2.7694,0.37677,0.7439
592.763,28.3736,-2.77143,0.37688,0.7434
593.363,28.3933,-2.77274,0.37559,0.7429
593.963,28.41303,-2.77309,0.37763,0.74239
594.563,28.4327,-2.77338,0.3802,0.74189
595.163,28.4524,-2.77441,0.38213,0.74139
595.763,28.47205,-2.77443,0.38129,0.74089
596.363,28.4917,-2.77522,0.38527,0.74039
596.963,28.51137,-2.77443,0.3841,0.73989
597.563,28.53107,-2.77453,0.38467,0.73939
598.163,28.55082,-2.77571,0.38485,0.73889
598.763,28.57051,-2.7757,0.38179,0.73839
599.363,28.59021,-2.77646,0.38617,0.73789
599.963,28.61,-2.77702,0.38202,0.73739
600.563,28.62957,-2.77702,0.38576,0.73689
601.163,28.64912,-2.77801,0.38569,0.73639
601.763,28.66879,-2.77846,0.38597,0.73589
602.363,28.68848,-2.77939,0.38611,0.73539
602.963,28.70815,-2.78067,0.38812,0.73489
603.563,28.728,-2.78133,0.38964,0.73438
604.163,28.74789,-2.78242,0.38977,0.73388
604.763,28.76762,-2.78237,0.38718,0.73338
605.363,28.7874,-2.78365,0.38758,0.73288
605.963,28.8072,-2.78374,0.38927,0.73238
606.563,28.827,-2.78333,0.38863,0.73188
607.163,28.8467,-2.78385,0.38922,0.73138
607.763,28.8664,-2.78501,0.38674,0.73088
608.363,28.8862,-2.78525,0.39074,0.73038
608.963,28.9059,-2.78564,0.39298,0.72988
609.563,28.92564,-2.7866,0.39298,0.72938
610.163,28.9454,-2.78648,0.39182,0.72888
610.763,28.96507,-2.78785,0.39203,0.72838
611.363,28.9848,-2.78789,0.39438,0.72788
611.963,29.00453,-2.78796,0.39449,0.72738
612.563,29.0243,-2.7893,0.39309,0.72688
613.163,29.044,-2.78945,0.39556,0.72638
613.763,29.06383,-2.79069,0.39745,0.72588
614.363,29.08366,-2.79055,0.39704,0.72538
614.963,29.10347,-2.79185,0.39914,0.72488
615.563,29.12323,-2.79194,0.40155,0.72438
616.163,29.143,-2.79196,0.40136,0.72388
616.763,29.1628,-2.79225,0.40295,0.72338
617.363,29.18255,-2.79328,0.40617,0.72288
617.963,29.2023,-2.79352,0.40854,0.72238
618.563,29.22213,-2.79459,0.40764,0.72188
619.163,29.24193,-2.79458,0.40847,0.72138
619.763,29.26169,-2.79515,0.4105,0.72089
620.363,29.28149,-2.79587,0.41327,0.72039
620.963,29.3012,-2.7959,0.41427,0.71989
621.563,29.321,-2.79604,0.41612,0.71939
622.163,29.3408,-2.79686,0.41857,0.71889
622.763,29.3606,-2.79685,0.41732,0.71839
623.363,29.38035,-2.79796,0.41967,0.71789
623.963,29.4001,-2.79819,0.42186,0.71739
624.563,29.41988,-2.79819,0.4225,0.71689
625.163,29.43965,-2.79856,0.42572,0.71639
625.763,29.4594,-2.79951,0.42765,0.71589
626.363,29.4792,-2.79951,0.42849,0.71539
626.963,29.49901,-2.80082,0.43036,0.7149
627.563,29.5188,-2.80083,0.43235,0.7144
628.163,29.53864,-2.80145,0.43376,0.7139
628.763,29.55848,-2.80215,0.43682,0.7134
629.363,29.57831,-2.80214,0.43343,0.7129
629.963,29.59808,-2.80239,0.43993,0.7124
630.563,29.6179,-2.80348,0.44157,0.7119
631.163,29.6376,-2.80348,0.44067,0.7114
631.763,29.6574,-2.80427,0.44353,0.71091
632.363,29.67718,-2.80425,0.44439,0.71041
632.963,29.69695,-2.8037,0.45106,0.70991
633.563,29.71674,-2.80508,0.44784,0.70941
634.163,29.73655,-2.8051,0.45273,0.70891
634.763,29.7563,-2.80509,0.45403,0.70841
635.363,29.7762,-2.80617,0.45543,0.70792
635.963,29.79601,-2.80641,0.45999,0.70742
636.563,29.81584,-2.80655,0.45968,0.70692
637.163,29.8357,-2.80782,0.46171,0.70642
637.763,29.85548,-2.80835,0.463,0.70592
638.363,29.8753,-2.80905,0.46514,0.70543
638.963,29.8951,-2.81001,0.46554,0.70493
639.563,29.9149,-2.81035,0.46822,0.70443
640.163,29.9347,-2.81045,0.46752,0.70393
640.763,29.9544,-2.81178,0.47271,0.70344
641.363,29.97417,-2.81171,0.47729,0.70294
641.963,29.99398,-2.81195,0.47813,0.70244
642.563,30.01375,-2.81313,0.47855,0.70194
643.163,30.0336,-2.81168,0.48109,0.70145
643.763,30.0534,-2.81291,0.48272,0.70095
644.363,30.0732,-2.81299,0.48491,0.70045
644.963,30.09297,-2.81372,0.48683,0.69995
645.563,30.1128,-2.81429,0.48701,0.69946
646.163,30.1326,-2.81431,0.4911,0.69896
646.763,30.1524,-2.81426,0.49313,0.69846
647.363,30.1722,-2.81549,0.49743,0.69797
647.963,30.19202,-2.81563,0.49683,0.69747
648.563,30.21179,-2.81563,0.50025,0.69697
649.163,30.2316,-2.8162,0.50165,0.69648
649.763,30.25145,-2.81693,0.5024,0.69598
650.363,30.27122,-2.81693,0.50327,0.69548
650.963,30.291,-2.81776,0.50815,0.69499
651.563,30.31082,-2.81825,0.50773,0.69449
652.163,30.3307,-2.81826,0.51303,0.694
652.763,30.35049,-2.81825,0.51537,0.6935
653.363,30.3703,-2.81901,0.51646,0.693
653.963,30.39013,-2.81957,0.51506,0.69251
654.563,30.41,-2.81957,0.52046,0.69201
655.163,30.42973,-2.82029,0.52146,0.69152
655.763,30.44959,-2.8209,0.52056,0.69102
656.363,30.46939,-2.8209,0.5271,0.69052
656.963,30.48923,-2.82156,0.5264,0.69003
657.563,30.50903,-2.82221,0.52646,0.68953
658.163,30.5288,-2.82222,0.52686,0.68904
658.763,30.5486,-2.82315,0.52752,0.68854
659.363,30.56843,-2.82353,0.52976,0.68805
659.963,30.5882,-2.82354,0.53412,0.68755
660.563,30.60806,-2.82442,0.53337,0.68706
661.163,30.6279,-2.82463,0.53787,0.68656
661.763,30.64767,-2.82351,0.5389,0.68607
662.363,30.66757,-2.82353,0.54119,0.68557
662.963,30.6874,-2.82347,0.53901,0.68508
663.563,30.7073,-2.82486,0.53954,0.68458
664.163,30.72715,-2.82565,0.54147,0.68409
664.763,30.74695,-2.82634,0.54639,0.68359
665.363,30.7668,-2.82753,0.54632,0.6831
665.963,30.7866,-2.82749,0.54585,0.68261
666.563,30.80625,-2.8275,0.54733,0.68211
667.163,30.8259,-2.82813,0.54508,0.68162
667.763,30.8457,-2.82891,0.54555,0.68112
668.363,30.86563,-2.8288,0.54733,0.68063
668.963,30.88553,-2.83019,0.55099,0.68014
669.563,30.90555,-2.83026,0.55253,0.67964
670.163,30.9255,-2.82899,0.55418,0.67915
670.763,30.94533,-2.8302,0.5539,0.67865
671.363,30.9652,-2.83023,0.55408,0.67816
671.963,30.985,-2.83025,0.55391,0.67767
672.563,31.0049,-2.83171,0.55219,0.67717
673.163,31.0248,-2.83283,0.55669,0.67668
673.763,31.0447,-2.83284,0.5562,0.67619
674.363,31.0645,-2.83276,0.55779,0.6757
674.963,31.0844,-2.83411,0.55667,0.6752
675.563,31.1042,-2.83416,0.55552,0.67471
676.163,31.12407,-2.83392,0.55608,0.67422
676.763,31.1439,-2.83281,0.55769,0.67372
677.363,31.16374,-2.83286,0.55494,0.67323
677.963,31.18355,-2.83285,0.55557,0.67274
678.563,31.2034,-2.83363,0.55603,0.67225
679.163,31.22327,-2.83415,0.55828,0.67176
679.763,31.2431,-2.83418,0.55832,0.67126
680.363,31.2631,-2.83509,0.55683,0.67077
680.963,31.28303,-2.83695,0.55428,0.67028
681.563,31.3029,-2.83695,0.55461,0.66979
682.163,31.32269,-2.83833,0.55393,0.6693
682.763,31.34255,-2.83832,0.55411,0.6688
683.363,31.3624,-2.83732,0.55641,0.66831
683.963,31.3823,-2.83824,0.55458,0.66782
684.563,31.4021,-2.83823,0.55555,0.66733
685.163,31.42207,-2.83823,0.55725,0.66684
685.763,31.44195,-2.83824,0.55518,0.66635
686.363,31.4618,-2.83834,0.55579,0.66586
686.963,31.48177,-2.8396,0.55311,0.66537
687.563,31.50163,-2.83955,0.55367,0.66488
688.163,31.5215,-2.83955,0.55467,0.66439
688.763,31.54144,-2.83956,0.55152,0.66389
689.363,31.56131,-2.83964,0.55049,0.6634
689.963,31.58125,-2.84095,0.5494,0.66291
690.563,31.6012,-2.83975,0.54944,0.66242
691.163,31.6211,-2.83969,0.54671,0.66193
691.763,31.641,-2.84087,0.54731,0.66144
692.363,31.6609,-2.84086,0.54651,0.66095
692.963,31.6809,-2.84084,0.54383,0.66046
693.563,31.70083,-2.84161,0.54484,0.65997
694.163,31.7207,-2.84185,0.54338,0.65949
694.763,31.7407,-2.84185,0.5459,0.659
695.363,31.7606,-2.84189,0.54294,0.65851
695.963,31.7805,-2.84356,0.53931,0.65802
696.563,31.8003,-2.84358,0.53781,0.65753
697.163,31.8203,-2.84481,0.52925,0.65704
697.763,31.8402,-2.84481,0.53374,0.65655
698.363,31.8601,-2.84481,0.53357,0.65606
698.963,31.8801,-2.84481,0.52895,0.65557
699.563,31.90008,-2.84483,0.52656,0.65508
700.163,31.92,-2.84514,0.52661,0.6546
700.763,31.94,-2.84515,0.52549,0.65411
701.363,31.96,-2.8448,0.52041,0.65362
701.963,31.9799,-2.84616,0.51933,0.65313
702.563,31.99983,-2.84612,0.5182,0.65264
703.163,32.01984,-2.84716,0.51681,0.65216
703.763,32.0398,-2.84744,0.5134,0.65167
704.363,32.05983,-2.84744,0.50879,0.65118
704.963,32.07986,-2.84778,0.51134,0.65069
705.563,32.09977,-2.84779,0.50886,0.65021
706.163,32.1197,-2.8491,0.50748,0.64972
706.763,32.13958,-2.84909,0.50439,0.64923
707.363,32.15954,-2.84945,0.50207,0.64875
707.963,32.1794,-2.85041,0.49827,0.64826
708.563,32.1993,-2.85041,0.50257,0.64777
709.163,32.2194,-2.85041,0.49604,0.64729
709.763,32.23938,-2.85041,0.49548,0.6468
710.363,32.25939,-2.85041,0.4918,0.64631
710.963,32.27959,-2.85041,0.49129,0.64583
711.563,32.29959,-2.85041,0.49181,0.64534
712.163,32.3196,-2.85041,0.48947,0.64485
712.763,32.33956,-2.85042,0.49158,0.64437
713.363,32.3596,-2.85039,0.48936,0.64388
713.963,32.37961,-2.8504,0.48808,0.6434
714.563,32.39962,-2.8511,0.48667,0.64291
715.163,32.4196,-2.85172,0.48678,0.64243
715.763,32.43956,-2.85172,0.47843,0.64194
716.363,32.45952,-2.85172,0.47997,0.64146
716.963,32.47931,-2.85172,0.47947,0.64097
717.563,32.4993,-2.85172,0.4852,0.64049
718.163,32.5193,-2.85172,0.47687,0.64
718.763,32.53927,-2.85173,0.47653,0.63952
719.363,32.55939,-2.8537,0.47665,0.63903
719.963,32.57945,-2.85369,0.47399,0.63855
720.563,32.59949,-2.85369,0.47125,0.63806
721.163,32.61954,-2.85369,0.46955,0.63758
721.763,32.63961,-2.85369,0.46642,0.6371
722.363,32.65965,-2.85439,0.46641,0.63661
722.963,32.67968,-2.85501,0.46298,0.63613
723.563,32.6997,-2.85503,0.46221,0.63565
724.163,32.71962,-2.85634,0.46006,0.63516
724.763,32.73965,-2.85633,0.46001,0.63468
725.363,32.75969,-2.85631,0.45997,0.6342
725.963,32.7797,-2.85501,0.45752,0.63371
726.563,32.7998,-2.85506,0.45858,0.63323
727.163,32.81987,-2.85633,0.45435,0.63275
727.763,32.8399,-2.85633,0.45382,0.63227
728.363,32.8599,-2.85633,0.452,0.63178
728.963,32.8799,-2.85633,0.45067,0.6313
729.563,32.8999,-2.85633,0.45248,0.63082
730.163,32.9199,-2.85633,0.44666,0.63034
730.763,32.94001,-2.85769,0.44535,0.62985
731.363,32.96,-2.85765,0.44322,0.62937
731.963,32.9801,-2.85765,0.44471,0.62889
732.563,33.00016,-2.85765,0.44009,0.62841
733.163,33.0202,-2.85772,0.439,0.62793
733.763,33.0403,-2.85897,0.43747,0.62745
734.363,33.06047,-2.85897,0.4363,0.62697
734.963,33.0805,-2.85897,0.43573,0.62649
735.563,33.10052,-2.85897,0.43237,0.626
736.163,33.12052,-2.85897,0.43153,0.62552
736.763,33.14052,-2.85896,0.4294,0.62504
737.363,33.16057,-2.85976,0.43051,0.62456
737.963,33.18057,-2.85921,0.42756,0.62408
738.563,33.2006,-2.85928,0.42284,0.6236
739.163,33.22064,-2.85929,0.42321,0.62312
739.763,33.2407,-2.85929,0.42535,0.62264
740.363,33.26077,-2.85929,0.41813,0.62216
740.963,33.28079,-2.85929,0.41982,0.62168
741.563,33.30171,-2.85929,0.41877,0.6212
742.163,33.32275,-2.86004,0.4179,0.62073
742.463,33.33166,-2.86088,0.41347,0.62049