File: 01_Data/Eucalyptus_Flooring/STA/N2/30K_min/Eucalyptus_Flooring_STA_N2_30KData_211312_R3.csv
##Temp./Â°C,Time/min,Mass loss(subtr.2)/mg,DSC(subtr.2)/(mW/mg),Sensit./(uV/mW)
48.382,10.01,-0.03477,0.009112965,1.06965
49.082,10.55599,-0.03670504,0.04555167,1.06958
49.782,10.6809,-0.03676633,0.08091592,1.06952
50.482,10.77187,-0.03680762,0.11131,1.06946
51.182,10.84557,-0.03701295,0.13971,1.06939
51.882,10.90882,-0.03672418,0.16417,1.06933
52.582,10.9658,-0.0369874,0.18662,1.06926
53.282,11.01789,-0.0340977,0.2087,1.06919
53.982,11.06579,-0.03749461,0.2305,1.06912
54.682,11.1112,-0.03682026,0.25164,1.06905
55.382,11.15439,-0.03661176,0.26808,1.06897
56.082,11.19533,-0.0371981,0.28819,1.0689
56.782,11.23446,-0.03799458,0.30415,1.06882
57.482,11.2723,-0.03711513,0.32068,1.06875
58.182,11.30901,-0.03744656,0.33559,1.06867
58.882,11.34446,-0.0389257,0.35013,1.06859
59.582,11.37883,-0.03869318,0.36457,1.06851
60.282,11.41248,-0.03862789,0.37743,1.06842
60.982,11.44533,-0.03861356,0.39152,1.06834
61.682,11.47751,-0.03792181,0.40468,1.06825
62.382,11.509,-0.03923486,0.41654,1.06817
63.082,11.53995,-0.03927189,0.42804,1.06808
63.782,11.57047,-0.03837458,0.4391,1.06799
64.482,11.6004,-0.03882118,0.44971,1.0679
65.182,11.63017,-0.03839374,0.46193,1.0678
65.882,11.6595,-0.04066749,0.47316,1.06771
66.582,11.68847,-0.04097792,0.48269,1.06762
67.282,11.71707,-0.04048843,0.49398,1.06752
67.982,11.7453,-0.03973375,0.50228,1.06742
68.682,11.77336,-0.03919916,0.51312,1.06732
69.382,11.8011,-0.03904517,0.52232,1.06722
70.082,11.82857,-0.03910616,0.53057,1.06712
70.782,11.85593,-0.0394084,0.5408,1.06702
71.482,11.88313,-0.04006846,0.54833,1.06691
72.182,11.91009,-0.0403726,0.55598,1.06681
72.882,11.93679,-0.0402113,0.56497,1.0667
73.582,11.9632,-0.04009605,0.57153,1.06659
74.282,11.98976,-0.04045482,0.57826,1.06648
74.982,12.01602,-0.04225006,0.58709,1.06637
75.682,12.04214,-0.04260807,0.59462,1.06626
76.382,12.06815,-0.04259438,0.6008,1.06614
77.082,12.09417,-0.04258627,0.60784,1.06603
77.782,12.11972,-0.0422024,0.61473,1.06591
78.482,12.14542,-0.04232373,0.622,1.0658
79.182,12.17104,-0.04360807,0.63001,1.06568
79.882,12.19645,-0.04388105,0.63374,1.06556
80.582,12.2218,-0.04401613,0.64098,1.06543
81.282,12.24715,-0.04344023,0.64781,1.06531
81.982,12.27242,-0.04358788,0.65312,1.06519
82.682,12.29757,-0.04383739,0.65814,1.06506
83.382,12.32279,-0.04352489,0.66653,1.06493
84.082,12.34773,-0.04431432,0.67052,1.06481
84.782,12.3726,-0.04345475,0.67531,1.06468
85.482,12.39744,-0.04440059,0.68311,1.06455
86.182,12.42227,-0.04346577,0.68647,1.06441
86.882,12.44695,-0.04464608,0.6925,1.06428
87.582,12.47152,-0.04540605,0.69768,1.06414
88.282,12.49588,-0.04517511,0.70427,1.06401
88.982,12.52009,-0.04530397,0.70923,1.06387
89.682,12.5443,-0.0452782,0.71295,1.06373
90.382,12.56837,-0.04566788,0.71857,1.06359
91.082,12.59262,-0.04525904,0.72212,1.06345
91.782,12.6169,-0.04666195,0.7259,1.06331
92.482,12.6411,-0.04677149,0.72892,1.06316
93.182,12.6654,-0.04701442,0.73345,1.06302
93.882,12.68952,-0.04673504,0.73551,1.06287
94.582,12.71344,-0.04767062,0.73952,1.06272
95.282,12.73749,-0.04803806,0.74455,1.06258
95.982,12.7614,-0.04764323,0.74843,1.06243
96.682,12.78534,-0.04810874,0.75095,1.06227
97.382,12.8093,-0.04804048,0.752,1.06212
98.082,12.83302,-0.04806376,0.75491,1.06197
98.782,12.8567,-0.04942365,0.7568,1.06181
99.482,12.88053,-0.04936186,0.75711,1.06165
100.182,12.90427,-0.0497485,0.7611,1.0615
100.882,12.9282,-0.05077351,0.76348,1.06134
101.582,12.952,-0.05062194,0.76456,1.06118
102.282,12.97574,-0.05090878,0.76631,1.06101
102.982,12.99945,-0.05150957,0.76538,1.06085
103.682,13.02315,-0.05128776,0.76615,1.06069
104.382,13.04683,-0.05090452,0.76674,1.06052
105.082,13.07051,-0.05091721,0.76729,1.06035
105.782,13.09418,-0.05226071,0.76749,1.06018
106.482,13.11788,-0.05221152,0.76672,1.06001
107.182,13.14144,-0.05220999,0.76919,1.05984
107.882,13.16505,-0.05221185,0.76744,1.05967
108.582,13.1886,-0.05243858,0.76716,1.0595
109.282,13.21205,-0.05350907,0.76569,1.05932
109.982,13.2355,-0.05352777,0.76593,1.05915
110.682,13.259,-0.05352565,0.76435,1.05897
111.382,13.2825,-0.05315041,0.76272,1.05879
112.082,13.30608,-0.05355561,0.76035,1.05861
112.782,13.3296,-0.05353016,0.75945,1.05843
113.482,13.35312,-0.05352964,0.7606,1.05825
114.182,13.3766,-0.0535229,0.75874,1.05807
114.882,13.40003,-0.05484189,0.75609,1.05788
115.582,13.42351,-0.05484693,0.7563,1.05769
116.282,13.44682,-0.05483983,0.75377,1.05751
116.982,13.47018,-0.05484077,0.75437,1.05732
117.682,13.49358,-0.05514453,0.7506,1.05713
118.382,13.51692,-0.05616419,0.75057,1.05694
119.082,13.54035,-0.05615997,0.74772,1.05675
119.782,13.56375,-0.05615979,0.74475,1.05655
120.482,13.587,-0.05615641,0.74622,1.05636
121.182,13.61028,-0.05616897,0.7448,1.05616
121.882,13.63352,-0.05753188,0.74066,1.05597
122.582,13.6567,-0.05748248,0.74102,1.05577
123.282,13.68,-0.05748,0.74053,1.05557
123.982,13.70311,-0.05747999,0.73927,1.05537
124.682,13.72613,-0.05748,0.74028,1.05516
125.382,13.7492,-0.05748001,0.73973,1.05496
126.082,13.77225,-0.05747962,0.73753,1.05476
126.782,13.7953,-0.05746839,0.73871,1.05455
127.482,13.8184,-0.05716715,0.73621,1.05434
128.182,13.8414,-0.05747224,0.73788,1.05414
128.882,13.86442,-0.05747913,0.73836,1.05393
129.582,13.88737,-0.05747972,0.73748,1.05372
130.282,13.91032,-0.05748075,0.73812,1.0535
130.982,13.93325,-0.05762871,0.73798,1.05329
131.682,13.9561,-0.05881503,0.73721,1.05308
132.382,13.97894,-0.05791344,0.73896,1.05286
133.082,14.00177,-0.05737373,0.73963,1.05264
133.782,14.02449,-0.05736992,0.74169,1.05243
134.482,14.0473,-0.05736363,0.74256,1.05221
135.182,14.07,-0.0573702,0.74395,1.05199
135.882,14.09269,-0.05866844,0.74548,1.05177
136.582,14.11542,-0.05977012,0.74705,1.05154
137.282,14.1381,-0.05999485,0.74879,1.05132
137.982,14.1607,-0.06000009,0.75062,1.05109
138.682,14.1833,-0.06000002,0.75142,1.05087
139.382,14.20589,-0.06,0.75639,1.05064
140.082,14.2285,-0.06,0.75627,1.05041
140.782,14.25109,-0.06,0.75827,1.05018
141.482,14.2737,-0.06000005,0.76122,1.04995
142.182,14.2962,-0.06000099,0.76348,1.04972
142.882,14.31855,-0.06000911,0.76487,1.04949
143.582,14.34099,-0.06074231,0.76809,1.04925
144.282,14.36348,-0.06130596,0.77018,1.04901
144.982,14.3859,-0.06131919,0.77226,1.04878
145.682,14.40838,-0.06132004,0.77334,1.04854
146.382,14.4308,-0.06131937,0.77552,1.0483
147.082,14.4532,-0.06128179,0.77995,1.04806
147.782,14.47556,-0.06224891,0.78415,1.04782
148.482,14.4979,-0.06308654,0.78509,1.04758
149.182,14.52028,-0.06362739,0.79042,1.04733
149.882,14.5426,-0.06522014,0.79003,1.04709
150.582,14.56485,-0.06515515,0.79411,1.04684
151.282,14.58712,-0.06515023,0.79752,1.04659
151.982,14.60936,-0.06515002,0.7993,1.04634
152.682,14.63165,-0.0651494,0.80347,1.04609
153.382,14.654,-0.06510844,0.805,1.04584
154.082,14.676,-0.06376534,0.80736,1.04559
154.782,14.6982,-0.06383577,0.80988,1.04534
155.482,14.7203,-0.06384732,0.81101,1.04508
156.182,14.7424,-0.06416146,0.81527,1.04483
156.882,14.76484,-0.06416406,0.81858,1.04457
157.582,14.787,-0.06409204,0.82036,1.04431
158.282,14.8092,-0.06608556,0.82281,1.04405
158.982,14.83138,-0.06646748,0.82676,1.04379
159.682,14.8535,-0.06646958,0.83131,1.04353
160.382,14.8756,-0.06646748,0.83344,1.04327
161.082,14.89773,-0.06643947,0.8354,1.04301
161.782,14.91983,-0.06680096,0.83662,1.04274
162.482,14.94198,-0.06679946,0.84174,1.04248
163.182,14.964,-0.06679993,0.84461,1.04221
163.882,14.986,-0.06679973,0.84859,1.04194
164.582,15.00811,-0.0667971,0.84858,1.04167
165.282,15.03019,-0.06680586,0.85196,1.0414
165.982,15.05225,-0.06816396,0.85584,1.04113
166.682,15.07441,-0.06812366,0.85714,1.04086
167.382,15.09641,-0.0681202,0.86037,1.04058
168.082,15.1184,-0.06812001,0.86539,1.04031
168.782,15.14035,-0.06812001,0.86719,1.04003
169.482,15.1623,-0.06812088,0.86915,1.03976
170.182,15.18419,-0.06814225,0.87047,1.03948
170.882,15.2061,-0.06871921,0.8746,1.0392
171.582,15.22807,-0.0699336,0.87545,1.03892
172.282,15.25,-0.07075,0.88147,1.03864
172.982,15.2719,-0.0707492,0.88342,1.03835
173.682,15.2937,-0.07074993,0.88593,1.03807
174.382,15.31555,-0.07075009,0.88767,1.03779
175.082,15.33743,-0.07075124,0.89258,1.0375
175.782,15.35936,-0.07075634,0.8954,1.03721
176.482,15.38137,-0.0719384,0.89835,1.03692
177.182,15.40329,-0.07339275,0.90064,1.03663
177.882,15.42516,-0.07365423,0.90569,1.03634
178.582,15.44695,-0.07473171,0.90543,1.03605
179.282,15.4687,-0.07470072,0.90722,1.03576
179.982,15.49046,-0.07470105,0.90994,1.03547
180.682,15.5123,-0.07479227,0.91428,1.03517
181.382,15.53403,-0.07606212,0.91577,1.03488
182.082,15.5558,-0.07601264,0.91896,1.03458
182.782,15.57748,-0.07600385,0.92026,1.03428
183.482,15.59915,-0.07596846,0.9201,1.03398
184.182,15.6208,-0.07733243,0.92307,1.03368
184.882,15.6424,-0.07792736,0.92817,1.03338
185.582,15.66412,-0.08005485,0.9298,1.03308
186.282,15.6857,-0.08188239,0.93089,1.03278
186.982,15.70713,-0.08188909,0.93307,1.03247
187.682,15.7286,-0.08090922,0.93654,1.03217
188.382,15.75017,-0.08160811,0.93794,1.03186
189.082,15.7718,-0.08160404,0.94021,1.03155
189.782,15.7936,-0.08143801,0.94079,1.03124
190.482,15.8154,-0.0802368,0.94125,1.03093
191.182,15.837,-0.08019408,0.94467,1.03062
191.882,15.85855,-0.08159714,0.94713,1.03031
192.582,15.8801,-0.08161557,0.94839,1.03
193.282,15.9017,-0.08293384,0.94997,1.02968
193.982,15.9232,-0.08430236,0.95038,1.02937
194.682,15.9447,-0.08527898,0.95438,1.02905
195.382,15.96626,-0.0855038,0.95373,1.02874
196.082,15.9878,-0.08696088,0.95437,1.02842
196.782,16.00933,-0.08708521,0.95605,1.0281
197.482,16.03089,-0.08845364,0.95827,1.02778
198.182,16.0524,-0.0884171,0.95802,1.02746
198.882,16.0739,-0.08845012,0.95763,1.02714
199.582,16.09541,-0.08981487,0.96136,1.02681
200.282,16.1169,-0.08972724,0.9629,1.02649
200.982,16.1383,-0.09091778,0.96164,1.02616
201.682,16.1597,-0.09103892,0.96499,1.02584
202.382,16.1812,-0.09148483,0.96507,1.02551
203.082,16.20259,-0.09238989,0.96874,1.02518
203.782,16.2239,-0.09386532,0.96714,1.02485
204.482,16.24537,-0.0945495,0.96799,1.02452
205.182,16.26679,-0.09557376,0.96962,1.02419
205.882,16.2882,-0.09634508,0.96949,1.02386
206.582,16.3098,-0.09695655,0.97158,1.02352
207.282,16.33128,-0.09996373,0.97163,1.02319
207.982,16.35267,-0.101,0.97162,1.02285
208.682,16.37409,-0.10178,0.97264,1.02252
209.382,16.39551,-0.10324,0.97448,1.02218
210.082,16.4169,-0.10455,0.97553,1.02184
210.782,16.43828,-0.10469,0.97395,1.0215
211.482,16.45962,-0.10618,0.97582,1.02116
212.182,16.48101,-0.10661,0.97445,1.02082
212.882,16.50241,-0.10759,0.97337,1.02048
213.582,16.52382,-0.10773,0.97405,1.02013
214.282,16.5453,-0.11023,0.97697,1.01979
214.982,16.56665,-0.11189,0.97466,1.01944
215.682,16.58794,-0.11257,0.97418,1.0191
216.382,16.60926,-0.1135,0.97484,1.01875
217.082,16.63051,-0.11508,0.97454,1.0184
217.782,16.65184,-0.11664,0.97282,1.01805
218.482,16.6732,-0.11772,0.97405,1.0177
219.182,16.69452,-0.11843,0.97352,1.01735
219.882,16.71588,-0.11983,0.9724,1.017
220.582,16.73718,-0.11998,0.97316,1.01665
221.282,16.75844,-0.12141,0.97068,1.01629
221.982,16.77976,-0.12228,0.97128,1.01594
222.682,16.8011,-0.12331,0.96902,1.01558
223.382,16.82244,-0.1249,0.96873,1.01522
224.082,16.84383,-0.12484,0.96553,1.01486
224.782,16.86522,-0.12484,0.96488,1.01451
225.482,16.88661,-0.12632,0.9635,1.01415
226.182,16.90789,-0.12888,0.96328,1.01378
226.882,16.92916,-0.13277,0.96226,1.01342
227.582,16.9504,-0.13496,0.96289,1.01306
228.282,16.97165,-0.13701,0.96014,1.0127
228.982,16.99294,-0.13884,0.95799,1.01233
229.682,17.0142,-0.14045,0.9593,1.01196
230.382,17.03554,-0.14212,0.95706,1.0116
231.082,17.05684,-0.14372,0.95609,1.01123
231.782,17.0781,-0.14509,0.95504,1.01086
232.482,17.09947,-0.14659,0.95098,1.01049
233.182,17.12069,-0.14827,0.95001,1.01012
233.882,17.14199,-0.14974,0.94893,1.00975
234.582,17.16328,-0.15116,0.94822,1.00938
235.282,17.18445,-0.15294,0.9451,1.009
235.982,17.20567,-0.1545,0.94367,1.00863
236.682,17.2269,-0.15601,0.94146,1.00826
237.382,17.24813,-0.15798,0.94007,1.00788
238.082,17.2694,-0.16019,0.93761,1.0075
238.782,17.29066,-0.16216,0.93443,1.00712
239.482,17.312,-0.16357,0.93049,1.00675
240.182,17.33321,-0.16546,0.92979,1.00637
240.882,17.3545,-0.16768,0.92956,1.00599
241.582,17.37576,-0.17014,0.92536,1.0056
242.282,17.39704,-0.17221,0.92453,1.00522
242.982,17.41827,-0.17424,0.92141,1.00484
243.682,17.43946,-0.17654,0.91812,1.00445
244.382,17.4605,-0.17849,0.91671,1.00407
245.082,17.48156,-0.18104,0.91488,1.00368
245.782,17.5028,-0.18289,0.91101,1.0033
246.482,17.52401,-0.18526,0.90784,1.00291
247.182,17.54526,-0.1874,0.905,1.00252
247.882,17.56663,-0.19056,0.8996,1.00213
248.582,17.5878,-0.19355,0.89867,1.00174
249.282,17.60904,-0.19633,0.8945,1.00135
249.982,17.63029,-0.19835,0.89271,1.00096
250.682,17.65146,-0.2005,0.8882,1.00056
251.382,17.6727,-0.20324,0.88424,1.00017
252.082,17.69389,-0.2062,0.87844,0.99977
252.782,17.71507,-0.20936,0.87743,0.99938
253.482,17.73629,-0.21209,0.87321,0.99898
254.182,17.7575,-0.21483,0.86924,0.99858
254.882,17.77856,-0.21773,0.86549,0.99819
255.582,17.79978,-0.2199,0.86163,0.99779
256.282,17.821,-0.22234,0.85957,0.99739
256.982,17.8421,-0.22489,0.85359,0.99699
257.682,17.86337,-0.22797,0.84894,0.99658
258.382,17.88445,-0.23095,0.84628,0.99618
259.082,17.90557,-0.23379,0.8424,0.99578
259.782,17.92671,-0.23698,0.84069,0.99537
260.482,17.9478,-0.24036,0.83795,0.99497
261.182,17.96885,-0.24398,0.83231,0.99456
261.882,17.99,-0.24789,0.82664,0.99415
262.582,18.01117,-0.25038,0.82456,0.99375
263.282,18.03231,-0.25287,0.81904,0.99334
263.982,18.05365,-0.25531,0.81592,0.99293
264.682,18.07477,-0.25873,0.81277,0.99252
265.382,18.09593,-0.2623,0.80851,0.99211
266.082,18.11709,-0.26579,0.80374,0.99169
266.782,18.13826,-0.26928,0.8009,0.99128
267.482,18.1595,-0.27213,0.7937,0.99087
268.182,18.18065,-0.27578,0.79286,0.99045
268.882,18.20187,-0.2795,0.79203,0.99004
269.582,18.223,-0.28398,0.78612,0.98962
270.282,18.24419,-0.28853,0.78215,0.98921
270.982,18.26533,-0.29204,0.7782,0.98879
271.682,18.28645,-0.29583,0.77602,0.98837
272.382,18.3077,-0.29883,0.7708,0.98795
273.082,18.32882,-0.30378,0.7677,0.98753
273.782,18.35,-0.30801,0.76303,0.98711
274.482,18.3711,-0.31293,0.75778,0.98669
275.182,18.3923,-0.31684,0.75904,0.98626
275.882,18.4135,-0.32053,0.75258,0.98584
276.582,18.43463,-0.3248,0.74943,0.98542
277.282,18.45583,-0.32878,0.74642,0.98499
277.982,18.477,-0.33309,0.74199,0.98456
278.682,18.49812,-0.33743,0.73823,0.98414
279.382,18.51931,-0.34177,0.73324,0.98371
280.082,18.54041,-0.34862,0.73027,0.98328
280.782,18.56156,-0.35269,0.72564,0.98285
281.482,18.58275,-0.3583,0.7224,0.98242
282.182,18.6039,-0.36275,0.71835,0.98199
282.882,18.6251,-0.36827,0.71336,0.98156
283.582,18.64629,-0.37363,0.70991,0.98113
284.282,18.6675,-0.3792,0.70642,0.9807
284.982,18.68863,-0.38367,0.702,0.98026
285.682,18.70981,-0.38891,0.69565,0.97983
286.382,18.73096,-0.3934,0.6899,0.97939
287.082,18.75217,-0.39946,0.68369,0.97896
287.782,18.77329,-0.4055,0.67995,0.97852
288.482,18.7944,-0.41087,0.67582,0.97808
289.182,18.81563,-0.4176,0.6712,0.97764
289.882,18.8368,-0.42386,0.66811,0.9772
290.582,18.858,-0.43036,0.65957,0.97676
291.282,18.87913,-0.43566,0.65402,0.97632
291.982,18.9003,-0.4428,0.64954,0.97588
292.682,18.9215,-0.4489,0.63951,0.97544
293.382,18.94269,-0.45689,0.63565,0.975
294.082,18.9639,-0.46285,0.62779,0.97455
294.782,18.9851,-0.47013,0.62292,0.97411
295.482,19.00633,-0.4766,0.61452,0.97366
296.182,19.02749,-0.4846,0.60703,0.97322
296.882,19.04869,-0.49229,0.60205,0.97277
297.582,19.06982,-0.49892,0.59289,0.97232
298.282,19.09096,-0.50605,0.58466,0.97188
298.982,19.11216,-0.51346,0.57942,0.97143
299.682,19.13339,-0.52183,0.57373,0.97098
300.382,19.15458,-0.52994,0.56559,0.97053
301.082,19.1758,-0.53888,0.55747,0.97008
301.782,19.19695,-0.54745,0.55012,0.96962
302.482,19.21814,-0.55789,0.54548,0.96917
303.182,19.23938,-0.56596,0.53916,0.96872
303.882,19.2606,-0.57601,0.53298,0.96826
304.582,19.28184,-0.5847,0.52842,0.96781
305.282,19.30305,-0.59546,0.52404,0.96735
305.982,19.3243,-0.60381,0.51844,0.9669
306.682,19.34545,-0.61425,0.5124,0.96644
307.382,19.36662,-0.62375,0.50973,0.96598
308.082,19.38784,-0.6348,0.50288,0.96553
308.782,19.409,-0.64474,0.50098,0.96507
309.482,19.43027,-0.65505,0.49693,0.96461
310.182,19.45149,-0.66585,0.4947,0.96415
310.882,19.47271,-0.6772,0.49395,0.96369
311.582,19.49395,-0.68987,0.49256,0.96322
312.282,19.51516,-0.70107,0.49053,0.96276
312.982,19.53635,-0.71358,0.49253,0.9623
313.682,19.5575,-0.72427,0.49258,0.96183
314.382,19.57866,-0.73771,0.49227,0.96137
315.082,19.59991,-0.74845,0.49553,0.9609
315.782,19.62122,-0.76191,0.49531,0.96044
316.482,19.64251,-0.77326,0.49919,0.95997
317.182,19.66386,-0.7879,0.50237,0.95951
317.882,19.685,-0.7999,0.50509,0.95904
318.582,19.70626,-0.81344,0.51022,0.95857
319.282,19.7275,-0.82555,0.51186,0.9581
319.982,19.74881,-0.83989,0.51782,0.95763
320.682,19.7701,-0.85357,0.52198,0.95716
321.382,19.79146,-0.86781,0.52694,0.95669
322.082,19.8127,-0.88274,0.53225,0.95622
322.782,19.8339,-0.89699,0.53859,0.95574
323.482,19.8552,-0.91296,0.54474,0.95527
324.182,19.87637,-0.92705,0.55059,0.9548
324.882,19.8977,-0.94384,0.55545,0.95432
325.582,19.91899,-0.95803,0.56222,0.95385
326.282,19.94031,-0.97589,0.56895,0.95337
326.982,19.96159,-0.98976,0.57321,0.95289
327.682,19.9829,-1.00718,0.57798,0.95242
328.382,20.0042,-1.0218,0.58489,0.95194
329.082,20.0255,-1.04055,0.59136,0.95146
329.782,20.0469,-1.05717,0.59892,0.95098
330.482,20.06821,-1.07584,0.60389,0.9505
331.182,20.08953,-1.09268,0.60779,0.95002
331.882,20.1109,-1.11021,0.61284,0.94954
332.582,20.13222,-1.12859,0.61826,0.94906
333.282,20.1536,-1.14691,0.62041,0.94858
333.982,20.175,-1.16745,0.62467,0.94809
334.682,20.1963,-1.18558,0.62742,0.94761
335.382,20.21765,-1.20707,0.63068,0.94713
336.082,20.23904,-1.22455,0.63248,0.94664
336.782,20.2604,-1.24606,0.63346,0.94616
337.482,20.2818,-1.26383,0.63567,0.94567
338.182,20.3032,-1.28652,0.63696,0.94518
338.882,20.32452,-1.30539,0.63544,0.9447
339.582,20.34591,-1.32821,0.63349,0.94421
340.282,20.3673,-1.34895,0.63309,0.94372
340.982,20.3887,-1.37164,0.62869,0.94323
341.682,20.41017,-1.39344,0.62552,0.94274
342.382,20.4315,-1.41517,0.62151,0.94225
343.082,20.45293,-1.43799,0.61819,0.94176
343.782,20.47437,-1.45994,0.61244,0.94127
344.482,20.4957,-1.48482,0.60579,0.94078
345.182,20.51708,-1.50634,0.59756,0.94028
345.882,20.5384,-1.53233,0.58993,0.93979
346.582,20.5598,-1.55373,0.58143,0.9393
347.282,20.58132,-1.58035,0.5701,0.9388
347.982,20.6028,-1.60127,0.55923,0.93831
348.682,20.62433,-1.62678,0.54781,0.93781
349.382,20.64582,-1.64872,0.53268,0.93732
350.082,20.6673,-1.67385,0.52088,0.93682
350.782,20.68874,-1.69626,0.50649,0.93632
351.482,20.71022,-1.7203,0.49157,0.93582
352.182,20.7317,-1.74427,0.47316,0.93533
352.882,20.75314,-1.76758,0.45705,0.93483
353.582,20.77459,-1.79326,0.43827,0.93433
354.282,20.79603,-1.81588,0.42114,0.93383
354.982,20.8175,-1.84075,0.40061,0.93333
355.682,20.83899,-1.86088,0.38034,0.93282
356.382,20.86052,-1.8857,0.36393,0.93232
357.082,20.88201,-1.90491,0.34323,0.93182
357.782,20.9036,-1.92865,0.32358,0.93132
358.482,20.9251,-1.94673,0.30642,0.93081
359.182,20.9465,-1.96866,0.28763,0.93031
359.882,20.96799,-1.98721,0.26933,0.92981
360.582,20.98931,-2.00708,0.25175,0.9293
361.282,21.01076,-2.02707,0.23401,0.92879
361.982,21.0323,-2.04522,0.21935,0.92829
362.682,21.0539,-2.06372,0.20482,0.92778
363.382,21.07563,-2.08037,0.18987,0.92727
364.082,21.09725,-2.09821,0.17972,0.92677
364.782,21.11882,-2.11186,0.16884,0.92626
365.482,21.14034,-2.1278,0.15864,0.92575
366.182,21.1619,-2.13982,0.14845,0.92524
366.882,21.1835,-2.15444,0.14182,0.92473
367.582,21.2051,-2.16596,0.13553,0.92422
368.282,21.2267,-2.1791,0.13005,0.92371
368.982,21.24831,-2.1901,0.12269,0.9232
369.682,21.26983,-2.20089,0.12054,0.92268
370.382,21.2914,-2.21099,0.11474,0.92217
371.082,21.31317,-2.22095,0.10895,0.92166
371.782,21.3348,-2.23102,0.10747,0.92115
372.482,21.35651,-2.24058,0.10611,0.92063
373.182,21.37819,-2.24982,0.10247,0.92012
373.882,21.3998,-2.25661,0.09640945,0.9196
374.582,21.42146,-2.26472,0.09428946,0.91909
375.282,21.44312,-2.27094,0.0915044,0.91857
375.982,21.4648,-2.27811,0.08583634,0.91805
376.682,21.48638,-2.28332,0.08428468,0.91754
377.382,21.50809,-2.28995,0.0802524,0.91702
378.082,21.52981,-2.29545,0.07914169,0.9165
378.782,21.55152,-2.30117,0.07512807,0.91598
379.482,21.57321,-2.30879,0.06990237,0.91546
380.182,21.5948,-2.31554,0.06697095,0.91494
380.882,21.61649,-2.32146,0.06321581,0.91442
381.582,21.63818,-2.32477,0.0592611,0.9139
382.282,21.65989,-2.32983,0.05401397,0.91338
382.982,21.6816,-2.33334,0.04853599,0.91286
383.682,21.70335,-2.3369,0.04353488,0.91234
384.382,21.72508,-2.34143,0.04006814,0.91182
385.082,21.74683,-2.34559,0.03621013,0.91129
385.782,21.7686,-2.35122,0.02902767,0.91077
386.482,21.7903,-2.3559,0.02458806,0.91024
387.182,21.812,-2.35872,0.02058344,0.90972
387.882,21.83375,-2.36189,0.01374277,0.9092
388.582,21.85549,-2.36551,0.008770711,0.90867
389.282,21.87731,-2.3694,0.00424333,0.90814
389.982,21.89909,-2.3734,-0.0005636424,0.90762
390.682,21.92086,-2.3769,-0.00678407,0.90709
391.382,21.94264,-2.38068,-0.01435246,0.90656
392.082,21.96431,-2.38412,-0.01972763,0.90604
392.782,21.98607,-2.38927,-0.02438777,0.90551
393.482,22.0078,-2.39258,-0.02787733,0.90498
394.182,22.02957,-2.39603,-0.0361067,0.90445
394.882,22.0514,-2.39887,-0.03989312,0.90392
395.582,22.07319,-2.40013,-0.04769276,0.90339
396.282,22.09502,-2.40312,-0.05436832,0.90286
396.982,22.11676,-2.40658,-0.06041555,0.90233
397.682,22.1386,-2.41116,-0.06691279,0.9018
398.382,22.16039,-2.41502,-0.07148807,0.90127
399.082,22.18214,-2.41764,-0.07634408,0.90074
399.782,22.204,-2.42068,-0.08202627,0.9002
400.482,22.22588,-2.42352,-0.08728831,0.89967
401.182,22.2477,-2.42595,-0.09210217,0.89914
401.882,22.26957,-2.42808,-0.09644478,0.8986
402.582,22.2914,-2.43134,-0.10282,0.89807
403.282,22.31328,-2.43461,-0.10887,0.89753
403.982,22.33513,-2.43813,-0.1129,0.897
404.682,22.35695,-2.44138,-0.11625,0.89646
405.382,22.37882,-2.44424,-0.12043,0.89593
406.082,22.40063,-2.44706,-0.12568,0.89539
406.782,22.42249,-2.44956,-0.13052,0.89486
407.482,22.44436,-2.4523,-0.13075,0.89432
408.182,22.46619,-2.45508,-0.13652,0.89378
408.882,22.48806,-2.45872,-0.13828,0.89324
409.582,22.50992,-2.46135,-0.14173,0.8927
410.282,22.53181,-2.4636,-0.1426,0.89217
410.982,22.55368,-2.46649,-0.14832,0.89163
411.682,22.5756,-2.46959,-0.14998,0.89109
412.382,22.59743,-2.47258,-0.151,0.89055
413.082,22.61929,-2.47544,-0.15573,0.89001
413.782,22.6412,-2.47822,-0.15764,0.88947
414.482,22.66307,-2.48092,-0.15724,0.88893
415.182,22.68502,-2.48325,-0.15994,0.88838
415.882,22.70691,-2.48608,-0.15904,0.88784
416.582,22.72877,-2.48871,-0.16009,0.8873
417.282,22.75066,-2.49138,-0.16122,0.88676
417.982,22.7726,-2.49378,-0.16307,0.88621
418.682,22.79449,-2.49575,-0.16148,0.88567
419.382,22.81642,-2.49777,-0.16128,0.88513
420.082,22.83835,-2.50024,-0.1632,0.88458
420.782,22.8603,-2.50319,-0.16297,0.88404
421.482,22.8822,-2.5059,-0.16144,0.88349
422.182,22.90419,-2.50878,-0.16196,0.88295
422.882,22.92618,-2.51206,-0.1583,0.8824
423.582,22.94812,-2.51518,-0.16099,0.88186
424.282,22.9701,-2.51732,-0.15973,0.88131
424.982,22.99209,-2.52066,-0.15635,0.88076
425.682,23.014,-2.52282,-0.15649,0.88022
426.382,23.03596,-2.52546,-0.15624,0.87967
427.082,23.05793,-2.52849,-0.15545,0.87912
427.782,23.07989,-2.53265,-0.15296,0.87857
428.482,23.10181,-2.53514,-0.14892,0.87802
429.182,23.1238,-2.5373,-0.14688,0.87748
429.882,23.14582,-2.54043,-0.14367,0.87693
430.582,23.16778,-2.54133,-0.14383,0.87638
431.282,23.1899,-2.54273,-0.13893,0.87583
431.982,23.2119,-2.54445,-0.13772,0.87528
432.682,23.2339,-2.54601,-0.13265,0.87473
433.382,23.25592,-2.54874,-0.12962,0.87418
434.082,23.27787,-2.5513,-0.12526,0.87362
434.782,23.29984,-2.55348,-0.12266,0.87307
435.482,23.32191,-2.55612,-0.11797,0.87252
436.182,23.34398,-2.55854,-0.11369,0.87197
436.882,23.36608,-2.56076,-0.11321,0.87142
437.582,23.3882,-2.56324,-0.1096,0.87086
438.282,23.41017,-2.56679,-0.10272,0.87031
438.982,23.43216,-2.56876,-0.09954005,0.86976
439.682,23.4542,-2.57131,-0.09500339,0.8692
440.382,23.47625,-2.57386,-0.09071561,0.86865
441.082,23.4983,-2.57611,-0.08621205,0.86809
441.782,23.52036,-2.57865,-0.08319172,0.86754
442.482,23.5424,-2.58128,-0.08010996,0.86698
443.182,23.56445,-2.58389,-0.07453545,0.86643
443.882,23.5865,-2.58616,-0.07254418,0.86587
444.582,23.60845,-2.58759,-0.06669625,0.86532
445.282,23.63061,-2.58964,-0.06172943,0.86476
445.982,23.6527,-2.59126,-0.05914181,0.8642
446.682,23.67481,-2.59315,-0.05348598,0.86365
447.382,23.69706,-2.59551,-0.0504681,0.86309
448.082,23.7192,-2.59816,-0.0466247,0.86253
448.782,23.7413,-2.60135,-0.0435395,0.86197
449.482,23.76345,-2.60408,-0.03940953,0.86142
450.182,23.7856,-2.60622,-0.03466418,0.86086
450.882,23.80774,-2.60833,-0.03050801,0.8603
451.582,23.82984,-2.6104,-0.02880303,0.85974
452.282,23.85199,-2.61245,-0.02298986,0.85918
452.982,23.87411,-2.61459,-0.02139734,0.85862
453.682,23.89625,-2.61682,-0.01937917,0.85806
454.382,23.9184,-2.61919,-0.0127589,0.8575
455.082,23.94054,-2.62069,-0.00591193,0.85694
455.782,23.96274,-2.62272,-0.005203227,0.85638
456.482,23.98484,-2.62515,-0.002516265,0.85582
457.182,24.007,-2.62747,-0.0001972843,0.85526
457.882,24.02918,-2.62954,0.004117697,0.8547
458.582,24.05132,-2.63157,0.00671621,0.85413
459.282,24.07355,-2.63363,0.01087741,0.85357
459.982,24.09581,-2.63535,0.01484903,0.85301
460.682,24.118,-2.63679,0.01424446,0.85245
461.382,24.14025,-2.63863,0.01781396,0.85188
462.082,24.16246,-2.64053,0.01770329,0.85132
462.782,24.18459,-2.64293,0.02377552,0.85076
463.482,24.20682,-2.64482,0.02720354,0.85019
464.182,24.229,-2.64734,0.02686245,0.84963
464.882,24.25125,-2.6493,0.02391672,0.84907
465.582,24.27354,-2.65138,0.02904946,0.8485
466.282,24.29577,-2.65339,0.03219498,0.84794
466.982,24.31804,-2.65479,0.03312015,0.84737
467.682,24.34028,-2.65672,0.03610659,0.84681
468.382,24.3625,-2.65877,0.03531614,0.84624
469.082,24.38478,-2.66091,0.03759118,0.84568
469.782,24.407,-2.66303,0.04104442,0.84511
470.482,24.42932,-2.66476,0.04107599,0.84454
471.182,24.45157,-2.6663,0.0414902,0.84398
471.882,24.4738,-2.66769,0.042014,0.84341
472.582,24.496,-2.66923,0.04454873,0.84284
473.282,24.51822,-2.67121,0.04194826,0.84228
473.982,24.54055,-2.67255,0.04131465,0.84171
474.682,24.5628,-2.67389,0.04490514,0.84114
475.382,24.5851,-2.67559,0.04635119,0.84057
476.082,24.60737,-2.67736,0.04650117,0.84001
476.782,24.6296,-2.6797,0.04545549,0.83944
477.482,24.65194,-2.68153,0.04549433,0.83887
478.182,24.6743,-2.68319,0.04764696,0.8383
478.882,24.6966,-2.68486,0.04642944,0.83773
479.582,24.71886,-2.68576,0.05098135,0.83716
480.282,24.7411,-2.68684,0.0514244,0.83659
480.982,24.76353,-2.6887,0.04946743,0.83602
481.682,24.7859,-2.69053,0.05124013,0.83545
482.382,24.80818,-2.69192,0.04793135,0.83488
483.082,24.83052,-2.69346,0.04663456,0.83431
483.782,24.85277,-2.69474,0.04946947,0.83374
484.482,24.87513,-2.69634,0.04944913,0.83317
485.182,24.89754,-2.69823,0.05043022,0.8326
485.882,24.91988,-2.69979,0.04979591,0.83203
486.582,24.94226,-2.70163,0.04925941,0.83146
487.282,24.9646,-2.70464,0.04945985,0.83089
487.982,24.98698,-2.70506,0.05053912,0.83032
488.682,25.00939,-2.70693,0.04776384,0.82974
489.382,25.03172,-2.70866,0.04802979,0.82917
490.082,25.05416,-2.71021,0.04791274,0.8286
490.782,25.07648,-2.71158,0.0476512,0.82803
491.482,25.0989,-2.71284,0.04592021,0.82745
492.182,25.12124,-2.71402,0.04365242,0.82688
492.882,25.14358,-2.71552,0.04815452,0.82631
493.582,25.16599,-2.71728,0.04786485,0.82573
494.282,25.18838,-2.71884,0.04495612,0.82516
494.982,25.2107,-2.72019,0.04410939,0.82459
495.682,25.23316,-2.72164,0.04290009,0.82401
496.382,25.25551,-2.7228,0.04268444,0.82344
497.082,25.27792,-2.72376,0.04155964,0.82287
497.782,25.30041,-2.72537,0.04414739,0.82229
498.482,25.3228,-2.72658,0.04175616,0.82172
499.182,25.34516,-2.72797,0.03917784,0.82114
499.882,25.36757,-2.72914,0.0382686,0.82057
500.582,25.38995,-2.73053,0.03817773,0.81999
501.282,25.41221,-2.73223,0.03656246,0.81942
501.982,25.4346,-2.7331,0.03655698,0.81884
502.682,25.4571,-2.73415,0.03599324,0.81827
503.382,25.47952,-2.73625,0.03408693,0.81769
504.082,25.50212,-2.73911,0.03506228,0.81712
504.782,25.52463,-2.74052,0.03344369,0.81654
505.482,25.54705,-2.74223,0.03232779,0.81596
506.182,25.56954,-2.74255,0.03235709,0.81539
506.882,25.59202,-2.74312,0.0327658,0.81481
507.582,25.61451,-2.74412,0.03107193,0.81423
508.282,25.63703,-2.74583,0.03178945,0.81366
508.982,25.6595,-2.74649,0.03167186,0.81308
509.682,25.68194,-2.74737,0.0286719,0.8125
510.382,25.70443,-2.7488,0.02834186,0.81193
511.082,25.72692,-2.74995,0.0248045,0.81135
511.782,25.74935,-2.75023,0.02538118,0.81077
512.482,25.77185,-2.75178,0.02520289,0.8102
513.182,25.79426,-2.75336,0.02185621,0.80962
513.882,25.8167,-2.75471,0.02332172,0.80904
514.582,25.8391,-2.75568,0.02113596,0.80846
515.282,25.86161,-2.75711,0.0188457,0.80788
515.982,25.8841,-2.75883,0.01865691,0.80731
516.682,25.90662,-2.76169,0.0171647,0.80673
517.382,25.92915,-2.7633,0.01565012,0.80615
518.082,25.95166,-2.76458,0.0150187,0.80557
518.782,25.97419,-2.76526,0.01349229,0.80499
519.482,25.9967,-2.76641,0.01018573,0.80441
520.182,26.0192,-2.76638,0.011468,0.80383
520.882,26.04166,-2.76774,0.0087823,0.80325
521.582,26.06397,-2.76897,0.0052556,0.80267
522.282,26.08642,-2.77021,0.00712558,0.8021
522.982,26.1089,-2.77112,0.00413073,0.80152
523.682,26.1315,-2.77273,0.002531434,0.80094
524.382,26.1543,-2.77358,0.0009582845,0.80036
525.082,26.1769,-2.77465,0.004391508,0.79978
525.782,26.19951,-2.77582,-0.00141378,0.7992
526.482,26.2221,-2.77741,-0.00172389,0.79862
527.182,26.2446,-2.77851,-0.003479792,0.79804
527.882,26.26721,-2.77932,-0.00169226,0.79746
528.582,26.2898,-2.78023,-0.001076115,0.79688
529.282,26.3123,-2.78152,-0.00359634,0.7963
529.982,26.33485,-2.78224,-0.00659851,0.79571
530.682,26.35752,-2.78326,-0.008558142,0.79513
531.382,26.38012,-2.78484,-0.00988953,0.79455
532.082,26.4027,-2.78546,-0.009729354,0.79397
532.782,26.42527,-2.78614,-0.01337473,0.79339
533.482,26.4478,-2.78767,-0.0108165,0.79281
534.182,26.4704,-2.78892,-0.01401752,0.79223
534.882,26.49287,-2.78954,-0.01753738,0.79165
535.582,26.5153,-2.79103,-0.01550913,0.79107
536.282,26.538,-2.79222,-0.01941327,0.79048
536.982,26.5605,-2.79278,-0.01837983,0.7899
537.682,26.58322,-2.79424,-0.02074233,0.78932
538.382,26.606,-2.79569,-0.02338095,0.78874
539.082,26.62858,-2.79726,-0.02318679,0.78816
539.782,26.65127,-2.7978,-0.02649225,0.78758
540.482,26.67388,-2.79884,-0.02960922,0.78699
541.182,26.69647,-2.80003,-0.0282541,0.78641
541.882,26.7191,-2.8004,-0.03135367,0.78583
542.582,26.74182,-2.80052,-0.03202654,0.78525
543.282,26.76448,-2.8014,-0.0332834,0.78467
543.982,26.78718,-2.80214,-0.03731356,0.78408
544.682,26.80978,-2.8037,-0.03655244,0.7835
545.382,26.8324,-2.80572,-0.04019809,0.78292
546.082,26.85502,-2.80647,-0.040657,0.78234
546.782,26.87769,-2.80791,-0.04184459,0.78175
547.482,26.90035,-2.80942,-0.04126918,0.78117
548.182,26.92305,-2.81013,-0.04210169,0.78059
548.882,26.9457,-2.81096,-0.0434472,0.78
549.582,26.9684,-2.81251,-0.04789371,0.77942
550.282,26.9911,-2.81369,-0.0475541,0.77884
550.982,27.0138,-2.81529,-0.04945348,0.77826
551.682,27.03657,-2.8159,-0.05191624,0.77767
552.382,27.05929,-2.81671,-0.054149,0.77709
553.082,27.082,-2.81806,-0.05748554,0.77651
553.782,27.10466,-2.81886,-0.05760642,0.77592
554.482,27.1274,-2.81926,-0.06094685,0.77534
555.182,27.15012,-2.82091,-0.06216308,0.77476
555.882,27.17284,-2.8218,-0.05854485,0.77417
556.582,27.19554,-2.82212,-0.06112368,0.77359
557.282,27.21818,-2.82203,-0.06206128,0.77301
557.982,27.24087,-2.82259,-0.06448261,0.77242
558.682,27.26363,-2.82393,-0.06354231,0.77184
559.382,27.28639,-2.82379,-0.06630317,0.77125
560.082,27.3091,-2.82529,-0.06903567,0.77067
560.782,27.332,-2.82544,-0.06914846,0.77009
561.482,27.35473,-2.82675,-0.07120562,0.7695
562.182,27.37758,-2.82804,-0.07265025,0.76892
562.882,27.40038,-2.82896,-0.07358707,0.76834
563.582,27.4231,-2.83005,-0.07620577,0.76775
564.282,27.4457,-2.83124,-0.07510732,0.76717
564.982,27.46825,-2.83285,-0.07619458,0.76658
565.682,27.49083,-2.83445,-0.07748306,0.766
566.382,27.5135,-2.83555,-0.08000026,0.76542
567.082,27.5364,-2.83615,-0.08009046,0.76483
567.782,27.55937,-2.83738,-0.07879494,0.76425
568.482,27.58237,-2.83737,-0.08096691,0.76366
569.182,27.6053,-2.83737,-0.08365717,0.76308
569.882,27.62807,-2.83733,-0.08331954,0.7625
570.582,27.6509,-2.83871,-0.08428809,0.76191
571.282,27.67372,-2.83903,-0.08578596,0.76133
571.982,27.69655,-2.84014,-0.08707922,0.76074
572.682,27.7194,-2.84164,-0.08415419,0.76016
573.382,27.7422,-2.84253,-0.08594445,0.75957
574.082,27.76502,-2.84321,-0.08369438,0.75899
574.782,27.78782,-2.84439,-0.08565513,0.75841
575.482,27.81062,-2.84466,-0.08812181,0.75782
576.182,27.83346,-2.84557,-0.088365,0.75724
576.882,27.85633,-2.84595,-0.0903397,0.75665
577.582,27.87916,-2.8469,-0.08637927,0.75607
578.282,27.90198,-2.84846,-0.08688139,0.75548
578.982,27.92475,-2.84987,-0.08865047,0.7549
579.682,27.9475,-2.85014,-0.08590434,0.75432
580.382,27.9703,-2.8513,-0.08699986,0.75373
581.082,27.9932,-2.85128,-0.08663893,0.75315
581.782,28.01613,-2.85304,-0.08721467,0.75256
582.482,28.039,-2.85356,-0.08694557,0.75198
583.182,28.06192,-2.85531,-0.08647106,0.75139
583.882,28.0848,-2.85524,-0.08331378,0.75081
584.582,28.1076,-2.85634,-0.08581431,0.75023
585.282,28.13053,-2.85555,-0.08473733,0.74964
585.982,28.15336,-2.8567,-0.08549706,0.74906
586.682,28.1762,-2.85787,-0.0845221,0.74847
587.382,28.19887,-2.85928,-0.08634032,0.74789
588.082,28.22175,-2.86074,-0.08362112,0.7473
588.782,28.2446,-2.86116,-0.0846712,0.74672
589.482,28.26763,-2.86302,-0.08511536,0.74613
590.182,28.29076,-2.86474,-0.08183395,0.74555
590.882,28.3137,-2.86514,-0.08191817,0.74497
591.582,28.33666,-2.86646,-0.08380634,0.74438
592.282,28.35955,-2.86546,-0.08630759,0.7438
592.982,28.3824,-2.86645,-0.08362921,0.74321
593.682,28.4052,-2.86692,-0.08421883,0.74263
594.382,28.42819,-2.86774,-0.08232999,0.74204
595.082,28.4511,-2.86778,-0.08363733,0.74146
595.782,28.474,-2.86911,-0.08698665,0.74088
596.482,28.497,-2.86898,-0.08487729,0.74029
597.182,28.51993,-2.87038,-0.08691229,0.73971
597.882,28.54284,-2.86931,-0.09077736,0.73912
598.582,28.56575,-2.87061,-0.08584417,0.73854
599.282,28.58865,-2.87083,-0.0892208,0.73796
599.982,28.61161,-2.87187,-0.09066923,0.73737
600.682,28.63455,-2.8732,-0.09016876,0.73679
601.382,28.65752,-2.87459,-0.09052957,0.7362
602.082,28.6805,-2.87492,-0.08778442,0.73562
602.782,28.7034,-2.87594,-0.09191338,0.73504
603.482,28.72632,-2.87697,-0.09470915,0.73445
604.182,28.7493,-2.87729,-0.09352828,0.73387
604.882,28.7722,-2.87731,-0.09571203,0.73328
605.582,28.79523,-2.87869,-0.0972606,0.7327
606.282,28.81829,-2.8786,-0.09747127,0.73212
606.982,28.8414,-2.87906,-0.09738952,0.73153
607.682,28.86445,-2.87985,-0.09790512,0.73095
608.382,28.88747,-2.8812,-0.10144,0.73037
609.082,28.9105,-2.88137,-0.10087,0.72978
609.782,28.93348,-2.88182,-0.09747136,0.7292
610.482,28.9565,-2.88278,-0.09951224,0.72862
611.182,28.9796,-2.883,-0.09866551,0.72803
611.882,29.00248,-2.88439,-0.09817737,0.72745
612.582,29.0256,-2.88523,-0.09442199,0.72687
613.282,29.0486,-2.88563,-0.09932841,0.72628
613.982,29.0717,-2.88675,-0.09874825,0.7257
614.682,29.0949,-2.88696,-0.09692215,0.72512
615.382,29.11792,-2.88845,-0.09650203,0.72453
616.082,29.14088,-2.88921,-0.09691145,0.72395
616.782,29.16393,-2.88984,-0.09480417,0.72337
617.482,29.18693,-2.89108,-0.09622376,0.72278
618.182,29.21,-2.89122,-0.09447992,0.7222
618.882,29.2331,-2.89119,-0.0915584,0.72162
619.582,29.2561,-2.89233,-0.09419508,0.72104
620.282,29.2792,-2.89249,-0.09162202,0.72045
620.982,29.3023,-2.89397,-0.09120125,0.71987
621.682,29.32528,-2.89391,-0.09041634,0.71929
622.382,29.34838,-2.89521,-0.09311421,0.71871
623.082,29.37142,-2.89527,-0.08920999,0.71812
623.782,29.39443,-2.89523,-0.0874442,0.71754
624.482,29.41747,-2.89653,-0.08442071,0.71696
625.182,29.4406,-2.89528,-0.08841363,0.71638
625.882,29.4636,-2.89679,-0.08549103,0.71579
626.582,29.4866,-2.89735,-0.08382301,0.71521
627.282,29.50971,-2.89802,-0.08306503,0.71463
627.982,29.5327,-2.89803,-0.08356964,0.71405
628.682,29.55575,-2.89843,-0.08018037,0.71347
629.382,29.5789,-2.90068,-0.07724386,0.71288
630.082,29.602,-2.90073,-0.08018341,0.7123
630.782,29.6251,-2.90202,-0.07767528,0.71172
631.482,29.64814,-2.90197,-0.0780275,0.71114
632.182,29.67115,-2.90239,-0.07479746,0.71056
632.882,29.69415,-2.90326,-0.07222783,0.70998
633.582,29.7172,-2.90343,-0.07317603,0.70939
634.282,29.74033,-2.9046,-0.06797237,0.70881
634.982,29.76345,-2.9046,-0.0666529,0.70823
635.682,29.7865,-2.9046,-0.06776764,0.70765
636.382,29.80953,-2.9046,-0.06529613,0.70707
637.082,29.8326,-2.90547,-0.06198445,0.70649
637.782,29.8557,-2.90589,-0.06508773,0.70591
638.482,29.8788,-2.90725,-0.06282237,0.70533
639.182,29.9018,-2.90742,-0.06192958,0.70475
639.882,29.9249,-2.90883,-0.06013753,0.70417
640.582,29.94792,-2.90896,-0.05830099,0.70359
641.282,29.971,-2.91003,-0.05314596,0.70301
641.982,29.99411,-2.90872,-0.05631983,0.70242
642.682,30.0172,-2.90879,-0.05231392,0.70184
643.382,30.0403,-2.90979,-0.05317266,0.70126
644.082,30.06346,-2.9102,-0.05348018,0.70068
644.782,30.08656,-2.91058,-0.05147352,0.7001
645.482,30.10965,-2.91151,-0.04995667,0.69952
646.182,30.13278,-2.91146,-0.04885997,0.69895
646.882,30.1558,-2.91278,-0.0499095,0.69837
647.582,30.17897,-2.91283,-0.04793157,0.69779
648.282,30.2021,-2.91292,-0.04547668,0.69721
648.982,30.22519,-2.9142,-0.04614761,0.69663
649.682,30.2484,-2.91416,-0.04721891,0.69605
650.382,30.2714,-2.91493,-0.0437247,0.69547
651.082,30.29458,-2.91544,-0.04235902,0.69489
651.782,30.3177,-2.9166,-0.04047021,0.69431
652.482,30.3409,-2.91679,-0.04358539,0.69373
653.182,30.364,-2.91697,-0.03957043,0.69315
653.882,30.38702,-2.91813,-0.03964771,0.69257
654.582,30.4101,-2.9181,-0.03739836,0.692
655.282,30.4332,-2.9181,-0.03934713,0.69142
655.982,30.4562,-2.91805,-0.03871462,0.69084
656.682,30.4793,-2.91939,-0.04234114,0.69026
657.382,30.50256,-2.91939,-0.03906785,0.68968
658.082,30.5257,-2.92051,-0.03943351,0.6891
658.782,30.5489,-2.92072,-0.03823271,0.68853
659.482,30.572,-2.92212,-0.03715693,0.68795
660.182,30.59514,-2.92205,-0.03598773,0.68737
660.882,30.61836,-2.92204,-0.03431634,0.68679
661.582,30.64157,-2.92215,-0.03495388,0.68622
662.282,30.66475,-2.92338,-0.03413534,0.68564
662.982,30.6879,-2.92247,-0.03708747,0.68506
663.682,30.711,-2.9224,-0.03460145,0.68449
664.382,30.7341,-2.92374,-0.03542238,0.68391
665.082,30.75733,-2.92369,-0.03321115,0.68333
665.782,30.7805,-2.92368,-0.03604284,0.68275
666.482,30.8036,-2.92488,-0.03227099,0.68218
667.182,30.82678,-2.92495,-0.03280701,0.6816
667.882,30.84995,-2.92632,-0.0324812,0.68103
668.582,30.87312,-2.92751,-0.03278593,0.68045
669.282,30.89633,-2.92764,-0.03115933,0.67987
669.982,30.9196,-2.92765,-0.03710149,0.6793
670.682,30.94272,-2.92883,-0.03857612,0.67872
671.382,30.966,-2.92907,-0.03681301,0.67815
672.082,30.9891,-2.92933,-0.03905521,0.67757
672.782,31.01238,-2.93017,-0.0412288,0.67699
673.482,31.03561,-2.92905,-0.04246766,0.67642
674.182,31.0588,-2.92906,-0.04465975,0.67584
674.882,31.08192,-2.92906,-0.04066348,0.67527
675.582,31.10503,-2.92897,-0.04530709,0.67469
676.282,31.12817,-2.93035,-0.04604849,0.67412
676.982,31.1514,-2.93106,-0.04333692,0.67354
677.682,31.1746,-2.93106,-0.04486797,0.67297
678.382,31.19792,-2.93181,-0.04873022,0.6724
679.082,31.22118,-2.93246,-0.05037135,0.67182
679.782,31.2444,-2.93268,-0.0531452,0.67125
680.482,31.2676,-2.9338,-0.05285628,0.67067
681.182,31.2908,-2.93378,-0.05654436,0.6701
681.882,31.314,-2.93379,-0.05834114,0.66953
682.582,31.3372,-2.9342,-0.06210135,0.66895
683.282,31.3605,-2.93521,-0.06362604,0.66838
683.982,31.3837,-2.93552,-0.06368526,0.66781
684.682,31.4069,-2.93652,-0.06674692,0.66723
685.382,31.43011,-2.93652,-0.06608292,0.66666
686.082,31.4533,-2.93654,-0.06965426,0.66609
686.782,31.47653,-2.93753,-0.0718174,0.66551
687.482,31.49985,-2.93652,-0.07443206,0.66494
688.182,31.52313,-2.93652,-0.07515001,0.66437
688.882,31.5464,-2.93753,-0.07752533,0.6638
689.582,31.5696,-2.93783,-0.07985368,0.66323
690.282,31.59276,-2.93778,-0.08193299,0.66265
690.982,31.616,-2.93911,-0.08344162,0.66208
691.682,31.6392,-2.93915,-0.0838626,0.66151
692.382,31.66248,-2.93972,-0.08596546,0.66094
693.082,31.6858,-2.94045,-0.09074692,0.66037
693.782,31.70908,-2.94047,-0.08937836,0.6598
694.482,31.73238,-2.94065,-0.09316482,0.65922
695.182,31.7557,-2.94179,-0.09597834,0.65865
695.882,31.7789,-2.94178,-0.09888171,0.65808
696.582,31.8022,-2.94178,-0.10017,0.65751
697.282,31.8255,-2.94178,-0.10556,0.65694
697.982,31.8488,-2.94202,-0.1033,0.65637
698.682,31.87211,-2.94344,-0.10786,0.6558
699.382,31.8954,-2.94342,-0.11204,0.65523
700.082,31.91866,-2.94466,-0.11376,0.65466
700.782,31.94193,-2.94476,-0.11543,0.65409
701.482,31.96521,-2.94474,-0.11548,0.65352
702.182,31.9885,-2.94469,-0.11722,0.65295
702.882,32.01175,-2.94607,-0.11842,0.65238
703.582,32.0351,-2.94606,-0.12376,0.65182
704.282,32.05838,-2.94607,-0.12549,0.65125
704.982,32.08166,-2.94686,-0.13176,0.65068
705.682,32.10504,-2.9465,-0.13333,0.65011
706.382,32.12833,-2.94606,-0.13624,0.64954
707.082,32.15166,-2.94613,-0.14092,0.64897
707.782,32.17491,-2.94787,-0.14204,0.64841
708.482,32.19806,-2.94869,-0.14612,0.64784
709.182,32.22135,-2.94869,-0.14755,0.64727
709.882,32.2447,-2.94872,-0.15157,0.6467
710.582,32.26812,-2.94954,-0.1548,0.64614
711.282,32.29153,-2.94865,-0.15407,0.64557
711.982,32.31483,-2.94871,-0.15499,0.645
712.682,32.3381,-2.9495,-0.16064,0.64443
713.382,32.36135,-2.95046,-0.16463,0.64387
714.082,32.3846,-2.9513,-0.16762,0.6433
714.782,32.40797,-2.95125,-0.16976,0.64273
715.482,32.4313,-2.95264,-0.17485,0.64217
716.182,32.45466,-2.95262,-0.17249,0.6416
716.882,32.47802,-2.95186,-0.17728,0.64104
717.582,32.50138,-2.95241,-0.18172,0.64047
718.282,32.5246,-2.95264,-0.18187,0.63991
718.982,32.54793,-2.95264,-0.18329,0.63934
719.682,32.5712,-2.95264,-0.18465,0.63878
720.382,32.59454,-2.95263,-0.18957,0.63821
721.082,32.61803,-2.95381,-0.19073,0.63765
721.782,32.6414,-2.95396,-0.19683,0.63708
722.482,32.66483,-2.95396,-0.19623,0.63652
723.182,32.68817,-2.95397,-0.20064,0.63595
723.882,32.71147,-2.95429,-0.20377,0.63539
724.582,32.73483,-2.95553,-0.20555,0.63483
725.282,32.7582,-2.9556,-0.20625,0.63426
725.982,32.78158,-2.95566,-0.2083,0.6337
726.682,32.805,-2.95697,-0.21209,0.63313
727.382,32.8283,-2.9569,-0.21703,0.63257
728.082,32.85167,-2.95589,-0.2213,0.63201
728.782,32.87505,-2.95697,-0.22262,0.63145
729.482,32.89843,-2.95692,-0.22743,0.63088
730.182,32.92184,-2.95692,-0.22403,0.63032
730.882,32.94529,-2.95691,-0.22939,0.62976
731.582,32.96868,-2.95814,-0.22962,0.6292
732.282,32.99208,-2.95824,-0.23123,0.62864
732.982,33.01548,-2.95831,-0.23575,0.62807
733.682,33.03881,-2.95957,-0.24157,0.62751
734.382,33.06221,-2.95955,-0.24267,0.62695
735.082,33.08563,-2.95986,-0.24131,0.62639
735.782,33.10902,-2.96088,-0.24803,0.62583
736.482,33.1325,-2.9603,-0.24568,0.62527
737.182,33.15591,-2.95948,-0.24703,0.62471
737.882,33.17933,-2.96055,-0.25383,0.62415
738.582,33.20272,-2.96054,-0.25454,0.62359
739.282,33.22611,-2.96054,-0.25694,0.62303
739.982,33.24949,-2.96054,-0.25867,0.62247
740.682,33.27292,-2.96063,-0.25862,0.62191
741.382,33.29684,-2.96087,-0.26314,0.62135
742.082,33.32132,-2.96132,-0.26294,0.62079
742.482,33.33324,-2.9622,-0.26892,0.62047