File: 01_Data/Eucalyptus_Flooring/STA/N2/30K_min/Eucalyptus_Flooring_STA_N2_30KData_211312_R1.csv
##Temp./Â°C,Time/min,Mass loss(subtr.2)/mg,DSC(subtr.2)/(mW/mg),Sensit./(uV/mW)
48.541,10.01,-0.00757,0.00945088,1.06963
49.141,10.53357,-0.009058531,0.05154968,1.06958
49.741,10.65161,-0.009512888,0.08934217,1.06953
50.341,10.7363,-0.008793426,0.12012,1.06947
50.941,10.8048,-0.009437712,0.14778,1.06942
51.541,10.86347,-0.00748576,0.17475,1.06936
52.141,10.91635,-0.008472884,0.20091,1.0693
52.741,10.96492,-0.009332986,0.22302,1.06924
53.341,11.00945,-0.008336725,0.2438,1.06918
53.941,11.05141,-0.00973941,0.26465,1.06912
54.541,11.0912,-0.009663192,0.28524,1.06906
55.141,11.12877,-0.009147966,0.3047,1.069
55.741,11.16478,-0.009028,0.32294,1.06894
56.341,11.19947,-0.008377431,0.33984,1.06887
56.941,11.23275,-0.006528624,0.35473,1.06881
57.541,11.26544,-0.00696027,0.37332,1.06874
58.141,11.29684,-0.007749387,0.38869,1.06867
58.741,11.32783,-0.007952642,0.4048,1.0686
59.341,11.3575,-0.008086241,0.41918,1.06853
59.941,11.38622,-0.008917616,0.43288,1.06846
60.541,11.4148,-0.008431356,0.44521,1.06839
61.141,11.443,-0.007994548,0.45839,1.06832
61.741,11.47097,-0.00824481,0.47261,1.06825
62.341,11.4983,-0.009048456,0.48303,1.06817
62.941,11.5251,-0.00918654,0.49701,1.0681
63.541,11.55159,-0.009207115,0.50847,1.06802
64.141,11.5776,-0.009104409,0.51938,1.06794
64.741,11.6034,-0.008395585,0.53224,1.06786
65.341,11.62878,-0.007485681,0.54124,1.06778
65.941,11.65386,-0.00824765,0.55152,1.0677
66.541,11.67859,-0.0088965,0.56128,1.06762
67.141,11.70312,-0.008640426,0.57173,1.06754
67.741,11.72743,-0.009308626,0.5836,1.06746
68.341,11.7516,-0.009601347,0.59244,1.06737
68.941,11.7757,-0.009373004,0.6024,1.06729
69.541,11.79957,-0.00911593,0.61025,1.0672
70.141,11.8233,-0.008932959,0.62209,1.06711
70.741,11.84678,-0.008874342,0.62991,1.06702
71.341,11.87004,-0.00899817,0.63803,1.06693
71.941,11.89308,-0.01015025,0.64778,1.06684
72.541,11.91605,-0.01012038,0.65495,1.06675
73.141,11.93896,-0.01012179,0.66277,1.06666
73.741,11.9618,-0.01008416,0.67091,1.06657
74.341,11.9846,-0.0095952,0.67839,1.06647
74.941,12.00718,-0.009609634,0.6859,1.06638
75.541,12.02966,-0.00970214,0.69388,1.06628
76.141,12.052,-0.009807772,0.70357,1.06618
76.741,12.07422,-0.0094205,0.70923,1.06609
77.341,12.09638,-0.01000842,0.71556,1.06599
77.941,12.11849,-0.01075219,0.72389,1.06589
78.541,12.14045,-0.01192274,0.73085,1.06579
79.141,12.16243,-0.0114411,0.73839,1.06568
79.741,12.18426,-0.01097557,0.74502,1.06558
80.341,12.20595,-0.01173231,0.75106,1.06548
80.941,12.2277,-0.01081404,0.7575,1.06537
81.541,12.24929,-0.01144082,0.76492,1.06527
82.141,12.27086,-0.01111931,0.7685,1.06516
82.741,12.29242,-0.01253214,0.77631,1.06505
83.341,12.31386,-0.0114363,0.78282,1.06494
83.941,12.3352,-0.01243149,0.79082,1.06483
84.541,12.3565,-0.01106845,0.79639,1.06472
85.141,12.37766,-0.01219059,0.80128,1.06461
85.741,12.3988,-0.01151631,0.80712,1.0645
86.341,12.42,-0.01251028,0.81463,1.06438
86.941,12.4411,-0.01258191,0.82101,1.06427
87.541,12.46223,-0.01340734,0.8239,1.06415
88.141,12.48328,-0.01278701,0.83011,1.06404
88.741,12.50427,-0.01393446,0.83646,1.06392
89.341,12.5253,-0.01253261,0.84236,1.0638
89.941,12.54614,-0.01256245,0.84474,1.06368
90.541,12.56692,-0.01379306,0.85007,1.06356
91.141,12.5876,-0.01392282,0.85499,1.06344
91.741,12.60829,-0.013921,0.86122,1.06332
92.341,12.62894,-0.01404226,0.86646,1.06319
92.941,12.6495,-0.01404008,0.87091,1.06307
93.541,12.67015,-0.01403999,0.87388,1.06294
94.141,12.69074,-0.01403907,0.87767,1.06282
94.741,12.71134,-0.01449362,0.88312,1.06269
95.341,12.7319,-0.01533508,0.88471,1.06256
95.941,12.75254,-0.01545623,0.88758,1.06243
96.541,12.77305,-0.01669659,0.89306,1.0623
97.141,12.79358,-0.01526157,0.89348,1.06217
97.741,12.81409,-0.01527417,0.89817,1.06204
98.341,12.83462,-0.01660352,0.90072,1.06191
98.941,12.85505,-0.01667828,0.90307,1.06177
99.541,12.87543,-0.01667954,0.90647,1.06164
100.141,12.89586,-0.01667514,0.90727,1.0615
100.741,12.91625,-0.01653129,0.91077,1.06137
101.341,12.9365,-0.01555298,0.91296,1.06123
101.941,12.95684,-0.01696995,0.91311,1.06109
102.541,12.97717,-0.01701176,0.91524,1.06095
103.141,12.99741,-0.01744591,0.91729,1.06081
103.741,13.0177,-0.01833538,0.91799,1.06067
104.341,13.038,-0.01804662,0.91907,1.06053
104.941,13.0582,-0.01799486,0.921,1.06039
105.541,13.07846,-0.01820785,0.92132,1.06024
106.141,13.09876,-0.01931976,0.92228,1.0601
106.741,13.11905,-0.01927575,0.92246,1.05995
107.341,13.13933,-0.0205881,0.9238,1.0598
107.941,13.15962,-0.01966205,0.92179,1.05966
108.541,13.1798,-0.01930982,0.92425,1.05951
109.141,13.1998,-0.01930998,0.92255,1.05936
109.741,13.21984,-0.01931,0.92249,1.05921
110.341,13.2399,-0.01931,0.923,1.05906
110.941,13.26,-0.01931002,0.92188,1.0589
111.541,13.28025,-0.01930786,0.92467,1.05875
112.141,13.3006,-0.02002261,0.92222,1.0586
112.741,13.321,-0.02062318,0.92356,1.05844
113.341,13.3412,-0.02062898,0.92293,1.05829
113.941,13.3614,-0.0206228,0.92338,1.05813
114.541,13.38158,-0.02050791,0.92326,1.05797
115.141,13.4017,-0.0196723,0.92307,1.05781
115.741,13.42177,-0.01928524,0.92232,1.05765
116.341,13.4419,-0.01930891,0.91994,1.05749
116.941,13.4619,-0.0193229,0.9204,1.05733
117.541,13.48195,-0.02070598,0.92057,1.05717
118.141,13.50198,-0.02077268,0.92169,1.057
118.741,13.522,-0.02194592,0.92106,1.05684
119.341,13.54199,-0.02194583,0.91993,1.05667
119.941,13.562,-0.02202122,0.91966,1.05651
120.541,13.58194,-0.02330091,0.91927,1.05634
121.141,13.60186,-0.02326285,0.91975,1.05617
121.741,13.62186,-0.02326021,0.91986,1.056
122.341,13.6418,-0.02326001,0.91851,1.05584
122.941,13.6617,-0.02326,0.92155,1.05566
123.541,13.68157,-0.02326005,0.92155,1.05549
124.141,13.70139,-0.02326057,0.92024,1.05532
124.741,13.7212,-0.02326739,0.92194,1.05515
125.341,13.74102,-0.02464159,0.92155,1.05497
125.941,13.76077,-0.02389464,0.92347,1.0548
126.541,13.7805,-0.02391878,0.92428,1.05462
127.141,13.8003,-0.02391996,0.92404,1.05444
127.741,13.82001,-0.02392001,0.92774,1.05427
128.341,13.83978,-0.02391763,0.92899,1.05409
128.941,13.8595,-0.02328181,0.92962,1.05391
129.541,13.8792,-0.02326241,0.92908,1.05373
130.141,13.8989,-0.02325671,0.92835,1.05355
130.741,13.91849,-0.02319559,0.93081,1.05336
131.341,13.9381,-0.02455756,0.93266,1.05318
131.941,13.9577,-0.02456907,0.93624,1.053
132.541,13.9773,-0.02456993,0.93543,1.05281
133.141,13.9969,-0.02457009,0.9397,1.05263
133.741,14.0165,-0.02457137,0.94134,1.05244
134.341,14.036,-0.02458915,0.94226,1.05225
134.941,14.05561,-0.02494754,0.94581,1.05206
135.541,14.07514,-0.0252124,0.94697,1.05187
136.141,14.0947,-0.02522867,0.94739,1.05168
136.741,14.11421,-0.0252299,0.95043,1.05149
137.341,14.1337,-0.02522999,0.95229,1.0513
137.941,14.15303,-0.02523,0.95429,1.05111
138.541,14.17242,-0.02523,0.95752,1.05091
139.141,14.19183,-0.02523,0.95827,1.05072
139.741,14.2111,-0.02523,0.96099,1.05052
140.341,14.23056,-0.02523,0.96271,1.05033
140.941,14.24995,-0.02523,0.96863,1.05013
141.541,14.2693,-0.02523049,0.96834,1.04993
142.141,14.28861,-0.02524198,0.97224,1.04973
142.741,14.308,-0.02578,0.97554,1.04953
143.341,14.32731,-0.02587974,0.97639,1.04933
143.941,14.34656,-0.02588879,0.98008,1.04913
144.541,14.3659,-0.0258862,0.98213,1.04893
145.141,14.38512,-0.02584057,0.98826,1.04872
145.741,14.4044,-0.02690102,0.99047,1.04852
146.341,14.42356,-0.02719623,0.99304,1.04831
146.941,14.44281,-0.02720891,0.9972,1.04811
147.541,14.462,-0.0272085,0.99752,1.0479
148.141,14.48114,-0.02719912,1.0027,1.04769
148.741,14.50025,-0.02789092,1.00207,1.04749
149.341,14.5194,-0.02852555,1.00715,1.04728
149.941,14.53855,-0.02852101,1.00969,1.04707
150.541,14.55771,-0.02852012,1.01275,1.04685
151.141,14.57688,-0.02852001,1.01448,1.04664
151.741,14.5961,-0.02851999,1.01785,1.04643
152.341,14.61517,-0.0285199,1.02325,1.04622
152.941,14.63427,-0.02851877,1.02568,1.046
153.541,14.6534,-0.02850605,1.02784,1.04579
154.141,14.67249,-0.02836814,1.03157,1.04557
154.741,14.6916,-0.02826907,1.03556,1.04535
155.341,14.7107,-0.02851796,1.03727,1.04513
155.941,14.72974,-0.02852007,1.03948,1.04492
156.541,14.74876,-0.02852002,1.0398,1.0447
157.141,14.76777,-0.02851985,1.04573,1.04448
157.741,14.78679,-0.02851751,1.04753,1.04425
158.341,14.80587,-0.02848488,1.05156,1.04403
158.941,14.82487,-0.02888365,1.0566,1.04381
159.541,14.8438,-0.02885401,1.05846,1.04359
160.141,14.8629,-0.02887284,1.06225,1.04336
160.741,14.8818,-0.03023022,1.06246,1.04314
161.341,14.90075,-0.03055939,1.06872,1.04291
161.941,14.91976,-0.03148381,1.07194,1.04268
162.541,14.93878,-0.03148155,1.07392,1.04245
163.141,14.9577,-0.03148023,1.07475,1.04223
163.741,14.97661,-0.03148002,1.0801,1.042
164.341,14.9955,-0.03148,1.08376,1.04176
164.941,15.0145,-0.03148001,1.08717,1.04153
165.541,15.0334,-0.03148007,1.08888,1.0413
166.141,15.05241,-0.03148072,1.09357,1.04107
166.741,15.0714,-0.03148557,1.09646,1.04083
167.341,15.09036,-0.03149773,1.10213,1.0406
167.941,15.1093,-0.03341352,1.10413,1.04036
168.541,15.1282,-0.03344225,1.10504,1.04013
169.141,15.147,-0.03344233,1.10805,1.03989
169.741,15.16585,-0.03440313,1.11204,1.03965
170.341,15.18467,-0.0347445,1.11575,1.03941
170.941,15.2035,-0.03476492,1.11779,1.03917
171.541,15.22225,-0.03474136,1.12122,1.03893
172.141,15.24109,-0.0354872,1.12504,1.03869
172.741,15.2598,-0.03608599,1.12606,1.03845
173.341,15.27846,-0.03606987,1.1283,1.03821
173.941,15.2973,-0.03668983,1.13365,1.03796
174.541,15.3161,-0.03674458,1.13661,1.03772
175.141,15.3349,-0.03674953,1.13749,1.03748
175.741,15.3539,-0.03675006,1.14294,1.03723
176.341,15.3728,-0.03675104,1.14304,1.03698
176.941,15.3916,-0.03675771,1.14575,1.03673
177.541,15.41024,-0.03676387,1.14961,1.03649
178.141,15.42893,-0.03805436,1.15216,1.03624
178.741,15.4476,-0.03805918,1.15757,1.03599
179.341,15.4662,-0.03806179,1.15848,1.03574
179.941,15.48487,-0.0381223,1.16176,1.03548
180.541,15.5036,-0.03947712,1.16391,1.03523
181.141,15.52222,-0.03938581,1.1659,1.03498
181.741,15.54088,-0.03937956,1.16895,1.03472
182.341,15.55955,-0.0393838,1.17277,1.03447
182.941,15.5782,-0.03990972,1.17606,1.03421
183.541,15.59675,-0.04139567,1.17906,1.03396
184.141,15.6154,-0.04203068,1.18009,1.0337
184.741,15.634,-0.04203153,1.18399,1.03344
185.341,15.65252,-0.04212623,1.18658,1.03318
185.941,15.6711,-0.04335841,1.18921,1.03292
186.541,15.6897,-0.04332862,1.19257,1.03266
187.141,15.70825,-0.04329122,1.1957,1.0324
187.741,15.72683,-0.04450545,1.19784,1.03214
188.341,15.74535,-0.0446424,1.19996,1.03188
188.941,15.76385,-0.0447219,1.20288,1.03161
189.541,15.78236,-0.04575887,1.20471,1.03135
190.141,15.8007,-0.04595838,1.20679,1.03108
190.741,15.81921,-0.04595867,1.20965,1.03082
191.341,15.8377,-0.04591508,1.2115,1.03055
191.941,15.8563,-0.04710116,1.21327,1.03029
192.541,15.87475,-0.04726753,1.21484,1.03002
193.141,15.89335,-0.04728784,1.2193,1.02975
193.741,15.9118,-0.04734749,1.21881,1.02948
194.341,15.93025,-0.04872008,1.21984,1.02921
194.941,15.94863,-0.04864484,1.22118,1.02894
195.541,15.96713,-0.04999249,1.22531,1.02866
196.141,15.9855,-0.04997054,1.22706,1.02839
196.741,16.00401,-0.05104651,1.22647,1.02812
197.341,16.02245,-0.05144696,1.22776,1.02784
197.941,16.04093,-0.05291933,1.22989,1.02757
198.541,16.05939,-0.05286757,1.23256,1.02729
199.141,16.07779,-0.05289124,1.23474,1.02702
199.741,16.09618,-0.05346615,1.23407,1.02674
200.341,16.11457,-0.0541906,1.23587,1.02646
200.941,16.1329,-0.05413342,1.23839,1.02618
201.541,16.15129,-0.05527661,1.23736,1.0259
202.141,16.16972,-0.05551028,1.23967,1.02562
202.741,16.18809,-0.05550744,1.24059,1.02534
203.341,16.20654,-0.05546178,1.24165,1.02506
203.941,16.225,-0.05662434,1.24336,1.02478
204.541,16.24332,-0.05704612,1.24479,1.02449
205.141,16.26174,-0.05849005,1.24395,1.02421
205.741,16.28014,-0.05958447,1.2456,1.02392
206.341,16.29845,-0.05997202,1.24668,1.02364
206.941,16.3169,-0.06132896,1.24569,1.02335
207.541,16.33525,-0.06142872,1.24828,1.02307
208.141,16.35361,-0.06274676,1.24736,1.02278
208.741,16.37196,-0.06286224,1.24912,1.02249
209.341,16.39033,-0.06441168,1.2528,1.0222
209.941,16.40865,-0.0645963,1.25256,1.02191
210.541,16.42698,-0.06600187,1.25216,1.02162
211.141,16.44529,-0.06694118,1.25361,1.02133
211.741,16.46361,-0.06744667,1.25283,1.02104
212.341,16.48198,-0.06910564,1.25359,1.02074
212.941,16.50029,-0.06901853,1.25496,1.02045
213.541,16.51867,-0.0703038,1.25573,1.02015
214.141,16.537,-0.07043882,1.2557,1.01986
214.741,16.55534,-0.07186363,1.25709,1.01956
215.341,16.57366,-0.07208517,1.25496,1.01927
215.941,16.592,-0.07325044,1.2577,1.01897
216.541,16.61032,-0.07439696,1.25871,1.01867
217.141,16.62864,-0.07559604,1.25613,1.01837
217.741,16.64702,-0.07774134,1.25874,1.01807
218.341,16.66536,-0.07890566,1.25691,1.01777
218.941,16.68368,-0.07954747,1.25672,1.01747
219.541,16.70195,-0.08004919,1.25989,1.01717
220.141,16.72018,-0.08150429,1.25762,1.01687
220.741,16.7384,-0.08252194,1.25595,1.01656
221.341,16.7567,-0.08325777,1.25473,1.01626
221.941,16.775,-0.08474307,1.25643,1.01596
222.541,16.7933,-0.08586454,1.26047,1.01565
223.141,16.81167,-0.08656885,1.25829,1.01535
223.741,16.8299,-0.08808029,1.25391,1.01504
224.341,16.8481,-0.08864973,1.25416,1.01473
224.941,16.86636,-0.0896641,1.2539,1.01442
225.541,16.88465,-0.09127219,1.25546,1.01411
226.141,16.90287,-0.09259242,1.25304,1.01381
226.741,16.92118,-0.09331477,1.25049,1.01349
227.341,16.93945,-0.09476566,1.24986,1.01318
227.941,16.9577,-0.09621121,1.25052,1.01287
228.541,16.97596,-0.09840629,1.24916,1.01256
229.141,16.9942,-0.09960292,1.24761,1.01225
229.741,17.01251,-0.10133,1.24804,1.01193
230.341,17.03076,-0.10337,1.24668,1.01162
230.941,17.0489,-0.1043,1.24531,1.0113
231.541,17.06709,-0.10526,1.24467,1.01099
232.141,17.08531,-0.10634,1.24495,1.01067
232.741,17.10344,-0.10798,1.24105,1.01036
233.341,17.1217,-0.10911,1.24059,1.01004
233.941,17.13995,-0.10913,1.23899,1.00972
234.541,17.1583,-0.11075,1.2359,1.0094
235.141,17.1765,-0.11252,1.23691,1.00908
235.741,17.19473,-0.11435,1.23502,1.00876
236.341,17.213,-0.11617,1.23348,1.00844
236.941,17.23123,-0.11803,1.23291,1.00812
237.541,17.2494,-0.11972,1.23087,1.00779
238.141,17.26762,-0.12088,1.22789,1.00747
238.741,17.28584,-0.12252,1.22735,1.00715
239.341,17.30398,-0.12413,1.22612,1.00682
239.941,17.3221,-0.12652,1.22401,1.0065
240.541,17.34027,-0.12912,1.22474,1.00617
241.141,17.35849,-0.13086,1.22023,1.00584
241.741,17.37668,-0.13245,1.21971,1.00552
242.341,17.39498,-0.13399,1.2152,1.00519
242.941,17.41318,-0.13559,1.21466,1.00486
243.541,17.4314,-0.13765,1.21308,1.00453
244.141,17.4496,-0.1397,1.20988,1.0042
244.741,17.46781,-0.14164,1.20568,1.00387
245.341,17.48595,-0.14396,1.20491,1.00354
245.941,17.50412,-0.14606,1.20229,1.00321
246.541,17.5223,-0.14767,1.20009,1.00288
247.141,17.5405,-0.14954,1.19825,1.00254
247.741,17.5586,-0.15168,1.19574,1.00221
248.341,17.57672,-0.15314,1.19503,1.00187
248.941,17.59489,-0.15526,1.19148,1.00154
249.541,17.613,-0.15748,1.18632,1.0012
250.141,17.63118,-0.15874,1.18437,1.00087
250.741,17.64933,-0.16062,1.18233,1.00053
251.341,17.66751,-0.16272,1.17801,1.00019
251.941,17.68564,-0.16498,1.17724,0.99985
252.541,17.70382,-0.16711,1.17387,0.99951
253.141,17.72202,-0.16945,1.16728,0.99917
253.741,17.74021,-0.17181,1.16658,0.99883
254.341,17.75834,-0.17469,1.16268,0.99849
254.941,17.77654,-0.17746,1.16076,0.99815
255.541,17.79467,-0.17908,1.15924,0.99781
256.141,17.81281,-0.18084,1.15524,0.99747
256.741,17.8309,-0.18332,1.15301,0.99712
257.341,17.8491,-0.18583,1.14943,0.99678
257.941,17.86717,-0.18863,1.1455,0.99643
258.541,17.88525,-0.19114,1.14313,0.99609
259.141,17.9034,-0.19332,1.14174,0.99574
259.741,17.92149,-0.19606,1.13607,0.9954
260.341,17.93959,-0.19891,1.13329,0.99505
260.941,17.9577,-0.20075,1.13223,0.9947
261.541,17.97589,-0.20283,1.12755,0.99435
262.141,17.99403,-0.20528,1.12482,0.994
262.741,18.01219,-0.209,1.12315,0.99365
263.341,18.03031,-0.21209,1.11695,0.9933
263.941,18.04844,-0.21505,1.11496,0.99295
264.541,18.06653,-0.21751,1.11346,0.9926
265.141,18.0846,-0.22016,1.10726,0.99225
265.741,18.10275,-0.22241,1.10718,0.9919
266.341,18.12084,-0.22554,1.10236,0.99154
266.941,18.1389,-0.22939,1.09885,0.99119
267.541,18.15705,-0.23258,1.09704,0.99083
268.141,18.17513,-0.23589,1.09166,0.99048
268.741,18.19323,-0.23872,1.09037,0.99012
269.341,18.21132,-0.24214,1.08645,0.98977
269.941,18.22944,-0.24538,1.08385,0.98941
270.541,18.2476,-0.24783,1.0831,0.98905
271.141,18.26577,-0.25108,1.07876,0.98869
271.741,18.28386,-0.25442,1.07539,0.98833
272.341,18.302,-0.25719,1.07597,0.98797
272.941,18.32017,-0.25989,1.07071,0.98761
273.541,18.33833,-0.26382,1.0709,0.98725
274.141,18.3564,-0.26746,1.06519,0.98689
274.741,18.37456,-0.2711,1.06436,0.98653
275.341,18.39266,-0.27446,1.05988,0.98617
275.941,18.41074,-0.27863,1.05921,0.9858
276.541,18.42882,-0.28223,1.05512,0.98544
277.141,18.44695,-0.2848,1.05259,0.98508
277.741,18.465,-0.28856,1.04937,0.98471
278.341,18.48316,-0.29285,1.04763,0.98435
278.941,18.50133,-0.29604,1.04467,0.98398
279.541,18.51943,-0.29963,1.04371,0.98361
280.141,18.5376,-0.30395,1.04018,0.98325
280.741,18.55572,-0.30848,1.03725,0.98288
281.341,18.57385,-0.31361,1.03341,0.98251
281.941,18.59194,-0.31808,1.03052,0.98214
282.541,18.61008,-0.32184,1.02926,0.98177
283.141,18.62813,-0.3264,1.0224,0.9814
283.741,18.6463,-0.33018,1.02046,0.98103
284.341,18.6644,-0.33494,1.01841,0.98066
284.941,18.68251,-0.33912,1.01584,0.98029
285.541,18.70064,-0.34374,1.00873,0.97992
286.141,18.71879,-0.34866,1.00617,0.97954
286.741,18.7369,-0.35324,1.00301,0.97917
287.341,18.75508,-0.35882,0.99925,0.97879
287.941,18.77318,-0.36335,0.99367,0.97842
288.541,18.79133,-0.36854,0.98969,0.97804
289.141,18.80947,-0.37131,0.98579,0.97767
289.741,18.82764,-0.3765,0.98122,0.97729
290.341,18.8458,-0.38104,0.97755,0.97692
290.941,18.864,-0.38679,0.97194,0.97654
291.541,18.8821,-0.39253,0.96506,0.97616
292.141,18.90026,-0.3988,0.96276,0.97578
292.741,18.91842,-0.40447,0.95705,0.9754
293.341,18.93659,-0.40988,0.95282,0.97502
293.941,18.95475,-0.41602,0.94813,0.97464
294.541,18.97295,-0.42136,0.94509,0.97426
295.141,18.99116,-0.42839,0.93752,0.97388
295.741,19.00929,-0.43358,0.93122,0.9735
296.341,19.02743,-0.44006,0.9259,0.97312
296.941,19.04561,-0.44419,0.91891,0.97273
297.541,19.06371,-0.45107,0.91624,0.97235
298.141,19.0818,-0.45729,0.90824,0.97197
298.741,19.0999,-0.46382,0.90504,0.97158
299.341,19.11806,-0.47077,0.89793,0.9712
299.941,19.1362,-0.47781,0.89246,0.97081
300.541,19.1544,-0.48589,0.8851,0.97042
301.141,19.1726,-0.49248,0.87949,0.97004
301.741,19.19088,-0.50143,0.87241,0.96965
302.341,19.20908,-0.50814,0.8687,0.96926
302.941,19.2273,-0.51619,0.86463,0.96887
303.541,19.24554,-0.52224,0.85792,0.96849
304.141,19.26376,-0.53074,0.85369,0.9681
304.741,19.28195,-0.5394,0.85023,0.96771
305.341,19.30014,-0.54785,0.84763,0.96732
305.941,19.31831,-0.5556,0.84181,0.96692
306.541,19.3365,-0.56252,0.83696,0.96653
307.141,19.35464,-0.57199,0.83035,0.96614
307.741,19.37278,-0.58003,0.82758,0.96575
308.341,19.39095,-0.59002,0.82442,0.96536
308.941,19.40912,-0.5979,0.82106,0.96496
309.541,19.42732,-0.60812,0.82025,0.96457
310.141,19.44556,-0.61565,0.81561,0.96417
310.741,19.46377,-0.62458,0.81443,0.96378
311.341,19.48199,-0.63298,0.81532,0.96338
311.941,19.50019,-0.64311,0.81243,0.96299
312.541,19.51835,-0.65375,0.81222,0.96259
313.141,19.53654,-0.66362,0.81003,0.96219
313.741,19.55472,-0.67502,0.81227,0.9618
314.341,19.57289,-0.68429,0.81174,0.9614
314.941,19.59111,-0.69601,0.81307,0.961
315.541,19.60934,-0.7047,0.81113,0.9606
316.141,19.6276,-0.71615,0.81467,0.9602
316.741,19.64581,-0.72547,0.81728,0.9598
317.341,19.6641,-0.73653,0.82085,0.9594
317.941,19.6823,-0.74658,0.82116,0.959
318.541,19.70049,-0.75809,0.82329,0.9586
319.141,19.71871,-0.7702,0.82914,0.95819
319.741,19.73702,-0.78127,0.83025,0.95779
320.341,19.75525,-0.79498,0.83418,0.95739
320.941,19.77354,-0.80578,0.83815,0.95698
321.541,19.79185,-0.81919,0.8437,0.95658
322.141,19.81016,-0.82966,0.84563,0.95618
322.741,19.82842,-0.84303,0.85029,0.95577
323.341,19.84674,-0.85397,0.85608,0.95537
323.941,19.86501,-0.86721,0.8597,0.95496
324.541,19.88322,-0.8778,0.86384,0.95455
325.141,19.90146,-0.89121,0.86776,0.95415
325.741,19.9197,-0.90516,0.87339,0.95374
326.341,19.93799,-0.91801,0.88192,0.95333
326.941,19.95626,-0.93169,0.88323,0.95292
327.541,19.97458,-0.94417,0.88812,0.95251
328.141,19.9928,-0.96031,0.89146,0.9521
328.741,20.0111,-0.97291,0.89503,0.95169
329.341,20.02939,-0.98867,0.89812,0.95128
329.941,20.0477,-1.0012,0.90219,0.95087
330.541,20.06604,-1.0187,0.90668,0.95046
331.141,20.08435,-1.03205,0.91008,0.95005
331.741,20.1026,-1.04765,0.91344,0.94964
332.341,20.12095,-1.06265,0.91509,0.94922
332.941,20.13926,-1.07793,0.91712,0.94881
333.541,20.15762,-1.09378,0.92145,0.9484
334.141,20.17599,-1.10815,0.92169,0.94798
334.741,20.1943,-1.12557,0.92543,0.94757
335.341,20.21272,-1.14058,0.92647,0.94715
335.941,20.23106,-1.16015,0.92892,0.94674
336.541,20.2494,-1.17486,0.92771,0.94632
337.141,20.2678,-1.19331,0.92527,0.94591
337.741,20.28612,-1.20805,0.92762,0.94549
338.341,20.30446,-1.22621,0.925,0.94507
338.941,20.3228,-1.24269,0.92758,0.94465
339.541,20.34111,-1.26145,0.92362,0.94424
340.141,20.35943,-1.28056,0.92258,0.94382
340.741,20.37779,-1.29831,0.9184,0.9434
341.341,20.3961,-1.31711,0.91699,0.94298
341.941,20.4145,-1.33363,0.91044,0.94256
342.541,20.43282,-1.3553,0.90616,0.94214
343.141,20.4512,-1.37124,0.90208,0.94172
343.741,20.46951,-1.39239,0.89662,0.9413
344.341,20.48791,-1.40867,0.88738,0.94088
344.941,20.50614,-1.42964,0.88209,0.94045
345.541,20.52441,-1.44698,0.874,0.94003
346.141,20.54278,-1.46766,0.86385,0.93961
346.741,20.56121,-1.48701,0.85842,0.93918
347.341,20.57959,-1.50865,0.84811,0.93876
347.941,20.59814,-1.52971,0.83607,0.93834
348.541,20.61659,-1.54885,0.82811,0.93791
349.141,20.635,-1.57113,0.81361,0.93749
349.741,20.65338,-1.58928,0.80069,0.93706
350.341,20.67172,-1.61092,0.79008,0.93664
350.941,20.69013,-1.62778,0.77936,0.93621
351.541,20.70851,-1.65016,0.76207,0.93578
352.141,20.7269,-1.66741,0.74677,0.93535
352.741,20.74527,-1.68841,0.73323,0.93493
353.341,20.76366,-1.70633,0.71696,0.9345
353.941,20.78204,-1.7273,0.70087,0.93407
354.541,20.80046,-1.74637,0.68646,0.93364
355.141,20.81891,-1.76447,0.6702,0.93321
355.741,20.83736,-1.78389,0.6526,0.93278
356.341,20.8558,-1.8015,0.63388,0.93235
356.941,20.87426,-1.82141,0.61844,0.93192
357.541,20.89268,-1.83701,0.60306,0.93149
358.141,20.91111,-1.85707,0.5865,0.93106
358.741,20.92959,-1.87305,0.57213,0.93063
359.341,20.94806,-1.89228,0.5561,0.9302
359.941,20.96651,-1.90654,0.54246,0.92976
360.541,20.985,-1.92336,0.52687,0.92933
361.141,21.00347,-1.93758,0.51234,0.9289
361.741,21.02185,-1.95263,0.49853,0.92846
362.341,21.04031,-1.96711,0.48775,0.92803
362.941,21.05878,-1.98089,0.47655,0.92759
363.541,21.07724,-1.99561,0.46371,0.92716
364.141,21.0957,-2.00749,0.45649,0.92672
364.741,21.11422,-2.02126,0.4469,0.92629
365.341,21.13268,-2.03235,0.43975,0.92585
365.941,21.15116,-2.04535,0.43093,0.92542
366.541,21.16965,-2.05466,0.42387,0.92498
367.141,21.18812,-2.06664,0.41662,0.92454
367.741,21.20662,-2.07601,0.41353,0.9241
368.341,21.22516,-2.08617,0.40753,0.92367
368.941,21.24352,-2.09415,0.40486,0.92323
369.541,21.26203,-2.10436,0.40102,0.92279
370.141,21.28055,-2.11252,0.39641,0.92235
370.741,21.29907,-2.12022,0.39371,0.92191
371.341,21.31757,-2.12846,0.39146,0.92147
371.941,21.33621,-2.1345,0.3886,0.92103
372.541,21.35456,-2.1423,0.38368,0.92059
373.141,21.37306,-2.14802,0.38174,0.92015
373.741,21.39161,-2.15495,0.37834,0.91971
374.341,21.41014,-2.16065,0.37764,0.91926
374.941,21.42871,-2.16753,0.37344,0.91882
375.541,21.44748,-2.17267,0.37067,0.91838
376.141,21.4661,-2.17902,0.36775,0.91794
376.741,21.48475,-2.1837,0.36467,0.91749
377.341,21.5033,-2.18843,0.36312,0.91705
377.941,21.52196,-2.19287,0.35991,0.9166
378.541,21.5406,-2.19619,0.35534,0.91616
379.141,21.5591,-2.20103,0.34963,0.91572
379.741,21.57763,-2.20534,0.34604,0.91527
380.341,21.59621,-2.21002,0.34766,0.91482
380.941,21.6148,-2.21355,0.34311,0.91438
381.541,21.63344,-2.21702,0.33812,0.91393
382.141,21.65209,-2.22163,0.33259,0.91349
382.741,21.67067,-2.22682,0.32879,0.91304
383.341,21.68929,-2.22988,0.32967,0.91259
383.941,21.70789,-2.23369,0.32197,0.91214
384.541,21.7265,-2.23898,0.31885,0.9117
385.141,21.74513,-2.24269,0.31175,0.91125
385.741,21.76379,-2.24573,0.30743,0.9108
386.341,21.78244,-2.24935,0.30461,0.91035
386.941,21.801,-2.25299,0.29911,0.9099
387.541,21.81953,-2.25475,0.29472,0.90945
388.141,21.83817,-2.25722,0.28962,0.909
388.741,21.85683,-2.2611,0.28557,0.90855
389.341,21.87547,-2.26421,0.2813,0.9081
389.941,21.89426,-2.26672,0.27768,0.90765
390.541,21.91302,-2.26958,0.27242,0.9072
391.141,21.93171,-2.27373,0.26718,0.90675
391.741,21.95042,-2.27759,0.26065,0.90629
392.341,21.9691,-2.27966,0.25561,0.90584
392.941,21.9878,-2.28241,0.25123,0.90539
393.541,22.00646,-2.28567,0.24728,0.90494
394.141,22.02512,-2.2878,0.24402,0.90448
394.741,22.04376,-2.29004,0.23741,0.90403
395.341,22.06242,-2.29282,0.23395,0.90357
395.941,22.08106,-2.29677,0.23014,0.90312
396.541,22.09971,-2.30019,0.22259,0.90267
397.141,22.11838,-2.30229,0.22053,0.90221
397.741,22.13703,-2.30426,0.21629,0.90175
398.341,22.1557,-2.30601,0.21055,0.9013
398.941,22.1743,-2.30792,0.20632,0.90084
399.541,22.19301,-2.31017,0.20109,0.90039
400.141,22.2117,-2.31352,0.19832,0.89993
400.741,22.2304,-2.31663,0.19345,0.89947
401.341,22.24919,-2.31852,0.18675,0.89902
401.941,22.26801,-2.32087,0.18512,0.89856
402.541,22.2867,-2.32394,0.18117,0.8981
403.141,22.30546,-2.32586,0.17604,0.89764
403.741,22.32416,-2.32817,0.17121,0.89718
404.341,22.34283,-2.33151,0.16706,0.89673
404.941,22.3615,-2.33494,0.16493,0.89627
405.541,22.38029,-2.33743,0.16011,0.89581
406.141,22.399,-2.33983,0.15783,0.89535
406.741,22.4177,-2.34242,0.15415,0.89489
407.341,22.43647,-2.34425,0.1537,0.89443
407.941,22.45525,-2.34597,0.14901,0.89397
408.541,22.47397,-2.34855,0.14681,0.89351
409.141,22.4927,-2.35228,0.14325,0.89304
409.741,22.5115,-2.35445,0.14145,0.89258
410.341,22.53025,-2.35631,0.13979,0.89212
410.941,22.549,-2.35811,0.13485,0.89166
411.541,22.56778,-2.36026,0.13537,0.8912
412.141,22.58659,-2.36315,0.13469,0.89073
412.741,22.60538,-2.36573,0.13366,0.89027
413.341,22.62416,-2.36831,0.13338,0.88981
413.941,22.643,-2.37009,0.12997,0.88934
414.541,22.6617,-2.37183,0.12862,0.88888
415.141,22.68048,-2.37409,0.12878,0.88842
415.741,22.69921,-2.37692,0.12859,0.88795
416.341,22.71783,-2.37977,0.12842,0.88749
416.941,22.73647,-2.38151,0.12968,0.88702
417.541,22.7553,-2.38315,0.12992,0.88656
418.141,22.77413,-2.38512,0.12893,0.88609
418.741,22.79297,-2.3878,0.12759,0.88562
419.341,22.812,-2.39077,0.12766,0.88516
419.941,22.83085,-2.39301,0.12815,0.88469
420.541,22.8496,-2.3955,0.13051,0.88423
421.141,22.86843,-2.39732,0.13072,0.88376
421.741,22.88731,-2.39945,0.1331,0.88329
422.341,22.90615,-2.40128,0.13403,0.88282
422.941,22.925,-2.40381,0.13411,0.88236
423.541,22.9438,-2.40598,0.13509,0.88189
424.141,22.96266,-2.40688,0.13567,0.88142
424.741,22.9815,-2.40861,0.138,0.88095
425.341,23.00037,-2.41149,0.13954,0.88048
425.941,23.01925,-2.41454,0.14068,0.88001
426.541,23.03809,-2.41739,0.14489,0.87954
427.141,23.05695,-2.41932,0.1459,0.87908
427.741,23.0759,-2.42115,0.14871,0.87861
428.341,23.0947,-2.42255,0.1489,0.87814
428.941,23.11358,-2.42413,0.15368,0.87766
429.541,23.13243,-2.42626,0.15552,0.87719
430.141,23.15134,-2.42866,0.15638,0.87672
430.741,23.1702,-2.43078,0.15691,0.87625
431.341,23.18907,-2.43292,0.16414,0.87578
431.941,23.20798,-2.43545,0.1634,0.87531
432.541,23.22684,-2.43702,0.16874,0.87484
433.141,23.2457,-2.43936,0.17485,0.87437
433.741,23.2646,-2.44167,0.17403,0.87389
434.341,23.28343,-2.44401,0.17742,0.87342
434.941,23.30238,-2.44557,0.18457,0.87295
435.541,23.3214,-2.44742,0.18368,0.87247
436.141,23.3403,-2.44909,0.18815,0.872
436.741,23.3593,-2.45147,0.19294,0.87153
437.341,23.3783,-2.45403,0.19756,0.87105
437.941,23.39721,-2.45608,0.19995,0.87058
438.541,23.41613,-2.4579,0.20398,0.87011
439.141,23.43508,-2.45991,0.21176,0.86963
439.741,23.45401,-2.46184,0.21063,0.86916
440.341,23.4729,-2.4642,0.21378,0.86868
440.941,23.49192,-2.46674,0.21885,0.86821
441.541,23.51086,-2.46902,0.22234,0.86773
442.141,23.5298,-2.47088,0.2291,0.86725
442.741,23.54873,-2.47294,0.23301,0.86678
443.341,23.56771,-2.47489,0.23499,0.8663
443.941,23.5867,-2.47695,0.23949,0.86583
444.541,23.6056,-2.47901,0.24503,0.86535
445.141,23.62461,-2.48067,0.24697,0.86487
445.741,23.6436,-2.48233,0.25217,0.8644
446.341,23.66256,-2.48411,0.25378,0.86392
446.941,23.68163,-2.48636,0.25773,0.86344
447.541,23.70062,-2.48839,0.26179,0.86296
448.141,23.71964,-2.48996,0.26514,0.86248
448.741,23.73869,-2.49163,0.27247,0.86201
449.341,23.75765,-2.49354,0.27352,0.86153
449.941,23.77661,-2.49544,0.27689,0.86105
450.541,23.79565,-2.49734,0.2802,0.86057
451.141,23.81465,-2.49966,0.28605,0.86009
451.741,23.83362,-2.50152,0.28668,0.85961
452.341,23.85264,-2.50385,0.29334,0.85913
452.941,23.87172,-2.50581,0.29431,0.85865
453.541,23.8907,-2.50738,0.30069,0.85817
454.141,23.90973,-2.50839,0.30106,0.85769
454.741,23.92877,-2.51005,0.30594,0.85721
455.341,23.94783,-2.51284,0.30914,0.85673
455.941,23.9668,-2.51482,0.31366,0.85625
456.541,23.98586,-2.5165,0.3146,0.85577
457.141,24.0049,-2.51771,0.31759,0.85529
457.741,24.02402,-2.51938,0.32309,0.85481
458.341,24.0431,-2.52112,0.3264,0.85433
458.941,24.0622,-2.52152,0.32913,0.85385
459.541,24.08126,-2.52346,0.32983,0.85336
460.141,24.10034,-2.52534,0.33145,0.85288
460.741,24.11945,-2.52712,0.33785,0.8524
461.341,24.13847,-2.5289,0.33689,0.85192
461.941,24.15755,-2.53095,0.34148,0.85143
462.541,24.17667,-2.53317,0.34091,0.85095
463.141,24.19572,-2.53452,0.34442,0.85047
463.741,24.2148,-2.53638,0.34719,0.84998
464.341,24.23394,-2.53737,0.34822,0.8495
464.941,24.25304,-2.53807,0.35127,0.84902
465.541,24.2722,-2.541,0.35528,0.84853
466.141,24.29128,-2.54267,0.35641,0.84805
466.741,24.31036,-2.54463,0.3569,0.84757
467.341,24.32948,-2.54635,0.3595,0.84708
467.941,24.34855,-2.5475,0.35986,0.8466
468.541,24.36765,-2.5493,0.36428,0.84611
469.141,24.38671,-2.55091,0.36517,0.84563
469.741,24.4058,-2.55217,0.3702,0.84514
470.341,24.42491,-2.55351,0.3696,0.84466
470.941,24.4438,-2.55555,0.37055,0.84417
471.541,24.46294,-2.55697,0.37329,0.84369
472.141,24.48206,-2.55784,0.37587,0.8432
472.741,24.5012,-2.55905,0.37623,0.84271
473.341,24.5204,-2.56065,0.37781,0.84223
473.941,24.53973,-2.56258,0.37932,0.84174
474.541,24.5589,-2.56416,0.38019,0.84126
475.141,24.5781,-2.56522,0.38457,0.84077
475.741,24.5973,-2.56656,0.3859,0.84028
476.341,24.61645,-2.56825,0.38244,0.83979
476.941,24.63559,-2.56961,0.38628,0.83931
477.541,24.65464,-2.5711,0.38942,0.83882
478.141,24.6738,-2.57293,0.38871,0.83833
478.741,24.69298,-2.57471,0.38909,0.83785
479.341,24.71217,-2.57555,0.39236,0.83736
479.941,24.73139,-2.5764,0.39241,0.83687
480.541,24.75061,-2.57787,0.3945,0.83638
481.141,24.7698,-2.57893,0.39571,0.83589
481.741,24.78892,-2.58049,0.39682,0.8354
482.341,24.80809,-2.58224,0.39872,0.83492
482.941,24.82726,-2.58402,0.39883,0.83443
483.541,24.84637,-2.58557,0.40003,0.83394
484.141,24.86554,-2.58645,0.40287,0.83345
484.741,24.88474,-2.5883,0.40588,0.83296
485.341,24.90389,-2.58899,0.40403,0.83247
485.941,24.92306,-2.58978,0.40587,0.83198
486.541,24.94228,-2.59125,0.40363,0.83149
487.141,24.96144,-2.59246,0.40475,0.831
487.741,24.9806,-2.59317,0.40796,0.83051
488.341,24.99982,-2.59462,0.40901,0.83002
488.941,25.01905,-2.59646,0.40979,0.82953
489.541,25.03823,-2.59816,0.40888,0.82904
490.141,25.05742,-2.59905,0.41167,0.82855
490.741,25.0766,-2.5998,0.41313,0.82806
491.341,25.0958,-2.60086,0.40998,0.82757
491.941,25.11498,-2.6013,0.4124,0.82708
492.541,25.13423,-2.60331,0.41302,0.82659
493.141,25.15346,-2.60425,0.41205,0.8261
493.741,25.17269,-2.60547,0.41321,0.8256
494.341,25.19194,-2.6065,0.41285,0.82511
494.941,25.21119,-2.6079,0.41363,0.82462
495.541,25.23043,-2.6086,0.41468,0.82413
496.141,25.2497,-2.60973,0.41544,0.82364
496.741,25.2689,-2.61138,0.4146,0.82315
497.341,25.28813,-2.61327,0.41152,0.82265
497.941,25.30732,-2.61407,0.41179,0.82216
498.541,25.32649,-2.6149,0.41286,0.82167
499.141,25.34571,-2.61657,0.4103,0.82118
499.741,25.3649,-2.61743,0.41393,0.82068
500.341,25.38414,-2.61814,0.41363,0.82019
500.941,25.40344,-2.6196,0.41463,0.8197
501.541,25.4227,-2.62137,0.41504,0.81921
502.141,25.44196,-2.62255,0.41176,0.81871
502.741,25.46122,-2.62372,0.41415,0.81822
503.341,25.4805,-2.6245,0.41235,0.81773
503.941,25.4998,-2.62633,0.41637,0.81723
504.541,25.51899,-2.62778,0.41405,0.81674
505.141,25.53829,-2.62779,0.41672,0.81624
505.741,25.5575,-2.62919,0.41467,0.81575
506.341,25.5767,-2.62991,0.41511,0.81526
506.941,25.59596,-2.63103,0.4152,0.81476
507.541,25.61526,-2.63247,0.41587,0.81427
508.141,25.63457,-2.63409,0.41746,0.81377
508.741,25.6539,-2.63519,0.41313,0.81328
509.341,25.67314,-2.63556,0.41293,0.81279
509.941,25.6924,-2.63695,0.41489,0.81229
510.541,25.7117,-2.63725,0.41396,0.8118
511.141,25.73096,-2.63864,0.41513,0.8113
511.741,25.75025,-2.6393,0.41658,0.81081
512.341,25.76962,-2.64044,0.41299,0.81031
512.941,25.7889,-2.64193,0.41384,0.80982
513.541,25.80821,-2.64302,0.41261,0.80932
514.141,25.82753,-2.64427,0.41554,0.80883
514.741,25.84681,-2.64495,0.41301,0.80833
515.341,25.8661,-2.64608,0.41141,0.80783
515.941,25.88554,-2.64738,0.41357,0.80734
516.541,25.90483,-2.64895,0.4139,0.80684
517.141,25.92418,-2.65033,0.41356,0.80635
517.741,25.94349,-2.65128,0.41157,0.80585
518.341,25.96266,-2.65228,0.41206,0.80536
518.941,25.98178,-2.6538,0.41265,0.80486
519.541,26.00113,-2.65417,0.41168,0.80436
520.141,26.02044,-2.65505,0.4108,0.80387
520.741,26.03978,-2.65614,0.41242,0.80337
521.341,26.0593,-2.65686,0.412,0.80287
521.941,26.0787,-2.65827,0.41095,0.80238
522.541,26.09797,-2.65919,0.41065,0.80188
523.141,26.11721,-2.65853,0.40842,0.80138
523.741,26.13658,-2.65959,0.40884,0.80089
524.341,26.156,-2.65978,0.40936,0.80039
524.941,26.17539,-2.66121,0.41067,0.79989
525.541,26.19492,-2.66228,0.4066,0.7994
526.141,26.21428,-2.66305,0.40873,0.7989
526.741,26.2336,-2.66467,0.4072,0.7984
527.341,26.2529,-2.66583,0.40802,0.7979
527.941,26.27228,-2.66702,0.40578,0.79741
528.541,26.29164,-2.66785,0.40715,0.79691
529.141,26.311,-2.66861,0.40628,0.79641
529.741,26.33033,-2.67009,0.40536,0.79591
530.341,26.3497,-2.6716,0.40594,0.79542
530.941,26.36908,-2.67186,0.40622,0.79492
531.541,26.3884,-2.67321,0.40448,0.79442
532.141,26.4078,-2.67364,0.40395,0.79392
532.741,26.42718,-2.67451,0.40176,0.79342
533.341,26.4466,-2.67565,0.40561,0.79293
533.941,26.46592,-2.67588,0.40344,0.79243
534.541,26.48538,-2.67748,0.40366,0.79193
535.141,26.50473,-2.67801,0.40276,0.79143
535.741,26.52413,-2.67912,0.40556,0.79093
536.341,26.5435,-2.6807,0.40353,0.79044
536.941,26.56295,-2.68174,0.40099,0.78994
537.541,26.5824,-2.68244,0.40169,0.78944
538.141,26.60173,-2.68382,0.40196,0.78894
538.741,26.6212,-2.68448,0.39748,0.78844
539.341,26.64061,-2.6855,0.40195,0.78794
539.941,26.6601,-2.68578,0.39846,0.78744
540.541,26.67955,-2.68639,0.398,0.78694
541.141,26.69898,-2.68719,0.40174,0.78645
541.741,26.71835,-2.68846,0.40251,0.78595
542.341,26.7378,-2.68851,0.3989,0.78545
542.941,26.7572,-2.68966,0.39967,0.78495
543.541,26.77658,-2.6894,0.40056,0.78445
544.141,26.79603,-2.69041,0.40065,0.78395
544.741,26.8154,-2.69075,0.39809,0.78345
545.341,26.8349,-2.69197,0.39859,0.78295
545.941,26.85428,-2.69368,0.39894,0.78245
546.541,26.87373,-2.69493,0.39782,0.78195
547.141,26.89315,-2.69553,0.39683,0.78145
547.741,26.91258,-2.69703,0.39856,0.78095
548.341,26.932,-2.69697,0.40034,0.78045
548.941,26.95147,-2.69706,0.39832,0.77996
549.541,26.97095,-2.6984,0.39689,0.77946
550.141,26.99035,-2.69875,0.39542,0.77896
550.741,27.00985,-2.6997,0.39668,0.77846
551.341,27.02935,-2.7014,0.39791,0.77796
551.941,27.0488,-2.70216,0.39764,0.77746
552.541,27.06826,-2.70392,0.39683,0.77696
553.141,27.08776,-2.70443,0.39819,0.77646
553.741,27.10715,-2.70556,0.39644,0.77596
554.341,27.12661,-2.7067,0.39514,0.77546
554.941,27.146,-2.70693,0.39532,0.77496
555.541,27.16542,-2.70852,0.3955,0.77446
556.141,27.1849,-2.70897,0.39684,0.77396
556.741,27.20438,-2.7085,0.39421,0.77346
557.341,27.22383,-2.70935,0.39481,0.77296
557.941,27.24336,-2.71,0.39543,0.77246
558.541,27.26292,-2.71168,0.39409,0.77196
559.141,27.2824,-2.71174,0.39287,0.77146
559.741,27.3019,-2.71298,0.39805,0.77096
560.341,27.3214,-2.71387,0.39558,0.77046
560.941,27.3409,-2.71583,0.39241,0.76995
561.541,27.36032,-2.71717,0.39632,0.76945
562.141,27.3798,-2.71715,0.39706,0.76895
562.741,27.3993,-2.71773,0.39464,0.76845
563.341,27.4188,-2.71871,0.39477,0.76795
563.941,27.4383,-2.7196,0.39615,0.76745
564.541,27.45781,-2.72022,0.39774,0.76695
565.141,27.47734,-2.72141,0.39526,0.76645
565.741,27.4968,-2.72162,0.39188,0.76595
566.341,27.51625,-2.72271,0.39348,0.76545
566.941,27.5357,-2.72305,0.39532,0.76495
567.541,27.5552,-2.72314,0.3943,0.76445
568.141,27.57477,-2.72451,0.39513,0.76395
568.741,27.59429,-2.72481,0.39769,0.76345
569.341,27.61378,-2.72596,0.39653,0.76295
569.941,27.6333,-2.72758,0.39737,0.76245
570.541,27.65271,-2.72811,0.39768,0.76195
571.141,27.67217,-2.72893,0.39535,0.76144
571.741,27.6917,-2.7284,0.39689,0.76094
572.341,27.71118,-2.72897,0.39899,0.76044
572.941,27.73078,-2.72971,0.39439,0.75994
573.541,27.7503,-2.73031,0.39336,0.75944
574.141,27.76983,-2.73031,0.3953,0.75894
574.741,27.78939,-2.73254,0.39639,0.75844
575.341,27.80888,-2.73295,0.39872,0.75794
575.941,27.82835,-2.73345,0.39927,0.75744
576.541,27.84797,-2.73451,0.3978,0.75694
577.141,27.86748,-2.73576,0.40137,0.75644
577.741,27.88703,-2.7359,0.39966,0.75594
578.341,27.90652,-2.73727,0.39995,0.75544
578.941,27.926,-2.73682,0.4017,0.75493
579.541,27.9454,-2.73812,0.40244,0.75443
580.141,27.9649,-2.73815,0.40294,0.75393
580.741,27.9844,-2.73921,0.40492,0.75343
581.341,28.00395,-2.73943,0.40544,0.75293
581.941,28.0235,-2.74072,0.40654,0.75243
582.541,28.0431,-2.74083,0.40872,0.75193
583.141,28.0626,-2.74142,0.40928,0.75143
583.741,28.08216,-2.74211,0.40983,0.75093
584.341,28.1017,-2.74296,0.41387,0.75043
584.941,28.12128,-2.74356,0.41223,0.74993
585.541,28.14085,-2.74431,0.41293,0.74942
586.141,28.16044,-2.7449,0.41827,0.74892
586.741,28.18004,-2.74522,0.41541,0.74842
587.341,28.19965,-2.74633,0.41827,0.74792
587.941,28.21932,-2.7466,0.42042,0.74742
588.541,28.2389,-2.74766,0.42137,0.74692
589.141,28.25845,-2.74761,0.41972,0.74642
589.741,28.278,-2.74896,0.42521,0.74592
590.341,28.2976,-2.74897,0.426,0.74542
590.941,28.3171,-2.75036,0.42497,0.74492
591.541,28.33673,-2.75051,0.42994,0.74442
592.141,28.35636,-2.75177,0.43014,0.74392
592.741,28.37606,-2.7518,0.43185,0.74341
593.341,28.3957,-2.75309,0.43114,0.74291
593.941,28.4154,-2.75304,0.43191,0.74241
594.541,28.435,-2.75347,0.43714,0.74191
595.141,28.45464,-2.75435,0.43736,0.74141
595.741,28.4742,-2.75454,0.43997,0.74091
596.341,28.4938,-2.7557,0.4396,0.74041
596.941,28.51346,-2.7558,0.4436,0.73991
597.541,28.5331,-2.75713,0.44162,0.73941
598.141,28.5527,-2.7571,0.44306,0.73891
598.741,28.5724,-2.75848,0.44552,0.73841
599.341,28.5921,-2.75841,0.44836,0.73791
599.941,28.6118,-2.7599,0.45208,0.73741
600.541,28.63141,-2.75987,0.45338,0.73691
601.141,28.65111,-2.76116,0.45211,0.73641
601.741,28.67075,-2.76116,0.45434,0.7359
602.341,28.69035,-2.76245,0.46092,0.7354
602.941,28.71009,-2.76244,0.45759,0.7349
603.541,28.7298,-2.76308,0.45855,0.7344
604.141,28.74943,-2.76377,0.46486,0.7339
604.741,28.76913,-2.76434,0.46245,0.7334
605.341,28.7889,-2.7652,0.46503,0.7329
605.941,28.80855,-2.76513,0.47024,0.7324
606.541,28.82827,-2.76648,0.47075,0.7319
607.141,28.848,-2.76642,0.47209,0.7314
607.741,28.86765,-2.76789,0.47721,0.7309
608.341,28.8873,-2.76808,0.47584,0.7304
608.941,28.907,-2.76931,0.47648,0.7299
609.541,28.9267,-2.76925,0.48051,0.7294
610.141,28.9464,-2.77026,0.48264,0.7289
610.741,28.96616,-2.77055,0.48005,0.7284
611.341,28.9859,-2.77089,0.48384,0.7279
611.941,29.00566,-2.77192,0.48688,0.7274
612.541,29.02539,-2.77188,0.48676,0.7269
613.141,29.0452,-2.77275,0.48965,0.7264
613.741,29.0649,-2.77317,0.48934,0.7259
614.341,29.0847,-2.77319,0.49411,0.7254
614.941,29.1045,-2.7732,0.49233,0.7249
615.541,29.1243,-2.77341,0.49697,0.7244
616.141,29.1441,-2.77456,0.49769,0.7239
616.741,29.16382,-2.77451,0.49928,0.7234
617.341,29.18355,-2.7752,0.50163,0.7229
617.941,29.2033,-2.77577,0.50087,0.7224
618.541,29.2231,-2.77676,0.50471,0.7219
619.141,29.2428,-2.7772,0.50354,0.7214
619.741,29.2626,-2.77813,0.50711,0.7209
620.341,29.28244,-2.77856,0.50897,0.7204
620.941,29.3022,-2.77861,0.5076,0.7199
621.541,29.322,-2.778,0.50957,0.71941
622.141,29.34177,-2.77934,0.51346,0.71891
622.741,29.36151,-2.7793,0.51261,0.71841
623.341,29.38125,-2.78041,0.51543,0.71791
623.941,29.401,-2.78065,0.51571,0.71741
624.541,29.4208,-2.78065,0.51647,0.71691
625.141,29.44063,-2.78064,0.51831,0.71641
625.741,29.46043,-2.78167,0.51997,0.71591
626.341,29.4803,-2.78197,0.51954,0.71541
626.941,29.5001,-2.78264,0.52344,0.71491
627.541,29.51988,-2.78339,0.52299,0.71441
628.141,29.53963,-2.78402,0.52476,0.71392
628.741,29.5594,-2.78472,0.52262,0.71342
629.341,29.5792,-2.78471,0.52674,0.71292
629.941,29.59899,-2.78466,0.52983,0.71242
630.541,29.61873,-2.78602,0.52879,0.71192
631.141,29.6385,-2.78603,0.5327,0.71142
631.741,29.65836,-2.78603,0.53277,0.71092
632.341,29.67819,-2.78596,0.53297,0.71043
632.941,29.69805,-2.78733,0.53502,0.70993
633.541,29.71803,-2.78753,0.53765,0.70943
634.141,29.73791,-2.78869,0.53808,0.70893
634.741,29.7578,-2.78858,0.54266,0.70843
635.341,29.77763,-2.78996,0.54059,0.70793
635.941,29.79745,-2.78997,0.54226,0.70744
636.541,29.8173,-2.79012,0.54487,0.70694
637.141,29.83711,-2.79135,0.54966,0.70644
637.741,29.8569,-2.79132,0.54971,0.70594
638.341,29.8767,-2.79195,0.54955,0.70544
638.941,29.89654,-2.79261,0.5531,0.70495
639.541,29.9164,-2.79261,0.55652,0.70445
640.141,29.9363,-2.79261,0.55452,0.70395
640.741,29.9561,-2.79271,0.55738,0.70345
641.341,29.97587,-2.79399,0.56168,0.70296
641.941,29.99561,-2.79383,0.56118,0.70246
642.541,30.01544,-2.79519,0.56866,0.70196
643.141,30.03523,-2.79524,0.56762,0.70146
643.741,30.0551,-2.79524,0.56847,0.70097
644.341,30.07498,-2.79519,0.56962,0.70047
644.941,30.0948,-2.79628,0.5692,0.69997
645.541,30.11454,-2.79654,0.57181,0.69948
646.141,30.1342,-2.79732,0.57352,0.69898
646.741,30.154,-2.79784,0.58105,0.69848
647.341,30.17391,-2.79786,0.57955,0.69799
647.941,30.1939,-2.7986,0.58252,0.69749
648.541,30.214,-2.79916,0.58224,0.69699
649.141,30.234,-2.79919,0.58534,0.6965
649.741,30.2538,-2.79915,0.58654,0.696
650.341,30.27375,-2.80015,0.5886,0.6955
650.941,30.2936,-2.80049,0.59046,0.69501
651.541,30.31338,-2.80052,0.59169,0.69451
652.141,30.33328,-2.80074,0.59496,0.69401
652.741,30.3531,-2.80042,0.59643,0.69352
653.341,30.37299,-2.80047,0.60088,0.69302
653.941,30.3929,-2.8014,0.60067,0.69253
654.541,30.4128,-2.80177,0.60273,0.69203
655.141,30.43263,-2.80303,0.60377,0.69153
655.741,30.4525,-2.80464,0.60771,0.69104
656.341,30.4723,-2.80457,0.6071,0.69054
656.941,30.49222,-2.80456,0.60794,0.69005
657.541,30.51205,-2.80456,0.60779,0.68955
658.141,30.532,-2.80508,0.61015,0.68906
658.741,30.5518,-2.80587,0.61008,0.68856
659.341,30.57165,-2.80594,0.61067,0.68807
659.941,30.59158,-2.80722,0.6111,0.68757
660.541,30.6114,-2.80717,0.61526,0.68708
661.141,30.6313,-2.80829,0.61696,0.68658
661.741,30.65118,-2.80776,0.61687,0.68609
662.341,30.67107,-2.80721,0.61919,0.68559
662.941,30.6909,-2.80723,0.62113,0.6851
663.541,30.7108,-2.80854,0.62028,0.6846
664.141,30.7307,-2.80852,0.62373,0.68411
664.741,30.75057,-2.80852,0.62635,0.68361
665.341,30.77042,-2.80855,0.62851,0.68312
665.941,30.7903,-2.80983,0.63071,0.68262
666.541,30.81012,-2.8105,0.63054,0.68213
667.141,30.83,-2.81049,0.62903,0.68164
667.741,30.8499,-2.81212,0.62948,0.68114
668.341,30.8698,-2.81246,0.63187,0.68065
668.941,30.8897,-2.81246,0.63021,0.68015
669.541,30.90965,-2.81309,0.6336,0.67966
670.141,30.9295,-2.81378,0.63357,0.67917
670.741,30.94933,-2.81378,0.63491,0.67867
671.341,30.96925,-2.81378,0.63846,0.67818
671.941,30.98917,-2.81378,0.63398,0.67769
672.541,31.0091,-2.81378,0.6369,0.67719
673.141,31.029,-2.81378,0.63829,0.6767
673.741,31.04895,-2.81403,0.63752,0.67621
674.341,31.06885,-2.81512,0.64146,0.67571
674.941,31.08874,-2.8151,0.63683,0.67522
675.541,31.1086,-2.81631,0.64097,0.67473
676.141,31.12847,-2.8164,0.63833,0.67424
676.741,31.1484,-2.81641,0.64265,0.67374
677.341,31.1683,-2.81641,0.63647,0.67325
677.941,31.1882,-2.81641,0.63857,0.67276
678.541,31.2082,-2.8164,0.63871,0.67227
679.141,31.2281,-2.81634,0.6419,0.67177
679.741,31.248,-2.81781,0.64009,0.67128
680.341,31.26786,-2.81786,0.63624,0.67079
680.941,31.28776,-2.81861,0.63941,0.6703
681.541,31.3077,-2.81916,0.64136,0.66981
682.141,31.3276,-2.81915,0.63892,0.66931
682.741,31.3476,-2.81908,0.64236,0.66882
683.341,31.36755,-2.82045,0.63747,0.66833
683.941,31.38751,-2.82047,0.63635,0.66784
684.541,31.4074,-2.82047,0.63763,0.66735
685.141,31.42727,-2.82047,0.63506,0.66686
685.741,31.44715,-2.82048,0.63855,0.66637
686.341,31.46704,-2.82089,0.6354,0.66588
686.941,31.4869,-2.82182,0.63538,0.66538
687.541,31.5069,-2.82182,0.63531,0.66489
688.141,31.52682,-2.82246,0.63746,0.6644
688.741,31.54679,-2.82312,0.63303,0.66391
689.341,31.56675,-2.82312,0.63356,0.66342
689.941,31.58673,-2.82337,0.63345,0.66293
690.541,31.60665,-2.82307,0.631,0.66244
691.141,31.62661,-2.82322,0.63193,0.66195
691.741,31.64657,-2.8245,0.63151,0.66146
692.341,31.66654,-2.82465,0.6298,0.66097
692.941,31.68645,-2.82476,0.62616,0.66048
693.541,31.70637,-2.82511,0.62344,0.65999
694.141,31.7263,-2.82607,0.62373,0.6595
694.741,31.7462,-2.82666,0.62186,0.65901
695.341,31.7661,-2.82732,0.62023,0.65852
695.941,31.7862,-2.82826,0.61629,0.65804
696.541,31.80615,-2.82836,0.61698,0.65755
697.141,31.82613,-2.82837,0.6154,0.65706
697.741,31.8461,-2.82836,0.61349,0.65657
698.341,31.866,-2.82934,0.61247,0.65608
698.941,31.886,-2.82967,0.6111,0.65559
699.541,31.9059,-2.82978,0.60312,0.6551
700.141,31.92577,-2.83108,0.6043,0.65461
700.741,31.9457,-2.83101,0.60279,0.65413
701.341,31.9657,-2.83103,0.60206,0.65364
701.941,31.98566,-2.83154,0.59878,0.65315
702.541,32.00562,-2.83233,0.59504,0.65266
703.141,32.02561,-2.83232,0.59357,0.65217
703.741,32.04557,-2.83232,0.59613,0.65169
704.341,32.06556,-2.8324,0.59202,0.6512
704.941,32.08556,-2.83372,0.58935,0.65071
705.541,32.10556,-2.83365,0.58877,0.65022
706.141,32.12554,-2.83365,0.58832,0.64974
706.741,32.1455,-2.83393,0.58453,0.64925
707.341,32.16548,-2.835,0.58516,0.64876
707.941,32.18548,-2.83495,0.58085,0.64828
708.541,32.20552,-2.83495,0.58114,0.64779
709.141,32.22553,-2.83493,0.57795,0.6473
709.741,32.2456,-2.83457,0.57452,0.64682
710.341,32.2656,-2.83523,0.57049,0.64633
710.941,32.28553,-2.83559,0.56971,0.64584
711.541,32.30553,-2.83561,0.56743,0.64536
712.141,32.3255,-2.83561,0.56618,0.64487
712.741,32.34552,-2.83562,0.56662,0.64439
713.341,32.3656,-2.83592,0.56225,0.6439
713.941,32.38558,-2.83696,0.55917,0.64342
714.541,32.4056,-2.83692,0.56029,0.64293
715.141,32.42556,-2.83692,0.55737,0.64244
715.741,32.44553,-2.83692,0.55402,0.64196
716.341,32.46553,-2.83691,0.55525,0.64147
716.941,32.48557,-2.83784,0.55174,0.64099
717.541,32.5056,-2.83822,0.55118,0.6405
718.141,32.52564,-2.83823,0.54331,0.64002
718.741,32.5457,-2.83817,0.54582,0.63954
719.341,32.5657,-2.83896,0.54257,0.63905
719.941,32.5856,-2.83891,0.54052,0.63857
720.541,32.60565,-2.83893,0.53903,0.63808
721.141,32.62567,-2.83943,0.5374,0.6376
721.741,32.64568,-2.84021,0.53446,0.63711
722.341,32.6657,-2.84012,0.53238,0.63663
722.941,32.68577,-2.83881,0.52863,0.63615
723.541,32.70578,-2.83891,0.52869,0.63566
724.141,32.72586,-2.83945,0.52607,0.63518
724.741,32.7458,-2.84022,0.52278,0.6347
725.341,32.76579,-2.84021,0.52083,0.63421
725.941,32.78584,-2.84021,0.52215,0.63373
726.541,32.80581,-2.84016,0.5168,0.63325
727.141,32.8258,-2.84132,0.51645,0.63277
727.741,32.84587,-2.84152,0.51418,0.63228
728.341,32.86588,-2.84154,0.51133,0.6318
728.941,32.88589,-2.84185,0.50532,0.63132
729.541,32.90595,-2.84288,0.50786,0.63084
730.141,32.926,-2.84284,0.50594,0.63035
730.741,32.94598,-2.84283,0.50134,0.62987
731.341,32.96606,-2.84274,0.50194,0.62939
731.941,32.9861,-2.84413,0.49957,0.62891
732.541,33.0062,-2.84451,0.5014,0.62843
733.141,33.02624,-2.84553,0.49817,0.62795
733.741,33.04627,-2.84448,0.49427,0.62746
734.341,33.0663,-2.84418,0.4875,0.62698
734.941,33.08636,-2.84415,0.49194,0.6265
735.541,33.1064,-2.84405,0.48902,0.62602
736.141,33.1265,-2.84522,0.48743,0.62554
736.741,33.14656,-2.84515,0.48446,0.62506
737.341,33.16661,-2.84512,0.48313,0.62458
737.941,33.18673,-2.84549,0.47935,0.6241
738.541,33.2068,-2.8455,0.47416,0.62362
739.141,33.2269,-2.84615,0.47559,0.62314
739.741,33.247,-2.84679,0.47209,0.62266
740.341,33.2671,-2.84678,0.47386,0.62218
740.941,33.28713,-2.84669,0.4714,0.6217
741.541,33.30823,-2.8481,0.47184,0.62122
742.141,33.32965,-2.84811,0.46871,0.62074
742.241,33.332,-2.84811,0.46837,0.62066