File: 01_Data/Alpha_OSB/MCC/Alpha_OSB_MCC_30K_min_211206_R2.txt
Sample ID:	C:\MCC\MCC Cal\Test\Alpha_OSB_MCC_30K_min_211206_R2.txt
Sample Weight (mg):	4.4
Heating Rate (C/s):	0.5
Combustor Temp (C):	900
N2 Flow Rate (cc/min):	80
O2 Flow Rate (cc/min):	20
Calibration File:	C:\MCC\MCC Cal\Coeff1 JN10440_30_210304.txt.txt
T Correction Coefficients:	0	1.024463	0
Time Shift (s):	14
*
Time (s)	Temperature (C)	N2 flow rate (cc/min)	O2 flow rate (cc/min)	Flow Rate (cc/min)	Oxygen (%)	HRR (W/g)	Heating rate (C/s)
0.000	110.403	79.999	19.994	103.069	20.074	-0.114	-0.014
2.000	110.420	79.998	19.994	103.071	20.070	0.136	0.000
4.000	110.429	79.999	19.995	103.068	20.074	-0.116	0.054
6.000	110.434	79.998	19.994	103.069	20.070	0.130	0.017
8.000	110.430	80.000	19.995	103.068	20.076	-0.271	-0.009
10.000	110.406	80.001	19.994	103.068	20.073	-0.088	-0.020
12.000	110.373	80.000	19.994	103.082	20.069	0.261	-0.003
14.000	110.431	80.001	19.994	103.126	20.063	0.652	0.063
16.000	110.447	80.001	19.995	103.154	20.059	0.996	0.012
18.000	110.509	80.002	19.995	103.164	20.055	1.267	0.034
20.000	110.601	80.001	19.994	103.185	20.053	1.438	0.041
22.000	110.713	80.002	19.993	103.188	20.052	1.471	0.079
24.000	110.843	80.002	19.994	103.186	20.049	1.673	0.062
26.000	110.969	79.993	19.997	103.180	20.052	1.488	0.045
28.001	111.140	80.006	19.993	103.182	20.048	1.783	0.095
30.000	111.304	80.003	19.994	103.186	20.047	1.867	0.101
32.000	111.550	80.002	19.995	103.213	20.043	2.134	0.118
34.000	111.728	80.003	19.994	103.234	20.037	2.605	0.110
36.000	112.022	80.007	19.995	103.254	20.038	2.491	0.152
38.000	112.256	80.000	19.995	103.252	20.034	2.769	0.123
40.000	112.591	80.002	19.996	103.237	20.037	2.577	0.187
42.000	112.908	79.996	19.996	103.254	20.036	2.626	0.181
44.000	113.246	79.998	19.996	103.260	20.035	2.712	0.180
46.000	113.661	79.998	19.996	103.263	20.032	2.975	0.176
48.000	114.037	79.996	19.996	103.265	20.035	2.747	0.181
50.000	114.456	79.995	19.996	103.262	20.033	2.882	0.219
52.000	114.896	80.000	19.996	103.261	20.034	2.821	0.239
54.000	115.330	79.998	19.995	103.262	20.026	3.404	0.242
56.001	115.808	80.000	19.994	103.268	20.031	3.050	0.241
58.000	116.293	80.000	19.995	103.281	20.033	2.892	0.244
60.000	116.821	79.999	19.994	103.297	20.030	3.107	0.289
62.000	117.341	80.000	19.995	103.305	20.025	3.480	0.265
64.001	117.860	80.000	19.995	103.308	20.025	3.498	0.274
66.000	118.440	79.997	19.995	103.316	20.023	3.613	0.292
68.000	119.078	79.998	19.995	103.322	20.024	3.554	0.303
70.000	119.715	79.998	19.994	103.321	20.021	3.790	0.346
72.000	120.391	79.995	19.998	103.330	20.020	3.817	0.361
74.000	121.045	79.997	19.996	103.324	20.019	3.905	0.361
76.000	121.757	79.998	19.998	103.317	20.018	3.946	0.345
78.000	122.441	79.998	19.996	103.332	20.021	3.772	0.345
80.000	123.198	79.998	19.996	103.322	20.018	3.999	0.360
82.001	123.909	79.999	19.995	103.334	20.020	3.797	0.385
84.000	124.689	79.998	19.994	103.330	20.015	4.192	0.390
86.000	125.445	80.002	19.994	103.338	20.015	4.215	0.381
88.000	126.182	79.999	19.994	103.335	20.013	4.309	0.394
90.000	127.050	80.001	19.995	103.339	20.013	4.366	0.439
92.000	127.842	80.002	19.995	103.337	20.012	4.423	0.398
94.000	128.713	80.001	19.994	103.337	20.017	4.038	0.428
96.000	129.576	80.001	19.994	103.332	20.016	4.087	0.426
98.000	130.411	80.002	19.994	103.335	20.020	3.852	0.425
100.001	131.255	79.997	19.994	103.327	20.016	4.123	0.430
102.000	132.125	80.003	19.994	103.340	20.018	4.009	0.410
104.000	133.003	80.001	19.995	103.340	20.018	3.950	0.449
106.000	133.921	80.000	19.994	103.339	20.019	3.882	0.464
108.001	134.846	80.002	19.995	103.340	20.018	3.983	0.478
110.000	135.800	80.001	19.994	103.338	20.016	4.135	0.482
112.000	136.775	80.002	19.995	103.340	20.018	3.974	0.472
114.000	137.704	80.003	19.994	103.340	20.017	4.052	0.478
116.000	138.668	80.002	19.994	103.336	20.016	4.129	0.498
118.000	139.644	80.002	19.994	103.342	20.018	3.984	0.450
120.000	140.608	80.002	19.994	103.338	20.019	3.887	0.481
122.001	141.569	80.000	19.994	103.338	20.019	3.876	0.496
124.000	142.582	80.002	19.994	103.337	20.017	4.058	0.514
126.000	143.588	80.001	19.994	103.335	20.019	3.935	0.519
128.000	144.578	80.000	19.993	103.336	20.017	4.078	0.485
130.000	145.577	79.998	19.994	103.340	20.016	4.141	0.495
132.000	146.623	79.996	19.994	103.344	20.020	3.821	0.526
134.000	147.646	79.996	19.994	103.335	20.019	3.869	0.498
136.000	148.656	80.000	19.992	103.331	20.020	3.855	0.518
138.000	149.634	80.000	19.994	103.318	20.017	4.031	0.484
140.000	150.693	80.001	19.998	103.321	20.019	3.894	0.535
142.000	151.732	80.005	19.994	103.311	20.019	3.916	0.554
144.000	152.711	79.998	19.994	103.314	20.020	3.844	0.509
146.000	153.745	79.998	19.995	103.304	20.020	3.808	0.509
148.000	154.753	80.002	19.993	103.312	20.016	4.106	0.500
150.000	155.774	79.999	19.995	103.317	20.018	3.948	0.530
152.000	156.809	79.996	19.996	103.306	20.017	4.067	0.510
154.000	157.805	79.997	19.996	103.301	20.019	3.924	0.501
156.000	158.804	79.999	19.995	103.312	20.018	3.981	0.497
158.000	159.884	79.999	19.995	103.313	20.021	3.746	0.503
160.000	160.867	79.997	19.999	103.301	20.020	3.810	0.487
162.000	161.852	79.998	19.997	103.299	20.021	3.748	0.489
164.000	162.878	80.001	19.995	103.303	20.019	3.936	0.484
166.000	163.903	80.000	19.995	103.299	20.023	3.573	0.489
168.000	164.961	79.999	19.998	103.300	20.020	3.808	0.511
170.000	166.017	80.001	19.995	103.296	20.019	3.901	0.485
172.000	166.986	80.002	19.996	103.294	20.014	4.244	0.530
174.000	168.015	79.997	19.995	103.288	20.020	3.865	0.524
176.000	169.018	80.002	19.996	103.295	20.021	3.750	0.490
178.000	170.020	80.000	19.995	103.300	20.017	4.050	0.490
180.000	171.040	80.000	20.000	103.302	20.021	3.740	0.505
182.000	172.059	80.002	19.994	103.300	20.022	3.699	0.492
184.000	173.055	80.004	19.994	103.301	20.019	3.903	0.497
186.000	174.020	80.000	19.993	103.291	20.020	3.850	0.469
188.000	175.047	80.001	19.994	103.287	20.019	3.901	0.510
190.000	176.042	79.999	19.994	103.276	20.020	3.830	0.509
192.000	176.993	79.999	19.993	103.284	20.020	3.819	0.453
194.000	178.036	80.000	19.993	103.291	20.018	3.978	0.522
196.000	179.016	80.002	19.995	103.296	20.016	4.129	0.458
198.000	180.012	80.002	19.993	103.278	20.017	4.019	0.472
200.000	180.989	80.001	19.994	103.282	20.021	3.727	0.468
202.000	181.995	80.000	19.994	103.278	20.019	3.898	0.544
204.000	182.982	80.002	19.993	103.278	20.020	3.832	0.465
206.000	183.979	80.002	19.994	103.272	20.019	3.935	0.504
208.000	184.920	80.000	19.995	103.274	20.020	3.813	0.445
210.000	185.988	79.999	19.995	103.276	20.020	3.827	0.497
212.000	186.959	79.998	19.995	103.274	20.017	4.033	0.473
214.000	187.945	80.001	19.994	103.279	20.017	4.029	0.506
216.000	188.962	80.000	19.994	103.282	20.016	4.151	0.496
218.000	189.947	79.999	19.996	103.287	20.017	4.031	0.519
220.000	190.913	80.000	19.995	103.282	20.014	4.247	0.475
222.000	191.894	80.002	19.995	103.271	20.015	4.176	0.488
224.000	192.940	80.002	19.994	103.277	20.015	4.204	0.509
226.000	193.874	80.002	19.995	103.277	20.011	4.474	0.497
228.000	194.870	80.001	19.995	103.274	20.008	4.740	0.485
230.000	195.842	80.001	19.995	103.270	20.010	4.586	0.455
232.000	196.863	79.999	19.996	103.270	20.009	4.623	0.504
234.000	197.826	79.999	19.997	103.274	20.006	4.863	0.505
236.000	198.819	79.998	19.995	103.272	20.005	4.924	0.519
238.000	199.778	79.999	19.995	103.279	20.004	4.985	0.493
240.000	200.725	79.999	19.996	103.277	20.007	4.757	0.487
242.000	201.683	79.999	19.994	103.286	20.007	4.788	0.465
244.000	202.664	79.998	19.994	103.276	20.007	4.763	0.485
246.000	203.644	80.000	19.994	103.267	20.002	5.144	0.475
248.000	204.619	80.000	19.995	103.271	20.003	5.096	0.477
250.000	205.655	80.001	19.995	103.276	20.003	5.036	0.481
252.000	206.660	79.999	19.997	103.281	20.002	5.120	0.489
254.000	207.639	80.000	19.994	103.283	20.001	5.208	0.502
256.000	208.645	79.998	19.993	103.270	20.002	5.150	0.543
258.000	209.625	80.000	19.994	103.273	19.997	5.523	0.484
260.000	210.601	80.000	19.995	103.275	20.000	5.269	0.492
262.001	211.597	79.998	19.996	103.267	20.000	5.321	0.493
264.000	212.629	79.999	19.996	103.285	19.998	5.429	0.508
266.000	213.623	79.998	19.995	103.274	19.998	5.441	0.482
268.000	214.608	80.001	19.995	103.271	19.995	5.628	0.478
270.000	215.632	80.000	19.995	103.276	19.991	5.948	0.510
272.000	216.637	80.001	19.993	103.271	19.993	5.813	0.516
274.000	217.654	80.001	19.995	103.266	19.991	5.956	0.534
276.000	218.675	80.002	19.994	103.263	19.985	6.382	0.530
278.000	219.659	80.002	19.993	103.269	19.987	6.251	0.495
280.001	220.635	80.001	19.995	103.279	19.988	6.160	0.505
282.000	221.663	80.000	19.998	103.269	19.990	6.028	0.525
284.000	222.666	80.000	19.995	103.276	19.985	6.372	0.523
286.000	223.656	80.001	19.996	103.266	19.985	6.360	0.512
288.000	224.659	80.000	19.995	103.274	19.983	6.541	0.516
290.000	225.668	79.999	19.995	103.271	19.984	6.435	0.489
292.000	226.676	80.001	19.995	103.284	19.982	6.584	0.508
294.000	227.681	79.998	19.996	103.288	19.983	6.559	0.502
296.000	228.657	80.003	19.994	103.275	19.979	6.807	0.492
298.000	229.707	79.999	19.995	103.282	19.978	6.932	0.503
300.000	230.700	80.003	19.996	103.273	19.977	6.980	0.493
302.000	231.725	80.000	19.997	103.270	19.974	7.211	0.496
304.000	232.746	80.000	19.996	103.276	19.970	7.478	0.485
306.000	233.735	79.998	19.995	103.267	19.969	7.597	0.500
308.000	234.731	79.997	20.001	103.267	19.967	7.699	0.487
310.000	235.755	79.999	19.995	103.278	19.964	7.899	0.493
312.000	236.688	79.998	19.996	103.270	19.964	7.925	0.443
314.000	237.695	80.000	19.994	103.266	19.963	7.995	0.487
316.000	238.739	79.999	19.993	103.269	19.958	8.398	0.516
318.000	239.681	79.997	19.998	103.270	19.957	8.430	0.476
320.000	240.647	80.004	19.995	103.274	19.957	8.434	0.504
322.000	241.635	79.998	19.997	103.272	19.955	8.562	0.481
324.000	242.681	79.997	19.996	103.274	19.952	8.776	0.506
326.000	243.663	79.997	19.995	103.271	19.948	9.126	0.506
328.000	244.651	79.999	19.995	103.281	19.946	9.257	0.499
330.000	245.641	79.999	19.996	103.285	19.941	9.587	0.478
332.000	246.659	79.999	19.996	103.283	19.942	9.524	0.507
334.000	247.611	80.000	19.994	103.279	19.943	9.502	0.508
336.000	248.623	80.000	19.996	103.271	19.934	10.156	0.488
338.000	249.702	80.000	19.996	103.274	19.934	10.139	0.559
340.000	250.649	80.000	19.994	103.280	19.930	10.448	0.475
342.000	251.660	79.999	19.994	103.271	19.929	10.507	0.511
344.000	252.653	80.000	19.995	103.284	19.921	11.048	0.454
346.000	253.649	79.999	19.997	103.269	19.924	10.886	0.495
348.000	254.606	80.007	19.991	103.272	19.923	10.949	0.470
350.000	255.641	80.001	19.995	103.282	19.915	11.546	0.519
352.000	256.609	80.001	19.998	103.285	19.909	11.975	0.489
354.000	257.637	79.999	19.996	103.293	19.906	12.151	0.509
356.000	258.637	80.000	19.996	103.287	19.901	12.564	0.499
358.000	259.654	80.000	19.997	103.290	19.895	12.951	0.492
360.000	260.616	80.006	19.992	103.290	19.892	13.214	0.514
362.000	261.630	80.004	19.996	103.299	19.886	13.669	0.505
364.000	262.634	80.006	19.994	103.297	19.883	13.875	0.465
366.000	263.591	80.000	19.996	103.298	19.876	14.366	0.474
368.001	264.553	79.999	19.997	103.288	19.875	14.462	0.474
370.000	265.610	80.002	19.995	103.303	19.868	14.928	0.504
372.000	266.553	80.002	19.992	103.306	19.860	15.518	0.460
374.000	267.577	79.999	19.991	103.307	19.855	15.907	0.490
376.000	268.594	80.001	19.995	103.307	19.851	16.221	0.513
378.000	269.567	80.001	19.994	103.307	19.847	16.495	0.489
380.000	270.591	79.999	19.990	103.313	19.842	16.869	0.515
382.000	271.647	80.001	19.994	103.310	19.836	17.283	0.534
384.000	272.618	80.001	19.997	103.308	19.830	17.742	0.501
386.000	273.622	79.999	19.993	103.325	19.823	18.273	0.482
388.000	274.673	79.998	19.993	103.331	19.815	18.817	0.550
390.000	275.648	80.007	19.991	103.316	19.814	18.913	0.502
392.000	276.632	79.998	19.996	103.327	19.805	19.601	0.491
394.000	277.672	80.002	19.995	103.329	19.795	20.298	0.503
396.000	278.661	79.998	19.995	103.342	19.791	20.575	0.469
398.000	279.631	80.000	19.994	103.342	19.783	21.208	0.494
400.000	280.647	79.998	19.994	103.340	19.777	21.643	0.490
402.000	281.651	79.999	19.994	103.340	19.766	22.416	0.534
404.000	282.636	80.000	19.994	103.340	19.761	22.802	0.509
406.000	283.638	79.998	19.996	103.341	19.750	23.639	0.486
408.000	284.618	79.998	19.995	103.335	19.741	24.240	0.485
410.000	285.630	80.002	19.995	103.341	19.734	24.791	0.491
412.000	286.643	80.004	19.996	103.340	19.727	25.315	0.512
414.000	287.619	80.004	19.994	103.341	19.718	25.990	0.447
416.000	288.587	79.999	19.997	103.349	19.713	26.311	0.500
418.000	289.569	80.001	19.996	103.351	19.706	26.873	0.476
420.000	290.568	80.004	19.994	103.348	19.696	27.551	0.507
422.000	291.548	80.001	19.995	103.347	19.686	28.330	0.475
424.000	292.566	80.002	19.994	103.343	19.677	28.944	0.475
426.000	293.513	79.999	19.996	103.358	19.669	29.549	0.465
428.000	294.549	80.002	19.995	103.361	19.657	30.430	0.511
430.000	295.568	80.001	19.995	103.370	19.653	30.761	0.496
432.000	296.557	80.001	19.994	103.374	19.642	31.508	0.490
434.000	297.549	80.000	19.995	103.379	19.634	32.129	0.505
436.000	298.525	80.000	19.995	103.378	19.624	32.841	0.497
438.000	299.513	80.002	19.996	103.378	19.616	33.458	0.471
440.000	300.494	80.003	19.995	103.383	19.611	33.803	0.492
442.000	301.456	80.003	19.993	103.381	19.600	34.622	0.535
444.000	302.478	80.001	19.996	103.384	19.594	35.092	0.515
446.000	303.469	79.998	19.996	103.388	19.584	35.777	0.518
448.001	304.419	80.000	19.997	103.403	19.574	36.519	0.493
450.000	305.418	80.001	19.995	103.407	19.565	37.204	0.475
452.000	306.439	80.000	19.996	103.398	19.557	37.792	0.522
454.000	307.465	80.008	19.995	103.405	19.549	38.354	0.517
456.000	308.446	80.000	19.996	103.414	19.536	39.305	0.511
458.000	309.439	79.998	19.998	103.406	19.528	39.897	0.504
460.000	310.488	80.000	19.995	103.414	19.517	40.724	0.491
462.000	311.483	80.000	19.995	103.419	19.504	41.656	0.491
464.001	312.505	80.000	19.994	103.421	19.496	42.239	0.494
466.000	313.509	80.000	19.994	103.421	19.487	42.903	0.502
468.000	314.534	80.001	19.994	103.418	19.473	43.931	0.543
470.000	315.545	80.001	19.996	103.424	19.467	44.423	0.479
472.000	316.547	79.998	19.996	103.420	19.456	45.181	0.502
474.000	317.571	79.999	19.996	103.435	19.443	46.170	0.521
476.000	318.537	80.001	19.995	103.426	19.429	47.226	0.509
478.000	319.521	79.999	19.995	103.444	19.419	47.951	0.498
480.000	320.565	79.999	19.996	103.450	19.407	48.835	0.498
482.000	321.544	80.001	19.995	103.446	19.392	49.885	0.509
484.000	322.579	80.003	19.992	103.451	19.383	50.539	0.517
486.000	323.568	80.000	19.995	103.458	19.371	51.426	0.508
488.000	324.553	79.999	19.992	103.455	19.358	52.434	0.484
490.000	325.548	79.998	19.998	103.459	19.345	53.363	0.505
492.000	326.581	80.000	19.998	103.461	19.333	54.215	0.529
494.000	327.587	80.005	19.995	103.466	19.319	55.263	0.530
496.000	328.616	80.004	19.987	103.461	19.307	56.151	0.535
498.000	329.665	80.003	19.992	103.481	19.300	56.662	0.494
500.000	330.648	80.010	19.991	103.479	19.286	57.698	0.492
502.000	331.658	80.004	19.990	103.490	19.279	58.247	0.486
504.000	332.679	79.995	19.998	103.483	19.266	59.176	0.539
506.000	333.714	80.000	19.996	103.479	19.254	60.057	0.508
508.000	334.748	80.001	19.993	103.492	19.240	61.102	0.527
510.000	335.749	80.004	19.994	103.491	19.233	61.601	0.489
512.000	336.774	80.000	19.996	103.493	19.225	62.176	0.487
514.000	337.791	80.004	19.992	103.487	19.212	63.168	0.499
516.000	338.849	80.002	19.994	103.497	19.205	63.632	0.535
518.000	339.822	80.004	19.992	103.498	19.199	64.110	0.493
520.000	340.847	80.002	19.996	103.497	19.193	64.529	0.494
522.000	341.853	79.999	19.999	103.497	19.184	65.188	0.499
524.000	342.897	80.002	19.994	103.500	19.179	65.562	0.525
526.000	343.866	80.004	19.996	103.496	19.171	66.140	0.505
528.000	344.829	80.002	19.993	103.485	19.170	66.216	0.472
530.000	345.909	80.002	19.992	103.495	19.171	66.155	0.539
532.000	346.881	80.003	19.992	103.495	19.167	66.442	0.492
534.000	347.923	80.000	19.993	103.481	19.171	66.097	0.520
536.000	348.905	79.999	19.994	103.482	19.169	66.269	0.502
538.000	349.924	80.000	19.996	103.493	19.172	66.013	0.491
540.000	350.934	80.004	19.991	103.476	19.172	66.004	0.506
542.000	351.954	79.993	20.004	103.463	19.179	65.474	0.523
544.000	352.994	80.002	19.997	103.461	19.186	64.964	0.531
546.000	353.999	80.002	19.997	103.457	19.195	64.316	0.509
548.000	355.062	79.999	19.997	103.450	19.204	63.676	0.509
550.000	356.052	79.999	19.999	103.446	19.212	63.058	0.502
552.000	357.043	80.000	19.998	103.438	19.225	62.108	0.493
554.000	358.068	80.001	19.994	103.421	19.239	61.101	0.496
556.000	358.990	80.002	19.996	103.419	19.253	60.043	0.486
558.000	360.063	79.999	19.992	103.415	19.274	58.498	0.496
560.000	361.045	79.998	20.002	103.413	19.294	57.029	0.487
562.000	362.047	80.000	19.994	103.398	19.311	55.764	0.492
564.000	363.026	80.001	19.992	103.383	19.336	53.984	0.470
566.000	364.081	80.001	19.993	103.368	19.359	52.231	0.534
568.000	365.040	80.000	19.996	103.359	19.383	50.453	0.475
570.000	366.076	80.000	19.996	103.356	19.409	48.564	0.494
572.000	367.087	80.003	19.996	103.345	19.434	46.754	0.518
574.000	368.101	80.000	19.995	103.339	19.461	44.749	0.540
576.000	369.087	80.001	19.995	103.326	19.491	42.556	0.510
578.000	370.109	80.003	19.995	103.305	19.520	40.476	0.558
580.000	371.112	80.003	19.996	103.301	19.544	38.637	0.522
582.000	372.114	80.003	19.995	103.296	19.573	36.534	0.506
584.000	373.140	80.000	19.997	103.277	19.602	34.408	0.519
586.000	374.174	80.002	19.994	103.269	19.635	32.010	0.507
588.000	375.141	80.003	19.991	103.266	19.658	30.335	0.506
590.000	376.207	80.006	19.993	103.257	19.682	28.540	0.501
592.001	377.217	80.000	19.996	103.234	19.715	26.136	0.524
594.000	378.185	80.002	19.994	103.232	19.738	24.436	0.446
596.000	379.204	80.002	19.993	103.222	19.763	22.643	0.506
598.000	380.255	79.999	19.994	103.226	19.787	20.907	0.505
600.000	381.263	80.002	19.996	103.223	19.804	19.606	0.506
602.000	382.259	80.005	19.993	103.215	19.820	18.466	0.496
604.000	383.298	79.999	19.992	103.222	19.839	17.078	0.539
606.000	384.274	80.005	19.994	103.216	19.853	16.060	0.497
608.000	385.296	79.999	19.997	103.202	19.869	14.892	0.499
610.000	386.316	79.997	19.999	103.205	19.880	14.079	0.510
612.000	387.342	80.002	19.999	103.212	19.891	13.234	0.523
614.000	388.376	80.003	19.995	103.211	19.898	12.768	0.510
616.000	389.384	79.997	19.994	103.210	19.911	11.833	0.502
618.000	390.386	79.994	20.000	103.198	19.919	11.227	0.517
620.000	391.478	79.997	19.996	103.204	19.922	10.963	0.530
622.000	392.494	80.004	19.994	103.203	19.926	10.682	0.479
624.000	393.526	79.999	19.997	103.194	19.932	10.299	0.512
626.000	394.576	79.998	19.993	103.206	19.936	9.988	0.498
628.000	395.587	79.999	19.994	103.207	19.941	9.591	0.511
630.000	396.658	79.996	19.996	103.198	19.945	9.343	0.533
632.000	397.661	80.004	19.995	103.193	19.947	9.195	0.477
634.000	398.680	80.000	19.996	103.198	19.948	9.089	0.488
636.000	399.680	79.998	19.998	103.195	19.951	8.897	0.509
638.000	400.717	79.998	20.001	103.197	19.949	9.041	0.523
640.000	401.751	79.999	19.996	103.196	19.954	8.624	0.539
642.000	402.792	79.999	19.991	103.205	19.953	8.744	0.522
644.000	403.819	79.998	19.994	103.200	19.955	8.598	0.491
646.000	404.859	79.996	19.998	103.190	19.958	8.356	0.533
648.000	405.872	80.009	19.987	103.203	19.962	8.065	0.527
650.000	406.855	79.997	19.996	103.208	19.963	8.027	0.490
652.000	407.909	79.999	19.997	103.204	19.962	8.041	0.521
654.000	408.898	80.005	19.993	103.210	19.965	7.825	0.516
656.000	409.919	80.004	19.992	103.202	19.962	8.070	0.483
658.000	411.007	80.000	19.990	103.206	19.963	8.007	0.568
660.000	411.969	80.003	19.995	103.193	19.967	7.673	0.481
662.000	412.999	80.002	19.997	103.185	19.962	8.063	0.489
664.000	414.006	79.997	19.995	103.185	19.968	7.601	0.507
666.000	414.980	79.996	20.001	103.188	19.970	7.509	0.508
668.000	416.011	79.999	20.002	103.191	19.968	7.656	0.516
670.000	416.983	80.001	19.994	103.205	19.971	7.430	0.483
672.000	418.011	80.000	19.993	103.193	19.972	7.367	0.483
674.000	419.071	79.998	19.996	103.184	19.972	7.364	0.518
676.000	420.020	80.001	19.992	103.189	19.970	7.460	0.484
678.000	421.042	79.999	19.998	103.184	19.978	6.869	0.502
680.000	422.057	80.005	19.989	103.193	19.975	7.112	0.510
682.000	423.031	80.001	19.996	103.191	19.970	7.514	0.477
684.000	424.030	80.004	19.995	103.186	19.974	7.188	0.496
686.000	425.006	80.003	19.995	103.184	19.977	6.953	0.496
688.000	425.996	80.004	19.994	103.187	19.974	7.222	0.468
690.000	427.019	80.002	19.990	103.184	19.974	7.157	0.482
692.000	428.035	80.008	19.995	103.189	19.975	7.151	0.531
694.000	429.065	80.000	19.991	103.190	19.978	6.895	0.514
696.000	430.016	80.002	19.994	103.187	19.975	7.092	0.487
698.000	431.005	80.003	19.996	103.185	19.978	6.870	0.485
700.000	431.997	80.001	19.995	103.185	19.978	6.914	0.516
702.000	433.001	79.999	19.992	103.186	19.979	6.799	0.494
704.000	434.037	79.998	19.997	103.192	19.980	6.766	0.539
706.000	435.045	79.999	19.994	103.198	19.978	6.915	0.482
708.000	436.067	80.002	19.993	103.197	19.979	6.789	0.520
710.000	437.041	80.001	19.995	103.194	19.984	6.438	0.481
712.000	438.102	79.996	19.994	103.189	19.983	6.508	0.505
714.000	439.118	80.005	19.995	103.188	19.983	6.521	0.481
716.000	440.118	80.001	19.998	103.191	19.987	6.218	0.511
718.000	441.180	80.002	19.994	103.200	19.987	6.238	0.551
720.000	442.177	80.001	19.994	103.197	19.986	6.334	0.502
722.000	443.158	79.997	20.004	103.197	19.985	6.354	0.461
724.000	444.267	79.999	19.993	103.199	19.985	6.364	0.557
726.000	445.307	79.997	19.995	103.190	19.987	6.203	0.534
728.000	446.358	80.000	19.999	103.187	19.988	6.197	0.556
730.000	447.406	80.005	19.991	103.187	19.991	5.944	0.530
732.000	448.412	80.000	19.995	103.186	19.990	6.004	0.524
734.000	449.459	80.000	20.000	103.184	19.989	6.067	0.536
736.000	450.521	80.003	19.996	103.185	19.989	6.073	0.552
738.000	451.543	80.005	19.992	103.188	19.995	5.619	0.530
740.000	452.569	80.002	19.996	103.185	19.992	5.867	0.534
742.000	453.614	80.004	19.994	103.184	19.992	5.841	0.534
744.000	454.634	80.001	19.997	103.183	19.995	5.649	0.507
746.000	455.689	80.001	19.995	103.183	19.998	5.454	0.511
748.000	456.720	80.002	19.994	103.185	19.998	5.407	0.520
750.000	457.761	80.000	19.992	103.187	19.998	5.456	0.546
752.000	458.801	79.998	20.000	103.184	19.997	5.474	0.531
754.000	459.864	80.004	19.992	103.185	20.001	5.207	0.513
756.000	460.861	80.001	19.991	103.190	20.003	5.095	0.496
758.000	461.935	79.997	19.997	103.192	20.003	5.099	0.525
760.000	462.973	80.002	19.994	103.187	20.003	5.081	0.499
762.000	464.010	80.004	19.995	103.188	20.000	5.319	0.515
764.000	464.984	80.004	19.994	103.185	20.000	5.296	0.517
766.000	466.033	80.004	19.990	103.181	20.000	5.301	0.537
768.000	467.094	80.004	19.995	103.180	20.001	5.229	0.531
770.000	468.165	80.007	19.997	103.179	20.003	5.032	0.541
772.000	469.146	80.002	19.995	103.180	20.002	5.143	0.495
774.001	470.215	80.001	19.996	103.177	20.005	4.922	0.551
776.000	471.206	80.004	19.988	103.186	20.007	4.748	0.541
778.000	472.225	79.996	19.996	103.179	20.010	4.561	0.512
780.000	473.272	80.001	19.993	103.181	20.009	4.628	0.522
782.000	474.302	80.000	19.996	103.183	20.011	4.449	0.548
784.000	475.328	79.997	19.996	103.181	20.015	4.172	0.515
786.000	476.334	79.995	19.992	103.178	20.013	4.359	0.516
788.000	477.327	80.000	19.994	103.176	20.017	4.078	0.501
790.000	478.329	79.997	19.996	103.184	20.015	4.210	0.509
792.000	479.382	79.999	19.992	103.176	20.016	4.149	0.529
794.000	480.370	79.997	19.995	103.178	20.017	4.044	0.513
796.000	481.355	80.005	19.994	103.175	20.016	4.109	0.507
798.000	482.381	80.001	19.994	103.179	20.015	4.182	0.509
800.000	483.394	79.999	19.993	103.166	20.019	3.893	0.519
802.000	484.329	79.998	19.996	103.177	20.017	4.058	0.490
804.000	485.311	80.001	19.994	103.183	20.018	3.966	0.458
806.000	486.301	80.005	19.991	103.182	20.020	3.834	0.504
808.000	487.339	80.001	19.995	103.183	20.018	3.950	0.502
810.000	488.311	79.998	19.994	103.186	20.021	3.768	0.477
812.000	489.259	80.000	19.996	103.182	20.019	3.891	0.483
814.000	490.289	79.998	19.999	103.182	20.019	3.921	0.478
816.000	491.278	80.000	19.991	103.174	20.018	4.001	0.501
818.000	492.281	80.004	19.994	103.179	20.022	3.701	0.517
820.000	493.269	80.002	19.996	103.172	20.019	3.891	0.495
822.000	494.293	79.994	20.004	103.174	20.020	3.861	0.500
824.000	495.290	79.997	19.998	103.175	20.021	3.761	0.517
826.000	496.251	79.995	19.998	103.175	20.022	3.648	0.487
828.000	497.262	80.000	19.999	103.180	20.018	3.938	0.473
830.000	498.288	80.001	19.996	103.171	20.023	3.600	0.533
832.000	499.277	80.000	19.994	103.186	20.022	3.683	0.494
834.000	500.295	80.000	19.989	103.190	20.023	3.579	0.517
836.000	501.331	80.003	19.993	103.181	20.022	3.671	0.516
838.000	502.304	79.998	19.994	103.181	20.023	3.583	0.483
840.000	503.286	80.000	19.996	103.185	20.028	3.251	0.482
842.000	504.350	79.998	19.996	103.186	20.027	3.345	0.486
844.000	505.317	80.000	19.994	103.183	20.029	3.155	0.527
846.000	506.338	80.000	19.993	103.190	20.026	3.349	0.482
848.000	507.349	80.001	19.995	103.186	20.027	3.312	0.517
850.000	508.329	79.999	19.996	103.186	20.027	3.310	0.477
852.000	509.396	80.008	19.991	103.182	20.022	3.699	0.491
854.000	510.399	80.005	19.994	103.184	20.024	3.510	0.501
856.000	511.452	80.003	19.994	103.171	20.021	3.740	0.529
858.001	512.451	80.003	19.994	103.174	20.021	3.715	0.491
860.000	513.430	80.001	19.997	103.181	20.020	3.797	0.511
862.000	514.469	79.999	19.994	103.181	20.025	3.443	0.513
864.000	515.474	80.000	19.995	103.181	20.025	3.469	0.498
866.000	516.517	80.000	19.992	103.185	20.023	3.589	0.521
868.000	517.568	80.000	19.999	103.171	20.025	3.481	0.531
870.000	518.609	80.004	19.993	103.179	20.028	3.255	0.532
872.000	519.625	80.001	19.995	103.181	20.024	3.508	0.525
874.000	520.695	80.005	19.993	103.175	20.031	3.009	0.535
876.000	521.755	80.004	19.992	103.180	20.028	3.216	0.557
878.000	522.833	80.004	19.992	103.182	20.028	3.214	0.529
880.000	523.856	79.998	19.994	103.173	20.030	3.086	0.525
882.000	524.935	79.997	19.995	103.174	20.030	3.107	0.527
884.000	526.012	80.001	19.993	103.178	20.032	2.919	0.514
886.000	527.040	80.001	19.996	103.182	20.030	3.090	0.520
888.000	528.151	80.000	19.995	103.174	20.028	3.202	0.583
890.000	529.186	79.999	19.999	103.175	20.027	3.288	0.514
892.000	530.281	80.002	19.996	103.181	20.029	3.196	0.548
894.000	531.307	79.996	19.994	103.177	20.033	2.846	0.502
896.000	532.362	79.993	20.002	103.171	20.031	3.031	0.499
898.000	533.379	80.002	19.992	103.169	20.029	3.176	0.542
900.000	534.467	79.994	20.003	103.183	20.034	2.827	0.527
902.000	535.526	79.999	19.993	103.173	20.035	2.725	0.534
904.000	536.556	80.002	19.995	103.181	20.030	3.126	0.503
906.000	537.577	80.001	19.996	103.175	20.033	2.862	0.525
908.000	538.652	80.000	19.995	103.176	20.031	3.029	0.544
910.000	539.675	79.999	19.994	103.184	20.031	3.000	0.549
912.000	540.744	80.002	19.992	103.178	20.029	3.139	0.483
914.000	541.778	80.004	19.997	103.171	20.021	3.736	0.517
916.000	542.792	80.003	19.996	103.162	20.019	3.893	0.524
918.000	543.841	79.995	19.991	103.181	20.023	3.599	0.480
920.000	544.876	80.005	19.996	103.174	20.031	3.005	0.559
922.000	545.836	80.003	19.994	103.168	20.038	2.499	0.456
924.000	546.744	80.004	19.991	103.160	20.031	3.027	0.425
926.000	547.753	80.002	19.996	103.169	20.033	2.888	0.379
928.000	548.640	80.006	19.993	103.172	20.032	2.921	0.174
930.000	549.399	80.006	19.993	103.175	20.031	3.013	-0.066
932.000	550.643	80.002	19.992	103.161	20.035	2.740	0.707
934.000	552.000	80.003	19.995	103.173	20.035	2.732	0.477
936.000	553.258	80.004	19.992	103.177	20.037	2.587	0.620
938.000	554.134	79.999	19.997	103.171	20.035	2.719	0.562
940.000	555.169	80.005	19.993	103.167	20.036	2.654	0.500
942.000	556.240	79.999	19.991	103.176	20.035	2.747	0.489
944.000	557.248	80.000	19.992	103.182	20.034	2.831	0.526
946.000	558.258	79.999	19.996	103.175	20.034	2.786	0.520
948.000	559.281	80.001	19.993	103.169	20.036	2.670	0.497
950.000	560.287	79.999	20.001	103.169	20.033	2.839	0.463
952.000	561.349	80.000	19.998	103.163	20.033	2.869	0.488
954.000	562.348	80.003	19.991	103.165	20.031	3.016	0.507
956.000	563.314	79.999	19.992	103.165	20.036	2.644	0.463
958.000	564.335	80.002	19.991	103.164	20.034	2.811	0.483
960.000	565.371	80.001	19.998	103.153	20.036	2.650	0.543
962.000	566.384	80.001	19.996	103.157	20.033	2.864	0.499
964.000	567.410	80.002	19.992	103.150	20.036	2.681	0.483
966.000	568.417	80.001	19.996	103.155	20.034	2.766	0.531
968.000	569.407	80.002	19.995	103.167	20.036	2.664	0.516
970.000	570.461	80.001	19.996	103.173	20.033	2.884	0.514
972.000	571.413	79.998	19.994	103.159	20.034	2.803	0.499
974.000	572.528	80.001	19.994	103.173	20.034	2.835	0.531
976.000	573.558	79.995	19.998	103.167	20.036	2.649	0.522
978.000	574.601	80.001	19.996	103.160	20.032	2.912	0.525
980.000	575.627	79.995	19.999	103.160	20.037	2.605	0.492
982.000	576.617	80.004	19.996	103.165	20.035	2.707	0.506
984.000	577.633	80.003	19.994	103.158	20.036	2.636	0.480
986.000	578.636	80.003	19.996	103.147	20.035	2.740	0.501
988.000	579.674	80.002	19.997	103.147	20.035	2.740	0.512
990.000	580.718	80.002	19.996	103.154	20.038	2.532	0.564
992.000	581.748	80.003	19.996	103.168	20.032	2.935	0.505
994.000	582.730	80.000	19.996	103.170	20.034	2.793	0.491
996.001	583.769	80.001	19.995	103.162	20.040	2.395	0.491
998.000	584.770	79.996	20.003	103.176	20.034	2.782	0.482
1000.000	585.806	80.000	19.997	103.175	20.034	2.778	0.530
1002.000	586.826	80.003	19.994	103.152	20.035	2.690	0.500
1004.000	587.833	80.002	19.997	103.170	20.038	2.501	0.502
1006.000	588.859	80.002	19.992	103.167	20.036	2.624	0.521
1008.000	589.882	79.998	19.998	103.145	20.035	2.746	0.546
1010.000	590.901	80.006	19.992	103.147	20.036	2.636	0.509
1012.000	591.899	80.005	19.992	103.150	20.038	2.536	0.527
1014.000	592.929	79.999	19.996	103.147	20.036	2.680	0.508
1016.000	593.966	80.003	19.996	103.158	20.034	2.795	0.536
1018.000	594.977	80.003	19.996	103.175	20.037	2.615	0.508
1020.001	596.052	80.003	19.996	103.162	20.036	2.685	0.522
1022.000	597.082	80.001	19.997	103.159	20.031	3.001	0.511
1024.000	598.124	80.002	19.992	103.167	20.031	3.013	0.520
1026.000	599.201	79.998	19.997	103.164	20.034	2.774	0.537
1028.000	600.262	80.001	19.996	103.173	20.035	2.758	0.533
1030.000	601.328	79.996	19.992	103.171	20.033	2.892	0.525
1032.000	602.401	80.000	19.995	103.173	20.034	2.790	0.534
1034.001	603.439	80.001	19.996	103.178	20.035	2.709	0.528
1036.001	604.489	80.000	19.997	103.159	20.036	2.617	0.516
1038.000	605.527	79.998	19.994	103.161	20.032	2.982	0.540
1040.000	606.623	80.000	19.996	103.161	20.037	2.595	0.537
1042.000	607.669	80.004	19.994	103.160	20.031	3.008	0.562
1044.000	608.706	79.998	19.996	103.166	20.034	2.827	0.537
1046.000	609.834	80.001	19.992	103.148	20.038	2.535	0.556
1048.000	610.889	80.001	19.996	103.161	20.035	2.711	0.513
1050.000	611.941	80.003	19.992	103.163	20.032	2.959	0.517
1052.000	613.017	80.002	19.993	103.154	20.036	2.627	0.528
1054.000	614.099	79.998	19.990	103.165	20.037	2.601	0.571
1056.000	615.115	80.001	19.993	103.155	20.033	2.878	0.507
1058.000	616.195	80.004	19.993	103.151	20.036	2.684	0.539
1060.000	617.275	80.005	19.996	103.149	20.033	2.851	0.562
1062.000	618.324	79.996	19.994	103.150	20.034	2.823	0.522
1064.000	619.350	80.000	19.994	103.163	20.037	2.615	0.520
1066.001	620.423	80.000	19.997	103.155	20.035	2.701	0.542
1068.000	621.496	80.003	19.997	103.157	20.035	2.713	0.529
1070.001	622.470	79.999	19.995	103.156	20.034	2.778	0.487
1072.000	623.501	80.006	19.993	103.150	20.037	2.611	0.518
1074.000	624.568	79.999	19.997	103.170	20.036	2.629	0.530
1076.001	625.604	79.999	19.993	103.156	20.037	2.607	0.551
1078.001	626.657	80.001	19.995	103.158	20.038	2.487	0.536
1080.000	627.678	80.001	19.989	103.151	20.035	2.713	0.504
1082.000	628.707	79.999	19.995	103.150	20.037	2.572	0.512
1084.001	629.754	80.005	19.989	103.147	20.035	2.719	0.487
1086.000	630.761	80.002	19.995	103.152	20.033	2.880	0.511
1088.000	631.803	80.001	19.994	103.156	20.035	2.717	0.515
1090.000	632.827	80.002	19.997	103.156	20.033	2.904	0.492
1092.000	633.838	80.001	19.991	103.161	20.035	2.759	0.497
1094.000	634.873	79.998	20.003	103.150	20.035	2.694	0.517
1096.000	635.920	80.000	19.995	103.145	20.033	2.890	0.505
1098.001	636.982	80.006	19.993	103.151	20.032	2.939	0.533
1100.000	637.986	80.006	19.991	103.151	20.035	2.725	0.530
1102.000	639.015	80.000	19.994	103.150	20.032	2.926	0.521
1104.001	640.025	80.000	19.995	103.151	20.033	2.843	0.505
1106.000	641.034	79.997	19.994	103.160	20.040	2.395	0.500
1108.000	642.065	80.001	19.995	103.151	20.039	2.452	0.518
1110.000	643.113	79.999	19.995	103.150	20.035	2.694	0.514
1112.000	644.081	80.000	19.997	103.150	20.035	2.696	0.504
1114.000	645.131	80.002	19.995	103.154	20.036	2.641	0.507
1116.000	646.112	80.001	19.995	103.152	20.037	2.545	0.507
1118.001	647.086	80.001	19.994	103.147	20.037	2.543	0.496
1120.000	648.151	80.002	19.994	103.147	20.040	2.379	0.491
1122.001	649.156	79.999	19.997	103.149	20.035	2.725	0.506
1124.000	650.211	80.001	19.996	103.151	20.037	2.558	0.527
1126.001	651.205	80.000	19.995	103.142	20.038	2.497	0.541
1128.001	652.213	79.999	19.995	103.145	20.037	2.584	0.484
1130.000	653.219	80.000	19.995	103.146	20.034	2.825	0.484
1132.001	654.208	80.000	19.996	103.146	20.036	2.678	0.512
1134.000	655.287	80.002	19.995	103.145	20.038	2.497	0.540
1136.001	656.233	79.999	19.995	103.147	20.038	2.519	0.493
1138.000	657.243	80.000	19.995	103.148	20.034	2.784	0.506
1140.000	658.253	79.998	19.997	103.151	20.039	2.438	0.515
1142.001	659.241	80.000	19.994	103.147	20.026	3.369	0.521
1144.000	660.245	80.001	19.995	103.152	20.035	2.727	0.485
1146.000	661.235	80.000	19.994	103.148	20.036	2.639	0.526
1148.000	662.262	80.002	19.995	103.146	20.035	2.755	0.523
1150.000	663.265	80.004	19.994	103.147	20.039	2.415	0.480
1152.000	664.190	80.000	19.992	103.157	20.037	2.607	0.477
1154.001	665.234	80.001	19.997	103.157	20.038	2.491	0.499
1156.000	665.835	80.001	19.994	103.154	20.038	2.493	0.335
1158.000	667.159	80.003	19.994	103.147	20.036	2.649	0.559
1160.000	668.142	80.000	19.995	103.155	20.038	2.493	0.509
1162.000	669.185	80.000	19.992	103.154	20.033	2.849	0.514
1164.001	670.197	80.004	19.994	103.149	20.035	2.704	0.519
1166.001	671.177	80.003	19.995	103.157	20.038	2.501	0.487
1168.001	672.214	79.997	19.997	103.150	20.034	2.820	0.506
1170.000	673.229	79.999	19.996	103.151	20.037	2.562	0.508
1172.000	674.234	80.002	19.994	103.156	20.035	2.700	0.559
1174.000	675.332	80.002	19.995	103.149	20.036	2.645	0.479
1176.000	676.299	80.004	19.994	103.147	20.035	2.700	0.579
1178.001	677.426	79.997	20.000	103.146	20.036	2.662	0.994
1180.000	678.337	80.002	19.996	103.142	20.038	2.509	0.322
1182.001	679.397	80.000	19.994	103.143	20.038	2.505	0.570
1184.000	680.439	80.002	19.995	103.152	20.038	2.511	0.512
1186.000	681.392	79.999	19.997	103.144	20.035	2.729	0.502
1188.000	682.431	80.000	19.997	103.148	20.036	2.625	0.530
1190.000	683.417	80.000	19.996	103.146	20.035	2.713	0.476
1192.001	684.428	80.000	19.997	103.148	20.033	2.900	0.517
1194.000	685.473	79.999	19.996	103.144	20.032	2.932	0.515
1196.000	686.470	80.000	19.997	103.142	20.035	2.698	0.521
1198.000	687.453	80.000	19.996	103.144	20.036	2.664	0.497
1200.000	688.469	80.002	19.997	103.147	20.033	2.894	0.522
1202.001	689.436	80.003	19.996	103.149	20.036	2.680	0.520
1204.000	690.415	80.002	19.994	103.143	20.034	2.770	0.480
1206.001	691.403	80.001	19.994	103.144	20.034	2.774	0.507
1208.000	692.415	80.001	19.994	103.144	20.032	2.912	0.473
1210.000	693.404	80.001	19.996	103.146	20.036	2.678	0.502
1212.000	694.449	80.002	19.996	103.145	20.035	2.708	0.506
1214.000	695.407	80.001	19.994	103.146	20.033	2.853	0.476
1216.001	696.452	80.000	19.995	103.147	20.033	2.859	0.513
1218.001	697.455	80.000	19.994	103.148	20.033	2.857	0.495
1220.000	698.480	79.998	19.994	103.147	20.032	2.912	0.543
1222.001	699.453	80.001	19.994	103.147	20.032	2.971	0.491
1224.001	700.444	80.001	19.995	103.148	20.031	3.028	0.500
1226.000	701.431	80.001	19.995	103.147	20.034	2.778	0.513
1228.001	702.519	80.000	19.995	103.148	20.033	2.847	0.561
1230.000	703.460	80.002	19.995	103.146	20.037	2.595	0.481
1232.000	704.471	80.002	19.995	103.147	20.036	2.647	0.524
1234.000	705.485	80.001	19.994	103.147	20.035	2.696	0.486
1236.000	706.484	80.002	19.994	103.148	20.033	2.898	0.492
1238.000	707.468	80.004	19.995	103.146	20.031	3.012	0.487
1240.000	708.446	80.002	19.994	103.154	20.034	2.835	0.525
1242.000	709.516	80.001	19.994	103.154	20.035	2.700	0.514
1244.000	710.521	80.001	19.995	103.148	20.037	2.602	0.532
1246.000	711.562	80.000	19.994	103.153	20.035	2.737	0.485
1248.001	712.563	80.002	19.994	103.151	20.037	2.547	0.487
1250.000	713.587	80.002	19.995	103.154	20.033	2.881	0.490
1252.000	714.601	80.003	19.994	103.148	20.035	2.690	0.553
1254.000	715.632	80.002	19.995	103.142	20.033	2.855	0.532
1256.001	716.674	80.003	19.996	103.147	20.033	2.847	0.502
1258.000	717.648	80.003	19.995	103.147	20.030	3.069	0.489
1260.000	718.661	80.003	19.996	103.141	20.033	2.896	0.504
1262.000	719.681	80.002	19.994	103.142	20.037	2.564	0.505
1264.000	720.716	80.002	19.994	103.142	20.034	2.790	0.509
1266.000	721.696	80.001	19.995	103.136	20.035	2.696	0.501
1268.001	722.688	80.001	19.995	103.143	20.033	2.841	0.486
1270.001	723.705	80.000	19.997	103.143	20.035	2.700	0.521
1272.000	724.728	80.001	19.996	103.145	20.037	2.586	0.517
1274.000	725.711	80.000	19.995	103.147	20.037	2.576	0.514
1276.000	726.708	80.000	19.994	103.139	20.037	2.554	0.499
1278.000	727.697	80.000	19.995	103.139	20.036	2.658	0.461
1280.000	728.699	80.000	19.996	103.147	20.034	2.806	0.488
1282.000	729.691	79.998	19.996	103.147	20.036	2.688	0.506
1284.000	730.727	79.999	19.995	103.145	20.033	2.851	0.482
1286.000	731.786	80.000	19.996	103.143	20.034	2.778	0.493
1288.000	732.779	79.999	19.997	103.147	20.034	2.818	0.498
1290.000	733.753	80.001	19.996	103.148	20.032	2.973	0.489
1292.000	734.815	80.001	19.995	103.145	20.036	2.678	0.500
1294.001	735.811	80.000	19.996	103.146	20.034	2.831	0.514
1296.000	736.813	80.000	19.996	103.148	20.034	2.823	0.504
1298.000	737.773	80.000	19.995	103.149	20.032	2.961	0.483
1300.000	738.789	80.000	19.994	103.149	20.036	2.645	0.487
1302.000	739.762	79.999	19.993	103.151	20.033	2.841	0.509
1304.000	740.792	80.000	19.995	103.148	20.035	2.727	0.490
1306.000	741.796	80.001	19.995	103.148	20.032	2.979	0.528
1308.000	742.845	80.001	19.993	103.146	20.032	2.914	0.499
1309.501	743.584	80.001	19.993	103.145	20.030	3.087	0.496