File: 01_Data/Alpha_OSB/MCC/Alpha_OSB_MCC_30K_min_211206_R3.txt
Sample ID:	C:\MCC\MCC Cal\Test\Alpha_OSB_MCC_30K_min_211206_R3.txt
Sample Weight (mg):	4.32
Heating Rate (C/s):	0.5
Combustor Temp (C):	900
N2 Flow Rate (cc/min):	80
O2 Flow Rate (cc/min):	20
Calibration File:	C:\MCC\MCC Cal\Coeff1 JN10440_30_210304.txt.txt
T Correction Coefficients:	0	1.024463	0
Time Shift (s):	14
*
Time (s)	Temperature (C)	N2 flow rate (cc/min)	O2 flow rate (cc/min)	Flow Rate (cc/min)	Oxygen (%)	HRR (W/g)	Heating rate (C/s)
0.000	110.905	79.997	19.995	103.068	20.099	-0.415	-0.002
2.000	110.908	80.007	19.998	103.073	20.095	-0.100	0.003
4.000	110.899	80.002	19.997	103.070	20.087	0.489	-0.004
6.001	110.887	80.001	19.996	103.069	20.096	-0.172	-0.028
8.000	110.883	80.003	19.994	103.069	20.091	0.178	0.012
10.000	110.859	79.991	19.996	103.073	20.090	0.268	-0.035
12.000	110.895	80.004	19.994	103.093	20.089	0.324	0.014
14.000	110.891	80.006	19.993	103.117	20.083	0.787	0.031
16.001	110.897	80.002	19.994	103.117	20.080	0.998	0.015
18.000	110.866	79.988	19.995	103.130	20.079	1.040	-0.038
20.000	110.943	80.006	19.997	103.136	20.080	0.975	0.035
22.000	111.029	79.991	19.995	103.169	20.072	1.590	0.052
24.000	111.122	80.010	19.993	103.209	20.071	1.643	0.037
26.000	111.223	80.007	19.995	103.213	20.070	1.701	0.056
28.000	111.392	79.998	19.995	103.217	20.071	1.650	0.048
30.001	111.459	80.022	19.992	103.199	20.071	1.663	0.051
32.000	111.665	80.003	19.995	103.203	20.068	1.883	0.109
34.001	111.886	80.004	19.995	103.188	20.073	1.472	0.140
36.000	112.055	80.004	19.994	103.166	20.072	1.582	0.071
38.000	112.267	79.999	19.996	103.197	20.071	1.651	0.105
40.001	112.539	80.002	19.995	103.235	20.063	2.251	0.151
42.000	112.783	79.997	19.995	103.238	20.060	2.448	0.106
44.000	113.029	80.006	19.994	103.232	20.056	2.764	0.143
46.001	113.359	80.001	19.995	103.266	20.058	2.652	0.139
48.001	113.674	80.002	19.994	103.254	20.053	3.001	0.178
50.000	114.056	79.996	19.994	103.271	20.057	2.688	0.169
52.000	114.433	80.003	19.994	103.276	20.051	3.166	0.191
54.000	114.773	80.001	19.995	103.279	20.054	2.906	0.175
56.000	115.201	79.987	19.996	103.295	20.050	3.222	0.180
58.000	115.627	79.990	19.996	103.290	20.051	3.145	0.191
60.000	116.105	80.003	19.994	103.298	20.048	3.376	0.291
62.000	116.639	80.000	19.996	103.303	20.048	3.351	0.277
64.000	117.195	79.995	19.996	103.301	20.045	3.596	0.268
66.000	117.712	79.999	19.995	103.301	20.045	3.615	0.270
68.000	118.285	79.997	19.996	103.307	20.043	3.725	0.308
70.001	118.863	79.998	19.995	103.309	20.044	3.638	0.293
72.000	119.461	80.017	19.993	103.317	20.045	3.581	0.281
74.001	120.046	80.000	19.996	103.309	20.043	3.746	0.286
76.000	120.688	79.999	19.995	103.309	20.044	3.679	0.307
78.000	121.355	80.001	19.994	103.316	20.041	3.905	0.324
80.000	122.015	80.001	19.994	103.310	20.045	3.592	0.341
82.000	122.680	79.999	19.995	103.313	20.043	3.733	0.353
84.000	123.398	79.987	19.997	103.312	20.044	3.704	0.373
86.000	124.112	80.007	19.995	103.309	20.044	3.680	0.374
88.000	124.796	79.989	19.996	103.310	20.046	3.557	0.341
90.000	125.500	80.008	19.997	103.316	20.042	3.844	0.328
92.000	126.301	79.984	19.997	103.320	20.044	3.663	0.401
94.001	127.041	79.993	19.997	103.321	20.044	3.655	0.378
96.000	127.841	79.999	19.995	103.312	20.043	3.734	0.372
98.000	128.629	79.997	19.996	103.327	20.043	3.761	0.376
100.000	129.481	80.000	19.996	103.330	20.046	3.545	0.442
102.000	130.244	79.999	19.996	103.336	20.046	3.522	0.383
104.000	131.071	80.000	19.994	103.337	20.044	3.667	0.415
106.000	131.924	79.996	19.997	103.340	20.042	3.803	0.424
108.000	132.757	80.000	19.995	103.335	20.044	3.699	0.422
110.001	133.653	80.000	19.993	103.335	20.041	3.921	0.449
112.000	134.523	79.999	19.995	103.335	20.041	3.888	0.444
114.000	135.401	80.003	19.995	103.331	20.045	3.636	0.441
116.000	136.264	80.004	19.994	103.334	20.048	3.412	0.460
118.000	137.148	80.001	19.994	103.334	20.043	3.767	0.470
120.000	138.048	79.999	19.994	103.331	20.046	3.503	0.461
122.001	138.911	80.003	19.994	103.319	20.041	3.885	0.442
124.000	139.836	80.006	19.995	103.342	20.043	3.724	0.456
126.001	140.809	79.996	19.995	103.330	20.041	3.869	0.479
128.001	141.736	79.994	19.995	103.323	20.042	3.815	0.468
130.000	142.640	80.009	19.993	103.338	20.043	3.781	0.468
132.000	143.637	80.000	19.995	103.327	20.039	4.018	0.466
134.000	144.589	80.003	19.995	103.336	20.043	3.752	0.484
136.000	145.542	79.994	19.995	103.329	20.042	3.808	0.488
138.001	146.497	80.006	19.994	103.317	20.043	3.763	0.509
140.000	147.465	79.996	19.995	103.323	20.044	3.683	0.471
142.000	148.425	80.007	19.994	103.319	20.043	3.731	0.473
144.000	149.439	79.995	19.995	103.326	20.045	3.600	0.511
146.000	150.365	79.986	19.995	103.314	20.042	3.810	0.485
148.000	151.378	80.007	19.995	103.328	20.041	3.891	0.513
150.000	152.401	79.997	19.994	103.312	20.044	3.658	0.492
152.000	153.345	80.000	19.995	103.305	20.041	3.926	0.517
154.001	154.336	80.000	19.993	103.295	20.038	4.123	0.508
156.000	155.286	79.998	19.995	103.323	20.038	4.088	0.448
158.000	156.314	80.002	19.995	103.313	20.038	4.113	0.495
160.000	157.286	79.993	19.997	103.318	20.042	3.841	0.505
162.000	158.250	79.973	19.998	103.296	20.040	3.993	0.477
164.000	159.283	80.005	19.994	103.297	20.040	3.978	0.485
166.000	160.295	79.999	19.995	103.293	20.038	4.088	0.523
168.000	161.248	79.991	19.996	103.294	20.040	3.947	0.457
170.000	162.240	80.005	19.994	103.303	20.035	4.342	0.477
172.001	163.285	80.001	19.995	103.305	20.034	4.456	0.528
174.000	164.257	80.008	19.994	103.301	20.037	4.227	0.503
176.000	165.266	80.004	19.995	103.309	20.036	4.239	0.475
178.000	166.314	80.002	19.995	103.300	20.034	4.449	0.505
180.000	167.315	80.005	19.994	103.302	20.037	4.194	0.531
182.000	168.325	79.996	19.994	103.302	20.034	4.397	0.502
184.000	169.290	79.997	19.996	103.298	20.036	4.264	0.506
186.000	170.266	79.990	19.998	103.295	20.035	4.379	0.478
188.000	171.277	80.000	19.995	103.297	20.029	4.760	0.508
190.000	172.268	80.002	19.996	103.299	20.035	4.345	0.501
192.000	173.271	80.000	19.995	103.293	20.031	4.628	0.519
194.000	174.333	80.014	19.994	103.291	20.031	4.634	0.542
196.001	175.275	80.000	19.994	103.296	20.034	4.382	0.477
198.000	176.289	80.003	19.995	103.296	20.035	4.330	0.500
200.000	177.257	80.005	19.994	103.280	20.034	4.432	0.504
202.000	178.293	80.003	19.994	103.301	20.032	4.575	0.484
204.000	179.321	80.019	19.993	103.289	20.031	4.607	0.497
206.001	180.311	79.987	19.997	103.296	20.033	4.498	0.506
208.000	181.338	80.005	19.993	103.291	20.033	4.460	0.530
210.000	182.343	80.000	19.995	103.281	20.035	4.323	0.494
212.000	183.303	80.012	19.994	103.272	20.030	4.722	0.498
214.000	184.326	79.995	19.996	103.276	20.034	4.421	0.492
216.000	185.284	79.980	19.998	103.287	20.030	4.685	0.466
218.000	186.360	79.998	19.995	103.270	20.032	4.558	0.510
220.001	187.342	80.001	19.995	103.263	20.030	4.730	0.472
222.000	188.399	79.999	19.993	103.271	20.032	4.563	0.532
224.000	189.348	80.005	19.993	103.268	20.032	4.554	0.503
226.000	190.341	80.010	19.994	103.272	20.033	4.529	0.502
228.001	191.324	80.007	19.994	103.270	20.032	4.573	0.489
230.000	192.327	80.009	19.994	103.255	20.032	4.592	0.503
232.000	193.355	80.018	19.992	103.276	20.029	4.823	0.492
234.001	194.376	79.993	19.994	103.273	20.029	4.805	0.481
236.000	195.365	79.997	19.995	103.270	20.030	4.694	0.529
238.000	196.377	80.002	19.994	103.272	20.032	4.598	0.522
240.000	197.385	79.993	19.994	103.274	20.028	4.868	0.516
242.000	198.356	79.979	19.996	103.286	20.031	4.660	0.481
244.000	199.278	79.994	19.996	103.278	20.027	4.944	0.453
246.001	200.318	79.991	19.996	103.285	20.029	4.766	0.488
248.000	201.296	79.990	19.997	103.285	20.027	4.936	0.473
250.000	202.318	80.003	19.996	103.271	20.025	5.071	0.500
252.001	203.316	80.016	19.993	103.275	20.029	4.803	0.508
254.001	204.284	80.001	19.994	103.269	20.024	5.177	0.518
256.001	205.299	80.001	19.995	103.266	20.031	4.677	0.504
258.000	206.295	79.996	19.995	103.277	20.026	5.044	0.500
260.000	207.276	80.000	19.995	103.270	20.024	5.146	0.518
262.000	208.286	79.997	19.995	103.265	20.026	5.026	0.521
264.000	209.250	80.000	19.994	103.273	20.023	5.229	0.481
266.000	210.264	79.998	19.996	103.278	20.020	5.445	0.545
268.000	211.283	79.986	19.995	103.271	20.022	5.327	0.491
270.000	212.262	80.004	19.994	103.275	20.020	5.476	0.505
272.000	213.239	79.989	19.996	103.286	20.016	5.761	0.479
274.000	214.299	80.005	19.995	103.276	20.014	5.877	0.565
276.000	215.236	79.995	19.996	103.272	20.014	5.925	0.524
278.000	216.239	80.001	19.995	103.268	20.013	5.965	0.499
280.000	217.159	79.991	19.997	103.267	20.012	6.029	0.534
282.000	218.146	80.005	19.996	103.279	20.011	6.099	0.479
284.000	219.139	79.999	19.995	103.276	20.010	6.244	0.473
286.001	220.103	80.000	19.995	103.268	20.009	6.265	0.480
288.000	221.075	80.007	19.994	103.284	20.007	6.429	0.495
290.000	222.092	80.014	19.993	103.273	20.006	6.506	0.493
292.000	223.041	79.986	19.997	103.278	20.001	6.914	0.436
294.000	224.060	79.995	19.995	103.269	20.001	6.903	0.485
296.000	225.056	80.008	19.995	103.259	20.000	6.969	0.515
298.000	226.071	79.995	19.995	103.265	20.001	6.863	0.503
300.000	227.020	80.002	19.995	103.269	19.999	7.048	0.509
302.000	228.050	80.013	19.995	103.281	19.994	7.392	0.514
304.001	229.048	80.007	19.995	103.280	19.996	7.228	0.498
306.000	230.025	79.996	19.996	103.264	19.994	7.427	0.481
308.000	231.061	80.004	19.994	103.268	19.994	7.415	0.491
310.001	232.050	80.008	19.994	103.272	19.991	7.602	0.514
312.000	232.977	80.003	19.995	103.264	19.989	7.758	0.502
314.001	233.987	80.007	19.995	103.262	19.985	8.056	0.482
316.001	234.956	79.998	19.996	103.263	19.984	8.182	0.501
318.000	235.980	80.000	19.995	103.259	19.987	7.950	0.501
320.000	236.994	80.002	19.994	103.268	19.981	8.355	0.495
322.000	237.997	80.002	19.995	103.268	19.981	8.366	0.525
324.000	239.000	80.002	19.995	103.283	19.979	8.509	0.506
326.000	239.993	80.002	19.995	103.274	19.977	8.694	0.495
328.000	240.962	79.998	19.994	103.277	19.976	8.766	0.485
330.000	241.967	80.001	19.995	103.288	19.972	9.040	0.506
332.000	242.983	80.000	19.996	103.274	19.971	9.141	0.538
334.000	243.969	79.993	19.996	103.266	19.970	9.165	0.488
336.000	245.001	80.003	19.994	103.260	19.967	9.430	0.520
338.000	246.025	80.002	19.995	103.276	19.962	9.779	0.518
340.000	247.034	79.999	19.995	103.277	19.960	9.928	0.489
342.000	247.999	79.997	19.997	103.278	19.960	9.941	0.489
344.000	248.975	80.004	19.995	103.285	19.957	10.160	0.495
346.000	250.075	80.003	19.995	103.279	19.955	10.309	0.527
348.000	250.995	80.002	19.995	103.282	19.950	10.656	0.475
350.000	252.079	80.002	19.995	103.275	19.950	10.698	0.493
352.001	253.055	80.006	19.995	103.290	19.945	11.063	0.515
354.000	254.068	80.008	19.993	103.285	19.943	11.222	0.535
356.000	255.078	80.008	19.993	103.280	19.936	11.743	0.521
358.000	256.065	80.005	19.994	103.278	19.933	11.975	0.495
360.001	257.068	80.007	19.993	103.276	19.931	12.083	0.506
362.000	258.052	80.006	19.995	103.294	19.926	12.468	0.526
364.000	259.096	80.001	19.995	103.286	19.927	12.400	0.514
366.000	260.021	80.007	19.995	103.293	19.918	13.086	0.486
368.000	261.006	79.995	19.997	103.283	19.914	13.350	0.494
370.000	261.983	79.997	19.997	103.295	19.907	13.869	0.466
372.000	263.013	79.998	19.996	103.292	19.902	14.302	0.476
374.000	264.010	80.002	19.995	103.291	19.901	14.375	0.480
376.000	265.037	79.998	19.996	103.297	19.896	14.705	0.489
378.000	266.033	80.001	19.997	103.296	19.888	15.292	0.524
380.000	267.064	79.994	19.995	103.304	19.883	15.691	0.495
382.001	268.043	79.999	19.993	103.305	19.883	15.694	0.488
384.000	269.047	80.009	19.993	103.298	19.875	16.311	0.490
386.000	270.009	79.996	19.994	103.303	19.870	16.619	0.502
388.000	271.069	80.006	19.994	103.304	19.863	17.161	0.527
390.000	272.070	80.006	19.994	103.309	19.858	17.573	0.522
392.000	273.039	80.000	19.995	103.311	19.854	17.847	0.481
394.000	274.045	80.001	19.994	103.303	19.849	18.244	0.494
396.000	275.073	80.000	19.995	103.304	19.844	18.603	0.528
398.000	276.043	80.001	19.995	103.307	19.836	19.203	0.502
400.000	277.066	79.999	19.995	103.312	19.830	19.614	0.511
402.000	278.088	80.001	19.995	103.329	19.823	20.136	0.524
404.000	279.070	80.000	19.995	103.335	19.815	20.755	0.513
406.000	280.100	80.001	19.994	103.342	19.808	21.267	0.510
408.001	281.069	79.994	19.995	103.344	19.800	21.869	0.487
410.000	282.108	80.006	19.994	103.336	19.795	22.287	0.505
412.000	283.099	80.004	19.994	103.341	19.787	22.822	0.504
414.000	284.126	80.007	19.994	103.339	19.785	23.025	0.495
416.000	285.134	79.993	19.996	103.342	19.775	23.747	0.493
418.000	286.130	79.998	19.994	103.347	19.767	24.323	0.476
420.000	287.145	80.007	19.992	103.346	19.760	24.894	0.482
422.000	288.163	80.002	19.995	103.345	19.748	25.759	0.504
424.000	289.141	79.999	19.995	103.352	19.742	26.241	0.467
426.001	290.152	80.004	19.994	103.349	19.732	26.997	0.545
428.000	291.189	80.003	19.995	103.377	19.728	27.264	0.499
430.000	292.259	80.002	19.995	103.362	19.718	27.994	0.536
432.000	293.240	80.002	19.996	103.358	19.706	28.919	0.504
434.000	294.227	79.996	19.995	103.380	19.695	29.712	0.487
436.001	295.244	79.999	19.996	103.370	19.687	30.354	0.477
438.000	296.231	79.999	19.996	103.373	19.681	30.761	0.495
440.000	297.223	80.005	19.995	103.373	19.671	31.498	0.465
442.000	298.254	79.999	19.996	103.382	19.662	32.193	0.503
444.000	299.250	80.000	19.995	103.381	19.655	32.753	0.512
446.001	300.228	80.002	19.996	103.379	19.645	33.461	0.487
448.000	301.187	80.002	19.996	103.380	19.636	34.167	0.489
450.000	302.225	80.004	19.995	103.388	19.629	34.658	0.511
452.000	303.223	80.000	19.995	103.384	19.623	35.097	0.494
454.000	304.241	80.000	19.996	103.383	19.614	35.818	0.525
456.000	305.245	79.999	19.995	103.382	19.602	36.717	0.512
458.000	306.245	80.001	19.995	103.389	19.595	37.227	0.485
460.001	307.272	80.000	19.996	103.383	19.582	38.192	0.490
462.000	308.202	80.001	19.995	103.386	19.572	38.894	0.473
464.000	309.261	80.002	19.995	103.391	19.563	39.582	0.504
466.000	310.301	80.000	19.995	103.402	19.552	40.414	0.522
468.000	311.290	80.001	19.995	103.401	19.544	41.021	0.494
470.001	312.291	80.018	19.994	103.415	19.537	41.532	0.520
472.000	313.357	80.001	19.995	103.419	19.524	42.497	0.511
474.000	314.310	79.998	19.995	103.414	19.515	43.224	0.500
476.001	315.313	80.000	19.995	103.412	19.503	44.123	0.469
478.000	316.268	80.009	19.993	103.413	19.491	44.996	0.479
480.000	317.338	79.994	19.994	103.423	19.481	45.741	0.563
482.000	318.308	80.004	19.995	103.427	19.472	46.438	0.508
484.001	319.332	79.999	19.995	103.427	19.462	47.188	0.489
486.000	320.298	80.002	19.995	103.423	19.453	47.825	0.505
488.000	321.299	80.000	19.994	103.434	19.440	48.780	0.507
490.001	322.310	80.003	19.996	103.437	19.426	49.844	0.494
492.000	323.306	80.006	19.994	103.434	19.411	50.958	0.519
494.000	324.276	80.001	19.996	103.453	19.401	51.693	0.480
496.000	325.333	80.003	19.994	103.455	19.392	52.426	0.514
498.000	326.329	80.001	19.995	103.454	19.380	53.335	0.526
500.000	327.362	79.999	19.995	103.457	19.367	54.295	0.487
502.000	328.369	79.994	19.995	103.458	19.354	55.216	0.483
504.000	329.319	80.002	19.994	103.456	19.341	56.197	0.497
506.000	330.351	80.003	19.993	103.460	19.332	56.924	0.519
508.000	331.362	80.001	19.994	103.472	19.318	57.923	0.501
510.000	332.373	80.006	19.995	103.475	19.311	58.424	0.503
512.001	333.401	79.999	19.995	103.477	19.296	59.549	0.520
514.000	334.429	80.000	19.994	103.473	19.289	60.097	0.488
516.000	335.461	79.996	19.995	103.488	19.277	61.003	0.518
518.001	336.488	80.004	19.993	103.482	19.266	61.827	0.518
520.001	337.485	79.999	19.994	103.493	19.257	62.522	0.537
522.000	338.489	80.001	19.994	103.478	19.251	62.913	0.502
524.000	339.500	80.000	19.994	103.492	19.241	63.713	0.514
526.000	340.505	79.998	19.996	103.477	19.229	64.614	0.493
528.001	341.524	79.999	19.997	103.481	19.230	64.539	0.533
530.000	342.502	80.000	19.996	103.486	19.224	64.939	0.499
532.000	343.501	80.005	19.995	103.467	19.218	65.425	0.496
534.000	344.498	80.000	19.996	103.485	19.217	65.471	0.499
536.000	345.494	80.000	19.993	103.478	19.211	65.938	0.518
538.000	346.483	79.999	19.994	103.478	19.210	66.008	0.506
540.001	347.467	80.001	19.995	103.470	19.210	66.010	0.476
542.000	348.496	80.000	19.995	103.481	19.212	65.818	0.478
544.001	349.541	79.998	19.995	103.460	19.212	65.812	0.520
546.000	350.513	79.999	19.995	103.466	19.214	65.661	0.481
548.000	351.524	80.002	19.995	103.476	19.221	65.133	0.490
550.001	352.570	79.999	19.995	103.459	19.224	64.901	0.518
552.001	353.614	80.001	19.996	103.459	19.231	64.410	0.525
554.000	354.603	80.001	19.996	103.442	19.243	63.484	0.498
556.001	355.618	79.999	19.995	103.433	19.251	62.909	0.488
558.001	356.650	80.002	19.996	103.434	19.263	62.025	0.516
560.000	357.649	80.002	19.995	103.421	19.278	60.895	0.495
562.001	358.688	79.999	19.996	103.416	19.289	60.076	0.519
564.000	359.646	80.004	19.995	103.416	19.304	58.885	0.472
566.000	360.736	80.001	19.996	103.400	19.323	57.518	0.509
568.001	361.707	80.000	19.995	103.381	19.341	56.126	0.499
570.000	362.746	80.000	19.995	103.382	19.366	54.256	0.499
572.000	363.780	80.001	19.995	103.378	19.384	52.914	0.488
574.001	364.769	80.001	19.995	103.367	19.409	51.019	0.498
576.001	365.791	80.001	19.995	103.344	19.435	49.142	0.477
578.000	366.806	80.002	19.994	103.342	19.460	47.222	0.488
580.000	367.823	80.001	19.993	103.330	19.487	45.208	0.521
582.001	368.866	80.003	19.995	103.315	19.512	43.329	0.543
584.000	369.869	80.005	19.995	103.312	19.538	41.408	0.509
586.000	370.884	80.000	19.995	103.303	19.565	39.397	0.523
588.000	371.909	79.999	19.995	103.293	19.593	37.329	0.543
590.000	372.925	80.000	19.994	103.275	19.620	35.301	0.513
592.000	373.975	80.001	19.995	103.267	19.648	33.185	0.537
594.000	375.015	80.003	19.995	103.272	19.676	31.097	0.518
596.000	375.995	79.998	19.994	103.261	19.701	29.215	0.510
598.000	376.986	79.999	19.994	103.257	19.727	27.299	0.515
600.000	378.019	79.993	19.994	103.239	19.754	25.276	0.508
602.000	379.021	80.001	19.994	103.240	19.775	23.715	0.485
604.000	380.061	80.002	19.995	103.231	19.798	21.971	0.521
606.000	381.063	79.998	19.994	103.227	19.820	20.338	0.521
608.000	382.063	80.001	19.994	103.224	19.839	18.931	0.506
610.000	383.082	80.003	19.994	103.221	19.860	17.379	0.495
612.000	384.080	80.004	19.993	103.217	19.876	16.182	0.532
614.000	385.145	80.002	19.995	103.213	19.887	15.379	0.530
616.000	386.125	80.000	19.996	103.214	19.902	14.288	0.488
618.000	387.110	80.002	19.995	103.218	19.914	13.364	0.475
620.000	388.145	80.002	19.995	103.212	19.925	12.525	0.494
622.000	389.154	80.002	19.995	103.187	19.932	12.022	0.521
624.000	390.202	80.003	19.995	103.191	19.939	11.502	0.543
626.001	391.197	80.003	19.994	103.198	19.948	10.838	0.520
628.000	392.205	80.002	19.995	103.196	19.951	10.587	0.502
630.000	393.244	80.003	19.996	103.182	19.962	9.756	0.529
632.000	394.235	80.002	19.995	103.195	19.967	9.374	0.524
634.000	395.276	80.002	19.995	103.194	19.965	9.566	0.509
636.000	396.284	80.002	19.994	103.188	19.970	9.207	0.532
638.000	397.265	80.003	19.994	103.196	19.971	9.074	0.493
640.001	398.266	80.000	19.995	103.190	19.978	8.603	0.489
642.000	399.298	79.999	19.995	103.183	19.979	8.501	0.514
644.001	400.398	80.000	19.996	103.191	19.981	8.346	0.546
646.000	401.367	79.999	19.996	103.195	19.983	8.231	0.487
648.001	402.367	79.999	19.995	103.191	19.985	8.070	0.527
650.000	403.375	79.998	19.996	103.189	19.983	8.203	0.480
652.001	404.363	79.999	19.995	103.193	19.989	7.800	0.486
654.001	405.387	79.999	19.995	103.189	19.986	7.997	0.494
656.000	406.393	79.998	19.996	103.186	19.991	7.636	0.481
658.001	407.405	80.000	19.996	103.188	19.990	7.698	0.486
660.000	408.456	79.999	19.994	103.198	19.990	7.657	0.497
662.000	409.458	80.001	19.994	103.191	19.990	7.663	0.504
664.000	410.464	79.999	19.993	103.187	19.994	7.410	0.506
666.000	411.459	80.000	19.994	103.187	19.990	7.684	0.487
668.001	412.447	80.001	19.994	103.191	19.994	7.420	0.499
670.000	413.497	80.001	19.994	103.187	19.995	7.287	0.512
672.000	414.458	80.001	19.994	103.189	19.996	7.233	0.489
674.001	415.478	80.000	19.994	103.190	19.994	7.395	0.525
676.000	416.506	80.015	20.000	103.198	19.995	7.354	0.542
678.000	417.517	80.001	19.996	103.191	19.994	7.410	0.526
680.000	418.523	80.001	19.995	103.188	20.000	6.965	0.505
682.000	419.533	80.002	19.994	103.188	20.002	6.812	0.493
684.000	420.564	80.003	19.994	103.184	19.998	7.110	0.507
686.000	421.544	80.003	19.995	103.190	19.999	6.992	0.514
688.000	422.539	80.000	19.996	103.188	20.002	6.823	0.461
690.000	423.558	80.002	19.996	103.185	20.004	6.644	0.464
692.000	424.565	80.001	19.994	103.184	20.002	6.764	0.504
694.001	425.630	80.001	19.994	103.182	20.002	6.812	0.545
696.000	426.638	80.001	19.995	103.183	20.005	6.607	0.515
698.000	427.628	80.003	19.994	103.186	20.007	6.420	0.491
700.000	428.671	80.002	19.995	103.190	20.007	6.428	0.507
702.001	429.716	80.002	19.995	103.187	20.004	6.615	0.509
704.000	430.720	80.001	19.993	103.188	20.008	6.370	0.492
706.000	431.750	80.001	19.993	103.186	20.007	6.395	0.520
708.001	432.786	80.001	19.995	103.190	20.012	6.086	0.513
710.000	433.820	80.003	19.995	103.185	20.016	5.733	0.511
712.000	434.849	80.003	19.995	103.184	20.012	6.028	0.523
714.000	435.897	80.001	19.997	103.185	20.013	5.949	0.501
716.001	436.900	79.999	19.998	103.185	20.019	5.530	0.523
718.000	437.933	80.003	19.995	103.186	20.015	5.800	0.531
720.000	438.970	80.001	19.995	103.191	20.016	5.752	0.527
722.001	439.986	79.999	19.995	103.189	20.017	5.677	0.505
724.000	441.022	80.002	19.995	103.185	20.018	5.637	0.499
726.001	442.058	79.999	19.998	103.187	20.018	5.571	0.507
728.000	443.080	79.999	19.995	103.188	20.015	5.801	0.501
730.000	444.104	80.002	19.996	103.188	20.022	5.330	0.526
732.000	445.126	80.000	19.996	103.188	20.018	5.583	0.505
734.000	446.129	80.000	19.995	103.186	20.021	5.388	0.504
736.000	447.147	79.998	19.997	103.182	20.019	5.554	0.490
738.000	448.165	80.001	19.995	103.180	20.021	5.370	0.483
740.000	449.193	80.000	19.998	103.182	20.025	5.079	0.520
742.000	450.238	80.002	19.996	103.183	20.023	5.258	0.518
744.000	451.299	80.001	19.995	103.183	20.023	5.216	0.551
746.000	452.308	80.002	19.995	103.178	20.024	5.123	0.523
748.001	453.337	80.000	19.995	103.183	20.025	5.117	0.497
750.001	454.358	80.003	19.995	103.182	20.024	5.125	0.500
752.000	455.423	80.000	19.995	103.183	20.025	5.090	0.534
754.000	456.439	80.000	19.996	103.180	20.028	4.888	0.523
756.000	457.482	80.001	19.993	103.182	20.028	4.828	0.520
758.000	458.473	80.000	19.996	103.184	20.030	4.729	0.502
760.001	459.538	80.000	19.996	103.184	20.032	4.557	0.532
762.000	460.517	80.000	19.995	103.184	20.038	4.106	0.474
764.000	461.530	80.002	19.994	103.184	20.036	4.285	0.480
766.000	462.539	79.999	19.991	103.183	20.035	4.366	0.513
768.000	463.570	80.001	19.995	103.182	20.035	4.368	0.499
770.001	464.595	79.999	19.995	103.185	20.036	4.237	0.498
772.001	465.668	80.001	19.995	103.188	20.036	4.258	0.537
774.000	466.659	80.002	19.996	103.186	20.037	4.164	0.536
776.001	467.721	80.003	19.994	103.191	20.034	4.422	0.521
778.001	468.680	80.000	19.996	103.188	20.036	4.258	0.469
780.000	469.714	80.000	19.993	103.182	20.037	4.218	0.521
782.000	470.736	80.003	19.996	103.187	20.036	4.264	0.496
784.000	471.763	80.003	19.993	103.179	20.039	4.069	0.495
786.000	472.766	80.000	19.995	103.187	20.041	3.899	0.534
788.001	473.803	80.003	19.994	103.187	20.038	4.146	0.521
790.001	474.846	80.001	19.996	103.180	20.038	4.102	0.516
792.000	475.863	80.002	19.995	103.172	20.032	4.554	0.530
794.001	476.872	80.002	19.995	103.181	20.037	4.191	0.495
796.000	477.889	80.004	19.993	103.182	20.041	3.890	0.508
798.000	478.955	80.005	19.995	103.186	20.038	4.089	0.545
800.000	479.920	80.002	19.996	103.185	20.040	3.992	0.491
802.001	480.942	80.002	19.997	103.183	20.046	3.512	0.500
804.001	481.951	80.002	19.995	103.181	20.039	4.023	0.489
806.000	482.890	80.001	19.997	103.170	20.040	3.948	0.476
808.000	483.973	80.002	19.996	103.172	20.038	4.110	0.504
810.001	484.968	80.004	19.994	103.179	20.044	3.689	0.503
812.000	485.957	80.000	19.995	103.179	20.047	3.435	0.490
814.000	486.965	80.005	19.993	103.171	20.041	3.894	0.503
816.000	488.025	79.997	20.004	103.176	20.045	3.608	0.539
818.000	488.983	80.000	19.997	103.179	20.041	3.890	0.508
820.000	490.009	80.000	19.998	103.183	20.046	3.537	0.535
822.000	491.018	79.999	19.993	103.165	20.047	3.457	0.492
824.000	492.041	80.001	19.996	103.166	20.045	3.617	0.507
826.000	493.048	80.004	19.994	103.182	20.046	3.533	0.510
828.000	494.035	79.999	19.996	103.174	20.045	3.608	0.506
830.000	495.034	79.999	19.996	103.172	20.049	3.301	0.514
832.001	496.071	79.994	19.996	103.180	20.049	3.309	0.480
834.000	497.134	79.999	19.994	103.183	20.048	3.376	0.512
836.000	498.116	79.999	19.998	103.183	20.049	3.332	0.501
838.000	499.115	80.004	19.993	103.184	20.047	3.463	0.489
840.000	500.170	80.000	19.995	103.186	20.049	3.276	0.520
842.000	501.161	79.999	19.997	103.186	20.052	3.035	0.512
844.001	502.185	80.000	19.995	103.184	20.052	3.060	0.510
846.000	503.188	80.002	19.995	103.183	20.051	3.156	0.501
848.000	504.238	80.002	19.995	103.180	20.048	3.363	0.519
850.000	505.263	79.998	19.995	103.188	20.050	3.185	0.512
852.000	506.268	80.003	19.994	103.178	20.052	3.046	0.510
854.000	507.326	80.004	19.993	103.183	20.050	3.211	0.550
856.001	508.365	79.998	19.999	103.183	20.053	2.973	0.531
858.000	509.390	80.003	19.994	103.174	20.052	3.070	0.527
860.000	510.378	80.002	19.993	103.180	20.053	3.023	0.491
862.001	511.417	80.001	19.996	103.181	20.054	2.939	0.504
864.000	512.443	80.000	19.993	103.167	20.051	3.128	0.520
866.000	513.470	80.001	19.996	103.172	20.050	3.201	0.522
868.000	514.520	80.004	19.994	103.176	20.049	3.305	0.506
870.001	515.589	79.998	19.996	103.176	20.048	3.348	0.501
872.000	516.678	80.003	19.995	103.171	20.054	2.958	0.554
874.000	517.698	80.003	19.993	103.150	20.052	3.041	0.522
876.000	518.734	80.004	19.994	103.156	20.054	2.950	0.541
878.000	519.771	80.004	19.994	103.174	20.051	3.129	0.495
880.000	520.824	80.003	19.994	103.166	20.054	2.887	0.533
882.001	521.848	80.006	19.994	103.170	20.054	2.935	0.504
884.000	522.877	80.003	19.996	103.166	20.055	2.819	0.511
886.000	523.950	80.006	19.994	103.163	20.057	2.686	0.512
888.000	525.028	80.000	19.997	103.172	20.056	2.742	0.547
890.001	526.079	80.004	19.994	103.163	20.053	2.989	0.549
892.000	527.049	80.003	19.996	103.151	20.057	2.668	0.521
894.000	528.163	80.005	19.994	103.156	20.055	2.834	0.536
896.000	529.156	80.002	19.998	103.158	20.058	2.633	0.503
898.000	530.212	80.000	19.990	103.151	20.056	2.744	0.532
900.000	531.262	79.999	19.998	103.149	20.060	2.442	0.549
902.000	532.246	80.000	20.000	103.155	20.058	2.631	0.496
904.000	533.344	79.998	19.995	103.156	20.057	2.734	0.511
906.000	534.360	79.999	19.996	103.168	20.058	2.647	0.511
908.000	535.421	80.003	19.991	103.162	20.057	2.736	0.514
910.000	536.468	80.003	19.993	103.154	20.058	2.647	0.507
912.000	537.526	80.001	19.993	103.171	20.061	2.413	0.513
914.000	538.566	80.000	19.997	103.170	20.058	2.593	0.523
916.000	539.592	80.001	19.993	103.153	20.058	2.658	0.517
918.001	540.638	80.002	19.995	103.153	20.056	2.767	0.523
920.000	541.651	80.001	19.994	103.161	20.057	2.722	0.506
922.000	542.665	80.002	19.997	103.175	20.057	2.728	0.500
924.000	543.710	80.003	19.992	103.179	20.065	2.080	0.534
926.000	544.710	79.999	19.995	103.177	20.062	2.321	0.502
928.000	545.666	79.997	19.995	103.162	20.067	1.919	0.503
930.000	546.687	80.002	19.997	103.161	20.057	2.713	0.509
932.001	547.704	80.003	19.996	103.156	20.058	2.653	0.480
934.001	548.759	80.000	19.996	103.145	20.061	2.394	0.453
936.000	549.799	80.000	19.995	103.151	20.060	2.460	0.441
938.000	550.926	80.003	19.998	103.168	20.063	2.275	0.565
940.001	551.888	80.000	19.996	103.162	20.062	2.300	0.518
942.001	553.357	80.004	19.995	103.148	20.065	2.130	0.668
944.001	554.136	80.002	19.995	103.151	20.064	2.165	0.415
946.000	554.985	79.999	19.994	103.150	20.063	2.224	0.659
948.000	556.491	80.002	19.994	103.148	20.061	2.385	0.266
950.000	557.070	80.002	19.994	103.146	20.064	2.182	0.403
952.001	558.105	80.002	19.996	103.146	20.063	2.244	0.636
954.001	559.165	80.006	19.993	103.147	20.062	2.303	0.465
956.000	560.218	79.998	19.999	103.156	20.065	2.085	0.563
958.000	561.117	80.004	19.995	103.147	20.063	2.251	0.443
960.000	562.201	80.002	19.995	103.148	20.063	2.267	0.535
962.000	563.196	80.002	19.993	103.149	20.063	2.268	0.469
964.000	564.284	80.004	19.996	103.151	20.063	2.237	0.503
966.000	565.214	80.002	19.997	103.163	20.062	2.341	0.500
968.000	566.320	79.999	19.999	103.160	20.067	1.944	0.561
970.000	567.294	80.003	19.998	103.166	20.062	2.307	0.519
972.000	568.322	80.000	19.994	103.171	20.062	2.336	0.547
974.000	569.297	80.001	19.998	103.176	20.059	2.531	0.496
976.000	570.364	80.002	19.993	103.182	20.062	2.313	0.534
978.000	571.416	79.999	19.998	103.187	20.061	2.433	0.518
980.000	572.448	80.000	19.989	103.184	20.063	2.238	0.504
982.000	573.452	80.003	19.997	103.175	20.063	2.222	0.541
984.000	574.507	80.005	19.990	103.172	20.065	2.080	0.523
986.000	575.562	79.998	19.995	103.174	20.063	2.284	0.495
988.001	576.621	80.000	19.987	103.171	20.062	2.303	0.515
990.000	577.567	80.002	19.996	103.161	20.058	2.618	0.491
992.001	578.605	79.999	19.997	103.162	20.059	2.580	0.479
994.000	579.639	80.000	19.994	103.157	20.059	2.585	0.513
996.000	580.663	80.005	19.993	103.150	20.060	2.504	0.523
998.000	581.744	80.002	19.995	103.163	20.060	2.475	0.526
1000.000	582.739	79.997	20.000	103.164	20.061	2.367	0.494
1002.000	583.768	80.001	19.994	103.151	20.059	2.539	0.507
1004.000	584.734	79.997	19.993	103.152	20.061	2.435	0.531
1006.000	585.791	79.998	19.995	103.151	20.058	2.661	0.499
1008.000	586.854	80.005	19.991	103.151	20.061	2.398	0.552
1010.000	587.835	80.001	19.993	103.151	20.059	2.553	0.500
1012.001	588.855	80.001	19.999	103.150	20.060	2.483	0.485
1014.000	589.895	80.000	19.995	103.148	20.062	2.298	0.524
1016.000	590.933	80.006	19.995	103.157	20.064	2.166	0.504
1018.000	591.983	80.001	19.995	103.150	20.065	2.099	0.515
1020.001	593.001	80.002	19.996	103.144	20.064	2.180	0.518
1022.000	594.064	80.001	19.993	103.151	20.063	2.253	0.536
1024.001	595.102	80.004	19.993	103.151	20.064	2.157	0.546
1026.000	596.124	79.999	19.996	103.155	20.063	2.274	0.531
1028.000	597.167	79.999	19.999	103.153	20.062	2.317	0.501
1030.000	598.197	80.001	19.996	103.145	20.063	2.266	0.517
1032.000	599.225	80.003	19.994	103.145	20.065	2.120	0.515
1034.000	600.233	80.001	19.994	103.152	20.064	2.168	0.514
1036.000	601.297	80.002	19.993	103.166	20.064	2.174	0.502
1038.000	602.304	80.002	19.994	103.155	20.061	2.390	0.476
1040.000	603.313	79.999	20.001	103.175	20.060	2.477	0.479
1042.001	604.390	80.008	19.990	103.162	20.063	2.259	0.526
1044.000	605.366	80.001	19.994	103.160	20.059	2.537	0.520
1046.000	606.441	80.000	19.994	103.159	20.058	2.633	0.529
1048.000	607.445	79.996	20.000	103.153	20.059	2.518	0.508
1050.000	608.514	80.001	19.995	103.159	20.061	2.381	0.527
1052.000	609.541	80.000	19.993	103.159	20.066	2.066	0.524
1054.000	610.543	80.000	19.997	103.172	20.063	2.216	0.508
1056.000	611.569	80.003	19.990	103.172	20.064	2.156	0.523
1058.000	612.626	79.998	19.994	103.154	20.065	2.118	0.509
1060.000	613.670	80.000	19.996	103.154	20.065	2.086	0.545
1062.000	614.705	80.000	19.994	103.158	20.064	2.161	0.527
1064.000	615.755	80.003	19.996	103.166	20.060	2.477	0.518
1066.000	616.805	79.998	19.997	103.136	20.064	2.203	0.536
1068.001	617.820	80.003	19.997	103.101	20.064	2.155	0.509
1070.000	618.837	80.006	19.992	103.210	20.065	2.097	0.507
1072.000	619.875	80.004	19.994	103.155	20.065	2.093	0.546
1074.000	620.885	80.004	19.995	103.154	20.068	1.865	0.532
1076.000	621.915	80.000	19.999	103.165	20.065	2.093	0.507
1078.000	622.936	80.000	19.995	103.166	20.062	2.290	0.513
1080.000	624.006	80.000	19.998	103.156	20.062	2.350	0.539
1082.000	625.044	80.004	19.993	103.159	20.065	2.114	0.515
1084.000	626.027	80.000	19.998	103.153	20.064	2.165	0.508
1086.000	627.103	80.005	19.993	103.153	20.065	2.118	0.546
1088.000	628.133	80.001	19.996	103.154	20.062	2.294	0.499
1090.000	629.142	79.999	19.993	103.149	20.062	2.336	0.509
1092.000	630.170	80.003	19.995	103.157	20.062	2.352	0.475
1094.001	631.187	80.003	19.993	103.149	20.063	2.261	0.502
1096.000	632.233	80.002	19.994	103.156	20.060	2.495	0.502
1098.000	633.241	80.002	19.995	103.154	20.062	2.342	0.483
1100.000	634.304	80.001	19.998	103.162	20.060	2.501	0.540
1102.000	635.311	80.000	19.994	103.151	20.060	2.508	0.503
1104.001	636.390	80.006	19.994	103.147	20.061	2.437	0.522
1106.000	637.371	80.002	19.995	103.157	20.061	2.419	0.489
1108.000	638.410	80.002	19.993	103.154	20.057	2.736	0.511
1110.000	639.424	79.997	19.994	103.147	20.060	2.472	0.508
1112.000	640.437	80.003	19.999	103.147	20.057	2.719	0.492
1114.000	641.465	80.000	19.991	103.144	20.061	2.420	0.514
1116.000	642.483	80.002	19.996	103.161	20.058	2.661	0.529
1118.000	643.526	80.001	19.992	103.149	20.063	2.246	0.530
1120.000	644.534	80.003	19.994	103.148	20.057	2.707	0.512
1122.000	645.517	80.004	19.995	103.145	20.058	2.591	0.476
1124.000	646.538	80.005	19.993	103.146	20.061	2.431	0.494
1126.000	647.561	80.005	19.994	103.144	20.058	2.611	0.485
1128.001	648.606	80.005	19.994	103.144	20.058	2.626	0.529
1130.000	649.608	79.999	19.994	103.140	20.062	2.317	0.518
1132.000	650.615	80.001	19.995	103.147	20.060	2.487	0.495
1134.000	651.623	80.008	19.991	103.149	20.060	2.485	0.500
1136.000	652.660	80.001	19.990	103.145	20.062	2.306	0.484
1138.000	653.688	80.007	19.988	103.145	20.059	2.564	0.525
1140.000	654.665	79.996	19.994	103.151	20.059	2.578	0.485
1142.000	655.708	80.002	19.995	103.146	20.060	2.487	0.520
1144.000	656.750	79.997	19.996	103.146	20.062	2.298	0.517
1146.000	657.746	80.002	19.994	103.152	20.063	2.275	0.506
1148.000	658.792	79.999	19.997	103.150	20.059	2.547	0.491
1150.000	659.765	79.999	19.997	103.149	20.062	2.294	0.503
1152.000	660.809	79.999	20.001	103.161	20.060	2.483	0.507
1154.000	661.826	79.996	19.998	103.147	20.060	2.456	0.520
1156.000	662.822	80.001	19.995	103.147	20.063	2.250	0.526
1158.000	663.896	80.000	19.995	103.146	20.059	2.566	0.519
1160.001	664.941	79.998	19.991	103.146	20.062	2.304	0.583
1162.000	665.673	80.003	19.993	103.148	20.061	2.398	0.274
1164.001	666.819	80.007	19.991	103.153	20.059	2.522	0.495
1166.000	667.868	79.997	19.991	103.149	20.058	2.603	0.514
1168.001	668.894	80.000	19.994	103.149	20.059	2.545	0.462
1170.000	669.907	79.996	19.996	103.147	20.062	2.338	0.542
1172.000	670.883	80.001	19.992	103.153	20.058	2.595	0.492
1174.000	671.963	79.999	19.995	103.152	20.058	2.634	0.550
1176.000	672.950	80.001	19.996	103.150	20.056	2.747	0.518
1178.001	673.930	79.999	19.992	103.149	20.058	2.614	0.489
1180.001	675.000	80.006	19.994	103.152	20.060	2.499	0.497
1182.001	675.964	80.004	19.991	103.146	20.059	2.585	0.505
1184.001	676.647	80.001	19.993	103.152	20.059	2.586	0.158
1186.001	678.016	80.004	19.994	103.159	20.058	2.597	0.515
1188.000	679.102	80.002	19.992	103.166	20.055	2.873	0.482
1190.000	680.143	79.996	19.997	103.153	20.054	2.916	0.503
1192.000	681.188	80.002	19.996	103.157	20.059	2.578	0.544
1194.000	682.215	80.005	19.995	103.150	20.057	2.694	0.512
1196.000	683.262	80.001	19.994	103.145	20.056	2.810	0.508
1198.000	684.318	80.004	19.994	103.141	20.054	2.887	0.543
1200.000	685.344	80.004	19.992	103.141	20.056	2.746	0.528
1202.000	686.415	79.999	19.994	103.143	20.057	2.667	0.535
1204.000	687.397	80.002	19.995	103.144	20.057	2.705	0.526
1206.000	688.459	80.005	19.995	103.146	20.052	3.041	0.514
1208.000	689.511	80.000	19.997	103.142	20.057	2.684	0.526
1210.001	690.575	80.006	19.995	103.144	20.055	2.873	0.543
1212.000	691.600	80.002	19.994	103.140	20.056	2.789	0.497
1214.000	692.664	80.000	19.996	103.138	20.056	2.767	0.549
1216.000	693.730	80.001	19.995	103.144	20.056	2.794	0.480
1218.000	694.750	80.000	19.992	103.145	20.055	2.877	0.511
1220.000	695.777	80.000	19.995	103.143	20.056	2.794	0.505
1222.000	696.859	80.000	19.996	103.139	20.053	2.976	0.528
1224.000	697.894	79.997	19.995	103.131	20.051	3.159	0.527
1226.000	698.940	80.001	19.992	103.144	20.056	2.761	0.534
1228.000	699.955	80.003	19.993	103.146	20.051	3.122	0.522
1230.000	700.984	80.002	19.992	103.146	20.054	2.908	0.519
1232.000	702.007	80.003	19.993	103.147	20.053	3.010	0.505
1234.000	703.074	80.001	19.995	103.146	20.051	3.171	0.519
1236.000	704.095	80.001	19.993	103.145	20.050	3.248	0.506
1238.000	705.113	80.000	19.996	103.147	20.054	2.887	0.509
1240.000	706.159	79.999	20.002	103.146	20.053	3.026	0.536
1242.000	707.184	80.004	19.993	103.145	20.055	2.850	0.487
1244.000	708.229	80.002	19.995	103.149	20.053	2.976	0.559
1246.000	709.275	80.001	19.996	103.144	20.053	2.991	0.487
1248.000	710.282	79.996	19.997	103.148	20.054	2.900	0.520
1250.001	711.336	79.999	19.991	103.147	20.051	3.144	0.530
1252.000	712.431	80.000	19.994	103.145	20.055	2.877	0.563
1254.000	713.392	80.000	19.995	103.145	20.055	2.864	0.489
1256.000	714.458	80.000	19.994	103.143	20.054	2.922	0.534
1258.000	715.504	80.002	19.993	103.139	20.050	3.196	0.527
1260.000	716.577	80.002	19.994	103.145	20.052	3.057	0.542
1262.000	717.617	80.003	19.993	103.144	20.052	3.051	0.507
1264.001	718.617	80.004	19.996	103.141	20.058	2.634	0.494
1266.000	719.666	80.003	19.991	103.140	20.055	2.876	0.499
1268.000	720.688	80.000	19.995	103.143	20.051	3.158	0.483
1270.000	721.695	80.002	19.994	103.138	20.059	2.580	0.500
1272.000	722.704	80.003	19.991	103.136	20.054	2.906	0.489
1274.000	723.722	80.000	19.996	103.141	20.052	3.088	0.525
1276.001	724.776	79.999	19.994	103.128	20.055	2.877	0.522
1278.000	725.789	80.001	19.993	103.126	20.053	2.980	0.485
1280.000	726.759	79.996	20.002	103.139	20.055	2.823	0.527
1282.001	727.760	80.001	19.996	103.143	20.054	2.937	0.521
1284.000	728.813	80.009	19.992	103.141	20.060	2.512	0.525
1286.001	729.785	80.000	19.996	103.143	20.056	2.798	0.494
1288.000	730.835	80.000	19.992	103.140	20.059	2.539	0.505
1290.000	731.845	80.005	19.990	103.138	20.057	2.694	0.498
1292.000	732.877	80.002	19.995	103.138	20.059	2.532	0.536
1294.000	733.855	79.998	20.000	103.138	20.056	2.769	0.486
1296.000	734.868	79.996	19.999	103.148	20.058	2.636	0.491
1298.001	735.885	80.006	19.994	103.141	20.054	2.925	0.527
1300.000	736.909	79.999	19.995	103.145	20.058	2.653	0.519
1302.001	737.906	79.997	19.999	103.143	20.057	2.668	0.477
1304.000	738.961	80.004	19.994	103.149	20.056	2.786	0.490
1306.000	739.965	80.000	19.994	103.148	20.059	2.562	0.532
1308.000	740.975	79.998	19.996	103.151	20.053	2.982	0.495
1310.001	742.009	80.001	19.996	103.160	20.051	3.169	0.526
1312.000	743.056	79.999	19.986	103.157	20.052	3.080	0.527
1313.501	743.733	80.001	19.992	103.155	20.058	2.605	0.425