File: 01_Data/Alpha_OSB/MCC/Alpha_OSB_MCC_30K_min_211206_R1.txt
Sample ID:	C:\MCC\MCC Cal\Test\Alpha_OSB_MCC_30K_min_211206_R1.txt
Sample Weight (mg):	4.29
Heating Rate (C/s):	0.5
Combustor Temp (C):	900
N2 Flow Rate (cc/min):	80
O2 Flow Rate (cc/min):	20
Calibration File:	C:\MCC\MCC Cal\Coeff1 JN10440_30_210304.txt.txt
T Correction Coefficients:	0	1.024463	0
Time Shift (s):	14
*
Time (s)	Temperature (C)	N2 flow rate (cc/min)	O2 flow rate (cc/min)	Flow Rate (cc/min)	Oxygen (%)	HRR (W/g)	Heating rate (C/s)
0.000	109.425	79.998	19.995	103.056	20.050	0.109	0.021
2.000	109.461	79.999	19.995	103.060	20.053	-0.111	0.015
4.000	109.432	79.998	19.995	103.064	20.055	-0.301	0.000
6.000	109.450	79.999	19.994	103.071	20.055	-0.294	-0.011
8.000	109.421	80.000	19.995	103.079	20.054	-0.190	-0.006
10.000	109.409	79.998	19.996	103.085	20.050	0.111	0.005
12.000	109.412	80.000	19.994	103.069	20.046	0.403	-0.018
14.001	109.446	80.001	19.996	103.078	20.043	0.656	0.021
16.000	109.506	79.999	19.996	103.106	20.041	0.794	0.040
18.000	109.531	79.999	19.996	103.122	20.038	1.026	0.017
20.000	109.579	79.997	19.995	103.106	20.036	1.149	0.017
22.000	109.684	80.000	19.995	103.130	20.037	1.114	0.056
24.001	109.705	80.001	19.995	103.140	20.037	1.112	0.033
26.000	109.809	80.002	19.995	103.144	20.041	0.761	0.057
28.000	109.908	80.000	19.994	103.144	20.037	1.085	0.042
30.000	110.038	80.000	19.995	103.155	20.033	1.388	0.057
32.001	110.153	80.001	19.994	103.209	20.025	1.997	0.072
34.000	110.326	80.002	19.993	103.230	20.017	2.566	0.092
36.000	110.498	79.999	19.995	103.254	20.017	2.562	0.082
38.000	110.763	80.002	19.995	103.257	20.016	2.661	0.138
40.000	111.084	80.000	19.995	103.263	20.014	2.811	0.151
42.000	111.372	80.001	19.995	103.261	20.013	2.872	0.157
44.000	111.695	80.001	19.994	103.262	20.010	3.111	0.172
46.000	112.005	79.998	19.994	103.276	20.010	3.129	0.167
48.001	112.347	79.999	19.994	103.299	20.006	3.433	0.173
50.000	112.795	79.999	19.995	103.300	20.008	3.278	0.181
52.001	113.251	79.996	19.995	103.307	20.008	3.256	0.228
54.000	113.756	79.998	19.994	103.310	20.004	3.522	0.259
56.000	114.255	79.997	19.994	103.303	20.003	3.638	0.258
58.001	114.787	79.998	19.994	103.297	20.007	3.343	0.260
60.000	115.334	79.999	19.994	103.307	20.001	3.758	0.267
62.001	115.898	79.998	19.994	103.324	20.001	3.806	0.277
64.000	116.473	80.001	19.993	103.339	19.997	4.117	0.292
66.000	117.178	79.998	19.995	103.333	20.001	3.781	0.343
68.000	117.779	79.999	19.993	103.319	19.998	4.042	0.343
70.000	118.378	79.993	19.995	103.330	20.000	3.874	0.321
72.000	119.110	80.002	19.994	103.323	19.996	4.141	0.333
74.000	119.787	79.995	19.993	103.316	20.000	3.871	0.358
76.001	120.496	80.000	19.994	103.327	20.000	3.859	0.387
78.000	121.202	79.992	19.995	103.324	20.001	3.771	0.348
80.000	121.927	79.997	19.996	103.311	20.000	3.850	0.335
82.000	122.704	79.997	19.995	103.324	19.996	4.138	0.377
84.001	123.483	79.999	19.995	103.335	20.002	3.732	0.420
86.000	124.280	79.999	19.994	103.335	20.003	3.634	0.406
88.000	125.087	80.000	19.995	103.337	20.000	3.864	0.409
90.000	125.896	79.999	19.995	103.324	20.000	3.875	0.392
92.001	126.713	79.997	19.994	103.325	19.999	3.921	0.394
94.000	127.555	80.003	19.994	103.311	20.003	3.641	0.425
96.000	128.399	80.000	19.996	103.322	20.005	3.473	0.442
98.001	129.255	80.000	19.995	103.319	20.003	3.655	0.404
100.000	130.175	79.999	19.996	103.312	20.004	3.538	0.456
102.000	131.046	79.997	19.995	103.326	20.009	3.195	0.457
104.000	131.918	80.000	19.996	103.330	20.003	3.630	0.447
106.000	132.801	79.998	19.995	103.327	20.007	3.314	0.422
108.000	133.747	79.999	19.995	103.319	20.007	3.300	0.442
110.000	134.664	79.997	19.995	103.320	20.005	3.472	0.469
112.000	135.631	79.999	19.995	103.318	20.006	3.434	0.464
114.001	136.542	80.000	19.995	103.332	20.005	3.494	0.462
116.000	137.515	80.002	19.994	103.323	20.006	3.396	0.466
118.001	138.435	80.001	19.994	103.333	20.003	3.599	0.460
120.000	139.399	79.999	19.994	103.336	20.004	3.591	0.461
122.000	140.347	80.002	19.993	103.339	20.006	3.412	0.466
124.000	141.265	80.000	19.994	103.337	20.004	3.524	0.434
126.000	142.241	80.001	19.993	103.328	20.004	3.582	0.488
128.000	143.242	80.002	19.994	103.318	20.003	3.668	0.487
130.000	144.262	79.999	19.995	103.331	20.003	3.601	0.498
132.000	145.227	79.998	19.995	103.335	20.004	3.586	0.479
134.000	146.198	80.000	19.994	103.323	20.001	3.780	0.491
136.000	147.239	79.998	19.995	103.332	20.007	3.324	0.547
138.000	148.211	79.997	19.995	103.316	20.004	3.569	0.499
140.000	149.224	80.000	19.994	103.318	20.007	3.334	0.505
142.000	150.223	79.997	19.995	103.312	20.003	3.636	0.505
144.000	151.214	79.998	19.994	103.306	20.006	3.378	0.489
146.000	152.251	80.002	19.995	103.305	19.999	3.937	0.508
148.000	153.220	80.000	19.994	103.305	19.998	3.977	0.494
150.000	154.244	80.000	19.994	103.302	19.997	4.102	0.504
152.000	155.269	80.001	19.995	103.308	20.001	3.815	0.507
154.000	156.258	79.999	19.994	103.309	20.002	3.723	0.533
156.000	157.215	79.998	19.995	103.303	20.003	3.632	0.471
158.000	158.238	80.001	19.995	103.318	19.999	3.964	0.505
160.000	159.219	79.999	19.994	103.308	20.002	3.721	0.482
162.000	160.198	79.988	19.995	103.305	20.002	3.713	0.464
164.000	161.254	80.001	19.994	103.301	20.003	3.648	0.522
166.000	162.216	79.999	19.995	103.308	20.002	3.719	0.503
168.000	163.273	79.999	19.995	103.305	20.000	3.874	0.514
170.000	164.303	79.997	19.995	103.300	20.000	3.873	0.493
172.000	165.315	79.998	19.996	103.299	19.999	3.940	0.501
174.000	166.346	80.001	19.995	103.300	20.003	3.612	0.508
176.000	167.385	80.002	19.994	103.301	20.002	3.706	0.527
178.000	168.424	80.001	19.996	103.293	19.995	4.223	0.509
180.000	169.402	80.002	19.995	103.291	20.000	3.857	0.484
182.000	170.399	79.999	19.995	103.280	19.997	4.057	0.516
184.000	171.369	80.005	19.994	103.283	19.998	4.013	0.463
186.000	172.337	79.994	19.995	103.289	20.002	3.725	0.485
188.000	173.397	79.997	19.994	103.284	19.998	4.003	0.546
190.000	174.401	79.999	19.994	103.287	20.000	3.832	0.500
192.000	175.363	79.996	19.995	103.280	19.998	3.988	0.485
194.000	176.362	80.005	19.994	103.283	19.994	4.277	0.531
196.000	177.351	79.995	19.995	103.272	19.992	4.442	0.485
198.000	178.393	79.999	19.995	103.284	19.995	4.254	0.487
200.000	179.404	79.999	19.994	103.291	19.996	4.185	0.520
202.000	180.378	79.999	19.996	103.288	19.996	4.154	0.504
204.000	181.369	80.001	19.996	103.284	19.995	4.248	0.523
206.000	182.342	80.001	19.995	103.278	19.998	4.024	0.479
208.000	183.355	79.999	19.995	103.278	19.993	4.358	0.472
210.000	184.309	79.998	19.994	103.284	19.998	4.019	0.470
212.000	185.318	79.997	19.996	103.284	19.996	4.149	0.512
214.000	186.399	80.001	19.994	103.277	19.997	4.086	0.505
216.000	187.355	79.995	19.995	103.274	19.993	4.369	0.556
218.000	188.355	79.992	19.995	103.286	19.994	4.346	0.485
220.000	189.326	80.001	19.994	103.268	19.992	4.458	0.473
222.000	190.383	79.999	19.994	103.276	19.989	4.650	0.511
224.000	191.364	79.999	19.994	103.268	19.990	4.629	0.524
226.000	192.340	80.000	19.994	103.271	19.991	4.510	0.504
228.000	193.332	80.003	19.994	103.288	19.990	4.619	0.497
230.000	194.302	79.998	19.995	103.269	19.990	4.634	0.513
232.000	195.327	80.000	19.995	103.264	19.985	4.971	0.498
234.000	196.254	80.003	19.995	103.263	19.986	4.915	0.493
236.000	197.240	80.003	19.994	103.261	19.985	5.011	0.458
238.000	198.219	79.997	19.994	103.263	19.985	4.991	0.483
240.000	199.234	80.003	19.996	103.268	19.984	5.081	0.497
242.000	200.203	79.999	19.995	103.269	19.979	5.405	0.486
244.000	201.208	79.993	19.995	103.278	19.981	5.318	0.493
246.000	202.168	79.993	19.995	103.291	19.983	5.157	0.482
248.000	203.154	79.999	19.995	103.290	19.983	5.146	0.516
250.000	204.125	79.999	19.994	103.282	19.984	5.096	0.497
252.000	205.133	79.999	19.994	103.269	19.984	5.031	0.481
254.000	206.088	80.001	19.993	103.267	19.980	5.324	0.482
256.000	207.114	80.000	19.993	103.288	19.982	5.240	0.492
258.000	208.124	79.988	19.994	103.266	19.980	5.327	0.511
260.000	209.097	80.001	19.996	103.270	19.978	5.520	0.493
262.000	210.078	79.991	19.995	103.273	19.976	5.673	0.521
264.000	211.151	79.992	19.995	103.267	19.972	5.974	0.509
266.000	212.105	80.000	19.995	103.268	19.974	5.834	0.482
268.000	213.114	79.998	19.995	103.254	19.971	6.004	0.481
270.000	214.082	80.012	19.993	103.259	19.972	5.980	0.481
272.000	215.110	79.999	19.995	103.264	19.972	5.949	0.508
274.000	216.119	80.005	19.994	103.268	19.973	5.886	0.511
276.000	217.091	80.004	19.995	103.266	19.970	6.127	0.525
278.000	218.061	79.999	19.996	103.271	19.968	6.271	0.479
280.000	219.089	80.000	19.996	103.265	19.968	6.231	0.490
282.000	220.101	80.012	19.993	103.266	19.964	6.578	0.512
284.000	221.065	80.010	19.994	103.263	19.962	6.708	0.517
286.000	222.064	80.010	19.995	103.261	19.963	6.648	0.527
288.000	223.080	80.001	19.995	103.273	19.966	6.417	0.482
290.000	224.044	79.998	19.995	103.263	19.960	6.848	0.477
292.000	225.041	79.998	19.994	103.260	19.957	7.078	0.515
294.000	226.077	79.994	19.997	103.259	19.959	6.948	0.500
296.000	227.066	80.000	19.994	103.262	19.957	7.116	0.469
298.000	228.081	79.989	19.996	103.260	19.957	7.061	0.536
300.000	229.096	79.999	19.995	103.256	19.953	7.397	0.521
302.000	230.097	79.998	19.995	103.267	19.953	7.354	0.506
304.000	231.091	80.005	19.993	103.263	19.957	7.086	0.475
306.000	232.091	79.998	19.993	103.264	19.952	7.436	0.512
308.000	233.057	79.990	19.995	103.262	19.948	7.780	0.471
310.000	234.076	79.997	19.993	103.266	19.946	7.946	0.507
312.000	235.080	80.018	19.992	103.285	19.943	8.128	0.493
314.000	236.049	79.993	19.996	103.272	19.941	8.281	0.508
316.000	237.059	80.010	19.993	103.266	19.941	8.287	0.470
318.000	238.073	80.028	19.992	103.269	19.936	8.650	0.510
320.000	239.036	80.004	19.993	103.275	19.933	8.883	0.492
322.000	239.971	79.995	19.995	103.272	19.935	8.737	0.460
324.000	241.007	80.001	19.994	103.268	19.931	9.078	0.476
326.000	241.984	80.014	19.991	103.268	19.932	8.981	0.489
328.000	242.981	79.992	19.994	103.274	19.927	9.371	0.482
330.000	244.033	80.007	19.994	103.296	19.923	9.611	0.505
332.000	244.970	80.005	19.993	103.286	19.921	9.785	0.494
334.000	245.960	80.006	19.993	103.299	19.922	9.696	0.489
336.000	246.993	80.007	19.993	103.298	19.919	9.907	0.512
338.000	248.022	79.999	19.994	103.278	19.916	10.143	0.505
340.000	249.024	80.004	19.995	103.273	19.914	10.315	0.514
342.000	250.059	80.001	19.994	103.271	19.911	10.574	0.535
344.000	251.071	80.002	19.993	103.274	19.907	10.879	0.515
346.000	252.062	79.998	19.994	103.255	19.903	11.165	0.510
348.000	253.061	79.999	19.994	103.261	19.903	11.178	0.521
350.000	254.059	80.000	19.994	103.275	19.899	11.440	0.494
352.000	255.117	79.991	19.994	103.288	19.898	11.484	0.541
354.000	256.121	80.005	19.995	103.274	19.894	11.823	0.495
356.000	257.082	80.007	19.995	103.292	19.892	11.986	0.512
358.000	258.073	79.996	19.995	103.282	19.887	12.330	0.501
360.000	259.113	79.994	19.996	103.280	19.885	12.513	0.543
362.000	260.124	79.999	19.994	103.284	19.878	13.050	0.494
364.001	261.137	80.003	19.994	103.285	19.874	13.341	0.501
366.000	262.165	80.004	19.993	103.288	19.868	13.762	0.539
368.000	263.148	80.002	19.994	103.292	19.864	14.065	0.505
370.000	264.169	80.009	19.992	103.297	19.860	14.413	0.513
372.000	265.186	80.011	19.993	103.277	19.857	14.616	0.546
374.000	266.186	80.012	19.994	103.288	19.849	15.220	0.516
376.000	267.218	79.994	19.994	103.299	19.846	15.405	0.506
378.000	268.177	79.993	19.995	103.306	19.839	15.921	0.491
380.000	269.192	80.003	19.995	103.308	19.834	16.310	0.518
382.000	270.203	80.003	19.995	103.302	19.831	16.565	0.525
384.000	271.220	79.999	19.996	103.299	19.824	17.105	0.501
386.000	272.226	79.995	19.995	103.307	19.821	17.323	0.514
388.000	273.216	79.992	19.995	103.302	19.814	17.852	0.490
390.000	274.262	79.994	19.996	103.300	19.806	18.447	0.535
392.000	275.250	80.002	19.996	103.305	19.803	18.640	0.522
394.000	276.302	79.993	19.993	103.313	19.792	19.528	0.541
396.000	277.248	79.998	19.996	103.313	19.792	19.484	0.512
398.000	278.260	79.991	19.995	103.325	19.780	20.396	0.511
400.000	279.276	80.001	19.995	103.322	19.775	20.792	0.542
402.000	280.281	79.997	19.995	103.307	19.767	21.337	0.483
404.000	281.291	79.993	19.994	103.325	19.764	21.600	0.488
406.000	282.262	80.014	19.992	103.333	19.755	22.280	0.498
408.000	283.265	79.993	19.997	103.344	19.748	22.791	0.513
410.000	284.299	79.988	19.998	103.339	19.740	23.405	0.484
412.000	285.281	79.997	19.994	103.340	19.733	23.961	0.504
414.000	286.268	79.983	19.997	103.346	19.726	24.457	0.482
416.000	287.305	79.999	19.995	103.342	19.719	24.991	0.496
418.000	288.345	80.006	19.994	103.338	19.712	25.498	0.519
420.000	289.300	79.994	19.995	103.341	19.704	26.100	0.507
422.000	290.352	80.007	19.993	103.343	19.695	26.788	0.518
424.000	291.313	80.002	19.995	103.347	19.684	27.623	0.494
426.000	292.280	79.996	19.997	103.352	19.676	28.185	0.495
428.000	293.374	80.019	19.993	103.358	19.672	28.507	0.527
430.000	294.336	80.001	19.996	103.374	19.662	29.245	0.479
432.000	295.402	80.006	19.995	103.355	19.653	29.973	0.523
434.000	296.384	79.999	19.994	103.355	19.646	30.485	0.531
436.000	297.408	80.009	19.993	103.364	19.637	31.138	0.509
438.000	298.403	79.994	19.995	103.372	19.625	32.056	0.492
440.000	299.371	79.994	19.996	103.377	19.620	32.456	0.489
442.000	300.365	80.008	19.994	103.375	19.610	33.188	0.490
444.000	301.374	79.989	19.995	103.388	19.602	33.804	0.510
446.000	302.390	80.011	19.993	103.382	19.591	34.638	0.512
448.000	303.375	79.999	19.993	103.385	19.582	35.292	0.508
450.000	304.359	80.014	19.994	103.383	19.574	35.895	0.487
452.000	305.335	79.997	19.995	103.385	19.564	36.641	0.462
454.000	306.364	80.002	19.996	103.384	19.556	37.242	0.519
456.000	307.405	80.009	19.993	103.395	19.542	38.318	0.494
458.000	308.395	79.996	19.996	103.402	19.537	38.659	0.508
460.000	309.411	80.008	19.993	103.409	19.527	39.416	0.528
462.000	310.416	80.005	19.993	103.417	19.517	40.219	0.501
464.000	311.384	80.003	19.993	103.404	19.504	41.150	0.480
466.000	312.425	79.999	19.995	103.391	19.494	41.929	0.515
468.000	313.495	80.004	19.992	103.395	19.482	42.794	0.533
470.000	314.461	79.990	19.996	103.415	19.471	43.626	0.486
472.000	315.505	80.005	19.994	103.417	19.464	44.190	0.497
474.000	316.477	79.996	19.996	103.418	19.454	44.913	0.487
476.000	317.479	79.988	19.996	103.404	19.443	45.794	0.505
478.000	318.508	79.998	19.995	103.417	19.434	46.442	0.502
480.000	319.495	80.006	19.994	103.418	19.421	47.455	0.483
482.000	320.522	80.003	19.995	103.428	19.410	48.277	0.505
484.000	321.528	80.008	19.994	103.446	19.401	48.946	0.526
486.000	322.522	79.997	19.996	103.436	19.390	49.786	0.501
488.000	323.513	79.999	19.996	103.435	19.375	50.893	0.477
490.000	324.567	80.009	19.993	103.447	19.369	51.345	0.477
492.000	325.530	79.997	19.994	103.440	19.353	52.561	0.492
494.000	326.573	79.997	19.995	103.443	19.345	53.128	0.507
496.000	327.621	79.997	19.994	103.453	19.329	54.391	0.518
498.000	328.590	80.022	19.991	103.443	19.318	55.187	0.535
500.000	329.595	80.003	19.996	103.468	19.306	56.101	0.528
502.000	330.662	80.013	19.993	103.466	19.294	56.986	0.503
504.000	331.658	79.999	19.996	103.459	19.279	58.124	0.525
506.000	332.679	79.988	19.996	103.467	19.268	58.996	0.518
508.000	333.688	80.008	19.994	103.476	19.258	59.722	0.470
510.000	334.716	80.012	19.996	103.472	19.247	60.555	0.495
512.000	335.744	79.988	19.996	103.485	19.237	61.270	0.472
514.000	336.756	79.995	19.994	103.494	19.231	61.767	0.490
516.000	337.737	80.000	19.994	103.495	19.219	62.681	0.505
518.000	338.757	79.986	19.996	103.498	19.211	63.246	0.482
520.000	339.731	80.006	19.994	103.496	19.199	64.160	0.481
522.000	340.791	80.006	19.993	103.495	19.198	64.258	0.535
524.000	341.815	80.001	19.992	103.493	19.187	65.036	0.513
526.000	342.798	79.993	19.994	103.486	19.185	65.192	0.504
528.000	343.797	80.001	19.995	103.497	19.178	65.740	0.492
530.000	344.835	80.001	19.994	103.486	19.170	66.327	0.506
532.000	345.838	80.006	19.994	103.487	19.169	66.412	0.494
534.000	346.842	79.994	19.995	103.484	19.168	66.481	0.486
536.000	347.856	80.010	19.993	103.465	19.167	66.574	0.515
538.000	348.820	79.998	19.994	103.489	19.164	66.742	0.470
540.000	349.863	80.010	19.995	103.472	19.166	66.597	0.510
542.000	350.905	80.002	19.995	103.471	19.171	66.205	0.527
544.000	351.905	80.008	19.993	103.472	19.173	66.032	0.492
546.000	352.944	80.005	19.995	103.460	19.176	65.839	0.535
548.000	353.973	79.998	19.995	103.458	19.184	65.228	0.520
550.000	354.940	79.991	19.996	103.458	19.193	64.575	0.498
552.000	355.992	80.000	19.994	103.446	19.202	63.838	0.515
554.000	356.976	79.999	19.995	103.429	19.214	62.979	0.511
556.000	358.027	79.997	19.996	103.421	19.227	61.956	0.515
558.000	358.991	80.005	19.994	103.417	19.242	60.841	0.497
560.000	359.966	79.999	19.995	103.416	19.259	59.555	0.489
562.000	360.987	80.001	19.995	103.391	19.276	58.278	0.491
564.000	361.982	79.999	19.996	103.390	19.296	56.806	0.522
566.000	363.061	79.995	19.994	103.385	19.320	54.918	0.525
568.000	364.049	80.008	19.996	103.382	19.346	52.990	0.514
570.000	365.051	80.002	19.996	103.359	19.367	51.396	0.483
572.000	366.045	80.014	19.994	103.346	19.392	49.507	0.495
574.000	367.082	79.996	19.996	103.343	19.419	47.468	0.514
576.000	368.055	79.997	19.995	103.331	19.447	45.410	0.499
578.000	369.113	80.010	19.995	103.306	19.473	43.430	0.508
580.000	370.139	79.995	19.995	103.305	19.505	41.051	0.523
582.000	371.106	79.999	19.996	103.304	19.532	38.985	0.519
584.000	372.165	79.990	19.996	103.299	19.561	36.833	0.504
586.000	373.178	80.000	19.993	103.272	19.591	34.539	0.501
588.000	374.214	80.001	19.995	103.269	19.613	32.918	0.504
590.000	375.206	80.000	19.995	103.265	19.644	30.548	0.527
592.000	376.208	80.002	19.995	103.268	19.673	28.422	0.511
594.000	377.297	79.999	19.996	103.255	19.703	26.178	0.512
596.000	378.265	80.006	19.994	103.243	19.726	24.454	0.497
598.000	379.241	80.005	19.993	103.230	19.749	22.721	0.500
600.000	380.302	80.001	19.995	103.225	19.768	21.262	0.550
602.000	381.327	80.002	19.994	103.221	19.791	19.528	0.527
604.000	382.348	79.992	19.996	103.223	19.808	18.298	0.509
606.000	383.316	79.998	19.995	103.225	19.824	17.099	0.505
608.000	384.343	80.000	19.995	103.217	19.841	15.759	0.536
610.000	385.359	79.998	19.994	103.212	19.856	14.641	0.516
612.000	386.388	80.000	19.995	103.196	19.867	13.824	0.528
614.000	387.363	79.999	19.996	103.205	19.879	12.941	0.523
616.000	388.375	80.002	19.994	103.195	19.888	12.243	0.497
618.000	389.400	80.001	19.994	103.191	19.898	11.532	0.521
620.000	390.396	79.994	19.994	103.190	19.907	10.864	0.490
622.000	391.418	79.999	19.994	103.189	19.910	10.644	0.528
624.000	392.467	80.002	19.994	103.191	19.919	9.970	0.546
626.000	393.465	80.003	19.994	103.196	19.924	9.558	0.516
628.000	394.474	79.997	19.995	103.198	19.927	9.360	0.519
630.000	395.518	80.000	19.995	103.192	19.931	9.003	0.506
632.000	396.534	80.016	19.993	103.189	19.935	8.761	0.494
634.000	397.523	80.009	19.994	103.198	19.939	8.445	0.496
636.000	398.556	80.004	19.994	103.196	19.937	8.564	0.524
638.000	399.571	80.015	19.993	103.197	19.940	8.379	0.536
640.000	400.582	79.996	19.997	103.193	19.943	8.103	0.526
642.000	401.565	80.003	19.995	103.187	19.943	8.161	0.498
644.000	402.597	80.000	19.994	103.188	19.943	8.120	0.506
646.000	403.606	80.000	19.995	103.193	19.946	7.940	0.490
648.000	404.604	79.994	19.995	103.194	19.950	7.578	0.482
650.000	405.594	80.005	19.994	103.193	19.950	7.614	0.463
652.000	406.606	79.995	19.995	103.192	19.952	7.419	0.490
654.000	407.616	79.993	19.994	103.192	19.956	7.154	0.491
656.000	408.633	79.996	19.996	103.194	19.955	7.225	0.505
658.000	409.623	79.985	19.997	103.184	19.959	6.959	0.521
660.000	410.613	79.990	19.997	103.190	19.957	7.061	0.510
662.000	411.640	80.011	19.995	103.190	19.955	7.267	0.514
664.000	412.631	79.999	19.997	103.177	19.954	7.338	0.488
666.000	413.606	79.992	19.997	103.184	19.959	6.951	0.515
668.000	414.600	79.996	19.997	103.194	19.960	6.841	0.502
670.000	415.621	79.998	19.995	103.213	19.958	7.006	0.484
672.000	416.633	80.002	19.996	103.194	19.961	6.816	0.529
674.000	417.611	80.002	19.995	103.194	19.959	6.965	0.506
676.000	418.570	80.001	19.995	103.182	19.965	6.496	0.475
678.000	419.568	79.998	19.995	103.184	19.964	6.550	0.478
680.000	420.629	79.997	19.997	103.184	19.966	6.381	0.535
682.000	421.599	80.000	19.995	103.189	19.966	6.442	0.464
684.000	422.614	80.004	19.995	103.196	19.964	6.536	0.519
686.000	423.621	80.003	19.993	103.187	19.964	6.571	0.505
688.000	424.637	79.999	19.995	103.186	19.968	6.239	0.532
690.000	425.662	80.002	19.995	103.177	19.968	6.269	0.510
692.001	426.689	79.996	19.994	103.189	19.968	6.282	0.514
694.000	427.700	80.003	19.993	103.186	19.970	6.127	0.511
696.000	428.698	79.998	19.995	103.185	19.969	6.160	0.515
698.000	429.695	80.000	19.994	103.185	19.972	5.990	0.499
700.000	430.696	80.002	19.994	103.193	19.972	5.961	0.484
702.000	431.741	79.998	19.994	103.192	19.972	5.947	0.516
704.000	432.775	80.001	19.995	103.197	19.975	5.742	0.536
706.000	433.808	79.998	19.995	103.190	19.973	5.907	0.517
708.000	434.833	79.999	19.996	103.187	19.973	5.846	0.501
710.000	435.813	79.997	19.995	103.188	19.974	5.817	0.492
712.000	436.860	79.998	19.995	103.190	19.973	5.866	0.517
714.000	437.866	79.997	19.995	103.188	19.981	5.279	0.512
716.000	438.852	79.998	19.993	103.189	19.982	5.226	0.505
718.000	439.892	79.998	19.994	103.185	19.980	5.338	0.537
720.000	440.910	79.999	19.995	103.189	19.983	5.098	0.518
722.000	441.902	79.999	19.994	103.196	19.982	5.221	0.517
724.000	442.919	80.002	19.995	103.190	19.984	5.069	0.514
726.000	443.962	80.000	19.995	103.204	19.986	4.941	0.533
728.000	444.937	79.999	19.996	103.182	19.981	5.301	0.493
730.000	445.995	79.998	19.996	103.182	19.983	5.132	0.556
732.000	446.939	79.996	19.997	103.175	19.983	5.161	0.523
734.000	447.924	79.999	19.996	103.181	19.984	5.046	0.472
736.000	448.912	80.000	19.996	103.182	19.985	4.960	0.487
738.000	449.940	79.998	19.995	103.185	19.984	5.040	0.518
740.000	450.877	79.999	19.995	103.185	19.988	4.787	0.482
742.000	451.875	79.999	19.994	103.186	19.987	4.799	0.487
744.000	452.857	80.000	19.994	103.187	19.989	4.651	0.475
746.000	453.867	80.001	19.995	103.184	19.990	4.622	0.490
748.000	454.867	80.002	19.995	103.184	19.994	4.287	0.503
750.000	455.835	80.003	19.995	103.184	19.986	4.868	0.486
752.000	456.839	80.000	19.997	103.183	19.991	4.524	0.472
754.000	457.824	80.000	19.996	103.181	19.992	4.442	0.492
756.000	458.789	79.999	19.995	103.182	19.989	4.684	0.469
758.000	459.832	79.999	19.997	103.180	19.991	4.561	0.478
760.000	460.825	79.998	19.995	103.184	19.992	4.459	0.517
762.000	461.821	79.999	19.995	103.186	19.992	4.486	0.501
764.000	462.763	79.998	19.997	103.186	19.994	4.298	0.467
766.000	463.797	79.999	19.995	103.186	19.994	4.304	0.495
768.000	464.768	79.999	19.995	103.189	19.992	4.471	0.512
770.000	465.724	79.999	19.994	103.190	19.993	4.400	0.515
772.000	466.715	80.002	19.994	103.186	19.992	4.432	0.499
774.000	467.716	80.002	19.993	103.188	19.994	4.279	0.484
776.000	468.706	80.002	19.993	103.187	19.990	4.595	0.477
778.000	469.721	80.003	19.994	103.186	19.996	4.187	0.519
780.000	470.670	80.003	19.995	103.173	19.992	4.469	0.471
782.000	471.687	80.002	19.994	103.177	19.991	4.563	0.490
784.000	472.690	80.000	19.994	103.185	19.995	4.264	0.482
786.000	473.691	79.999	19.995	103.188	19.993	4.400	0.499
788.000	474.729	80.000	19.995	103.187	19.993	4.384	0.503
790.000	475.750	79.999	19.994	103.185	19.997	4.058	0.494
792.000	476.748	79.999	19.994	103.183	19.998	3.983	0.479
794.000	477.758	79.999	19.996	103.182	19.998	3.997	0.508
796.000	478.796	80.000	19.996	103.185	19.997	4.047	0.536
798.000	479.802	79.999	19.995	103.186	19.999	3.897	0.491
800.000	480.808	80.001	19.995	103.185	20.000	3.844	0.492
802.000	481.825	80.002	19.995	103.191	20.002	3.725	0.485
804.000	482.875	80.001	19.994	103.187	20.003	3.629	0.533
806.000	483.886	80.001	19.993	103.186	20.004	3.581	0.476
808.000	484.928	79.999	19.994	103.185	20.005	3.477	0.519
810.000	485.943	80.001	19.994	103.177	20.005	3.466	0.505
812.000	486.969	80.001	19.994	103.185	20.004	3.527	0.508
814.000	488.013	80.002	19.993	103.181	20.004	3.562	0.518
816.000	489.102	80.000	19.995	103.177	20.005	3.498	0.537
818.000	490.169	79.999	19.995	103.182	20.001	3.769	0.527
820.000	491.197	79.999	19.995	103.182	20.004	3.548	0.524
822.000	492.259	80.000	19.995	103.184	20.002	3.726	0.520
824.000	493.294	80.000	19.995	103.179	20.006	3.412	0.514
826.000	494.350	80.000	19.996	103.183	20.007	3.330	0.531
828.000	495.370	80.001	19.995	103.183	20.011	2.992	0.519
830.000	496.451	80.000	19.994	103.172	20.007	3.303	0.545
832.000	497.464	80.005	19.996	103.187	20.004	3.525	0.501
834.000	498.582	80.000	19.995	103.188	20.005	3.468	0.540
836.000	499.601	80.001	19.995	103.188	20.007	3.305	0.542
838.000	500.661	80.001	19.995	103.165	20.008	3.266	0.515
840.000	501.692	80.001	19.993	103.179	20.006	3.408	0.531
842.000	502.723	80.002	19.996	103.186	20.004	3.516	0.495
844.000	503.756	80.000	19.994	103.182	20.005	3.443	0.514
846.000	504.779	80.000	19.994	103.181	20.007	3.295	0.511
848.000	505.841	80.002	19.995	103.178	20.005	3.449	0.532
850.000	506.877	80.001	19.995	103.187	20.011	3.021	0.518
852.000	507.939	80.002	19.996	103.185	20.011	3.046	0.519
854.000	508.982	80.001	19.995	103.176	20.012	2.960	0.533
856.000	509.995	80.003	19.995	103.180	20.014	2.793	0.520
858.000	511.032	80.003	19.996	103.177	20.016	2.689	0.517
860.000	512.089	80.003	19.995	103.172	20.014	2.766	0.492
862.000	513.115	80.004	19.995	103.180	20.016	2.647	0.508
864.000	514.183	80.001	19.995	103.160	20.015	2.697	0.530
866.000	515.241	80.002	19.995	103.157	20.015	2.751	0.508
868.000	516.306	80.001	19.995	103.170	20.015	2.760	0.518
870.000	517.333	80.001	19.994	103.178	20.014	2.824	0.510
872.000	518.427	80.001	19.995	103.183	20.012	2.926	0.563
874.000	519.439	80.000	19.995	103.170	20.015	2.718	0.506
876.000	520.475	80.001	19.995	103.156	20.012	2.960	0.521
878.000	521.515	79.999	19.994	103.182	20.013	2.885	0.489
880.000	522.541	80.000	19.996	103.176	20.017	2.605	0.538
882.000	523.548	79.999	19.995	103.160	20.015	2.703	0.517
884.000	524.544	80.000	19.995	103.152	20.017	2.549	0.496
886.000	525.574	79.998	19.995	103.158	20.014	2.805	0.495
888.000	526.569	80.000	19.995	103.159	20.015	2.728	0.499
890.000	527.606	80.000	19.994	103.153	20.015	2.708	0.501
892.000	528.654	80.001	19.995	103.162	20.017	2.607	0.495
894.000	529.652	79.999	19.995	103.171	20.017	2.576	0.482
896.000	530.671	80.000	19.995	103.163	20.016	2.653	0.503
898.000	531.725	80.000	19.996	103.161	20.015	2.703	0.515
900.000	532.716	79.998	19.994	103.160	20.014	2.812	0.488
902.000	533.753	80.001	19.994	103.178	20.013	2.841	0.540
904.000	534.782	79.999	19.995	103.159	20.014	2.810	0.503
906.000	535.796	79.998	19.994	103.155	20.013	2.908	0.504
908.000	536.794	80.000	19.994	103.157	20.016	2.640	0.478
910.000	537.831	80.001	19.995	103.159	20.014	2.837	0.489
912.000	538.847	80.000	19.995	103.171	20.016	2.665	0.549
914.000	539.850	80.000	19.995	103.168	20.017	2.588	0.486
916.000	540.831	80.001	19.995	103.155	20.017	2.600	0.508
918.000	541.880	80.002	19.995	103.153	20.013	2.849	0.519
920.000	542.848	80.001	19.995	103.175	20.015	2.732	0.505
922.000	543.898	80.001	19.996	103.162	20.016	2.642	0.498
924.000	544.874	80.001	19.995	103.155	20.013	2.855	0.503
926.000	545.875	79.999	19.997	103.154	20.015	2.764	0.451
928.000	546.864	79.998	19.994	103.147	20.016	2.663	0.504
930.000	547.895	80.001	19.995	103.149	20.011	3.010	0.467
932.000	548.881	80.002	19.994	103.146	20.016	2.676	0.450
934.000	549.925	80.000	19.996	103.151	20.017	2.578	0.483
936.000	550.923	79.999	19.994	103.174	20.022	2.196	0.533
938.000	552.010	80.004	19.996	103.171	20.007	3.352	0.535
940.000	553.005	79.999	19.995	103.153	20.006	3.400	0.573
942.000	553.983	80.002	19.996	103.159	20.016	2.680	0.509
944.000	555.016	80.000	19.995	103.153	20.015	2.699	0.444
946.000	556.021	80.002	19.995	103.173	20.015	2.726	0.509
948.000	557.120	80.000	19.995	103.156	20.014	2.822	0.472
950.000	558.313	80.000	19.996	103.149	20.011	3.040	0.421
952.000	559.413	80.000	19.997	103.145	20.014	2.837	1.377
954.000	560.419	80.000	19.995	103.150	20.011	2.998	1.053
956.000	561.351	79.998	19.995	103.155	20.013	2.912	0.718
958.000	562.205	79.999	19.995	103.151	20.012	2.918	0.605
960.000	563.222	79.998	19.995	103.174	20.012	2.979	0.638
962.000	564.306	80.000	19.994	103.177	20.014	2.821	0.496
964.000	565.180	80.000	19.994	103.165	20.012	2.963	0.421
966.000	566.265	79.999	19.995	103.170	20.015	2.697	0.471
968.000	567.286	80.000	19.993	103.148	20.014	2.796	0.477
970.000	568.301	79.998	19.993	103.148	20.011	3.029	0.477
972.000	569.334	80.000	19.994	103.176	20.015	2.693	0.529
974.000	570.348	79.999	19.994	103.186	20.016	2.680	0.518
976.000	571.334	79.998	19.994	103.164	20.014	2.787	0.471
978.000	572.400	79.998	19.994	103.174	20.017	2.609	0.507
980.000	573.444	79.999	19.993	103.179	20.017	2.593	0.497
982.000	574.493	80.001	19.995	103.165	20.017	2.593	0.527
984.000	575.528	79.999	19.994	103.184	20.018	2.513	0.548
986.000	576.544	80.000	19.994	103.170	20.019	2.407	0.519
988.000	577.573	80.001	19.995	103.166	20.021	2.246	0.500
990.000	578.571	79.998	19.993	103.169	20.019	2.398	0.492
992.000	579.574	80.002	19.995	103.179	20.020	2.342	0.528
994.000	580.637	80.002	19.994	103.181	20.018	2.521	0.505
996.000	581.631	80.002	19.993	103.172	20.017	2.613	0.489
998.000	582.680	80.002	19.996	103.169	20.016	2.665	0.485
1000.001	583.731	80.002	19.994	103.157	20.020	2.329	0.556
1002.000	584.697	80.000	19.993	103.171	20.018	2.502	0.504
1004.000	585.736	80.001	19.993	103.154	20.019	2.425	0.522
1006.000	586.723	80.000	19.995	103.165	20.018	2.500	0.490
1008.000	587.747	79.999	19.994	103.156	20.018	2.477	0.508
1010.000	588.764	80.002	19.995	103.152	20.019	2.400	0.545
1012.000	589.759	80.001	19.995	103.165	20.015	2.728	0.475
1014.000	590.799	80.001	19.996	103.148	20.019	2.427	0.510
1016.000	591.793	80.000	19.996	103.146	20.015	2.691	0.504
1018.000	592.818	80.001	19.995	103.146	20.014	2.827	0.520
1020.000	593.909	80.001	19.995	103.143	20.014	2.791	0.523
1022.000	594.906	80.000	19.995	103.148	20.014	2.795	0.515
1024.001	595.930	80.002	19.995	103.152	20.014	2.768	0.516
1026.001	596.964	80.002	19.996	103.158	20.015	2.726	0.508
1028.000	597.980	80.003	19.995	103.178	20.015	2.695	0.523
1030.000	598.979	79.999	19.994	103.184	20.016	2.638	0.492
1032.000	600.015	79.998	19.996	103.180	20.016	2.688	0.503
1034.000	601.045	79.999	19.995	103.161	20.016	2.649	0.498
1036.000	602.113	80.000	19.996	103.154	20.017	2.593	0.542
1038.000	603.143	80.000	19.996	103.159	20.019	2.444	0.519
1040.000	604.196	79.998	19.995	103.169	20.017	2.559	0.499
1042.000	605.221	79.999	19.996	103.153	20.017	2.601	0.513
1044.000	606.237	80.000	19.996	103.165	20.020	2.369	0.520
1046.000	607.316	80.001	19.996	103.170	20.020	2.388	0.520
1048.000	608.350	80.000	19.995	103.170	20.017	2.561	0.523
1050.000	609.462	80.001	19.994	103.148	20.020	2.381	0.508
1052.001	610.516	80.000	19.996	103.150	20.023	2.124	0.525
1054.000	611.540	80.000	19.995	103.163	20.023	2.162	0.518
1056.000	612.621	79.999	19.994	103.165	20.019	2.400	0.548
1058.000	613.697	80.001	19.994	103.160	20.023	2.162	0.548
1060.000	614.747	80.000	19.994	103.159	20.021	2.298	0.541
1062.000	615.781	80.000	19.993	103.162	20.024	2.037	0.503
1064.000	616.818	80.000	19.994	103.170	20.022	2.231	0.530
1066.000	617.878	79.999	19.996	103.158	20.023	2.095	0.504
1068.000	618.913	79.999	19.995	103.152	20.021	2.304	0.541
1070.000	619.922	80.001	19.995	103.150	20.023	2.154	0.482
1072.000	621.011	80.000	19.995	103.150	20.020	2.333	0.544
1074.000	622.023	80.003	19.994	103.157	20.020	2.356	0.506
1076.001	623.075	80.002	19.995	103.147	20.022	2.173	0.512
1078.001	624.111	80.006	19.992	103.149	20.021	2.281	0.489
1080.000	625.153	80.003	19.994	103.153	20.020	2.342	0.512
1082.000	626.168	80.004	19.993	103.164	20.019	2.440	0.518
1084.000	627.177	80.000	19.995	103.158	20.018	2.478	0.515
1086.001	628.239	80.001	19.993	103.172	20.025	1.999	0.528
1088.000	629.243	80.000	19.994	103.162	20.020	2.377	0.487
1090.000	630.252	80.001	19.993	103.162	20.021	2.254	0.476
1092.000	631.244	80.001	19.995	103.159	20.019	2.423	0.481
1094.000	632.324	80.003	19.995	103.169	20.016	2.684	0.509
1096.000	633.388	80.001	19.993	103.154	20.019	2.463	0.555
1098.000	634.408	80.001	19.995	103.153	20.017	2.563	0.521
1100.000	635.461	80.002	19.995	103.149	20.016	2.684	0.551
1102.000	636.442	80.002	19.997	103.155	20.014	2.778	0.486
1104.000	637.512	80.002	19.993	103.151	20.018	2.540	0.516
1106.000	638.491	79.999	19.995	103.150	20.017	2.613	0.489
1108.000	639.500	79.999	19.991	103.156	20.015	2.690	0.500
1110.001	640.552	80.001	19.995	103.154	20.012	2.920	0.520
1112.000	641.552	79.999	19.993	103.152	20.019	2.437	0.504
1114.001	642.557	79.999	19.997	103.156	20.017	2.607	0.515
1116.001	643.578	79.998	19.996	103.154	20.017	2.573	0.527
1118.001	644.612	79.999	19.996	103.150	20.021	2.245	0.496
1120.000	645.589	80.001	19.994	103.147	20.019	2.418	0.485
1122.000	646.605	80.000	19.998	103.142	20.019	2.393	0.518
1124.000	647.643	79.997	19.988	103.144	20.019	2.463	0.512
1126.000	648.673	79.997	19.997	103.146	20.019	2.452	0.540
1128.000	649.644	80.001	19.995	103.145	20.021	2.289	0.522
1130.000	650.647	79.995	20.000	103.141	20.017	2.552	0.516
1132.000	651.706	79.996	20.001	103.139	20.015	2.715	0.528
1134.000	652.743	79.999	19.997	103.145	20.017	2.542	0.526
1136.000	653.774	79.999	19.996	103.151	20.020	2.331	0.528
1138.001	654.763	80.001	19.996	103.148	20.018	2.500	0.503
1140.000	655.826	79.999	19.995	103.147	20.017	2.580	0.492
1142.000	656.836	79.999	20.000	103.145	20.019	2.440	0.502
1144.000	657.903	80.000	19.995	103.150	20.012	2.953	0.509
1146.000	658.869	79.998	19.996	103.146	20.012	2.924	0.496
1148.001	659.943	80.000	19.994	103.146	20.015	2.705	0.503
1150.000	661.017	80.001	19.995	103.152	20.019	2.462	0.557
1152.001	662.034	80.001	19.995	103.153	20.020	2.327	0.513
1154.001	663.070	80.001	19.994	103.151	20.019	2.444	0.521
1156.000	664.072	80.001	19.994	103.149	20.017	2.573	0.504
1158.000	664.574	80.003	19.993	103.144	20.013	2.853	0.244
1160.000	665.479	80.001	19.994	103.146	20.016	2.622	0.158
1162.001	667.110	80.001	19.994	103.146	20.020	2.325	0.494
1164.000	668.182	80.001	19.994	103.148	20.018	2.486	0.513
1166.001	669.217	80.000	19.995	103.148	20.018	2.480	0.518
1168.000	670.195	80.001	19.995	103.146	20.016	2.616	0.512
1170.001	671.228	80.000	19.993	103.154	20.014	2.835	0.497
1172.000	672.278	80.001	19.993	103.153	20.014	2.767	0.537
1174.000	673.293	80.001	19.989	103.153	20.014	2.776	0.515
1176.001	674.375	80.009	19.988	103.162	20.017	2.558	0.543
1178.000	675.379	79.997	20.001	103.178	20.017	2.546	0.480
1180.000	676.395	80.007	19.993	103.170	20.020	2.364	0.492
1182.000	677.371	80.004	19.994	103.148	20.019	2.391	0.484
1184.001	678.425	80.001	19.992	103.148	20.019	2.400	0.446
1186.001	679.417	79.998	19.998	103.148	20.014	2.818	0.520
1188.000	680.439	80.001	19.994	103.139	20.017	2.567	0.516
1190.000	681.531	80.002	19.995	103.136	20.013	2.861	0.536
1192.000	682.555	79.997	19.993	103.142	20.014	2.774	0.530
1194.000	683.561	80.001	19.994	103.143	20.018	2.540	0.495
1196.000	684.552	80.000	19.995	103.150	20.020	2.373	0.525
1198.000	685.555	80.000	19.996	103.148	20.016	2.667	0.528
1200.000	686.535	79.997	19.999	103.147	20.015	2.747	0.468
1202.000	687.508	79.997	20.000	103.144	20.011	2.997	0.512
1204.000	688.523	80.001	19.995	103.143	20.015	2.764	0.473
1206.000	689.494	79.999	19.994	103.158	20.012	2.920	0.545
1208.001	690.527	79.999	19.996	103.146	20.015	2.701	0.530
1210.000	691.520	80.001	19.995	103.146	20.013	2.899	0.501
1212.000	692.533	80.000	19.994	103.146	20.012	2.947	0.484
1214.000	693.515	80.001	19.994	103.150	20.017	2.571	0.475
1216.000	694.470	80.002	19.999	103.161	20.014	2.832	0.461
1218.000	695.499	79.996	20.000	103.154	20.015	2.697	0.520
1220.001	696.551	79.998	19.995	103.145	20.012	2.951	0.512
1222.001	697.566	79.998	19.998	103.146	20.014	2.830	0.551
1224.000	698.580	79.999	19.999	103.145	20.015	2.759	0.488
1226.000	699.632	79.996	19.998	103.143	20.011	3.047	0.513
1228.000	700.632	79.998	19.997	103.151	20.012	2.989	0.523
1230.001	701.671	79.999	19.994	103.146	20.018	2.475	0.512
1232.000	702.700	80.005	19.993	103.143	20.012	2.924	0.519
1234.000	703.702	80.000	19.990	103.150	20.013	2.889	0.499
1236.000	704.721	80.003	19.991	103.150	20.016	2.634	0.542
1238.001	705.768	80.001	19.992	103.151	20.013	2.870	0.529
1240.000	706.761	80.004	19.988	103.154	20.015	2.709	0.530
1242.001	707.761	80.002	19.993	103.154	20.014	2.772	0.472
1244.001	708.832	80.004	19.994	103.149	20.014	2.776	0.526
1246.000	709.840	80.001	19.994	103.152	20.013	2.882	0.460
1248.001	710.883	80.002	19.996	103.150	20.015	2.757	0.514
1250.001	711.876	79.998	19.997	103.153	20.010	3.122	0.518
1252.000	712.929	80.003	19.994	103.149	20.012	2.972	0.494
1254.000	713.929	80.005	19.994	103.146	20.012	2.987	0.508
1256.000	714.939	80.000	19.995	103.144	20.012	2.983	0.523
1258.000	715.935	80.002	19.994	103.143	20.016	2.675	0.474
1260.000	716.957	80.001	19.994	103.144	20.014	2.782	0.479
1262.000	717.987	80.005	19.995	103.144	20.014	2.788	0.531
1264.000	718.960	80.001	19.992	103.143	20.013	2.843	0.490
1266.000	719.980	80.010	19.992	103.147	20.011	3.010	0.523
1268.000	720.986	80.005	19.986	103.142	20.013	2.895	0.509
1270.000	721.991	79.997	19.999	103.141	20.010	3.127	0.532
1272.000	723.021	80.006	19.988	103.142	20.012	2.935	0.505
1274.000	724.065	79.998	19.999	103.148	20.013	2.868	0.514
1276.000	725.051	80.002	19.994	103.138	20.017	2.609	0.517
1278.001	726.019	79.998	19.993	103.142	20.014	2.770	0.492
1280.000	727.032	79.999	19.993	103.149	20.012	2.972	0.507
1282.000	727.991	80.001	19.997	103.148	20.010	3.083	0.503
1284.000	729.018	80.000	19.999	103.153	20.017	2.592	0.508
1286.001	730.028	80.003	19.992	103.151	20.013	2.886	0.507
1288.000	731.045	79.999	19.994	103.150	20.011	3.052	0.506
1290.000	732.034	80.001	19.993	103.149	20.012	2.928	0.498
1292.000	733.011	79.999	19.991	103.145	20.010	3.124	0.471
1294.000	734.023	79.999	19.998	103.138	20.012	2.943	0.512
1296.000	734.971	80.001	19.998	103.142	20.010	3.126	0.462
1298.000	736.012	80.005	19.995	103.151	20.012	2.982	0.504
1300.000	737.008	80.002	19.994	103.148	20.009	3.145	0.485
1302.001	737.976	79.998	20.001	103.145	20.010	3.101	0.488
1304.001	739.036	80.003	19.991	103.145	20.009	3.169	0.549
1306.000	740.006	80.000	19.996	103.147	20.010	3.091	0.541
1308.000	741.028	80.004	19.993	103.132	20.006	3.423	0.506
1310.000	742.016	80.000	19.994	103.143	20.006	3.379	0.496
1312.000	743.004	79.999	19.997	103.137	20.011	3.045	0.505
1313.000	743.497	80.003	19.998	103.136	20.013	2.884	0.479