File: 01_Data/Basswood_Panel/STA/N2/10K_min/Basswood_STA_N2_10KData_220315_R3.csv
##Temp./Â°C,Time/min,Mass loss(subtr.)/mg,DSC(subtr.)/(mW/mg),Sensit./(uV/mW)
49.591,10.01,-0.03487,0.01447754,1.07521
50.191,10.72536,-0.03540455,0.0528475,1.0749
50.791,10.91426,-0.03608706,0.07533453,1.07459
51.391,11.05345,-0.03584478,0.09556716,1.07427
51.991,11.17152,-0.03708815,0.11519,1.07396
52.591,11.27684,-0.03796176,0.13037,1.07365
53.191,11.37322,-0.03713451,0.14448,1.07334
53.791,11.46325,-0.03782925,0.1555,1.07302
54.391,11.54878,-0.03725486,0.16653,1.07271
54.991,11.63032,-0.03736633,0.17764,1.0724
55.591,11.70905,-0.03694561,0.18501,1.07209
56.191,11.78575,-0.03655301,0.19224,1.07177
56.791,11.86052,-0.03771133,0.19868,1.07146
57.391,11.9338,-0.03891162,0.20722,1.07115
57.991,12.0054,-0.03799395,0.21314,1.07084
58.591,12.0762,-0.03864124,0.21899,1.07053
59.191,12.14615,-0.03753795,0.22437,1.07021
59.791,12.21563,-0.03910621,0.23026,1.0699
60.391,12.2839,-0.03883434,0.23508,1.06959
60.991,12.35177,-0.04028836,0.23706,1.06928
61.591,12.41906,-0.03907305,0.24035,1.06897
62.191,12.48612,-0.03903063,0.24454,1.06866
62.791,12.5528,-0.03904176,0.24918,1.06834
63.391,12.61899,-0.03903432,0.25185,1.06803
63.991,12.68516,-0.04038503,0.2541,1.06772
64.591,12.75079,-0.04037344,0.25617,1.06741
65.191,12.8162,-0.04133277,0.259,1.0671
65.791,12.8811,-0.04167664,0.26096,1.06679
66.391,12.94603,-0.04147685,0.26441,1.06648
66.991,13.01063,-0.04032202,0.26791,1.06616
67.591,13.07512,-0.04166965,0.27064,1.06585
68.191,13.1394,-0.04131536,0.27347,1.06554
68.791,13.2037,-0.0416881,0.27482,1.06523
69.391,13.2677,-0.0416682,0.27737,1.06492
69.991,13.33167,-0.04164815,0.27982,1.06461
70.591,13.3955,-0.04167324,0.28142,1.0643
71.191,13.4591,-0.04166413,0.28494,1.06399
71.791,13.5227,-0.04299559,0.28718,1.06368
72.391,13.5862,-0.0422656,0.2908,1.06337
72.991,13.64957,-0.04299075,0.29072,1.06306
73.591,13.7129,-0.0433152,0.29317,1.06275
74.191,13.77607,-0.04464848,0.29547,1.06243
74.791,13.8391,-0.04522017,0.30026,1.06212
75.391,13.9019,-0.04423456,0.30062,1.06181
75.991,13.96439,-0.04430687,0.30252,1.0615
76.591,14.0268,-0.04561982,0.3028,1.06119
77.191,14.08925,-0.04562119,0.3059,1.06088
77.791,14.1516,-0.04561787,0.30811,1.06057
78.391,14.2139,-0.04693889,0.30804,1.06026
78.991,14.27622,-0.04829442,0.30862,1.05995
79.591,14.33814,-0.04694504,0.31231,1.05964
80.191,14.4,-0.04694017,0.31257,1.05933
80.791,14.46202,-0.04693483,0.31244,1.05902
81.391,14.524,-0.04834612,0.31528,1.05871
81.991,14.58574,-0.04824313,0.3159,1.0584
82.591,14.6474,-0.04912475,0.31804,1.05809
83.191,14.7088,-0.04820374,0.31974,1.05778
83.791,14.76997,-0.04957998,0.32203,1.05747
84.391,14.83089,-0.04826632,0.32013,1.05717
84.991,14.89163,-0.04904457,0.32266,1.05686
85.591,14.9525,-0.04956994,0.32295,1.05655
86.191,15.01319,-0.0495658,0.32402,1.05624
86.791,15.07419,-0.05088854,0.32485,1.05593
87.391,15.1345,-0.04979275,0.32789,1.05562
87.991,15.19503,-0.05120722,0.3261,1.05531
88.591,15.25544,-0.0512133,0.32697,1.055
89.191,15.31598,-0.05253091,0.32754,1.05469
89.791,15.3761,-0.0521966,0.3286,1.05438
90.391,15.43635,-0.05155393,0.32641,1.05407
90.991,15.49652,-0.05156553,0.3274,1.05376
91.591,15.5567,-0.05240538,0.32725,1.05346
92.191,15.61696,-0.05338512,0.32859,1.05315
92.791,15.67712,-0.05319611,0.32792,1.05284
93.391,15.73679,-0.05351372,0.32371,1.05253
93.991,15.7965,-0.05352001,0.32587,1.05222
94.591,15.8561,-0.05355259,0.32491,1.05191
95.191,15.91562,-0.05352202,0.32491,1.0516
95.791,15.9755,-0.0535164,0.32421,1.0513
96.391,16.03509,-0.05481691,0.32296,1.05099
96.991,16.0946,-0.05483608,0.32469,1.05068
97.591,16.15403,-0.05549188,0.3232,1.05037
98.191,16.21347,-0.05549025,0.3229,1.05006
98.791,16.27282,-0.05477381,0.32087,1.04975
99.391,16.33215,-0.05567609,0.32421,1.04945
99.991,16.39149,-0.0561497,0.32324,1.04914
100.591,16.45064,-0.05483428,0.32123,1.04883
101.191,16.50989,-0.05614998,0.32239,1.04852
101.791,16.56896,-0.05614641,0.32123,1.04821
102.391,16.62807,-0.05751786,0.32203,1.04791
102.991,16.687,-0.05649026,0.32141,1.0476
103.591,16.74599,-0.05685642,0.32168,1.04729
104.191,16.8051,-0.05810296,0.3223,1.04698
104.791,16.86422,-0.05812039,0.32126,1.04668
105.391,16.9234,-0.05689751,0.32229,1.04637
105.991,16.98239,-0.05812935,0.32045,1.04606
106.591,17.04117,-0.05704088,0.32164,1.04575
107.191,17.1003,-0.05813101,0.32303,1.04545
107.791,17.15941,-0.0594398,0.3225,1.04514
108.391,17.21818,-0.05944,0.32059,1.04483
108.991,17.2769,-0.05943952,0.32194,1.04452
109.591,17.3357,-0.06071859,0.32324,1.04422
110.191,17.3944,-0.0594418,0.32275,1.04391
110.791,17.4532,-0.05944001,0.32606,1.0436
111.391,17.51164,-0.05944829,0.32238,1.0433
111.991,17.57009,-0.06075073,0.32297,1.04299
112.591,17.62872,-0.0594391,0.32458,1.04268
113.191,17.68749,-0.05943358,0.32362,1.04237
113.791,17.74631,-0.06075862,0.32444,1.04207
114.391,17.8054,-0.06076055,0.32444,1.04176
114.991,17.86401,-0.0597354,0.32604,1.04145
115.591,17.92296,-0.06138429,0.32388,1.04115
116.191,17.98165,-0.06206991,0.32601,1.04084
116.791,18.04005,-0.06207,0.32617,1.04053
117.391,18.09846,-0.06206931,0.32812,1.04023
117.991,18.157,-0.06072896,0.32709,1.03992
118.591,18.21544,-0.06202493,0.32844,1.03962
119.191,18.27392,-0.06207999,0.32835,1.03931
119.791,18.33229,-0.06208297,0.32933,1.039
120.391,18.39079,-0.06075086,0.32955,1.0387
120.991,18.44915,-0.06142038,0.33013,1.03839
121.591,18.50747,-0.06207027,0.33074,1.03808
122.191,18.5657,-0.06208369,0.33107,1.03778
122.791,18.62399,-0.06077401,0.33274,1.03747
123.391,18.68222,-0.06075658,0.33221,1.03717
123.991,18.74043,-0.06172546,0.33455,1.03686
124.591,18.79864,-0.06043292,0.33538,1.03655
125.191,18.857,-0.06075435,0.33339,1.03625
125.791,18.91532,-0.06083524,0.33512,1.03594
126.391,18.9738,-0.0620805,0.33326,1.03564
126.991,19.03216,-0.0620784,0.33615,1.03533
127.591,19.09064,-0.06338555,0.33561,1.03503
128.191,19.149,-0.06339001,0.33464,1.03472
128.791,19.20736,-0.06342044,0.33752,1.03442
129.391,19.2656,-0.06174391,0.33935,1.03411
129.991,19.3237,-0.06175009,0.33974,1.0338
130.591,19.38195,-0.06189289,0.34023,1.0335
131.191,19.44019,-0.0630608,0.3409,1.03319
131.791,19.4985,-0.0631169,0.34062,1.03289
132.391,19.55676,-0.06306005,0.34348,1.03258
132.991,19.6151,-0.06306,0.34177,1.03228
133.591,19.67315,-0.06306,0.34349,1.03197
134.191,19.73159,-0.06306062,0.34251,1.03167
134.791,19.78967,-0.06436861,0.34302,1.03136
135.391,19.8478,-0.06436976,0.34511,1.03106
135.991,19.90606,-0.06339096,0.3463,1.03075
136.591,19.96419,-0.06438346,0.3465,1.03045
137.191,20.0224,-0.06438,0.35037,1.03014
137.791,20.0807,-0.06437994,0.34807,1.02984
138.391,20.1389,-0.06526997,0.34779,1.02953
138.991,20.19715,-0.06570016,0.34825,1.02923
139.591,20.25521,-0.06709611,0.35047,1.02892
140.191,20.31316,-0.0670404,0.35325,1.02862
140.791,20.37118,-0.06470845,0.35283,1.02831
141.391,20.42908,-0.06601508,0.35392,1.02801
141.991,20.48715,-0.06711034,0.35279,1.02771
142.591,20.54521,-0.06733988,0.35639,1.0274
143.191,20.60324,-0.06733374,0.35636,1.0271
143.791,20.66115,-0.06699056,0.35801,1.02679
144.391,20.71871,-0.06833013,0.35577,1.02649
144.991,20.7764,-0.06832987,0.36021,1.02618
145.591,20.834,-0.06798073,0.35908,1.02588
146.191,20.89188,-0.06701997,0.36142,1.02557
146.791,20.94952,-0.06701987,0.36134,1.02527
147.391,21.00744,-0.06831133,0.35848,1.02497
147.991,21.0654,-0.06832999,0.36139,1.02466
148.591,21.12319,-0.06833,0.36218,1.02436
149.191,21.1812,-0.06833,0.36247,1.02405
149.791,21.23886,-0.06832798,0.36458,1.02375
150.391,21.29644,-0.06964005,0.36366,1.02345
150.991,21.35412,-0.06960031,0.36672,1.02314
151.591,21.4117,-0.06963829,0.36815,1.02284
152.191,21.46923,-0.06964,0.3688,1.02253
152.791,21.52683,-0.06964,0.36855,1.02223
153.391,21.58454,-0.06964,0.37147,1.02193
153.991,21.64224,-0.06964,0.37044,1.02162
154.591,21.6999,-0.06964,0.37162,1.02132
155.191,21.75757,-0.06955373,0.37216,1.02102
155.791,21.81513,-0.07095974,0.37247,1.02071
156.391,21.8727,-0.07074103,0.37383,1.02041
156.991,21.93051,-0.0696371,0.37458,1.0201
157.591,21.98819,-0.07162313,0.37631,1.0198
158.191,22.04588,-0.07162,0.37567,1.0195
158.791,22.1034,-0.07161528,0.37766,1.01919
159.391,22.16095,-0.0729291,0.37806,1.01889
159.991,22.21836,-0.07293,0.37611,1.01859
160.591,22.27604,-0.07293009,0.37726,1.01828
161.191,22.33365,-0.07314129,0.37914,1.01798
161.791,22.39142,-0.07293075,0.38227,1.01768
162.391,22.4493,-0.07324308,0.37945,1.01737
162.991,22.50708,-0.07325997,0.3792,1.01707
163.591,22.56515,-0.07326,0.37931,1.01677
164.191,22.62288,-0.07326008,0.37939,1.01646
164.791,22.6805,-0.07460749,0.37948,1.01616
165.391,22.7382,-0.07457995,0.3821,1.01586
165.991,22.79579,-0.07458,0.38253,1.01555
166.591,22.85363,-0.07458,0.38288,1.01525
167.191,22.91114,-0.07457999,0.38536,1.01495
167.791,22.96852,-0.07458889,0.38254,1.01465
168.391,23.0263,-0.07589249,0.38602,1.01434
168.991,23.08359,-0.07673125,0.38673,1.01404
169.591,23.1413,-0.07687999,0.38479,1.01374
170.191,23.19925,-0.07688,0.38738,1.01343
170.791,23.25703,-0.07688899,0.38636,1.01313
171.391,23.31482,-0.07720936,0.38727,1.01283
171.991,23.3725,-0.07721,0.38876,1.01252
172.591,23.43,-0.07721,0.39072,1.01222
173.191,23.48763,-0.07721001,0.38739,1.01192
173.791,23.5451,-0.07723459,0.38862,1.01162
174.391,23.60254,-0.07852028,0.38979,1.01131
174.991,23.6601,-0.07885199,0.39387,1.01101
175.591,23.7178,-0.07884623,0.39387,1.01071
176.191,23.7753,-0.07983594,0.39452,1.01041
176.791,23.8326,-0.07984,0.39356,1.0101
177.391,23.88994,-0.07984,0.3928,1.0098
177.991,23.94736,-0.07984,0.39468,1.0095
178.591,24.00475,-0.07984,0.39583,1.00919
179.191,24.06212,-0.07984584,0.39963,1.00889
179.791,24.11942,-0.08115849,0.39878,1.00859
180.391,24.17686,-0.08233759,0.39759,1.00829
180.991,24.2344,-0.08248155,0.40043,1.00798
181.591,24.29187,-0.0837967,0.39934,1.00768
182.191,24.34957,-0.08246606,0.39981,1.00738
182.791,24.40703,-0.08377448,0.40099,1.00708
183.391,24.46444,-0.08378999,0.40191,1.00677
183.991,24.52167,-0.08379,0.40073,1.00647
184.591,24.5788,-0.08379,0.40327,1.00617
185.191,24.6359,-0.08378951,0.40404,1.00587
185.791,24.69279,-0.0849598,0.40667,1.00556
186.391,24.75025,-0.08510981,0.40607,1.00526
186.991,24.8079,-0.08611478,0.4079,1.00496
187.591,24.86509,-0.08642938,0.40794,1.00466
188.191,24.92276,-0.08642998,0.40995,1.00435
188.791,24.98006,-0.08642908,0.41037,1.00405
189.391,25.03738,-0.08775026,0.411,1.00375
189.991,25.09488,-0.08775,0.41066,1.00345
190.591,25.1521,-0.08775,0.41319,1.00315
191.191,25.20917,-0.08774985,0.41358,1.00284
191.791,25.26624,-0.08846292,0.41349,1.00254
192.391,25.32355,-0.08955452,0.4142,1.00224
192.991,25.38114,-0.09036991,0.41694,1.00194
193.591,25.4388,-0.09037,0.41856,1.00163
194.191,25.49609,-0.09036996,0.41911,1.00133
194.791,25.5534,-0.09029678,0.42001,1.00103
195.391,25.61071,-0.09135974,0.42437,1.00073
195.991,25.6681,-0.09269884,0.42533,1.00042
196.591,25.72557,-0.0928677,0.42711,1.00012
197.191,25.7832,-0.0930371,0.42897,0.99982
197.791,25.8405,-0.09433013,0.42712,0.99952
198.391,25.89786,-0.09434392,0.42895,0.99921
198.991,25.9553,-0.09531196,0.43013,0.99891
199.591,26.01274,-0.09666953,0.43096,0.99861
200.191,26.07024,-0.09662,0.43163,0.99831
200.791,26.1276,-0.09662,0.43375,0.99801
201.391,26.18505,-0.09661998,0.4347,0.9977
201.991,26.24237,-0.0965954,0.4338,0.9974
202.591,26.2998,-0.09826597,0.43636,0.9971
203.191,26.35717,-0.0982701,0.43621,0.9968
203.791,26.41457,-0.0996803,0.43718,0.99649
204.391,26.4719,-0.10089,0.44003,0.99619
204.991,26.5286,-0.10115,0.44108,0.99589
205.591,26.586,-0.10189,0.44162,0.99559
206.191,26.6433,-0.10187,0.44315,0.99529
206.791,26.7007,-0.10222,0.44412,0.99498
207.391,26.7586,-0.10344,0.44767,0.99468
207.991,26.8159,-0.10482,0.44872,0.99438
208.591,26.87337,-0.10616,0.44782,0.99408
209.191,26.9307,-0.10485,0.44848,0.99377
209.791,26.988,-0.10485,0.45175,0.99347
210.391,27.0453,-0.10625,0.45325,0.99317
210.991,27.10243,-0.10768,0.45306,0.99287
211.591,27.15962,-0.10881,0.45384,0.99256
212.191,27.2168,-0.11018,0.45558,0.99226
212.791,27.27368,-0.11144,0.4597,0.99196
213.391,27.33103,-0.11275,0.45737,0.99166
213.991,27.38808,-0.11275,0.46051,0.99136
214.591,27.44517,-0.11429,0.46189,0.99105
215.191,27.50208,-0.11538,0.46258,0.99075
215.791,27.55909,-0.11672,0.46226,0.99045
216.391,27.6164,-0.11665,0.46475,0.99015
216.991,27.6737,-0.11795,0.46636,0.98984
217.591,27.73105,-0.11933,0.46571,0.98954
218.191,27.78825,-0.12065,0.46484,0.98924
218.791,27.8451,-0.12114,0.46681,0.98894
219.391,27.90183,-0.12329,0.46849,0.98863
219.991,27.95901,-0.12399,0.46714,0.98833
220.591,28.0162,-0.12533,0.46855,0.98803
221.191,28.07385,-0.12526,0.46719,0.98773
221.791,28.1311,-0.12656,0.46745,0.98742
222.391,28.18849,-0.12654,0.46625,0.98712
222.991,28.24563,-0.12821,0.46587,0.98682
223.591,28.30312,-0.13052,0.46667,0.98652
224.191,28.36066,-0.13251,0.46373,0.98621
224.791,28.41797,-0.1338,0.46698,0.98591
225.391,28.47532,-0.13376,0.46292,0.98561
225.991,28.53248,-0.13513,0.46425,0.9853
226.591,28.5897,-0.13644,0.46519,0.985
227.191,28.647,-0.13774,0.46371,0.9847
227.791,28.7044,-0.13909,0.46376,0.9844
228.391,28.76183,-0.14116,0.46333,0.98409
228.991,28.8192,-0.14248,0.46111,0.98379
229.591,28.8767,-0.14458,0.46332,0.98349
230.191,28.93398,-0.14612,0.46208,0.98319
230.791,28.99124,-0.14741,0.46177,0.98288
231.391,29.04856,-0.14873,0.46133,0.98258
231.991,29.106,-0.15005,0.46291,0.98228
232.591,29.1635,-0.15099,0.45994,0.98197
233.191,29.22079,-0.15267,0.46076,0.98167
233.791,29.27818,-0.1544,0.45934,0.98137
234.391,29.3354,-0.15566,0.46125,0.98106
234.991,29.39252,-0.15796,0.46141,0.98076
235.591,29.44994,-0.15946,0.45904,0.98046
236.191,29.5073,-0.16074,0.46166,0.98016
236.791,29.5647,-0.16304,0.45924,0.97985
237.391,29.6221,-0.16369,0.46015,0.97955
237.991,29.67935,-0.16617,0.45933,0.97925
238.591,29.73651,-0.1678,0.46038,0.97894
239.191,29.7938,-0.16955,0.46059,0.97864
239.791,29.8511,-0.17229,0.46021,0.97834
240.391,29.9085,-0.17282,0.46165,0.97803
240.991,29.96595,-0.17413,0.4619,0.97773
241.591,30.02327,-0.17552,0.46439,0.97743
242.191,30.08046,-0.17784,0.46119,0.97712
242.791,30.1373,-0.17983,0.46223,0.97682
243.391,30.19427,-0.18112,0.46169,0.97651
243.991,30.25142,-0.184,0.46151,0.97621
244.591,30.3086,-0.18537,0.46007,0.97591
245.191,30.3663,-0.18663,0.46287,0.9756
245.791,30.4237,-0.18824,0.46146,0.9753
246.391,30.4811,-0.19197,0.46048,0.975
246.991,30.5385,-0.19388,0.46281,0.97469
247.591,30.59597,-0.19611,0.46294,0.97439
248.191,30.6534,-0.19628,0.46541,0.97408
248.791,30.7107,-0.19942,0.46554,0.97378
249.391,30.76778,-0.20122,0.46447,0.97348
249.991,30.8248,-0.20478,0.46618,0.97317
250.591,30.88175,-0.20607,0.46338,0.97287
251.191,30.939,-0.20809,0.46415,0.97256
251.791,30.99622,-0.21034,0.46752,0.97226
252.391,31.0533,-0.21256,0.46964,0.97196
252.991,31.11078,-0.2151,0.46686,0.97165
253.591,31.1681,-0.21881,0.46717,0.97135
254.191,31.22533,-0.22161,0.46843,0.97104
254.791,31.28288,-0.22305,0.47018,0.97074
255.391,31.34,-0.22628,0.47072,0.97043
255.991,31.3971,-0.22823,0.47423,0.97013
256.591,31.45433,-0.23033,0.47145,0.96982
257.191,31.51153,-0.23308,0.47136,0.96952
257.791,31.56881,-0.23505,0.47391,0.96921
258.391,31.6261,-0.23784,0.47468,0.96891
258.991,31.6834,-0.24097,0.47468,0.9686
259.591,31.74057,-0.24546,0.47535,0.9683
260.191,31.79795,-0.24821,0.47726,0.968
260.791,31.8552,-0.25053,0.47849,0.96769
261.391,31.9123,-0.25333,0.47755,0.96738
261.991,31.96939,-0.25671,0.47953,0.96708
262.591,32.0265,-0.26121,0.47818,0.96677
263.191,32.08367,-0.26489,0.4796,0.96647
263.791,32.14076,-0.26781,0.4798,0.96616
264.391,32.1978,-0.27076,0.47947,0.96586
264.991,32.25476,-0.27438,0.47939,0.96555
265.591,32.31165,-0.27807,0.48111,0.96525
266.191,32.36866,-0.2819,0.48178,0.96494
266.791,32.4257,-0.28627,0.48251,0.96464
267.391,32.48296,-0.29112,0.48425,0.96433
267.991,32.54005,-0.29592,0.48382,0.96403
268.591,32.5972,-0.29971,0.48432,0.96372
269.191,32.6544,-0.30355,0.48209,0.96341
269.791,32.71163,-0.30819,0.48332,0.96311
270.391,32.76875,-0.31336,0.48473,0.9628
270.991,32.82606,-0.31832,0.48242,0.9625
271.591,32.88329,-0.32198,0.48323,0.96219
272.191,32.94066,-0.32823,0.48445,0.96188
272.791,32.9978,-0.33174,0.48032,0.96158
273.391,33.05508,-0.33804,0.48288,0.96127
273.991,33.1124,-0.34414,0.48297,0.96096
274.591,33.16946,-0.35004,0.48157,0.96066
275.191,33.22703,-0.35503,0.48129,0.96035
275.791,33.28445,-0.36224,0.48212,0.96004
276.391,33.34162,-0.3685,0.48206,0.95974
276.991,33.39906,-0.37214,0.48098,0.95943
277.591,33.4564,-0.3792,0.48082,0.95912
278.191,33.51404,-0.38634,0.47972,0.95882
278.791,33.57189,-0.39267,0.48071,0.95851
279.391,33.62941,-0.39885,0.47912,0.9582
279.991,33.68683,-0.40537,0.47662,0.95789
280.591,33.7442,-0.41237,0.47855,0.95759
281.191,33.80172,-0.42146,0.47654,0.95728
281.791,33.85897,-0.42882,0.47683,0.95697
282.391,33.91637,-0.43557,0.47722,0.95667
282.991,33.9737,-0.44303,0.47708,0.95636
283.591,34.03079,-0.45034,0.47533,0.95605
284.191,34.08825,-0.45874,0.47214,0.95574
284.791,34.1456,-0.4669,0.47068,0.95543
285.391,34.20296,-0.47518,0.47021,0.95513
285.991,34.26038,-0.48254,0.47014,0.95482
286.591,34.31766,-0.49189,0.47187,0.95451
287.191,34.37505,-0.50135,0.46977,0.9542
287.791,34.43237,-0.5095,0.46638,0.95389
288.391,34.48993,-0.51868,0.46836,0.95358
288.991,34.54743,-0.52862,0.4665,0.95328
289.591,34.60484,-0.53763,0.46465,0.95297
290.191,34.6622,-0.5471,0.46187,0.95266
290.791,34.71958,-0.55646,0.46405,0.95235
291.391,34.77681,-0.567,0.46058,0.95204
291.991,34.83419,-0.57629,0.4595,0.95173
292.591,34.89165,-0.58747,0.45915,0.95142
293.191,34.94905,-0.59845,0.45691,0.95111
293.791,35.0066,-0.60809,0.45607,0.9508
294.391,35.064,-0.61709,0.45462,0.9505
294.991,35.1213,-0.62733,0.45467,0.95019
295.591,35.17876,-0.63832,0.45362,0.94988
296.191,35.2362,-0.64845,0.45032,0.94957
296.791,35.2938,-0.65951,0.45123,0.94926
297.391,35.3514,-0.66997,0.45115,0.94895
297.991,35.40896,-0.68016,0.4482,0.94864
298.591,35.46658,-0.69207,0.4475,0.94833
299.191,35.52431,-0.70306,0.44903,0.94802
299.791,35.58209,-0.71492,0.44874,0.94771
300.391,35.64,-0.72611,0.44464,0.9474
300.991,35.69771,-0.73756,0.44316,0.94709
301.591,35.75548,-0.74832,0.44413,0.94678
302.191,35.8131,-0.75956,0.44279,0.94646
302.791,35.87073,-0.77038,0.44631,0.94615
303.391,35.92832,-0.7812,0.44617,0.94584
303.991,35.98588,-0.79218,0.44542,0.94553
304.591,36.04359,-0.8038,0.4461,0.94522
305.191,36.1013,-0.81649,0.44985,0.94491
305.791,36.15894,-0.82768,0.44717,0.9446
306.391,36.21653,-0.83849,0.44882,0.94429
306.991,36.27378,-0.84912,0.4526,0.94398
307.591,36.33129,-0.86194,0.45189,0.94366
308.191,36.38899,-0.87408,0.45312,0.94335
308.791,36.4468,-0.88509,0.45297,0.94304
309.391,36.5049,-0.89605,0.45553,0.94273
309.991,36.56256,-0.9077,0.45768,0.94242
310.591,36.62017,-0.91953,0.45673,0.9421
311.191,36.67784,-0.93047,0.46026,0.94179
311.791,36.7355,-0.94153,0.45993,0.94148
312.391,36.793,-0.95351,0.46201,0.94117
312.991,36.85044,-0.9652,0.46532,0.94085
313.591,36.908,-0.97553,0.46653,0.94054
314.191,36.96547,-0.98754,0.47094,0.94023
314.791,37.02325,-0.99878,0.47479,0.93992
315.391,37.0809,-1.00979,0.47548,0.9396
315.991,37.13859,-1.02123,0.47965,0.93929
316.591,37.1963,-1.03306,0.48066,0.93898
317.191,37.25393,-1.04507,0.47847,0.93866
317.791,37.31167,-1.05595,0.48152,0.93835
318.391,37.3695,-1.06835,0.4835,0.93803
318.991,37.4273,-1.08032,0.48597,0.93772
319.591,37.48519,-1.09238,0.48949,0.93741
320.191,37.54309,-1.10401,0.49382,0.93709
320.791,37.60095,-1.11681,0.49782,0.93678
321.391,37.65895,-1.13083,0.49905,0.93646
321.991,37.7169,-1.14211,0.50307,0.93615
322.591,37.77476,-1.15319,0.50697,0.93583
323.191,37.83245,-1.16587,0.50786,0.93552
323.791,37.89012,-1.17782,0.51783,0.9352
324.391,37.94788,-1.19032,0.51827,0.93489
324.991,38.00585,-1.20273,0.52019,0.93457
325.591,38.06397,-1.21593,0.52563,0.93426
326.191,38.12203,-1.22869,0.53096,0.93394
326.791,38.18009,-1.24132,0.53456,0.93363
327.391,38.23778,-1.2543,0.53939,0.93331
327.991,38.29554,-1.26768,0.53984,0.933
328.591,38.35337,-1.2812,0.54636,0.93268
329.191,38.41131,-1.2948,0.5502,0.93236
329.791,38.46927,-1.30717,0.55755,0.93205
330.391,38.52724,-1.32176,0.55935,0.93173
330.991,38.58505,-1.33443,0.56448,0.93141
331.591,38.6428,-1.34887,0.56899,0.9311
332.191,38.70086,-1.36279,0.57526,0.93078
332.791,38.759,-1.37617,0.57759,0.93046
333.391,38.81733,-1.39159,0.58312,0.93015
333.991,38.87546,-1.40595,0.58872,0.92983
334.591,38.93359,-1.4214,0.5927,0.92951
335.191,38.9917,-1.43635,0.59735,0.9292
335.791,39.04971,-1.45129,0.60093,0.92888
336.391,39.1079,-1.46675,0.60992,0.92856
336.991,39.16591,-1.48381,0.61333,0.92824
337.591,39.22429,-1.49892,0.61733,0.92792
338.191,39.28249,-1.51579,0.62332,0.9276
338.791,39.3405,-1.53155,0.6305,0.92729
339.391,39.39852,-1.54793,0.6348,0.92697
339.991,39.4565,-1.56621,0.64182,0.92665
340.591,39.51455,-1.58397,0.64833,0.92633
341.191,39.57255,-1.60126,0.65524,0.92601
341.791,39.63061,-1.61861,0.65962,0.92569
342.391,39.68886,-1.63643,0.66759,0.92537
342.991,39.7472,-1.65344,0.67095,0.92505
343.591,39.80538,-1.67261,0.67782,0.92473
344.191,39.8637,-1.6929,0.68332,0.92441
344.791,39.92185,-1.71198,0.69073,0.92409
345.391,39.97984,-1.7319,0.69731,0.92377
345.991,40.0381,-1.75174,0.70346,0.92345
346.591,40.09629,-1.77279,0.70718,0.92313
347.191,40.1545,-1.79239,0.71454,0.92281
347.791,40.21286,-1.81282,0.72175,0.92249
348.391,40.27098,-1.83408,0.72863,0.92217
348.991,40.32913,-1.8573,0.73426,0.92185
349.591,40.3872,-1.87826,0.73799,0.92153
350.191,40.44518,-1.90087,0.74455,0.92121
350.791,40.50338,-1.92314,0.75194,0.92089
351.391,40.5616,-1.94644,0.7538,0.92056
351.991,40.6198,-1.96902,0.75866,0.92024
352.591,40.6779,-1.99248,0.76267,0.91992
353.191,40.73587,-2.01681,0.76892,0.9196
353.791,40.7938,-2.03955,0.77165,0.91928
354.391,40.85195,-2.06485,0.77459,0.91895
354.991,40.9101,-2.08846,0.78031,0.91863
355.591,40.96824,-2.11323,0.78231,0.91831
356.191,41.02647,-2.13719,0.78158,0.91798
356.791,41.08455,-2.16387,0.78276,0.91766
357.391,41.14262,-2.18959,0.78187,0.91734
357.991,41.20085,-2.21533,0.784,0.91701
358.591,41.25893,-2.24104,0.7818,0.91669
359.191,41.31726,-2.26609,0.77914,0.91637
359.791,41.37546,-2.2926,0.7743,0.91604
360.391,41.43376,-2.31708,0.77462,0.91572
360.991,41.49201,-2.34452,0.76932,0.91539
361.591,41.55022,-2.36899,0.76229,0.91507
362.191,41.60828,-2.39599,0.7562,0.91474
362.791,41.66642,-2.41971,0.7457,0.91442
363.391,41.7245,-2.44619,0.74094,0.91409
363.991,41.7828,-2.46971,0.73072,0.91377
364.591,41.8412,-2.49524,0.71948,0.91344
365.191,41.8993,-2.51992,0.70515,0.91312
365.791,41.9573,-2.54352,0.69384,0.91279
366.391,42.01548,-2.56948,0.67634,0.91246
366.991,42.07347,-2.59089,0.66272,0.91214
367.591,42.1317,-2.6144,0.64354,0.91181
368.191,42.18976,-2.63544,0.62669,0.91149
368.791,42.24776,-2.65759,0.6085,0.91116
369.391,42.30573,-2.67738,0.58651,0.91083
369.991,42.36374,-2.69745,0.56239,0.9105
370.591,42.4217,-2.7159,0.54039,0.91018
371.191,42.4797,-2.73324,0.51718,0.90985
371.791,42.53771,-2.74931,0.49466,0.90952
372.391,42.5955,-2.76471,0.47068,0.90919
372.991,42.6532,-2.78072,0.44381,0.90887
373.591,42.7108,-2.79532,0.42016,0.90854
374.191,42.7685,-2.81045,0.39503,0.90821
374.791,42.8264,-2.8218,0.37115,0.90788
375.391,42.8844,-2.83345,0.34902,0.90755
375.991,42.9425,-2.84407,0.32361,0.90722
376.591,43.0005,-2.85408,0.30354,0.90689
377.191,43.05852,-2.86109,0.285,0.90656
377.791,43.1167,-2.86998,0.26429,0.90623
378.391,43.17472,-2.87817,0.24768,0.9059
378.991,43.23247,-2.88517,0.23275,0.90557
379.591,43.29036,-2.8899,0.21785,0.90524
380.191,43.34827,-2.89463,0.20721,0.90491
380.791,43.40651,-2.90032,0.19256,0.90458
381.391,43.46478,-2.90544,0.18729,0.90425
381.991,43.52317,-2.90948,0.17816,0.90392
382.591,43.5815,-2.91232,0.17012,0.90359
383.191,43.6398,-2.91586,0.16659,0.90326
383.791,43.69801,-2.91919,0.15658,0.90293
384.391,43.7562,-2.92283,0.15575,0.9026
384.991,43.81472,-2.92579,0.15043,0.90226
385.591,43.8731,-2.9289,0.14529,0.90193
386.191,43.93144,-2.93198,0.14001,0.9016
386.791,43.98983,-2.93462,0.14035,0.90127
387.391,44.04821,-2.93675,0.13749,0.90093
387.991,44.10655,-2.93997,0.13437,0.9006
388.591,44.16487,-2.94311,0.13103,0.90027
389.191,44.2231,-2.94542,0.13093,0.89993
389.791,44.28153,-2.94715,0.12899,0.8996
390.391,44.33978,-2.9502,0.12604,0.89927
390.991,44.39826,-2.95169,0.12271,0.89893
391.591,44.45643,-2.95458,0.12169,0.8986
392.191,44.51478,-2.95656,0.11737,0.89826
392.791,44.57292,-2.95921,0.11495,0.89793
393.391,44.63115,-2.96059,0.1167,0.89759
393.991,44.68949,-2.96261,0.11267,0.89726
394.591,44.74814,-2.96393,0.11316,0.89692
395.191,44.80662,-2.96658,0.11161,0.89659
395.791,44.86506,-2.96856,0.10724,0.89625
396.391,44.92321,-2.97127,0.10911,0.89592
396.991,44.98152,-2.9728,0.10753,0.89558
397.591,45.03976,-2.97567,0.10305,0.89524
398.191,45.09813,-2.97694,0.10534,0.89491
398.791,45.1563,-2.97969,0.0991439,0.89457
399.391,45.21479,-2.98103,0.10061,0.89423
399.991,45.2733,-2.9823,0.10159,0.8939
400.591,45.33187,-2.98536,0.10177,0.89356
401.191,45.39065,-2.98663,0.09678557,0.89322
401.791,45.44924,-2.98946,0.09810902,0.89288
402.391,45.5077,-2.99224,0.09377197,0.89254
402.991,45.56644,-2.99234,0.09421898,0.89221
403.591,45.62505,-2.99506,0.09288606,0.89187
404.191,45.68365,-2.99809,0.09187813,0.89153
404.791,45.74235,-2.99955,0.090538,0.89119
405.391,45.80104,-3.00087,0.09090817,0.89085
405.991,45.85978,-3.00318,0.09130137,0.89051
406.591,45.9185,-3.00437,0.08846749,0.89017
407.191,45.97721,-3.00758,0.09054827,0.88983
407.791,46.03588,-3.00945,0.08801949,0.88949
408.391,46.09479,-3.01068,0.08760521,0.88915
408.991,46.15336,-3.01268,0.09052172,0.88881
409.591,46.21196,-3.01598,0.08803466,0.88847
410.191,46.2706,-3.01591,0.09002683,0.88813
410.791,46.32904,-3.0175,0.08532639,0.88779
411.391,46.3877,-3.01994,0.08818531,0.88745
411.991,46.44642,-3.02113,0.08578023,0.8871
412.591,46.5051,-3.02463,0.08386926,0.88676
413.191,46.5636,-3.02596,0.08422136,0.88642
413.791,46.62219,-3.02749,0.08535299,0.88608
414.391,46.6807,-3.03007,0.08583973,0.88573
414.991,46.7392,-3.03139,0.08669209,0.88539
415.591,46.79787,-3.03422,0.08631215,0.88505
416.191,46.8564,-3.03557,0.08593353,0.8847
416.791,46.91507,-3.03687,0.08557151,0.88436
417.391,46.97361,-3.03816,0.08446337,0.88402
417.991,47.03182,-3.03901,0.08543882,0.88367
418.591,47.09016,-3.04127,0.08530025,0.88333
419.191,47.14842,-3.04256,0.08513138,0.88298
419.791,47.2072,-3.04443,0.08918384,0.88264
420.391,47.26575,-3.04625,0.08569976,0.88229
420.991,47.3245,-3.04801,0.08539949,0.88195
421.591,47.38328,-3.04952,0.08346052,0.8816
422.191,47.442,-3.05198,0.08788083,0.88126
422.791,47.50058,-3.05332,0.08512912,0.88091
423.391,47.55914,-3.05461,0.08284301,0.88056
423.991,47.61764,-3.05597,0.08690123,0.88022
424.591,47.67627,-3.05735,0.08259572,0.87987
425.191,47.73499,-3.06032,0.08674299,0.87952
425.791,47.7938,-3.06176,0.08751294,0.87918
426.391,47.8526,-3.0634,0.08714465,0.87883
426.991,47.9115,-3.06601,0.08789212,0.87848
427.591,47.97047,-3.06726,0.091062,0.87813
428.191,48.0293,-3.06869,0.09024683,0.87779
428.791,48.08846,-3.07,0.08948114,0.87744
429.391,48.14747,-3.07134,0.09031062,0.87709
429.991,48.2067,-3.07263,0.08869997,0.87674
430.591,48.26597,-3.07395,0.09125278,0.87639
431.191,48.32513,-3.07525,0.09179342,0.87604
431.791,48.3842,-3.07678,0.09256206,0.87569
432.391,48.44314,-3.07873,0.09173159,0.87534
432.991,48.50222,-3.08013,0.09330457,0.87499
433.591,48.56126,-3.08211,0.09406632,0.87464
434.191,48.6205,-3.08338,0.0956054,0.87429
434.791,48.67948,-3.08469,0.0952444,0.87394
435.391,48.73839,-3.08603,0.09320202,0.87359
435.991,48.79741,-3.08735,0.09703933,0.87324
436.591,48.85633,-3.08867,0.09860218,0.87288
437.191,48.91534,-3.08999,0.09843703,0.87253
437.791,48.9746,-3.09126,0.09899913,0.87218
438.391,49.03387,-3.09293,0.0983807,0.87183
438.991,49.09292,-3.09539,0.10072,0.87147
439.591,49.15185,-3.09666,0.10383,0.87112
440.191,49.2106,-3.09797,0.10561,0.87077
440.791,49.26938,-3.09857,0.10487,0.87041
441.391,49.32827,-3.09934,0.1091,0.87006
441.991,49.3872,-3.10071,0.10822,0.86971
442.591,49.44618,-3.10198,0.10866,0.86935
443.191,49.50517,-3.1034,0.10856,0.869
443.791,49.56412,-3.10563,0.11207,0.86864
444.391,49.6231,-3.10696,0.11156,0.86829
444.991,49.6822,-3.10829,0.11249,0.86793
445.591,49.7412,-3.10957,0.11514,0.86758
446.191,49.80011,-3.11091,0.11656,0.86722
446.791,49.85908,-3.11223,0.11587,0.86686
447.391,49.91792,-3.11356,0.1194,0.86651
447.991,49.9767,-3.11494,0.11871,0.86615
448.591,50.0353,-3.11655,0.11768,0.86579
449.191,50.09394,-3.11724,0.11921,0.86544
449.791,50.15263,-3.11782,0.12168,0.86508
450.391,50.21151,-3.11914,0.12149,0.86472
450.991,50.2703,-3.12047,0.12152,0.86436
451.591,50.329,-3.12115,0.12592,0.864
452.191,50.38762,-3.12128,0.12571,0.86365
452.791,50.44644,-3.1237,0.12611,0.86329
453.391,50.50507,-3.12505,0.1249,0.86293
453.991,50.5644,-3.12528,0.12843,0.86257
454.591,50.62338,-3.12633,0.12963,0.86221
455.191,50.68258,-3.12703,0.12613,0.86185
455.791,50.74191,-3.12831,0.12809,0.86149
456.391,50.80113,-3.12967,0.12837,0.86113
456.991,50.8603,-3.13099,0.12838,0.86077
457.591,50.91933,-3.1323,0.12984,0.86041
458.191,50.97835,-3.13416,0.13241,0.86004
458.791,51.03751,-3.13492,0.13166,0.85968
459.391,51.0967,-3.13624,0.13346,0.85932
459.991,51.15595,-3.13751,0.13237,0.85896
460.591,51.2153,-3.13888,0.1315,0.8586
461.191,51.2744,-3.13853,0.13358,0.85823
461.791,51.3337,-3.13886,0.13401,0.85787
462.391,51.39291,-3.13954,0.13472,0.85751
462.991,51.45227,-3.14091,0.13569,0.85714
463.591,51.51192,-3.14221,0.13695,0.85678
464.191,51.57127,-3.14349,0.13768,0.85642
464.791,51.6307,-3.1448,0.13938,0.85605
465.391,51.69017,-3.14481,0.13855,0.85569
465.991,51.74964,-3.14547,0.13999,0.85532
466.591,51.80915,-3.14678,0.13568,0.85496
467.191,51.86843,-3.14729,0.14017,0.85459
467.791,51.9277,-3.14907,0.14071,0.85422
468.391,51.9872,-3.15043,0.13912,0.85386
468.991,52.04659,-3.15175,0.1404,0.85349
469.591,52.10603,-3.15227,0.14107,0.85313
470.191,52.16533,-3.15236,0.14179,0.85276
470.791,52.22465,-3.15374,0.14237,0.85239
471.391,52.28395,-3.15511,0.14136,0.85202
471.991,52.34325,-3.15592,0.14451,0.85166
472.591,52.4026,-3.15632,0.14266,0.85129
473.191,52.46173,-3.1563,0.14511,0.85092
473.791,52.5208,-3.1583,0.14572,0.85055
474.391,52.57994,-3.15961,0.14489,0.85018
474.991,52.63925,-3.15961,0.14693,0.84981
475.591,52.6987,-3.16093,0.14961,0.84944
476.191,52.7583,-3.16176,0.14655,0.84907
476.791,52.8178,-3.16227,0.1479,0.8487
477.391,52.8772,-3.16356,0.14717,0.84833
477.991,52.9365,-3.16248,0.14881,0.84796
478.591,52.99584,-3.16389,0.14624,0.84759
479.191,53.0551,-3.16495,0.14895,0.84722
479.791,53.11419,-3.16517,0.14958,0.84685
480.391,53.1736,-3.16654,0.14963,0.84648
480.991,53.233,-3.16647,0.1497,0.8461
481.591,53.2926,-3.16789,0.14917,0.84573
482.191,53.3514,-3.16915,0.14834,0.84536
482.791,53.4107,-3.16954,0.15036,0.84499
483.391,53.4696,-3.17146,0.14937,0.84461
483.991,53.52904,-3.17204,0.14975,0.84424
484.591,53.58875,-3.17284,0.14904,0.84386
485.191,53.64832,-3.17146,0.15306,0.84349
485.791,53.70788,-3.17277,0.15428,0.84312
486.391,53.76729,-3.17292,0.15334,0.84274
486.991,53.82675,-3.17539,0.15319,0.84237
487.591,53.8861,-3.17536,0.1523,0.84199
488.191,53.9455,-3.17683,0.1545,0.84161
488.791,54.00489,-3.17673,0.15243,0.84124
489.391,54.06419,-3.17677,0.15489,0.84086
489.991,54.1236,-3.17804,0.15426,0.84049
490.591,54.1829,-3.17804,0.15826,0.84011
491.191,54.2422,-3.17939,0.16208,0.83973
491.791,54.30145,-3.17936,0.17216,0.83935
492.391,54.36068,-3.18067,0.17437,0.83898
492.991,54.41985,-3.18132,0.17716,0.8386
493.591,54.47903,-3.18265,0.17968,0.83822
494.191,54.53833,-3.18398,0.18172,0.83784
494.791,54.59744,-3.18405,0.18161,0.83746
495.391,54.65665,-3.18263,0.1844,0.83708
495.991,54.7156,-3.18398,0.18788,0.8367
496.591,54.77476,-3.18528,0.18905,0.83632
497.191,54.83405,-3.18528,0.18824,0.83594
497.791,54.8933,-3.18659,0.19125,0.83556
498.391,54.95264,-3.18718,0.19617,0.83518
498.991,55.01195,-3.18791,0.19436,0.8348
499.591,55.0712,-3.18799,0.19687,0.83442
500.191,55.13018,-3.19055,0.19563,0.83404
500.791,55.18943,-3.19051,0.19799,0.83365
501.391,55.24856,-3.19054,0.20053,0.83327
501.991,55.308,-3.19054,0.20014,0.83289
502.591,55.3675,-3.19185,0.1995,0.83251
503.191,55.42699,-3.19187,0.1996,0.83212
503.791,55.4865,-3.19317,0.20232,0.83174
504.391,55.54583,-3.19412,0.20273,0.83136
504.991,55.60476,-3.19449,0.19949,0.83097
505.591,55.66405,-3.19449,0.20374,0.83059
506.191,55.72341,-3.19557,0.20379,0.8302
506.791,55.783,-3.19547,0.20636,0.82982
507.391,55.8428,-3.19543,0.206,0.82943
507.991,55.90212,-3.19611,0.2076,0.82905
508.591,55.96139,-3.19713,0.2075,0.82866
509.191,56.0209,-3.19712,0.20937,0.82827
509.791,56.08011,-3.19878,0.21101,0.82789
510.391,56.1394,-3.19941,0.2139,0.8275
510.991,56.19869,-3.1991,0.21378,0.82711
511.591,56.25792,-3.19987,0.21506,0.82672
512.191,56.31703,-3.1999,0.21688,0.82634
512.791,56.3765,-3.20108,0.21706,0.82595
513.391,56.43585,-3.20103,0.21593,0.82556
513.991,56.4952,-3.20246,0.21719,0.82517
514.591,56.5545,-3.2037,0.21604,0.82478
515.191,56.61382,-3.2037,0.21773,0.82439
515.791,56.67325,-3.20501,0.2174,0.824
516.391,56.73261,-3.20507,0.21754,0.82361
516.991,56.79211,-3.20503,0.21469,0.82322
517.591,56.8516,-3.20503,0.21335,0.82283
518.191,56.91112,-3.20634,0.21374,0.82244
518.791,56.9707,-3.20634,0.21332,0.82205
519.391,57.03017,-3.20732,0.2142,0.82166
519.991,57.08981,-3.20864,0.21151,0.82126
520.591,57.14937,-3.20864,0.21066,0.82087
521.191,57.20884,-3.20995,0.20811,0.82048
521.791,57.2685,-3.20996,0.2024,0.82009
522.391,57.32816,-3.20996,0.19572,0.81969
522.991,57.388,-3.20996,0.18971,0.8193
523.591,57.4477,-3.20996,0.18609,0.81891
524.191,57.5075,-3.21131,0.18136,0.81851
524.791,57.5673,-3.21127,0.17613,0.81812
525.391,57.62705,-3.21259,0.17094,0.81772
525.991,57.6867,-3.21271,0.17179,0.81733
526.591,57.74652,-3.21391,0.16808,0.81693
527.191,57.80625,-3.21391,0.1629,0.81653
527.791,57.866,-3.21391,0.1628,0.81614
528.391,57.92584,-3.21394,0.16154,0.81574
528.991,57.98562,-3.21523,0.1595,0.81535
529.591,58.04543,-3.21523,0.15784,0.81495
530.191,58.10524,-3.21571,0.15789,0.81455
530.791,58.1649,-3.2159,0.15968,0.81415
531.391,58.2247,-3.21612,0.15886,0.81375
531.991,58.28455,-3.21712,0.15355,0.81336
532.591,58.34421,-3.21851,0.15474,0.81296
533.191,58.404,-3.21851,0.15383,0.81256
533.791,58.4636,-3.21859,0.15553,0.81216
534.391,58.52319,-3.21982,0.15341,0.81176
534.991,58.5831,-3.21983,0.15346,0.81136
535.591,58.6428,-3.21985,0.1526,0.81096
536.191,58.70287,-3.22115,0.15171,0.81056
536.791,58.7629,-3.22115,0.15089,0.81016
537.391,58.82295,-3.22251,0.15069,0.80976
537.991,58.8828,-3.22246,0.15026,0.80935
538.591,58.94248,-3.2234,0.14989,0.80895
539.191,59.00218,-3.22315,0.14894,0.80855
539.791,59.0619,-3.22313,0.14626,0.80815
540.391,59.1217,-3.22576,0.14407,0.80774
540.991,59.1816,-3.22575,0.14481,0.80734
541.591,59.2415,-3.22575,0.14114,0.80694
542.191,59.3013,-3.22576,0.13949,0.80653
542.791,59.36087,-3.22576,0.13594,0.80613
543.391,59.4206,-3.22707,0.1356,0.80572
543.991,59.48025,-3.22707,0.13119,0.80532
544.591,59.53995,-3.22707,0.12416,0.80491
545.191,59.5997,-3.22838,0.12404,0.80451
545.791,59.6594,-3.22706,0.12168,0.8041
546.391,59.71914,-3.22838,0.12226,0.8037
546.991,59.779,-3.22836,0.12098,0.80329
547.591,59.83877,-3.2307,0.12009,0.80288
548.191,59.89844,-3.23069,0.11796,0.80247
548.791,59.9585,-3.23069,0.12047,0.80207
549.391,60.0184,-3.23069,0.11881,0.80166
549.991,60.0782,-3.23069,0.11719,0.80125
550.591,60.138,-3.23069,0.11543,0.80084
551.191,60.19775,-3.23069,0.11509,0.80043
551.791,60.2576,-3.23201,0.11187,0.80002
552.391,60.3173,-3.23201,0.10925,0.79961
552.991,60.3771,-3.23308,0.11087,0.7992
553.591,60.43694,-3.23332,0.10716,0.79879
554.191,60.49695,-3.23332,0.10803,0.79838
554.791,60.5569,-3.23397,0.10461,0.79797
555.391,60.61693,-3.23464,0.10621,0.79756
555.991,60.67696,-3.23464,0.10307,0.79715
556.591,60.7368,-3.23595,0.10271,0.79674
557.191,60.79691,-3.23596,0.10288,0.79633
557.791,60.8566,-3.23596,0.09901985,0.79591
558.391,60.91656,-3.23586,0.10069,0.7955
558.991,60.9766,-3.23715,0.09894241,0.79509
559.591,61.03651,-3.23727,0.09749929,0.79467
560.191,61.0965,-3.23727,0.10091,0.79426
560.791,61.1563,-3.23762,0.09473402,0.79385
561.391,61.21603,-3.23959,0.09495115,0.79343
561.991,61.2757,-3.23958,0.09544577,0.79302
562.591,61.33549,-3.23958,0.09403544,0.7926
563.191,61.39538,-3.23958,0.09445052,0.79219
563.791,61.4555,-3.2409,0.09446474,0.79177
564.391,61.51545,-3.23959,0.09426723,0.79135
564.991,61.5755,-3.24097,0.09285935,0.79094
565.591,61.6355,-3.24089,0.09157764,0.79052
566.191,61.6955,-3.2408,0.09460411,0.7901
566.791,61.7556,-3.2422,0.09152089,0.78969
567.391,61.8156,-3.24213,0.09435758,0.78927
567.991,61.87551,-3.24286,0.09245973,0.78885
568.591,61.9356,-3.24286,0.09177515,0.78843
569.191,61.99565,-3.24276,0.09394447,0.78801
569.791,62.05582,-3.24386,0.09265229,0.78759
570.391,62.1159,-3.24416,0.09058885,0.78717
570.991,62.17615,-3.24418,0.08785904,0.78675
571.591,62.23645,-3.24418,0.09036258,0.78633
572.191,62.29679,-3.24418,0.09071899,0.78591
572.791,62.35685,-3.24547,0.09080666,0.78549
573.391,62.4167,-3.24547,0.087744,0.78507
573.991,62.47676,-3.2478,0.08657317,0.78465
574.591,62.5367,-3.24648,0.0915404,0.78423
575.191,62.5968,-3.24648,0.08745032,0.78381
575.791,62.65695,-3.24713,0.08911861,0.78338
576.391,62.7171,-3.24742,0.08824346,0.78296
576.991,62.77718,-3.24879,0.08608744,0.78254
577.591,62.8373,-3.24881,0.08702612,0.78211
578.191,62.8973,-3.25019,0.08983653,0.78169
578.791,62.9571,-3.24878,0.09000621,0.78127
579.391,63.01699,-3.24873,0.09091719,0.78084
579.991,63.07689,-3.2501,0.09147342,0.78042
580.591,63.13711,-3.25011,0.09111922,0.77999
581.191,63.1972,-3.25142,0.09165654,0.77957
581.791,63.25728,-3.2525,0.09248059,0.77914
582.391,63.31749,-3.25141,0.09272468,0.77871
582.991,63.3777,-3.25274,0.09226206,0.77829
583.591,63.43809,-3.25405,0.09057908,0.77786
584.191,63.49836,-3.25405,0.0925801,0.77743
584.791,63.5586,-3.2534,0.0925,0.777
585.391,63.61866,-3.25405,0.09414639,0.77658
585.991,63.6785,-3.25405,0.09449977,0.77615
586.591,63.73871,-3.25405,0.09478453,0.77572
587.191,63.7988,-3.25405,0.09501902,0.77529
587.791,63.8591,-3.25668,0.09541931,0.77486
588.391,63.9192,-3.2554,0.09276253,0.77443
588.991,63.9787,-3.25668,0.09430751,0.774
589.591,64.03886,-3.25668,0.09512808,0.77357
590.191,64.09923,-3.25668,0.09312736,0.77314
590.791,64.15991,-3.25668,0.0940019,0.77271
591.391,64.22035,-3.25799,0.09511394,0.77228
591.991,64.2805,-3.258,0.09759662,0.77185
592.591,64.34071,-3.258,0.09690967,0.77142
593.191,64.40093,-3.258,0.09608287,0.77098
593.791,64.4611,-3.25768,0.09697082,0.77055
594.391,64.5214,-3.25703,0.09912412,0.77012
594.991,64.58163,-3.25834,0.09838131,0.76969
595.591,64.64202,-3.25966,0.10061,0.76925
596.191,64.7024,-3.26094,0.10223,0.76882
596.791,64.76265,-3.26096,0.10062,0.76838
597.391,64.82279,-3.26091,0.10059,0.76795
597.991,64.88291,-3.26225,0.10302,0.76751
598.591,64.94315,-3.26094,0.10381,0.76708
599.191,65.00333,-3.25964,0.1028,0.76664
599.791,65.06326,-3.26097,0.10398,0.76621
600.391,65.12337,-3.26098,0.10292,0.76577
600.991,65.18352,-3.26195,0.10261,0.76533
601.591,65.24383,-3.26227,0.10364,0.7649
602.191,65.3039,-3.26228,0.10453,0.76446
602.791,65.36411,-3.26228,0.10462,0.76402
603.391,65.4243,-3.2622,0.10612,0.76358
603.991,65.48481,-3.26359,0.10584,0.76315
604.591,65.54516,-3.26359,0.10984,0.76271
605.191,65.6054,-3.26359,0.11106,0.76227
605.791,65.66556,-3.26492,0.1095,0.76183
606.391,65.7255,-3.26491,0.11108,0.76139
606.991,65.78545,-3.26491,0.11377,0.76095
607.591,65.84558,-3.26492,0.1122,0.76051
608.191,65.9058,-3.26624,0.11359,0.76007
608.791,65.96584,-3.26491,0.11472,0.75963
609.391,66.02595,-3.26491,0.11312,0.75919
609.991,66.08599,-3.26485,0.11828,0.75874
610.591,66.14601,-3.26589,0.11564,0.7583
611.191,66.20612,-3.2661,0.11799,0.75786
611.791,66.2663,-3.26622,0.11754,0.75742
612.391,66.32653,-3.26625,0.12066,0.75697
612.991,66.38675,-3.26754,0.12231,0.75653
613.591,66.4465,-3.26747,0.11958,0.75609
614.191,66.50667,-3.2682,0.1236,0.75564
614.791,66.56694,-3.26926,0.12483,0.7552
615.391,66.62728,-3.26952,0.12369,0.75475
615.991,66.68774,-3.26819,0.12538,0.75431
616.591,66.74805,-3.26918,0.1277,0.75386
617.191,66.80848,-3.2705,0.12818,0.75342
617.791,66.8689,-3.26962,0.12789,0.75297
618.391,66.92945,-3.26919,0.1308,0.75253
618.991,66.98985,-3.26919,0.12698,0.75208
619.591,67.0504,-3.26952,0.13245,0.75163
620.191,67.11089,-3.27025,0.13213,0.75119
620.791,67.17137,-3.27084,0.13334,0.75074
621.391,67.23177,-3.27346,0.13047,0.75029
621.991,67.2923,-3.27346,0.13104,0.74984
622.591,67.3528,-3.2725,0.13483,0.74939
623.191,67.41342,-3.27248,0.13163,0.74894
623.791,67.47375,-3.27211,0.13482,0.74849
624.391,67.53424,-3.27177,0.1364,0.74805
624.991,67.59469,-3.27216,0.13571,0.7476
625.591,67.65527,-3.27214,0.13896,0.74714
626.191,67.71563,-3.27378,0.13809,0.74669
626.791,67.77606,-3.27479,0.14128,0.74624
627.391,67.83658,-3.27479,0.14167,0.74579
627.991,67.89702,-3.27489,0.1431,0.74534
628.591,67.95711,-3.27375,0.14288,0.74489
629.191,68.0176,-3.27478,0.14406,0.74444
629.791,68.0779,-3.27478,0.14554,0.74398
630.391,68.13841,-3.27478,0.14563,0.74353
630.991,68.19879,-3.27478,0.14649,0.74308
631.591,68.25904,-3.27471,0.14749,0.74262
632.191,68.3194,-3.27742,0.15247,0.74217
632.791,68.37988,-3.27742,0.14999,0.74172
633.391,68.44028,-3.27742,0.15216,0.74126
633.991,68.50023,-3.27873,0.15461,0.74081
634.591,68.56002,-3.27741,0.15212,0.74035
635.191,68.62015,-3.27741,0.15533,0.7399
635.791,68.68032,-3.27741,0.15495,0.73944
636.391,68.74095,-3.27842,0.15889,0.73898
636.991,68.80113,-3.27873,0.15797,0.73853
637.591,68.86116,-3.27798,0.16159,0.73807
638.191,68.9213,-3.2795,0.15733,0.73761
638.791,68.98141,-3.28005,0.16246,0.73715
639.391,69.04163,-3.28005,0.1652,0.7367
639.991,69.10184,-3.27955,0.16635,0.73624
640.591,69.16211,-3.27873,0.16761,0.73578
641.191,69.22231,-3.28031,0.16831,0.73532
641.791,69.28246,-3.28136,0.16815,0.73486
642.391,69.34259,-3.28136,0.17253,0.7344
642.991,69.4028,-3.28136,0.17541,0.73394
643.591,69.46319,-3.28272,0.1765,0.73348
644.191,69.5237,-3.28268,0.18027,0.73302
644.791,69.584,-3.28266,0.17801,0.73256
645.391,69.64441,-3.28138,0.18125,0.7321
645.991,69.70464,-3.28136,0.18224,0.73164
646.591,69.765,-3.28136,0.18284,0.73118
647.191,69.82526,-3.28262,0.18536,0.73071
647.791,69.88556,-3.28268,0.18422,0.73025
648.391,69.94574,-3.28268,0.18652,0.72979
648.991,70.0061,-3.28171,0.18824,0.72933
649.591,70.06658,-3.28203,0.18839,0.72886
650.191,70.12705,-3.28404,0.1927,0.7284
650.791,70.18771,-3.28268,0.18866,0.72793
651.391,70.2483,-3.28268,0.19574,0.72747
651.991,70.309,-3.2846,0.19005,0.72701
652.591,70.36975,-3.28498,0.19623,0.72654
653.191,70.43046,-3.28498,0.19423,0.72608
653.791,70.491,-3.285,0.19428,0.72561
654.391,70.55131,-3.28532,0.19182,0.72514
654.991,70.6117,-3.284,0.19522,0.72468
655.591,70.67198,-3.28532,0.1982,0.72421
656.191,70.7325,-3.28584,0.19333,0.72374
656.791,70.79318,-3.28564,0.19621,0.72328
657.391,70.8536,-3.28564,0.19423,0.72281
657.991,70.91413,-3.28566,0.19795,0.72234
658.591,70.97471,-3.28696,0.19801,0.72187
659.191,71.0352,-3.28696,0.19607,0.7214
659.791,71.09571,-3.28696,0.19657,0.72093
660.391,71.15621,-3.28696,0.19823,0.72047
660.991,71.21675,-3.28695,0.19936,0.72
661.591,71.27724,-3.28827,0.19614,0.71953
662.191,71.33784,-3.28725,0.1975,0.71906
662.791,71.39833,-3.2883,0.19805,0.71859
663.391,71.4588,-3.28832,0.19915,0.71811
663.991,71.5192,-3.28762,0.19866,0.71764
664.591,71.57943,-3.28762,0.19937,0.71717
665.191,71.63974,-3.28762,0.19954,0.7167
665.791,71.70006,-3.28762,0.20094,0.71623
666.391,71.7607,-3.28827,0.20203,0.71576
666.991,71.82141,-3.28728,0.20316,0.71528
667.591,71.88195,-3.28728,0.20072,0.71481
668.191,71.94252,-3.28728,0.20258,0.71434
668.791,72.003,-3.28728,0.20285,0.71386
669.391,72.06353,-3.28861,0.20131,0.71339
669.991,72.12406,-3.2886,0.20168,0.71291
670.591,72.18467,-3.28855,0.20224,0.71244
671.191,72.24529,-3.2906,0.20269,0.71197
671.791,72.306,-3.29124,0.20136,0.71149
672.391,72.36664,-3.29124,0.20078,0.71101
672.991,72.4271,-3.28993,0.20144,0.71054
673.591,72.4876,-3.29106,0.20037,0.71006
674.191,72.54816,-3.29248,0.19898,0.70959
674.791,72.60866,-3.29123,0.19817,0.70911
675.391,72.66926,-3.29123,0.20327,0.70863
675.991,72.72978,-3.29123,0.20433,0.70815
676.591,72.7904,-3.29288,0.20374,0.70768
677.191,72.85084,-3.29288,0.20369,0.7072
677.791,72.9113,-3.29223,0.20069,0.70672
678.391,72.97174,-3.29222,0.2045,0.70624
678.991,73.03241,-3.29222,0.19852,0.70576
679.591,73.09308,-3.29091,0.20005,0.70528
680.191,73.15389,-3.29091,0.20295,0.7048
680.791,73.21461,-3.29086,0.20328,0.70432
681.391,73.2752,-3.29223,0.20272,0.70384
681.991,73.33577,-3.29261,0.20432,0.70336
682.591,73.3962,-3.29287,0.20679,0.70288
683.191,73.4568,-3.29151,0.20409,0.7024
683.791,73.51734,-3.29156,0.20695,0.70192
684.391,73.578,-3.29183,0.20532,0.70144
684.991,73.6386,-3.29321,0.20354,0.70096
685.591,73.69922,-3.29352,0.20598,0.70047
686.191,73.7598,-3.29354,0.20696,0.69999
686.791,73.82059,-3.29354,0.20774,0.69951
687.391,73.88101,-3.29486,0.20611,0.69902
687.991,73.94168,-3.29485,0.20686,0.69854
688.591,74.00227,-3.29354,0.20926,0.69806
689.191,74.06309,-3.29354,0.2086,0.69757
689.791,74.1238,-3.29354,0.20686,0.69709
690.391,74.18431,-3.29484,0.20728,0.6966
690.991,74.24467,-3.29485,0.20652,0.69612
691.591,74.30504,-3.29558,0.20925,0.69563
692.191,74.36551,-3.29551,0.20602,0.69515
692.791,74.4259,-3.29584,0.20942,0.69466
693.391,74.48635,-3.29606,0.20753,0.69418
693.991,74.54666,-3.29617,0.2096,0.69369
694.591,74.60701,-3.29617,0.211,0.6932
695.191,74.66735,-3.29617,0.20832,0.69271
695.791,74.72761,-3.29617,0.21069,0.69223
696.391,74.788,-3.29734,0.21168,0.69174
696.991,74.84823,-3.29749,0.21585,0.69125
697.591,74.9085,-3.29751,0.2144,0.69076
698.191,74.96887,-3.29713,0.2166,0.69027
698.791,75.02941,-3.29715,0.21564,0.68979
699.391,75.0899,-3.29715,0.21553,0.6893
699.991,75.15024,-3.29748,0.21621,0.68881
700.591,75.21085,-3.2988,0.21901,0.68832
701.191,75.27157,-3.29845,0.21856,0.68783
701.791,75.33248,-3.29847,0.22034,0.68734
702.391,75.3934,-3.29847,0.21837,0.68685
702.991,75.45421,-3.29847,0.21808,0.68635
703.591,75.51493,-3.29847,0.21917,0.68586
704.191,75.57563,-3.29848,0.21974,0.68537
704.791,75.63631,-3.29979,0.21916,0.68488
705.391,75.69719,-3.29979,0.21972,0.68439
705.991,75.758,-3.29979,0.21579,0.68389
706.591,75.8189,-3.30109,0.21658,0.6834
707.191,75.8797,-3.3011,0.21854,0.68291
707.791,75.94044,-3.29979,0.22106,0.68242
708.391,76.00117,-3.29979,0.21844,0.68192
708.991,76.062,-3.29979,0.21401,0.68143
709.591,76.12266,-3.3012,0.21758,0.68093
710.191,76.18343,-3.30111,0.21699,0.68044
710.791,76.24438,-3.30109,0.21515,0.67994
711.391,76.30533,-3.30045,0.21467,0.67945
711.991,76.3662,-3.2998,0.21686,0.67895
712.591,76.4269,-3.29979,0.21541,0.67846
713.191,76.48761,-3.29979,0.21566,0.67796
713.791,76.54827,-3.30062,0.21823,0.67747
714.391,76.60894,-3.30108,0.21512,0.67697
714.991,76.6696,-3.30243,0.21515,0.67647
715.591,76.7303,-3.30243,0.21463,0.67598
716.191,76.7907,-3.30378,0.21185,0.67548
716.791,76.85133,-3.30373,0.21162,0.67498
717.391,76.91192,-3.30242,0.21487,0.67448
717.991,76.97265,-3.30242,0.21253,0.67398
718.591,77.03361,-3.30242,0.21203,0.67349
719.191,77.0941,-3.30242,0.21477,0.67299
719.791,77.15465,-3.30341,0.21428,0.67249
720.391,77.21528,-3.30215,0.21395,0.67199
720.991,77.2761,-3.30242,0.21521,0.67149
721.591,77.337,-3.30373,0.21448,0.67099
722.191,77.3978,-3.30374,0.21168,0.67049
722.791,77.45818,-3.30271,0.21049,0.66999
723.391,77.51892,-3.30275,0.20721,0.66949
723.991,77.57959,-3.30406,0.21563,0.66899
724.591,77.64064,-3.30538,0.2096,0.66849
725.191,77.70133,-3.30538,0.21369,0.66798
725.791,77.76218,-3.30538,0.20887,0.66748
726.391,77.82298,-3.30539,0.21218,0.66698
726.991,77.88382,-3.30538,0.21226,0.66648
727.591,77.94474,-3.30435,0.21183,0.66598
728.191,78.00578,-3.30407,0.21018,0.66547
728.791,78.06695,-3.30407,0.21254,0.66497
729.391,78.12801,-3.30409,0.20762,0.66447
729.991,78.1891,-3.30539,0.2076,0.66396
730.591,78.25024,-3.30539,0.20937,0.66346
731.191,78.31146,-3.30539,0.20462,0.66295
731.791,78.37267,-3.30802,0.20743,0.66245
732.391,78.4338,-3.30796,0.20565,0.66195
732.991,78.4948,-3.30604,0.20679,0.66144
733.591,78.55594,-3.30604,0.20599,0.66094
734.191,78.61712,-3.30605,0.20693,0.66043
734.791,78.67835,-3.30736,0.20596,0.65992
735.391,78.73963,-3.30736,0.20421,0.65942
735.991,78.80113,-3.30736,0.20702,0.65891
736.591,78.8623,-3.30736,0.20496,0.6584
737.191,78.92351,-3.30869,0.20514,0.6579
737.791,78.98448,-3.30901,0.20309,0.65739
738.391,79.04555,-3.30901,0.20242,0.65688
738.991,79.1067,-3.30901,0.1995,0.65638
739.591,79.1678,-3.30901,0.19914,0.65587
740.191,79.22917,-3.30769,0.19928,0.65536
740.791,79.29034,-3.30769,0.19826,0.65485
741.391,79.35146,-3.30667,0.19896,0.65434
741.991,79.41243,-3.30801,0.19597,0.65383
742.591,79.47363,-3.30801,0.19687,0.65332
743.191,79.5348,-3.30801,0.19694,0.65281
743.791,79.596,-3.30801,0.19672,0.6523
744.391,79.65703,-3.30796,0.1975,0.65179
744.991,79.718,-3.30929,0.19432,0.65128
745.591,79.77917,-3.31065,0.19623,0.65077
746.191,79.84028,-3.31065,0.19504,0.65026
746.791,79.90137,-3.31071,0.19588,0.64975
747.391,79.96219,-3.31065,0.19643,0.64924
747.691,79.9926,-3.31065,0.19431,0.64899