File: 01_Data/Basswood_Panel/STA/N2/10K_min/Basswood_STA_N2_10KData_220314_R2.csv
##Temp./Â°C,Time/min,Mass loss(subtr.)/mg,DSC(subtr.)/(mW/mg),Sensit./(uV/mW)
49.737,10.01,-0.05759,0.02914516,1.07514
50.437,10.7606,-0.06146285,0.06233706,1.07477
51.137,10.96363,-0.06172449,0.0886825,1.07441
51.837,11.11515,-0.06314084,0.11311,1.07404
52.537,11.24335,-0.06305926,0.12978,1.07368
53.237,11.35683,-0.06323261,0.14626,1.07331
53.937,11.46295,-0.06390649,0.15968,1.07295
54.637,11.5638,-0.0648086,0.17068,1.07258
55.337,11.65835,-0.06393864,0.18043,1.07222
56.037,11.7499,-0.06602698,0.19155,1.07185
56.737,11.83848,-0.06665741,0.19951,1.07149
57.437,11.92457,-0.06710239,0.20535,1.07113
58.137,12.009,-0.06637246,0.2123,1.07076
58.837,12.09165,-0.06744502,0.21852,1.0704
59.537,12.1729,-0.0686828,0.22479,1.07003
60.237,12.25328,-0.06731584,0.2317,1.06967
60.937,12.333,-0.06735921,0.23564,1.06931
61.637,12.41216,-0.06869559,0.24069,1.06894
62.337,12.4905,-0.06858569,0.24566,1.06858
63.037,12.56835,-0.06892798,0.24973,1.06822
63.737,12.64608,-0.06923335,0.25259,1.06785
64.437,12.72366,-0.06906331,0.2548,1.06749
65.137,12.80079,-0.06928968,0.2576,1.06713
65.837,12.87622,-0.06912466,0.26103,1.06676
66.537,12.95253,-0.06890111,0.26428,1.0664
67.237,13.02873,-0.07021251,0.26847,1.06604
67.937,13.10511,-0.07047196,0.27075,1.06567
68.637,13.1803,-0.07152852,0.2753,1.06531
69.337,13.2554,-0.07151806,0.27598,1.06495
70.037,13.33065,-0.07282887,0.27799,1.06459
70.737,13.4058,-0.07415728,0.27996,1.06422
71.437,13.4805,-0.07284004,0.28192,1.06386
72.137,13.55499,-0.07283175,0.28553,1.0635
72.837,13.62934,-0.07414963,0.28744,1.06314
73.537,13.70385,-0.07547383,0.29057,1.06277
74.237,13.77777,-0.07415666,0.29445,1.06241
74.937,13.85175,-0.07547048,0.29604,1.06205
75.637,13.92459,-0.07547303,0.29707,1.06169
76.337,13.99787,-0.07625545,0.30057,1.06132
77.037,14.0709,-0.07542657,0.30265,1.06096
77.737,14.1444,-0.07678213,0.30231,1.0606
78.437,14.2172,-0.07809881,0.30595,1.06024
79.137,14.29001,-0.07745077,0.30501,1.05988
79.837,14.36249,-0.0781182,0.3087,1.05952
80.537,14.43419,-0.07945791,0.30874,1.05915
81.237,14.50622,-0.07942117,0.31055,1.05879
81.937,14.57807,-0.08064792,0.31458,1.05843
82.637,14.6502,-0.08204998,0.31347,1.05807
83.337,14.7218,-0.08337509,0.31579,1.05771
84.037,14.79345,-0.08310953,0.31719,1.05735
84.737,14.8649,-0.08330872,0.31591,1.05699
85.437,14.93569,-0.08204986,0.31721,1.05663
86.137,15.0063,-0.08339836,0.31529,1.05626
86.837,15.0769,-0.08336,0.31564,1.0559
87.537,15.14736,-0.08336978,0.3159,1.05554
88.237,15.218,-0.0846741,0.31635,1.05518
88.937,15.28839,-0.0859535,0.32036,1.05482
89.637,15.3589,-0.08733758,0.31949,1.05446
90.337,15.42875,-0.08596973,0.31611,1.0541
91.037,15.49889,-0.08641231,0.3177,1.05374
91.737,15.56879,-0.08632999,0.317,1.05338
92.437,15.63925,-0.08759241,0.31667,1.05302
93.137,15.7087,-0.08787343,0.31676,1.05266
93.837,15.77811,-0.09053432,0.31604,1.0523
94.537,15.84731,-0.08930103,0.31343,1.05194
95.237,15.917,-0.08883456,0.31377,1.05158
95.937,15.98654,-0.08785968,0.31393,1.05122
96.637,16.056,-0.08916847,0.31271,1.05086
97.337,16.12486,-0.09049018,0.31219,1.0505
98.037,16.19445,-0.09172344,0.31109,1.05014
98.737,16.26376,-0.0901663,0.31049,1.04978
99.437,16.33331,-0.08914662,0.31081,1.04942
100.137,16.40213,-0.09060027,0.31089,1.04906
100.837,16.47096,-0.0906,0.30835,1.0487
101.537,16.5398,-0.0906,0.3097,1.04834
102.237,16.6086,-0.09194513,0.3084,1.04799
102.937,16.6772,-0.09192012,0.30796,1.04763
103.637,16.7461,-0.09322241,0.30615,1.04727
104.337,16.81512,-0.09291067,0.30564,1.04691
105.037,16.88409,-0.09152474,0.30458,1.04655
105.737,16.95262,-0.09274729,0.30601,1.04619
106.437,17.02025,-0.09291001,0.30483,1.04583
107.137,17.08897,-0.09291699,0.30545,1.04547
107.837,17.1575,-0.09442586,0.3058,1.04511
108.537,17.22699,-0.09385735,0.30527,1.04476
109.237,17.29569,-0.09386369,0.3064,1.0444
109.937,17.36453,-0.09492199,0.30535,1.04404
110.637,17.43315,-0.09520376,0.30637,1.04368
111.337,17.5018,-0.09390011,0.3042,1.04332
112.037,17.57024,-0.0939,0.3056,1.04297
112.737,17.63879,-0.09390111,0.30287,1.04261
113.437,17.70731,-0.09520872,0.30715,1.04225
114.137,17.77594,-0.09621316,0.30545,1.04189
114.837,17.84447,-0.0961559,0.30584,1.04153
115.537,17.9129,-0.09752243,0.30635,1.04118
116.237,17.9813,-0.09619765,0.30832,1.04082
116.937,18.0498,-0.097519,0.30696,1.04046
117.637,18.11823,-0.09666095,0.30679,1.0401
118.337,18.18656,-0.09750988,0.30869,1.03975
119.037,18.25476,-0.09851567,0.30748,1.03939
119.737,18.32289,-0.0985004,0.31032,1.03903
120.437,18.39126,-0.09882836,0.30866,1.03867
121.137,18.45951,-0.09813911,0.31019,1.03832
121.837,18.5276,-0.09883013,0.309,1.03796
122.537,18.59573,-0.09850802,0.3132,1.0376
123.237,18.66372,-0.09697217,0.3131,1.03725
123.937,18.73186,-0.09837944,0.31365,1.03689
124.637,18.79959,-0.09872524,0.31382,1.03653
125.337,18.86725,-0.10002,0.31422,1.03617
126.037,18.93487,-0.09905031,0.3139,1.03582
126.737,19.00281,-0.09902123,0.31731,1.03546
127.437,19.07074,-0.10036,0.31877,1.0351
128.137,19.13873,-0.10038,0.31847,1.03475
128.837,19.20656,-0.09998786,0.31777,1.03439
129.537,19.2744,-0.10138,0.32228,1.03404
130.237,19.34248,-0.10366,0.32104,1.03368
130.937,19.4103,-0.10366,0.32131,1.03332
131.637,19.4785,-0.10235,0.32041,1.03297
132.337,19.5462,-0.10334,0.32353,1.03261
133.037,19.61412,-0.10264,0.32271,1.03225
133.737,19.68199,-0.103,0.32544,1.0319
134.437,19.75011,-0.10334,0.32491,1.03154
135.137,19.81813,-0.10365,0.32606,1.03119
135.837,19.8859,-0.10493,0.32635,1.03083
136.537,19.95373,-0.1037,0.32572,1.03048
137.237,20.02147,-0.10497,0.32468,1.03012
137.937,20.08923,-0.10497,0.32382,1.02976
138.637,20.15709,-0.10432,0.328,1.02941
139.337,20.22502,-0.10496,0.32751,1.02905
140.037,20.2927,-0.1053,0.32961,1.0287
140.737,20.36,-0.10464,0.32931,1.02834
141.437,20.42738,-0.10497,0.33002,1.02799
142.137,20.49475,-0.10497,0.33123,1.02763
142.837,20.56244,-0.10627,0.33423,1.02728
143.537,20.63,-0.1076,0.33489,1.02692
144.237,20.69773,-0.10662,0.33392,1.02657
144.937,20.76519,-0.10662,0.33663,1.02621
145.637,20.8327,-0.10662,0.33406,1.02586
146.337,20.90021,-0.1076,0.33517,1.0255
147.037,20.96762,-0.10784,0.33831,1.02515
147.737,21.03499,-0.10651,0.34109,1.02479
148.437,21.10238,-0.10669,0.33841,1.02444
149.137,21.16965,-0.10914,0.33988,1.02408
149.837,21.23698,-0.10914,0.34205,1.02373
150.537,21.30431,-0.10859,0.34277,1.02337
151.237,21.37138,-0.1098,0.34373,1.02302
151.937,21.43843,-0.10912,0.34431,1.02266
152.637,21.5057,-0.10914,0.34519,1.02231
153.337,21.57262,-0.1098,0.34787,1.02195
154.037,21.64014,-0.11046,0.3471,1.0216
154.737,21.70734,-0.11046,0.34756,1.02125
155.437,21.7752,-0.11188,0.34862,1.02089
156.137,21.84256,-0.11111,0.35036,1.02054
156.837,21.90999,-0.11111,0.35179,1.02018
157.537,21.97725,-0.11046,0.35079,1.01983
158.237,22.04443,-0.11046,0.35256,1.01947
158.937,22.1117,-0.11058,0.35277,1.01912
159.637,22.17882,-0.11177,0.35488,1.01877
160.337,22.24609,-0.11177,0.35424,1.01841
161.037,22.31319,-0.11237,0.35434,1.01806
161.737,22.38058,-0.11243,0.35281,1.0177
162.437,22.44792,-0.11243,0.35662,1.01735
163.137,22.51524,-0.11375,0.35779,1.017
163.837,22.58257,-0.11506,0.35663,1.01664
164.537,22.64998,-0.11506,0.35716,1.01629
165.237,22.71743,-0.11638,0.36185,1.01594
165.937,22.78461,-0.11638,0.36028,1.01558
166.637,22.85166,-0.11638,0.3626,1.01523
167.337,22.91882,-0.11638,0.36229,1.01487
168.037,22.98617,-0.11638,0.36216,1.01452
168.737,23.05349,-0.11569,0.36301,1.01417
169.437,23.1207,-0.11637,0.3639,1.01381
170.137,23.1877,-0.11633,0.36615,1.01346
170.837,23.25489,-0.11814,0.36649,1.01311
171.537,23.3219,-0.11901,0.36643,1.01275
172.237,23.38905,-0.11714,0.36766,1.0124
172.937,23.4561,-0.11765,0.36843,1.01205
173.637,23.5233,-0.11769,0.36956,1.01169
174.337,23.59036,-0.11804,0.37109,1.01134
175.037,23.65772,-0.11901,0.37006,1.01099
175.737,23.72499,-0.11901,0.37142,1.01063
176.437,23.79235,-0.11966,0.37428,1.01028
177.137,23.85941,-0.11967,0.37238,1.00993
177.837,23.92643,-0.12099,0.37278,1.00957
178.537,23.99353,-0.12099,0.3741,1.00922
179.237,24.06062,-0.12099,0.37658,1.00887
179.937,24.12785,-0.12099,0.37387,1.00852
180.637,24.19504,-0.12167,0.37644,1.00816
181.337,24.26227,-0.12296,0.37757,1.00781
182.037,24.32917,-0.12296,0.3799,1.00746
182.737,24.39601,-0.1243,0.38043,1.0071
183.437,24.46282,-0.12548,0.37978,1.00675
184.137,24.52968,-0.12428,0.38308,1.0064
184.837,24.59665,-0.12428,0.38329,1.00605
185.537,24.66359,-0.1256,0.38384,1.00569
186.237,24.7306,-0.1256,0.38507,1.00534
186.937,24.79753,-0.12689,0.38689,1.00499
187.637,24.8645,-0.1256,0.38827,1.00463
188.337,24.93126,-0.12822,0.39017,1.00428
189.037,24.99811,-0.12818,0.39082,1.00393
189.737,25.06502,-0.12954,0.39071,1.00358
190.437,25.13202,-0.12855,0.39072,1.00322
191.137,25.19886,-0.12856,0.39451,1.00287
191.837,25.2657,-0.12986,0.39386,1.00252
192.537,25.33265,-0.12987,0.39468,1.00216
193.237,25.39903,-0.12987,0.39738,1.00181
193.937,25.46583,-0.13082,0.39784,1.00146
194.637,25.53246,-0.13119,0.40045,1.00111
195.337,25.59984,-0.13119,0.40159,1.00075
196.037,25.66676,-0.13251,0.40332,1.0004
196.737,25.73357,-0.13114,0.40374,1.00005
197.437,25.80027,-0.13251,0.40645,0.9997
198.137,25.8672,-0.13382,0.40785,0.99934
198.837,25.93396,-0.13382,0.40988,0.99899
199.537,26.00092,-0.13513,0.41136,0.99864
200.237,26.06779,-0.13593,0.41249,0.99829
200.937,26.13467,-0.13768,0.4166,0.99793
201.637,26.20139,-0.14062,0.41257,0.99758
202.337,26.26795,-0.13902,0.41585,0.99723
203.037,26.33489,-0.13941,0.41905,0.99687
203.737,26.40183,-0.13941,0.41789,0.99652
204.437,26.4687,-0.13941,0.41825,0.99617
205.137,26.53564,-0.14203,0.4192,0.99582
205.837,26.6027,-0.14205,0.42075,0.99546
206.537,26.67003,-0.14468,0.42109,0.99511
207.237,26.7371,-0.1435,0.42309,0.99476
207.937,26.8039,-0.14477,0.42345,0.99441
208.637,26.8707,-0.14599,0.42629,0.99405
209.337,26.9376,-0.14764,0.428,0.9937
210.037,27.00478,-0.14994,0.42876,0.99335
210.737,27.0717,-0.14995,0.43079,0.99299
211.437,27.1387,-0.15126,0.432,0.99264
212.137,27.2056,-0.15258,0.43226,0.99229
212.837,27.2724,-0.1539,0.43261,0.99194
213.537,27.3393,-0.15418,0.43496,0.99158
214.237,27.4062,-0.15521,0.43297,0.99123
214.937,27.4733,-0.15536,0.43654,0.99088
215.637,27.54052,-0.15653,0.43707,0.99053
216.337,27.60763,-0.1579,0.43599,0.99017
217.037,27.6747,-0.15913,0.43353,0.98982
217.737,27.7416,-0.16158,0.4315,0.98947
218.437,27.80857,-0.16179,0.43322,0.98911
219.137,27.87518,-0.16445,0.43389,0.98876
219.837,27.9419,-0.16442,0.43444,0.98841
220.537,28.00862,-0.16578,0.434,0.98806
221.237,28.0755,-0.16673,0.43662,0.9877
221.937,28.1423,-0.168,0.43802,0.98735
222.637,28.2091,-0.17027,0.43956,0.987
223.337,28.2756,-0.17072,0.43739,0.98664
224.037,28.3422,-0.17263,0.43919,0.98629
224.737,28.4088,-0.17394,0.43921,0.98594
225.437,28.4758,-0.17529,0.43998,0.98558
226.137,28.54246,-0.17745,0.44056,0.98523
226.837,28.6092,-0.17886,0.43965,0.98488
227.537,28.676,-0.18123,0.44091,0.98452
228.237,28.7423,-0.18252,0.44047,0.98417
228.937,28.80917,-0.18384,0.4411,0.98382
229.637,28.87582,-0.18742,0.44089,0.98346
230.337,28.94298,-0.18909,0.43963,0.98311
231.037,29.00982,-0.18974,0.44025,0.98276
231.737,29.07658,-0.19042,0.44071,0.9824
232.437,29.1432,-0.19175,0.43873,0.98205
233.137,29.20975,-0.19305,0.43932,0.9817
233.837,29.27631,-0.1945,0.44098,0.98134
234.537,29.343,-0.19785,0.43932,0.98099
235.237,29.40972,-0.19964,0.43953,0.98064
235.937,29.47673,-0.20095,0.43733,0.98028
236.637,29.5435,-0.20295,0.43699,0.97993
237.337,29.61014,-0.20502,0.43949,0.97958
238.037,29.67685,-0.2082,0.43751,0.97922
238.737,29.7437,-0.21021,0.43917,0.97887
239.437,29.81036,-0.21292,0.43861,0.97851
240.137,29.8772,-0.21409,0.4353,0.97816
240.837,29.94388,-0.21426,0.43673,0.97781
241.537,30.01067,-0.21657,0.43617,0.97745
242.237,30.07726,-0.21816,0.43604,0.9771
242.937,30.1438,-0.22073,0.43436,0.97674
243.637,30.2104,-0.22225,0.4353,0.97639
244.337,30.27709,-0.22499,0.43624,0.97604
245.037,30.34385,-0.22694,0.43648,0.97568
245.737,30.41048,-0.22959,0.43667,0.97533
246.437,30.4772,-0.23237,0.43787,0.97497
247.137,30.54385,-0.23496,0.43837,0.97462
247.837,30.6105,-0.23739,0.43633,0.97426
248.537,30.6772,-0.24037,0.43773,0.97391
249.237,30.7439,-0.24193,0.43853,0.97355
249.937,30.8103,-0.2445,0.43825,0.9732
250.637,30.87674,-0.24653,0.43905,0.97284
251.337,30.94325,-0.2511,0.44261,0.97249
252.037,31.01026,-0.25296,0.44064,0.97213
252.737,31.0771,-0.25578,0.44403,0.97178
253.437,31.14382,-0.25854,0.44303,0.97142
254.137,31.2103,-0.26063,0.44331,0.97107
254.837,31.27698,-0.26321,0.44214,0.97071
255.537,31.3435,-0.26753,0.44384,0.97036
256.237,31.41,-0.27071,0.44543,0.97
256.937,31.47653,-0.27465,0.4425,0.96965
257.637,31.54324,-0.27656,0.44027,0.96929
258.337,31.61005,-0.27916,0.4381,0.96894
259.037,31.6767,-0.2833,0.43657,0.96858
259.737,31.74343,-0.28671,0.4395,0.96823
260.437,31.8101,-0.2899,0.43857,0.96787
261.137,31.8769,-0.29303,0.43976,0.96751
261.837,31.94365,-0.29683,0.43853,0.96716
262.537,32.0103,-0.30242,0.44169,0.9668
263.237,32.07698,-0.307,0.43841,0.96645
263.937,32.14367,-0.30993,0.44085,0.96609
264.637,32.21048,-0.31516,0.4434,0.96573
265.337,32.2774,-0.31816,0.44259,0.96538
266.037,32.34408,-0.32251,0.44119,0.96502
266.737,32.4109,-0.32685,0.44063,0.96466
267.437,32.47765,-0.33155,0.44423,0.96431
268.137,32.54432,-0.33691,0.4415,0.96395
268.837,32.61097,-0.34169,0.44069,0.96359
269.537,32.6776,-0.34713,0.43923,0.96324
270.237,32.74413,-0.35079,0.44083,0.96288
270.937,32.81095,-0.35647,0.4424,0.96252
271.637,32.87771,-0.36205,0.44425,0.96217
272.337,32.94471,-0.36774,0.44305,0.96181
273.037,33.01135,-0.37381,0.44288,0.96145
273.737,33.0779,-0.38171,0.44289,0.96109
274.437,33.14462,-0.38734,0.44363,0.96074
275.137,33.21127,-0.39398,0.44346,0.96038
275.837,33.27803,-0.39952,0.44513,0.96002
276.537,33.34486,-0.40673,0.44296,0.95966
277.237,33.4117,-0.41355,0.44057,0.9593
277.937,33.47862,-0.42074,0.44193,0.95895
278.637,33.54544,-0.42861,0.4384,0.95859
279.337,33.6124,-0.43697,0.43807,0.95823
280.037,33.6793,-0.4442,0.43634,0.95787
280.737,33.74641,-0.45155,0.438,0.95751
281.437,33.81312,-0.46117,0.43712,0.95715
282.137,33.87982,-0.47021,0.43735,0.9568
282.837,33.9468,-0.47813,0.43359,0.95644
283.537,34.01398,-0.4885,0.4333,0.95608
284.237,34.0811,-0.49787,0.43151,0.95572
284.937,34.1481,-0.50761,0.43092,0.95536
285.637,34.2149,-0.51646,0.42809,0.955
286.337,34.2818,-0.52592,0.42683,0.95464
287.037,34.34879,-0.53552,0.42726,0.95428
287.737,34.41584,-0.54594,0.42871,0.95392
288.437,34.4827,-0.55623,0.42604,0.95356
289.137,34.5498,-0.56814,0.42595,0.9532
289.837,34.6168,-0.57901,0.42205,0.95284
290.537,34.6839,-0.58948,0.42214,0.95248
291.237,34.75073,-0.60094,0.41975,0.95212
291.937,34.81779,-0.61186,0.41882,0.95176
292.637,34.88495,-0.62432,0.41649,0.9514
293.337,34.95208,-0.63526,0.41463,0.95104
294.037,35.01893,-0.64771,0.41424,0.95068
294.737,35.08569,-0.65902,0.41408,0.95032
295.437,35.15253,-0.67025,0.41316,0.94996
296.137,35.21969,-0.6821,0.41239,0.94959
296.837,35.28663,-0.6958,0.41062,0.94923
297.537,35.35371,-0.70956,0.41078,0.94887
298.237,35.4206,-0.71951,0.41008,0.94851
298.937,35.48773,-0.73376,0.4113,0.94815
299.637,35.5548,-0.74574,0.40999,0.94779
300.337,35.62178,-0.75763,0.40884,0.94742
301.037,35.68895,-0.77107,0.4084,0.94706
301.737,35.7562,-0.78469,0.40632,0.9467
302.437,35.82369,-0.79663,0.40683,0.94634
303.137,35.89105,-0.80997,0.40962,0.94597
303.837,35.9582,-0.82322,0.41047,0.94561
304.537,36.02538,-0.8362,0.4097,0.94525
305.237,36.09245,-0.85049,0.40731,0.94489
305.937,36.1596,-0.86315,0.41339,0.94452
306.637,36.2269,-0.87524,0.41334,0.94416
307.337,36.29423,-0.88978,0.41375,0.9438
308.037,36.36156,-0.90242,0.4131,0.94343
308.737,36.42887,-0.91473,0.41485,0.94307
309.437,36.49612,-0.93,0.41655,0.9427
310.137,36.56328,-0.94252,0.41877,0.94234
310.837,36.63047,-0.9557,0.4186,0.94198
311.537,36.69777,-0.96859,0.42247,0.94161
312.237,36.76502,-0.98145,0.42165,0.94125
312.937,36.83214,-0.99475,0.42426,0.94088
313.637,36.89932,-1.00798,0.4273,0.94052
314.337,36.96686,-1.02257,0.42864,0.94015
315.037,37.03447,-1.03535,0.42805,0.93979
315.737,37.1021,-1.04754,0.42741,0.93942
316.437,37.16936,-1.06104,0.43143,0.93906
317.137,37.23679,-1.07478,0.4336,0.93869
317.837,37.30418,-1.08827,0.43464,0.93832
318.537,37.37172,-1.10287,0.43545,0.93796
319.237,37.43916,-1.11548,0.44124,0.93759
319.937,37.50645,-1.13004,0.44533,0.93723
320.637,37.5738,-1.14307,0.44776,0.93686
321.337,37.64114,-1.15662,0.45256,0.93649
322.037,37.7084,-1.17109,0.45646,0.93612
322.737,37.7757,-1.18436,0.45869,0.93576
323.437,37.84303,-1.19825,0.46214,0.93539
324.137,37.9106,-1.21314,0.46696,0.93502
324.837,37.9782,-1.22811,0.46909,0.93466
325.537,38.0458,-1.24303,0.47375,0.93429
326.237,38.11358,-1.25848,0.4771,0.93392
326.937,38.18122,-1.27288,0.48191,0.93355
327.637,38.24901,-1.28877,0.48655,0.93318
328.337,38.31671,-1.30302,0.48788,0.93281
329.037,38.3847,-1.31897,0.49397,0.93245
329.737,38.45263,-1.33461,0.49845,0.93208
330.437,38.52046,-1.35091,0.50382,0.93171
331.137,38.58784,-1.36526,0.50825,0.93134
331.837,38.6555,-1.38218,0.51298,0.93097
332.537,38.72334,-1.39757,0.51764,0.9306
333.237,38.79152,-1.41441,0.5235,0.93023
333.937,38.85935,-1.4319,0.52914,0.92986
334.637,38.92718,-1.44783,0.53374,0.92949
335.337,38.99504,-1.46561,0.54188,0.92912
336.037,39.06276,-1.48357,0.54551,0.92875
336.737,39.13074,-1.50147,0.55328,0.92838
337.437,39.1986,-1.51996,0.55852,0.928
338.137,39.2667,-1.53767,0.56705,0.92763
338.837,39.33441,-1.55587,0.57209,0.92726
339.537,39.4021,-1.57474,0.58011,0.92689
340.237,39.4698,-1.59688,0.58586,0.92652
340.937,39.5375,-1.6147,0.58994,0.92615
341.637,39.6051,-1.63592,0.59947,0.92577
342.337,39.67269,-1.65671,0.6073,0.9254
343.037,39.74058,-1.67624,0.61421,0.92503
343.737,39.80859,-1.69777,0.61954,0.92466
344.437,39.8764,-1.71978,0.62722,0.92428
345.137,39.94395,-1.74351,0.63604,0.92391
345.837,40.01161,-1.7665,0.64128,0.92354
346.537,40.07945,-1.78859,0.65012,0.92316
347.237,40.1471,-1.81273,0.6559,0.92279
347.937,40.2147,-1.83676,0.6617,0.92241
348.637,40.28219,-1.86082,0.67059,0.92204
349.337,40.34987,-1.88667,0.67512,0.92166
350.037,40.41755,-1.91138,0.68171,0.92129
350.737,40.48532,-1.93677,0.68838,0.92091
351.437,40.55315,-1.96338,0.69371,0.92054
352.137,40.62068,-1.98871,0.69883,0.92016
352.837,40.68838,-2.01569,0.70608,0.91979
353.537,40.75609,-2.04354,0.70972,0.91941
354.237,40.82396,-2.07246,0.71459,0.91904
354.937,40.8917,-2.09865,0.71484,0.91866
355.637,40.9594,-2.12872,0.71871,0.91828
356.337,41.02714,-2.15808,0.72233,0.91791
357.037,41.09475,-2.18524,0.72067,0.91753
357.737,41.16248,-2.21449,0.72241,0.91715
358.437,41.2301,-2.24445,0.71905,0.91677
359.137,41.29777,-2.27299,0.71887,0.91639
359.837,41.36558,-2.30341,0.71568,0.91602
360.537,41.43325,-2.3331,0.71209,0.91564
361.237,41.5011,-2.36267,0.70686,0.91526
361.937,41.56892,-2.39082,0.70216,0.91488
362.637,41.63677,-2.421,0.68824,0.9145
363.337,41.70465,-2.45113,0.68227,0.91412
364.037,41.7725,-2.47877,0.66999,0.91374
364.737,41.84036,-2.5066,0.65834,0.91336
365.437,41.90821,-2.53922,0.6411,0.91298
366.137,41.97587,-2.56476,0.62598,0.9126
366.837,42.0436,-2.59206,0.60905,0.91222
367.537,42.1113,-2.61769,0.58928,0.91184
368.237,42.17903,-2.64334,0.56751,0.91146
368.937,42.2466,-2.66613,0.54564,0.91108
369.637,42.31429,-2.69107,0.52068,0.9107
370.337,42.38193,-2.71274,0.49744,0.91032
371.037,42.4495,-2.73389,0.46874,0.90993
371.737,42.51712,-2.75537,0.44107,0.90955
372.437,42.58452,-2.77448,0.41383,0.90917
373.137,42.65222,-2.79103,0.38604,0.90879
373.837,42.71973,-2.80835,0.35661,0.9084
374.537,42.7875,-2.82312,0.32967,0.90802
375.237,42.8551,-2.83796,0.30224,0.90764
375.937,42.92261,-2.85093,0.27609,0.90725
376.637,42.99023,-2.86164,0.24891,0.90687
377.337,43.05775,-2.87126,0.2277,0.90648
378.037,43.1252,-2.88086,0.20479,0.9061
378.737,43.19257,-2.88946,0.18704,0.90571
379.437,43.26,-2.8954,0.17047,0.90533
380.137,43.32776,-2.90212,0.15616,0.90494
380.837,43.39564,-2.90812,0.14167,0.90456
381.537,43.4634,-2.91194,0.13227,0.90417
382.237,43.53115,-2.91832,0.12002,0.90379
382.937,43.59905,-2.92188,0.11266,0.9034
383.637,43.667,-2.92583,0.10743,0.90301
384.337,43.73487,-2.92986,0.10072,0.90263
385.037,43.8028,-2.93384,0.09505942,0.90224
385.737,43.87093,-2.93753,0.09023459,0.90185
386.437,43.93894,-2.94225,0.08807387,0.90146
387.137,44.0071,-2.94377,0.08382896,0.90107
387.837,44.07522,-2.94682,0.08172805,0.90069
388.537,44.14355,-2.94986,0.07854047,0.9003
389.237,44.21206,-2.95262,0.07472106,0.89991
389.937,44.2804,-2.95455,0.07230982,0.89952
390.637,44.34871,-2.95778,0.07165442,0.89913
391.337,44.41681,-2.95991,0.06692479,0.89874
392.037,44.4848,-2.96253,0.06750629,0.89835
392.737,44.55281,-2.96504,0.06406221,0.89796
393.437,44.62103,-2.96812,0.06068475,0.89757
394.137,44.6894,-2.97097,0.05765045,0.89718
394.837,44.75764,-2.97444,0.05751202,0.89679
395.537,44.82582,-2.97801,0.05668802,0.89639
396.237,44.89398,-2.9805,0.05631165,0.896
396.937,44.96243,-2.9821,0.05296838,0.89561
397.637,45.03082,-2.98357,0.04924921,0.89522
398.337,45.0993,-2.98664,0.0488398,0.89483
399.037,45.16769,-2.98796,0.04816098,0.89443
399.737,45.2362,-2.99048,0.04370211,0.89404
400.437,45.3048,-2.99195,0.0416563,0.89365
401.137,45.3735,-2.99484,0.04233467,0.89325
401.837,45.44211,-2.99755,0.0416285,0.89286
402.537,45.51068,-3.00032,0.03791195,0.89246
403.237,45.5791,-3.00221,0.03431891,0.89207
403.937,45.64778,-3.00485,0.03422977,0.89167
404.637,45.71646,-3.00616,0.02974743,0.89128
405.337,45.7852,-3.0089,0.0304803,0.89088
406.037,45.854,-3.01008,0.03018459,0.89048
406.737,45.9227,-3.01307,0.03077299,0.89009
407.437,45.99158,-3.01579,0.02627249,0.88969
408.137,46.0597,-3.01734,0.02430583,0.88929
408.837,46.1277,-3.01969,0.02512257,0.8889
409.537,46.1961,-3.02167,0.02546897,0.8885
410.237,46.26491,-3.02383,0.02256968,0.8881
410.937,46.3343,-3.0251,0.02189132,0.8877
411.637,46.40307,-3.02873,0.02190144,0.88731
412.337,46.47183,-3.03023,0.02036794,0.88691
413.037,46.5403,-3.0315,0.02415729,0.88651
413.737,46.609,-3.03416,0.02081952,0.88611
414.437,46.67767,-3.03538,0.01938136,0.88571
415.137,46.74645,-3.03766,0.02252454,0.88531
415.837,46.81495,-3.0406,0.01940343,0.88491
416.537,46.8838,-3.04302,0.01900292,0.88451
417.237,46.9525,-3.0446,0.01958251,0.88411
417.937,47.02131,-3.04599,0.01791657,0.8837
418.637,47.08995,-3.04665,0.01807427,0.8833
419.337,47.1588,-3.04896,0.01729257,0.8829
420.037,47.22748,-3.05147,0.01893433,0.8825
420.737,47.29615,-3.05279,0.02018111,0.88209
421.437,47.36493,-3.05703,0.02077189,0.88169
422.137,47.43357,-3.05904,0.02309003,0.88129
422.837,47.50209,-3.06028,0.02391784,0.88088
423.537,47.57036,-3.06113,0.02298598,0.88048
424.237,47.63878,-3.06368,0.02393566,0.88008
424.937,47.70747,-3.06593,0.02527134,0.87967
425.637,47.77632,-3.0679,0.0267105,0.87927
426.337,47.84503,-3.07036,0.02829344,0.87886
427.037,47.9136,-3.07188,0.02878274,0.87846
427.737,47.98218,-3.07317,0.02632225,0.87805
428.437,48.05075,-3.07588,0.02891387,0.87764
429.137,48.1197,-3.0778,0.03133685,0.87724
429.837,48.18845,-3.07784,0.03103346,0.87683
430.537,48.25716,-3.07902,0.03225436,0.87642
431.237,48.32544,-3.0805,0.03120981,0.87601
431.937,48.39365,-3.08434,0.03017109,0.87561
432.637,48.4614,-3.08568,0.03190402,0.8752
433.337,48.53011,-3.08701,0.03228218,0.87479
434.037,48.59894,-3.08832,0.03428099,0.87438
434.737,48.6685,-3.08971,0.03399713,0.87397
435.437,48.7372,-3.09226,0.03379292,0.87356
436.137,48.8057,-3.09378,0.03742159,0.87315
436.837,48.87427,-3.09508,0.03639226,0.87274
437.537,48.94299,-3.09762,0.03768685,0.87233
438.237,49.012,-3.09838,0.03975321,0.87192
438.937,49.08083,-3.09973,0.04241279,0.87151
439.637,49.14956,-3.10167,0.04290338,0.87109
440.337,49.21828,-3.10303,0.04206606,0.87068
441.037,49.28691,-3.10436,0.04359239,0.87027
441.737,49.35555,-3.10674,0.04382947,0.86986
442.437,49.42418,-3.10959,0.04330856,0.86944
443.137,49.49293,-3.11093,0.045787,0.86903
443.837,49.56174,-3.11129,0.04630589,0.86861
444.537,49.63042,-3.11359,0.04604662,0.8682
445.237,49.69915,-3.11553,0.04684546,0.86779
445.937,49.7677,-3.11553,0.05089976,0.86737
446.637,49.83645,-3.11655,0.04834264,0.86695
447.337,49.90522,-3.11821,0.05220303,0.86654
448.037,49.97416,-3.11948,0.0508915,0.86612
448.737,50.043,-3.12091,0.05359791,0.86571
449.437,50.11186,-3.12367,0.05021438,0.86529
450.137,50.1804,-3.12587,0.05023601,0.86487
450.837,50.24915,-3.12484,0.05283271,0.86445
451.537,50.31783,-3.12617,0.05034276,0.86404
452.237,50.38686,-3.12752,0.04861048,0.86362
452.937,50.45575,-3.12875,0.05328898,0.8632
453.637,50.52491,-3.1302,0.05665956,0.86278
454.337,50.59408,-3.13144,0.05254094,0.86236
455.037,50.66338,-3.13281,0.05527118,0.86194
455.737,50.7325,-3.13391,0.05461433,0.86152
456.437,50.80145,-3.13485,0.05728473,0.8611
457.137,50.87034,-3.13802,0.05453265,0.86068
457.837,50.9392,-3.13829,0.05704467,0.86026
458.537,51.0081,-3.14069,0.06085636,0.85984
459.237,51.07696,-3.14195,0.06077622,0.85941
459.937,51.14601,-3.14326,0.05921024,0.85899
460.637,51.2149,-3.14334,0.06133254,0.85857
461.337,51.2836,-3.1446,0.06270072,0.85814
462.037,51.35243,-3.14526,0.06107442,0.85772
462.737,51.42138,-3.14591,0.065286,0.8573
463.437,51.4908,-3.14725,0.06304849,0.85687
464.137,51.55999,-3.14756,0.06317496,0.85645
464.837,51.62917,-3.14987,0.06558669,0.85602
465.537,51.69831,-3.15113,0.06499678,0.8556
466.237,51.76744,-3.15176,0.06566737,0.85517
466.937,51.83652,-3.15248,0.06684533,0.85475
467.637,51.90554,-3.15381,0.06465847,0.85432
468.337,51.9745,-3.1535,0.06648874,0.85389
469.037,52.04358,-3.15398,0.06730374,0.85346
469.737,52.1128,-3.15512,0.06944667,0.85304
470.437,52.18209,-3.15678,0.07021441,0.85261
471.137,52.25124,-3.15677,0.06931456,0.85218
471.837,52.32031,-3.1581,0.06854874,0.85175
472.537,52.38935,-3.15809,0.07126531,0.85132
473.237,52.45841,-3.1594,0.07004342,0.85089
473.937,52.52743,-3.16067,0.07410919,0.85046
474.637,52.5967,-3.1632,0.07259974,0.85003
475.337,52.66594,-3.16368,0.07240907,0.8496
476.037,52.73516,-3.16467,0.07262021,0.84917
476.737,52.80438,-3.16467,0.07401643,0.84874
477.437,52.8736,-3.16466,0.07250555,0.8483
478.137,52.9428,-3.16599,0.07081492,0.84787
478.837,53.012,-3.16731,0.07352255,0.84744
479.537,53.08107,-3.16731,0.07320118,0.84701
480.237,53.15025,-3.16897,0.07606204,0.84657
480.937,53.21949,-3.17123,0.07442419,0.84614
481.637,53.28865,-3.17252,0.07562912,0.8457
482.337,53.3579,-3.17392,0.07542112,0.84527
483.037,53.42697,-3.17348,0.07468218,0.84483
483.737,53.49618,-3.17407,0.07388838,0.8444
484.437,53.5654,-3.17539,0.07329745,0.84396
485.137,53.63466,-3.17694,0.07444101,0.84352
485.837,53.704,-3.17673,0.07432037,0.84309
486.537,53.773,-3.1781,0.07581689,0.84265
487.237,53.8421,-3.17856,0.07335799,0.84221
487.937,53.9112,-3.18065,0.07398033,0.84177
488.637,53.9803,-3.18068,0.07522871,0.84134
489.337,54.0495,-3.182,0.07633831,0.8409
490.037,54.1187,-3.18068,0.07536356,0.84046
490.737,54.18798,-3.18069,0.07718953,0.84002
491.437,54.25702,-3.18348,0.07858943,0.83958
492.137,54.3261,-3.18352,0.07684507,0.83914
492.837,54.39527,-3.18589,0.07593386,0.8387
493.537,54.46439,-3.18431,0.07645468,0.83825
494.237,54.5336,-3.18754,0.07684857,0.83781
494.937,54.6026,-3.1901,0.07635971,0.83737
495.637,54.67155,-3.19001,0.07726602,0.83693
496.337,54.74044,-3.19001,0.0823308,0.83648
497.037,54.8094,-3.18869,0.09153319,0.83604
497.737,54.8786,-3.19,0.09590554,0.8356
498.437,54.9477,-3.19131,0.09831116,0.83515
499.137,55.01684,-3.19395,0.09836382,0.83471
499.837,55.08588,-3.19359,0.10346,0.83426
500.537,55.155,-3.19362,0.10265,0.83382
501.237,55.22407,-3.19362,0.10642,0.83337
501.937,55.29351,-3.19409,0.10677,0.83292
502.637,55.363,-3.19419,0.1069,0.83248
503.337,55.4326,-3.19394,0.10634,0.83203
504.037,55.50198,-3.19527,0.10404,0.83158
504.737,55.57116,-3.19501,0.11056,0.83113
505.437,55.64051,-3.19592,0.10775,0.83069
506.137,55.7098,-3.19724,0.11158,0.83024
506.837,55.7795,-3.19659,0.11165,0.82979
507.537,55.84899,-3.19792,0.11157,0.82934
508.237,55.91871,-3.19916,0.11377,0.82889
508.937,55.98802,-3.20054,0.11789,0.82844
509.637,56.05735,-3.20049,0.11406,0.82799
510.337,56.1264,-3.20185,0.11577,0.82753
511.037,56.1956,-3.20188,0.11837,0.82708
511.737,56.26491,-3.20316,0.12048,0.82663
512.437,56.3343,-3.20337,0.12239,0.82618
513.137,56.40353,-3.20312,0.12218,0.82572
513.837,56.4727,-3.20319,0.12248,0.82527
514.537,56.5419,-3.20449,0.12327,0.82482
515.237,56.61101,-3.2055,0.12492,0.82436
515.937,56.6802,-3.20711,0.12186,0.82391
516.637,56.7494,-3.2084,0.12504,0.82345
517.337,56.8186,-3.20975,0.12839,0.823
518.037,56.8876,-3.21008,0.12724,0.82254
518.737,56.95674,-3.21073,0.13031,0.82208
519.437,57.0259,-3.21008,0.12806,0.82163
520.137,57.09503,-3.21138,0.12979,0.82117
520.837,57.1643,-3.2127,0.13003,0.82071
521.537,57.23356,-3.21271,0.13029,0.82025
522.237,57.303,-3.21271,0.12669,0.81979
522.937,57.37239,-3.21271,0.13122,0.81933
523.637,57.4417,-3.21272,0.1258,0.81888
524.337,57.51101,-3.21403,0.12592,0.81842
525.037,57.5804,-3.21535,0.12271,0.81795
525.737,57.64982,-3.21535,0.11861,0.81749
526.437,57.7195,-3.21666,0.11272,0.81703
527.137,57.78924,-3.21669,0.10733,0.81657
527.837,57.85909,-3.216,0.09899106,0.81611
528.537,57.92865,-3.21602,0.09462606,0.81565
529.237,57.9981,-3.21732,0.09210788,0.81518
529.937,58.06771,-3.21863,0.08955503,0.81472
530.637,58.13745,-3.21864,0.08754147,0.81425
531.337,58.20689,-3.21995,0.08693713,0.81379
532.037,58.27658,-3.22138,0.08458197,0.81333
532.737,58.34615,-3.22061,0.08321043,0.81286
533.437,58.4159,-3.2219,0.08136971,0.81239
534.137,58.48528,-3.22264,0.07981109,0.81193
534.837,58.55466,-3.22258,0.07881918,0.81146
535.537,58.62425,-3.22387,0.0792075,0.81099
536.237,58.69409,-3.2237,0.07613485,0.81053
536.937,58.76396,-3.22258,0.0753916,0.81006
537.637,58.8337,-3.224,0.07470232,0.80959
538.337,58.9034,-3.22663,0.0738253,0.80912
539.037,58.97319,-3.22656,0.07171266,0.80865
539.737,59.04314,-3.22643,0.07270049,0.80818
540.437,59.11291,-3.22653,0.07205528,0.80771
541.137,59.18245,-3.22739,0.07184156,0.80724
541.837,59.25212,-3.22818,0.07002086,0.80677
542.537,59.32134,-3.22818,0.0708244,0.8063
543.237,59.39096,-3.22883,0.06924691,0.80583
543.937,59.4605,-3.22883,0.06469072,0.80536
544.637,59.53045,-3.22949,0.06425692,0.80488
545.337,59.60012,-3.23081,0.0648433,0.80441
546.037,59.6697,-3.23179,0.06218806,0.80394
546.737,59.7393,-3.23179,0.06612901,0.80346
547.437,59.80899,-3.23212,0.0619048,0.80299
548.137,59.8789,-3.23108,0.05724819,0.80251
548.837,59.94866,-3.23244,0.05935888,0.80204
549.537,60.01855,-3.23209,0.05627891,0.80156
550.237,60.0881,-3.23344,0.05032949,0.80108
550.937,60.1581,-3.23343,0.05164698,0.80061
551.637,60.2277,-3.23311,0.05058434,0.80013
552.337,60.29756,-3.23373,0.04810896,0.79965
553.037,60.36715,-3.2341,0.04746827,0.79917
553.737,60.43691,-3.2341,0.04571346,0.79869
554.437,60.5068,-3.23434,0.04474162,0.79822
555.137,60.57675,-3.23476,0.04400918,0.79774
555.837,60.6466,-3.23469,0.04013431,0.79726
556.537,60.7165,-3.23672,0.04103875,0.79678
557.237,60.7863,-3.23805,0.03490721,0.79629
557.937,60.85614,-3.23805,0.03583493,0.79581
558.637,60.9259,-3.23807,0.0332315,0.79533
559.337,60.99579,-3.23747,0.03227127,0.79485
560.037,61.06565,-3.23805,0.02850048,0.79437
560.737,61.13575,-3.23837,0.02566171,0.79388
561.437,61.20573,-3.24077,0.02786123,0.7934
562.137,61.27579,-3.242,0.02637456,0.79292
562.837,61.34567,-3.24067,0.02550445,0.79243
563.537,61.4156,-3.24066,0.0234048,0.79195
564.237,61.48551,-3.24137,0.02235044,0.79146
564.937,61.55559,-3.24096,0.02275801,0.79098
565.637,61.6256,-3.24235,0.01941179,0.79049
566.337,61.69565,-3.24327,0.019471,0.79
567.037,61.76566,-3.24463,0.01813732,0.78951
567.737,61.8354,-3.24434,0.01848286,0.78903
568.437,61.90554,-3.24331,0.01736848,0.78854
569.137,61.97576,-3.24462,0.01597891,0.78805
569.837,62.04608,-3.24602,0.01473916,0.78756
570.537,62.116,-3.24727,0.0126013,0.78707
571.237,62.1859,-3.24726,0.01406529,0.78658
571.937,62.25571,-3.24595,0.01512103,0.78609
572.637,62.3258,-3.24595,0.01365458,0.7856
573.337,62.39585,-3.24592,0.01398804,0.78511
574.037,62.46621,-3.24594,0.01304983,0.78462
574.737,62.5357,-3.24594,0.01201221,0.78413
575.437,62.60549,-3.24594,0.01094451,0.78363
576.137,62.6754,-3.24584,0.009670053,0.78314
576.837,62.74589,-3.24727,0.0119865,0.78265
577.537,62.81595,-3.24857,0.01035407,0.78215
578.237,62.8859,-3.24957,0.009899264,0.78166
578.937,62.956,-3.24959,0.00895958,0.78116
579.637,63.02626,-3.25088,0.009188718,0.78067
580.337,63.09653,-3.25088,0.00635727,0.78017
581.037,63.16673,-3.25186,0.008387541,0.77967
581.737,63.2368,-3.25186,0.00615783,0.77918
582.437,63.3071,-3.25219,0.00812049,0.77868
583.137,63.37732,-3.25351,0.00760433,0.77818
583.837,63.4475,-3.25214,0.007536492,0.77768
584.537,63.5177,-3.25253,0.005089226,0.77719
585.237,63.58791,-3.25254,0.00628188,0.77669
585.937,63.6578,-3.25384,0.006891533,0.77619
586.637,63.7277,-3.25384,0.004122338,0.77569
587.337,63.79789,-3.25384,0.00677656,0.77519
588.037,63.8682,-3.25466,0.004106117,0.77469
588.737,63.93866,-3.25647,0.00343144,0.77418
589.437,64.00891,-3.25648,0.004798977,0.77368
590.137,64.0792,-3.25591,0.001745109,0.77318
590.837,64.1493,-3.25466,0.00573081,0.77268
591.537,64.21933,-3.25647,0.003754758,0.77217
592.237,64.28915,-3.25647,0.003479475,0.77167
592.937,64.3593,-3.25647,0.00086655,0.77117
593.637,64.42945,-3.2578,0.00518598,0.77066
594.337,64.50005,-3.25878,0.0007627669,0.77016
595.037,64.5702,-3.25878,0.00183552,0.76965
595.737,64.64052,-3.25878,0.00384213,0.76915
596.437,64.7107,-3.25878,0.005622522,0.76864
597.137,64.78116,-3.2601,0.005995478,0.76813
597.837,64.85133,-3.26095,0.002428542,0.76763
598.537,64.92166,-3.26009,0.00325875,0.76712
599.237,64.99202,-3.26009,0.006775031,0.76661
599.937,65.06243,-3.26009,-0.0002026622,0.7661
600.637,65.1328,-3.26141,0.00141109,0.76559
601.337,65.2028,-3.26141,0.00711148,0.76508
602.037,65.27329,-3.26242,0.002171018,0.76457
602.737,65.3438,-3.2624,0.00200916,0.76406
603.437,65.41467,-3.2624,0.003089019,0.76355
604.137,65.48499,-3.26277,0.004313474,0.76304
604.837,65.5552,-3.26404,0.00318251,0.76253
605.537,65.62532,-3.26403,0.006039168,0.76202
606.237,65.6957,-3.26536,0.00318674,0.7615
606.937,65.7662,-3.26536,0.004103624,0.76099
607.637,65.8369,-3.26534,0.005159569,0.76048
608.337,65.90724,-3.26437,0.0063405,0.75996
609.037,65.97721,-3.26447,0.006585415,0.75945
609.737,66.04726,-3.26698,0.0088998,0.75893
610.437,66.1174,-3.26568,0.006517745,0.75842
611.137,66.18773,-3.26568,0.00480972,0.7579
611.837,66.25796,-3.26568,0.004849356,0.75738
612.537,66.32815,-3.267,0.008914965,0.75687
613.237,66.39836,-3.26701,0.008857182,0.75635
613.937,66.46843,-3.26799,0.0106058,0.75583
614.637,66.53868,-3.26954,0.00982797,0.75531
615.337,66.6088,-3.26963,0.01124107,0.75479
616.037,66.67891,-3.26963,0.01091256,0.75428
616.737,66.74891,-3.269,0.01026539,0.75376
617.437,66.81894,-3.26898,0.009291095,0.75324
618.137,66.88893,-3.27029,0.01422691,0.75272
618.837,66.95896,-3.2703,0.01275004,0.75219
619.537,67.02898,-3.26966,0.01155906,0.75167
620.237,67.099,-3.26959,0.01307622,0.75115
620.937,67.1691,-3.27095,0.01367402,0.75063
621.637,67.23924,-3.27227,0.01541199,0.75011
622.337,67.3095,-3.27227,0.01561675,0.74958
623.037,67.3796,-3.26963,0.01737781,0.74906
623.737,67.44977,-3.26962,0.02208784,0.74854
624.437,67.51999,-3.27095,0.01925252,0.74801
625.137,67.59026,-3.27129,0.02313297,0.74749
625.837,67.66069,-3.27128,0.02171926,0.74696
626.537,67.73108,-3.2726,0.02363536,0.74643
627.237,67.80149,-3.27391,0.02657376,0.74591
627.937,67.87181,-3.27462,0.0292101,0.74538
628.637,67.94219,-3.27458,0.02572053,0.74485
629.337,68.01258,-3.27594,0.02624677,0.74433
630.037,68.0831,-3.27145,0.02911357,0.7438
630.737,68.15355,-3.27468,0.03417146,0.74327
631.437,68.2239,-3.27601,0.03312547,0.74274
632.137,68.2942,-3.276,0.03411817,0.74221
632.837,68.36479,-3.27672,0.03436199,0.74168
633.537,68.4354,-3.27665,0.03359442,0.74115
634.237,68.50583,-3.27562,0.03736049,0.74062
634.937,68.57611,-3.27567,0.03397171,0.74009
635.637,68.64654,-3.27577,0.03661357,0.73956
636.337,68.71722,-3.27438,0.04086444,0.73902
637.037,68.78788,-3.27567,0.04046099,0.73849
637.737,68.85843,-3.27567,0.04079671,0.73796
638.437,68.92899,-3.27567,0.03954578,0.73742
639.137,68.99948,-3.27567,0.03857414,0.73689
639.837,69.0697,-3.27699,0.039698,0.73636
640.537,69.14,-3.2783,0.03993939,0.73582
641.237,69.21038,-3.27831,0.03497094,0.73529
641.937,69.2812,-3.27793,0.04005645,0.73475
642.637,69.35171,-3.27896,0.04413349,0.73421
643.337,69.42224,-3.27896,0.04228608,0.73368
644.037,69.49276,-3.28026,0.0428922,0.73314
644.737,69.56341,-3.28028,0.0405892,0.7326
645.437,69.6341,-3.27895,0.03766656,0.73206
646.137,69.70482,-3.28029,0.04090321,0.73153
646.837,69.77583,-3.28028,0.03630811,0.73099
647.537,69.8469,-3.28028,0.03713043,0.73045
648.237,69.9179,-3.27995,0.03347876,0.72991
648.937,69.98865,-3.27996,0.03397612,0.72937
649.637,70.05957,-3.28126,0.02891126,0.72883
650.337,70.13038,-3.28093,0.03345586,0.72829
651.037,70.20135,-3.27984,0.03390614,0.72774
651.737,70.27224,-3.27955,0.03434003,0.7272
652.437,70.343,-3.27928,0.03512423,0.72666
653.137,70.41367,-3.27927,0.03908501,0.72612
653.837,70.4843,-3.2806,0.03594031,0.72557
654.537,70.55499,-3.28157,0.03677054,0.72503
655.237,70.62539,-3.28177,0.03744246,0.72449
655.937,70.69577,-3.28194,0.03453787,0.72394
656.637,70.76606,-3.28131,0.03963557,0.7234
657.337,70.83663,-3.28127,0.03806909,0.72285
658.037,70.90711,-3.28227,0.03565263,0.7223
658.737,70.97763,-3.28225,0.03827308,0.72176
659.437,71.048,-3.28221,0.03847247,0.72121
660.137,71.11853,-3.28356,0.03645767,0.72066
660.837,71.1888,-3.28455,0.036002,0.72012
661.537,71.25915,-3.28323,0.03776254,0.71957
662.237,71.32938,-3.28324,0.03922178,0.71902
662.937,71.39971,-3.28598,0.03862416,0.71847
663.637,71.47001,-3.28445,0.04012319,0.71792
664.337,71.5402,-3.28445,0.03929138,0.71737
665.037,71.6104,-3.28445,0.03851109,0.71682
665.737,71.6807,-3.28445,0.03895751,0.71627
666.437,71.75101,-3.28445,0.03923786,0.71572
667.137,71.8215,-3.28445,0.04058604,0.71517
667.837,71.89217,-3.28435,0.04164246,0.71462
668.537,71.96268,-3.28462,0.0407338,0.71406
669.237,72.03341,-3.28477,0.04277377,0.71351
669.937,72.104,-3.28477,0.03888402,0.71296
670.637,72.17495,-3.28441,0.03961344,0.7124
671.337,72.24587,-3.28574,0.0422099,0.71185
672.037,72.31673,-3.28575,0.038973,0.71129
672.737,72.38745,-3.28707,0.04400275,0.71074
673.437,72.45823,-3.28609,0.04496504,0.71018
674.137,72.5288,-3.28609,0.04432177,0.70963
674.837,72.59944,-3.28611,0.04185803,0.70907
675.537,72.67,-3.28609,0.04560446,0.70852
676.237,72.7409,-3.2874,0.04698411,0.70796
676.937,72.81178,-3.2874,0.04337905,0.7074
677.637,72.8826,-3.2874,0.04232733,0.70684
678.337,72.95322,-3.2874,0.04424323,0.70628
679.037,73.02379,-3.28618,0.04233071,0.70573
679.737,73.0944,-3.28662,0.04290622,0.70517
680.437,73.16499,-3.28609,0.0420737,0.70461
681.137,73.23571,-3.28849,0.04584533,0.70405
681.837,73.30643,-3.28873,0.04445242,0.70349
682.537,73.3772,-3.28864,0.04447111,0.70293
683.237,73.4479,-3.28839,0.04549507,0.70236
683.937,73.51871,-3.28905,0.04797832,0.7018
684.637,73.58959,-3.28938,0.04418343,0.70124
685.337,73.66043,-3.28938,0.04694865,0.70068
686.037,73.7312,-3.28879,0.04481512,0.70011
686.737,73.80211,-3.28938,0.04600555,0.69955
687.437,73.87301,-3.28938,0.04638459,0.69899
688.137,73.94377,-3.2907,0.04221158,0.69842
688.837,74.01405,-3.2907,0.04380174,0.69786
689.537,74.08459,-3.2907,0.04533806,0.69729
690.237,74.15536,-3.2907,0.04771521,0.69673
690.937,74.2264,-3.2907,0.04626866,0.69616
691.637,74.29693,-3.2906,0.05082561,0.6956
692.337,74.3673,-3.29057,0.04752229,0.69503
693.037,74.4375,-3.29036,0.05212646,0.69446
693.737,74.50806,-3.28981,0.052237,0.69389
694.437,74.5786,-3.28971,0.04974018,0.69333
695.137,74.64939,-3.28971,0.05203658,0.69276
695.837,74.71987,-3.28971,0.05367126,0.69219
696.537,74.79044,-3.28971,0.05527915,0.69162
697.237,74.86114,-3.29003,0.05297997,0.69105
697.937,74.93175,-3.29111,0.05326547,0.69048
698.637,75.0026,-3.2911,0.05275378,0.68991
699.337,75.07349,-3.29071,0.0536981,0.68934
700.037,75.14448,-3.29069,0.05341788,0.68877
700.737,75.21508,-3.29201,0.05364552,0.6882
701.437,75.28536,-3.29071,0.05649092,0.68763
702.137,75.3563,-3.2917,0.05430335,0.68705
702.837,75.42739,-3.29201,0.05348096,0.68648
703.537,75.49895,-3.29201,0.05250903,0.68591
704.237,75.56991,-3.29333,0.0562476,0.68533
704.937,75.6408,-3.29464,0.05607001,0.68476
705.637,75.71158,-3.29333,0.05773872,0.68419
706.337,75.7823,-3.29333,0.05517266,0.68361
707.037,75.853,-3.29464,0.05805036,0.68304
707.737,75.92376,-3.29333,0.05871692,0.68246
708.437,75.99449,-3.29333,0.05340051,0.68188
709.137,76.0651,-3.29333,0.05599339,0.68131
709.837,76.13575,-3.29472,0.05383512,0.68073
710.537,76.20671,-3.29464,0.05807837,0.68015
711.237,76.27763,-3.29334,0.05756163,0.67958
711.937,76.34852,-3.29463,0.05456894,0.679
712.637,76.41922,-3.29463,0.0517466,0.67842
713.337,76.48992,-3.29398,0.05227038,0.67784
714.037,76.56081,-3.29465,0.05050124,0.67726
714.737,76.6318,-3.29546,0.05280187,0.67668
715.437,76.7028,-3.29597,0.05323204,0.6761
716.137,76.77376,-3.29597,0.05146855,0.67552
716.837,76.8447,-3.29597,0.05306799,0.67494
717.537,76.9158,-3.29597,0.04873468,0.67436
718.237,76.98661,-3.29677,0.04991496,0.67378
718.937,77.05753,-3.29695,0.04664141,0.6732
719.637,77.1285,-3.29437,0.04863265,0.67262
720.337,77.19934,-3.29563,0.0478221,0.67203
721.037,77.27,-3.29826,0.04259971,0.67145
721.737,77.34093,-3.29686,0.04535304,0.67087
722.437,77.4119,-3.29718,0.0438532,0.67028
723.137,77.48289,-3.29711,0.04628816,0.6697
723.837,77.554,-3.29849,0.04604602,0.66912
724.537,77.62524,-3.29849,0.04616867,0.66853
725.237,77.69646,-3.29984,0.04771328,0.66795
725.937,77.76751,-3.29913,0.04873111,0.66736
726.637,77.8385,-3.29914,0.04703229,0.66678
727.337,77.90958,-3.29914,0.05104968,0.66619
728.037,77.9807,-3.29914,0.04711832,0.6656
728.737,78.05173,-3.29914,0.04888951,0.66502
729.437,78.12262,-3.29978,0.04521997,0.66443
730.137,78.19343,-3.2998,0.04498857,0.66384
730.837,78.26432,-3.29914,0.04185471,0.66325
731.537,78.33505,-3.29849,0.04240992,0.66266
732.237,78.40586,-3.29848,0.04293384,0.66208
732.937,78.47669,-3.2998,0.04435346,0.66149
733.637,78.54772,-3.30241,0.04008257,0.6609
734.337,78.61877,-3.30246,0.04171989,0.66031
735.037,78.68982,-3.2998,0.04253087,0.65972
735.737,78.76082,-3.29979,0.04218874,0.65913
736.437,78.83171,-3.30045,0.04223055,0.65853
737.137,78.90257,-3.30028,0.03940544,0.65794
737.837,78.9735,-3.29923,0.0347484,0.65735
738.537,79.0445,-3.29955,0.03827806,0.65676
739.237,79.11579,-3.30175,0.03830082,0.65617
739.937,79.18709,-3.30111,0.03751482,0.65557
740.637,79.2582,-3.3013,0.03774803,0.65498
741.337,79.32932,-3.30211,0.03985816,0.65439
742.037,79.40039,-3.30211,0.04133924,0.65379
742.737,79.47156,-3.30211,0.03728521,0.6532
743.437,79.54261,-3.30203,0.03619409,0.65261
744.137,79.6136,-3.30209,0.03687681,0.65201
744.837,79.6845,-3.30177,0.03870891,0.65142
745.537,79.7553,-3.30184,0.03505768,0.65082
746.237,79.8262,-3.30309,0.03435778,0.65022
746.937,79.8972,-3.30314,0.0333114,0.64963
747.637,79.96847,-3.30276,0.0342625,0.64903
747.937,79.99956,-3.30276,0.03594044,0.64878