File: 01_Data/Basswood_Panel/STA/N2/10K_min/Basswood_STA_N2_10KData_220314_R1.csv
##Temp./Â°C,Time/min,Mass loss(subtr.)/mg,DSC(subtr.)/(mW/mg),Sensit./(uV/mW)
49.758,10.01,0.00943,0.01574995,1.07513
50.358,10.72315,0.0096567,0.05096263,1.07481
50.958,10.91231,0.01168963,0.0763458,1.0745
51.558,11.0549,0.01056348,0.09745396,1.07419
52.158,11.17468,0.01055334,0.11899,1.07387
52.758,11.28072,0.00971934,0.13233,1.07356
53.358,11.37743,0.01028704,0.14602,1.07325
53.958,11.46774,0.01092854,0.15818,1.07294
54.558,11.55258,0.01145263,0.16756,1.07262
55.158,11.63443,0.01206401,0.17768,1.07231
55.758,11.71393,0.01053216,0.18704,1.072
56.358,11.79156,0.01048076,0.19611,1.07169
56.958,11.8664,0.009781674,0.20311,1.07138
57.558,11.93954,0.01032418,0.20905,1.07106
58.158,12.0112,0.01026639,0.21478,1.07075
58.758,12.0824,0.0119634,0.22096,1.07044
59.358,12.15243,0.01175826,0.2268,1.07013
59.958,12.2216,0.01050286,0.23191,1.06982
60.558,12.28995,0.0105301,0.23482,1.0695
61.158,12.35765,0.01051123,0.24013,1.06919
61.758,12.42489,0.0109716,0.24359,1.06888
62.358,12.49203,0.01051518,0.24373,1.06857
62.958,12.55902,0.01051467,0.24933,1.06826
63.558,12.62539,0.01051759,0.25242,1.06795
64.158,12.6913,0.01075188,0.2553,1.06763
64.758,12.75715,0.01046314,0.25926,1.06732
65.358,12.82253,0.01192689,0.25957,1.06701
65.958,12.8878,0.01044825,0.26282,1.0667
66.558,12.9527,0.01051557,0.26728,1.06639
67.158,13.01746,0.0105654,0.27046,1.06608
67.758,13.08169,0.01051938,0.27152,1.06577
68.358,13.1465,0.009320527,0.27491,1.06546
68.958,13.2112,0.01052847,0.27736,1.06514
69.558,13.27602,0.01068921,0.27926,1.06483
70.158,13.3404,0.01183907,0.2824,1.06452
70.758,13.4042,0.010508,0.28556,1.06421
71.358,13.46766,0.009124148,0.28603,1.0639
71.958,13.5313,0.01051677,0.29061,1.06359
72.558,13.5946,0.0100054,0.29185,1.06328
73.158,13.65807,0.01052038,0.29421,1.06297
73.758,13.72124,0.009230383,0.29408,1.06266
74.358,13.7843,0.01053201,0.29853,1.06235
74.958,13.8474,0.0105719,0.30025,1.06204
75.558,13.91,0.01052001,0.30123,1.06173
76.158,13.9727,0.0104035,0.30335,1.06142
76.758,14.035,0.01006111,0.30632,1.06111
77.358,14.0976,0.009206622,0.30797,1.0608
77.958,14.1599,0.009211916,0.30786,1.06049
78.558,14.22207,0.01053271,0.3102,1.06018
79.158,14.2841,0.009211885,0.31166,1.05987
79.758,14.3462,0.009210611,0.3123,1.05956
80.358,14.40802,0.009193096,0.31286,1.05925
80.958,14.46995,0.009209995,0.31675,1.05894
81.558,14.53161,0.008103555,0.31743,1.05863
82.158,14.59332,0.009216969,0.3205,1.05832
82.758,14.655,0.009257638,0.32108,1.05801
83.358,14.71628,0.007891737,0.3186,1.0577
83.958,14.77745,0.009225801,0.32249,1.05739
84.558,14.83857,0.009261695,0.32448,1.05708
85.158,14.89935,0.007890016,0.32324,1.05677
85.758,14.96055,0.007888695,0.32231,1.05646
86.358,15.0215,0.006567311,0.32464,1.05615
86.958,15.08211,0.007868164,0.3245,1.05584
87.558,15.1429,0.006476675,0.32597,1.05553
88.158,15.20336,0.006569965,0.32594,1.05522
88.758,15.26418,0.00657083,0.32462,1.05491
89.358,15.32427,0.007942527,0.32478,1.0546
89.958,15.38432,0.007508644,0.32643,1.0543
90.558,15.4443,0.006579959,0.32664,1.05399
91.158,15.5045,0.006567965,0.32653,1.05368
91.758,15.56424,0.00525625,0.32596,1.05337
92.358,15.62405,0.00600541,0.3252,1.05306
92.958,15.6839,0.00625272,0.32757,1.05275
93.558,15.7437,0.00526414,0.32609,1.05244
94.158,15.8035,0.005260051,0.32861,1.05213
94.758,15.8631,0.00539944,0.32655,1.05183
95.358,15.9225,0.006580112,0.32491,1.05152
95.958,15.982,0.007404979,0.32344,1.05121
96.558,16.04151,0.00657467,0.32432,1.0509
97.158,16.10098,0.005235035,0.32273,1.05059
97.758,16.1605,0.00527629,0.3227,1.05028
98.358,16.21985,0.00656997,0.32234,1.04998
98.958,16.27903,0.00597373,0.3247,1.04967
99.558,16.33802,0.005313556,0.32395,1.04936
100.158,16.397,0.005261,0.32346,1.04905
100.758,16.45606,0.006620781,0.32211,1.04874
101.358,16.51505,0.00655366,0.32084,1.04844
101.958,16.57398,0.005226866,0.32388,1.04813
102.558,16.6329,0.006667323,0.3208,1.04782
103.158,16.69177,0.005251412,0.32202,1.04751
103.758,16.7506,0.00525159,0.32298,1.0472
104.358,16.80971,0.004270088,0.32245,1.0469
104.958,16.8685,0.005591948,0.32107,1.04659
105.558,16.9274,0.005590001,0.32229,1.04628
106.158,16.986,0.005588932,0.32293,1.04597
106.758,17.04464,0.005975355,0.32225,1.04567
107.358,17.10318,0.005927834,0.32353,1.04536
107.958,17.16177,0.0052601,0.32349,1.04505
108.558,17.2205,0.00526,0.32471,1.04475
109.158,17.27919,0.00526,0.32393,1.04444
109.758,17.3379,0.00525429,0.32273,1.04413
110.358,17.3967,0.00656925,0.32423,1.04382
110.958,17.45535,0.00528283,0.32308,1.04352
111.558,17.51395,0.005245092,0.32534,1.04321
112.158,17.5726,0.0046012,0.32436,1.0429
112.758,17.6313,0.004530488,0.32501,1.0426
113.358,17.68989,0.00526012,0.32564,1.04229
113.958,17.74857,0.00532226,0.32469,1.04198
114.558,17.8071,0.005244996,0.32693,1.04168
115.158,17.86559,0.005259968,0.32774,1.04137
115.758,17.92442,0.005203773,0.32714,1.04106
116.358,17.98294,0.005255539,0.32942,1.04076
116.958,18.04147,0.00526,0.32814,1.04045
117.558,18.09967,0.005259993,0.33049,1.04014
118.158,18.1581,0.00518449,0.3302,1.03984
118.758,18.21671,0.005277049,0.3318,1.03953
119.358,18.2757,0.005260008,0.33254,1.03922
119.958,18.33438,0.00526,0.33201,1.03892
120.558,18.39283,0.00526002,0.33297,1.03861
121.158,18.45138,0.004799876,0.33449,1.03831
121.758,18.50972,0.005250325,0.3336,1.038
122.358,18.56812,0.004106622,0.33486,1.03769
122.958,18.6264,0.00360996,0.33737,1.03739
123.558,18.68465,0.003609967,0.33483,1.03708
124.158,18.74314,0.00354849,0.33748,1.03678
124.758,18.80152,0.004914936,0.33918,1.03647
125.358,18.86003,0.006249984,0.33805,1.03616
125.958,18.91831,0.006260694,0.34341,1.03586
126.558,18.97651,0.003935903,0.34169,1.03555
127.158,19.03473,0.00393559,0.34271,1.03525
127.758,19.093,0.00622034,0.34247,1.03494
128.358,19.1512,0.00624024,0.34503,1.03464
128.958,19.20925,0.00623954,0.34556,1.03433
129.558,19.26726,0.00623999,0.34711,1.03402
130.158,19.32524,0.00622662,0.34505,1.03372
130.758,19.38334,0.004926376,0.34878,1.03341
131.358,19.4416,0.004929999,0.34803,1.03311
131.958,19.4996,0.00492992,0.34778,1.0328
132.558,19.55765,0.00562316,0.35017,1.0325
133.158,19.6157,0.004654982,0.34927,1.03219
133.758,19.67374,0.004271179,0.34913,1.03189
134.358,19.73197,0.004914788,0.35033,1.03158
134.958,19.79031,0.004929999,0.35093,1.03128
135.558,19.84855,0.004930326,0.35225,1.03097
136.158,19.90694,0.00363594,0.35416,1.03067
136.758,19.96487,0.00360315,0.35456,1.03036
137.358,20.02279,0.00491827,0.35385,1.03006
137.958,20.08088,0.00492,0.3555,1.02975
138.558,20.139,0.00492,0.35668,1.02945
139.158,20.19727,0.00491827,0.35643,1.02914
139.758,20.25562,0.003603549,0.35652,1.02884
140.358,20.31397,0.003976073,0.35753,1.02853
140.958,20.372,0.00394001,0.36036,1.02823
141.558,20.42989,0.00394,0.3585,1.02793
142.158,20.4877,0.003941201,0.36118,1.02762
142.758,20.54573,0.004583983,0.36079,1.02732
143.358,20.60371,0.003886846,0.36233,1.02701
143.958,20.66168,0.00361193,0.36364,1.02671
144.558,20.7195,0.00360986,0.36344,1.0264
145.158,20.77702,0.004905293,0.36446,1.0261
145.758,20.83496,0.00492999,0.36474,1.02579
146.358,20.89299,0.004929824,0.36436,1.02549
146.958,20.95101,0.00391502,0.36527,1.02519
147.558,21.0089,0.003620158,0.36681,1.02488
148.158,21.0668,0.003620001,0.36735,1.02458
148.758,21.12472,0.00362167,0.36828,1.02427
149.358,21.18263,0.004936763,0.3678,1.02397
149.958,21.24057,0.004929994,0.36812,1.02367
150.558,21.29818,0.004969562,0.37124,1.02336
151.158,21.35588,0.003680949,0.37387,1.02306
151.758,21.4137,0.00295964,0.37173,1.02275
152.358,21.47158,0.002959849,0.37559,1.02245
152.958,21.5294,0.00389179,0.37328,1.02215
153.558,21.5871,0.003255251,0.37599,1.02184
154.158,21.64471,0.00229192,0.37544,1.02154
154.758,21.70228,0.00222629,0.37686,1.02123
155.358,21.76003,0.00196221,0.37906,1.02093
155.958,21.81758,0.00262506,0.38076,1.02063
156.558,21.87531,0.00196552,0.37963,1.02032
157.158,21.93305,0.00197,0.38023,1.02002
157.758,21.99061,0.00196999,0.383,1.01972
158.358,22.04832,0.00200772,0.38456,1.01941
158.958,22.10586,0.0006508182,0.38516,1.01911
159.558,22.16327,0.000650871,0.38421,1.01881
160.158,22.2207,0.001290769,0.38515,1.0185
160.758,22.27838,0.002587175,0.38806,1.0182
161.358,22.33604,0.00170895,0.38751,1.0179
161.958,22.3938,0.001666865,0.38725,1.01759
162.558,22.4513,0.00130989,0.3889,1.01729
163.158,22.5086,0.001310765,0.38956,1.01699
163.758,22.56588,0.000333436,0.39083,1.01668
164.358,22.62306,0.0003200059,0.39043,1.01638
164.958,22.6807,0.0003199984,0.3914,1.01608
165.558,22.7383,0.0003268953,0.39306,1.01577
166.158,22.79586,0.0006494505,0.39344,1.01547
166.758,22.8533,0.0006500004,0.39511,1.01517
167.358,22.9107,0.000650317,0.396,1.01486
167.958,22.9684,0.000332844,0.39493,1.01456
168.558,23.02599,-0.0006380013,0.39708,1.01426
169.158,23.0837,-0.000992612,0.3943,1.01396
169.758,23.1414,0.0003113482,0.39573,1.01365
170.358,23.19866,0.0003200047,0.39855,1.01335
170.958,23.25641,0.00032,0.39908,1.01305
171.558,23.31392,0.00032,0.39895,1.01274
172.158,23.3717,0.00032,0.39961,1.01244
172.758,23.42945,0.0003200066,0.39939,1.01214
173.358,23.48704,0.000379228,0.39945,1.01183
173.958,23.54466,-0.000669691,0.40135,1.01153
174.558,23.60233,-0.0006700015,0.40115,1.01123
175.158,23.6598,-0.0006696765,0.40166,1.01093
175.758,23.7175,-0.000839515,0.40553,1.01062
176.358,23.77502,-0.001092136,0.4039,1.01032
176.958,23.8326,-0.002313453,0.40463,1.01002
177.558,23.8906,-0.00231,0.40527,1.00972
178.158,23.94817,-0.00231,0.40371,1.00941
178.758,24.00584,-0.00231,0.40582,1.00911
179.358,24.06345,-0.002309999,0.40803,1.00881
179.958,24.12098,-0.00230934,0.40694,1.00851
180.558,24.1786,-0.003643553,0.4099,1.0082
181.158,24.23643,-0.00364344,0.41128,1.0079
181.758,24.29395,-0.004943766,0.41408,1.0076
182.358,24.35143,-0.00494,0.41217,1.00729
182.958,24.4089,-0.004940007,0.4156,1.00699
183.558,24.4663,-0.004975251,0.41478,1.00669
184.158,24.52383,-0.005580014,0.41418,1.00639
184.758,24.5811,-0.005929961,0.41518,1.00608
185.358,24.63835,-0.00593,0.41718,1.00578
185.958,24.69533,-0.00593,0.42021,1.00548
186.558,24.75269,-0.005930125,0.42134,1.00518
187.158,24.81007,-0.00560005,0.42222,1.00488
187.758,24.86769,-0.005883895,0.4227,1.00457
188.358,24.9251,-0.007248612,0.42154,1.00427
188.958,24.98253,-0.008398255,0.42387,1.00397
189.558,25.03991,-0.008559977,0.42367,1.00367
190.158,25.09746,-0.00986706,0.42862,1.00336
190.758,25.155,-0.00859416,0.42667,1.00306
191.358,25.21217,-0.009960379,0.42631,1.00276
191.958,25.26945,-0.009879987,0.42818,1.00246
192.558,25.32674,-0.00988023,0.42928,1.00215
193.158,25.3841,-0.009644499,0.42809,1.00185
193.758,25.44153,-0.01125663,0.4298,1.00155
194.358,25.49906,-0.01078461,0.43113,1.00125
194.958,25.5565,-0.01120953,0.43246,1.00094
195.558,25.61375,-0.01159824,0.4326,1.00064
196.158,25.6711,-0.01151945,0.43305,1.00034
196.758,25.72835,-0.0128306,0.43567,1.00004
197.358,25.78581,-0.01283986,0.43615,0.99974
197.958,25.8433,-0.0133061,0.43661,0.99943
198.558,25.90075,-0.0138613,0.44103,0.99913
199.158,25.95811,-0.01416004,0.44076,0.99883
199.758,26.01549,-0.01413468,0.44241,0.99853
200.358,26.07282,-0.01482742,0.44462,0.99822
200.958,26.1302,-0.01614048,0.44598,0.99792
201.558,26.1877,-0.01613977,0.44659,0.99762
202.158,26.2451,-0.01718979,0.44954,0.99732
202.758,26.3024,-0.01743814,0.45075,0.99701
203.358,26.35953,-0.01839245,0.45278,0.99671
203.958,26.4168,-0.01942032,0.45397,0.99641
204.558,26.474,-0.01942006,0.45549,0.99611
205.158,26.5314,-0.019473,0.45733,0.99581
205.758,26.5886,-0.02073092,0.45861,0.9955
206.358,26.6456,-0.02205584,0.4603,0.9952
206.958,26.70288,-0.02205808,0.46439,0.9949
207.558,26.76015,-0.02337031,0.46219,0.9946
208.158,26.81727,-0.02336342,0.46552,0.99429
208.758,26.8746,-0.02468823,0.46611,0.99399
209.358,26.93175,-0.02468677,0.46645,0.99369
209.958,26.98886,-0.02435747,0.46653,0.99339
210.558,27.0462,-0.02565935,0.46885,0.99309
211.158,27.10316,-0.02567117,0.46995,0.99278
211.758,27.16033,-0.02698844,0.47121,0.99248
212.358,27.2174,-0.02831366,0.47143,0.99218
212.958,27.27448,-0.0296267,0.47277,0.99188
213.558,27.33179,-0.02962486,0.47628,0.99157
214.158,27.389,-0.03089261,0.47657,0.99127
214.758,27.44642,-0.03357519,0.47574,0.99097
215.358,27.5035,-0.03373832,0.47634,0.99067
215.958,27.5605,-0.03357074,0.47485,0.99036
216.558,27.61784,-0.0348761,0.47565,0.99006
217.158,27.67507,-0.03516004,0.47434,0.98976
217.758,27.7324,-0.03752616,0.47472,0.98946
218.358,27.7897,-0.03847446,0.47301,0.98915
218.958,27.84692,-0.03882328,0.47474,0.98885
219.558,27.90397,-0.04014813,0.47479,0.98855
220.158,27.96112,-0.04014857,0.47188,0.98825
220.758,28.01817,-0.04146206,0.47468,0.98794
221.358,28.07537,-0.04275691,0.47361,0.98764
221.958,28.1327,-0.04299686,0.47457,0.98734
222.558,28.19016,-0.04410036,0.47477,0.98704
223.158,28.24762,-0.04677001,0.47649,0.98673
223.758,28.305,-0.0480583,0.47696,0.98643
224.358,28.36229,-0.04937681,0.47712,0.98613
224.958,28.41955,-0.0506779,0.47767,0.98583
225.558,28.4768,-0.05198321,0.4772,0.98552
226.158,28.5341,-0.05275563,0.47607,0.98522
226.758,28.5914,-0.05469067,0.4726,0.98492
227.358,28.6488,-0.05590501,0.47643,0.98462
227.958,28.706,-0.057326,0.47732,0.98431
228.558,28.76335,-0.05860117,0.47601,0.98401
229.158,28.8207,-0.0598938,0.47394,0.98371
229.758,28.8781,-0.06118098,0.47542,0.9834
230.358,28.93542,-0.0626068,0.47702,0.9831
230.958,28.9928,-0.06385146,0.47655,0.9828
231.558,29.05,-0.06527047,0.47696,0.9825
232.158,29.10715,-0.06767901,0.4764,0.98219
232.758,29.16443,-0.0689191,0.47617,0.98189
233.358,29.22165,-0.07035097,0.47479,0.98159
233.958,29.279,-0.07195608,0.47695,0.98128
234.558,29.33645,-0.07331304,0.47409,0.98098
235.158,29.39375,-0.07457662,0.47489,0.98068
235.758,29.45086,-0.07592162,0.47375,0.98037
236.358,29.50795,-0.07870444,0.47635,0.98007
236.958,29.5651,-0.07996975,0.47633,0.97977
237.558,29.6224,-0.08126776,0.4746,0.97946
238.158,29.6797,-0.08127357,0.47566,0.97916
238.758,29.737,-0.08403343,0.47443,0.97886
239.358,29.7942,-0.08536817,0.47483,0.97855
239.958,29.85148,-0.08671643,0.47353,0.97825
240.558,29.9087,-0.08955427,0.4775,0.97795
241.158,29.96596,-0.09077407,0.47777,0.97764
241.758,30.0234,-0.09337235,0.47574,0.97734
242.358,30.08043,-0.09633546,0.47825,0.97704
242.958,30.13774,-0.09766006,0.47623,0.97673
243.558,30.19483,-0.09894444,0.47553,0.97643
244.158,30.25201,-0.1013,0.47511,0.97613
244.758,30.3093,-0.10203,0.47546,0.97582
245.358,30.36665,-0.10323,0.4748,0.97552
245.958,30.4239,-0.10669,0.47605,0.97521
246.558,30.48116,-0.1088,0.47536,0.97491
247.158,30.53833,-0.11104,0.47437,0.97461
247.758,30.59553,-0.11288,0.47733,0.9743
248.358,30.65291,-0.11582,0.47632,0.974
248.958,30.71037,-0.11704,0.47838,0.9737
249.558,30.7676,-0.11869,0.47981,0.97339
250.158,30.82487,-0.12225,0.47857,0.97309
250.758,30.8821,-0.12369,0.47855,0.97278
251.358,30.93927,-0.1267,0.48137,0.97248
251.958,30.99643,-0.12811,0.48052,0.97217
252.558,31.0536,-0.13104,0.48134,0.97187
253.158,31.1109,-0.13281,0.48246,0.97157
253.758,31.16808,-0.1353,0.4833,0.97126
254.358,31.22512,-0.13776,0.48424,0.97096
254.958,31.28207,-0.1397,0.48281,0.97065
255.558,31.33905,-0.14264,0.48538,0.97035
256.158,31.39623,-0.14584,0.48642,0.97004
256.758,31.45332,-0.14762,0.48792,0.96974
257.358,31.51042,-0.15042,0.4858,0.96943
257.958,31.5674,-0.15342,0.49076,0.96913
258.558,31.6243,-0.15618,0.49127,0.96882
259.158,31.68125,-0.15906,0.49271,0.96852
259.758,31.73818,-0.16228,0.49373,0.96822
260.358,31.79515,-0.16394,0.49245,0.96791
260.958,31.85223,-0.16692,0.49468,0.96761
261.558,31.90949,-0.17066,0.49166,0.9673
262.158,31.96647,-0.17451,0.4941,0.96699
262.758,32.02375,-0.17726,0.49454,0.96669
263.358,32.0809,-0.18263,0.49191,0.96638
263.958,32.13805,-0.18552,0.49397,0.96608
264.558,32.19543,-0.18936,0.49414,0.96577
265.158,32.2526,-0.19307,0.49609,0.96547
265.758,32.3099,-0.1969,0.49398,0.96516
266.358,32.36704,-0.19984,0.49546,0.96486
266.958,32.4243,-0.20534,0.49582,0.96455
267.558,32.4816,-0.20927,0.49571,0.96425
268.158,32.53908,-0.21231,0.49614,0.96394
268.758,32.59629,-0.21671,0.49313,0.96363
269.358,32.65363,-0.22166,0.49478,0.96333
269.958,32.71099,-0.22596,0.49571,0.96302
270.558,32.76846,-0.23065,0.49192,0.96272
271.158,32.82584,-0.2345,0.49405,0.96241
271.758,32.8832,-0.23953,0.49298,0.9621
272.358,32.94036,-0.2449,0.49285,0.9618
272.958,32.99767,-0.251,0.49422,0.96149
273.558,33.055,-0.25793,0.49522,0.96118
274.158,33.11228,-0.26112,0.49528,0.96088
274.758,33.16968,-0.26783,0.49142,0.96057
275.358,33.22701,-0.27315,0.4956,0.96027
275.958,33.28415,-0.27857,0.49371,0.95996
276.558,33.3416,-0.28459,0.49564,0.95965
277.158,33.399,-0.29098,0.49411,0.95934
277.758,33.45657,-0.29729,0.49245,0.95904
278.358,33.51403,-0.30521,0.4924,0.95873
278.958,33.57127,-0.31212,0.49348,0.95842
279.558,33.62873,-0.31719,0.49258,0.95812
280.158,33.68573,-0.3239,0.49183,0.95781
280.758,33.74326,-0.33177,0.48962,0.9575
281.358,33.8007,-0.34042,0.48961,0.95719
281.958,33.85799,-0.34742,0.48782,0.95689
282.558,33.91555,-0.3551,0.48844,0.95658
283.158,33.97274,-0.36226,0.48846,0.95627
283.758,34.0299,-0.36832,0.48679,0.95596
284.358,34.0871,-0.37659,0.48673,0.95566
284.958,34.14443,-0.38647,0.48682,0.95535
285.558,34.20192,-0.39342,0.48649,0.95504
286.158,34.25938,-0.40289,0.48402,0.95473
286.758,34.31695,-0.41061,0.48191,0.95442
287.358,34.37415,-0.4191,0.48411,0.95412
287.958,34.43145,-0.42782,0.48157,0.95381
288.558,34.48876,-0.4375,0.48317,0.9535
289.158,34.54599,-0.4468,0.48194,0.95319
289.758,34.60338,-0.45557,0.48066,0.95288
290.358,34.66056,-0.46497,0.47951,0.95257
290.958,34.71787,-0.4757,0.47657,0.95226
291.558,34.77535,-0.48483,0.47568,0.95196
292.158,34.8328,-0.49389,0.47385,0.95165
292.758,34.89036,-0.50661,0.47296,0.95134
293.358,34.948,-0.5162,0.47018,0.95103
293.958,35.00542,-0.52729,0.46913,0.95072
294.558,35.06277,-0.53932,0.46843,0.95041
295.158,35.12016,-0.54803,0.46541,0.9501
295.758,35.17755,-0.55793,0.46662,0.94979
296.358,35.23493,-0.5698,0.4666,0.94948
296.958,35.2925,-0.58023,0.46606,0.94917
297.558,35.34997,-0.59099,0.46639,0.94886
298.158,35.40761,-0.60195,0.46458,0.94855
298.758,35.46522,-0.61291,0.46812,0.94824
299.358,35.52293,-0.62522,0.46525,0.94793
299.958,35.5805,-0.63551,0.46481,0.94762
300.558,35.63787,-0.64588,0.46552,0.94731
301.158,35.69531,-0.65831,0.46614,0.947
301.758,35.75277,-0.66935,0.46522,0.94669
302.358,35.80996,-0.68092,0.46299,0.94638
302.958,35.86761,-0.69123,0.46662,0.94607
303.558,35.92502,-0.7018,0.46676,0.94576
304.158,35.98261,-0.71407,0.46676,0.94545
304.758,36.04045,-0.72698,0.46361,0.94513
305.358,36.09793,-0.73752,0.46511,0.94482
305.958,36.15548,-0.748,0.46635,0.94451
306.558,36.2128,-0.76141,0.46447,0.9442
307.158,36.27025,-0.77233,0.4662,0.94389
307.758,36.3279,-0.78319,0.46527,0.94358
308.358,36.38562,-0.79482,0.46766,0.94327
308.958,36.44292,-0.80846,0.46679,0.94295
309.558,36.50047,-0.81877,0.46969,0.94264
310.158,36.55816,-0.82932,0.47124,0.94233
310.758,36.61572,-0.84128,0.47108,0.94202
311.358,36.67366,-0.85175,0.47178,0.9417
311.958,36.7314,-0.8642,0.47743,0.94139
312.558,36.78921,-0.87766,0.47639,0.94108
313.158,36.84691,-0.88744,0.48035,0.94077
313.758,36.90466,-0.89913,0.4776,0.94045
314.358,36.96229,-0.91149,0.48087,0.94014
314.958,37.02008,-0.9239,0.48626,0.93983
315.558,37.07783,-0.93556,0.48763,0.93951
316.158,37.13535,-0.94705,0.48833,0.9392
316.758,37.19314,-0.95849,0.49409,0.93889
317.358,37.25083,-0.97059,0.49518,0.93857
317.958,37.3086,-0.98266,0.49599,0.93826
318.558,37.36657,-0.99428,0.49889,0.93795
319.158,37.42426,-1.00677,0.50223,0.93763
319.758,37.48175,-1.01763,0.50619,0.93732
320.358,37.53933,-1.03013,0.50791,0.937
320.958,37.59698,-1.04287,0.50931,0.93669
321.558,37.6548,-1.05458,0.51452,0.93638
322.158,37.71285,-1.06739,0.51688,0.93606
322.758,37.7706,-1.07854,0.52164,0.93575
323.358,37.8286,-1.09139,0.52744,0.93543
323.958,37.8864,-1.1031,0.53008,0.93512
324.558,37.94422,-1.11742,0.53279,0.9348
325.158,38.00182,-1.13014,0.53725,0.93449
325.758,38.0596,-1.14266,0.5427,0.93417
326.358,38.1175,-1.15535,0.54653,0.93386
326.958,38.17552,-1.16857,0.55263,0.93354
327.558,38.23335,-1.18168,0.55275,0.93322
328.158,38.2912,-1.19539,0.55896,0.93291
328.758,38.34901,-1.20827,0.56362,0.93259
329.358,38.40679,-1.22254,0.56777,0.93228
329.958,38.46474,-1.23533,0.57157,0.93196
330.558,38.52282,-1.24984,0.57392,0.93164
331.158,38.58078,-1.26512,0.58104,0.93133
331.758,38.63892,-1.27881,0.58702,0.93101
332.358,38.69685,-1.29211,0.58878,0.93069
332.958,38.7547,-1.30732,0.59511,0.93038
333.558,38.81282,-1.32165,0.60014,0.93006
334.158,38.87084,-1.33724,0.60688,0.92974
334.758,38.92904,-1.35183,0.60935,0.92942
335.358,38.9872,-1.36692,0.61358,0.92911
335.958,39.04514,-1.3828,0.62028,0.92879
336.558,39.10318,-1.39757,0.62686,0.92847
337.158,39.16131,-1.41479,0.63147,0.92815
337.758,39.21934,-1.43207,0.63867,0.92783
338.358,39.27768,-1.44958,0.64151,0.92752
338.958,39.33575,-1.46609,0.64827,0.9272
339.558,39.39405,-1.48328,0.65576,0.92688
340.158,39.4519,-1.49969,0.66132,0.92656
340.758,39.50985,-1.51672,0.66879,0.92624
341.358,39.56794,-1.53397,0.67183,0.92592
341.958,39.62601,-1.55219,0.67817,0.9256
342.558,39.68443,-1.57204,0.68362,0.92528
343.158,39.74266,-1.59197,0.68908,0.92496
343.758,39.80085,-1.61057,0.69627,0.92464
344.358,39.85897,-1.6301,0.70347,0.92432
344.958,39.91704,-1.64954,0.7109,0.924
345.558,39.9751,-1.67024,0.71417,0.92368
346.158,40.03327,-1.69007,0.72291,0.92336
346.758,40.09135,-1.71113,0.72553,0.92304
347.358,40.14948,-1.73171,0.73655,0.92272
347.958,40.20762,-1.7536,0.74122,0.9224
348.558,40.2658,-1.77579,0.74654,0.92208
349.158,40.3239,-1.79756,0.75282,0.92176
349.758,40.38207,-1.81952,0.75619,0.92144
350.358,40.44025,-1.84273,0.76175,0.92112
350.958,40.49844,-1.86596,0.76612,0.9208
351.558,40.55652,-1.88856,0.77093,0.92047
352.158,40.61465,-1.91268,0.77653,0.92015
352.758,40.67268,-1.93577,0.78081,0.91983
353.358,40.73102,-1.96105,0.78588,0.91951
353.958,40.7893,-1.98643,0.78806,0.91919
354.558,40.84782,-2.01084,0.78776,0.91886
355.158,40.90606,-2.03694,0.79218,0.91854
355.758,40.9642,-2.06104,0.7933,0.91822
356.358,41.02219,-2.08793,0.79397,0.91789
356.958,41.08027,-2.11091,0.79517,0.91757
357.558,41.13831,-2.13762,0.79293,0.91725
358.158,41.19639,-2.16186,0.79642,0.91692
358.758,41.2546,-2.19032,0.79434,0.9166
359.358,41.31288,-2.21586,0.79247,0.91628
359.958,41.37143,-2.24107,0.79067,0.91595
360.558,41.42965,-2.26764,0.78486,0.91563
361.158,41.48787,-2.29369,0.77955,0.9153
361.758,41.546,-2.32016,0.77174,0.91498
362.358,41.60426,-2.34615,0.76329,0.91465
362.958,41.6624,-2.37267,0.75582,0.91433
363.558,41.72079,-2.39691,0.74736,0.914
364.158,41.77916,-2.42358,0.73286,0.91368
364.758,41.83747,-2.44704,0.72304,0.91335
365.358,41.89582,-2.47266,0.70977,0.91303
365.958,41.95415,-2.49557,0.69404,0.9127
366.558,42.01228,-2.52021,0.67851,0.91237
367.158,42.0705,-2.54378,0.66086,0.91205
367.758,42.1286,-2.56534,0.64185,0.91172
368.358,42.18673,-2.58835,0.62565,0.91139
368.958,42.24503,-2.60934,0.60225,0.91107
369.558,42.3034,-2.62772,0.58187,0.91074
370.158,42.36186,-2.64723,0.55808,0.91041
370.758,42.42029,-2.66821,0.53276,0.91009
371.358,42.4785,-2.68458,0.50951,0.90976
371.958,42.53678,-2.70057,0.48545,0.90943
372.558,42.59517,-2.71822,0.46339,0.9091
373.158,42.65358,-2.73199,0.43803,0.90877
373.758,42.71203,-2.74638,0.41072,0.90845
374.358,42.77039,-2.75938,0.38623,0.90812
374.958,42.8286,-2.77171,0.36409,0.90779
375.558,42.8866,-2.7821,0.34314,0.90746
376.158,42.94471,-2.7921,0.31941,0.90713
376.758,43.0028,-2.80168,0.29862,0.9068
377.358,43.06112,-2.81149,0.27993,0.90647
377.958,43.11933,-2.81777,0.26225,0.90614
378.558,43.17755,-2.82551,0.2474,0.90581
379.158,43.23578,-2.83013,0.23412,0.90548
379.758,43.2939,-2.83602,0.21961,0.90515
380.358,43.35195,-2.84074,0.2099,0.90482
380.958,43.4099,-2.84417,0.20322,0.90449
381.558,43.46768,-2.84693,0.19172,0.90416
382.158,43.52574,-2.85154,0.18695,0.90383
382.758,43.5839,-2.85491,0.18171,0.9035
383.358,43.64175,-2.85854,0.17505,0.90317
383.958,43.7,-2.86259,0.1707,0.90284
384.558,43.75829,-2.8656,0.16596,0.9025
385.158,43.8168,-2.86863,0.16476,0.90217
385.758,43.87526,-2.87181,0.16185,0.90184
386.358,43.93343,-2.87327,0.15834,0.90151
386.958,43.99151,-2.87634,0.15687,0.90117
387.558,44.04983,-2.87927,0.15209,0.90084
388.158,44.1081,-2.88217,0.15065,0.90051
388.758,44.1662,-2.88515,0.15223,0.90017
389.358,44.22459,-2.88683,0.14613,0.89984
389.958,44.28284,-2.88914,0.14567,0.89951
390.558,44.3411,-2.89174,0.14694,0.89917
391.158,44.39959,-2.89404,0.14246,0.89884
391.758,44.45782,-2.89728,0.14321,0.89851
392.358,44.51624,-2.89754,0.13876,0.89817
392.958,44.57459,-2.89997,0.13809,0.89784
393.558,44.63297,-2.90239,0.13687,0.8975
394.158,44.69119,-2.90417,0.13466,0.89717
394.758,44.74948,-2.90656,0.13503,0.89683
395.358,44.8078,-2.90949,0.12983,0.89649
395.958,44.86616,-2.91094,0.12925,0.89616
396.558,44.9246,-2.91352,0.12651,0.89582
397.158,44.98299,-2.915,0.1288,0.89549
397.758,45.0413,-2.9165,0.1221,0.89515
398.358,45.09962,-2.91785,0.12437,0.89481
398.958,45.15814,-2.92053,0.1216,0.89448
399.558,45.2165,-2.92186,0.12067,0.89414
400.158,45.27505,-2.92496,0.11975,0.8938
400.758,45.33354,-2.92776,0.1195,0.89346
401.358,45.392,-2.92931,0.12052,0.89313
401.958,45.45049,-2.93061,0.11458,0.89279
402.558,45.50888,-2.93186,0.11593,0.89245
403.158,45.56742,-2.93457,0.11257,0.89211
403.758,45.62587,-2.93642,0.11387,0.89177
404.358,45.68436,-2.93861,0.11038,0.89143
404.958,45.74285,-2.94055,0.11292,0.8911
405.558,45.80129,-2.94189,0.10829,0.89076
406.158,45.85983,-2.9432,0.10919,0.89042
406.758,45.9185,-2.94618,0.10765,0.89008
407.358,45.9771,-2.94699,0.10671,0.88974
407.958,46.03575,-2.94947,0.10534,0.8894
408.558,46.09438,-2.95089,0.10553,0.88906
409.158,46.15312,-2.95224,0.1042,0.88872
409.758,46.2119,-2.95488,0.10562,0.88837
410.358,46.27047,-2.95675,0.10374,0.88803
410.958,46.32913,-2.95914,0.10236,0.88769
411.558,46.38777,-2.96043,0.10228,0.88735
412.158,46.44643,-2.96289,0.10175,0.88701
412.758,46.50528,-2.96429,0.09983008,0.88667
413.358,46.56393,-2.96594,0.10006,0.88632
413.958,46.62253,-2.96723,0.10128,0.88598
414.558,46.68117,-2.96931,0.09911315,0.88564
415.158,46.7397,-2.97117,0.10138,0.8853
415.758,46.7984,-2.97257,0.10204,0.88495
416.358,46.85706,-2.97406,0.10156,0.88461
416.958,46.9156,-2.97514,0.10079,0.88427
417.558,46.97432,-2.9781,0.09999182,0.88392
418.158,47.03307,-2.97927,0.10006,0.88358
418.758,47.09193,-2.98173,0.10041,0.88323
419.358,47.15056,-2.98325,0.09858145,0.88289
419.958,47.20885,-2.986,0.09844838,0.88254
420.558,47.26769,-2.98734,0.09799721,0.8822
421.158,47.32678,-2.98854,0.09967746,0.88185
421.758,47.3857,-2.99013,0.10134,0.88151
422.358,47.4448,-2.99222,0.10024,0.88116
422.958,47.50359,-2.99348,0.09911654,0.88081
423.558,47.56252,-2.99623,0.09788255,0.88047
424.158,47.62121,-2.99751,0.10122,0.88012
424.758,47.6798,-2.99882,0.10185,0.87977
425.358,47.73873,-3.00013,0.10275,0.87943
425.958,47.7976,-3.00148,0.10333,0.87908
426.558,47.85657,-3.00314,0.10496,0.87873
427.158,47.91543,-3.00577,0.10339,0.87839
427.758,47.97422,-3.00705,0.1055,0.87804
428.358,48.03303,-3.00812,0.1052,0.87769
428.958,48.092,-3.00877,0.10772,0.87734
429.558,48.15102,-3.01043,0.10617,0.87699
430.158,48.20994,-3.01264,0.10917,0.87664
430.758,48.26882,-3.01556,0.10921,0.87629
431.358,48.32758,-3.01682,0.11068,0.87594
431.958,48.3862,-3.01673,0.10989,0.87559
432.558,48.4448,-3.01857,0.11301,0.87524
433.158,48.50342,-3.0194,0.11425,0.87489
433.758,48.56216,-3.0213,0.11672,0.87454
434.358,48.62097,-3.02313,0.11642,0.87419
434.958,48.67986,-3.02339,0.11496,0.87384
435.558,48.7387,-3.02597,0.11732,0.87349
436.158,48.7975,-3.02759,0.11887,0.87314
436.758,48.85609,-3.03019,0.11946,0.87279
437.358,48.91479,-3.03009,0.11819,0.87243
437.958,48.97357,-3.03242,0.11832,0.87208
438.558,49.03252,-3.03457,0.11821,0.87173
439.158,49.09169,-3.03634,0.12047,0.87138
439.758,49.1507,-3.03636,0.1219,0.87102
440.358,49.20963,-3.03828,0.12194,0.87067
440.958,49.26845,-3.03898,0.12158,0.87032
441.558,49.3273,-3.04083,0.12386,0.86996
442.158,49.38602,-3.04161,0.12394,0.86961
442.758,49.44493,-3.0431,0.1255,0.86925
443.358,49.50378,-3.04373,0.12604,0.8689
443.958,49.5628,-3.04535,0.12798,0.86854
444.558,49.6218,-3.04664,0.12677,0.86819
445.158,49.6809,-3.04798,0.12976,0.86783
445.758,49.73987,-3.04928,0.12964,0.86748
446.358,49.79887,-3.05051,0.13187,0.86712
446.958,49.85765,-3.05188,0.13268,0.86676
447.558,49.91656,-3.05267,0.1313,0.86641
448.158,49.9754,-3.05392,0.1336,0.86605
448.758,50.0342,-3.05598,0.13417,0.86569
449.358,50.09308,-3.05753,0.13704,0.86534
449.958,50.15182,-3.05933,0.13579,0.86498
450.558,50.21069,-3.05965,0.13767,0.86462
451.158,50.26945,-3.06189,0.14025,0.86426
451.758,50.32835,-3.06272,0.13965,0.8639
452.358,50.38732,-3.06336,0.14154,0.86355
452.958,50.44623,-3.06453,0.1434,0.86319
453.558,50.50524,-3.06593,0.1437,0.86283
454.158,50.56409,-3.06615,0.1444,0.86247
454.758,50.623,-3.06727,0.1477,0.86211
455.358,50.68203,-3.0686,0.14998,0.86175
455.958,50.7412,-3.0689,0.14839,0.86139
456.558,50.80028,-3.07023,0.14957,0.86103
457.158,50.85931,-3.07021,0.15036,0.86067
457.758,50.91836,-3.07242,0.14997,0.86031
458.358,50.97725,-3.074,0.15362,0.85994
458.958,51.0366,-3.07517,0.15191,0.85958
459.558,51.09578,-3.07649,0.15368,0.85922
460.158,51.15464,-3.07653,0.15715,0.85886
460.758,51.2141,-3.07645,0.1558,0.8585
461.358,51.27333,-3.0778,0.1557,0.85813
461.958,51.3327,-3.07868,0.15683,0.85777
462.558,51.39196,-3.07913,0.15607,0.85741
463.158,51.45097,-3.08045,0.15929,0.85704
463.758,51.51032,-3.08175,0.15884,0.85668
464.358,51.5696,-3.08308,0.16067,0.85631
464.958,51.62876,-3.08304,0.16065,0.85595
465.558,51.688,-3.08439,0.162,0.85558
466.158,51.74693,-3.08571,0.16289,0.85522
466.758,51.80601,-3.08608,0.16402,0.85485
467.358,51.86527,-3.0861,0.16064,0.85449
467.958,51.9247,-3.08858,0.16112,0.85412
468.558,51.9844,-3.08944,0.16419,0.85376
469.158,52.04367,-3.09028,0.16516,0.85339
469.758,52.103,-3.09129,0.16725,0.85302
470.358,52.1622,-3.09212,0.16317,0.85266
470.958,52.22149,-3.0926,0.16282,0.85229
471.558,52.28096,-3.09392,0.16741,0.85192
472.158,52.3403,-3.09394,0.16422,0.85155
472.758,52.39968,-3.09425,0.1683,0.85119
473.358,52.4589,-3.09559,0.16701,0.85082
473.958,52.51825,-3.09689,0.16626,0.85045
474.558,52.5777,-3.09772,0.167,0.85008
475.158,52.63731,-3.09886,0.16866,0.84971
475.758,52.697,-3.10016,0.16588,0.84934
476.358,52.7565,-3.1015,0.16643,0.84897
476.958,52.81596,-3.1015,0.16535,0.8486
477.558,52.8753,-3.10275,0.1669,0.84823
478.158,52.9348,-3.10283,0.16699,0.84786
478.758,52.9944,-3.10413,0.16795,0.84749
479.358,53.054,-3.10412,0.16718,0.84712
479.958,53.11351,-3.10543,0.16654,0.84674
480.558,53.1729,-3.10676,0.16832,0.84637
481.158,53.2323,-3.10678,0.17091,0.846
481.758,53.29176,-3.10812,0.17189,0.84563
482.358,53.35122,-3.10708,0.16752,0.84525
482.958,53.41072,-3.1084,0.16952,0.84488
483.558,53.47002,-3.1084,0.17302,0.84451
484.158,53.52926,-3.10972,0.17084,0.84413
484.758,53.5884,-3.10974,0.17304,0.84376
485.358,53.64759,-3.11104,0.17143,0.84339
485.958,53.7068,-3.11232,0.17425,0.84301
486.558,53.7657,-3.11229,0.17385,0.84264
487.158,53.8249,-3.11335,0.17311,0.84226
487.758,53.88417,-3.11367,0.17346,0.84189
488.358,53.94341,-3.11497,0.17462,0.84151
488.958,54.00286,-3.11498,0.17517,0.84113
489.558,54.06211,-3.11551,0.17558,0.84076
490.158,54.1214,-3.1163,0.1751,0.84038
490.758,54.1808,-3.11761,0.17663,0.84
491.358,54.24026,-3.11762,0.17587,0.83963
491.958,54.29968,-3.11893,0.17704,0.83925
492.558,54.359,-3.11893,0.17569,0.83887
493.158,54.4182,-3.12024,0.17614,0.83849
493.758,54.47761,-3.12071,0.18033,0.83811
494.358,54.5368,-3.12157,0.17623,0.83774
494.958,54.5962,-3.12152,0.17613,0.83736
495.558,54.65555,-3.12288,0.1773,0.83698
496.158,54.7149,-3.12283,0.1803,0.8366
496.758,54.7743,-3.12387,0.18005,0.83622
497.358,54.8336,-3.12418,0.18557,0.83584
497.958,54.89291,-3.12451,0.1899,0.83546
498.558,54.9522,-3.12517,0.19471,0.83508
499.158,55.0115,-3.12584,0.19554,0.83469
499.758,55.07099,-3.12584,0.19928,0.83431
500.358,55.13038,-3.12848,0.20177,0.83393
500.958,55.1898,-3.12847,0.20522,0.83355
501.558,55.2491,-3.12979,0.20516,0.83317
502.158,55.3083,-3.12976,0.2053,0.83278
502.758,55.3677,-3.13045,0.20624,0.8324
503.358,55.4271,-3.12986,0.20706,0.83202
503.958,55.48639,-3.12982,0.20856,0.83163
504.558,55.5456,-3.1311,0.20931,0.83125
505.158,55.60479,-3.13374,0.20935,0.83086
505.758,55.66401,-3.13245,0.21062,0.83048
506.358,55.7234,-3.13242,0.21359,0.8301
506.958,55.78256,-3.13244,0.213,0.82971
507.558,55.84199,-3.13473,0.21603,0.82932
508.158,55.90133,-3.13604,0.21869,0.82894
508.758,55.96068,-3.13738,0.21801,0.82855
509.358,56.02012,-3.1367,0.21781,0.82817
509.958,56.0794,-3.1367,0.21719,0.82778
510.558,56.1387,-3.13608,0.21724,0.82739
511.158,56.1979,-3.13736,0.21525,0.827
511.758,56.2573,-3.13736,0.22213,0.82662
512.358,56.31675,-3.13865,0.22298,0.82623
512.958,56.3761,-3.13867,0.22182,0.82584
513.558,56.4355,-3.1393,0.22516,0.82545
514.158,56.4948,-3.14065,0.22397,0.82506
514.758,56.5542,-3.14064,0.22691,0.82467
515.358,56.61354,-3.14197,0.22505,0.82428
515.958,56.6731,-3.14197,0.22366,0.82389
516.558,56.73251,-3.14186,0.22396,0.8235
517.158,56.792,-3.14196,0.2269,0.82311
517.758,56.85165,-3.14194,0.22437,0.82272
518.358,56.9113,-3.14328,0.22936,0.82233
518.958,56.9708,-3.14333,0.22799,0.82194
519.558,57.0304,-3.14459,0.22915,0.82155
520.158,57.0899,-3.14459,0.23032,0.82116
520.758,57.1496,-3.14591,0.2285,0.82076
521.358,57.20915,-3.14588,0.23103,0.82037
521.958,57.2688,-3.1469,0.23035,0.81998
522.558,57.32858,-3.14724,0.23094,0.81958
523.158,57.38821,-3.14719,0.2298,0.81919
523.758,57.44798,-3.14854,0.23068,0.8188
524.358,57.5077,-3.14954,0.23152,0.8184
524.958,57.56746,-3.14986,0.23173,0.81801
525.558,57.62705,-3.14985,0.23008,0.81761
526.158,57.68675,-3.15078,0.23247,0.81722
526.758,57.74631,-3.15217,0.23295,0.81682
527.358,57.80611,-3.15314,0.23252,0.81642
527.958,57.86563,-3.15347,0.22996,0.81603
528.558,57.9252,-3.15129,0.2291,0.81563
529.158,57.98483,-3.1521,0.23016,0.81523
529.758,58.0444,-3.15282,0.22873,0.81484
530.358,58.10416,-3.15319,0.22705,0.81444
530.958,58.1638,-3.15414,0.22203,0.81404
531.558,58.2237,-3.15403,0.21624,0.81364
532.158,58.28355,-3.15461,0.21536,0.81325
532.758,58.34339,-3.15596,0.21027,0.81285
533.358,58.40322,-3.15643,0.20434,0.81245
533.958,58.46284,-3.15644,0.20415,0.81205
534.558,58.52254,-3.15644,0.20029,0.81165
535.158,58.58226,-3.1564,0.19987,0.81125
535.758,58.6421,-3.15776,0.19619,0.81085
536.358,58.70175,-3.15666,0.19353,0.81045
536.958,58.76141,-3.15656,0.19369,0.81005
537.558,58.8213,-3.15907,0.19036,0.80964
538.158,58.8811,-3.15907,0.18851,0.80924
538.758,58.9408,-3.16039,0.18772,0.80884
539.358,59.0005,-3.15937,0.18541,0.80844
539.958,59.0603,-3.15976,0.18649,0.80803
540.558,59.12015,-3.1604,0.18728,0.80763
541.158,59.18,-3.16171,0.18101,0.80723
541.758,59.2399,-3.16171,0.18365,0.80682
542.358,59.2996,-3.16171,0.18162,0.80642
542.958,59.35932,-3.16299,0.17965,0.80602
543.558,59.41905,-3.16303,0.18021,0.80561
544.158,59.47876,-3.16303,0.17702,0.80521
544.758,59.53859,-3.16246,0.1796,0.8048
545.358,59.5983,-3.16286,0.17588,0.8044
545.958,59.658,-3.16335,0.17436,0.80399
546.558,59.71775,-3.16335,0.17616,0.80358
547.158,59.77735,-3.16335,0.17278,0.80318
547.758,59.837,-3.1633,0.17083,0.80277
548.358,59.89675,-3.16467,0.16996,0.80236
548.958,59.95638,-3.16489,0.16925,0.80195
549.558,60.01622,-3.16565,0.17185,0.80155
550.158,60.076,-3.16714,0.17038,0.80114
550.758,60.13576,-3.16595,0.17086,0.80073
551.358,60.19549,-3.16735,0.16897,0.80032
551.958,60.25504,-3.1673,0.16819,0.79991
552.558,60.3146,-3.1686,0.16709,0.7995
553.158,60.3743,-3.16862,0.16738,0.79909
553.758,60.43414,-3.16862,0.16368,0.79868
554.358,60.4939,-3.16862,0.16368,0.79827
554.958,60.5537,-3.16855,0.15983,0.79786
555.558,60.61314,-3.16994,0.15831,0.79745
556.158,60.67279,-3.16994,0.15657,0.79704
556.758,60.7325,-3.17134,0.1531,0.79662
557.358,60.79214,-3.16995,0.15364,0.79621
557.958,60.85213,-3.17125,0.15347,0.7958
558.558,60.9122,-3.17125,0.15088,0.79539
559.158,60.9721,-3.1731,0.14841,0.79497
559.758,61.0323,-3.17388,0.14995,0.79456
560.358,61.0921,-3.17316,0.1459,0.79415
560.958,61.15206,-3.17375,0.14569,0.79373
561.558,61.212,-3.17454,0.14274,0.79332
562.158,61.27182,-3.17454,0.14395,0.7929
562.758,61.33175,-3.17388,0.14058,0.79249
563.358,61.3919,-3.17387,0.14232,0.79207
563.958,61.4519,-3.17567,0.13784,0.79165
564.558,61.5121,-3.17567,0.13876,0.79124
565.158,61.5723,-3.17651,0.13908,0.79082
565.758,61.6324,-3.17653,0.13712,0.7904
566.358,61.692,-3.17521,0.13799,0.78999
566.958,61.75229,-3.17618,0.13378,0.78957
567.558,61.81245,-3.17615,0.13287,0.78915
568.158,61.8731,-3.1775,0.13238,0.78873
568.758,61.9333,-3.1775,0.13545,0.78831
569.358,61.99337,-3.1775,0.13108,0.7879
569.958,62.05335,-3.17766,0.13144,0.78748
570.558,62.11331,-3.17881,0.1311,0.78706
571.158,62.1733,-3.17881,0.12966,0.78664
571.758,62.23336,-3.17886,0.13459,0.78622
572.358,62.29348,-3.17882,0.1332,0.7858
572.958,62.35355,-3.17883,0.13369,0.78538
573.558,62.41352,-3.18147,0.12971,0.78495
574.158,62.4736,-3.18276,0.12763,0.78453
574.758,62.53355,-3.18274,0.12948,0.78411
575.358,62.5936,-3.18145,0.13072,0.78369
575.958,62.65361,-3.18145,0.13057,0.78327
576.558,62.7135,-3.18213,0.13156,0.78284
577.158,62.7733,-3.18276,0.13055,0.78242
577.758,62.833,-3.1827,0.12849,0.782
578.358,62.89294,-3.18407,0.13004,0.78157
578.958,62.95286,-3.1841,0.12977,0.78115
579.558,63.0128,-3.18409,0.13085,0.78072
580.158,63.0727,-3.1854,0.13158,0.7803
580.758,63.1324,-3.18408,0.13268,0.77987
581.358,63.1924,-3.18538,0.13071,0.77945
581.958,63.2524,-3.1854,0.13027,0.77902
582.558,63.3124,-3.1854,0.13091,0.77859
583.158,63.3724,-3.18681,0.13213,0.77817
583.758,63.43251,-3.1854,0.13183,0.77774
584.358,63.4926,-3.1854,0.13021,0.77731
584.958,63.5527,-3.1876,0.13067,0.77689
585.558,63.6127,-3.18803,0.13046,0.77646
586.158,63.6727,-3.18803,0.13177,0.77603
586.758,63.7328,-3.18903,0.13351,0.7756
587.358,63.79271,-3.18902,0.1298,0.77517
587.958,63.85285,-3.19038,0.12807,0.77474
588.558,63.91268,-3.19033,0.12894,0.77431
589.158,63.9728,-3.19011,0.12906,0.77388
589.758,64.03279,-3.18929,0.12891,0.77345
590.358,64.0929,-3.19067,0.13094,0.77302
590.958,64.15298,-3.19067,0.13088,0.77259
591.558,64.21303,-3.19067,0.13184,0.77216
592.158,64.27311,-3.1907,0.1327,0.77173
592.758,64.3331,-3.19198,0.12989,0.7713
593.358,64.3932,-3.192,0.13118,0.77086
593.958,64.45323,-3.1933,0.13038,0.77043
594.558,64.5134,-3.19314,0.1332,0.77
595.158,64.57349,-3.19198,0.13045,0.76956
595.758,64.63356,-3.19198,0.13039,0.76913
596.358,64.6935,-3.19327,0.13211,0.7687
596.958,64.75367,-3.19321,0.13068,0.76826
597.558,64.81365,-3.19264,0.13562,0.76783
598.158,64.8739,-3.19256,0.13347,0.76739
598.758,64.9341,-3.19395,0.13485,0.76696
599.358,64.99427,-3.19395,0.135,0.76652
599.958,65.0545,-3.19395,0.13846,0.76609
600.558,65.1147,-3.19395,0.13747,0.76565
601.158,65.17496,-3.19633,0.13857,0.76521
601.758,65.2351,-3.1966,0.13618,0.76478
602.358,65.2954,-3.19527,0.13719,0.76434
602.958,65.35561,-3.19659,0.13842,0.7639
603.558,65.41594,-3.19659,0.13858,0.76346
604.158,65.47631,-3.19633,0.14031,0.76302
604.758,65.53679,-3.19757,0.13753,0.76259
605.358,65.5972,-3.19742,0.14024,0.76215
605.958,65.65731,-3.19626,0.14042,0.76171
606.558,65.71741,-3.19623,0.13998,0.76127
607.158,65.77747,-3.19659,0.13971,0.76083
607.758,65.83762,-3.19794,0.14204,0.76039
608.358,65.89785,-3.19856,0.14358,0.75995
608.958,65.95809,-3.19937,0.14209,0.7595
609.558,66.0184,-3.19988,0.14872,0.75906
610.158,66.07884,-3.19987,0.14524,0.75862
610.758,66.1393,-3.19857,0.14685,0.75818
611.358,66.1996,-3.20017,0.14539,0.75774
611.958,66.25994,-3.20119,0.14924,0.75729
612.558,66.32024,-3.20119,0.15112,0.75685
613.158,66.38055,-3.20087,0.14843,0.75641
613.758,66.44117,-3.20087,0.15136,0.75596
614.358,66.50153,-3.20218,0.15429,0.75552
614.958,66.56188,-3.20217,0.15319,0.75508
615.558,66.62219,-3.2025,0.15395,0.75463
616.158,66.68262,-3.2012,0.1572,0.75419
616.758,66.74294,-3.20252,0.15726,0.75374
617.358,66.80326,-3.20268,0.16117,0.75329
617.958,66.86345,-3.2035,0.16218,0.75285
618.558,66.92371,-3.20421,0.15919,0.7524
619.158,66.98396,-3.20481,0.16142,0.75196
619.758,67.04429,-3.2035,0.16271,0.75151
620.358,67.1048,-3.2035,0.16453,0.75106
620.958,67.1651,-3.2035,0.16383,0.75061
621.558,67.2256,-3.20353,0.16374,0.75017
622.158,67.28577,-3.20483,0.16279,0.74972
622.758,67.34591,-3.2035,0.16504,0.74927
623.358,67.40607,-3.20479,0.16714,0.74882
623.958,67.46624,-3.20481,0.16524,0.74837
624.558,67.52659,-3.2058,0.1675,0.74792
625.158,67.5869,-3.2058,0.16433,0.74747
625.758,67.6472,-3.2058,0.16791,0.74702
626.358,67.70739,-3.2058,0.16774,0.74657
626.958,67.7675,-3.20701,0.16868,0.74612
627.558,67.82772,-3.20739,0.17066,0.74567
628.158,67.8879,-3.20746,0.17303,0.74521
628.758,67.94821,-3.20613,0.17263,0.74476
629.358,68.00841,-3.20739,0.17306,0.74431
629.958,68.06849,-3.20614,0.17293,0.74386
630.558,68.12849,-3.20745,0.17413,0.7434
631.158,68.18856,-3.20613,0.1752,0.74295
631.758,68.24893,-3.20614,0.17878,0.7425
632.358,68.30941,-3.20745,0.17636,0.74204
632.958,68.36997,-3.2081,0.17702,0.74159
633.558,68.43021,-3.2081,0.17768,0.74113
634.158,68.49054,-3.2081,0.17926,0.74068
634.758,68.551,-3.20942,0.17439,0.74022
635.358,68.61152,-3.20779,0.17214,0.73977
635.958,68.67189,-3.20689,0.17211,0.73931
636.558,68.73232,-3.20862,0.17284,0.73886
637.158,68.79271,-3.20888,0.17285,0.7384
637.758,68.85327,-3.2089,0.17685,0.73794
638.358,68.9135,-3.21019,0.1696,0.73748
638.958,68.97415,-3.21118,0.17174,0.73703
639.558,69.03472,-3.21151,0.17128,0.73657
640.158,69.09525,-3.21151,0.17244,0.73611
640.758,69.15608,-3.21151,0.17134,0.73565
641.358,69.2167,-3.21151,0.17063,0.73519
641.958,69.27739,-3.21116,0.17021,0.73473
642.558,69.33785,-3.21118,0.1701,0.73427
643.158,69.39843,-3.2125,0.1654,0.73381
643.758,69.45886,-3.2125,0.17154,0.73335
644.358,69.51929,-3.21305,0.17047,0.73289
644.958,69.57958,-3.21303,0.16443,0.73243
645.558,69.63973,-3.21129,0.17133,0.73197
646.158,69.69977,-3.2103,0.16936,0.73151
646.758,69.76,-3.21162,0.17099,0.73105
647.358,69.82021,-3.21162,0.16905,0.73059
647.958,69.88056,-3.21293,0.17061,0.73012
648.558,69.94069,-3.21293,0.16996,0.72966
649.158,70.0008,-3.21293,0.1671,0.7292
649.758,70.0611,-3.21392,0.16924,0.72873
650.358,70.12151,-3.21392,0.17156,0.72827
650.958,70.18195,-3.21392,0.16902,0.72781
651.558,70.2423,-3.21395,0.17153,0.72734
652.158,70.30252,-3.21453,0.16737,0.72688
652.758,70.36239,-3.21359,0.17084,0.72641
653.358,70.42278,-3.21359,0.17441,0.72595
653.958,70.48326,-3.21356,0.1718,0.72548
654.558,70.54384,-3.21488,0.16851,0.72501
655.158,70.6048,-3.21518,0.17095,0.72455
655.758,70.6652,-3.21394,0.16892,0.72408
656.358,70.72564,-3.21523,0.16882,0.72361
656.958,70.78609,-3.21523,0.17134,0.72315
657.558,70.84656,-3.21523,0.17013,0.72268
658.158,70.90703,-3.21652,0.168,0.72221
658.758,70.9678,-3.21524,0.16772,0.72174
659.358,71.02824,-3.21524,0.17031,0.72127
659.958,71.08848,-3.21524,0.17022,0.7208
660.558,71.14888,-3.21524,0.16931,0.72033
661.158,71.20943,-3.21524,0.17132,0.71987
661.758,71.27016,-3.21557,0.16591,0.7194
662.358,71.3309,-3.21721,0.16902,0.71893
662.958,71.39155,-3.21721,0.17086,0.71845
663.558,71.45212,-3.21721,0.17258,0.71798
664.158,71.51278,-3.21699,0.17246,0.71751
664.758,71.57324,-3.2159,0.17305,0.71704
665.358,71.63385,-3.2159,0.17266,0.71657
665.958,71.69436,-3.2159,0.17262,0.7161
666.558,71.75496,-3.21726,0.17497,0.71562
667.158,71.8156,-3.21721,0.17452,0.71515
667.758,71.8763,-3.21721,0.17402,0.71468
668.358,71.93687,-3.21721,0.17368,0.7142
668.958,71.99749,-3.21833,0.16923,0.71373
669.558,72.05815,-3.21853,0.17022,0.71326
670.158,72.119,-3.21789,0.1703,0.71278
670.758,72.17987,-3.21754,0.17125,0.71231
671.358,72.2406,-3.21726,0.17063,0.71183
671.958,72.30115,-3.21786,0.16981,0.71136
672.558,72.36194,-3.21919,0.17151,0.71088
673.158,72.42257,-3.21919,0.17554,0.71041
673.758,72.4833,-3.21886,0.17701,0.70993
674.358,72.54387,-3.21958,0.17725,0.70945
674.958,72.60457,-3.22017,0.17611,0.70898
675.558,72.66515,-3.21963,0.17596,0.7085
676.158,72.7257,-3.21733,0.17799,0.70802
676.758,72.78614,-3.21885,0.18071,0.70754
677.358,72.84665,-3.22016,0.17862,0.70707
677.958,72.90715,-3.21897,0.18101,0.70659
678.558,72.96757,-3.21897,0.1805,0.70611
679.158,73.02802,-3.21988,0.17734,0.70563
679.758,73.08841,-3.22127,0.17791,0.70515
680.358,73.149,-3.22127,0.17775,0.70467
680.958,73.20897,-3.22127,0.17868,0.70419
681.558,73.26932,-3.22127,0.17751,0.70371
682.158,73.32953,-3.21996,0.17696,0.70323
682.758,73.39007,-3.21996,0.18139,0.70275
683.358,73.45066,-3.21996,0.17899,0.70227
683.958,73.51079,-3.22128,0.17862,0.70179
684.558,73.57162,-3.22127,0.18066,0.7013
685.158,73.63212,-3.22204,0.18033,0.70082
685.758,73.69291,-3.22225,0.17915,0.70034
686.358,73.75341,-3.22225,0.17921,0.69986
686.958,73.81393,-3.22225,0.17696,0.69937
687.558,73.87445,-3.22093,0.17888,0.69889
688.158,73.93504,-3.22121,0.18125,0.69841
688.758,73.9953,-3.22226,0.17953,0.69792
689.358,74.05564,-3.22226,0.17945,0.69744
689.958,74.11607,-3.22225,0.17741,0.69695
690.558,74.1768,-3.22357,0.17744,0.69647
691.158,74.23755,-3.22223,0.17712,0.69598
691.758,74.29823,-3.22101,0.17713,0.6955
692.358,74.35885,-3.22225,0.17839,0.69501
692.958,74.4195,-3.22453,0.17539,0.69453
693.558,74.48023,-3.22456,0.1748,0.69404
694.158,74.54095,-3.22423,0.17712,0.69355
694.758,74.60157,-3.22423,0.17889,0.69307
695.358,74.66218,-3.22326,0.17776,0.69258
695.958,74.72278,-3.22324,0.17723,0.69209
696.558,74.78345,-3.22324,0.17989,0.6916
697.158,74.84425,-3.22357,0.18107,0.69112
697.758,74.90513,-3.22357,0.18189,0.69063
698.358,74.96585,-3.22221,0.17955,0.69014
698.958,75.0267,-3.22364,0.18327,0.68965
699.558,75.08743,-3.22357,0.18167,0.68916
700.158,75.14816,-3.2262,0.18006,0.68867
700.758,75.2089,-3.22621,0.17787,0.68818
701.358,75.26964,-3.22488,0.18228,0.68769
701.958,75.3303,-3.22488,0.1805,0.6872
702.558,75.39099,-3.22488,0.18056,0.68671
703.158,75.45175,-3.22487,0.17814,0.68622
703.758,75.51258,-3.2239,0.179,0.68573
704.358,75.57329,-3.2239,0.17671,0.68523
704.958,75.6341,-3.22465,0.18129,0.68474
705.558,75.69467,-3.22521,0.18083,0.68425
706.158,75.75525,-3.22654,0.18219,0.68376
706.758,75.81588,-3.22514,0.18122,0.68326
707.358,75.87657,-3.22522,0.17971,0.68277
707.958,75.93732,-3.22513,0.1825,0.68228
708.558,75.99789,-3.22654,0.18229,0.68178
709.158,76.05851,-3.22681,0.18079,0.68129
709.758,76.11928,-3.2272,0.18443,0.6808
710.358,76.1801,-3.2272,0.17761,0.6803
710.958,76.24114,-3.22721,0.18127,0.67981
711.558,76.30202,-3.22621,0.18115,0.67931
712.158,76.3628,-3.22761,0.18153,0.67882
712.758,76.42348,-3.22752,0.17601,0.67832
713.358,76.4842,-3.22753,0.17766,0.67782
713.958,76.545,-3.22884,0.17682,0.67733
714.558,76.6059,-3.22885,0.17553,0.67683
715.158,76.66673,-3.22731,0.17664,0.67633
715.758,76.7276,-3.22885,0.1783,0.67584
716.358,76.78849,-3.22884,0.17723,0.67534
716.958,76.8494,-3.22884,0.18127,0.67484
717.558,76.91024,-3.22884,0.1755,0.67434
718.158,76.97108,-3.23048,0.17618,0.67385
718.758,77.0321,-3.23048,0.17206,0.67335
719.358,77.0933,-3.23076,0.17592,0.67285
719.958,77.1542,-3.2318,0.17531,0.67235
720.558,77.2148,-3.23185,0.17588,0.67185
721.158,77.27512,-3.23046,0.17517,0.67135
721.758,77.33578,-3.22917,0.17277,0.67085
722.358,77.39675,-3.23048,0.1722,0.67035
722.958,77.45835,-3.2305,0.1711,0.66985
723.558,77.51939,-3.2318,0.17518,0.66935
724.158,77.58036,-3.23181,0.17231,0.66885
724.758,77.64094,-3.2295,0.17419,0.66835
725.358,77.70151,-3.22948,0.173,0.66785
725.958,77.7621,-3.23151,0.17279,0.66734
726.558,77.82275,-3.23213,0.17186,0.66684
727.158,77.88327,-3.23213,0.17235,0.66634
727.758,77.94385,-3.23213,0.17072,0.66584
728.358,78.0045,-3.23313,0.17348,0.66533
728.958,78.0651,-3.23311,0.17063,0.66483
729.558,78.1258,-3.2331,0.1689,0.66433
730.158,78.18648,-3.23443,0.16948,0.66382
730.758,78.24729,-3.23311,0.17212,0.66332
731.358,78.30816,-3.23344,0.16467,0.66281
731.958,78.36893,-3.23477,0.1639,0.66231
732.558,78.42959,-3.23476,0.16434,0.6618
733.158,78.49037,-3.23346,0.16883,0.6613
733.758,78.5508,-3.2331,0.16666,0.66079
734.358,78.61142,-3.23442,0.1627,0.66029
734.958,78.6719,-3.23614,0.1654,0.65978
735.558,78.73246,-3.23607,0.16113,0.65928
736.158,78.7931,-3.23471,0.16168,0.65877
736.758,78.85348,-3.23476,0.16252,0.65826
737.358,78.9143,-3.23476,0.16448,0.65776
737.958,78.97501,-3.23476,0.16307,0.65725
738.558,79.03577,-3.23485,0.1615,0.65674
739.158,79.09639,-3.23608,0.1609,0.65623
739.758,79.15698,-3.23608,0.16515,0.65573
740.358,79.2178,-3.23608,0.16356,0.65522
740.958,79.27882,-3.23608,0.16248,0.65471
741.558,79.33959,-3.23607,0.16017,0.6542
742.158,79.4002,-3.2374,0.15975,0.65369
742.758,79.46079,-3.2374,0.16138,0.65318
743.358,79.52145,-3.2374,0.16315,0.65267
743.958,79.58236,-3.23727,0.1585,0.65216
744.558,79.6433,-3.2381,0.16492,0.65165
745.158,79.70433,-3.23791,0.16203,0.65114
745.758,79.76522,-3.23771,0.15994,0.65063
746.358,79.82597,-3.23674,0.16014,0.65012
746.958,79.88672,-3.23686,0.15925,0.64961
747.558,79.94761,-3.23805,0.16193,0.6491
748.058,79.99874,-3.23805,0.16332,0.64867