File: 01_Data/PC/STA/N2/3K_min/PC_STA_N2_3KData_211609_R1.csv
##Temp./Â°C,Time/min,Mass loss(subtr.2)/mg,DSC(subtr.2)/mW,DTG(subtr.2)/(mg/min),Sensit./(uV/mW)
49.818,10.00917,-0.03467,-0.11858,0.0,1.03584
50.518,12.2674,-0.03810752,-0.06442509,-0.0018831,1.03581
51.218,12.99656,-0.04191245,-0.03997529,-0.001893637,1.03577
51.918,13.56155,-0.04150841,-0.01940767,-0.001745477,1.03574
52.618,14.05101,-0.0418005,-0.007737385,-0.00160995,1.0357
53.318,14.4961,-0.04310629,-3.39182e-05,-0.001931641,1.03565
54.018,14.90846,-0.04469225,0.01520475,-0.002153699,1.03561
54.718,15.29744,-0.04443969,0.0394085,-0.002135789,1.03556
55.418,15.6635,-0.04612739,0.04149824,-0.001873998,1.03551
56.118,16.01462,-0.04717085,0.04691227,-0.002141623,1.03546
56.818,16.35107,-0.04891867,0.05224325,-0.002186476,1.03541
57.518,16.6766,-0.04759859,0.06056597,-0.002444256,1.03535
58.218,16.99671,-0.04891615,0.06368939,-0.001953527,1.0353
58.918,17.30667,-0.04925062,0.06439477,-0.002776855,1.03524
59.618,17.60755,-0.05024,0.06413936,-0.001766859,1.03518
60.318,17.90296,-0.05124393,0.06614002,-0.00161261,1.03511
61.018,18.19301,-0.05160279,0.0828731,-0.001904895,1.03505
61.718,18.4789,-0.05287028,0.07979709,-0.001859538,1.03498
62.418,18.76004,-0.05158218,0.08938764,-0.002720962,1.03491
63.118,19.0373,-0.05155077,0.09323015,-0.00151095,1.03484
63.818,19.31094,-0.05485233,0.09271171,-0.001115886,1.03477
64.518,19.5811,-0.05353553,0.09253008,-0.000735775,1.03469
65.218,19.84928,-0.05595,0.09365659,-0.001798706,1.03461
65.918,20.11427,-0.05330984,0.09927661,-0.002018535,1.03453
66.618,20.37646,-0.05529045,0.09734999,-0.001829571,1.03445
67.318,20.63555,-0.05428799,0.10678,-0.00182792,1.03436
68.018,20.89376,-0.05561788,0.10538,-0.00178237,1.03428
68.718,21.14979,-0.05691429,0.10956,-0.00165089,1.03419
69.418,21.40395,-0.05989128,0.11468,-0.001438354,1.0341
70.118,21.65721,-0.05473916,0.1163,-0.001937054,1.03401
70.818,21.90929,-0.05297769,0.11731,-0.001692792,1.03391
71.518,22.16082,-0.05503788,0.11828,-0.00140239,1.03382
72.218,22.41103,-0.05788301,0.12589,-0.000834838,1.03372
72.918,22.66003,-0.06055,0.12088,-0.00174769,1.03362
73.618,22.90725,-0.05988105,0.12319,-0.00151284,1.03351
74.318,23.15446,-0.05989091,0.12421,-0.002059262,1.03341
75.018,23.3992,-0.05955997,0.11813,-0.00130259,1.0333
75.718,23.64518,-0.06120003,0.12086,-0.001289763,1.03319
76.418,23.8904,-0.06021968,0.12167,-0.000674462,1.03308
77.118,24.13403,-0.06219003,0.12902,-0.00162712,1.03297
77.818,24.37495,-0.06219879,0.13008,-0.00208144,1.03286
78.518,24.6167,-0.06174578,0.12187,-0.00388452,1.03274
79.218,24.858,-0.0608698,0.12387,-0.001305425,1.03262
79.918,25.1004,-0.06185606,0.11864,-0.0009463251,1.0325
80.618,25.34055,-0.06318155,0.11425,-0.0008496616,1.03238
81.318,25.58,-0.06185834,0.11593,-0.0009780092,1.03225
82.018,25.81917,-0.06351,0.1131,-0.0008618791,1.03213
82.718,26.05839,-0.06324095,0.12102,-0.000972082,1.032
83.418,26.29705,-0.06351,0.11907,-0.0009586458,1.03187
84.118,26.5351,-0.063843,0.12888,-0.0006642246,1.03173
84.818,26.7728,-0.06481996,0.12554,-0.000770304,1.0316
85.518,27.01035,-0.06482344,0.12492,-0.0005251982,1.03146
86.218,27.24677,-0.06483,0.11413,-0.001029235,1.03132
86.918,27.4833,-0.06482003,0.12428,-0.000969999,1.03118
87.618,27.71933,-0.0635042,0.125,-0.0008543774,1.03104
88.318,27.955,-0.06483683,0.11802,-0.0009983829,1.03089
89.018,28.18934,-0.06614069,0.12595,-0.000828819,1.03075
89.718,28.4233,-0.06483,0.12599,-0.000832528,1.0306
90.418,28.6563,-0.06483,0.13329,-0.0008461347,1.03045
91.118,28.889,-0.06481999,0.12882,-0.0009062017,1.0303
91.818,29.1211,-0.06350873,0.13433,-0.000645423,1.03014
92.518,29.3531,-0.06615027,0.14061,-0.00066736,1.02999
93.218,29.58472,-0.06482215,0.14207,-0.0006179503,1.02983
93.918,29.81677,-0.0661401,0.14119,-0.000824859,1.02967
94.618,30.04816,-0.06647124,0.1457,-0.0008395343,1.02951
95.318,30.2788,-0.06648848,0.14444,-0.001016159,1.02934
96.018,30.50941,-0.06713199,0.14374,-0.0006042146,1.02918
96.718,30.7394,-0.06614008,0.15279,-0.000853713,1.02901
97.418,30.9696,-0.0671322,0.15167,-0.00108512,1.02884
98.118,31.1979,-0.06712947,0.14722,-0.0008356172,1.02867
98.818,31.4277,-0.0684525,0.14923,-0.000832531,1.02849
99.518,31.6568,-0.06712823,0.14745,-0.001345984,1.02832
100.218,31.88707,-0.06776808,0.14993,-0.0008712036,1.02814
100.918,32.11667,-0.06713,0.15177,-0.000880289,1.02796
101.618,32.3465,-0.06894772,0.15361,-0.001022885,1.02778
102.318,32.5754,-0.06910868,0.15446,-0.0005534444,1.0276
103.018,32.80365,-0.06910003,0.16401,-0.001200873,1.02741
103.718,33.03192,-0.06779005,0.15916,-0.0006757961,1.02722
104.418,33.26064,-0.07012776,0.16564,-0.00109076,1.02703
105.118,33.48856,-0.07042,0.15978,-0.000721431,1.02684
105.818,33.71586,-0.06910125,0.16722,-0.0007033935,1.02665
106.518,33.94285,-0.0691,0.16566,-0.0007015239,1.02646
107.218,34.17024,-0.07042,0.16072,-0.0007973895,1.02626
107.918,34.39873,-0.07053809,0.16599,-0.000886833,1.02606
108.618,34.62697,-0.06986959,0.17001,-0.000943992,1.02586
109.318,34.85588,-0.06933609,0.17369,-0.0006852339,1.02566
110.018,35.08432,-0.06923385,0.16779,-0.0006477824,1.02546
110.718,35.3132,-0.07185004,0.1607,-0.0004901636,1.02525
111.418,35.54146,-0.07052998,0.17609,-0.000944615,1.02504
112.118,35.7693,-0.07185,0.17865,-0.0003173313,1.02484
112.818,35.9968,-0.07128086,0.17579,-0.00028532,1.02462
113.518,36.22413,-0.07053,0.1718,-0.000791399,1.02441
114.218,36.45176,-0.07059759,0.18162,-0.000816047,1.0242
114.918,36.6794,-0.07195998,0.17422,-0.0008054257,1.02398
115.618,36.90678,-0.07064839,0.18481,-0.000671555,1.02376
116.318,37.1338,-0.07195,0.17822,-0.0008414115,1.02354
117.018,37.3604,-0.07195995,0.17645,-0.000761769,1.02332
117.718,37.5876,-0.07196,0.18537,-0.000548108,1.0231
118.418,37.8144,-0.07054703,0.18298,-0.0005384325,1.02287
119.118,38.04141,-0.07230449,0.18747,-0.0007267468,1.02264
119.818,38.26806,-0.07260757,0.19644,-0.0004716222,1.02241
120.518,38.49494,-0.07369588,0.19165,-0.000729612,1.02218
121.218,38.72132,-0.0729473,0.18371,-0.0006621605,1.02195
121.918,38.9478,-0.07326999,0.20377,-0.0006735778,1.02172
122.618,39.17347,-0.07458902,0.19547,-0.0004553739,1.02148
123.318,39.3998,-0.07294233,0.19717,-0.0005268998,1.02124
124.018,39.62553,-0.07552033,0.19221,-0.0004880708,1.021
124.718,39.8515,-0.07295086,0.19268,-0.000366971,1.02076
125.418,40.0774,-0.07346098,0.19457,-0.0009196522,1.02052
126.118,40.30369,-0.07426626,0.19043,-0.000744062,1.02027
126.818,40.5302,-0.07426,0.20197,-0.0007408381,1.02002
127.518,40.7559,-0.07426,0.19318,-0.000608616,1.01978
128.218,40.9812,-0.07430212,0.19307,-0.0005891099,1.01953
128.918,41.20663,-0.07391567,0.18805,-0.0009464449,1.01927
129.618,41.4319,-0.07393,0.19526,-0.000260819,1.01902
130.318,41.65726,-0.07459001,0.19656,-0.0005408826,1.01876
131.018,41.88236,-0.07459,0.19222,-0.000593375,1.01851
131.718,42.1071,-0.07561695,0.20433,-0.0006223061,1.01825
132.418,42.33133,-0.07425685,0.20385,-0.0003707582,1.01799
133.118,42.55526,-0.07590176,0.20507,-0.000596372,1.01772
133.818,42.7796,-0.07492602,0.21205,-0.0007424386,1.01746
134.518,43.00415,-0.07591,0.21091,-0.0004500983,1.01719
135.218,43.22891,-0.07459835,0.2039,-0.0005736507,1.01693
135.918,43.4529,-0.0759,0.20334,-0.0008314257,1.01666
136.618,43.67682,-0.07590165,0.20164,-0.000340397,1.01639
137.318,43.90059,-0.07592627,0.20166,-0.0003882553,1.01611
138.018,44.12488,-0.0769671,0.2097,-0.000470992,1.01584
138.718,44.34885,-0.0772109,0.21042,-0.0007308891,1.01556
139.418,44.57245,-0.07592705,0.20023,-0.0005146851,1.01529
140.118,44.79694,-0.07655999,0.208,-0.0005799118,1.01501
140.818,45.0216,-0.07460208,0.20635,-0.0004438358,1.01472
141.518,45.24615,-0.07794109,0.21585,-0.0002374212,1.01444
142.218,45.46963,-0.07656743,0.2104,-0.0005254846,1.01416
142.918,45.69243,-0.07665807,0.20873,-0.0007043194,1.01387
143.618,45.9159,-0.07788,0.218,-0.0003548485,1.01358
144.318,46.1387,-0.07557985,0.22219,-0.000578856,1.01329
145.018,46.3609,-0.07678903,0.22818,-0.0003348407,1.013
145.718,46.58246,-0.07728292,0.23217,-0.0007960379,1.01271
146.418,46.80431,-0.07722,0.23456,-0.0002885276,1.01242
147.118,47.02762,-0.0772203,0.24985,-0.0004490506,1.01212
147.818,47.25118,-0.07589473,0.25942,-0.0006244936,1.01182
148.518,47.4741,-0.07793204,0.26862,-0.0006551065,1.01152
149.218,47.6972,-0.07589981,0.27828,-0.000708213,1.01122
149.918,47.92017,-0.07859294,0.2834,-0.000421398,1.01092
150.618,48.14393,-0.07723156,0.28101,-0.0005812138,1.01062
151.318,48.36744,-0.07885994,0.27167,-0.0005807694,1.01031
152.018,48.59133,-0.07803039,0.26945,-0.0005725309,1.01
152.718,48.8145,-0.08016724,0.27521,-0.0007729939,1.00969
153.418,49.03753,-0.08018964,0.26782,-0.000664215,1.00938
154.118,49.26,-0.07887022,0.27164,-0.000746815,1.00907
154.818,49.48233,-0.08015658,0.27106,-0.0004558915,1.00876
155.518,49.70499,-0.07888734,0.26701,-0.000197794,1.00844
156.218,49.92784,-0.07950377,0.26516,-0.0007044776,1.00812
156.918,50.15048,-0.07952,0.26463,-0.000536951,1.00781
157.618,50.3725,-0.08090593,0.26728,-0.0006365619,1.00749
158.318,50.59489,-0.07953,0.26838,-9.292061e-05,1.00716
159.018,50.8174,-0.07953,0.26428,-0.0006370955,1.00684
159.718,51.04003,-0.08084,0.27879,-0.0006270408,1.00652
160.418,51.26198,-0.07952001,0.27133,-0.0003855414,1.00619
161.118,51.48446,-0.07952,0.27367,-0.0003041248,1.00586
161.818,51.7066,-0.08083993,0.27205,-0.000157306,1.00553
162.518,51.92832,-0.07955722,0.26885,-0.000391574,1.0052
163.218,52.14927,-0.08084162,0.2688,-0.000109096,1.00487
163.918,52.3698,-0.07951142,0.27201,-0.0001515287,1.00454
164.618,52.5908,-0.0821587,0.28692,-0.000404205,1.0042
165.318,52.8128,-0.08116303,0.29029,-0.0005205534,1.00386
166.018,53.03564,-0.07849147,0.28347,-0.000185401,1.00352
166.718,53.2591,-0.08084,0.29047,-0.0004739712,1.00318
167.418,53.4838,-0.08084,0.29643,-0.0002323804,1.00284
168.118,53.70814,-0.08084,0.28312,-0.0001175003,1.0025
168.818,53.93231,-0.07952878,0.29143,-0.0002153666,1.00215
169.518,54.1545,-0.0815,0.28836,-0.0002634466,1.00181
170.218,54.37738,-0.08148056,0.28771,-0.000212733,1.00146
170.918,54.59955,-0.08018,0.28497,-0.0003163682,1.00111
171.618,54.82192,-0.08150031,0.2834,-0.000809385,1.00076
172.318,55.04446,-0.08154649,0.29247,-0.0003029978,1.00041
173.018,55.26645,-0.08050353,0.29419,-0.000390672,1.00006
173.718,55.48927,-0.08183001,0.28767,-0.000445887,0.9997
174.418,55.71227,-0.08117003,0.287,-0.0007342078,0.99934
175.118,55.9358,-0.08385881,0.29009,-0.0001340909,0.99899
175.818,56.1581,-0.08226731,0.28908,-0.0004716025,0.99863
176.518,56.38032,-0.08193013,0.29486,-0.0005750077,0.99827
177.218,56.60272,-0.08324825,0.29188,-0.0005327025,0.9979
177.918,56.82595,-0.08194,0.29025,-0.000401952,0.99754
178.618,57.0488,-0.08192889,0.29814,-0.0004724075,0.99717
179.318,57.27166,-0.08193,0.30272,-0.0004949915,0.99681
180.018,57.4937,-0.08325043,0.29282,-0.0006145161,0.99644
180.718,57.71581,-0.08193966,0.30554,-0.0005478181,0.99607
181.418,57.9378,-0.08258842,0.30168,2.35503e-06,0.9957
182.118,58.1607,-0.08260269,0.2993,-0.0008977144,0.99533
182.818,58.3834,-0.08293,0.29946,-0.000658323,0.99495
183.518,58.60655,-0.08194169,0.30275,-0.0005296811,0.99458
184.218,58.8294,-0.0835892,0.29989,-0.000357021,0.9942
184.918,59.0517,-0.08360599,0.30308,-0.000579077,0.99382
185.618,59.2735,-0.08225636,0.30348,-0.0006829973,0.99344
186.318,59.4949,-0.08209747,0.29441,-0.00032349,0.99306
187.018,59.7158,-0.08357675,0.29902,-0.0004419425,0.99268
187.718,59.93631,-0.08227,0.29037,-0.000646921,0.9923
188.418,60.1573,-0.08328027,0.29701,-0.0003437221,0.99191
189.118,60.37851,-0.08391025,0.2974,-0.000416483,0.99153
189.818,60.59927,-0.08358,0.29249,-0.0005186252,0.99114
190.518,60.8202,-0.08488082,0.29627,-0.00023046,0.99075
191.218,61.0417,-0.08490002,0.29775,-0.000412784,0.99036
191.918,61.26401,-0.08456998,0.30336,-2.144484e-06,0.98997
192.618,61.48594,-0.08457261,0.29519,-0.00033518,0.98957
193.318,61.70745,-0.08589039,0.30448,-0.000211968,0.98918
194.018,61.92895,-0.08457,0.29944,-1.16373e-05,0.98878
194.718,62.1502,-0.08456022,0.28813,-0.0004006007,0.98838
195.418,62.3709,-0.08456877,0.29511,-0.0004296583,0.98799
196.118,62.5914,-0.08456998,0.29486,-0.0006406322,0.98759
196.818,62.8133,-0.08291997,0.30458,-2.636873e-05,0.98719
197.518,63.0354,-0.08520834,0.30295,-0.000175921,0.98678
198.218,63.2577,-0.08522935,0.30889,-0.000160284,0.98638
198.918,63.4791,-0.08523354,0.30102,0.0001864136,0.98597
199.618,63.70066,-0.08556016,0.30813,-0.0003809464,0.98557
200.318,63.92221,-0.08325,0.30524,-0.0001188497,0.98516
201.018,64.14425,-0.08588999,0.30862,-0.0001180364,0.98475
201.718,64.36629,-0.08456886,0.30788,-0.000201138,0.98434
202.418,64.58839,-0.08489707,0.30703,-0.0001604078,0.98393
203.118,64.8087,-0.08523178,0.3094,-0.0003818239,0.98352
203.818,65.0291,-0.08654,0.30811,0.0001233939,0.9831
204.518,65.24911,-0.0865402,0.31358,-0.0001486571,0.98269
205.218,65.47194,-0.08325,0.3113,-8.90717e-05,0.98227
205.918,65.69495,-0.08522875,0.30799,-5.64724e-05,0.98185
206.618,65.91832,-0.08523,0.31255,-0.0005641714,0.98143
207.318,66.14076,-0.08588034,0.30639,4.107542e-06,0.98101
208.018,66.36331,-0.08391098,0.30534,-0.000745091,0.98059
208.718,66.58541,-0.08391,0.3099,9.702334e-06,0.98017
209.418,66.8074,-0.0852153,0.30502,-0.0001971403,0.97974
210.118,67.0295,-0.08654009,0.31556,-0.0004285575,0.97932
210.818,67.25154,-0.08650833,0.31873,-0.0001589463,0.97889
211.518,67.4731,-0.08459441,0.31598,-0.0001170644,0.97846
212.218,67.69405,-0.08391187,0.31268,0.000576782,0.97803
212.918,67.9153,-0.08386999,0.32364,-0.0001419474,0.9776
213.618,68.1365,-0.08349417,0.32371,-0.0007562435,0.97717
214.318,68.35849,-0.08654911,0.32207,-0.0001641268,0.97674
215.018,68.5798,-0.08424462,0.32024,-0.0002220955,0.9763
215.718,68.801,-0.08424666,0.32016,0.0001309468,0.97587
216.418,69.02211,-0.08588878,0.32562,-0.000257377,0.97543
217.118,69.24305,-0.08446404,0.32156,-0.000277882,0.97499
217.818,69.46406,-0.08446169,0.32278,0.0003337064,0.97455
218.518,69.6855,-0.08577,0.31848,-0.0002427672,0.97411
219.218,69.90733,-0.08608921,0.32298,6.552324e-05,0.97367
219.918,70.12918,-0.08610996,0.3269,-0.0004178813,0.97323
220.618,70.35016,-0.08483858,0.33578,0.0001612,0.97279
221.318,70.5713,-0.0853252,0.32888,0.0002231255,0.97234
222.018,70.79275,-0.08611037,0.32986,-0.00064557,0.97189
222.718,71.01438,-0.08578,0.31784,8.536678e-05,0.97145
223.418,71.2359,-0.08608468,0.33006,1.793936e-05,0.971
224.118,71.45697,-0.08467993,0.32782,0.0003562403,0.97055
224.818,71.6784,-0.08599501,0.33379,-0.0001658519,0.9701
225.518,71.89954,-0.08598994,0.3255,-0.0002581299,0.96965
226.218,72.12093,-0.08337327,0.33971,0.000172576,0.96919
226.918,72.34235,-0.08753237,0.32502,2.609817e-05,0.96874
227.618,72.56361,-0.08722582,0.32472,-1.17108e-05,0.96828
228.318,72.78528,-0.08628685,0.33376,-0.0007587964,0.96783
229.018,73.00713,-0.08533222,0.33162,0.0004211818,0.96737
229.718,73.2294,-0.08601811,0.33702,0.0001880748,0.96691
230.418,73.45144,-0.08746341,0.33581,0.0002781072,0.96645
231.118,73.6729,-0.08627631,0.34257,0.00011372,0.96599
231.818,73.89455,-0.08303451,0.33653,-1.09392e-05,0.96553
232.518,74.11569,-0.08435013,0.3434,-0.000237283,0.96507
233.218,74.33735,-0.08668707,0.34149,-8.44974e-05,0.9646
233.918,74.55874,-0.08482127,0.33857,-0.0007961732,0.96414
234.618,74.78067,-0.08655941,0.35067,-8.454211e-05,0.96367
235.318,75.00247,-0.0853851,0.34502,0.0003092377,0.9632
236.018,75.2243,-0.08541491,0.3427,0.0004455439,0.96274
236.718,75.44579,-0.08483438,0.34339,-0.0002910851,0.96227
237.418,75.66718,-0.08577979,0.33012,-0.0003055706,0.9618
238.118,75.88863,-0.08606336,0.35288,0.000683549,0.96132
238.818,76.11021,-0.08444337,0.3392,-0.000424534,0.96085
239.518,76.3315,-0.08589287,0.33319,-0.000369712,0.96038
240.218,76.5536,-0.08783498,0.33188,0.0002174029,0.9599
240.918,76.77516,-0.08664321,0.34218,0.0001702281,0.95943
241.618,76.9976,-0.08534012,0.33743,3.941919e-05,0.95895
242.318,77.21941,-0.08589255,0.33728,-0.0004497648,0.95847
243.018,77.44105,-0.08457001,0.34146,-8.939732e-05,0.95799
243.718,77.66248,-0.08521999,0.3493,0.0006022604,0.95751
244.418,77.8845,-0.08521635,0.3508,0.0006946666,0.95703
245.118,78.1066,-0.08585679,0.33803,-0.0005198751,0.95655
245.818,78.3287,-0.08457,0.34141,-3.419429e-05,0.95607
246.518,78.54972,-0.08587994,0.34649,5.24968e-05,0.95558
247.218,78.77095,-0.08671831,0.34565,-0.000403127,0.9551
247.918,78.9926,-0.0867189,0.33709,-0.0003309424,0.95461
248.618,79.21471,-0.08582215,0.33659,-0.0001258608,0.95413
249.318,79.43711,-0.08612552,0.32956,-5.11976e-05,0.95364
250.018,79.65907,-0.08544988,0.34421,0.0003508248,0.95315
250.718,79.88115,-0.08609895,0.34841,-0.0004695721,0.95266
251.418,80.10268,-0.08341884,0.331,-0.0005320208,0.95217
252.118,80.324,-0.08479022,0.33666,-0.0006418645,0.95168
252.818,80.54512,-0.08612561,0.34098,-1.135021e-05,0.95118
253.518,80.76631,-0.08808657,0.33758,-0.0001695586,0.95069
254.218,80.98801,-0.08412843,0.34181,-8.759392e-05,0.95019
254.918,81.21,-0.08616943,0.33855,0.000578433,0.9497
255.618,81.43186,-0.08775265,0.34165,0.000149903,0.9492
256.318,81.65388,-0.08599002,0.339,-0.0008449578,0.9487
257.018,81.87614,-0.08775656,0.3459,-4.275674e-05,0.94821
257.718,82.09862,-0.0863199,0.35336,0.0002093222,0.94771
258.418,82.32088,-0.08567006,0.33973,0.0002805845,0.94721
259.118,82.5437,-0.08730884,0.34921,-0.0003238186,0.9467
259.818,82.767,-0.08731001,0.3451,-0.0008451397,0.9462
260.518,82.98958,-0.08730997,0.33213,-0.0002964532,0.9457
261.218,83.2107,-0.08357799,0.35146,-0.000186155,0.9452
261.918,83.4323,-0.08574605,0.34928,0.0001239767,0.94469
262.618,83.65465,-0.08468,0.3481,-0.000830833,0.94418
263.318,83.8779,-0.08466904,0.34207,-0.000356641,0.94368
264.018,84.09982,-0.0846998,0.35409,0.00017536,0.94317
264.718,84.32064,-0.08634412,0.35716,-0.0001273138,0.94266
265.418,84.5422,-0.08566013,0.34832,5.480899e-05,0.94215
266.118,84.76386,-0.08560502,0.33813,-0.0005203883,0.94164
266.818,84.98639,-0.08802239,0.34711,0.000273398,0.94113
267.518,85.20857,-0.08567148,0.34823,0.000295354,0.94062
268.218,85.4311,-0.08665,0.35011,0.000534952,0.94011
268.918,85.65311,-0.08385582,0.351,0.00011493,0.93959
269.618,85.87536,-0.08697998,0.35154,-0.0005638786,0.93908
270.318,86.09716,-0.08808079,0.36801,-0.00028126,0.93856
271.018,86.3193,-0.08807917,0.35466,-0.000700449,0.93805
271.718,86.5415,-0.08845533,0.36449,0.0002961285,0.93753
272.418,86.76462,-0.08709003,0.35319,0.0002229237,0.93701
273.118,86.988,-0.08577002,0.35903,-0.0003003633,0.93649
273.818,87.2117,-0.08840478,0.35556,-0.0004751003,0.93597
274.518,87.43449,-0.08841504,0.36428,-0.000204059,0.93545
275.218,87.65808,-0.08598586,0.36414,-0.0001287766,0.93493
275.918,87.8804,-0.08402988,0.35592,-0.000326515,0.93441
276.618,88.10418,-0.08638004,0.35727,-0.00043764,0.93388
277.318,88.32655,-0.08524371,0.36207,-6.859291e-05,0.93336
278.018,88.54951,-0.08917845,0.36622,-5.920219e-05,0.93284
278.718,88.77253,-0.08859119,0.35738,0.000136149,0.93231
279.418,88.99606,-0.08603981,0.35254,0.0004948204,0.93178
280.118,89.21945,-0.08722309,0.36061,-0.0001493108,0.93126
280.818,89.4423,-0.08752816,0.36293,0.000285608,0.93073
281.518,89.6649,-0.0862117,0.35307,1.670698e-05,0.9302
282.218,89.88786,-0.08824841,0.35783,0.0003637698,0.92967
282.918,90.1105,-0.08721003,0.35277,-7.5778e-05,0.92914
283.618,90.33326,-0.08852,0.36371,-0.0001787047,0.92861
284.318,90.5561,-0.08770636,0.35805,1.827311e-05,0.92808
285.018,90.77955,-0.08750705,0.35313,-0.0001308166,0.92755
285.718,91.00277,-0.08521832,0.35125,0.000335878,0.92701
286.418,91.22598,-0.08783191,0.35372,-0.0001642558,0.92648
287.118,91.44906,-0.08686987,0.35343,0.000844628,0.92595
287.818,91.67179,-0.08687,0.35161,-0.000549298,0.92541
288.518,91.8944,-0.08649965,0.36524,-2.634718e-05,0.92488
289.218,92.1165,-0.08555,0.36764,7.956397e-05,0.92434
289.918,92.33824,-0.08650602,0.35077,8.847795e-05,0.9238
290.618,92.56035,-0.08785953,0.36761,-0.000338926,0.92326
291.318,92.78276,-0.08559093,0.37061,0.0003742553,0.92272
292.018,93.00625,-0.08587999,0.35926,-2.817084e-07,0.92218
292.718,93.22962,-0.08457109,0.34563,6.82179e-05,0.92164
293.418,93.45303,-0.08555437,0.35607,-0.000418583,0.9211
294.118,93.67586,-0.08849011,0.35691,-0.0004068249,0.92056
294.818,93.89862,-0.08174126,0.36085,-0.0001675098,0.92002
295.518,94.1215,-0.08576961,0.36708,-0.0006495966,0.91948
296.218,94.34384,-0.0872218,0.36265,0.0001533,0.91893
296.918,94.5671,-0.08609937,0.36049,-0.000794628,0.91839
297.618,94.7902,-0.08600893,0.35959,-0.0005952164,0.91784
298.318,95.01473,-0.08692311,0.3703,-0.000469085,0.9173
299.018,95.2377,-0.0871999,0.37412,-0.0001976952,0.91675
299.718,95.46166,-0.08855591,0.36206,-0.0004702731,0.9162
300.418,95.6853,-0.08578252,0.36526,-0.000692687,0.91565
301.118,95.91022,-0.08588014,0.36814,-0.0008536286,0.91511
301.818,96.13422,-0.08858338,0.36713,-0.000109217,0.91456
302.518,96.35778,-0.08763984,0.37134,-0.00072486,0.91401
303.218,96.5818,-0.09026999,0.37142,-0.0009725067,0.91346
303.918,96.80549,-0.08580632,0.36425,-0.000602798,0.91291
304.618,97.03021,-0.0895127,0.3637,-0.00072994,0.91235
305.318,97.25437,-0.08961,0.37557,-0.0008366442,0.9118
306.018,97.47802,-0.08697755,0.37343,-0.0004523313,0.91125
306.718,97.7018,-0.08967414,0.37765,-0.0002552753,0.9107
307.418,97.92506,-0.08952968,0.37929,-0.000698612,0.91014
308.118,98.1492,-0.08785771,0.38752,-0.0006748057,0.90959
308.818,98.37289,-0.08909877,0.3902,-0.001210941,0.90903
309.518,98.59715,-0.08857639,0.38778,-0.0002282273,0.90847
310.218,98.82125,-0.0890483,0.38487,-0.0006285422,0.90792
310.918,99.04557,-0.09039,0.38058,-0.0004400855,0.90736
311.618,99.26935,-0.08940059,0.39453,-0.0006125958,0.9068
312.318,99.49413,-0.09098095,0.39484,-0.0005199238,0.90625
313.018,99.71829,-0.09201819,0.38006,-0.0003159765,0.90569
313.718,99.943,-0.09060508,0.38948,-0.0007599933,0.90513
314.418,100.167,-0.08839477,0.39604,-0.0003918761,0.90457
315.118,100.391,-0.09111488,0.38845,-0.0006999378,0.90401
315.818,100.614,-0.09095043,0.38602,-0.0006849305,0.90344
316.518,100.838,-0.0910409,0.38086,-0.000397189,0.90288
317.218,101.061,-0.09104006,0.38258,-0.0006556557,0.90232
317.918,101.286,-0.09104,0.37072,-0.0009114123,0.90176
318.618,101.509,-0.09037795,0.37161,-0.0006335803,0.90119
319.318,101.733,-0.09019476,0.38063,-0.0006487206,0.90063
320.018,101.957,-0.09136961,0.39026,-0.0008437346,0.90007
320.718,102.182,-0.09071,0.38985,-0.0006357095,0.8995
321.418,102.406,-0.09178863,0.37869,-0.0008996682,0.89894
322.118,102.631,-0.08932068,0.37651,-0.00109869,0.89837
322.818,102.855,-0.09209176,0.38305,-0.0009349393,0.8978
323.518,103.08,-0.09235,0.39711,-9.26031e-05,0.89724
324.218,103.3031,-0.09235,0.38982,-0.000617028,0.89667
324.918,103.5274,-0.09234481,0.40157,-0.0001184794,0.8961
325.618,103.752,-0.09400304,0.39629,-0.00108358,0.89553
326.318,103.976,-0.09235009,0.4115,-0.0001814106,0.89496
327.018,104.201,-0.09366863,0.40381,-0.0009552717,0.89439
327.718,104.426,-0.09499,0.40514,-0.000800049,0.89382
328.418,104.651,-0.09490105,0.40397,-0.000772979,0.89325
329.118,104.875,-0.094,0.39793,-0.0005112553,0.89268
329.818,105.1,-0.09532023,0.4059,-0.0004938704,0.89211
330.518,105.325,-0.09465832,0.39977,-0.0004766978,0.89154
331.218,105.55,-0.09335222,0.40058,-0.0006281214,0.89097
331.918,105.774,-0.09366867,0.40413,-0.0006888406,0.89039
332.618,105.999,-0.09301,0.39633,-0.000754647,0.88982
333.318,106.224,-0.09530282,0.40448,-0.001019442,0.88925
334.018,106.449,-0.0939001,0.39565,-0.000685119,0.88867
334.718,106.674,-0.09389098,0.39061,-0.0004236418,0.8881
335.418,106.898,-0.09552152,0.39253,-0.0006417824,0.88752
336.118,107.122,-0.09554006,0.40002,-0.0004285724,0.88695
336.818,107.346,-0.09455238,0.39872,-0.0005603959,0.88637
337.518,107.5696,-0.0951721,0.39456,-0.0007532595,0.88579
338.218,107.795,-0.09290258,0.39662,-0.00101148,0.88522
338.918,108.022,-0.09554,0.39456,-0.001137185,0.88464
339.618,108.2488,-0.09616269,0.40637,-0.0009508781,0.88406
340.318,108.475,-0.09583683,0.40114,-0.000889033,0.88348
341.018,108.699,-0.09750994,0.40189,-0.000946677,0.8829
341.718,108.924,-0.09702608,0.41015,-0.0007863272,0.88233
342.418,109.149,-0.09553998,0.41617,-0.001013886,0.88175
343.118,109.375,-0.09588373,0.41305,-0.0006160531,0.88117
343.818,109.6,-0.09747978,0.41448,-0.0009017442,0.88059
344.518,109.8257,-0.09685376,0.40697,-0.001344753,0.88001
345.218,110.05,-0.09651841,0.40348,-0.001029232,0.87943
345.918,110.276,-0.09836536,0.41097,-0.001345256,0.87884
346.618,110.5009,-0.10016,0.41057,-0.001035744,0.87826
347.318,110.727,-0.09981861,0.4095,-0.00154599,0.87768
348.018,110.9538,-0.09783995,0.4233,-0.00122309,0.8771
348.718,111.18,-0.09685074,0.41171,-0.001166269,0.87652
349.418,111.4057,-0.09916001,0.40686,-0.000649197,0.87593
350.118,111.6314,-0.09952089,0.40496,-0.00169895,0.87535
350.818,111.857,-0.09817079,0.41361,-0.001071541,0.87477
351.518,112.084,-0.1008,0.40487,-0.000326172,0.87418
352.218,112.31,-0.10212,0.40036,-0.0011057,0.8736
352.918,112.537,-0.1008,0.40261,-0.0004607211,0.87301
353.618,112.763,-0.10209,0.41045,-0.0001503131,0.87243
354.318,112.989,-0.1008,0.40159,8.61365e-05,0.87184
355.018,113.2156,-0.10344,0.41893,-0.0003030076,0.87126
355.718,113.442,-0.10212,0.4103,-0.0005629743,0.87067
356.418,113.6682,-0.10206,0.40554,-0.0009967882,0.87008
357.118,113.894,-0.10353,0.41866,-0.0005028107,0.8695
357.818,114.1203,-0.10344,0.42146,0.0001848318,0.86891
358.518,114.347,-0.10212,0.41281,-0.00077465,0.86832
359.218,114.573,-0.10104,0.39602,-0.0007290902,0.86773
359.918,114.801,-0.09980115,0.40557,-0.000403115,0.86715
360.618,115.028,-0.09995586,0.41967,-0.001180928,0.86656
361.318,115.255,-0.09944219,0.42026,-0.001149586,0.86597
362.018,115.482,-0.09905,0.4163,-0.001182763,0.86538
362.718,115.709,-0.09904635,0.4121,-0.000574887,0.86479
363.418,115.936,-0.0996995,0.4139,-0.001511036,0.8642
364.118,116.162,-0.10253,0.42693,-0.00150259,0.86361
364.818,116.389,-0.10113,0.4235,-0.0010081,0.86302
365.518,116.616,-0.10049,0.42332,-0.001249026,0.86243
366.218,116.843,-0.10156,0.42518,-0.001665315,0.86184
366.918,117.069,-0.10354,0.42515,-0.002054065,0.86125
367.618,117.295,-0.1032,0.4239,-0.00223287,0.86066
368.318,117.522,-0.10665,0.41738,-0.001630867,0.86007
369.018,117.748,-0.10552,0.4116,-0.002829928,0.85948
369.718,117.974,-0.10815,0.41347,-0.00289628,0.85889
370.418,118.2,-0.10552,0.42488,-0.002800295,0.85829
371.118,118.427,-0.1096,0.43276,-0.002768537,0.8577
371.818,118.654,-0.10958,0.42032,-0.0023601,0.85711
372.518,118.88,-0.10859,0.42586,-0.00291858,0.85652
373.218,119.107,-0.10892,0.4221,-0.002944606,0.85592
373.918,119.333,-0.11024,0.43001,-0.00249842,0.85533
374.618,119.56,-0.11122,0.43573,-0.00234171,0.85474
375.318,119.787,-0.11123,0.421,-0.002473645,0.85415
376.018,120.013,-0.11123,0.41542,-0.001944089,0.85355
376.718,120.24,-0.11385,0.42871,-0.00161657,0.85296
377.418,120.467,-0.11387,0.42919,-0.00172916,0.85236
378.118,120.694,-0.1149,0.43481,-0.002328946,0.85177
378.818,120.921,-0.11385,0.42937,-0.001899,0.85118
379.518,121.1482,-0.11417,0.43489,-0.001475261,0.85058
380.218,121.375,-0.11475,0.43536,-0.002133447,0.84999
380.918,121.603,-0.11649,0.43352,-0.002180934,0.84939
381.618,121.831,-0.11506,0.43721,-0.002202949,0.8488
382.318,122.059,-0.11528,0.44609,-0.002148681,0.8482
383.018,122.287,-0.11378,0.45413,-0.002631932,0.84761
383.718,122.516,-0.11528,0.43928,-0.002367162,0.84701
384.418,122.744,-0.11471,0.45236,-0.001926733,0.84641
385.118,122.9716,-0.11686,0.45349,-0.002175291,0.84582
385.818,123.199,-0.11869,0.46381,-0.002459126,0.84522
386.518,123.4263,-0.11605,0.45854,-0.002243626,0.84463
387.218,123.654,-0.11869,0.46014,-0.002654821,0.84403
387.918,123.883,-0.11838,0.47186,-0.002515245,0.84343
388.618,124.111,-0.11967,0.45793,-0.001946737,0.84284
389.318,124.339,-0.12362,0.47199,-0.002796737,0.84224
390.018,124.567,-0.12223,0.4813,-0.00306686,0.84164
390.718,124.794,-0.12389,0.4797,-0.00257727,0.84105
391.418,125.022,-0.12356,0.45685,-0.00324173,0.84045
392.118,125.249,-0.12351,0.46398,-0.003376239,0.83985
392.818,125.477,-0.12373,0.46127,-0.00378902,0.83925
393.518,125.704,-0.12442,0.46499,-0.003244188,0.83866
394.218,125.931,-0.12603,0.46494,-0.0034428,0.83806
394.918,126.159,-0.12767,0.46185,-0.00375717,0.83746
395.618,126.387,-0.12636,0.4495,-0.003618347,0.83686
396.318,126.616,-0.12625,0.45005,-0.004100212,0.83627
397.018,126.843,-0.12899,0.45319,-0.003532584,0.83567
397.718,127.071,-0.13121,0.45438,-0.004145375,0.83507
398.418,127.299,-0.12987,0.46248,-0.004156776,0.83447
399.118,127.527,-0.12905,0.45061,-0.003795019,0.83387
399.818,127.7553,-0.13272,0.45743,-0.004285191,0.83328
400.518,127.984,-0.13404,0.46194,-0.004589158,0.83268
401.218,128.212,-0.13335,0.45373,-0.005058949,0.83208
401.918,128.441,-0.13437,0.45487,-0.004492771,0.83148
402.618,128.67,-0.13568,0.44186,-0.00546746,0.83088
403.318,128.898,-0.137,0.45638,-0.00542331,0.83028
404.018,129.126,-0.13931,0.44645,-0.006210979,0.82969
404.718,129.354,-0.14062,0.45312,-0.006554386,0.82909
405.418,129.582,-0.14064,0.44713,-0.005916291,0.82849
406.118,129.81,-0.14302,0.44126,-0.0070113,0.82789
406.818,130.039,-0.14325,0.42877,-0.00760964,0.82729
407.518,130.2684,-0.14589,0.41808,-0.00736946,0.82669
408.218,130.497,-0.14509,0.41563,-0.007925465,0.82609
408.918,130.726,-0.14908,0.40899,-0.008658245,0.82549
409.618,130.955,-0.14967,0.42002,-0.009101484,0.82489
410.318,131.183,-0.15439,0.42219,-0.0096885,0.8243
411.018,131.411,-0.15378,0.41013,-0.00997394,0.8237
411.718,131.639,-0.15586,0.42274,-0.01047203,0.8231
412.418,131.867,-0.16113,0.41212,-0.01061777,0.8225
413.118,132.095,-0.16009,0.40778,-0.01213066,0.8219
413.818,132.323,-0.1655,0.40596,-0.01247083,0.8213
414.518,132.552,-0.16727,0.3859,-0.01401205,0.8207
415.218,132.782,-0.16982,0.39683,-0.01372393,0.8201
415.918,133.012,-0.17374,0.39724,-0.0147039,0.8195
416.618,133.2405,-0.17615,0.39684,-0.01529514,0.81891
417.318,133.469,-0.18043,0.40089,-0.01642496,0.81831
418.018,133.698,-0.18406,0.41529,-0.01735209,0.81771
418.718,133.927,-0.18734,0.40946,-0.01813248,0.81711
419.418,134.156,-0.1913,0.40369,-0.01884398,0.81651
420.118,134.3858,-0.19391,0.41009,-0.01948303,0.81591
420.818,134.615,-0.2013,0.41574,-0.02094776,0.81531
421.518,134.845,-0.20632,0.42352,-0.02184384,0.81471
422.218,135.075,-0.21459,0.42463,-0.02305431,0.81412
422.918,135.305,-0.21586,0.4146,-0.02476027,0.81352
423.618,135.534,-0.22151,0.41957,-0.02545819,0.81292
424.318,135.763,-0.22572,0.42063,-0.02710421,0.81232
425.018,135.993,-0.2335,0.41617,-0.0284245,0.81172
425.718,136.222,-0.24028,0.42544,-0.02925317,0.81112
426.418,136.4515,-0.24691,0.43067,-0.0317678,0.81052
427.118,136.681,-0.25128,0.42611,-0.03273464,0.80993
427.818,136.911,-0.2587,0.43033,-0.03459945,0.80933
428.518,137.141,-0.26698,0.42717,-0.03571124,0.80873
429.218,137.37,-0.27638,0.41968,-0.03708443,0.80813
429.918,137.6,-0.28389,0.43344,-0.03870968,0.80753
430.618,137.831,-0.29496,0.43607,-0.04060086,0.80694
431.318,138.061,-0.30236,0.43071,-0.04322704,0.80634
432.018,138.291,-0.31267,0.4374,-0.04429301,0.80574
432.718,138.521,-0.32501,0.44464,-0.04642846,0.80514
433.418,138.75,-0.33181,0.43409,-0.04783744,0.80454
434.118,138.98,-0.34867,0.45071,-0.04988453,0.80395
434.818,139.211,-0.35679,0.45842,-0.05244845,0.80335
435.518,139.441,-0.36919,0.45871,-0.05440374,0.80275
436.218,139.671,-0.38101,0.46259,-0.05562691,0.80216
436.918,139.902,-0.3942,0.45815,-0.05810107,0.80156
437.618,140.132,-0.40901,0.47949,-0.05981473,0.80096
438.318,140.362,-0.42186,0.47608,-0.06172303,0.80036
439.018,140.5923,-0.43868,0.4886,-0.06377698,0.79977
439.718,140.822,-0.44871,0.48729,-0.06626937,0.79917
440.418,141.053,-0.46908,0.50155,-0.06754224,0.79858
441.118,141.283,-0.48197,0.50507,-0.07055149,0.79798
441.818,141.513,-0.49875,0.51304,-0.07171009,0.79738
442.518,141.743,-0.51723,0.53068,-0.07389942,0.79679
443.218,141.972,-0.53527,0.51363,-0.07636717,0.79619
443.918,142.202,-0.54817,0.53296,-0.0779319,0.79559
444.618,142.433,-0.57129,0.53233,-0.08060435,0.795
445.318,142.663,-0.58688,0.55527,-0.08254576,0.7944
446.018,142.894,-0.60778,0.566,-0.08394986,0.79381
446.718,143.125,-0.62576,0.56841,-0.08697233,0.79321
447.418,143.3573,-0.64779,0.57977,-0.08911697,0.79262
448.118,143.59,-0.66847,0.58343,-0.09016113,0.79202
448.818,143.821,-0.68982,0.59892,-0.09288997,0.79143
449.518,144.0524,-0.71113,0.5948,-0.09437575,0.79083
450.218,144.283,-0.73294,0.61176,-0.09699921,0.79024
450.918,144.513,-0.75542,0.60999,-0.09802393,0.78965
451.618,144.743,-0.7765,0.60286,-0.10143,0.78905
452.318,144.973,-0.80302,0.61093,-0.10215,0.78846
453.018,145.203,-0.82774,0.61604,-0.10459,0.78786
453.718,145.434,-0.84751,0.60834,-0.10637,0.78727
454.418,145.666,-0.87882,0.62735,-0.10861,0.78668
455.118,145.898,-0.90111,0.63822,-0.1107,0.78608
455.818,146.13,-0.92746,0.63768,-0.1126,0.78549
456.518,146.363,-0.95331,0.64172,-0.11498,0.7849
457.218,146.594,-0.97894,0.64983,-0.11718,0.78431
457.918,146.826,-1.00973,0.65846,-0.11917,0.78371
458.618,147.056,-1.03254,0.65784,-0.12134,0.78312
459.318,147.2863,-1.06402,0.67008,-0.12371,0.78253
460.018,147.5169,-1.09016,0.66506,-0.1251,0.78194
460.718,147.748,-1.12007,0.65631,-0.12719,0.78135
461.418,147.979,-1.14979,0.64231,-0.1304,0.78076
462.118,148.21,-1.17834,0.66189,-0.131,0.78017
462.818,148.441,-1.21141,0.66705,-0.13366,0.77957
463.518,148.673,-1.24137,0.66099,-0.13608,0.77898
464.218,148.904,-1.27354,0.66307,-0.1385,0.77839
464.918,149.135,-1.30728,0.6762,-0.14079,0.7778
465.618,149.367,-1.33954,0.66794,-0.14209,0.77721
466.318,149.6,-1.37107,0.67891,-0.14504,0.77662
467.018,149.832,-1.40686,0.67999,-0.1465,0.77604
467.718,150.0629,-1.43971,0.66772,-0.1494,0.77545
468.418,150.293,-1.47532,0.68332,-0.15168,0.77486
469.118,150.523,-1.51154,0.67338,-0.15331,0.77427
469.818,150.7551,-1.54453,0.6573,-0.15521,0.77368
470.518,150.9871,-1.58173,0.66589,-0.15679,0.77309
471.218,151.22,-1.61942,0.66947,-0.15866,0.7725
471.918,151.454,-1.65912,0.66687,-0.16009,0.77192
472.618,151.686,-1.69679,0.66664,-0.16143,0.77133
473.318,151.918,-1.7338,0.64812,-0.16304,0.77074
474.018,152.151,-1.77217,0.6448,-0.16468,0.77016
474.718,152.383,-1.81089,0.65697,-0.1654,0.76957
475.418,152.615,-1.85317,0.65476,-0.16647,0.76898
476.118,152.847,-1.89404,0.66832,-0.16674,0.7684
476.818,153.08,-1.93122,0.67585,-0.1668,0.76781
477.518,153.312,-1.97125,0.64647,-0.16742,0.76723
478.218,153.544,-2.01132,0.61455,-0.16753,0.76664
478.918,153.776,-2.05071,0.6157,-0.16652,0.76606
479.618,154.007,-2.0905,0.62583,-0.16557,0.76547
480.318,154.238,-2.13099,0.60849,-0.16451,0.76489
481.018,154.47,-2.17102,0.59906,-0.16353,0.7643
481.718,154.704,-2.21242,0.58678,-0.1619,0.76372
482.418,154.937,-2.25026,0.57984,-0.15969,0.76314
483.118,155.17,-2.29067,0.54636,-0.15657,0.76256
483.818,155.402,-2.32721,0.52541,-0.15415,0.76197
484.518,155.634,-2.36412,0.51046,-0.1512,0.76139
485.218,155.866,-2.3999,0.50526,-0.14847,0.76081
485.918,156.097,-2.43778,0.473,-0.14432,0.76023
486.618,156.329,-2.47032,0.45103,-0.14035,0.75965
487.318,156.561,-2.50469,0.4264,-0.13647,0.75906
488.018,156.793,-2.53694,0.40286,-0.13166,0.75848
488.718,157.026,-2.5684,0.37141,-0.12673,0.7579
489.418,157.259,-2.59896,0.34725,-0.12231,0.75732
490.118,157.491,-2.62662,0.32853,-0.11752,0.75674
490.818,157.723,-2.65242,0.29526,-0.11195,0.75616
491.518,157.9543,-2.68103,0.26772,-0.10719,0.75559
492.218,158.186,-2.70376,0.24387,-0.10185,0.75501
492.918,158.419,-2.72969,0.22153,-0.09700645,0.75443
493.618,158.651,-2.7486,0.20277,-0.09155391,0.75385
494.318,158.883,-2.76761,0.17831,-0.08676336,0.75327
495.018,159.115,-2.78793,0.14937,-0.08112594,0.7527
495.718,159.347,-2.80394,0.14392,-0.0767776,0.75212
496.418,159.579,-2.81851,0.1138,-0.07175773,0.75154
497.118,159.812,-2.83693,0.10358,-0.06695887,0.75097
497.818,160.045,-2.85039,0.07790231,-0.06289682,0.75039
498.518,160.278,-2.86219,0.05864244,-0.05876073,0.74981
499.218,160.51,-2.87426,0.05206414,-0.0543645,0.74924
499.918,160.743,-2.88379,0.03626605,-0.05092323,0.74866
500.618,160.976,-2.89535,0.03043239,-0.04641223,0.74809
501.318,161.21,-2.90569,0.02219543,-0.04390398,0.74752
502.018,161.444,-2.91426,0.01400056,-0.04047331,0.74694
502.718,161.678,-2.91896,0.01154596,-0.0374212,0.74637
503.418,161.912,-2.9291,-0.00730008,-0.03513724,0.7458
504.118,162.145,-2.93554,-0.01814138,-0.03289544,0.74522
504.818,162.377,-2.94134,-0.01624419,-0.03040807,0.74465
505.518,162.61,-2.94797,-0.02845271,-0.02826935,0.74408
506.218,162.844,-2.95333,-0.05538682,-0.02651466,0.74351
506.918,163.078,-2.9589,-0.04379686,-0.02455955,0.74294
507.618,163.312,-2.96414,-0.05461581,-0.02306409,0.74237
508.318,163.546,-2.96691,-0.04959774,-0.02166011,0.7418
509.018,163.78,-2.97327,-0.04217233,-0.02023233,0.74123
509.718,164.014,-2.97484,-0.0411826,-0.01915591,0.74066
510.418,164.247,-2.97993,-0.04663171,-0.01864683,0.74009
511.118,164.479,-2.98456,-0.05778186,-0.01685702,0.73952
511.818,164.712,-2.98818,-0.05068882,-0.01626803,0.73895
512.518,164.944,-2.99382,-0.06003352,-0.01582319,0.73839
513.218,165.177,-2.99621,-0.04636882,-0.01482268,0.73782
513.918,165.411,-2.99863,-0.04578573,-0.01401328,0.73725
514.618,165.647,-3.00099,-0.06148027,-0.01345923,0.73668
515.318,165.882,-3.00296,-0.07109905,-0.01280119,0.73612
516.018,166.116,-3.00628,-0.06926934,-0.01294204,0.73555
516.718,166.3505,-3.00956,-0.06707432,-0.01199785,0.73499
517.418,166.583,-3.01177,-0.08407429,-0.01169862,0.73442
518.118,166.817,-3.01473,-0.07734756,-0.01133207,0.73386
518.818,167.051,-3.01588,-0.06122048,-0.01094454,0.7333
519.518,167.286,-3.01879,-0.06382979,-0.0107598,0.73273
520.218,167.52,-3.02285,-0.05299932,-0.009810479,0.73217
520.918,167.754,-3.02454,-0.07096561,-0.009632164,0.73161
521.618,167.988,-3.02592,-0.05102205,-0.009350535,0.73104
522.318,168.222,-3.02689,-0.0667986,-0.009318688,0.73048
523.018,168.459,-3.02986,-0.07829144,-0.00906202,0.72992
523.718,168.6957,-3.03324,-0.06669691,-0.009143843,0.72936
524.418,168.932,-3.03458,-0.06725433,-0.00845527,0.7288
525.118,169.166,-3.03557,-0.06296795,-0.008185162,0.72824
525.818,169.4001,-3.03795,-0.08473514,-0.00847525,0.72768
526.518,169.634,-3.04116,-0.09939906,-0.008579934,0.72712
527.218,169.868,-3.04289,-0.09267524,-0.008088669,0.72656
527.918,170.102,-3.04392,-0.08628904,-0.00735662,0.72601
528.618,170.336,-3.04639,-0.08843583,-0.00767477,0.72545
529.318,170.57,-3.04645,-0.09489755,-0.00760155,0.72489
530.018,170.804,-3.04906,-0.07610102,-0.00784579,0.72433
530.718,171.039,-3.05037,-0.09174848,-0.007418598,0.72378
531.418,171.274,-3.05311,-0.08172399,-0.00673832,0.72322
532.118,171.509,-3.05443,-0.08191691,-0.006738303,0.72267
532.818,171.743,-3.05443,-0.07574397,-0.007374595,0.72211
533.518,171.978,-3.05884,-0.07045894,-0.006844607,0.72156
534.218,172.212,-3.06014,-0.07296804,-0.0068334,0.721
534.918,172.446,-3.06151,-0.0957358,-0.006861931,0.72045
535.618,172.681,-3.06145,-0.07361297,-0.00662824,0.7199
536.318,172.916,-3.06277,-0.07600188,-0.006580935,0.71935
537.018,173.151,-3.06498,-0.08802839,-0.0066548,0.71879
537.718,173.386,-3.06737,-0.08472084,-0.006691666,0.71824
538.418,173.62,-3.06737,-0.1008,-0.00656026,0.71769
539.118,173.854,-3.06803,-0.08906548,-0.006480652,0.71714
539.818,174.089,-3.06934,-0.09081505,-0.006313187,0.71659
540.518,174.323,-3.0733,-0.09433282,-0.00682875,0.71604
541.218,174.557,-3.07326,-0.0920358,-0.00622883,0.71549
541.918,174.791,-3.07648,-0.09595695,-0.00639064,0.71494
542.618,175.027,-3.07724,-0.09700962,-0.006404515,0.7144
543.318,175.264,-3.07879,-0.0912136,-0.006213025,0.71385
544.018,175.5,-3.07999,-0.06266551,-0.006252985,0.7133
544.718,175.735,-3.08243,-0.06501061,-0.006143474,0.71276
545.418,175.97,-3.08262,-0.05843506,-0.005780492,0.71221
546.118,176.205,-3.08404,-0.05510905,-0.006295598,0.71166
546.818,176.44,-3.08625,-0.03570893,-0.006600255,0.71112
547.518,176.675,-3.08667,-0.04306554,-0.006445322,0.71058
548.218,176.91,-3.08964,-0.04316939,-0.00570724,0.71003
548.918,177.145,-3.09063,-0.03164703,-0.005893631,0.70949
549.618,177.379,-3.09293,-0.04424071,-0.00540505,0.70895
550.318,177.615,-3.09335,-0.05879535,-0.005618225,0.7084
551.018,177.85,-3.09329,-0.05153183,-0.00556293,0.70786
551.718,178.085,-3.09523,-0.05996291,-0.005483124,0.70732
552.418,178.319,-3.09656,-0.04638393,-0.00532415,0.70678
553.118,178.553,-3.09717,-0.05706014,-0.005599071,0.70624
553.818,178.787,-3.10017,-0.05635044,-0.00546722,0.7057
554.518,179.022,-3.10183,-0.05210889,-0.005563066,0.70516
555.218,179.258,-3.10313,-0.06142393,-0.00539897,0.70462
555.918,179.494,-3.10351,-0.06174833,-0.005133117,0.70408
556.618,179.729,-3.10478,-0.04312594,-0.00499609,0.70355
557.318,179.964,-3.1048,-0.05574954,-0.00502776,0.70301
558.018,180.2003,-3.10609,-0.05132718,-0.005090832,0.70247
558.718,180.437,-3.1082,-0.05435424,-0.004981086,0.70194
559.418,180.674,-3.10874,-0.05229223,-0.005007954,0.7014
560.118,180.91,-3.11005,-0.05707786,-0.0045344,0.70087
560.818,181.145,-3.11286,-0.06854484,-0.004659673,0.70033
561.518,181.38,-3.113,-0.05834605,-0.004545242,0.6998
562.218,181.615,-3.11366,-0.06501181,-0.004372528,0.69927
562.918,181.85,-3.1152,-0.06806643,-0.00464058,0.69873
563.618,182.085,-3.11524,-0.06037825,-0.004518132,0.6982
564.318,182.322,-3.11658,-0.0455539,-0.004793696,0.69767
565.018,182.558,-3.11914,-0.04157245,-0.004389207,0.69714
565.718,182.795,-3.11947,-0.04828145,-0.00463006,0.69661
566.418,183.031,-3.11981,-0.04334192,-0.004739455,0.69608
567.118,183.267,-3.12127,-0.04299044,-0.004465837,0.69555
567.818,183.503,-3.12079,-0.05723405,-0.004631216,0.69502
568.518,183.739,-3.1234,-0.04862741,-0.004218208,0.69449
569.218,183.9745,-3.12342,-0.05341045,-0.004036906,0.69397
569.918,184.211,-3.12605,-0.06600434,-0.0041495,0.69344
570.618,184.447,-3.12671,-0.05347668,-0.004096783,0.69291
571.318,184.684,-3.12704,-0.05966461,-0.00449618,0.69239
572.018,184.921,-3.12934,-0.05245495,-0.003983143,0.69186
572.718,185.157,-3.12935,-0.05798129,-0.003677954,0.69134
573.418,185.393,-3.13066,-0.05146053,-0.00401713,0.69081
574.118,185.628,-3.13198,-0.06529794,-0.004310182,0.69029
574.818,185.864,-3.13245,-0.07149824,-0.003927802,0.68977
575.518,186.1,-3.13263,-0.07907454,-0.004121345,0.68924
576.218,186.336,-3.13395,-0.08670991,-0.003863047,0.68872
576.918,186.572,-3.13461,-0.08816416,-0.00400419,0.6882
577.618,186.807,-3.13593,-0.08613985,-0.00384661,0.68768
578.318,187.043,-3.13592,-0.08312964,-0.003754436,0.68716
579.018,187.28,-3.13856,-0.08758959,-0.003671273,0.68664
579.718,187.517,-3.13724,-0.0874416,-0.003413903,0.68612
580.418,187.754,-3.13823,-0.10084,-0.003481935,0.6856
581.118,187.992,-3.14022,-0.08871897,-0.00334395,0.68509
581.818,188.229,-3.14152,-0.08014947,-0.003547715,0.68457
582.518,188.466,-3.1442,-0.08896132,-0.00355087,0.68405
583.218,188.7017,-3.14185,-0.10119,-0.003800374,0.68354
583.918,188.938,-3.14316,-0.11105,-0.003299308,0.68302
584.618,189.173,-3.14448,-0.12629,-0.003372538,0.68251
585.318,189.408,-3.1458,-0.11757,-0.003214129,0.68199
586.018,189.643,-3.1458,-0.13929,-0.0032897,0.68148
586.718,189.878,-3.1458,-0.14008,-0.00330812,0.68097
587.418,190.112,-3.14711,-0.1283,-0.003222685,0.68045
588.118,190.349,-3.14776,-0.13125,-0.00326819,0.67994
588.818,190.586,-3.14843,-0.12349,-0.00289628,0.67943
589.518,190.824,-3.14974,-0.13395,-0.002840477,0.67892
590.218,191.06,-3.1504,-0.14396,-0.00304986,0.67841
590.918,191.296,-3.15205,-0.14096,-0.003084298,0.6779
591.618,191.531,-3.15063,-0.14494,-0.002960421,0.67739
592.318,191.766,-3.15214,-0.1449,-0.002706445,0.67688
593.018,192.002,-3.15238,-0.13357,-0.002704347,0.67638
593.718,192.239,-3.15336,-0.13327,-0.00270449,0.67587
594.418,192.476,-3.15407,-0.12629,-0.003105703,0.67536
595.118,192.712,-3.15426,-0.13439,-0.002869032,0.67486
595.818,192.948,-3.15411,-0.13064,-0.002477004,0.67435
596.518,193.185,-3.15664,-0.13432,-0.00264627,0.67385
597.218,193.422,-3.15693,-0.12044,-0.002259139,0.67335
597.918,193.659,-3.15863,-0.11444,-0.002192711,0.67284
598.618,193.8952,-3.15864,-0.12388,-0.002370743,0.67234
599.318,194.131,-3.15731,-0.12471,-0.002655642,0.67184
600.018,194.367,-3.15831,-0.10729,-0.002455649,0.67134
600.718,194.6044,-3.15962,-0.11086,-0.002413152,0.67084
601.418,194.842,-3.15962,-0.10087,-0.0023772,0.67034
602.118,195.08,-3.16192,-0.09543718,-0.002508616,0.66984
602.818,195.319,-3.16094,-0.09940105,-0.00264084,0.66934
603.518,195.557,-3.16089,-0.08439832,-0.002537275,0.66884
604.218,195.795,-3.16193,-0.07691944,-0.001940742,0.66834
604.918,196.032,-3.16304,-0.08854286,-0.001835964,0.66784
605.618,196.27,-3.16324,-0.10326,-0.002204279,0.66735
606.318,196.508,-3.16324,-0.05526936,-0.001996115,0.66685
607.018,196.747,-3.16489,-0.0691513,-0.002190481,0.66636
607.718,196.984,-3.16401,-0.05482079,-0.001952126,0.66586
608.418,197.2206,-3.16489,-0.05778048,-0.002239455,0.66537
609.118,197.457,-3.16653,-0.05281469,-0.00196936,0.66488
609.818,197.6905,-3.16653,-0.07401929,-0.002020246,0.66438
610.518,197.925,-3.16849,-0.06379772,-0.002204022,0.66389
611.218,198.1602,-3.16719,-0.06303759,-0.002078329,0.6634
611.918,198.398,-3.16587,-0.06805189,-0.001978204,0.66291
612.618,198.634,-3.16893,-0.07051589,-0.002014008,0.66242
613.318,198.8709,-3.16883,-0.06667096,-0.001931519,0.66193
614.018,199.107,-3.16884,-0.04604438,-0.00194398,0.66144
614.718,199.344,-3.17015,-0.03447694,-0.001662888,0.66095
615.418,199.582,-3.1685,-0.03511875,-0.001956875,0.66047
616.118,199.821,-3.17017,-0.04691446,-0.002234877,0.65998
616.818,200.06,-3.17055,-0.03700263,-0.00176695,0.65949
617.518,200.297,-3.17146,-0.05111813,-0.001628378,0.65901
618.218,200.534,-3.17279,-0.04195524,-0.001998866,0.65852
618.918,200.771,-3.17278,-0.03061264,-0.001903177,0.65804
619.618,201.009,-3.17148,-0.02120112,-0.001875999,0.65756
620.318,201.247,-3.17316,-0.01668488,-0.001912552,0.65707
621.018,201.486,-3.17311,-0.02390984,-0.001764881,0.65659
621.718,201.724,-3.17443,-0.0340488,-0.00176484,0.65611
622.418,201.963,-3.17448,-0.02350977,-0.00180298,0.65563
623.118,202.2009,-3.17476,7.978235e-05,-0.0016132,0.65515
623.818,202.438,-3.17607,-0.01777465,-0.00147948,0.65467
624.518,202.6752,-3.17542,0.00632375,-0.00152179,0.65419
625.218,202.913,-3.1761,0.01470376,-0.002052543,0.65371
625.918,203.152,-3.1764,-0.0080495,-0.001769542,0.65324
626.618,203.392,-3.17772,-0.01787586,-0.001754978,0.65276
627.318,203.63,-3.1764,-0.01203911,-0.001524577,0.65228
628.018,203.867,-3.17672,-0.01787518,-0.00157958,0.65181
628.718,204.103,-3.17805,0.004329563,-0.001831511,0.65133
629.418,204.341,-3.17904,-0.005937629,-0.001610545,0.65086
630.118,204.578,-3.17905,-0.002032337,-0.00168429,0.65038
630.818,204.815,-3.17834,0.01305605,-0.001635159,0.64991
631.518,205.052,-3.17796,0.0240605,-0.001871625,0.64944
632.218,205.291,-3.18028,0.005293941,-0.001740606,0.64897
632.918,205.53,-3.18068,0.02204366,-0.001688048,0.6485
633.618,205.77,-3.18068,0.0881073,-0.00165065,0.64803
634.318,206.008,-3.18068,0.10268,-0.001748444,0.64756
635.018,206.247,-3.18068,0.10641,-0.00193151,0.64709
635.718,206.484,-3.18035,0.10107,-0.00184705,0.64662
636.418,206.722,-3.18265,0.10986,-0.00190714,0.64615
637.118,206.96,-3.18199,0.09868752,-0.001471047,0.64568
637.818,207.2,-3.18331,0.11869,-0.001538276,0.64522
638.518,207.441,-3.18364,0.13556,-0.00227759,0.64475
639.218,207.68,-3.1849,0.14536,-0.002198698,0.64429
639.918,207.918,-3.18496,0.15583,-0.00232744,0.64382
640.618,208.156,-3.18495,0.14883,-0.002414587,0.64336
641.318,208.394,-3.18627,0.14627,-0.00217102,0.6429
642.018,208.6316,-3.18627,0.16029,-0.00198024,0.64243
642.718,208.869,-3.18627,0.15323,-0.002621825,0.64197
643.418,209.107,-3.18652,0.17206,-0.002655495,0.64151
644.118,209.345,-3.18797,0.16575,-0.002554221,0.64105
644.818,209.583,-3.1866,0.16825,-0.003023391,0.64059
645.518,209.822,-3.18658,0.17793,-0.00807763,0.64013
646.018,209.991,-3.18922,0.18052,-0.03117062,0.6398