File: 01_Data/Fiber_Cement_Board/STA/N2/30K_min/Fiber_Cement_Board_STA_N2_30KData_210624_R3.csv
##Temp./Â°C,Time/min,Mass loss(subtr.2)/mg,DSC(subtr.2)/mW,Sensit./(uV/mW)
50.694,10.01,-0.02381,0.0562874,0.6235
51.194,10.93993,-0.02567626,0.10402,0.6235
51.694,11.14328,-0.02657627,0.15757,0.62349
52.194,11.2818,-0.02876413,0.1936,0.62348
52.694,11.38899,-0.02958635,0.23858,0.62348
53.194,11.48015,-0.02908356,0.27782,0.62347
53.694,11.55912,-0.03041805,0.31562,0.62346
54.194,11.63008,-0.03071495,0.35249,0.62346
54.694,11.69435,-0.02859338,0.38857,0.62345
55.194,11.75303,-0.02827414,0.43164,0.62344
55.694,11.80823,-0.01848443,0.46417,0.62343
56.194,11.86011,-0.03288188,0.48356,0.62342
56.694,11.90957,-0.03703863,0.50279,0.62341
57.194,11.9566,-0.03069833,0.56013,0.6234
57.694,12.00147,-0.02827306,0.57579,0.62339
58.194,12.0444,-0.02771739,0.59344,0.62338
58.694,12.08596,-0.02913651,0.62181,0.62337
59.194,12.1256,-0.02950134,0.66861,0.62336
59.694,12.16455,-0.02944724,0.68411,0.62335
60.194,12.20239,-0.03068234,0.70613,0.62334
60.694,12.23921,-0.03128433,0.72766,0.62332
61.194,12.27515,-0.03005122,0.75412,0.62331
61.694,12.31001,-0.02797985,0.77237,0.6233
62.194,12.34421,-0.02823766,0.80214,0.62328
62.694,12.37772,-0.0301124,0.82363,0.62327
63.194,12.4106,-0.03025074,0.85992,0.62326
63.694,12.44282,-0.03007907,0.87262,0.62324
64.194,12.47461,-0.03006859,0.90346,0.62323
64.694,12.50623,-0.03002879,0.9286,0.62321
65.194,12.53753,-0.03099193,0.94756,0.6232
65.694,12.56794,-0.03231483,0.96497,0.62318
66.194,12.59783,-0.03330189,1.0043,0.62316
66.694,12.6274,-0.03418804,1.01791,0.62315
67.194,12.65667,-0.03406745,1.04109,0.62313
67.694,12.68551,-0.03413298,1.0548,0.62311
68.194,12.714,-0.03437932,1.07897,0.62309
68.694,12.74214,-0.03442713,1.10039,0.62307
69.194,12.77047,-0.03447128,1.11464,0.62306
69.694,12.79848,-0.03346249,1.14757,0.62304
70.194,12.8262,-0.03315957,1.16423,0.62302
70.694,12.85363,-0.03403816,1.19994,0.623
71.194,12.88059,-0.03426206,1.2119,0.62298
71.694,12.9076,-0.03380187,1.24472,0.62296
72.194,12.93452,-0.03361763,1.26653,0.62294
72.694,12.96129,-0.03429208,1.2926,0.62291
73.194,12.9876,-0.0358552,1.30934,0.62289
73.694,13.01379,-0.03676383,1.33181,0.62287
74.194,13.0399,-0.03630968,1.35219,0.62285
74.694,13.0656,-0.03605406,1.38779,0.62282
75.194,13.09145,-0.03497121,1.41887,0.6228
75.694,13.11704,-0.03595129,1.43605,0.62278
76.194,13.14245,-0.03681759,1.45769,0.62275
76.694,13.1678,-0.03675468,1.48678,0.62273
77.194,13.1928,-0.03783365,1.50197,0.62271
77.694,13.21776,-0.03789497,1.5287,0.62268
78.194,13.24252,-0.03807333,1.56642,0.62265
78.694,13.2672,-0.03972562,1.59958,0.62263
79.194,13.2918,-0.0414365,1.61412,0.6226
79.694,13.3162,-0.04021908,1.65244,0.62258
80.194,13.3405,-0.04138659,1.68574,0.62255
80.694,13.3647,-0.04126031,1.7039,0.62252
81.194,13.3887,-0.04129002,1.73203,0.62249
81.694,13.41284,-0.04149076,1.76245,0.62247
82.194,13.43687,-0.04271535,1.81014,0.62244
82.694,13.46066,-0.04266862,1.82285,0.62241
83.194,13.48444,-0.04395512,1.86825,0.62238
83.694,13.50804,-0.04363082,1.89068,0.62235
84.194,13.53155,-0.04389242,1.93151,0.62232
84.694,13.5549,-0.04411001,1.94785,0.62229
85.194,13.5783,-0.0445977,1.98287,0.62226
85.694,13.60152,-0.04479039,2.02317,0.62223
86.194,13.6246,-0.04558158,2.04252,0.6222
86.694,13.64758,-0.04552308,2.05965,0.62217
87.194,13.67014,-0.04551891,2.10818,0.62214
87.694,13.6928,-0.04643999,2.14241,0.6221
88.194,13.71543,-0.04692816,2.17402,0.62207
88.694,13.73792,-0.04811407,2.21144,0.62204
89.194,13.76051,-0.04827138,2.23934,0.622
89.694,13.78285,-0.04821903,2.26983,0.62197
90.194,13.8051,-0.04958221,2.3063,0.62194
90.694,13.8272,-0.05009135,2.33581,0.6219
91.194,13.8492,-0.05124055,2.35899,0.62187
91.694,13.8712,-0.05123139,2.40569,0.62183
92.194,13.89303,-0.0513351,2.4306,0.6218
92.694,13.9149,-0.05368877,2.47184,0.62176
93.194,13.9365,-0.05386778,2.50223,0.62172
93.694,13.9581,-0.05536787,2.54602,0.62169
94.194,13.9797,-0.05539102,2.57441,0.62165
94.694,14.0012,-0.05675499,2.60582,0.62161
95.194,14.02255,-0.0569211,2.62204,0.62158
95.694,14.0438,-0.05803762,2.65947,0.62154
96.194,14.065,-0.05803198,2.68501,0.6215
96.694,14.0861,-0.05805217,2.71906,0.62146
97.194,14.10715,-0.05868575,2.74336,0.62142
97.694,14.128,-0.06059396,2.777,0.62138
98.194,14.14886,-0.06067711,2.81337,0.62134
98.694,14.1695,-0.06289537,2.83254,0.6213
99.194,14.19025,-0.0633006,2.868,0.62126
99.694,14.21096,-0.06329531,2.89852,0.62122
100.194,14.23151,-0.06546181,2.91959,0.62118
100.694,14.25201,-0.06592448,2.94567,0.62114
101.194,14.27241,-0.0659299,2.98631,0.6211
101.694,14.2925,-0.06593497,3.01076,0.62105
102.194,14.31267,-0.06601804,3.03895,0.62101
102.694,14.33278,-0.06817598,3.07653,0.62097
103.194,14.3529,-0.06853051,3.10187,0.62093
103.694,14.37285,-0.06959858,3.12144,0.62088
104.194,14.3929,-0.07086229,3.15102,0.62084
104.694,14.4128,-0.07086789,3.17897,0.62079
105.194,14.4327,-0.07097751,3.19893,0.62075
105.694,14.45235,-0.07223029,3.2127,0.6207
106.194,14.47195,-0.07223566,3.22992,0.62066
106.694,14.4916,-0.07250201,3.26432,0.62061
107.194,14.51111,-0.07294679,3.29112,0.62057
107.694,14.5306,-0.07517361,3.3218,0.62052
108.194,14.5501,-0.07515024,3.3473,0.62047
108.694,14.5695,-0.07543873,3.37301,0.62043
109.194,14.58876,-0.07649256,3.38488,0.62038
109.694,14.60785,-0.07714734,3.38913,0.62033
110.194,14.62689,-0.07925846,3.41457,0.62028
110.694,14.64596,-0.07920565,3.44106,0.62024
111.194,14.6651,-0.08052798,3.47054,0.62019
111.694,14.68409,-0.08199464,3.50102,0.62014
112.194,14.70321,-0.08346308,3.51995,0.62009
112.694,14.7223,-0.08337263,3.54608,0.62004
113.194,14.7412,-0.08334683,3.55748,0.61999
113.694,14.7601,-0.08470254,3.57395,0.61994
114.194,14.77886,-0.08601935,3.59505,0.61989
114.694,14.79759,-0.08595736,3.60364,0.61984
115.194,14.8161,-0.08712848,3.6238,0.61979
115.694,14.8347,-0.08731116,3.64395,0.61973
116.194,14.85316,-0.08748131,3.67097,0.61968
116.694,14.8716,-0.09005278,3.67981,0.61963
117.194,14.88998,-0.08995014,3.68185,0.61958
117.694,14.9084,-0.09077981,3.7014,0.61952
118.194,14.92673,-0.0914021,3.71628,0.61947
118.694,14.94501,-0.09253834,3.72179,0.61942
119.194,14.96323,-0.0942763,3.75557,0.61936
119.694,14.9814,-0.09430311,3.75876,0.61931
120.194,14.9995,-0.09648102,3.77851,0.61925
120.694,15.0175,-0.09687533,3.78313,0.6192
121.194,15.0355,-0.09716284,3.7971,0.61914
121.694,15.05345,-0.09850453,3.81695,0.61909
122.194,15.0714,-0.09963876,3.83003,0.61903
122.694,15.0893,-0.0995851,3.84522,0.61897
123.194,15.10716,-0.10122,3.86288,0.61892
123.694,15.125,-0.1023,3.86832,0.61886
124.194,15.14274,-0.10246,3.87924,0.6188
124.694,15.16045,-0.10356,3.89449,0.61874
125.194,15.1781,-0.10357,3.90733,0.61869
125.694,15.19571,-0.10387,3.92777,0.61863
126.194,15.2132,-0.10492,3.94073,0.61857
126.694,15.23075,-0.10486,3.94869,0.61851
127.194,15.24811,-0.10704,3.95507,0.61845
127.694,15.26544,-0.10772,3.96911,0.61839
128.194,15.2828,-0.10857,3.97786,0.61833
128.694,15.3001,-0.11057,3.99576,0.61827
129.194,15.31744,-0.11072,4.00043,0.61821
129.694,15.33469,-0.11211,4.00422,0.61815
130.194,15.35191,-0.11201,4.01567,0.61809
130.694,15.36907,-0.11337,4.02318,0.61802
131.194,15.38613,-0.11377,4.04265,0.61796
131.694,15.4032,-0.11493,4.05255,0.6179
132.194,15.42017,-0.11606,4.06031,0.61784
132.694,15.4372,-0.11619,4.05636,0.61777
133.194,15.4541,-0.11749,4.07649,0.61771
133.694,15.471,-0.11744,4.08384,0.61765
134.194,15.4879,-0.11869,4.08065,0.61758
134.694,15.5048,-0.11891,4.09794,0.61752
135.194,15.52155,-0.12024,4.10706,0.61745
135.694,15.53832,-0.12113,4.1129,0.61739
136.194,15.55505,-0.12177,4.12148,0.61732
136.694,15.57177,-0.12174,4.13325,0.61726
137.194,15.5884,-0.12228,4.12835,0.61719
137.694,15.60505,-0.12399,4.14022,0.61712
138.194,15.62161,-0.12437,4.14204,0.61706
138.694,15.6382,-0.12489,4.14584,0.61699
139.194,15.6547,-0.12584,4.15205,0.61692
139.694,15.67114,-0.12658,4.16141,0.61686
140.194,15.6876,-0.12805,4.15969,0.61679
140.694,15.7041,-0.13007,4.15959,0.61672
141.194,15.7206,-0.1302,4.17118,0.61665
141.694,15.737,-0.13016,4.16786,0.61658
142.194,15.7533,-0.13128,4.17631,0.61651
142.694,15.76963,-0.13283,4.18211,0.61644
143.194,15.78595,-0.13314,4.18074,0.61637
143.694,15.80211,-0.13444,4.19951,0.6163
144.194,15.8183,-0.13433,4.20939,0.61623
144.694,15.83446,-0.13538,4.21097,0.61616
145.194,15.8506,-0.13568,4.20941,0.61609
145.694,15.86674,-0.13713,4.21386,0.61602
146.194,15.8828,-0.13896,4.21371,0.61595
146.694,15.89891,-0.14017,4.21425,0.61588
147.194,15.91499,-0.14018,4.22409,0.6158
147.694,15.93104,-0.14018,4.22617,0.61573
148.194,15.94708,-0.14061,4.22726,0.61566
148.694,15.9631,-0.14157,4.23415,0.61558
149.194,15.97909,-0.14147,4.21786,0.61551
149.694,15.99505,-0.14302,4.21394,0.61544
150.194,16.01096,-0.14416,4.23496,0.61536
150.694,16.0269,-0.14408,4.2255,0.61529
151.194,16.04277,-0.14507,4.2344,0.61521
151.694,16.05866,-0.14568,4.23654,0.61514
152.194,16.07449,-0.1472,4.24218,0.61506
152.694,16.0903,-0.14853,4.25041,0.61499
153.194,16.10621,-0.14863,4.26752,0.61491
153.694,16.122,-0.14993,4.25695,0.61484
154.194,16.13776,-0.14974,4.27363,0.61476
154.694,16.15351,-0.15121,4.28026,0.61468
155.194,16.1692,-0.15136,4.27554,0.6146
155.694,16.18486,-0.15247,4.2839,0.61453
156.194,16.20049,-0.15279,4.28625,0.61445
156.694,16.21613,-0.15338,4.28789,0.61437
157.194,16.23174,-0.15425,4.2913,0.61429
157.694,16.24728,-0.15414,4.29011,0.61421
158.194,16.2627,-0.15543,4.29104,0.61413
158.694,16.27814,-0.15563,4.28806,0.61405
159.194,16.29372,-0.15666,4.28088,0.61397
159.694,16.30929,-0.15707,4.28159,0.61389
160.194,16.3248,-0.15826,4.28837,0.61381
160.694,16.34042,-0.15865,4.2876,0.61373
161.194,16.35615,-0.16028,4.28997,0.61365
161.694,16.3718,-0.16038,4.28527,0.61357
162.194,16.3872,-0.16137,4.29592,0.61349
162.694,16.40253,-0.16283,4.2994,0.61341
163.194,16.4179,-0.16293,4.30664,0.61333
163.694,16.43334,-0.16422,4.30621,0.61324
164.194,16.44875,-0.16444,4.29362,0.61316
164.694,16.46418,-0.16482,4.30709,0.61308
165.194,16.4797,-0.16596,4.30645,0.61299
165.694,16.4951,-0.16629,4.31276,0.61291
166.194,16.51039,-0.16863,4.30361,0.61283
166.694,16.5257,-0.16856,4.30366,0.61274
167.194,16.54097,-0.16859,4.30376,0.61266
167.694,16.55622,-0.16893,4.29561,0.61257
168.194,16.57141,-0.17005,4.30179,0.61249
168.694,16.58665,-0.17038,4.30006,0.6124
169.194,16.602,-0.1711,4.30755,0.61232
169.694,16.61724,-0.17032,4.29491,0.61223
170.194,16.63247,-0.17176,4.29491,0.61214
170.694,16.64767,-0.17156,4.28908,0.61206
171.194,16.66284,-0.17299,4.28365,0.61197
171.694,16.67801,-0.17316,4.28171,0.61188
172.194,16.6931,-0.17411,4.28593,0.6118
172.694,16.7082,-0.17455,4.28713,0.61171
173.194,16.7232,-0.17478,4.29961,0.61162
173.694,16.7383,-0.17588,4.2918,0.61153
174.194,16.7534,-0.17769,4.28461,0.61144
174.694,16.76847,-0.17907,4.28468,0.61135
175.194,16.78355,-0.17972,4.2816,0.61126
175.694,16.79854,-0.18035,4.28366,0.61118
176.194,16.8136,-0.18027,4.27927,0.61109
176.694,16.82858,-0.18119,4.2839,0.611
177.194,16.84361,-0.18166,4.28586,0.61091
177.694,16.8586,-0.18165,4.28488,0.61081
178.194,16.87361,-0.18169,4.27312,0.61072
178.694,16.88854,-0.18286,4.27457,0.61063
179.194,16.90351,-0.1829,4.27603,0.61054
179.694,16.9185,-0.18349,4.26411,0.61045
180.194,16.93335,-0.18444,4.26559,0.61036
180.694,16.94824,-0.18461,4.26739,0.61026
181.194,16.9631,-0.18605,4.25516,0.61017
181.694,16.97795,-0.18703,4.25502,0.61008
182.194,16.99277,-0.18727,4.25523,0.60999
182.694,17.0076,-0.18848,4.24969,0.60989
183.194,17.02241,-0.18946,4.25386,0.6098
183.694,17.03712,-0.19015,4.24621,0.6097
184.194,17.05187,-0.19011,4.24986,0.60961
184.694,17.0667,-0.19005,4.24382,0.60951
185.194,17.08141,-0.19088,4.241,0.60942
185.694,17.09614,-0.19145,4.23687,0.60932
186.194,17.11082,-0.19183,4.2539,0.60923
186.694,17.12558,-0.19392,4.24389,0.60913
187.194,17.14026,-0.19494,4.23279,0.60904
187.694,17.1549,-0.1959,4.2235,0.60894
188.194,17.1695,-0.19577,4.22275,0.60884
188.694,17.18415,-0.19702,4.22711,0.60875
189.194,17.19879,-0.19711,4.21139,0.60865
189.694,17.2134,-0.19711,4.2045,0.60855
190.194,17.22801,-0.1973,4.20962,0.60846
190.694,17.2426,-0.19853,4.2033,0.60836
191.194,17.2572,-0.19837,4.19637,0.60826
191.694,17.27175,-0.19926,4.19126,0.60816
192.194,17.2863,-0.19978,4.18435,0.60806
192.694,17.30085,-0.20128,4.18112,0.60796
193.194,17.31531,-0.20198,4.17914,0.60786
193.694,17.3298,-0.20194,4.17171,0.60776
194.194,17.34429,-0.20214,4.15213,0.60766
194.694,17.3588,-0.20332,4.13576,0.60756
195.194,17.3733,-0.20336,4.14578,0.60746
195.694,17.38766,-0.20468,4.13927,0.60736
196.194,17.4021,-0.20486,4.13586,0.60726
196.694,17.4165,-0.20525,4.13586,0.60716
197.194,17.4309,-0.20646,4.1278,0.60706
197.694,17.44524,-0.20684,4.11441,0.60696
198.194,17.45966,-0.20839,4.11845,0.60685
198.694,17.4741,-0.20838,4.10243,0.60675
199.194,17.48849,-0.20843,4.07093,0.60665
199.694,17.50294,-0.20863,4.07946,0.60655
200.194,17.51732,-0.20984,4.08972,0.60644
200.694,17.53169,-0.21009,4.0817,0.60634
201.194,17.54599,-0.21261,4.07004,0.60624
201.694,17.56026,-0.21271,4.06564,0.60613
202.194,17.57457,-0.21411,4.0719,0.60603
202.694,17.58884,-0.21445,4.06139,0.60592
203.194,17.60311,-0.21599,4.04781,0.60582
203.694,17.6174,-0.2161,4.03257,0.60571
204.194,17.63165,-0.21615,4.01334,0.60561
204.694,17.646,-0.21584,4.03312,0.6055
205.194,17.66023,-0.21587,4.00578,0.6054
205.694,17.6745,-0.21587,3.99561,0.60529
206.194,17.6888,-0.21587,3.97819,0.60518
206.694,17.703,-0.2165,3.97337,0.60508
207.194,17.71725,-0.21724,3.97265,0.60497
207.694,17.73145,-0.2172,3.96095,0.60486
208.194,17.7456,-0.21819,3.96319,0.60476
208.694,17.75981,-0.21861,3.96735,0.60465
209.194,17.77403,-0.22043,3.9386,0.60454
209.694,17.78816,-0.22153,3.93561,0.60443
210.194,17.80238,-0.22208,3.9177,0.60432
210.694,17.81651,-0.22311,3.90845,0.60422
211.194,17.83063,-0.22305,3.91117,0.60411
211.694,17.84479,-0.22442,3.90211,0.604
212.194,17.85886,-0.22455,3.89234,0.60389
212.694,17.87301,-0.22474,3.87306,0.60378
213.194,17.88716,-0.22641,3.87718,0.60367
213.694,17.9013,-0.2266,3.85549,0.60356
214.194,17.91545,-0.22671,3.84865,0.60345
214.694,17.92962,-0.22791,3.84341,0.60334
215.194,17.94375,-0.2279,3.83027,0.60323
215.694,17.9578,-0.22793,3.83464,0.60311
216.194,17.97193,-0.22793,3.81306,0.603
216.694,17.986,-0.22793,3.80265,0.60289
217.194,18.00004,-0.22793,3.78821,0.60278
217.694,18.0141,-0.22811,3.77066,0.60267
218.194,18.02816,-0.22937,3.76265,0.60255
218.694,18.04221,-0.22953,3.7665,0.60244
219.194,18.0563,-0.23076,3.75931,0.60233
219.694,18.07028,-0.23101,3.74084,0.60222
220.194,18.0843,-0.23206,3.72857,0.6021
220.694,18.09825,-0.23245,3.72088,0.60199
221.194,18.11212,-0.23297,3.70407,0.60187
221.694,18.12605,-0.23382,3.69766,0.60176
222.194,18.13992,-0.23375,3.68653,0.60165
222.694,18.15379,-0.23379,3.66288,0.60153
223.194,18.16776,-0.23489,3.65543,0.60142
223.694,18.18188,-0.23504,3.65286,0.6013
224.194,18.19599,-0.23506,3.6448,0.60119
224.694,18.21012,-0.23506,3.64024,0.60107
225.194,18.22428,-0.23544,3.6231,0.60095
225.694,18.2384,-0.23637,3.60524,0.60084
226.194,18.25244,-0.23635,3.59356,0.60072
226.694,18.2664,-0.23675,3.58429,0.6006
227.194,18.28035,-0.2377,3.58527,0.60049
227.694,18.29428,-0.23769,3.57161,0.60037
228.194,18.30816,-0.23763,3.56061,0.60025
228.694,18.3219,-0.23892,3.55147,0.60014
229.194,18.33592,-0.23973,3.55288,0.60002
229.694,18.3499,-0.23967,3.54854,0.5999
230.194,18.3638,-0.23985,3.52957,0.59978
230.694,18.37769,-0.24089,3.52793,0.59966
231.194,18.39161,-0.24095,3.51571,0.59954
231.694,18.40563,-0.24151,3.50289,0.59942
232.194,18.41959,-0.24241,3.49085,0.5993
232.694,18.43349,-0.24255,3.48997,0.59919
233.194,18.44738,-0.24378,3.46384,0.59907
233.694,18.46135,-0.24392,3.45553,0.59895
234.194,18.4753,-0.24424,3.45214,0.59882
234.694,18.48917,-0.24523,3.44003,0.5987
235.194,18.503,-0.24524,3.43452,0.59858
235.694,18.51689,-0.2453,3.4196,0.59846
236.194,18.5307,-0.24533,3.4116,0.59834
236.694,18.5445,-0.24705,3.39882,0.59822
237.194,18.55835,-0.24729,3.39122,0.5981
237.694,18.57214,-0.24945,3.38385,0.59798
238.194,18.58594,-0.24967,3.37792,0.59785
238.694,18.59977,-0.24965,3.35545,0.59773
239.194,18.61362,-0.25064,3.38193,0.59761
239.694,18.6275,-0.25114,3.36638,0.59749
240.194,18.64132,-0.25117,3.3545,0.59736
240.694,18.6551,-0.25234,3.34874,0.59724
241.194,18.66894,-0.2524,3.34296,0.59712
241.694,18.68279,-0.2524,3.32999,0.59699
242.194,18.69659,-0.25241,3.31565,0.59687
242.694,18.71041,-0.25241,3.30176,0.59674
243.194,18.7242,-0.25344,3.28606,0.59662
243.694,18.73805,-0.25384,3.28939,0.59649
244.194,18.75187,-0.25379,3.27783,0.59637
244.694,18.76567,-0.25434,3.2663,0.59624
245.194,18.7794,-0.25524,3.2735,0.59612
245.694,18.793,-0.25526,3.2668,0.59599
246.194,18.8068,-0.25639,3.25593,0.59587
246.694,18.82054,-0.25667,3.24113,0.59574
247.194,18.8343,-0.25669,3.23663,0.59562
247.694,18.84809,-0.25667,3.23309,0.59549
248.194,18.86179,-0.25665,3.22301,0.59536
248.694,18.87568,-0.25721,3.21897,0.59524
249.194,18.8895,-0.25799,3.21424,0.59511
249.694,18.90324,-0.25801,3.21305,0.59498
250.194,18.91698,-0.2579,3.2116,0.59485
250.694,18.93073,-0.25904,3.20627,0.59473
251.194,18.94445,-0.25932,3.21805,0.5946
251.694,18.95819,-0.25931,3.21021,0.59447
252.194,18.97194,-0.25984,3.21665,0.59434
252.694,18.98566,-0.26082,3.20107,0.59421
253.194,18.99939,-0.26073,3.20273,0.59408
253.694,19.01312,-0.2607,3.18972,0.59395
254.194,19.02679,-0.26113,3.20034,0.59382
254.694,19.0405,-0.26207,3.19636,0.59369
255.194,19.05423,-0.26192,3.18558,0.59356
255.694,19.0679,-0.2633,3.18995,0.59343
256.194,19.08159,-0.26484,3.19347,0.5933
256.694,19.09531,-0.26477,3.19292,0.59317
257.194,19.10896,-0.2648,3.19632,0.59304
257.694,19.1228,-0.26502,3.17545,0.59291
258.194,19.1364,-0.26629,3.17824,0.59278
258.694,19.15012,-0.26633,3.18226,0.59265
259.194,19.16382,-0.2677,3.17876,0.59252
259.694,19.17746,-0.26786,3.17335,0.59239
260.194,19.19119,-0.2683,3.16738,0.59225
260.694,19.2049,-0.26926,3.19187,0.59212
261.194,19.2186,-0.26916,3.18379,0.59199
261.694,19.23229,-0.26974,3.18091,0.59186
262.194,19.24598,-0.27041,3.18516,0.59172
262.694,19.2597,-0.27209,3.17527,0.59159
263.194,19.27339,-0.27452,3.18237,0.59146
263.694,19.28704,-0.27763,3.17682,0.59133
264.194,19.3007,-0.27894,3.17354,0.59119
264.694,19.31439,-0.27655,3.17034,0.59106
265.194,19.32807,-0.27131,3.16286,0.59092
265.694,19.34173,-0.26909,3.18022,0.59079
266.194,19.35539,-0.26724,3.18256,0.59065
266.694,19.36897,-0.26691,3.16127,0.59052
267.194,19.3826,-0.27008,3.15679,0.59039
267.694,19.39625,-0.27135,3.16648,0.59025
268.194,19.40993,-0.27214,3.16887,0.59011
268.694,19.42354,-0.27377,3.16688,0.58998
269.194,19.43719,-0.27464,3.16887,0.58984
269.694,19.4509,-0.27472,3.18258,0.58971
270.194,19.4646,-0.27591,3.16267,0.58957
270.694,19.4783,-0.27598,3.15218,0.58944
271.194,19.49192,-0.27649,3.15729,0.5893
271.694,19.50558,-0.27738,3.16306,0.58916
272.194,19.5193,-0.2773,3.17031,0.58903
272.694,19.53295,-0.27731,3.1735,0.58889
273.194,19.54658,-0.27721,3.17489,0.58875
273.694,19.5602,-0.2783,3.1875,0.58861
274.194,19.57382,-0.27874,3.19852,0.58848
274.694,19.5875,-0.27887,3.18693,0.58834
275.194,19.60116,-0.28005,3.19028,0.5882
275.694,19.61476,-0.27898,3.20106,0.58806
276.194,19.62837,-0.2789,3.19214,0.58792
276.694,19.64205,-0.28031,3.19912,0.58778
277.194,19.6557,-0.28082,3.21716,0.58765
277.694,19.66931,-0.28316,3.22289,0.58751
278.194,19.68291,-0.2832,3.22959,0.58737
278.694,19.69653,-0.28314,3.24215,0.58723
279.194,19.7102,-0.28422,3.24749,0.58709
279.694,19.7238,-0.2846,3.25338,0.58695
280.194,19.7374,-0.28536,3.25589,0.58681
280.694,19.75102,-0.28608,3.26446,0.58667
281.194,19.76464,-0.28602,3.27964,0.58653
281.694,19.77826,-0.28659,3.27604,0.58639
282.194,19.79191,-0.28743,3.27652,0.58625
282.694,19.80561,-0.28737,3.27481,0.5861
283.194,19.81927,-0.2874,3.2812,0.58596
283.694,19.8329,-0.28751,3.30237,0.58582
284.194,19.8465,-0.28861,3.29249,0.58568
284.694,19.86026,-0.28881,3.30312,0.58554
285.194,19.8739,-0.28901,3.30928,0.5854
285.694,19.8875,-0.29002,3.32594,0.58525
286.194,19.9011,-0.29013,3.33148,0.58511
286.694,19.91476,-0.29009,3.35484,0.58497
287.194,19.92851,-0.29065,3.36583,0.58483
287.694,19.94206,-0.29173,3.37492,0.58468
288.194,19.95567,-0.29171,3.36855,0.58454
288.694,19.96931,-0.29314,3.37959,0.5844
289.194,19.98294,-0.29316,3.38739,0.58425
289.694,19.9966,-0.29455,3.40023,0.58411
290.194,20.0102,-0.29496,3.4034,0.58397
290.694,20.02383,-0.29619,3.40858,0.58382
291.194,20.03749,-0.29666,3.43474,0.58368
291.694,20.05113,-0.29791,3.44153,0.58353
292.194,20.06476,-0.2983,3.44563,0.58339
292.694,20.0784,-0.29964,3.45544,0.58324
293.194,20.09208,-0.29975,3.46503,0.5831
293.694,20.10572,-0.30101,3.47612,0.58295
294.194,20.1194,-0.30261,3.49179,0.58281
294.694,20.133,-0.30263,3.50073,0.58266
295.194,20.14668,-0.30382,3.50459,0.58252
295.694,20.1603,-0.30415,3.52808,0.58237
296.194,20.17399,-0.30495,3.52241,0.58223
296.694,20.1876,-0.30563,3.53567,0.58208
297.194,20.20128,-0.30557,3.53547,0.58193
297.694,20.21491,-0.30603,3.55568,0.58179
298.194,20.22857,-0.30701,3.55782,0.58164
298.694,20.24221,-0.30766,3.5736,0.58149
299.194,20.2559,-0.30889,3.57644,0.58135
299.694,20.26951,-0.31003,3.57088,0.5812
300.194,20.2832,-0.31077,3.57843,0.58105
300.694,20.29675,-0.31203,3.59386,0.5809
301.194,20.3103,-0.31263,3.60259,0.58076
301.694,20.32388,-0.31397,3.62679,0.58061
302.194,20.33754,-0.31372,3.63414,0.58046
302.694,20.35118,-0.31489,3.64422,0.58031
303.194,20.36487,-0.31516,3.65437,0.58016
303.694,20.37855,-0.31507,3.65772,0.58002
304.194,20.39225,-0.31634,3.66348,0.57987
304.694,20.40602,-0.31602,3.67835,0.57972
305.194,20.4197,-0.31524,3.68828,0.57957
305.694,20.43338,-0.31628,3.69281,0.57942
306.194,20.44695,-0.31667,3.69269,0.57927
306.694,20.46058,-0.31864,3.70496,0.57912
307.194,20.47423,-0.31972,3.70443,0.57897
307.694,20.48791,-0.32096,3.70764,0.57882
308.194,20.50155,-0.32113,3.7268,0.57867
308.694,20.51521,-0.32036,3.73373,0.57852
309.194,20.5289,-0.32117,3.73612,0.57837
309.694,20.5426,-0.32124,3.74047,0.57822
310.194,20.55626,-0.32254,3.75296,0.57807
310.694,20.56991,-0.32292,3.7545,0.57792
311.194,20.5836,-0.32476,3.76875,0.57777
311.694,20.59729,-0.3261,3.76473,0.57761
312.194,20.61093,-0.32702,3.76714,0.57746
312.694,20.62461,-0.3281,3.7783,0.57731
313.194,20.6383,-0.32854,3.79047,0.57716
313.694,20.65193,-0.32906,3.77665,0.57701
314.194,20.6656,-0.33004,3.78509,0.57686
314.694,20.67923,-0.3302,3.79598,0.5767
315.194,20.6929,-0.33175,3.81145,0.57655
315.694,20.70656,-0.33354,3.80868,0.5764
316.194,20.72019,-0.33457,3.81587,0.57625
316.694,20.73389,-0.3361,3.82679,0.57609
317.194,20.74758,-0.33742,3.82628,0.57594
317.694,20.76126,-0.33846,3.82274,0.57579
318.194,20.77494,-0.33975,3.82732,0.57563
318.694,20.78862,-0.34052,3.83627,0.57548
319.194,20.8023,-0.34128,3.8302,0.57533
319.694,20.81597,-0.34156,3.81807,0.57517
320.194,20.8296,-0.34255,3.83296,0.57502
320.694,20.84331,-0.34255,3.83877,0.57486
321.194,20.85698,-0.34388,3.85157,0.57471
321.694,20.87068,-0.34461,3.84956,0.57455
322.194,20.8843,-0.34614,3.84669,0.5744
322.694,20.89803,-0.34701,3.84263,0.57425
323.194,20.91163,-0.34784,3.84645,0.57409
323.694,20.92535,-0.34885,3.84255,0.57394
324.194,20.93906,-0.34935,3.83975,0.57378
324.694,20.9527,-0.35033,3.84797,0.57362
325.194,20.96631,-0.35009,3.84706,0.57347
325.694,20.98,-0.35156,3.86183,0.57331
326.194,20.99367,-0.35238,3.85861,0.57316
326.694,21.00733,-0.35349,3.86286,0.573
327.194,21.02091,-0.35552,3.8503,0.57285
327.694,21.03453,-0.35698,3.86045,0.57269
328.194,21.04826,-0.35817,3.86618,0.57253
328.694,21.06195,-0.35926,3.84973,0.57238
329.194,21.07563,-0.36009,3.8518,0.57222
329.694,21.0894,-0.36113,3.8622,0.57206
330.194,21.1032,-0.36161,3.86165,0.57191
330.694,21.117,-0.3621,3.83822,0.57175
331.194,21.13081,-0.36267,3.84092,0.57159
331.694,21.14461,-0.36393,3.81433,0.57143
332.194,21.1584,-0.36548,3.82068,0.57128
332.694,21.17219,-0.36655,3.83078,0.57112
333.194,21.1859,-0.36825,3.82992,0.57096
333.694,21.19957,-0.36916,3.82817,0.5708
334.194,21.2133,-0.37053,3.81703,0.57064
334.694,21.22699,-0.37164,3.82141,0.57049
335.194,21.2407,-0.37196,3.81932,0.57033
335.694,21.25441,-0.37319,3.82452,0.57017
336.194,21.26814,-0.37378,3.81785,0.57001
336.694,21.28196,-0.37534,3.80653,0.56985
337.194,21.29573,-0.37646,3.79821,0.56969
337.694,21.30945,-0.37804,3.80428,0.56953
338.194,21.3232,-0.3801,3.79591,0.56937
338.694,21.33699,-0.38132,3.78888,0.56921
339.194,21.35071,-0.38273,3.78901,0.56905
339.694,21.36444,-0.38201,3.79064,0.56889
340.194,21.37819,-0.38267,3.78851,0.56873
340.694,21.3919,-0.38406,3.77686,0.56857
341.194,21.4057,-0.38556,3.77307,0.56841
341.694,21.41946,-0.38685,3.76647,0.56825
342.194,21.43323,-0.38766,3.75786,0.56809
342.694,21.447,-0.38899,3.74818,0.56793
343.194,21.4608,-0.39015,3.74345,0.56777
343.694,21.4746,-0.39096,3.73555,0.56761
344.194,21.48839,-0.39142,3.73087,0.56745
344.694,21.50216,-0.39248,3.74577,0.56729
345.194,21.51596,-0.39308,3.71647,0.56713
345.694,21.52969,-0.39399,3.71788,0.56697
346.194,21.5435,-0.39517,3.71729,0.56681
346.694,21.5573,-0.39639,3.71397,0.56664
347.194,21.571,-0.39794,3.71703,0.56648
347.694,21.58482,-0.39952,3.71455,0.56632
348.194,21.5986,-0.40099,3.707,0.56616
348.694,21.6124,-0.40264,3.70074,0.566
349.194,21.62619,-0.40403,3.68899,0.56583
349.694,21.64,-0.40475,3.67666,0.56567
350.194,21.6538,-0.40628,3.67077,0.56551
350.694,21.66757,-0.40665,3.66878,0.56535
351.194,21.6814,-0.40809,3.68763,0.56518
351.694,21.69519,-0.40954,3.67314,0.56502
352.194,21.70898,-0.41079,3.66206,0.56486
352.694,21.72277,-0.41305,3.65849,0.5647
353.194,21.7366,-0.41466,3.65448,0.56453
353.694,21.75044,-0.41565,3.64679,0.56437
354.194,21.7643,-0.41719,3.6305,0.56421
354.694,21.77815,-0.41858,3.63777,0.56404
355.194,21.79202,-0.41939,3.6252,0.56388
355.694,21.8059,-0.42096,3.61895,0.56371
356.194,21.81975,-0.42314,3.61767,0.56355
356.694,21.8336,-0.42408,3.60293,0.56339
357.194,21.84743,-0.42543,3.59545,0.56322
357.694,21.86124,-0.42756,3.59223,0.56306
358.194,21.8751,-0.42864,3.59312,0.56289
358.694,21.8889,-0.42871,3.59123,0.56273
359.194,21.90278,-0.42988,3.57403,0.56256
359.694,21.91665,-0.43072,3.56121,0.5624
360.194,21.93054,-0.43247,3.56338,0.56223
360.694,21.9444,-0.43425,3.56138,0.56207
361.194,21.9583,-0.43647,3.57136,0.5619
361.694,21.9722,-0.43729,3.56364,0.56174
362.194,21.9861,-0.43848,3.5693,0.56157
362.694,22,-0.44061,3.56732,0.56141
363.194,22.01384,-0.44264,3.55919,0.56124
363.694,22.02773,-0.44437,3.53657,0.56108
364.194,22.04165,-0.44643,3.52634,0.56091
364.694,22.05555,-0.44782,3.5359,0.56074
365.194,22.06942,-0.44891,3.52486,0.56058
365.694,22.0833,-0.45067,3.52966,0.56041
366.194,22.09724,-0.45316,3.52226,0.56024
366.694,22.1112,-0.45429,3.52152,0.56008
367.194,22.12509,-0.45681,3.5121,0.55991
367.694,22.13901,-0.45817,3.49855,0.55975
368.194,22.15297,-0.45936,3.48385,0.55958
368.694,22.16691,-0.46065,3.49098,0.55941
369.194,22.18079,-0.4622,3.48615,0.55924
369.694,22.1947,-0.46378,3.47839,0.55908
370.194,22.20863,-0.46631,3.48004,0.55891
370.694,22.22254,-0.46815,3.47652,0.55874
371.194,22.23646,-0.46923,3.48663,0.55858
371.694,22.2504,-0.47049,3.45459,0.55841
372.194,22.26435,-0.47113,3.4521,0.55824
372.694,22.27833,-0.47268,3.45706,0.55807
373.194,22.2923,-0.47415,3.45802,0.5579
373.694,22.30627,-0.47603,3.45702,0.55774
374.194,22.32025,-0.47662,3.44819,0.55757
374.694,22.3342,-0.47868,3.45048,0.5574
375.194,22.3482,-0.48023,3.44648,0.55723
375.694,22.36219,-0.48226,3.43696,0.55706
376.194,22.3762,-0.4839,3.44203,0.55689
376.694,22.3901,-0.48516,3.43,0.55673
377.194,22.40405,-0.48697,3.41696,0.55656
377.694,22.418,-0.48868,3.41697,0.55639
378.194,22.43195,-0.49041,3.41268,0.55622
378.694,22.44594,-0.49252,3.42461,0.55605
379.194,22.4599,-0.49456,3.42303,0.55588
379.694,22.47393,-0.49775,3.42165,0.55571
380.194,22.48793,-0.50004,3.42343,0.55554
380.694,22.502,-0.50134,3.41264,0.55537
381.194,22.51605,-0.50329,3.40949,0.5552
381.694,22.53012,-0.50492,3.3993,0.55503
382.194,22.54416,-0.50734,3.38592,0.55486
382.694,22.55821,-0.50918,3.37704,0.55469
383.194,22.5723,-0.51097,3.37739,0.55452
383.694,22.58638,-0.51235,3.36258,0.55435
384.194,22.60042,-0.5135,3.34342,0.55418
384.694,22.61449,-0.51544,3.33691,0.55401
385.194,22.62855,-0.51691,3.35513,0.55384
385.694,22.64262,-0.5181,3.33966,0.55367
386.194,22.6567,-0.52005,3.30811,0.5535
386.694,22.6707,-0.52241,3.30775,0.55333
387.194,22.68475,-0.52276,3.3062,0.55316
387.694,22.69881,-0.5247,3.28207,0.55299
388.194,22.71286,-0.52644,3.28634,0.55282
388.694,22.72693,-0.52825,3.27337,0.55265
389.194,22.74106,-0.53007,3.27049,0.55248
389.694,22.75515,-0.53183,3.2752,0.55231
390.194,22.76926,-0.53408,3.26441,0.55214
390.694,22.78329,-0.53533,3.22708,0.55196
391.194,22.79736,-0.53743,3.23016,0.55179
391.694,22.81144,-0.53854,3.21694,0.55162
392.194,22.82553,-0.54058,3.19004,0.55145
392.694,22.83961,-0.54269,3.19278,0.55128
393.194,22.8537,-0.54378,3.16884,0.55111
393.694,22.86784,-0.54536,3.14519,0.55093
394.194,22.88203,-0.54802,3.12369,0.55076
394.694,22.89619,-0.54926,3.11595,0.55059
395.194,22.91031,-0.55046,3.09753,0.55042
395.694,22.9244,-0.55242,3.07896,0.55025
396.194,22.9386,-0.55418,3.06362,0.55007
396.694,22.95273,-0.55535,3.07091,0.5499
397.194,22.96689,-0.55669,3.02975,0.54973
397.694,22.98102,-0.55829,3.01107,0.54956
398.194,22.99517,-0.55948,2.97891,0.54938
398.694,23.00933,-0.56059,2.95926,0.54921
399.194,23.02348,-0.56178,2.94054,0.54904
399.694,23.0377,-0.56253,2.93492,0.54886
400.194,23.05187,-0.5642,2.90185,0.54869
400.694,23.06605,-0.56488,2.8782,0.54852
401.194,23.08024,-0.56613,2.86456,0.54835
401.694,23.09446,-0.56785,2.84981,0.54817
402.194,23.10866,-0.56933,2.82441,0.548
402.694,23.12286,-0.57004,2.81008,0.54783
403.194,23.13701,-0.57045,2.79438,0.54765
403.694,23.1512,-0.57137,2.79313,0.54748
404.194,23.16546,-0.57103,2.77342,0.5473
404.694,23.17964,-0.57266,2.75178,0.54713
405.194,23.19383,-0.57301,2.73457,0.54696
405.694,23.20804,-0.57419,2.7154,0.54678
406.194,23.22223,-0.57478,2.70958,0.54661
406.694,23.23646,-0.57572,2.68335,0.54644
407.194,23.25066,-0.57564,2.66821,0.54626
407.694,23.2649,-0.57565,2.65153,0.54609
408.194,23.2791,-0.57562,2.64708,0.54591
408.694,23.29334,-0.57661,2.64472,0.54574
409.194,23.3076,-0.5771,2.62809,0.54556
409.694,23.3218,-0.57761,2.62745,0.54539
410.194,23.336,-0.57871,2.60293,0.54521
410.694,23.3503,-0.57861,2.58669,0.54504
411.194,23.3645,-0.57962,2.58927,0.54487
411.694,23.37879,-0.57993,2.55993,0.54469
412.194,23.39305,-0.57985,2.55863,0.54452
412.694,23.40735,-0.58084,2.53843,0.54434
413.194,23.4216,-0.58228,2.53506,0.54417
413.694,23.43585,-0.58222,2.51816,0.54399
414.194,23.45009,-0.58223,2.51814,0.54382
414.694,23.46432,-0.58301,2.50588,0.54364
415.194,23.47852,-0.58357,2.50801,0.54346
415.694,23.49275,-0.58354,2.4997,0.54329
416.194,23.50698,-0.58367,2.48231,0.54311
416.694,23.52124,-0.58503,2.47741,0.54294
417.194,23.5355,-0.585,2.47643,0.54276
417.694,23.5498,-0.58649,2.45957,0.54259
418.194,23.56416,-0.58667,2.44836,0.54241
418.694,23.5785,-0.58786,2.43776,0.54224
419.194,23.5928,-0.58792,2.43167,0.54206
419.694,23.60714,-0.58787,2.43588,0.54188
420.194,23.6216,-0.58866,2.42381,0.54171
420.694,23.636,-0.58812,2.41452,0.54153
421.194,23.65043,-0.58862,2.41081,0.54136
421.694,23.6648,-0.58941,2.39957,0.54118
422.194,23.67932,-0.58935,2.38814,0.541
422.694,23.69378,-0.59006,2.38515,0.54083
423.194,23.70812,-0.59072,2.38759,0.54065
423.694,23.7225,-0.59077,2.36758,0.54047
424.194,23.7368,-0.59199,2.37131,0.5403
424.694,23.7512,-0.59219,2.37146,0.54012
425.194,23.76556,-0.59232,2.36388,0.53994
425.694,23.77991,-0.59319,2.352,0.53977
426.194,23.79429,-0.59314,2.36038,0.53959
426.694,23.80868,-0.5935,2.33977,0.53941
427.194,23.82307,-0.59363,2.33737,0.53924
427.694,23.8373,-0.5949,2.32635,0.53906
428.194,23.8517,-0.59505,2.33229,0.53888
428.694,23.86607,-0.59497,2.32397,0.53871
429.194,23.8805,-0.59608,2.32456,0.53853
429.694,23.8949,-0.59642,2.31673,0.53835
430.194,23.90931,-0.59776,2.32187,0.53817
430.694,23.92383,-0.5981,2.3256,0.538
431.194,23.9383,-0.59911,2.31806,0.53782
431.694,23.9527,-0.59912,2.31315,0.53764
432.194,23.96715,-0.59912,2.30204,0.53747
432.694,23.98156,-0.59913,2.29278,0.53729
433.194,23.99599,-0.60008,2.28621,0.53711
433.694,24.01044,-0.60042,2.27903,0.53693
434.194,24.0249,-0.60067,2.27124,0.53675
434.694,24.03942,-0.60194,2.26879,0.53658
435.194,24.05389,-0.60197,2.27909,0.5364
435.694,24.0684,-0.60337,2.26498,0.53622
436.194,24.08288,-0.60351,2.25687,0.53604
436.694,24.09744,-0.60322,2.24714,0.53587
437.194,24.11189,-0.60365,2.23332,0.53569
437.694,24.1264,-0.60359,2.22334,0.53551
438.194,24.14084,-0.60402,2.22331,0.53533
438.694,24.15537,-0.60497,2.22356,0.53515
439.194,24.16988,-0.60558,2.21909,0.53498
439.694,24.18435,-0.60629,2.21454,0.5348
440.194,24.19887,-0.60649,2.20129,0.53462
440.694,24.21337,-0.60765,2.19265,0.53444
441.194,24.2279,-0.60756,2.17152,0.53426
441.694,24.24245,-0.60765,2.15836,0.53408
442.194,24.25698,-0.60885,2.16068,0.5339
442.694,24.27149,-0.60782,2.16202,0.53373
443.194,24.28604,-0.60876,2.14722,0.53355
443.694,24.3006,-0.60899,2.14276,0.53337
444.194,24.31521,-0.60978,2.13637,0.53319
444.694,24.32977,-0.61127,2.12576,0.53301
445.194,24.34436,-0.61155,2.11393,0.53283
445.694,24.35896,-0.61251,2.10313,0.53265
446.194,24.37357,-0.61307,2.10104,0.53248
446.694,24.38812,-0.61304,2.09791,0.5323
447.194,24.4027,-0.61365,2.0848,0.53212
447.694,24.41731,-0.61442,2.07579,0.53194
448.194,24.43186,-0.61438,2.07001,0.53176
448.694,24.4465,-0.61545,2.07594,0.53158
449.194,24.46102,-0.61577,2.07818,0.5314
449.694,24.47559,-0.61581,2.07463,0.53122
450.194,24.4902,-0.6158,2.06724,0.53104
450.694,24.50481,-0.61668,2.05095,0.53086
451.194,24.5195,-0.61677,2.05022,0.53068
451.694,24.53412,-0.61714,2.04706,0.5305
452.194,24.54875,-0.61734,2.04936,0.53033
452.694,24.56346,-0.61851,2.04589,0.53015
453.194,24.57809,-0.61842,2.04386,0.52997
453.694,24.59272,-0.61853,2.03427,0.52979
454.194,24.60735,-0.61963,2.02651,0.52961
454.694,24.62199,-0.6198,2.02812,0.52943
455.194,24.63665,-0.62089,2.01792,0.52925
455.694,24.65129,-0.62102,2.01114,0.52907
456.194,24.66597,-0.62163,2.00624,0.52889
456.694,24.68068,-0.62237,1.99991,0.52871
457.194,24.69527,-0.62232,1.99678,0.52853
457.694,24.70994,-0.62301,1.9942,0.52835
458.194,24.72469,-0.62388,1.98643,0.52817
458.694,24.7394,-0.62376,1.9758,0.52799
459.194,24.75412,-0.62582,1.97964,0.52781
459.694,24.7688,-0.62657,1.98645,0.52763
460.194,24.78361,-0.62657,1.96548,0.52745
460.694,24.79834,-0.62627,1.97594,0.52727
461.194,24.81305,-0.62617,1.95687,0.52709
461.694,24.82779,-0.62646,1.95022,0.52691
462.194,24.84251,-0.62661,1.94385,0.52673
462.694,24.85726,-0.6278,1.94331,0.52655
463.194,24.872,-0.62786,1.93641,0.52637
463.694,24.88673,-0.6289,1.93693,0.52619
464.194,24.90145,-0.62915,1.92889,0.52601
464.694,24.9162,-0.62916,1.92754,0.52583
465.194,24.93091,-0.62956,1.91974,0.52565
465.694,24.9456,-0.63021,1.91591,0.52547
466.194,24.9604,-0.63016,1.91686,0.52529
466.694,24.9752,-0.63016,1.901,0.52511
467.194,24.98999,-0.63049,1.89381,0.52493
467.694,25.0047,-0.63181,1.89096,0.52475
468.194,25.01955,-0.63169,1.88795,0.52457
468.694,25.03434,-0.63247,1.88673,0.52439
469.194,25.0491,-0.63303,1.86685,0.52421
469.694,25.06393,-0.63301,1.86932,0.52402
470.194,25.07872,-0.63302,1.87348,0.52384
470.694,25.0935,-0.63318,1.85816,0.52366
471.194,25.10829,-0.63425,1.84892,0.52348
471.694,25.1231,-0.63429,1.84347,0.5233
472.194,25.13787,-0.63459,1.83809,0.52312
472.694,25.15267,-0.63458,1.83332,0.52294
473.194,25.16744,-0.63421,1.82292,0.52276
473.694,25.18229,-0.63561,1.8255,0.52258
474.194,25.19716,-0.63583,1.8057,0.5224
474.694,25.212,-0.63671,1.80064,0.52222
475.194,25.22685,-0.63744,1.79475,0.52204
475.694,25.2417,-0.63739,1.79344,0.52186
476.194,25.25659,-0.63739,1.79375,0.52168
476.694,25.27143,-0.63739,1.78165,0.52149
477.194,25.2863,-0.6375,1.78144,0.52131
477.694,25.30113,-0.63877,1.7902,0.52113
478.194,25.316,-0.63864,1.77644,0.52095
478.694,25.33093,-0.63946,1.77352,0.52077
479.194,25.34579,-0.64029,1.75976,0.52059
479.694,25.3607,-0.64063,1.75642,0.52041
480.194,25.3756,-0.64164,1.7622,0.52023
480.694,25.3905,-0.64156,1.75734,0.52005
481.194,25.4055,-0.64155,1.7527,0.51987
481.694,25.42041,-0.64155,1.74098,0.51968
482.194,25.43535,-0.64211,1.74509,0.5195
482.694,25.45028,-0.6431,1.73781,0.51932
483.194,25.4652,-0.64316,1.73597,0.51914
483.694,25.48009,-0.64442,1.73031,0.51896
484.194,25.495,-0.64445,1.7238,0.51878
484.694,25.50992,-0.64573,1.72868,0.5186
485.194,25.52485,-0.64571,1.7093,0.51842
485.694,25.53976,-0.64573,1.70775,0.51824
486.194,25.5547,-0.6466,1.71022,0.51805
486.694,25.56964,-0.64717,1.70035,0.51787
487.194,25.58456,-0.64717,1.69341,0.51769
487.694,25.5995,-0.64716,1.68216,0.51751
488.194,25.61446,-0.64795,1.69373,0.51733
488.694,25.62943,-0.64848,1.68693,0.51715
489.194,25.6444,-0.6487,1.67533,0.51697
489.694,25.65938,-0.64977,1.67732,0.51679
490.194,25.67439,-0.64977,1.66966,0.5166
490.694,25.68935,-0.6498,1.65799,0.51642
491.194,25.70436,-0.65023,1.64899,0.51624
491.694,25.71933,-0.65076,1.64005,0.51606
492.194,25.73434,-0.65202,1.62558,0.51588
492.694,25.74929,-0.6521,1.61456,0.5157
493.194,25.76435,-0.65202,1.61145,0.51552
493.694,25.77937,-0.65303,1.60965,0.51533
494.194,25.79438,-0.65344,1.60365,0.51515
494.694,25.8095,-0.65338,1.59839,0.51497
495.194,25.82455,-0.6547,1.5941,0.51479
495.694,25.83965,-0.65484,1.58037,0.51461
496.194,25.85471,-0.65576,1.5816,0.51443
496.694,25.86979,-0.65638,1.56821,0.51425
497.194,25.8849,-0.65687,1.56955,0.51406
497.694,25.89986,-0.65791,1.57224,0.51388
498.194,25.91487,-0.6579,1.5614,0.5137
498.694,25.92993,-0.65791,1.56001,0.51352
499.194,25.94495,-0.65837,1.5528,0.51334
499.694,25.96,-0.65923,1.54325,0.51316
500.194,25.97512,-0.65923,1.54591,0.51298
500.694,25.99022,-0.65923,1.54724,0.51279
501.194,26.00534,-0.6593,1.53647,0.51261
501.694,26.0204,-0.66056,1.53825,0.51243
502.194,26.0355,-0.66052,1.53174,0.51225
502.694,26.05061,-0.66054,1.52084,0.51207
503.194,26.06565,-0.66054,1.50529,0.51189
503.694,26.08074,-0.66053,1.50451,0.5117
504.194,26.09583,-0.66086,1.50104,0.51152
504.694,26.11095,-0.66188,1.49173,0.51134
505.194,26.1261,-0.66184,1.49118,0.51116
505.694,26.14126,-0.6623,1.48996,0.51098
506.194,26.15638,-0.66324,1.48066,0.5108
506.694,26.17142,-0.66316,1.46522,0.51062
507.194,26.1865,-0.66355,1.46724,0.51043
507.694,26.20169,-0.66453,1.46495,0.51025
508.194,26.2169,-0.66448,1.4501,0.51007
508.694,26.232,-0.6645,1.43619,0.50989
509.194,26.24717,-0.66558,1.44737,0.50971
509.694,26.2624,-0.66579,1.44069,0.50953
510.194,26.2776,-0.66581,1.4324,0.50934
510.694,26.2928,-0.66576,1.42431,0.50916
511.194,26.3079,-0.66657,1.42771,0.50898
511.694,26.32312,-0.66749,1.41253,0.5088
512.194,26.33829,-0.66746,1.40994,0.50862
512.694,26.35347,-0.66761,1.41053,0.50844
513.194,26.3687,-0.66872,1.4029,0.50826
513.694,26.38386,-0.66876,1.39119,0.50807
514.194,26.3991,-0.66876,1.38814,0.50789
514.694,26.4143,-0.66947,1.38092,0.50771
515.194,26.4295,-0.67104,1.3734,0.50753
515.694,26.4447,-0.67141,1.35062,0.50735
516.194,26.45995,-0.6714,1.34788,0.50717
516.694,26.4752,-0.67188,1.34364,0.50699
517.194,26.49046,-0.67271,1.34862,0.5068
517.694,26.5057,-0.67277,1.32972,0.50662
518.194,26.52096,-0.67431,1.31742,0.50644
518.694,26.53623,-0.67413,1.31382,0.50626
519.194,26.5515,-0.67535,1.3102,0.50608
519.694,26.56672,-0.67568,1.31506,0.5059
520.194,26.582,-0.67567,1.30235,0.50572
520.694,26.5972,-0.67566,1.2857,0.50553
521.194,26.61243,-0.67562,1.28938,0.50535
521.694,26.62763,-0.67643,1.3132,0.50517
522.194,26.64285,-0.67701,1.30761,0.50499
522.694,26.6581,-0.67692,1.29435,0.50481
523.194,26.6734,-0.67822,1.28794,0.50463
523.694,26.6886,-0.67842,1.27449,0.50445
524.194,26.70393,-0.67919,1.26484,0.50426
524.694,26.7193,-0.67985,1.25657,0.50408
525.194,26.73463,-0.67984,1.2446,0.5039
525.694,26.7499,-0.67984,1.23446,0.50372
526.194,26.76525,-0.68018,1.22876,0.50354
526.694,26.7806,-0.68049,1.22425,0.50336
527.194,26.79583,-0.6809,1.21445,0.50318
527.694,26.81103,-0.68115,1.20666,0.503
528.194,26.8263,-0.68125,1.20374,0.50281
528.694,26.8415,-0.68277,1.19562,0.50263
529.194,26.8568,-0.68262,1.19526,0.50245
529.694,26.872,-0.68352,1.19515,0.50227
530.194,26.88738,-0.68404,1.19787,0.50209
530.694,26.90278,-0.68402,1.18841,0.50191
531.194,26.9181,-0.68397,1.17668,0.50173
531.694,26.9335,-0.68495,1.17949,0.50155
532.194,26.9488,-0.68534,1.16631,0.50136
532.694,26.96418,-0.68533,1.16218,0.50118
533.194,26.97953,-0.68533,1.14861,0.501
533.694,26.9948,-0.68533,1.13833,0.50082
534.194,27.01003,-0.68533,1.13377,0.50064
534.694,27.0254,-0.68623,1.13109,0.50046
535.194,27.04079,-0.68663,1.13293,0.50028
535.694,27.05615,-0.68668,1.1298,0.5001
536.194,27.0715,-0.68873,1.12861,0.49992
536.694,27.087,-0.6886,1.1121,0.49974
537.194,27.10248,-0.68863,1.09967,0.49955
537.694,27.11784,-0.68853,1.10959,0.49937
538.194,27.1333,-0.68971,1.10721,0.49919
538.694,27.1487,-0.68961,1.09131,0.49901
539.194,27.1641,-0.68975,1.07619,0.49883
539.694,27.17956,-0.68991,1.07255,0.49865
540.194,27.19499,-0.69056,1.08062,0.49847
540.694,27.21053,-0.69174,1.07927,0.49829
541.194,27.22604,-0.69214,1.07294,0.49811
541.694,27.2415,-0.69214,1.06941,0.49793
542.194,27.25702,-0.69321,1.05936,0.49775
542.694,27.2725,-0.69344,1.04964,0.49757
543.194,27.2881,-0.69337,1.03567,0.49739
543.694,27.30355,-0.69456,1.03525,0.4972
544.194,27.31897,-0.69412,1.03453,0.49702
544.694,27.33444,-0.6941,1.03311,0.49684
545.194,27.3499,-0.6941,1.01243,0.49666
545.694,27.36532,-0.69439,0.99796,0.49648
546.194,27.38076,-0.69544,0.99446,0.4963
546.694,27.3962,-0.69541,0.98388,0.49612
547.194,27.41167,-0.69541,0.96927,0.49594
547.694,27.4272,-0.69563,0.96075,0.49576
548.194,27.44265,-0.69609,0.95794,0.49558
548.694,27.4582,-0.69607,0.94518,0.4954
549.194,27.47372,-0.69607,0.93007,0.49522
549.694,27.48922,-0.69608,0.91672,0.49504
550.194,27.50475,-0.69632,0.90342,0.49486
550.694,27.5202,-0.6974,0.8898,0.49468
551.194,27.5357,-0.69733,0.88448,0.4945
551.694,27.55118,-0.69816,0.87924,0.49432
552.194,27.5666,-0.69886,0.87385,0.49414
552.694,27.58217,-0.69883,0.86164,0.49396
553.194,27.5977,-0.69877,0.85407,0.49378
553.694,27.6132,-0.69968,0.83811,0.4936
554.194,27.6287,-0.70102,0.83403,0.49342
554.694,27.64429,-0.70146,0.83439,0.49324
555.194,27.65985,-0.70145,0.82483,0.49306
555.694,27.6754,-0.70174,0.8316,0.49288
556.194,27.6909,-0.70279,0.83915,0.4927
556.694,27.7064,-0.70273,0.83492,0.49252
557.194,27.722,-0.70262,0.82222,0.49234
557.694,27.7375,-0.70146,0.82579,0.49216
558.194,27.7531,-0.70209,0.82611,0.49198
558.694,27.76865,-0.70279,0.82485,0.4918
559.194,27.7843,-0.70278,0.81664,0.49162
559.694,27.7998,-0.70277,0.82448,0.49144
560.194,27.8154,-0.70278,0.80909,0.49126
560.694,27.831,-0.70281,0.81072,0.49108
561.194,27.84658,-0.70382,0.81189,0.4909
561.694,27.8622,-0.70521,0.81828,0.49072
562.194,27.87777,-0.7054,0.81835,0.49054
562.694,27.89337,-0.7054,0.81716,0.49036
563.194,27.90894,-0.70565,0.80382,0.49018
563.694,27.92452,-0.70682,0.80197,0.49
564.194,27.9401,-0.70638,0.80057,0.48982
564.694,27.9557,-0.70522,0.80313,0.48964
565.194,27.97121,-0.70648,0.80229,0.48946
565.694,27.98678,-0.70671,0.80161,0.48928
566.194,28.0024,-0.70792,0.79707,0.4891
566.694,28.0181,-0.70977,0.80697,0.48892
567.194,28.03375,-0.70987,0.81458,0.48874
567.694,28.0494,-0.71098,0.80759,0.48857
568.194,28.06515,-0.71116,0.79991,0.48839
568.694,28.08083,-0.71133,0.81353,0.48821
569.194,28.09651,-0.71133,0.83397,0.48803
569.694,28.11215,-0.71132,0.8378,0.48785
570.194,28.12783,-0.71137,0.84274,0.48767
570.694,28.14348,-0.71013,0.89069,0.48749
571.194,28.15912,-0.71057,1.00784,0.48731
571.694,28.17476,-0.71102,1.07944,0.48713
572.194,28.19042,-0.71102,1.12091,0.48695
572.694,28.20605,-0.71338,1.13696,0.48678
573.194,28.2217,-0.71383,1.14203,0.4866
573.694,28.2374,-0.71384,1.13694,0.48642
574.194,28.2531,-0.71446,1.10708,0.48624
574.694,28.26882,-0.71574,1.0722,0.48606
575.194,28.28442,-0.71654,1.02033,0.48588
575.694,28.3,-0.71648,0.98642,0.4857
576.194,28.31573,-0.71656,0.95176,0.48552
576.694,28.3314,-0.71785,0.91107,0.48535
577.194,28.347,-0.71777,0.87596,0.48517
577.694,28.3628,-0.71779,0.8346,0.48499
578.194,28.37857,-0.71779,0.79767,0.48481
578.694,28.39439,-0.71784,0.76028,0.48463
579.194,28.41007,-0.71911,0.73052,0.48445
579.694,28.42575,-0.71911,0.68549,0.48428
580.194,28.44148,-0.71918,0.65758,0.4841
580.694,28.45717,-0.7198,0.63393,0.48392
581.194,28.4729,-0.71981,0.61492,0.48374
581.694,28.48865,-0.71918,0.58802,0.48356
582.194,28.50442,-0.71913,0.56297,0.48339
582.694,28.5202,-0.71911,0.53498,0.48321
583.194,28.5359,-0.7191,0.51336,0.48303
583.694,28.55167,-0.7196,0.47802,0.48285
584.194,28.56741,-0.72047,0.47788,0.48267
584.694,28.58315,-0.72038,0.46118,0.4825
585.194,28.59892,-0.72132,0.44879,0.48232
585.694,28.61464,-0.72176,0.43498,0.48214
586.194,28.6304,-0.72175,0.41922,0.48196
586.694,28.64617,-0.72175,0.41231,0.48178
587.194,28.6619,-0.72173,0.40735,0.48161
587.694,28.6777,-0.72222,0.39698,0.48143
588.194,28.6935,-0.72313,0.4006,0.48125
588.694,28.7093,-0.72302,0.39344,0.48107
589.194,28.72513,-0.72432,0.37834,0.4809
589.694,28.7409,-0.72438,0.37145,0.48072
590.194,28.75672,-0.72435,0.36423,0.48054
590.694,28.77256,-0.72416,0.34802,0.48037
591.194,28.7884,-0.72336,0.34268,0.48019
591.694,28.80412,-0.72422,0.33076,0.48001
592.194,28.8199,-0.72492,0.32283,0.47983
592.694,28.83567,-0.72542,0.31396,0.47966
593.194,28.85142,-0.72755,0.31097,0.47948
593.694,28.8672,-0.7282,0.31141,0.4793
594.194,28.88304,-0.72928,0.30445,0.47913
594.694,28.89885,-0.72918,0.29848,0.47895
595.194,28.91468,-0.73023,0.29229,0.47877
595.694,28.93058,-0.73052,0.2847,0.4786
596.194,28.9464,-0.73052,0.2788,0.47842
596.694,28.9622,-0.73053,0.26932,0.47824
597.194,28.978,-0.73048,0.27617,0.47807
597.694,28.9939,-0.73149,0.28642,0.47789
598.194,29.0097,-0.73185,0.29693,0.47771
598.694,29.0255,-0.73221,0.30399,0.47754
599.194,29.04137,-0.73249,0.30392,0.47736
599.694,29.05726,-0.7324,0.30895,0.47718
600.194,29.0731,-0.73367,0.30554,0.47701
600.694,29.0889,-0.7338,0.29956,0.47683
601.194,29.1048,-0.73381,0.29316,0.47665
601.694,29.1207,-0.73381,0.29111,0.47648
602.194,29.1366,-0.7332,0.2942,0.4763
602.694,29.1525,-0.73255,0.28826,0.47613
603.194,29.1684,-0.73379,0.2882,0.47595
603.694,29.1843,-0.73381,0.28371,0.47577
604.194,29.2002,-0.73381,0.28068,0.4756
604.694,29.2161,-0.73372,0.2766,0.47542
605.194,29.232,-0.73498,0.27743,0.47525
605.694,29.24792,-0.73432,0.27712,0.47507
606.194,29.2638,-0.73419,0.26421,0.4749
606.694,29.2797,-0.73413,0.28269,0.47472
607.194,29.2956,-0.7354,0.27494,0.47454
607.694,29.3115,-0.73545,0.27246,0.47437
608.194,29.32743,-0.73545,0.27936,0.47419
608.694,29.3433,-0.73547,0.27154,0.47402
609.194,29.35928,-0.737,0.26792,0.47384
609.694,29.3752,-0.73815,0.25205,0.47367
610.194,29.3911,-0.73808,0.2686,0.47349
610.694,29.4071,-0.73851,0.25814,0.47332
611.194,29.4231,-0.73946,0.24532,0.47314
611.694,29.43905,-0.73941,0.23607,0.47297
612.194,29.455,-0.73941,0.22062,0.47279
612.694,29.47085,-0.73941,0.22125,0.47262
613.194,29.48678,-0.74045,0.22126,0.47244
613.694,29.50263,-0.7407,0.22175,0.47227
614.194,29.5185,-0.74072,0.21439,0.47209
614.694,29.53445,-0.74072,0.21648,0.47192
615.194,29.55033,-0.74072,0.21005,0.47174
615.694,29.56625,-0.74107,0.20575,0.47157
616.194,29.5822,-0.74208,0.20474,0.47139
616.694,29.5982,-0.74205,0.19238,0.47122
617.194,29.61417,-0.74241,0.20695,0.47105
617.694,29.6301,-0.74335,0.20892,0.47087
618.194,29.64616,-0.74334,0.19671,0.4707
618.694,29.66218,-0.74331,0.20381,0.47052
619.194,29.67812,-0.74416,0.21586,0.47035
619.694,29.69405,-0.74468,0.22747,0.47018
620.194,29.71,-0.74467,0.23213,0.47
620.694,29.72597,-0.74467,0.24692,0.46983
621.194,29.74192,-0.74467,0.24665,0.46965
621.694,29.75797,-0.74449,0.25079,0.46948
622.194,29.774,-0.74345,0.2615,0.46931
622.694,29.78995,-0.74467,0.26349,0.46913
623.194,29.806,-0.74466,0.25993,0.46896
623.694,29.82195,-0.74466,0.22787,0.46878
624.194,29.83799,-0.74632,0.23432,0.46861
624.694,29.85401,-0.74732,0.23489,0.46844
625.194,29.87,-0.7473,0.2444,0.46826
625.694,29.88604,-0.74764,0.24895,0.46809
626.194,29.9021,-0.74866,0.23837,0.46792
626.694,29.9181,-0.74861,0.22781,0.46774
627.194,29.93412,-0.74862,0.23231,0.46757
627.694,29.95011,-0.74862,0.24167,0.4674
628.194,29.96616,-0.74862,0.2309,0.46723
628.694,29.98217,-0.74862,0.21306,0.46705
629.194,29.99832,-0.74862,0.21715,0.46688