File: 01_Data/Fiber_Cement_Board/STA/N2/30K_min/Fiber_Cement_Board_STA_N2_30KData_210624_R1.csv
##Temp./Â°C,Time/min,Mass loss(subtr.2)/mg,DSC(subtr.2)/mW,Sensit./(uV/mW)
50.646,10.01,-0.00461,-0.12481,0.6235
51.146,10.93091,-0.00538792,-0.0577657,0.6235
51.646,11.14227,-0.00759502,-0.02089388,0.62349
52.146,11.2844,-0.008714765,0.03258396,0.62348
52.646,11.39231,-0.00834786,0.07985715,0.62348
53.146,11.48295,-0.007905578,0.12037,0.62347
53.646,11.56038,-0.00736072,0.16521,0.62346
54.146,11.6316,-0.00669539,0.20052,0.62346
54.646,11.69529,-0.007067596,0.23287,0.62345
55.146,11.7544,-0.006088562,0.25447,0.62344
55.646,11.80965,-0.005813786,0.29948,0.62343
56.146,11.8618,-0.00635679,0.32395,0.62342
56.646,11.9109,-0.0069987,0.36153,0.62341
57.146,11.95773,-0.00691003,0.38934,0.6234
57.646,12.00255,-0.005716034,0.42065,0.62339
58.146,12.04552,-0.00657645,0.4409,0.62338
58.646,12.08694,-0.00767176,0.47261,0.62337
59.146,12.1269,-0.006636104,0.49694,0.62336
59.646,12.16559,-0.007143,0.5227,0.62335
60.146,12.20307,-0.006320155,0.54832,0.62334
60.646,12.24005,-0.007244115,0.57288,0.62333
61.146,12.276,-0.00758627,0.59631,0.62331
61.646,12.31113,-0.008381091,0.62389,0.6233
62.146,12.3455,-0.008700743,0.64777,0.62329
62.646,12.37904,-0.008813064,0.66398,0.62327
63.146,12.41221,-0.009547765,0.69422,0.62326
63.646,12.44475,-0.01069877,0.71931,0.62324
64.146,12.47678,-0.01015683,0.74112,0.62323
64.646,12.50803,-0.009026258,0.76641,0.62321
65.146,12.5388,-0.008804537,0.77874,0.6232
65.646,12.5684,-0.00946882,0.80878,0.62318
66.146,12.5982,-0.00969389,0.83407,0.62316
66.646,12.6279,-0.00965441,0.85959,0.62315
67.146,12.6576,-0.009834303,0.87474,0.62313
67.646,12.68705,-0.009684101,0.8977,0.62311
68.146,12.71568,-0.009985394,0.92998,0.62309
68.646,12.74443,-0.01011722,0.94244,0.62308
69.146,12.77253,-0.01058787,0.95535,0.62306
69.646,12.8004,-0.01144551,0.96892,0.62304
70.146,12.828,-0.0112998,1.00412,0.62302
70.646,12.85515,-0.011561,1.01897,0.623
71.146,12.88225,-0.01159636,1.05071,0.62298
71.646,12.90923,-0.01240878,1.06504,0.62296
72.146,12.9361,-0.01238763,1.08824,0.62294
72.646,12.96261,-0.01260401,1.10844,0.62292
73.146,12.98898,-0.01271986,1.13663,0.62289
73.646,13.0152,-0.01299406,1.16271,0.62287
74.146,13.04135,-0.01206019,1.18005,0.62285
74.646,13.0673,-0.0120004,1.20923,0.62283
75.146,13.09296,-0.01327568,1.22113,0.6228
75.646,13.11832,-0.01260679,1.23917,0.62278
76.146,13.1437,-0.01203954,1.27201,0.62276
76.646,13.16901,-0.0122358,1.30844,0.62273
77.146,13.19435,-0.01378203,1.32927,0.62271
77.646,13.21945,-0.01369229,1.35079,0.62268
78.146,13.24429,-0.01503732,1.36815,0.62266
78.646,13.26893,-0.0135811,1.39502,0.62263
79.146,13.2933,-0.01414125,1.42592,0.62261
79.646,13.31776,-0.01471389,1.45668,0.62258
80.146,13.3422,-0.01614381,1.48908,0.62255
80.646,13.3665,-0.01637456,1.50217,0.62252
81.146,13.39078,-0.01647705,1.52883,0.6225
81.646,13.41477,-0.01776367,1.57622,0.62247
82.146,13.4387,-0.01643294,1.59805,0.62244
82.646,13.4624,-0.0166389,1.61338,0.62241
83.146,13.4862,-0.01778654,1.65658,0.62238
83.646,13.50978,-0.01910602,1.68049,0.62235
84.146,13.5333,-0.01812782,1.71428,0.62232
84.646,13.5568,-0.01823192,1.74046,0.62229
85.146,13.57991,-0.01941277,1.76918,0.62226
85.646,13.6031,-0.02063311,1.79646,0.62223
86.146,13.62611,-0.0211533,1.82686,0.6222
86.646,13.64905,-0.02237061,1.85634,0.62217
87.146,13.67186,-0.02384873,1.91056,0.62214
87.646,13.69449,-0.02380489,1.93484,0.62211
88.146,13.7171,-0.02380631,1.9518,0.62207
88.646,13.7395,-0.02382323,1.9984,0.62204
89.146,13.76196,-0.02262891,2.01519,0.62201
89.646,13.78434,-0.02381532,2.04363,0.62197
90.146,13.80662,-0.02379011,2.08206,0.62194
90.646,13.8288,-0.02471675,2.11279,0.62191
91.146,13.85077,-0.02527676,2.1497,0.62187
91.646,13.8727,-0.02655599,2.16891,0.62184
92.146,13.89451,-0.02655203,2.19644,0.6218
92.646,13.91619,-0.02665417,2.23393,0.62176
93.146,13.9379,-0.02791075,2.25863,0.62173
93.646,13.95951,-0.02787095,2.29296,0.62169
94.146,13.981,-0.02785756,2.3163,0.62165
94.646,14.0025,-0.02921338,2.34581,0.62162
95.146,14.02391,-0.03050568,2.38171,0.62158
95.646,14.0452,-0.03076718,2.40765,0.62154
96.146,14.0663,-0.03184763,2.43584,0.6215
96.646,14.0873,-0.03180554,2.47627,0.62146
97.146,14.1082,-0.03173695,2.49342,0.62143
97.646,14.12912,-0.03312569,2.51108,0.62139
98.146,14.1499,-0.03313002,2.55143,0.62135
98.646,14.1709,-0.03471374,2.58529,0.62131
99.146,14.19162,-0.03465408,2.60733,0.62127
99.646,14.2123,-0.03499678,2.63855,0.62123
100.146,14.23264,-0.03583777,2.66807,0.62118
100.646,14.2531,-0.03711961,2.69411,0.62114
101.146,14.27339,-0.03729008,2.72167,0.6211
101.646,14.29367,-0.03722832,2.75469,0.62106
102.146,14.314,-0.03851265,2.77744,0.62102
102.646,14.33425,-0.03863317,2.79285,0.62097
103.146,14.3544,-0.03905996,2.83089,0.62093
103.646,14.37452,-0.03997846,2.85966,0.62089
104.146,14.3945,-0.0408827,2.88282,0.62084
104.646,14.41443,-0.04127643,2.90076,0.6208
105.146,14.43416,-0.0412818,2.92465,0.62075
105.646,14.4538,-0.04338028,2.95514,0.62071
106.146,14.47344,-0.04388201,2.97297,0.62066
106.646,14.49305,-0.04540655,3.00452,0.62062
107.146,14.51249,-0.04532457,3.02324,0.62057
107.646,14.53196,-0.04669552,3.04533,0.62053
108.146,14.55141,-0.04708535,3.06816,0.62048
108.646,14.5708,-0.04792957,3.09968,0.62043
109.146,14.59021,-0.04793956,3.12037,0.62039
109.646,14.60951,-0.04794688,3.13859,0.62034
110.146,14.6288,-0.04881626,3.15687,0.62029
110.646,14.648,-0.04917609,3.18426,0.62024
111.146,14.66695,-0.05053118,3.20949,0.62019
111.646,14.68586,-0.05050275,3.23622,0.62014
112.146,14.70488,-0.05155958,3.25739,0.62009
112.646,14.72375,-0.05283005,3.27247,0.62004
113.146,14.7425,-0.05318252,3.29527,0.61999
113.646,14.7613,-0.05365059,3.31029,0.61994
114.146,14.78006,-0.0548543,3.33183,0.61989
114.646,14.7987,-0.05586504,3.37245,0.61984
115.146,14.81732,-0.05598223,3.37761,0.61979
115.646,14.83589,-0.05727963,3.39836,0.61974
116.146,14.85445,-0.05800429,3.40736,0.61969
116.646,14.87289,-0.05810694,3.43587,0.61963
117.146,14.89131,-0.05993723,3.45408,0.61958
117.646,14.90971,-0.05989148,3.46512,0.61953
118.146,14.92799,-0.06057157,3.48124,0.61947
118.646,14.9463,-0.06262565,3.49293,0.61942
119.146,14.96445,-0.06247036,3.50912,0.61937
119.646,14.9825,-0.06387359,3.53039,0.61931
120.146,15.0006,-0.06516171,3.54715,0.61926
120.646,15.0186,-0.06515738,3.55155,0.6192
121.146,15.03651,-0.06510957,3.57094,0.61915
121.646,15.05451,-0.06622055,3.59957,0.61909
122.146,15.07249,-0.06650241,3.612,0.61903
122.646,15.09031,-0.06826982,3.62258,0.61898
123.146,15.1082,-0.06923068,3.62931,0.61892
123.646,15.126,-0.06920672,3.66325,0.61886
124.146,15.1437,-0.06913984,3.66916,0.61881
124.646,15.1614,-0.07030935,3.68006,0.61875
125.146,15.17896,-0.07178195,3.69882,0.61869
125.646,15.19656,-0.07182512,3.71918,0.61863
126.146,15.2141,-0.07259617,3.72604,0.61857
126.646,15.2316,-0.07313079,3.73897,0.61851
127.146,15.24894,-0.07400759,3.75866,0.61846
127.646,15.2664,-0.07583498,3.77851,0.6184
128.146,15.2837,-0.07593182,3.79591,0.61834
128.646,15.301,-0.07726842,3.8022,0.61827
129.146,15.3183,-0.07721078,3.80269,0.61821
129.646,15.3356,-0.07720442,3.81131,0.61815
130.146,15.3528,-0.07777352,3.83264,0.61809
130.646,15.37001,-0.07952081,3.83797,0.61803
131.146,15.3871,-0.07980782,3.84462,0.61797
131.646,15.40426,-0.08084776,3.85609,0.61791
132.146,15.42128,-0.08113886,3.87207,0.61784
132.646,15.4382,-0.08199156,3.89168,0.61778
133.146,15.4551,-0.08343397,3.90741,0.61772
133.646,15.47197,-0.08395825,3.91569,0.61765
134.146,15.48881,-0.08572558,3.92518,0.61759
134.646,15.50561,-0.08680685,3.9344,0.61752
135.146,15.52244,-0.08671698,3.93212,0.61746
135.646,15.5392,-0.0876815,3.93644,0.61739
136.146,15.556,-0.08808732,3.94497,0.61733
136.646,15.5726,-0.08809385,3.96346,0.61726
137.146,15.5892,-0.08804127,3.96762,0.6172
137.646,15.60583,-0.08944658,3.98542,0.61713
138.146,15.6224,-0.09078902,3.99655,0.61706
138.646,15.6389,-0.0907207,4.00236,0.617
139.146,15.6555,-0.09129586,4.00165,0.61693
139.646,15.6721,-0.09237579,4.01311,0.61686
140.146,15.68857,-0.09450386,4.01768,0.61679
140.646,15.705,-0.09503299,4.0205,0.61673
141.146,15.72141,-0.09619416,4.02517,0.61666
141.646,15.7378,-0.09642257,4.02936,0.61659
142.146,15.75406,-0.09641392,4.03822,0.61652
142.646,15.7704,-0.09678285,4.04609,0.61645
143.146,15.78669,-0.09785715,4.04848,0.61638
143.646,15.80284,-0.09822042,4.05733,0.61631
144.146,15.819,-0.10056,4.0528,0.61624
144.646,15.835,-0.10064,4.06306,0.61617
145.146,15.85104,-0.10195,4.05942,0.6161
145.646,15.86705,-0.10177,4.0554,0.61603
146.146,15.88292,-0.10334,4.05611,0.61596
146.646,15.899,-0.10354,4.06899,0.61588
147.146,15.915,-0.10361,4.08155,0.61581
147.646,15.93099,-0.10491,4.08799,0.61574
148.146,15.94709,-0.10478,4.09427,0.61567
148.646,15.96318,-0.10634,4.10011,0.61559
149.146,15.97935,-0.10771,4.0988,0.61552
149.646,15.9954,-0.10773,4.11088,0.61544
150.146,16.0114,-0.10777,4.11104,0.61537
150.646,16.02743,-0.10892,4.11113,0.6153
151.146,16.04326,-0.10903,4.1157,0.61522
151.646,16.0591,-0.10901,4.11046,0.61515
152.146,16.07488,-0.11007,4.10658,0.61507
152.646,16.09061,-0.11034,4.13332,0.61499
153.146,16.1064,-0.1108,4.14398,0.61492
153.646,16.1221,-0.11331,4.13714,0.61484
154.146,16.13787,-0.11364,4.14035,0.61477
154.646,16.15352,-0.11468,4.14585,0.61469
155.146,16.16916,-0.11461,4.14941,0.61461
155.646,16.18488,-0.11546,4.16187,0.61453
156.146,16.20052,-0.11593,4.14803,0.61446
156.646,16.21617,-0.11585,4.15113,0.61438
157.146,16.23181,-0.11706,4.14502,0.6143
157.646,16.2475,-0.11753,4.16064,0.61422
158.146,16.26312,-0.11872,4.17552,0.61414
158.646,16.2787,-0.11954,4.17557,0.61406
159.146,16.29427,-0.12001,4.15018,0.61398
159.646,16.3098,-0.12,4.17798,0.6139
160.146,16.32526,-0.12095,4.18892,0.61382
160.646,16.34071,-0.12142,4.17066,0.61374
161.146,16.35622,-0.12134,4.17865,0.61366
161.646,16.37171,-0.12255,4.18775,0.61358
162.146,16.38721,-0.12287,4.17144,0.6135
162.646,16.40263,-0.12296,4.19288,0.61342
163.146,16.4181,-0.12418,4.18861,0.61333
163.646,16.4335,-0.1242,4.19334,0.61325
164.146,16.4489,-0.12515,4.19343,0.61317
164.646,16.4642,-0.12568,4.20363,0.61309
165.146,16.4796,-0.12632,4.1905,0.613
165.646,16.49492,-0.12722,4.20119,0.61292
166.146,16.5103,-0.12861,4.20411,0.61283
166.646,16.52561,-0.13007,4.19423,0.61275
167.146,16.54087,-0.1304,4.18224,0.61267
167.646,16.5562,-0.13149,4.19247,0.61258
168.146,16.57139,-0.13142,4.20244,0.6125
168.646,16.58662,-0.13252,4.2153,0.61241
169.146,16.60182,-0.13283,4.20862,0.61232
169.646,16.61704,-0.13275,4.20988,0.61224
170.146,16.6323,-0.13397,4.21746,0.61215
170.646,16.64751,-0.13418,4.23722,0.61207
171.146,16.66273,-0.13438,4.2332,0.61198
171.646,16.67794,-0.13537,4.22048,0.61189
172.146,16.6931,-0.13665,4.1996,0.6118
172.646,16.70822,-0.13678,4.18846,0.61172
173.146,16.7233,-0.13671,4.20482,0.61163
173.646,16.73844,-0.13771,4.20262,0.61154
174.146,16.7535,-0.13832,4.18904,0.61145
174.646,16.76857,-0.13853,4.20512,0.61136
175.146,16.7836,-0.13972,4.21729,0.61127
175.646,16.7986,-0.13964,4.2229,0.61118
176.146,16.81362,-0.13993,4.23207,0.61109
176.646,16.82863,-0.14104,4.2198,0.611
177.146,16.84362,-0.14098,4.21327,0.61091
177.646,16.8586,-0.14191,4.22507,0.61082
178.146,16.87354,-0.14239,4.24108,0.61073
178.646,16.8886,-0.14233,4.23898,0.61064
179.146,16.90348,-0.144,4.25031,0.61055
179.646,16.91838,-0.14506,4.24456,0.61046
180.146,16.93327,-0.14503,4.22588,0.61037
180.646,16.94811,-0.14636,4.25754,0.61027
181.146,16.96293,-0.14648,4.25625,0.61018
181.646,16.97768,-0.14699,4.25964,0.61009
182.146,16.99245,-0.14815,4.25712,0.60999
182.646,17.00723,-0.14802,4.24931,0.6099
183.146,17.02199,-0.1489,4.24817,0.60981
183.646,17.0367,-0.14944,4.2478,0.60971
184.146,17.05153,-0.14941,4.25281,0.60962
184.646,17.0663,-0.15039,4.2592,0.60952
185.146,17.08109,-0.15067,4.25218,0.60943
185.646,17.09581,-0.15157,4.23412,0.60933
186.146,17.1105,-0.15358,4.24041,0.60924
186.646,17.12517,-0.15353,4.22654,0.60914
187.146,17.1398,-0.15387,4.2451,0.60905
187.646,17.15426,-0.15497,4.23424,0.60895
188.146,17.16876,-0.15486,4.21782,0.60885
188.646,17.1834,-0.15483,4.21789,0.60876
189.146,17.19802,-0.15536,4.2164,0.60866
189.646,17.21258,-0.15637,4.22409,0.60856
190.146,17.22718,-0.15635,4.22166,0.60846
190.646,17.24186,-0.15883,4.2173,0.60837
191.146,17.25649,-0.15905,4.21649,0.60827
191.646,17.27103,-0.15905,4.20846,0.60817
192.146,17.2855,-0.16009,4.21583,0.60807
192.646,17.30009,-0.16058,4.20138,0.60797
193.146,17.31459,-0.16064,4.2161,0.60787
193.646,17.3291,-0.16184,4.19473,0.60777
194.146,17.34358,-0.16118,4.1938,0.60767
194.646,17.35807,-0.16056,4.1985,0.60757
195.146,17.37252,-0.16068,4.18407,0.60747
195.646,17.38693,-0.16214,4.16577,0.60737
196.146,17.40135,-0.16243,4.16045,0.60727
196.646,17.41582,-0.16399,4.16141,0.60717
197.146,17.43028,-0.16445,4.15945,0.60707
197.646,17.4447,-0.16653,4.14278,0.60697
198.146,17.45911,-0.16672,4.13782,0.60686
198.646,17.47352,-0.16672,4.14053,0.60676
199.146,17.48788,-0.1669,4.13631,0.60666
199.646,17.50221,-0.16812,4.13261,0.60656
200.146,17.51652,-0.16802,4.13126,0.60645
200.646,17.5308,-0.16804,4.12155,0.60635
201.146,17.54511,-0.16822,4.1145,0.60625
201.646,17.55937,-0.17027,4.11049,0.60614
202.146,17.57367,-0.17067,4.1196,0.60604
202.646,17.588,-0.17068,4.11511,0.60593
203.146,17.6023,-0.17066,4.09863,0.60583
203.646,17.61657,-0.17105,4.08202,0.60572
204.146,17.63082,-0.172,4.08177,0.60562
204.646,17.64507,-0.17226,4.07546,0.60551
205.146,17.65932,-0.17372,4.07116,0.60541
205.646,17.67351,-0.17409,4.05052,0.6053
206.146,17.68771,-0.17537,4.04408,0.60519
206.646,17.70192,-0.17539,4.03933,0.60509
207.146,17.7162,-0.17534,4.03229,0.60498
207.646,17.7304,-0.17609,4.03141,0.60487
208.146,17.7446,-0.17676,4.02777,0.60477
208.646,17.75885,-0.17671,4.01481,0.60466
209.146,17.77303,-0.17677,4.00939,0.60455
209.646,17.78725,-0.17874,3.98699,0.60444
210.146,17.80136,-0.1791,3.99301,0.60433
210.646,17.8155,-0.17904,3.98561,0.60423
211.146,17.82966,-0.18007,3.98344,0.60412
211.646,17.8438,-0.18044,3.96621,0.60401
212.146,17.85792,-0.18043,3.94183,0.6039
212.646,17.87199,-0.18043,3.94192,0.60379
213.146,17.8861,-0.18043,3.94594,0.60368
213.646,17.90022,-0.18078,3.94502,0.60357
214.146,17.91433,-0.18198,3.93751,0.60346
214.646,17.92845,-0.18182,3.90317,0.60335
215.146,17.94259,-0.18273,3.89886,0.60324
215.646,17.95671,-0.1832,3.89696,0.60313
216.146,17.97084,-0.18317,3.88882,0.60301
216.646,17.98495,-0.18412,3.88144,0.6029
217.146,17.999,-0.18474,3.87011,0.60279
217.646,18.01314,-0.18497,3.85658,0.60268
218.146,18.02724,-0.18609,3.84393,0.60257
218.646,18.0412,-0.18613,3.84284,0.60245
219.146,18.05526,-0.18642,3.82838,0.60234
219.646,18.06932,-0.18743,3.81008,0.60223
220.146,18.08332,-0.18745,3.80691,0.60211
220.646,18.09735,-0.18736,3.79958,0.602
221.146,18.11134,-0.18854,3.78177,0.60189
221.646,18.1253,-0.18878,3.7638,0.60177
222.146,18.13934,-0.18877,3.7592,0.60166
222.646,18.15331,-0.18878,3.73901,0.60154
223.146,18.1673,-0.18872,3.72839,0.60143
223.646,18.1813,-0.18954,3.73509,0.60131
224.146,18.19526,-0.19012,3.71862,0.6012
224.646,18.2092,-0.19034,3.71523,0.60108
225.146,18.22324,-0.19163,3.71188,0.60096
225.646,18.23722,-0.19144,3.69948,0.60085
226.146,18.25119,-0.19227,3.69072,0.60073
226.646,18.26515,-0.19288,3.68191,0.60062
227.146,18.27913,-0.19283,3.67386,0.6005
227.646,18.29307,-0.19286,3.65815,0.60038
228.146,18.30704,-0.1939,3.64403,0.60026
228.646,18.32095,-0.19412,3.63347,0.60015
229.146,18.33488,-0.19431,3.62558,0.60003
229.646,18.34872,-0.19448,3.61939,0.59991
230.146,18.36257,-0.19444,3.61672,0.59979
230.646,18.3765,-0.19486,3.61082,0.59967
231.146,18.39041,-0.19582,3.6073,0.59955
231.646,18.40426,-0.19652,3.59274,0.59944
232.146,18.41807,-0.1964,3.58678,0.59932
232.646,18.43202,-0.19728,3.57806,0.5992
233.146,18.44602,-0.1978,3.56357,0.59908
233.646,18.45991,-0.19776,3.56028,0.59896
234.146,18.4738,-0.19794,3.54463,0.59884
234.646,18.48762,-0.19898,3.53356,0.59872
235.146,18.5016,-0.19908,3.52909,0.5986
235.646,18.51547,-0.19897,3.52466,0.59847
236.146,18.52931,-0.2003,3.51917,0.59835
236.646,18.54316,-0.20135,3.51293,0.59823
237.146,18.55704,-0.20118,3.48354,0.59811
237.646,18.5708,-0.20233,3.48192,0.59799
238.146,18.58471,-0.20272,3.48826,0.59787
238.646,18.59855,-0.20271,3.48023,0.59774
239.146,18.61244,-0.2028,3.45324,0.59762
239.646,18.62621,-0.20384,3.43678,0.5975
240.146,18.64003,-0.20402,3.44835,0.59737
240.646,18.65389,-0.20403,3.45035,0.59725
241.146,18.66771,-0.20401,3.4323,0.59713
241.646,18.68151,-0.20399,3.4228,0.597
242.146,18.69526,-0.2045,3.42012,0.59688
242.646,18.70903,-0.20543,3.42384,0.59676
243.146,18.7228,-0.20546,3.41009,0.59663
243.646,18.7366,-0.20648,3.41006,0.59651
244.146,18.75037,-0.20675,3.396,0.59638
244.646,18.76414,-0.20677,3.4003,0.59626
245.146,18.7779,-0.20675,3.38952,0.59613
245.646,18.7917,-0.20672,3.38082,0.59601
246.146,18.80551,-0.2074,3.38005,0.59588
246.646,18.81928,-0.20904,3.39143,0.59575
247.146,18.83302,-0.20905,3.37305,0.59563
247.646,18.84681,-0.20907,3.36823,0.5955
248.146,18.86056,-0.20945,3.36558,0.59537
248.646,18.87434,-0.21048,3.3406,0.59525
249.146,18.88808,-0.21037,3.34,0.59512
249.646,18.90181,-0.21036,3.35668,0.59499
250.146,18.91554,-0.21068,3.34101,0.59487
250.646,18.92921,-0.21167,3.34267,0.59474
251.146,18.94294,-0.21168,3.32614,0.59461
251.646,18.95666,-0.21183,3.33232,0.59448
252.146,18.9704,-0.21305,3.33771,0.59435
252.646,18.98414,-0.21263,3.33771,0.59422
253.146,18.99788,-0.21171,3.33343,0.59409
253.646,19.01165,-0.2122,3.32488,0.59397
254.146,19.0254,-0.21322,3.33603,0.59384
254.646,19.03913,-0.21311,3.32679,0.59371
255.146,19.05284,-0.21373,3.33895,0.59358
255.646,19.06653,-0.21452,3.33115,0.59345
256.146,19.08023,-0.21445,3.33036,0.59332
256.646,19.0939,-0.21533,3.32214,0.59319
257.146,19.1076,-0.21653,3.32629,0.59306
257.646,19.12129,-0.21708,3.30481,0.59292
258.146,19.135,-0.21698,3.31426,0.59279
258.646,19.1487,-0.21794,3.31836,0.59266
259.146,19.16235,-0.2184,3.31816,0.59253
259.646,19.17604,-0.21839,3.30264,0.5924
260.146,19.18978,-0.21839,3.30004,0.59227
260.646,19.20349,-0.21839,3.31382,0.59214
261.146,19.21715,-0.21839,3.30998,0.592
261.646,19.23087,-0.21838,3.29599,0.59187
262.146,19.24458,-0.2186,3.29348,0.59174
262.646,19.25828,-0.21983,3.28739,0.5916
263.146,19.27198,-0.21992,3.2874,0.59147
263.646,19.2856,-0.22092,3.28781,0.59134
264.146,19.29926,-0.22136,3.29298,0.5912
264.646,19.3129,-0.2213,3.30083,0.59107
265.146,19.32651,-0.22205,3.29688,0.59094
265.646,19.3401,-0.22289,3.29304,0.5908
266.146,19.35374,-0.22281,3.30395,0.59067
266.646,19.36737,-0.22361,3.30324,0.59053
267.146,19.381,-0.22421,3.29965,0.5904
267.646,19.39463,-0.22415,3.29115,0.59026
268.146,19.4083,-0.22472,3.28628,0.59013
268.646,19.42193,-0.22556,3.28795,0.58999
269.146,19.43562,-0.2255,3.30209,0.58986
269.646,19.4493,-0.22553,3.29651,0.58972
270.146,19.46293,-0.22576,3.30727,0.58958
270.646,19.4766,-0.2268,3.30971,0.58945
271.146,19.4903,-0.22683,3.31284,0.58931
271.646,19.50393,-0.22718,3.29947,0.58918
272.146,19.51759,-0.22813,3.2995,0.58904
272.646,19.53121,-0.22815,3.32907,0.5889
273.146,19.54479,-0.22806,3.3027,0.58876
273.646,19.55844,-0.22899,3.30374,0.58863
274.146,19.57209,-0.22947,3.31846,0.58849
274.646,19.5857,-0.22949,3.32219,0.58835
275.146,19.5993,-0.22944,3.31496,0.58821
275.646,19.613,-0.23065,3.33875,0.58807
276.146,19.62666,-0.2308,3.34909,0.58794
276.646,19.64029,-0.23079,3.35118,0.5878
277.146,19.65391,-0.23151,3.35002,0.58766
277.646,19.6675,-0.23216,3.35417,0.58752
278.146,19.68109,-0.23214,3.34815,0.58738
278.646,19.6947,-0.23319,3.37616,0.58724
279.146,19.70832,-0.23355,3.36866,0.5871
279.646,19.72194,-0.23407,3.36881,0.58696
280.146,19.73561,-0.23504,3.39402,0.58682
280.646,19.74925,-0.23495,3.41021,0.58668
281.146,19.76294,-0.23497,3.40438,0.58654
281.646,19.77659,-0.23606,3.39219,0.5864
282.146,19.7902,-0.23638,3.40185,0.58626
282.646,19.80384,-0.2372,3.41777,0.58612
283.146,19.81746,-0.23792,3.44234,0.58598
283.646,19.83109,-0.23867,3.43951,0.58584
284.146,19.84471,-0.23941,3.41626,0.58569
284.646,19.85828,-0.2393,3.41941,0.58555
285.146,19.87181,-0.24015,3.42671,0.58541
285.646,19.8855,-0.24071,3.43787,0.58527
286.146,19.89911,-0.24065,3.44986,0.58513
286.646,19.9128,-0.24126,3.45649,0.58498
287.146,19.92635,-0.24207,3.45369,0.58484
287.646,19.94,-0.24197,3.4578,0.5847
288.146,19.95368,-0.24321,3.48019,0.58455
288.646,19.9674,-0.24342,3.48875,0.58441
289.146,19.98099,-0.24344,3.48899,0.58427
289.646,19.99461,-0.2444,3.48664,0.58412
290.146,20.00822,-0.24562,3.49248,0.58398
290.646,20.02186,-0.24697,3.49677,0.58384
291.146,20.0355,-0.24761,3.51036,0.58369
291.646,20.0491,-0.24756,3.52919,0.58355
292.146,20.0627,-0.24822,3.52326,0.5834
292.646,20.07638,-0.24914,3.53812,0.58326
293.146,20.09001,-0.24986,3.54182,0.58311
293.646,20.10365,-0.2509,3.55327,0.58297
294.146,20.11727,-0.25125,3.56714,0.58282
294.646,20.13091,-0.25242,3.56286,0.58268
295.146,20.14445,-0.25237,3.57713,0.58253
295.646,20.15811,-0.25239,3.59057,0.58239
296.146,20.1717,-0.25288,3.60129,0.58224
296.646,20.1854,-0.25374,3.60706,0.58209
297.146,20.19902,-0.25426,3.62191,0.58195
297.646,20.21265,-0.25525,3.61923,0.5818
298.146,20.22635,-0.25597,3.63675,0.58165
298.646,20.24,-0.25688,3.63818,0.58151
299.146,20.25369,-0.25705,3.64857,0.58136
299.646,20.26732,-0.25808,3.65532,0.58121
300.146,20.28097,-0.25819,3.66424,0.58107
300.646,20.2946,-0.25824,3.66715,0.58092
301.146,20.30826,-0.2597,3.66449,0.58077
301.646,20.32195,-0.26107,3.67941,0.58062
302.146,20.3356,-0.26217,3.68124,0.58047
302.646,20.34919,-0.26245,3.70625,0.58033
303.146,20.36275,-0.26381,3.70561,0.58018
303.646,20.37639,-0.26408,3.71781,0.58003
304.146,20.39005,-0.26577,3.72079,0.57988
304.646,20.40374,-0.26495,3.72994,0.57973
305.146,20.4174,-0.26563,3.73475,0.57958
305.646,20.4311,-0.26575,3.73889,0.57943
306.146,20.44482,-0.266,3.75135,0.57928
306.646,20.45849,-0.26722,3.75161,0.57913
307.146,20.47215,-0.26786,3.76698,0.57898
307.646,20.4858,-0.26894,3.77962,0.57883
308.146,20.49941,-0.26884,3.76909,0.57868
308.646,20.51304,-0.26909,3.77805,0.57853
309.146,20.52665,-0.27012,3.76785,0.57838
309.646,20.54032,-0.27015,3.78459,0.57823
310.146,20.5539,-0.27053,3.80323,0.57808
310.646,20.5676,-0.27166,3.79824,0.57793
311.146,20.5812,-0.27218,3.81531,0.57778
311.646,20.59486,-0.27348,3.82594,0.57763
312.146,20.60849,-0.27447,3.85006,0.57748
312.646,20.62217,-0.2753,3.83414,0.57733
313.146,20.63583,-0.27638,3.82168,0.57717
313.646,20.64937,-0.27736,3.82503,0.57702
314.146,20.66299,-0.27832,3.82156,0.57687
314.646,20.67663,-0.27886,3.83454,0.57672
315.146,20.69024,-0.27917,3.85246,0.57657
315.646,20.7039,-0.28072,3.87515,0.57641
316.146,20.71751,-0.28119,3.86953,0.57626
316.646,20.73123,-0.28249,3.86248,0.57611
317.146,20.74493,-0.28268,3.86182,0.57595
317.646,20.7586,-0.28414,3.87253,0.5758
318.146,20.7723,-0.2844,3.88936,0.57565
318.646,20.78596,-0.28569,3.87952,0.57549
319.146,20.79965,-0.28455,3.8696,0.57534
319.646,20.81335,-0.2847,3.87602,0.57519
320.146,20.8271,-0.28579,3.88239,0.57503
320.646,20.84078,-0.28637,3.87186,0.57488
321.146,20.8545,-0.28784,3.86532,0.57472
321.646,20.86818,-0.28946,3.8654,0.57457
322.146,20.88182,-0.2898,3.87359,0.57441
322.646,20.89546,-0.29131,3.88476,0.57426
323.146,20.9091,-0.29145,3.86644,0.57411
323.646,20.92276,-0.29226,3.86402,0.57395
324.146,20.9364,-0.29405,3.87234,0.57379
324.646,20.95005,-0.29485,3.88228,0.57364
325.146,20.96375,-0.29611,3.88248,0.57348
325.646,20.97745,-0.29734,3.89221,0.57333
326.146,20.99116,-0.29847,3.89991,0.57317
326.646,21.00485,-0.29942,3.90213,0.57302
327.146,21.0185,-0.29956,3.8993,0.57286
327.646,21.03223,-0.30073,3.89914,0.5727
328.146,21.04597,-0.30066,3.88416,0.57255
328.646,21.05967,-0.30249,3.87601,0.57239
329.146,21.0733,-0.30358,3.86965,0.57223
329.646,21.08707,-0.30517,3.87057,0.57208
330.146,21.1008,-0.30742,3.87566,0.57192
330.646,21.11459,-0.30752,3.87824,0.57176
331.146,21.1283,-0.3086,3.87603,0.57161
331.646,21.14206,-0.30865,3.8741,0.57145
332.146,21.1558,-0.30866,3.87042,0.57129
332.646,21.1695,-0.30867,3.82862,0.57113
333.146,21.1832,-0.30896,3.81214,0.57098
333.646,21.19696,-0.3101,3.8244,0.57082
334.146,21.21069,-0.31104,3.84776,0.57066
334.646,21.22439,-0.31202,3.82321,0.5705
335.146,21.2381,-0.31368,3.8008,0.57034
335.646,21.2518,-0.31446,3.8229,0.57018
336.146,21.2656,-0.31585,3.81598,0.57003
336.646,21.2793,-0.31737,3.80681,0.56987
337.146,21.29306,-0.31819,3.79499,0.56971
337.646,21.3068,-0.31948,3.80075,0.56955
338.146,21.32059,-0.32121,3.81129,0.56939
338.646,21.33435,-0.32211,3.81218,0.56923
339.146,21.34812,-0.32289,3.80269,0.56907
339.646,21.36187,-0.32431,3.7814,0.56891
340.146,21.37565,-0.32456,3.78027,0.56875
340.646,21.3894,-0.32484,3.783,0.56859
341.146,21.40318,-0.32598,3.78213,0.56843
341.646,21.41696,-0.32595,3.78138,0.56827
342.146,21.43072,-0.32768,3.78872,0.56811
342.646,21.44448,-0.32814,3.79364,0.56795
343.146,21.45824,-0.32948,3.77459,0.56779
343.646,21.472,-0.33096,3.76888,0.56763
344.146,21.48576,-0.33208,3.76895,0.56747
344.646,21.49952,-0.33307,3.76081,0.56731
345.146,21.51332,-0.33496,3.75873,0.56714
345.646,21.52711,-0.33637,3.74389,0.56698
346.146,21.54094,-0.33745,3.76324,0.56682
346.646,21.55474,-0.33869,3.76135,0.56666
347.146,21.56855,-0.3384,3.73902,0.5665
347.646,21.58239,-0.33515,3.74403,0.56634
348.146,21.59619,-0.33189,3.72003,0.56617
348.646,21.61,-0.33093,3.73239,0.56601
349.146,21.62379,-0.33683,3.72561,0.56585
349.646,21.6376,-0.34493,3.72198,0.56569
350.146,21.6514,-0.35378,3.7271,0.56553
350.646,21.66516,-0.35785,3.72493,0.56536
351.146,21.67896,-0.35546,3.71138,0.5652
351.646,21.6928,-0.35389,3.72117,0.56504
352.146,21.70665,-0.35227,3.70992,0.56487
352.646,21.72045,-0.3522,3.71047,0.56471
353.146,21.7343,-0.35267,3.69194,0.56455
353.646,21.7482,-0.35388,3.6984,0.56438
354.146,21.76202,-0.3551,3.69513,0.56422
354.646,21.77587,-0.35648,3.68113,0.56406
355.146,21.78967,-0.35919,3.65859,0.56389
355.646,21.8035,-0.35955,3.67002,0.56373
356.146,21.81739,-0.36082,3.6731,0.56357
356.646,21.8312,-0.36228,3.65682,0.5634
357.146,21.84502,-0.36335,3.65214,0.56324
357.646,21.85887,-0.3644,3.64632,0.56307
358.146,21.8727,-0.36588,3.63362,0.56291
358.646,21.8866,-0.36707,3.62672,0.56274
359.146,21.9004,-0.36804,3.62335,0.56258
359.646,21.9143,-0.36964,3.61328,0.56241
360.146,21.92821,-0.37089,3.60668,0.56225
360.646,21.9421,-0.37151,3.60732,0.56208
361.146,21.956,-0.37289,3.61506,0.56192
361.646,21.96994,-0.37382,3.60584,0.56175
362.146,21.98385,-0.37586,3.60599,0.56159
362.646,21.99774,-0.37749,3.60334,0.56142
363.146,22.01165,-0.37931,3.59497,0.56126
363.646,22.02555,-0.38053,3.58053,0.56109
364.146,22.03945,-0.38157,3.58248,0.56093
364.646,22.05331,-0.38288,3.58352,0.56076
365.146,22.06717,-0.38542,3.58447,0.56059
365.646,22.08105,-0.38892,3.57377,0.56043
366.146,22.09496,-0.39162,3.56368,0.56026
366.646,22.10887,-0.39467,3.57105,0.56009
367.146,22.1228,-0.39481,3.56488,0.55993
367.646,22.13675,-0.39601,3.5564,0.55976
368.146,22.15074,-0.39312,3.54826,0.55959
368.646,22.16467,-0.38985,3.5392,0.55943
369.146,22.17856,-0.38612,3.5406,0.55926
369.646,22.1925,-0.38912,3.55274,0.55909
370.146,22.20638,-0.40072,3.55631,0.55893
370.646,22.2203,-0.41064,3.56668,0.55876
371.146,22.23415,-0.4197,3.57325,0.55859
371.646,22.2481,-0.42149,3.57078,0.55842
372.146,22.26204,-0.41954,3.54937,0.55826
372.646,22.276,-0.41879,3.54003,0.55809
373.146,22.29,-0.41846,3.52396,0.55792
373.646,22.304,-0.41942,3.51822,0.55775
374.146,22.318,-0.41873,3.51251,0.55758
374.646,22.33201,-0.41981,3.51755,0.55742
375.146,22.34601,-0.41858,3.5152,0.55725
375.646,22.35998,-0.41933,3.51014,0.55708
376.146,22.3739,-0.41859,3.50941,0.55691
376.646,22.38787,-0.41981,3.49836,0.55674
377.146,22.40185,-0.42117,3.49118,0.55657
377.646,22.41581,-0.4226,3.46616,0.5564
378.146,22.4298,-0.42459,3.45786,0.55624
378.646,22.44375,-0.42446,3.4565,0.55607
379.146,22.45777,-0.4254,3.4559,0.5559
379.646,22.47176,-0.42702,3.44778,0.55573
380.146,22.4858,-0.42843,3.44632,0.55556
380.646,22.4998,-0.43038,3.43311,0.55539
381.146,22.51383,-0.43286,3.42022,0.55522
381.646,22.52785,-0.43474,3.41366,0.55505
382.146,22.54188,-0.43657,3.40382,0.55488
382.646,22.55592,-0.4379,3.40849,0.55471
383.146,22.57,-0.43907,3.42164,0.55454
383.646,22.58401,-0.44072,3.40715,0.55437
384.146,22.59805,-0.44161,3.3876,0.5542
384.646,22.6121,-0.44242,3.37321,0.55403
385.146,22.62615,-0.44418,3.37588,0.55386
385.646,22.6402,-0.44514,3.37142,0.55369
386.146,22.65423,-0.44627,3.34675,0.55352
386.646,22.66829,-0.44679,3.34011,0.55335
387.146,22.68236,-0.44814,3.32823,0.55318
387.646,22.69641,-0.44978,3.33067,0.55301
388.146,22.71045,-0.45163,3.33141,0.55284
388.646,22.72448,-0.45314,3.32212,0.55267
389.146,22.73854,-0.45547,3.29639,0.55249
389.646,22.75261,-0.4584,3.29822,0.55232
390.146,22.76669,-0.4598,3.2809,0.55215
390.646,22.78076,-0.46185,3.27846,0.55198
391.146,22.79486,-0.46197,3.2504,0.55181
391.646,22.80896,-0.46317,3.24825,0.55164
392.146,22.82306,-0.46403,3.23051,0.55147
392.646,22.83708,-0.4653,3.21821,0.55129
393.146,22.85118,-0.46801,3.21662,0.55112
393.646,22.8653,-0.46942,3.19957,0.55095
394.146,22.8794,-0.47094,3.18382,0.55078
394.646,22.8935,-0.47293,3.17042,0.55061
395.146,22.90766,-0.47498,3.15243,0.55043
395.646,22.92182,-0.47665,3.13832,0.55026
396.146,22.93599,-0.47894,3.12558,0.55009
396.646,22.95015,-0.47957,3.0978,0.54992
397.146,22.96426,-0.4811,3.08218,0.54974
397.646,22.97837,-0.48274,3.07035,0.54957
398.146,22.99246,-0.48359,3.0438,0.5494
398.646,23.0066,-0.48492,3.01844,0.54923
399.146,23.02072,-0.48521,3.01175,0.54905
399.646,23.03484,-0.48616,2.96984,0.54888
400.146,23.04896,-0.4868,2.96012,0.54871
400.646,23.06316,-0.48872,2.95143,0.54854
401.146,23.07733,-0.49108,2.93417,0.54836
401.646,23.09149,-0.49484,2.9165,0.54819
402.146,23.1056,-0.49661,2.90328,0.54802
402.646,23.11981,-0.49796,2.88582,0.54784
403.146,23.13394,-0.49892,2.86663,0.54767
403.646,23.14811,-0.50059,2.85442,0.54749
404.146,23.1622,-0.50161,2.85076,0.54732
404.646,23.17641,-0.50381,2.84719,0.54715
405.146,23.1906,-0.50531,2.84358,0.54697
405.646,23.2047,-0.50697,2.83134,0.5468
406.146,23.21896,-0.50891,2.82342,0.54663
406.646,23.23313,-0.51019,2.80319,0.54645
407.146,23.24737,-0.51182,2.79422,0.54628
407.646,23.26152,-0.51412,2.78506,0.5461
408.146,23.27571,-0.51494,2.78734,0.54593
408.646,23.28993,-0.51673,2.77087,0.54575
409.146,23.30414,-0.51718,2.75803,0.54558
409.646,23.31831,-0.51854,2.76155,0.54541
410.146,23.33251,-0.51949,2.74702,0.54523
410.646,23.34671,-0.52006,2.73486,0.54506
411.146,23.361,-0.52002,2.73545,0.54488
411.646,23.37525,-0.52002,2.71677,0.54471
412.146,23.38954,-0.52002,2.70588,0.54453
412.646,23.40382,-0.52002,2.70044,0.54436
413.146,23.41816,-0.52002,2.70099,0.54418
413.646,23.43251,-0.52002,2.67871,0.54401
414.146,23.44681,-0.51878,2.65129,0.54383
414.646,23.46115,-0.5184,2.61379,0.54366
415.146,23.47543,-0.51656,2.62127,0.54348
415.646,23.4898,-0.51348,2.6039,0.54331
416.146,23.50411,-0.51104,2.59053,0.54313
416.646,23.51841,-0.5071,2.57259,0.54296
417.146,23.5328,-0.50464,2.54677,0.54278
417.646,23.54714,-0.50248,2.53982,0.5426
418.146,23.5615,-0.50217,2.50845,0.54243
418.646,23.57585,-0.50219,2.49195,0.54225
419.146,23.5902,-0.50147,2.4883,0.54208
419.646,23.60462,-0.50077,2.48368,0.5419
420.146,23.619,-0.50085,2.477,0.54172
420.646,23.63338,-0.50114,2.4563,0.54155
421.146,23.64772,-0.50233,2.45383,0.54137
421.646,23.6621,-0.50235,2.43701,0.5412
422.146,23.6765,-0.50241,2.4327,0.54102
422.646,23.6909,-0.50149,2.41501,0.54084
423.146,23.7053,-0.49992,2.40639,0.54067
423.646,23.7197,-0.4978,2.38729,0.54049
424.146,23.73411,-0.49651,2.39158,0.54031
424.646,23.74855,-0.49586,2.37388,0.54014
425.146,23.76296,-0.49588,2.35969,0.53996
425.646,23.77733,-0.49589,2.34695,0.53978
426.146,23.7917,-0.49589,2.33306,0.53961
426.646,23.80617,-0.49589,2.33634,0.53943
427.146,23.82055,-0.49589,2.32326,0.53925
427.646,23.83493,-0.49584,2.30449,0.53908
428.146,23.84931,-0.49659,2.31019,0.5389
428.646,23.86372,-0.49842,2.30811,0.53872
429.146,23.87814,-0.50032,2.31797,0.53855
429.646,23.89248,-0.50414,2.31279,0.53837
430.146,23.9069,-0.50681,2.30623,0.53819
430.646,23.92119,-0.51046,2.31294,0.53801
431.146,23.9356,-0.51339,2.32283,0.53784
431.646,23.94991,-0.5153,2.31436,0.53766
432.146,23.96426,-0.51751,2.31542,0.53748
432.646,23.9787,-0.5187,2.30624,0.5373
433.146,23.99315,-0.52041,2.30255,0.53713
433.646,24.00766,-0.52086,2.30421,0.53695
434.146,24.0221,-0.52262,2.31138,0.53677
434.646,24.03663,-0.52336,2.30524,0.53659
435.146,24.05118,-0.52331,2.31192,0.53642
435.646,24.06559,-0.52361,2.31412,0.53624
436.146,24.08005,-0.52485,2.31418,0.53606
436.646,24.09445,-0.52475,2.30736,0.53588
437.146,24.1089,-0.52574,2.29596,0.5357
437.646,24.12342,-0.52626,2.30218,0.53553
438.146,24.1378,-0.52676,2.3055,0.53535
438.646,24.15233,-0.52764,2.29706,0.53517
439.146,24.1668,-0.52759,2.28997,0.53499
439.646,24.18134,-0.52761,2.28591,0.53481
440.146,24.19586,-0.52735,2.28479,0.53464
440.646,24.21032,-0.52795,2.27673,0.53446
441.146,24.22485,-0.52862,2.27919,0.53428
441.646,24.23935,-0.52858,2.27309,0.5341
442.146,24.2539,-0.52877,2.2658,0.53392
442.646,24.26837,-0.52983,2.24953,0.53374
443.146,24.28286,-0.52986,2.25319,0.53356
443.646,24.2974,-0.53034,2.24342,0.53339
444.146,24.31192,-0.53137,2.24454,0.53321
444.646,24.32647,-0.53133,2.23538,0.53303
445.146,24.34098,-0.53138,2.22775,0.53285
445.646,24.35556,-0.53259,2.22642,0.53267
446.146,24.37013,-0.53264,2.22365,0.53249
446.646,24.3847,-0.53352,2.2229,0.53231
447.146,24.39931,-0.53524,2.22131,0.53213
447.646,24.41391,-0.53525,2.21159,0.53196
448.146,24.4285,-0.53549,2.21244,0.53178
448.646,24.44308,-0.53667,2.20848,0.5316
449.146,24.4577,-0.53656,2.19637,0.53142
449.646,24.47232,-0.53713,2.1924,0.53124
450.146,24.48691,-0.53796,2.17491,0.53106
450.646,24.5015,-0.5379,2.17771,0.53088
451.146,24.51608,-0.53792,2.17919,0.5307
451.646,24.5307,-0.53794,2.17972,0.53052
452.146,24.54532,-0.53916,2.16627,0.53034
452.646,24.55996,-0.53922,2.15145,0.53016
453.146,24.5746,-0.53926,2.14499,0.52998
453.646,24.5893,-0.5405,2.1415,0.5298
454.146,24.60395,-0.53954,2.13986,0.52962
454.646,24.61864,-0.53921,2.13347,0.52945
455.146,24.63328,-0.53922,2.13104,0.52927
455.646,24.64795,-0.53922,2.136,0.52909
456.146,24.6626,-0.53982,2.1299,0.52891
456.646,24.6772,-0.54168,2.12644,0.52873
457.146,24.69189,-0.54183,2.13033,0.52855
457.646,24.70652,-0.54186,2.12984,0.52837
458.146,24.72121,-0.54186,2.11222,0.52819
458.646,24.73584,-0.5428,2.10832,0.52801
459.146,24.75054,-0.54315,2.10142,0.52783
459.646,24.7653,-0.54312,2.09724,0.52765
460.146,24.78,-0.54382,2.08718,0.52747
460.646,24.79468,-0.54454,2.09386,0.52729
461.146,24.80934,-0.54446,2.08452,0.52711
461.646,24.82405,-0.54547,2.07794,0.52693
462.146,24.83875,-0.54581,2.07471,0.52675
462.646,24.85345,-0.5458,2.06579,0.52657
463.146,24.86819,-0.54581,2.06631,0.52639
463.646,24.8829,-0.54587,2.05856,0.52621
464.146,24.89765,-0.54636,2.06399,0.52603
464.646,24.9124,-0.54731,2.05933,0.52585
465.146,24.92717,-0.5478,2.05199,0.52567
465.646,24.94192,-0.54778,2.04452,0.52549
466.146,24.95664,-0.54772,2.05175,0.52531
466.646,24.97144,-0.54855,2.05107,0.52512
467.146,24.98619,-0.54912,2.05094,0.52494
467.646,25.00095,-0.54908,2.03801,0.52476
468.146,25.01575,-0.54962,2.02907,0.52458
468.646,25.03054,-0.55053,2.01599,0.5244
469.146,25.04535,-0.55058,2.00543,0.52422
469.646,25.06011,-0.55195,2.00324,0.52404
470.146,25.0749,-0.55186,1.99785,0.52386
470.646,25.0898,-0.55258,2.00324,0.52368
471.146,25.10456,-0.55331,1.9947,0.5235
471.646,25.11938,-0.55326,1.98917,0.52332
472.146,25.13421,-0.55347,1.9746,0.52314
472.646,25.1491,-0.55454,1.96592,0.52296
473.146,25.16389,-0.55455,1.96121,0.52278
473.646,25.17876,-0.55459,1.964,0.5226
474.146,25.19361,-0.55488,1.96397,0.52242
474.646,25.2085,-0.55588,1.96376,0.52224
475.146,25.2233,-0.55582,1.96193,0.52205
475.646,25.23819,-0.55671,1.95839,0.52187
476.146,25.25306,-0.55721,1.95843,0.52169
476.646,25.2679,-0.55723,1.95536,0.52151
477.146,25.28275,-0.55743,1.96129,0.52133
477.646,25.29761,-0.5585,1.95195,0.52115
478.146,25.31245,-0.55851,1.95946,0.52097
478.646,25.3273,-0.55867,1.94718,0.52079
479.146,25.34219,-0.55992,1.93753,0.52061
479.646,25.3571,-0.55983,1.94208,0.52043
480.146,25.37201,-0.55985,1.94009,0.52025
480.646,25.3869,-0.5609,1.92916,0.52006
481.146,25.40176,-0.56114,1.92679,0.51988
481.646,25.41667,-0.56116,1.93407,0.5197
482.146,25.43156,-0.56116,1.93467,0.51952
482.646,25.44643,-0.56127,1.92596,0.51934
483.146,25.46135,-0.56253,1.9254,0.51916
483.646,25.47618,-0.56245,1.93277,0.51898
484.146,25.49103,-0.56247,1.93942,0.5188
484.646,25.5059,-0.56237,1.92513,0.51862
485.146,25.52071,-0.56352,1.91943,0.51843
485.646,25.53559,-0.5638,1.90652,0.51825
486.146,25.55045,-0.56379,1.91583,0.51807
486.646,25.56545,-0.56375,1.90737,0.51789
487.146,25.5804,-0.56449,1.89954,0.51771
487.646,25.5954,-0.56568,1.90365,0.51753
488.146,25.61024,-0.56576,1.90382,0.51735
488.646,25.62519,-0.56604,1.90122,0.51717
489.146,25.64013,-0.56708,1.90531,0.51698
489.646,25.65511,-0.56706,1.91409,0.5168
490.146,25.67014,-0.56708,1.90357,0.51662
490.646,25.6851,-0.56735,1.89979,0.51644
491.146,25.70017,-0.56841,1.90659,0.51626
491.646,25.71517,-0.56838,1.90497,0.51608
492.146,25.7302,-0.5684,1.89587,0.5159
492.646,25.7452,-0.56885,1.89961,0.51571
493.146,25.76011,-0.5697,1.88987,0.51553
493.646,25.77512,-0.56863,1.90206,0.51535
494.146,25.79018,-0.56872,1.90003,0.51517
494.646,25.8052,-0.56979,1.88995,0.51499
495.146,25.82027,-0.57004,1.89101,0.51481
495.646,25.83527,-0.57004,1.8868,0.51463
496.146,25.85033,-0.57003,1.89382,0.51444
496.646,25.86534,-0.57054,1.88835,0.51426
497.146,25.8804,-0.57135,1.88636,0.51408
497.646,25.89539,-0.57135,1.89201,0.5139
498.146,25.91039,-0.57135,1.90137,0.51372
498.646,25.92555,-0.57125,1.89058,0.51354
499.146,25.9407,-0.57239,1.87652,0.51336
499.646,25.95596,-0.57325,1.86968,0.51317
500.146,25.97109,-0.574,1.88386,0.51299
500.646,25.98635,-0.57394,1.87793,0.51281
501.146,26.00157,-0.57478,1.88867,0.51263
501.646,26.01665,-0.57535,1.87038,0.51245
502.146,26.03173,-0.57531,1.89374,0.51227
502.646,26.04676,-0.5753,1.89077,0.51209
503.146,26.06186,-0.57581,1.8894,0.5119
503.646,26.07692,-0.57668,1.86394,0.51172
504.146,26.092,-0.57663,1.86894,0.51154
504.646,26.10716,-0.57662,1.88314,0.51136
505.146,26.12227,-0.5766,1.86843,0.51118
505.646,26.1374,-0.57704,1.87039,0.511
506.146,26.15254,-0.57778,1.87546,0.51081
506.646,26.16766,-0.57664,1.85766,0.51063
507.146,26.18285,-0.57675,1.85275,0.51045
507.646,26.19795,-0.57785,1.85105,0.51027
508.146,26.21309,-0.57858,1.85934,0.51009
508.646,26.22823,-0.57926,1.866,0.50991
509.146,26.24346,-0.5802,1.86776,0.50973
509.646,26.25866,-0.58058,1.85869,0.50954
510.146,26.27378,-0.58057,1.8538,0.50936
510.646,26.28898,-0.58058,1.84911,0.50918
511.146,26.3042,-0.58078,1.85206,0.509
511.646,26.31938,-0.58187,1.84875,0.50882
512.146,26.3346,-0.58188,1.85055,0.50864
512.646,26.3498,-0.58189,1.85007,0.50845
513.146,26.365,-0.58274,1.85801,0.50827
513.646,26.3802,-0.5832,1.86046,0.50809
514.146,26.3955,-0.58322,1.85814,0.50791
514.646,26.41072,-0.58322,1.85094,0.50773
515.146,26.42591,-0.58432,1.85222,0.50755
515.646,26.4411,-0.58451,1.85505,0.50737
516.146,26.45632,-0.58455,1.84258,0.50718
516.646,26.47152,-0.58463,1.84175,0.507
517.146,26.48667,-0.58579,1.84679,0.50682
517.646,26.50187,-0.5863,1.84152,0.50664
518.146,26.51704,-0.58682,1.83746,0.50646
518.646,26.53227,-0.58768,1.82696,0.50628
519.146,26.54751,-0.58816,1.82606,0.5061
519.646,26.56277,-0.58814,1.82204,0.50591
520.146,26.57801,-0.58833,1.8283,0.50573
520.646,26.59327,-0.58955,1.82723,0.50555
521.146,26.60857,-0.58945,1.82426,0.50537
521.646,26.6238,-0.58947,1.8046,0.50519
522.146,26.63907,-0.58944,1.79293,0.50501
522.646,26.65434,-0.59047,1.79267,0.50483
523.146,26.6696,-0.59078,1.78542,0.50464
523.646,26.68488,-0.59078,1.78851,0.50446
524.146,26.7002,-0.59112,1.7822,0.50428
524.646,26.71548,-0.59217,1.78386,0.5041
525.146,26.7308,-0.59209,1.78373,0.50392
525.646,26.7462,-0.59209,1.78175,0.50374
526.146,26.7615,-0.59209,1.78196,0.50356
526.646,26.77683,-0.59212,1.77683,0.50338
527.146,26.79215,-0.59231,1.77565,0.50319
527.646,26.80742,-0.59373,1.79365,0.50301
528.146,26.8227,-0.59374,1.77417,0.50283
528.646,26.838,-0.59369,1.77733,0.50265
529.146,26.8533,-0.59466,1.78849,0.50247
529.646,26.8686,-0.59505,1.78043,0.50229
530.146,26.8839,-0.59504,1.77943,0.50211
530.646,26.8993,-0.59505,1.77644,0.50193
531.146,26.91468,-0.59547,1.78969,0.50174
531.646,26.9301,-0.59636,1.80259,0.50156
532.146,26.9454,-0.59636,1.80371,0.50138
532.646,26.9608,-0.59636,1.80184,0.5012
533.146,26.9762,-0.59626,1.78789,0.50102
533.646,26.99157,-0.59744,1.78787,0.50084
534.146,27.00695,-0.59837,1.79472,0.50066
534.646,27.02232,-0.599,1.80156,0.50048
535.146,27.0377,-0.59917,1.77856,0.5003
535.646,27.05305,-0.6004,1.79188,0.50012
536.146,27.06842,-0.6003,1.78343,0.49993
536.646,27.0838,-0.60027,1.79241,0.49975
537.146,27.0991,-0.6009,1.78599,0.49957
537.646,27.1145,-0.60168,1.77367,0.49939
538.146,27.12991,-0.60163,1.76974,0.49921
538.646,27.1453,-0.60162,1.76804,0.49903
539.146,27.16078,-0.60162,1.76491,0.49885
539.646,27.1762,-0.60223,1.76552,0.49867
540.146,27.19163,-0.60296,1.75453,0.49849
540.646,27.20706,-0.60294,1.7557,0.49831
541.146,27.2225,-0.60351,1.746,0.49813
541.646,27.2379,-0.6043,1.75405,0.49794
542.146,27.2533,-0.60423,1.76091,0.49776
542.646,27.26871,-0.60481,1.76979,0.49758
543.146,27.28415,-0.60563,1.75342,0.4974
543.646,27.29963,-0.60558,1.75048,0.49722
544.146,27.31508,-0.60549,1.74928,0.49704
544.646,27.3305,-0.60661,1.74279,0.49686
545.146,27.3459,-0.60689,1.74347,0.49668
545.646,27.36138,-0.60689,1.75116,0.4965
546.146,27.37681,-0.60689,1.73677,0.49632
546.646,27.3923,-0.60689,1.73289,0.49614
547.146,27.4078,-0.6069,1.72603,0.49596
547.646,27.4233,-0.60704,1.72058,0.49578
548.146,27.43883,-0.60826,1.72488,0.4956
548.646,27.4543,-0.60807,1.73268,0.49542
549.146,27.4698,-0.60897,1.73936,0.49524
549.646,27.4853,-0.60895,1.72549,0.49506
550.146,27.5008,-0.60898,1.72693,0.49488
550.646,27.51625,-0.60898,1.73025,0.4947
551.146,27.53175,-0.60899,1.71116,0.49451
551.646,27.5472,-0.60889,1.7109,0.49433
552.146,27.56275,-0.61014,1.71378,0.49415
552.646,27.5782,-0.61029,1.73078,0.49397
553.146,27.5938,-0.61029,1.72809,0.49379
553.646,27.60928,-0.61029,1.7229,0.49361
554.146,27.6248,-0.61112,1.73101,0.49343
554.646,27.64033,-0.61161,1.73371,0.49325
555.146,27.65581,-0.61162,1.72098,0.49307
555.646,27.67132,-0.61162,1.71937,0.49289
556.146,27.6868,-0.61165,1.71422,0.49271
556.646,27.7024,-0.61417,1.70538,0.49253
557.146,27.718,-0.61424,1.70639,0.49235
557.646,27.7335,-0.61421,1.70388,0.49217
558.146,27.74905,-0.61482,1.70029,0.49199
558.646,27.7646,-0.61561,1.70473,0.49181
559.146,27.7801,-0.61556,1.69597,0.49163
559.646,27.79573,-0.61609,1.67204,0.49145
560.146,27.81134,-0.617,1.66881,0.49127
560.646,27.82698,-0.61698,1.66234,0.4911
561.146,27.8426,-0.61757,1.66302,0.49092
561.646,27.85823,-0.61833,1.66115,0.49074
562.146,27.8739,-0.61831,1.65467,0.49056
562.646,27.8894,-0.6183,1.64636,0.49038
563.146,27.905,-0.6183,1.64786,0.4902
563.646,27.9206,-0.6183,1.64731,0.49002
564.146,27.93615,-0.6183,1.64243,0.48984
564.646,27.95178,-0.61828,1.63377,0.48966
565.146,27.9673,-0.61874,1.63928,0.48948
565.646,27.98279,-0.61968,1.64857,0.4893
566.146,27.9984,-0.61958,1.6532,0.48912
566.646,28.01397,-0.6206,1.65073,0.48894
567.146,28.0296,-0.62095,1.64532,0.48876
567.646,28.0452,-0.6212,1.65506,0.48858
568.146,28.061,-0.62239,1.6512,0.4884
568.646,28.07675,-0.62235,1.66304,0.48822
569.146,28.09243,-0.62239,1.66644,0.48805
569.646,28.1081,-0.62326,1.6658,0.48787
570.146,28.1238,-0.62333,1.67895,0.48769
570.646,28.13948,-0.62335,1.72444,0.48751
571.146,28.15513,-0.62336,1.78172,0.48733
571.646,28.17078,-0.62337,1.88145,0.48715
572.146,28.1864,-0.6237,1.95051,0.48697
572.646,28.2021,-0.62364,1.96299,0.48679
573.146,28.2178,-0.62446,1.96097,0.48661
573.646,28.23344,-0.625,1.95291,0.48644
574.146,28.2491,-0.62499,1.94754,0.48626
574.646,28.2648,-0.62499,1.9175,0.48608
575.146,28.28053,-0.62499,1.87521,0.4859
575.646,28.2963,-0.62535,1.84333,0.48572
576.146,28.3119,-0.62635,1.80303,0.48554
576.646,28.3277,-0.62634,1.77997,0.48536
577.146,28.34335,-0.62677,1.73233,0.48518
577.646,28.35905,-0.6286,1.6965,0.48501
578.146,28.3748,-0.62862,1.66128,0.48483
578.646,28.3905,-0.62862,1.61846,0.48465
579.146,28.4062,-0.62961,1.58361,0.48447
579.646,28.42193,-0.62991,1.54613,0.48429
580.146,28.43763,-0.62993,1.53588,0.48411
580.646,28.4534,-0.62993,1.50851,0.48394
581.146,28.46916,-0.62993,1.48296,0.48376
581.646,28.48487,-0.63076,1.46508,0.48358
582.146,28.5006,-0.63122,1.43901,0.4834
582.646,28.51635,-0.6301,1.43228,0.48322
583.146,28.53208,-0.63047,1.41275,0.48305
583.646,28.54775,-0.63129,1.39649,0.48287
584.146,28.5634,-0.63126,1.37729,0.48269
584.646,28.5792,-0.63125,1.3614,0.48251
585.146,28.59487,-0.63131,1.333,0.48234
585.646,28.61065,-0.63259,1.32411,0.48216
586.146,28.6264,-0.63254,1.31432,0.48198
586.646,28.6422,-0.63256,1.31011,0.4818
587.146,28.65795,-0.63256,1.28218,0.48162
587.646,28.6737,-0.63257,1.27662,0.48145
588.146,28.6895,-0.63254,1.27153,0.48127
588.646,28.7052,-0.63363,1.27043,0.48109
589.146,28.72097,-0.63387,1.26531,0.48091
589.646,28.73671,-0.63391,1.25176,0.48074
590.146,28.75249,-0.63408,1.2535,0.48056
590.646,28.7683,-0.63518,1.25756,0.48038
591.146,28.7841,-0.63519,1.2591,0.48021
591.646,28.79976,-0.63519,1.24316,0.48003
592.146,28.8156,-0.63519,1.24492,0.47985
592.646,28.83142,-0.63519,1.28001,0.47967
593.146,28.8472,-0.63518,1.27115,0.4795
593.646,28.86297,-0.63513,1.27697,0.47932
594.146,28.8788,-0.63607,1.26108,0.47914
594.646,28.89472,-0.63652,1.26656,0.47897
595.146,28.9105,-0.63651,1.26373,0.47879
595.646,28.92629,-0.63652,1.26603,0.47861
596.146,28.9421,-0.63659,1.26213,0.47844
596.646,28.9579,-0.63776,1.25327,0.47826
597.146,28.9737,-0.63799,1.25406,0.47808
597.646,28.98955,-0.63914,1.25495,0.47791
598.146,29.00538,-0.63964,1.25688,0.47773
598.646,29.02123,-0.64046,1.25442,0.47755
599.146,29.03704,-0.64046,1.25217,0.47738
599.646,29.05289,-0.64046,1.2448,0.4772
600.146,29.0688,-0.64046,1.25301,0.47702
600.646,29.0846,-0.64052,1.26099,0.47685
601.146,29.10045,-0.6418,1.25631,0.47667
601.646,29.1163,-0.64176,1.2441,0.4765
602.146,29.1322,-0.64176,1.23826,0.47632
602.646,29.14808,-0.64228,1.22839,0.47614
603.146,29.16395,-0.64315,1.22847,0.47597
603.646,29.1798,-0.6431,1.21708,0.47579
604.146,29.1956,-0.64305,1.21583,0.47562
604.646,29.2115,-0.64387,1.21288,0.47544
605.146,29.22737,-0.64444,1.19867,0.47526
605.646,29.24322,-0.64441,1.18805,0.47509
606.146,29.2591,-0.64441,1.20293,0.47491
606.646,29.27504,-0.6444,1.19778,0.47474
607.146,29.291,-0.64439,1.18475,0.47456
607.646,29.30694,-0.64509,1.18684,0.47439
608.146,29.32279,-0.64573,1.17024,0.47421
608.646,29.33867,-0.64574,1.17218,0.47404
609.146,29.3546,-0.64613,1.17239,0.47386
609.646,29.3705,-0.64702,1.1736,0.47368
610.146,29.38635,-0.64633,1.14223,0.47351
610.646,29.4022,-0.64638,1.13585,0.47333
611.146,29.41818,-0.64638,1.12654,0.47316
611.646,29.4341,-0.64637,1.12318,0.47298
612.146,29.44994,-0.6467,1.11505,0.47281
612.646,29.46585,-0.64777,1.12041,0.47263
613.146,29.48178,-0.64767,1.12802,0.47246
613.646,29.4977,-0.64847,1.13694,0.47228
614.146,29.51367,-0.64909,1.14368,0.47211
614.646,29.5296,-0.64999,1.14951,0.47194
615.146,29.54555,-0.65008,1.13379,0.47176
615.646,29.56151,-0.65138,1.12502,0.47159
616.146,29.57742,-0.65131,1.13051,0.47141
616.646,29.59338,-0.65133,1.13422,0.47124
617.146,29.60935,-0.6513,1.1419,0.47106
617.646,29.6253,-0.6524,1.14898,0.47089
618.146,29.64133,-0.65263,1.15557,0.47071
618.646,29.6573,-0.65264,1.14935,0.47054
619.146,29.6733,-0.65264,1.15584,0.47037
619.646,29.6893,-0.65264,1.16627,0.47019
620.146,29.7053,-0.65263,1.16161,0.47002
620.646,29.72128,-0.65262,1.1508,0.46984
621.146,29.73723,-0.65336,1.14781,0.46967
621.646,29.75324,-0.65397,1.15062,0.4695
622.146,29.76926,-0.65396,1.15566,0.46932
622.646,29.78523,-0.65387,1.15185,0.46915
623.146,29.80129,-0.65504,1.16261,0.46898
623.646,29.81737,-0.65528,1.17135,0.4688
624.146,29.8334,-0.6553,1.16561,0.46863
624.646,29.84947,-0.65656,1.14844,0.46845
625.146,29.86536,-0.65657,1.1487,0.46828
625.646,29.8814,-0.65659,1.15112,0.46811
626.146,29.8974,-0.65659,1.15468,0.46793
626.646,29.91338,-0.65662,1.15288,0.46776
627.146,29.9293,-0.65786,1.14455,0.46759
627.646,29.94541,-0.65788,1.1391,0.46742
628.146,29.9615,-0.6579,1.12794,0.46724
628.646,29.97747,-0.6579,1.13093,0.46707
629.146,29.9937,-0.6579,1.13607,0.4669
629.246,29.9969,-0.6579,1.13444,0.46686