File: 01_Data/Fiber_Cement_Board/STA/N2/30K_min/Fiber_Cement_Board_STA_N2_30KData_210624_R2.csv
##Temp./Â°C,Time/min,Mass loss(subtr.2)/mg,DSC(subtr.2)/mW,Sensit./(uV/mW)
50.728,10.01,-0.02994,0.08565479,0.6235
51.228,10.94692,-0.03029951,0.14344,0.62349
51.728,11.14917,-0.03093903,0.19929,0.62349
52.228,11.28316,-0.03035722,0.22897,0.62348
52.728,11.39285,-0.03124918,0.2753,0.62348
53.228,11.4824,-0.03252521,0.33392,0.62347
53.728,11.5619,-0.0311596,0.37019,0.62346
54.228,11.63235,-0.03289392,0.39692,0.62346
54.728,11.6965,-0.0355754,0.42746,0.62345
55.228,11.7561,-0.03417548,0.47524,0.62344
55.728,11.81167,-0.03368421,0.5085,0.62343
56.228,11.86328,-0.03353624,0.54656,0.62342
56.728,11.91232,-0.03272843,0.5651,0.62341
57.228,11.95908,-0.0328534,0.59972,0.6234
57.728,12.0039,-0.03311958,0.63442,0.62339
58.228,12.04679,-0.03328333,0.65662,0.62338
58.728,12.0883,-0.03374709,0.66644,0.62337
59.228,12.12833,-0.03370018,0.71029,0.62336
59.728,12.1671,-0.0358214,0.72742,0.62335
60.228,12.2052,-0.03512787,0.76657,0.62334
60.728,12.24175,-0.03534054,0.79242,0.62332
61.228,12.27777,-0.03537246,0.818,0.62331
61.728,12.31295,-0.03442327,0.84371,0.6233
62.228,12.34752,-0.03584478,0.85768,0.62328
62.728,12.38112,-0.03618597,0.8917,0.62327
63.228,12.41413,-0.0367573,0.90153,0.62326
63.728,12.44634,-0.03744821,0.93564,0.62324
64.228,12.4781,-0.03708604,0.96427,0.62323
64.728,12.50928,-0.03658116,0.98029,0.62321
65.228,12.5402,-0.03629925,0.99786,0.62319
65.728,12.57072,-0.03612671,1.01297,0.62318
66.228,12.60084,-0.03651787,1.04593,0.62316
66.728,12.63043,-0.03765607,1.06454,0.62314
67.228,12.6598,-0.03740926,1.09065,0.62313
67.728,12.68886,-0.03692549,1.11327,0.62311
68.228,12.71768,-0.03712109,1.13342,0.62309
68.728,12.74606,-0.03720382,1.15201,0.62307
69.228,12.7742,-0.03860037,1.17699,0.62305
69.728,12.80204,-0.03754594,1.20893,0.62304
70.228,12.82966,-0.03609308,1.22191,0.62302
70.728,12.85705,-0.03503785,1.23813,0.623
71.228,12.884,-0.03734934,1.26303,0.62298
71.728,12.91085,-0.03949636,1.29285,0.62296
72.228,12.93754,-0.03965299,1.32109,0.62293
72.728,12.96417,-0.04010591,1.34245,0.62291
73.228,12.99057,-0.03988967,1.36644,0.62289
73.728,13.01693,-0.03915563,1.38267,0.62287
74.228,13.04288,-0.03923263,1.41945,0.62285
74.728,13.06874,-0.03915971,1.43684,0.62282
75.228,13.0944,-0.0394337,1.45306,0.6228
75.728,13.12004,-0.03938258,1.49462,0.62278
76.228,13.1452,-0.04068381,1.50968,0.62275
76.728,13.17007,-0.04123923,1.53279,0.62273
77.228,13.19486,-0.042394,1.54221,0.6227
77.728,13.21945,-0.04123169,1.59041,0.62268
78.228,13.2445,-0.04273074,1.61398,0.62265
78.728,13.26924,-0.04404592,1.65541,0.62263
79.228,13.2939,-0.04410765,1.68497,0.6226
79.728,13.31864,-0.04409986,1.7064,0.62257
80.228,13.3432,-0.04409456,1.73901,0.62255
80.728,13.36785,-0.04435256,1.77456,0.62252
81.228,13.3922,-0.04405909,1.80081,0.62249
81.728,13.41645,-0.0439929,1.8279,0.62246
82.228,13.44036,-0.04541135,1.85984,0.62244
82.728,13.4643,-0.04627045,1.89613,0.62241
83.228,13.4881,-0.04689835,1.92841,0.62238
83.728,13.5116,-0.04715615,1.96082,0.62235
84.228,13.53515,-0.04815188,1.9951,0.62232
84.728,13.5585,-0.04870019,2.02732,0.62229
85.228,13.58182,-0.04951091,2.05253,0.62226
85.728,13.60503,-0.0499999,2.09436,0.62223
86.228,13.6281,-0.04993791,2.12347,0.6222
86.728,13.651,-0.05140726,2.16935,0.62217
87.228,13.67371,-0.0525884,2.19803,0.62213
87.728,13.6965,-0.05399704,2.23911,0.6221
88.228,13.7192,-0.05378528,2.26787,0.62207
88.728,13.7417,-0.05448836,2.30078,0.62204
89.228,13.76416,-0.05437544,2.33489,0.622
89.728,13.7864,-0.05555142,2.375,0.62197
90.228,13.8086,-0.05571634,2.4022,0.62193
90.728,13.8306,-0.05571939,2.4384,0.6219
91.228,13.8526,-0.05630707,2.48578,0.62186
91.728,13.87469,-0.05700282,2.52632,0.62183
92.228,13.89659,-0.05676032,2.55608,0.62179
92.728,13.9184,-0.05797216,2.59475,0.62176
93.228,13.94006,-0.05803013,2.62621,0.62172
93.728,13.96155,-0.05803072,2.67744,0.62169
94.228,13.98301,-0.05804555,2.69542,0.62165
94.728,14.0045,-0.0584335,2.72857,0.62161
95.228,14.0258,-0.05935573,2.76759,0.62157
95.728,14.04713,-0.05971401,2.81327,0.62154
96.228,14.06825,-0.06192177,2.83623,0.6215
96.728,14.0892,-0.0622368,2.85739,0.62146
97.228,14.11021,-0.06363511,2.89928,0.62142
97.728,14.1311,-0.06503158,2.94101,0.62138
98.228,14.15194,-0.06610987,2.97803,0.62134
98.728,14.1728,-0.06674449,3.00433,0.6213
99.228,14.1936,-0.06735689,3.04211,0.62126
99.728,14.2141,-0.06855521,3.06826,0.62122
100.228,14.2346,-0.06941554,3.09399,0.62118
100.728,14.25494,-0.07007153,3.12887,0.62114
101.228,14.2752,-0.07043237,3.1593,0.62109
101.728,14.29548,-0.0728504,3.19073,0.62105
102.228,14.31567,-0.07273087,3.22195,0.62101
102.728,14.33583,-0.0728113,3.25096,0.62097
103.228,14.356,-0.07411856,3.27133,0.62092
103.728,14.37602,-0.07404567,3.30203,0.62088
104.228,14.3959,-0.07404042,3.32855,0.62084
104.728,14.41581,-0.07404,3.3564,0.62079
105.228,14.4356,-0.07403947,3.38972,0.62075
105.728,14.4554,-0.07403269,3.42736,0.6207
106.228,14.4752,-0.07491247,3.44347,0.62066
106.728,14.4949,-0.0752725,3.48721,0.62061
107.228,14.5144,-0.07698425,3.49974,0.62056
107.728,14.534,-0.07801501,3.52768,0.62052
108.228,14.5534,-0.07827306,3.56204,0.62047
108.728,14.57285,-0.07993473,3.59844,0.62042
109.228,14.59211,-0.08075603,3.60524,0.62038
109.728,14.6113,-0.0819288,3.62765,0.62033
110.228,14.6304,-0.08262674,3.6624,0.62028
110.728,14.6496,-0.08419921,3.70656,0.62023
111.228,14.6687,-0.08512011,3.73518,0.62018
111.728,14.6876,-0.08635373,3.74375,0.62014
112.228,14.70664,-0.08730486,3.76584,0.62009
112.728,14.72555,-0.08945154,3.78652,0.62004
113.228,14.74445,-0.09011336,3.81929,0.61999
113.728,14.76325,-0.0907531,3.83382,0.61994
114.228,14.7821,-0.09259255,3.85193,0.61988
114.728,14.80085,-0.09284339,3.87976,0.61983
115.228,14.81947,-0.09410565,3.91706,0.61978
115.728,14.838,-0.09527452,3.94195,0.61973
116.228,14.8565,-0.09531864,3.9596,0.61968
116.728,14.875,-0.09673443,3.98432,0.61963
117.228,14.8932,-0.09686889,3.99372,0.61957
117.728,14.91136,-0.09868665,4.00171,0.61952
118.228,14.92964,-0.09949214,4.02783,0.61947
118.728,14.94796,-0.09937132,4.0493,0.61941
119.228,14.96619,-0.1019,4.07644,0.61936
119.728,14.98465,-0.10207,4.09193,0.6193
120.228,15.0028,-0.10307,4.10996,0.61925
120.728,15.0209,-0.1037,4.13719,0.61919
121.228,15.0389,-0.10641,4.1533,0.61914
121.728,15.05679,-0.10649,4.16676,0.61908
122.228,15.0746,-0.10666,4.18189,0.61903
122.728,15.0927,-0.10903,4.20589,0.61897
123.228,15.1105,-0.10913,4.22573,0.61891
123.728,15.1283,-0.10927,4.23178,0.61885
124.228,15.1461,-0.11181,4.25218,0.6188
124.728,15.1638,-0.11177,4.25955,0.61874
125.228,15.1814,-0.11223,4.2766,0.61868
125.728,15.1991,-0.11312,4.28392,0.61862
126.228,15.2167,-0.11372,4.29976,0.61856
126.728,15.2342,-0.11445,4.32048,0.6185
127.228,15.25165,-0.11565,4.33359,0.61845
127.728,15.2691,-0.11587,4.34026,0.61839
128.228,15.2864,-0.11856,4.35075,0.61833
128.728,15.3037,-0.11881,4.3638,0.61826
129.228,15.32095,-0.12015,4.37354,0.6182
129.728,15.33816,-0.1206,4.38561,0.61814
130.228,15.3554,-0.12146,4.39914,0.61808
130.728,15.37253,-0.12137,4.40973,0.61802
131.228,15.38965,-0.12238,4.41592,0.61796
131.728,15.4067,-0.12276,4.43045,0.61789
132.228,15.4237,-0.1229,4.44723,0.61783
132.728,15.44079,-0.12459,4.45857,0.61777
133.228,15.45771,-0.12547,4.46692,0.61771
133.728,15.4747,-0.12652,4.47268,0.61764
134.228,15.49153,-0.12678,4.47927,0.61758
134.728,15.5084,-0.12724,4.48791,0.61751
135.228,15.5252,-0.12968,4.49188,0.61745
135.728,15.542,-0.1298,4.50721,0.61738
136.228,15.5587,-0.13096,4.50705,0.61732
136.728,15.5754,-0.13093,4.51665,0.61725
137.228,15.5921,-0.13189,4.52831,0.61719
137.728,15.6088,-0.13358,4.54855,0.61712
138.228,15.62527,-0.13412,4.54571,0.61705
138.728,15.6418,-0.13511,4.54762,0.61699
139.228,15.6581,-0.13602,4.55396,0.61692
139.728,15.6745,-0.1366,4.57106,0.61685
140.228,15.69094,-0.13773,4.58288,0.61678
140.728,15.7074,-0.1381,4.5819,0.61672
141.228,15.72378,-0.13814,4.58728,0.61665
141.728,15.74019,-0.13943,4.5968,0.61658
142.228,15.7566,-0.14057,4.60377,0.61651
142.728,15.773,-0.14083,4.60813,0.61644
143.228,15.78925,-0.14224,4.61779,0.61637
143.728,15.8055,-0.14253,4.62979,0.6163
144.228,15.82175,-0.14372,4.63962,0.61623
144.728,15.838,-0.14415,4.64853,0.61616
145.228,15.8542,-0.14522,4.66472,0.61609
145.728,15.8703,-0.14635,4.67029,0.61602
146.228,15.8864,-0.14704,4.67237,0.61594
146.728,15.9025,-0.1493,4.6705,0.61587
147.228,15.9185,-0.1495,4.67283,0.6158
147.728,15.93457,-0.14942,4.67985,0.61573
148.228,15.9506,-0.15054,4.69124,0.61565
148.728,15.9666,-0.1508,4.70017,0.61558
149.228,15.9826,-0.15135,4.69938,0.61551
149.728,15.9986,-0.15301,4.70328,0.61543
150.228,16.0146,-0.15355,4.70488,0.61536
150.728,16.03053,-0.15427,4.69959,0.61528
151.228,16.04637,-0.15511,4.69396,0.61521
151.728,16.06223,-0.15598,4.69785,0.61513
152.228,16.0781,-0.15668,4.69971,0.61506
152.728,16.09391,-0.15697,4.7015,0.61498
153.228,16.1097,-0.15795,4.69633,0.61491
153.728,16.12552,-0.15852,4.69441,0.61483
154.228,16.14131,-0.15949,4.69754,0.61475
154.728,16.15703,-0.16063,4.70557,0.61468
155.228,16.1727,-0.16087,4.70483,0.6146
155.728,16.18843,-0.16137,4.70937,0.61452
156.228,16.20415,-0.16363,4.71433,0.61444
156.728,16.21973,-0.16366,4.71512,0.61436
157.228,16.23539,-0.16416,4.72076,0.61429
157.728,16.25104,-0.16498,4.72411,0.61421
158.228,16.26667,-0.16499,4.72606,0.61413
158.728,16.2822,-0.16765,4.73249,0.61405
159.228,16.29779,-0.16778,4.72749,0.61397
159.728,16.31333,-0.16882,4.72447,0.61389
160.228,16.32883,-0.16934,4.72299,0.61381
160.728,16.34427,-0.17046,4.74453,0.61373
161.228,16.35973,-0.17089,4.75068,0.61365
161.728,16.37519,-0.17208,4.73505,0.61357
162.228,16.3906,-0.17242,4.74245,0.61348
162.728,16.4061,-0.1734,4.7517,0.6134
163.228,16.42154,-0.17371,4.75349,0.61332
163.728,16.437,-0.17418,4.74814,0.61324
164.228,16.45239,-0.17524,4.74601,0.61315
164.728,16.46777,-0.1759,4.7368,0.61307
165.228,16.4832,-0.17737,4.75226,0.61299
165.728,16.49854,-0.17745,4.75462,0.6129
166.228,16.51379,-0.1789,4.76528,0.61282
166.728,16.52906,-0.1788,4.76723,0.61274
167.228,16.5444,-0.17917,4.781,0.61265
167.728,16.5596,-0.1801,4.78009,0.61257
168.228,16.57488,-0.18031,4.78492,0.61248
168.728,16.59016,-0.18187,4.78785,0.6124
169.228,16.60548,-0.18191,4.80497,0.61231
169.728,16.6207,-0.18333,4.80286,0.61222
170.228,16.63593,-0.18313,4.80661,0.61214
170.728,16.65116,-0.18483,4.79186,0.61205
171.228,16.6663,-0.18515,4.78982,0.61196
171.728,16.68139,-0.18561,4.79426,0.61188
172.228,16.69654,-0.18655,4.81715,0.61179
172.728,16.71155,-0.18653,4.80693,0.6117
173.228,16.72666,-0.18766,4.80776,0.61161
173.728,16.7418,-0.1879,4.78844,0.61153
174.228,16.75688,-0.18917,4.80499,0.61144
174.728,16.77198,-0.18928,4.78548,0.61135
175.228,16.78699,-0.19057,4.78645,0.61126
175.728,16.8021,-0.19081,4.78858,0.61117
176.228,16.8171,-0.19204,4.79462,0.61108
176.728,16.83211,-0.19225,4.77994,0.61099
177.228,16.8471,-0.19344,4.78973,0.6109
177.728,16.862,-0.1936,4.7885,0.61081
178.228,16.8769,-0.19466,4.79814,0.61072
178.728,16.89185,-0.19487,4.79935,0.61063
179.228,16.90682,-0.1957,4.79792,0.61053
179.728,16.92174,-0.19772,4.79519,0.61044
180.228,16.93665,-0.19799,4.79623,0.61035
180.728,16.95158,-0.19924,4.79651,0.61026
181.228,16.96649,-0.19927,4.79384,0.61017
181.728,16.9814,-0.2008,4.79349,0.61007
182.228,16.9962,-0.20069,4.79463,0.60998
182.728,17.01098,-0.20114,4.77959,0.60989
183.228,17.02575,-0.20292,4.78891,0.60979
183.728,17.0406,-0.2036,4.79672,0.6097
184.228,17.05536,-0.20471,4.79505,0.6096
184.728,17.07015,-0.20501,4.7841,0.60951
185.228,17.0849,-0.2055,4.78112,0.60941
185.728,17.0996,-0.20654,4.78663,0.60932
186.228,17.11435,-0.20673,4.77566,0.60922
186.728,17.1291,-0.20804,4.76671,0.60913
187.228,17.14377,-0.20827,4.78071,0.60903
187.728,17.15846,-0.21063,4.79198,0.60893
188.228,17.17309,-0.21071,4.7766,0.60884
188.728,17.1877,-0.21159,4.76594,0.60874
189.228,17.20239,-0.21214,4.76155,0.60864
189.728,17.21696,-0.21213,4.76102,0.60855
190.228,17.23153,-0.21214,4.75505,0.60845
190.728,17.24595,-0.21309,4.75713,0.60835
191.228,17.26054,-0.21344,4.75471,0.60825
191.728,17.2751,-0.21371,4.74965,0.60815
192.228,17.2896,-0.21495,4.74546,0.60805
192.728,17.30416,-0.21617,4.74696,0.60796
193.228,17.31864,-0.218,4.75103,0.60786
193.728,17.33331,-0.21818,4.73909,0.60776
194.228,17.34779,-0.21945,4.73361,0.60766
194.728,17.36226,-0.21953,4.72949,0.60756
195.228,17.3767,-0.22031,4.71926,0.60746
195.728,17.3912,-0.22112,4.70411,0.60736
196.228,17.40566,-0.22165,4.71529,0.60725
196.728,17.42006,-0.22255,4.72091,0.60715
197.228,17.4345,-0.2225,4.69461,0.60705
197.728,17.44889,-0.22312,4.69012,0.60695
198.228,17.4633,-0.22392,4.68732,0.60685
198.728,17.47766,-0.22386,4.68957,0.60674
199.228,17.4921,-0.22387,4.6823,0.60664
199.728,17.5064,-0.22502,4.67033,0.60654
200.228,17.52074,-0.22538,4.67111,0.60644
200.728,17.53506,-0.22588,4.66449,0.60633
201.228,17.54935,-0.22672,4.67748,0.60623
201.728,17.56369,-0.22674,4.65958,0.60613
202.228,17.57801,-0.22807,4.63747,0.60602
202.728,17.5923,-0.22821,4.62844,0.60592
203.228,17.60662,-0.22864,4.62566,0.60581
203.728,17.62096,-0.22959,4.6276,0.60571
204.228,17.6353,-0.22959,4.62144,0.6056
204.728,17.64954,-0.22953,4.60599,0.6055
205.228,17.66378,-0.23181,4.59134,0.60539
205.728,17.67804,-0.23227,4.57824,0.60528
206.228,17.69229,-0.23349,4.56316,0.60518
206.728,17.70654,-0.23372,4.55806,0.60507
207.228,17.72075,-0.23448,4.54799,0.60496
207.728,17.73497,-0.23599,4.53589,0.60486
208.228,17.74918,-0.23604,4.52371,0.60475
208.728,17.7634,-0.23604,4.51231,0.60464
209.228,17.7776,-0.23621,4.52201,0.60453
209.728,17.79179,-0.23744,4.50732,0.60443
210.228,17.806,-0.23729,4.50401,0.60432
210.728,17.82015,-0.23803,4.48761,0.60421
211.228,17.8343,-0.23896,4.4763,0.6041
211.728,17.84846,-0.23909,4.45103,0.60399
212.228,17.86262,-0.24055,4.44227,0.60388
212.728,17.87677,-0.24036,4.42871,0.60377
213.228,17.8909,-0.24118,4.42462,0.60366
213.728,17.9051,-0.24204,4.42054,0.60355
214.228,17.91919,-0.24194,4.41525,0.60344
214.728,17.9333,-0.24289,4.40747,0.60333
215.228,17.94746,-0.24331,4.40277,0.60322
215.728,17.9616,-0.24328,4.39799,0.60311
216.228,17.97563,-0.24328,4.38376,0.603
216.728,17.9896,-0.24358,4.37489,0.60288
217.228,18.00369,-0.24482,4.36198,0.60277
217.728,18.01776,-0.24469,4.36659,0.60266
218.228,18.03181,-0.24469,4.36007,0.60255
218.728,18.04586,-0.24503,4.35272,0.60243
219.228,18.0599,-0.24602,4.33214,0.60232
219.728,18.07398,-0.24602,4.31259,0.60221
220.228,18.0881,-0.24598,4.2944,0.60209
220.728,18.10216,-0.24686,4.30071,0.60198
221.228,18.11621,-0.24737,4.29655,0.60187
221.728,18.1302,-0.24769,4.28377,0.60175
222.228,18.14424,-0.249,4.26648,0.60164
222.728,18.15823,-0.2491,4.25875,0.60152
223.228,18.17226,-0.24918,4.24634,0.60141
223.728,18.18621,-0.25023,4.24006,0.60129
224.228,18.20017,-0.25041,4.2271,0.60118
224.728,18.2141,-0.25041,4.2276,0.60106
225.228,18.2281,-0.2506,4.22051,0.60095
225.728,18.2421,-0.25181,4.21171,0.60083
226.228,18.25604,-0.25172,4.18499,0.60071
226.728,18.26997,-0.25206,4.17423,0.6006
227.228,18.2839,-0.25426,4.16227,0.60048
227.728,18.29788,-0.2544,4.15112,0.60036
228.228,18.31182,-0.25561,4.14061,0.60024
228.728,18.3258,-0.25587,4.13017,0.60013
229.228,18.33971,-0.25623,4.11643,0.60001
229.728,18.35354,-0.25596,4.10141,0.59989
230.228,18.36743,-0.25615,4.08621,0.59977
230.728,18.38137,-0.2575,4.07537,0.59965
231.228,18.3953,-0.2564,4.07166,0.59953
231.728,18.40924,-0.25723,4.05866,0.59942
232.228,18.4231,-0.25771,4.04428,0.5993
232.728,18.4371,-0.25853,4.03235,0.59918
233.228,18.45101,-0.25931,4.0248,0.59906
233.728,18.4649,-0.25921,4.00914,0.59894
234.228,18.47873,-0.26017,4.00908,0.59882
234.728,18.49253,-0.26064,3.98427,0.5987
235.228,18.5064,-0.26053,3.97055,0.59858
235.728,18.52025,-0.26162,3.96469,0.59845
236.228,18.53415,-0.26206,3.95512,0.59833
236.728,18.548,-0.26204,3.93555,0.59821
237.228,18.56182,-0.26204,3.91416,0.59809
237.728,18.57565,-0.26199,3.91062,0.59797
238.228,18.58953,-0.26266,3.90559,0.59785
238.728,18.6034,-0.2634,3.88625,0.59772
239.228,18.61717,-0.2634,3.87693,0.5976
239.728,18.63085,-0.26347,3.87696,0.59748
240.228,18.6446,-0.26588,3.8798,0.59735
240.728,18.65845,-0.26612,3.86501,0.59723
241.228,18.67224,-0.2662,3.86108,0.59711
241.728,18.686,-0.26712,3.84744,0.59698
242.228,18.69976,-0.26838,3.84619,0.59686
242.728,18.7136,-0.26874,3.84352,0.59674
243.228,18.72755,-0.26872,3.84073,0.59661
243.728,18.74136,-0.26919,3.82783,0.59649
244.228,18.75514,-0.27013,3.81567,0.59636
244.728,18.76897,-0.27005,3.81532,0.59624
245.228,18.7828,-0.27021,3.79742,0.59611
245.728,18.7966,-0.27076,3.79052,0.59599
246.228,18.8104,-0.27071,3.79616,0.59586
246.728,18.82415,-0.27139,3.78755,0.59573
247.228,18.83791,-0.27151,3.78386,0.59561
247.728,18.85166,-0.27282,3.77963,0.59548
248.228,18.86536,-0.27316,3.76298,0.59535
248.728,18.87913,-0.27308,3.76871,0.59523
249.228,18.89283,-0.27428,3.75886,0.5951
249.728,18.90652,-0.27444,3.74997,0.59497
250.228,18.92025,-0.27443,3.7669,0.59484
250.728,18.934,-0.27439,3.74416,0.59472
251.228,18.94775,-0.2749,3.75687,0.59459
251.728,18.9615,-0.27578,3.74984,0.59446
252.228,18.9752,-0.27576,3.75281,0.59433
252.728,18.98891,-0.2757,3.74585,0.5942
253.228,19.0027,-0.27691,3.7603,0.59407
253.728,19.0164,-0.27706,3.75103,0.59394
254.228,19.03012,-0.27706,3.74385,0.59382
254.728,19.04384,-0.27706,3.72809,0.59369
255.228,19.05754,-0.27721,3.73525,0.59356
255.728,19.0713,-0.2787,3.73543,0.59343
256.228,19.085,-0.27901,3.72169,0.5933
256.728,19.0987,-0.28013,3.72934,0.59317
257.228,19.1124,-0.28072,3.72717,0.59303
257.728,19.12603,-0.28059,3.73011,0.5929
258.228,19.13972,-0.28164,3.74414,0.59277
258.728,19.15343,-0.28214,3.73954,0.59264
259.228,19.1671,-0.28206,3.74736,0.59251
259.728,19.1808,-0.28244,3.75331,0.59238
260.228,19.19443,-0.28206,3.74192,0.59225
260.728,19.20811,-0.28212,3.7222,0.59211
261.228,19.2218,-0.28218,3.72064,0.59198
261.728,19.23542,-0.28325,3.71855,0.59185
262.228,19.24904,-0.28355,3.71315,0.59172
262.728,19.26269,-0.2843,3.72722,0.59158
263.228,19.27634,-0.2863,3.74637,0.59145
263.728,19.28998,-0.28639,3.73012,0.59132
264.228,19.30367,-0.28639,3.71508,0.59118
264.728,19.31729,-0.28654,3.72607,0.59105
265.228,19.33096,-0.28775,3.73407,0.59091
265.728,19.34461,-0.28788,3.73908,0.59078
266.228,19.35825,-0.28945,3.73803,0.59065
266.728,19.37191,-0.29061,3.72641,0.59051
267.228,19.38556,-0.29057,3.7272,0.59038
267.728,19.39915,-0.29052,3.73613,0.59024
268.228,19.41283,-0.29174,3.74209,0.59011
268.728,19.42644,-0.29188,3.74123,0.58997
269.228,19.44008,-0.29222,3.74466,0.58983
269.728,19.4537,-0.29341,3.74002,0.5897
270.228,19.46728,-0.29328,3.73723,0.58956
270.728,19.48091,-0.29372,3.74959,0.58943
271.228,19.49456,-0.29486,3.74727,0.58929
271.728,19.50819,-0.29464,3.75571,0.58915
272.228,19.52184,-0.29599,3.7902,0.58902
272.728,19.53548,-0.29628,3.77421,0.58888
273.228,19.54915,-0.29652,3.77567,0.58874
273.728,19.56277,-0.29767,3.79395,0.5886
274.228,19.5764,-0.29756,3.79421,0.58847
274.728,19.59008,-0.29758,3.79439,0.58833
275.228,19.60374,-0.29751,3.78762,0.58819
275.728,19.6174,-0.29831,3.78966,0.58805
276.228,19.63102,-0.2989,3.8,0.58791
276.728,19.6447,-0.29894,3.80189,0.58777
277.228,19.65835,-0.30019,3.81556,0.58764
277.728,19.67199,-0.30031,3.82606,0.5875
278.228,19.6856,-0.30023,3.83893,0.58736
278.728,19.69922,-0.30124,3.84941,0.58722
279.228,19.71285,-0.30164,3.84853,0.58708
279.728,19.72646,-0.30165,3.85226,0.58694
280.228,19.74015,-0.30164,3.88381,0.5868
280.728,19.75376,-0.30276,3.8851,0.58666
281.228,19.76736,-0.30345,3.88606,0.58652
281.728,19.78102,-0.30383,3.8892,0.58638
282.228,19.7946,-0.30504,3.9043,0.58624
282.728,19.8082,-0.30511,3.91825,0.58609
283.228,19.82188,-0.30644,3.9237,0.58595
283.728,19.83548,-0.30639,3.93282,0.58581
284.228,19.84913,-0.30782,3.93538,0.58567
284.728,19.86277,-0.30781,3.94563,0.58553
285.228,19.8764,-0.30851,3.96393,0.58539
285.728,19.89007,-0.30932,3.94473,0.58524
286.228,19.90374,-0.30932,3.9616,0.5851
286.728,19.91739,-0.31078,3.96031,0.58496
287.228,19.93103,-0.31183,3.99744,0.58482
287.728,19.9447,-0.31224,4.01842,0.58467
288.228,19.95833,-0.31324,4.0248,0.58453
288.728,19.97195,-0.31327,4.03262,0.58439
289.228,19.98563,-0.31316,4.04047,0.58424
289.728,19.9992,-0.31428,4.06378,0.5841
290.228,20.01278,-0.31478,4.08902,0.58396
290.728,20.02634,-0.3152,4.07801,0.58381
291.228,20.0399,-0.31644,4.09395,0.58367
291.728,20.05356,-0.31664,4.11121,0.58352
292.228,20.06716,-0.31713,4.12861,0.58338
292.728,20.0807,-0.31671,4.14125,0.58323
293.228,20.09431,-0.31806,4.13507,0.58309
293.728,20.10795,-0.31838,4.15403,0.58294
294.228,20.1216,-0.31971,4.17681,0.5828
294.728,20.13518,-0.31951,4.19223,0.58265
295.228,20.1488,-0.3205,4.19781,0.58251
295.728,20.16241,-0.32104,4.20759,0.58236
296.228,20.1761,-0.32258,4.22013,0.58222
296.728,20.1898,-0.32379,4.23101,0.58207
297.228,20.2034,-0.32406,4.23482,0.58192
297.728,20.21711,-0.32534,4.23291,0.58178
298.228,20.2308,-0.32663,4.23865,0.58163
298.728,20.24446,-0.32794,4.25255,0.58148
299.228,20.2581,-0.328,4.27561,0.58134
299.728,20.2717,-0.32932,4.28589,0.58119
300.228,20.2853,-0.32958,4.30493,0.58104
300.728,20.29896,-0.33017,4.32593,0.58089
301.228,20.31257,-0.33119,4.3337,0.58075
301.728,20.32617,-0.33144,4.34377,0.5806
302.228,20.33984,-0.33268,4.35194,0.58045
302.728,20.3535,-0.33299,4.35269,0.5803
303.228,20.3672,-0.33413,4.37563,0.58015
303.728,20.38085,-0.33495,4.39336,0.58
304.228,20.3945,-0.33585,4.41821,0.57986
304.728,20.40814,-0.33713,4.42966,0.57971
305.228,20.42178,-0.33741,4.42829,0.57956
305.728,20.43544,-0.33874,4.44668,0.57941
306.228,20.4491,-0.3396,4.44879,0.57926
306.728,20.46273,-0.34071,4.46131,0.57911
307.228,20.47649,-0.34143,4.46655,0.57896
307.728,20.49025,-0.34233,4.48061,0.57881
308.228,20.504,-0.34266,4.49081,0.57866
308.728,20.51773,-0.34434,4.49837,0.57851
309.228,20.53146,-0.34536,4.51408,0.57836
309.728,20.54516,-0.34645,4.52144,0.57821
310.228,20.55881,-0.34702,4.52725,0.57806
310.728,20.57241,-0.34823,4.54143,0.57791
311.228,20.58605,-0.34925,4.54403,0.57776
311.728,20.59971,-0.34968,4.53296,0.5776
312.228,20.61332,-0.3507,4.56215,0.57745
312.728,20.627,-0.35122,4.56259,0.5773
313.228,20.64069,-0.35195,4.56841,0.57715
313.728,20.65435,-0.3529,4.59061,0.577
314.228,20.668,-0.3536,4.59447,0.57684
314.728,20.68166,-0.35342,4.58416,0.57669
315.228,20.69529,-0.35504,4.60037,0.57654
315.728,20.70897,-0.3554,4.61491,0.57639
316.228,20.72263,-0.35695,4.61701,0.57623
316.728,20.73629,-0.35667,4.62762,0.57608
317.228,20.74993,-0.3579,4.63248,0.57593
317.728,20.76363,-0.35881,4.6374,0.57578
318.228,20.7773,-0.3611,4.64382,0.57562
318.728,20.79091,-0.36175,4.63658,0.57547
319.228,20.8046,-0.36345,4.63783,0.57531
319.728,20.81823,-0.36485,4.64177,0.57516
320.228,20.8319,-0.36516,4.6446,0.57501
320.728,20.8456,-0.36651,4.64258,0.57485
321.228,20.8593,-0.36737,4.64447,0.5747
321.728,20.87298,-0.36853,4.65762,0.57454
322.228,20.88665,-0.36964,4.66973,0.57439
322.728,20.90033,-0.36999,4.66714,0.57423
323.228,20.91402,-0.37132,4.65289,0.57408
323.728,20.9277,-0.3722,4.66837,0.57392
324.228,20.94136,-0.37479,4.67496,0.57377
324.728,20.9551,-0.3758,4.6756,0.57361
325.228,20.96884,-0.37656,4.67427,0.57346
325.728,20.9826,-0.37762,4.68863,0.5733
326.228,20.9963,-0.37812,4.67966,0.57315
326.728,21.00998,-0.3794,4.67622,0.57299
327.228,21.02371,-0.38015,4.68558,0.57283
327.728,21.0374,-0.38163,4.69306,0.57268
328.228,21.05104,-0.38187,4.69448,0.57252
328.728,21.06474,-0.38324,4.69403,0.57237
329.228,21.07842,-0.38353,4.69668,0.57221
329.728,21.09215,-0.38536,4.67747,0.57205
330.228,21.10584,-0.38604,4.69162,0.57189
330.728,21.11955,-0.38629,4.69274,0.57174
331.228,21.13328,-0.38776,4.69676,0.57158
331.728,21.14697,-0.38953,4.67689,0.57142
332.228,21.16068,-0.39045,4.67859,0.57127
332.728,21.17445,-0.3921,4.65517,0.57111
333.228,21.1882,-0.393,4.65888,0.57095
333.728,21.20202,-0.39367,4.64735,0.57079
334.228,21.21579,-0.3949,4.65271,0.57063
334.728,21.22953,-0.3954,4.65484,0.57047
335.228,21.2433,-0.39675,4.6422,0.57032
335.728,21.25701,-0.39735,4.64204,0.57016
336.228,21.27071,-0.39863,4.65729,0.57
336.728,21.28444,-0.39966,4.65092,0.56984
337.228,21.29811,-0.40079,4.64361,0.56968
337.728,21.31191,-0.40256,4.63657,0.56952
338.228,21.32566,-0.40362,4.62992,0.56936
338.728,21.33945,-0.40418,4.62549,0.5692
339.228,21.35321,-0.40578,4.63078,0.56904
339.728,21.36696,-0.40653,4.64846,0.56888
340.228,21.38064,-0.40798,4.6386,0.56872
340.728,21.3943,-0.40916,4.62134,0.56856
341.228,21.40803,-0.40994,4.63297,0.5684
341.728,21.42178,-0.41185,4.61678,0.56824
342.228,21.43554,-0.41231,4.61375,0.56808
342.728,21.44935,-0.41327,4.62228,0.56792
343.228,21.46317,-0.4144,4.62069,0.56776
343.728,21.47709,-0.41557,4.61117,0.5676
344.228,21.49091,-0.417,4.59849,0.56744
344.728,21.5047,-0.41825,4.59465,0.56728
345.228,21.5185,-0.41953,4.5792,0.56712
345.728,21.53229,-0.42072,4.57627,0.56696
346.228,21.54608,-0.42195,4.56847,0.5668
346.728,21.55988,-0.42283,4.56318,0.56663
347.228,21.5736,-0.42429,4.56345,0.56647
347.728,21.58738,-0.42576,4.56805,0.56631
348.228,21.60114,-0.42674,4.54868,0.56615
348.728,21.6149,-0.42875,4.54761,0.56599
349.228,21.6287,-0.43028,4.55998,0.56582
349.728,21.64254,-0.43064,4.54142,0.56566
350.228,21.65636,-0.43215,4.54985,0.5655
350.728,21.67023,-0.43372,4.52865,0.56534
351.228,21.6841,-0.43486,4.5195,0.56517
351.728,21.69795,-0.43627,4.50371,0.56501
352.228,21.71174,-0.43686,4.51655,0.56485
352.728,21.7256,-0.43811,4.51219,0.56468
353.228,21.73943,-0.43824,4.50486,0.56452
353.728,21.75327,-0.43997,4.50757,0.56436
354.228,21.7671,-0.44141,4.51311,0.56419
354.728,21.7809,-0.44242,4.49579,0.56403
355.228,21.79477,-0.44575,4.47346,0.56387
355.728,21.80859,-0.44731,4.47645,0.5637
356.228,21.82242,-0.44945,4.47834,0.56354
356.728,21.83623,-0.45164,4.47821,0.56337
357.228,21.84999,-0.45322,4.46486,0.56321
357.728,21.86384,-0.45524,4.45698,0.56305
358.228,21.8777,-0.45642,4.44946,0.56288
358.728,21.8916,-0.45807,4.44894,0.56272
359.228,21.90546,-0.45933,4.47005,0.56255
359.728,21.9193,-0.4604,4.45352,0.56239
360.228,21.9333,-0.46187,4.44138,0.56222
360.728,21.94724,-0.4632,4.42981,0.56206
361.228,21.9612,-0.4642,4.43815,0.56189
361.728,21.9751,-0.46571,4.43425,0.56173
362.228,21.989,-0.46763,4.418,0.56156
362.728,22.00292,-0.46991,4.42816,0.5614
363.228,22.01683,-0.47216,4.41922,0.56123
363.728,22.0307,-0.47403,4.41406,0.56106
364.228,22.0446,-0.47521,4.41227,0.5609
364.728,22.05849,-0.47647,4.39768,0.56073
365.228,22.07235,-0.47777,4.40502,0.56057
365.728,22.08623,-0.47929,4.40717,0.5604
366.228,22.1001,-0.4812,4.40275,0.56023
366.728,22.114,-0.4825,4.3929,0.56007
367.228,22.12793,-0.48406,4.38641,0.5599
367.728,22.14186,-0.48627,4.38962,0.55973
368.228,22.15578,-0.48839,4.37903,0.55957
368.728,22.16969,-0.49005,4.3646,0.5594
369.228,22.1836,-0.49215,4.35717,0.55923
369.728,22.19748,-0.49334,4.34865,0.55907
370.228,22.2114,-0.49453,4.3708,0.5589
370.728,22.22532,-0.49564,4.35797,0.55873
371.228,22.23926,-0.4966,4.35177,0.55856
371.728,22.25326,-0.49821,4.35647,0.5584
372.228,22.26724,-0.49984,4.35119,0.55823
372.728,22.28129,-0.50079,4.34198,0.55806
373.228,22.29526,-0.50266,4.34311,0.55789
373.728,22.30924,-0.50447,4.34273,0.55772
374.228,22.32328,-0.50544,4.31384,0.55756
374.728,22.3372,-0.507,4.3087,0.55739
375.228,22.35122,-0.50917,4.31167,0.55722
375.728,22.36519,-0.51018,4.31684,0.55705
376.228,22.3792,-0.51174,4.31479,0.55688
376.728,22.39317,-0.51366,4.30596,0.55671
377.228,22.40718,-0.51658,4.3025,0.55655
377.728,22.42117,-0.51975,4.28734,0.55638
378.228,22.43521,-0.52134,4.27471,0.55621
378.728,22.44922,-0.52366,4.28776,0.55604
379.228,22.46321,-0.52545,4.27663,0.55587
379.728,22.47723,-0.52682,4.2812,0.5557
380.228,22.49118,-0.52912,4.27913,0.55553
380.728,22.50516,-0.5303,4.28249,0.55536
381.228,22.51914,-0.53155,4.27309,0.55519
381.728,22.53311,-0.53434,4.27182,0.55502
382.228,22.54713,-0.53565,4.26763,0.55485
382.728,22.56116,-0.5378,4.26517,0.55468
383.228,22.57519,-0.53984,4.2612,0.55451
383.728,22.58923,-0.54146,4.24756,0.55434
384.228,22.6033,-0.54347,4.24973,0.55417
384.728,22.61739,-0.54513,4.24438,0.554
385.228,22.6314,-0.54728,4.22698,0.55383
385.728,22.64544,-0.54864,4.22081,0.55366
386.228,22.65948,-0.55132,4.22366,0.55349
386.728,22.67345,-0.55398,4.20691,0.55332
387.228,22.68744,-0.55741,4.18886,0.55315
387.728,22.70148,-0.55942,4.1826,0.55298
388.228,22.7155,-0.56099,4.18526,0.55281
388.728,22.72962,-0.56308,4.18308,0.55264
389.228,22.7437,-0.56433,4.17672,0.55247
389.728,22.7578,-0.56658,4.1524,0.5523
390.228,22.77205,-0.5683,4.15254,0.55212
390.728,22.78613,-0.56984,4.14355,0.55195
391.228,22.80025,-0.57059,4.12982,0.55178
391.728,22.81435,-0.57149,4.1094,0.55161
392.228,22.82848,-0.57286,4.10693,0.55144
392.728,22.84256,-0.57515,4.10127,0.55127
393.228,22.85661,-0.57679,4.07335,0.55109
393.728,22.8706,-0.5778,4.04998,0.55092
394.228,22.88467,-0.57983,4.03896,0.55075
394.728,22.8988,-0.58217,4.02945,0.55058
395.228,22.9129,-0.58385,4.01551,0.55041
395.728,22.927,-0.58515,4.02092,0.55023
396.228,22.94117,-0.58679,3.99076,0.55006
396.728,22.95543,-0.5879,3.97495,0.54989
397.228,22.96967,-0.58888,3.94521,0.54972
397.728,22.9838,-0.59127,3.91529,0.54954
398.228,22.99798,-0.59137,3.89249,0.54937
398.728,23.01212,-0.59345,3.89126,0.5492
399.228,23.02628,-0.59574,3.89556,0.54903
399.728,23.04041,-0.59685,3.87033,0.54885
400.228,23.0546,-0.59945,3.84823,0.54868
400.728,23.06874,-0.60104,3.83718,0.54851
401.228,23.0829,-0.60179,3.80834,0.54833
401.728,23.0972,-0.60282,3.78606,0.54816
402.228,23.11137,-0.60303,3.76452,0.54799
402.728,23.12557,-0.60334,3.74941,0.54781
403.228,23.13974,-0.60458,3.7396,0.54764
403.728,23.15395,-0.6049,3.72833,0.54747
404.228,23.16818,-0.60602,3.73014,0.54729
404.728,23.18235,-0.60622,3.70963,0.54712
405.228,23.19655,-0.60749,3.67924,0.54695
405.728,23.21078,-0.60754,3.68475,0.54677
406.228,23.22499,-0.60801,3.67088,0.5466
406.728,23.23925,-0.60887,3.66199,0.54642
407.228,23.25333,-0.60886,3.64486,0.54625
407.728,23.2676,-0.61036,3.63973,0.54607
408.228,23.28185,-0.61068,3.61727,0.5459
408.728,23.29609,-0.61203,3.60489,0.54573
409.228,23.31034,-0.61228,3.5938,0.54555
409.728,23.32459,-0.6134,3.57744,0.54538
410.228,23.3389,-0.61383,3.55743,0.5452
410.728,23.35323,-0.61384,3.56403,0.54503
411.228,23.36747,-0.61494,3.54838,0.54485
411.728,23.38175,-0.61517,3.53259,0.54468
412.228,23.39601,-0.61626,3.52078,0.5445
412.728,23.41031,-0.61644,3.51655,0.54433
413.228,23.42461,-0.61746,3.50569,0.54415
413.728,23.4389,-0.61776,3.49753,0.54398
414.228,23.45318,-0.61778,3.48656,0.5438
414.728,23.4675,-0.61894,3.47411,0.54363
415.228,23.48176,-0.61912,3.46804,0.54345
415.728,23.49607,-0.61976,3.46959,0.54328
416.228,23.51042,-0.62049,3.46256,0.5431
416.728,23.52475,-0.62048,3.45495,0.54293
417.228,23.5391,-0.6205,3.43349,0.54275
417.728,23.55339,-0.62065,3.43924,0.54258
418.228,23.56775,-0.62171,3.43529,0.5424
418.728,23.58209,-0.62176,3.43628,0.54222
419.228,23.59639,-0.62249,3.42787,0.54205
419.728,23.6107,-0.62335,3.42386,0.54187
420.228,23.62501,-0.62423,3.4199,0.5417
420.728,23.63935,-0.62581,3.41168,0.54152
421.228,23.65367,-0.62725,3.39937,0.54134
421.728,23.66801,-0.62776,3.40502,0.54117
422.228,23.68236,-0.62773,3.39376,0.54099
422.728,23.69674,-0.62775,3.38601,0.54081
423.228,23.71109,-0.6278,3.38061,0.54064
423.728,23.72546,-0.62899,3.3755,0.54046
424.228,23.73986,-0.62905,3.38339,0.54029
424.728,23.7543,-0.62926,3.37102,0.54011
425.228,23.76866,-0.63032,3.35958,0.53993
425.728,23.78305,-0.62972,3.35305,0.53976
426.228,23.79747,-0.629,3.3436,0.53958
426.728,23.8119,-0.62905,3.34924,0.5394
427.228,23.82628,-0.62901,3.34968,0.53923
427.728,23.84071,-0.62977,3.34103,0.53905
428.228,23.8551,-0.63054,3.32676,0.53887
428.728,23.86952,-0.63174,3.31827,0.53869
429.228,23.88394,-0.63178,3.31675,0.53852
429.728,23.89834,-0.63272,3.33004,0.53834
430.228,23.9128,-0.63283,3.32037,0.53816
430.728,23.92719,-0.63332,3.30298,0.53799
431.228,23.94165,-0.63425,3.29318,0.53781
431.728,23.95607,-0.63421,3.28871,0.53763
432.228,23.9705,-0.63423,3.29018,0.53745
432.728,23.98496,-0.63526,3.28317,0.53728
433.228,23.9994,-0.63553,3.28415,0.5371
433.728,24.01384,-0.63556,3.28033,0.53692
434.228,24.02828,-0.63672,3.26935,0.53674
434.728,24.04277,-0.63681,3.26107,0.53657
435.228,24.05729,-0.63686,3.25043,0.53639
435.728,24.07177,-0.63691,3.24806,0.53621
436.228,24.08628,-0.63797,3.24508,0.53603
436.728,24.10077,-0.63814,3.2429,0.53585
437.228,24.11528,-0.63877,3.23463,0.53568
437.728,24.12977,-0.64099,3.23409,0.5355
438.228,24.14424,-0.64138,3.23768,0.53532
438.728,24.1587,-0.64254,3.2259,0.53514
439.228,24.1732,-0.6428,3.2143,0.53496
439.728,24.18773,-0.64392,3.20217,0.53478
440.228,24.20223,-0.64392,3.19877,0.53461
440.728,24.2167,-0.64459,3.19042,0.53443
441.228,24.23125,-0.64563,3.18347,0.53425
441.728,24.24578,-0.64561,3.1761,0.53407
442.228,24.26037,-0.64562,3.17966,0.53389
442.728,24.2749,-0.64665,3.17769,0.53371
443.228,24.28947,-0.64694,3.17475,0.53354
443.728,24.30404,-0.64728,3.16796,0.53336
444.228,24.3186,-0.64823,3.16598,0.53318
444.728,24.33316,-0.64823,3.16083,0.533
445.228,24.3477,-0.64826,3.16015,0.53282
445.728,24.36228,-0.64842,3.15657,0.53264
446.228,24.3768,-0.64953,3.15344,0.53246
446.728,24.3914,-0.64956,3.14851,0.53228
447.228,24.40596,-0.65066,3.14679,0.53211
447.728,24.42054,-0.65109,3.14672,0.53193
448.228,24.43512,-0.6521,3.13825,0.53175
448.728,24.44965,-0.65278,3.11238,0.53157
449.228,24.46423,-0.65072,3.0988,0.53139
449.728,24.47883,-0.64849,3.09529,0.53121
450.228,24.4935,-0.64636,3.09937,0.53103
450.728,24.50809,-0.65038,3.10757,0.53085
451.228,24.52269,-0.6562,3.11247,0.53067
451.728,24.53736,-0.66177,3.10575,0.53049
452.228,24.552,-0.66225,3.09908,0.53031
452.728,24.5667,-0.65961,3.10083,0.53013
453.228,24.58126,-0.6588,3.09809,0.52995
453.728,24.5959,-0.658,3.09985,0.52977
454.228,24.61051,-0.65778,3.08976,0.5296
454.728,24.62515,-0.65785,3.08861,0.52942
455.228,24.63982,-0.65909,3.07512,0.52924
455.728,24.65446,-0.6591,3.06674,0.52906
456.228,24.66907,-0.65906,3.06157,0.52888
456.728,24.68364,-0.66031,3.05748,0.5287
457.228,24.69833,-0.66042,3.05217,0.52852
457.728,24.71301,-0.66042,3.05606,0.52834
458.228,24.7276,-0.66044,3.0617,0.52816
458.728,24.7423,-0.66059,3.0455,0.52798
459.228,24.75705,-0.66181,3.03511,0.5278
459.728,24.77184,-0.66192,3.03329,0.52762
460.228,24.78649,-0.663,3.02492,0.52744
460.728,24.80115,-0.66315,3.01932,0.52726
461.228,24.81587,-0.66316,3.01124,0.52708
461.728,24.83051,-0.66315,3.01751,0.5269
462.228,24.8452,-0.66365,3.0121,0.52672
462.728,24.85993,-0.66448,3.01531,0.52654
463.228,24.8747,-0.66439,3.01158,0.52636
463.728,24.88945,-0.66542,2.99887,0.52618
464.228,24.90419,-0.66573,2.98977,0.526
464.728,24.91897,-0.6667,2.99721,0.52582
465.228,24.9337,-0.66712,2.99757,0.52564
465.728,24.94845,-0.66714,2.99159,0.52546
466.228,24.96315,-0.66737,2.99646,0.52528
466.728,24.97794,-0.66851,2.99119,0.5251
467.228,24.99271,-0.66919,2.98434,0.52491
467.728,25.00751,-0.6701,2.97525,0.52473
468.228,25.0223,-0.67098,2.97081,0.52455
468.728,25.03706,-0.67165,2.9635,0.52437
469.228,25.05187,-0.67212,2.96313,0.52419
469.728,25.06661,-0.673,2.96376,0.52401
470.228,25.08139,-0.67294,2.96326,0.52383
470.728,25.09615,-0.67283,2.95533,0.52365
471.228,25.11094,-0.67156,2.94265,0.52347
471.728,25.12574,-0.67163,2.95236,0.52329
472.228,25.14057,-0.67161,2.94589,0.52311
472.728,25.15535,-0.67169,2.94533,0.52293
473.228,25.17015,-0.67294,2.94081,0.52275
473.728,25.18498,-0.67291,2.94144,0.52257
474.228,25.19984,-0.67293,2.92988,0.52239
474.728,25.21465,-0.67295,2.92199,0.52221
475.228,25.22946,-0.67452,2.91867,0.52202
475.728,25.2443,-0.67455,2.91827,0.52184
476.228,25.2592,-0.67455,2.91645,0.52166
476.728,25.274,-0.6756,2.91406,0.52148
477.228,25.28882,-0.67601,2.91331,0.5213
477.728,25.30367,-0.67678,2.92134,0.52112
478.228,25.31852,-0.67757,2.91475,0.52094
478.728,25.33341,-0.6777,2.91415,0.52076
479.228,25.34826,-0.67878,2.90587,0.52058
479.728,25.36315,-0.67883,2.91136,0.5204
480.228,25.37805,-0.67887,2.8991,0.52022
480.728,25.39292,-0.67908,2.8888,0.52003
481.228,25.40781,-0.68026,2.88237,0.51985
481.728,25.4227,-0.68039,2.89195,0.51967
482.228,25.4376,-0.68149,2.87983,0.51949
482.728,25.45255,-0.68156,2.8818,0.51931
483.228,25.46742,-0.68187,2.8818,0.51913
483.728,25.48235,-0.68208,2.88979,0.51895
484.228,25.49729,-0.68344,2.88998,0.51877
484.728,25.51221,-0.68392,2.87983,0.51859
485.228,25.52714,-0.68404,2.87622,0.5184
485.728,25.54198,-0.68529,2.87056,0.51822
486.228,25.55696,-0.68519,2.87266,0.51804
486.728,25.57189,-0.68517,2.8727,0.51786
487.228,25.58682,-0.68587,2.86951,0.51768
487.728,25.60175,-0.68665,2.86703,0.5175
488.228,25.61669,-0.68664,2.86725,0.51732
488.728,25.63175,-0.68664,2.86059,0.51714
489.228,25.6467,-0.68677,2.86565,0.51695
489.728,25.66169,-0.68803,2.85984,0.51677
490.228,25.6767,-0.68794,2.86056,0.51659
490.728,25.69173,-0.68797,2.86117,0.51641
491.228,25.70671,-0.68787,2.8502,0.51623
491.728,25.72166,-0.68906,2.85552,0.51605
492.228,25.7366,-0.68927,2.86072,0.51587
492.728,25.75167,-0.68927,2.84862,0.51568
493.228,25.76664,-0.68939,2.84165,0.5155
493.728,25.78164,-0.69066,2.81475,0.51532
494.228,25.79663,-0.69056,2.81143,0.51514
494.728,25.81166,-0.69107,2.82519,0.51496
495.228,25.82667,-0.69253,2.82767,0.51478
495.728,25.84168,-0.69262,2.82191,0.5146
496.228,25.85669,-0.69332,2.81627,0.51441
496.728,25.87169,-0.69399,2.81435,0.51423
497.228,25.8868,-0.69398,2.81152,0.51405
497.728,25.9019,-0.69398,2.81546,0.51387
498.228,25.91695,-0.69397,2.81328,0.51369
498.728,25.932,-0.6945,2.80879,0.51351
499.228,25.9471,-0.69536,2.80002,0.51333
499.728,25.96221,-0.69532,2.79307,0.51314
500.228,25.97723,-0.69521,2.78419,0.51296
500.728,25.9923,-0.69644,2.77551,0.51278
501.228,26.00735,-0.69661,2.77952,0.5126
501.728,26.02243,-0.69722,2.79485,0.51242
502.228,26.0375,-0.69822,2.79666,0.51224
502.728,26.0526,-0.69826,2.78954,0.51206
503.228,26.06767,-0.69945,2.78278,0.51187
503.728,26.0827,-0.69955,2.7817,0.51169
504.228,26.09783,-0.69959,2.78026,0.51151
504.728,26.11293,-0.69981,2.7692,0.51133
505.228,26.12803,-0.70087,2.78298,0.51115
505.728,26.14315,-0.70086,2.76457,0.51097
506.228,26.1583,-0.7014,2.76276,0.51078
506.728,26.1734,-0.70226,2.74295,0.5106
507.228,26.18854,-0.70222,2.7433,0.51042
507.728,26.20359,-0.70248,2.74646,0.51024
508.228,26.2187,-0.7036,2.73612,0.51006
508.728,26.23382,-0.70156,2.73873,0.50988
509.228,26.249,-0.69746,2.7398,0.5097
509.728,26.2642,-0.69496,2.71443,0.50951
510.228,26.2793,-0.69712,2.70899,0.50933
510.728,26.29451,-0.70311,2.72726,0.50915
511.228,26.3097,-0.71164,2.72512,0.50897
511.728,26.32487,-0.71411,2.73287,0.50879
512.228,26.34003,-0.71218,2.7241,0.50861
512.728,26.35517,-0.70975,2.72288,0.50843
513.228,26.37035,-0.70889,2.71409,0.50824
513.728,26.38553,-0.70762,2.71814,0.50806
514.228,26.4007,-0.70758,2.71716,0.50788
514.728,26.41585,-0.7076,2.70623,0.5077
515.228,26.43106,-0.70764,2.7119,0.50752
515.728,26.4462,-0.70929,2.70476,0.50734
516.228,26.46142,-0.70954,2.69502,0.50715
516.728,26.4766,-0.70959,2.68763,0.50697
517.228,26.49183,-0.70969,2.67744,0.50679
517.728,26.50706,-0.71085,2.67909,0.50661
518.228,26.5223,-0.71088,2.68446,0.50643
518.728,26.5376,-0.71082,2.67405,0.50625
519.228,26.55285,-0.71176,2.66722,0.50607
519.728,26.56808,-0.71222,2.65045,0.50588
520.228,26.58333,-0.71235,2.64949,0.5057
520.728,26.5985,-0.71345,2.64273,0.50552
521.228,26.61365,-0.71346,2.63127,0.50534
521.728,26.62878,-0.71405,2.63037,0.50516
522.228,26.6439,-0.71513,2.62147,0.50498
522.728,26.65907,-0.71501,2.61638,0.5048
523.228,26.67431,-0.71605,2.61795,0.50461
523.728,26.68967,-0.71636,2.6136,0.50443
524.228,26.705,-0.71637,2.60991,0.50425
524.728,26.72042,-0.71636,2.60626,0.50407
525.228,26.7358,-0.71626,2.60275,0.50389
525.728,26.7512,-0.71744,2.60477,0.50371
526.228,26.7665,-0.71767,2.60323,0.50353
526.728,26.78185,-0.71768,2.59425,0.50335
527.228,26.79715,-0.71762,2.59378,0.50316
527.728,26.8125,-0.71853,2.59387,0.50298
528.228,26.8278,-0.71901,2.58818,0.5028
528.728,26.84308,-0.71893,2.58518,0.50262
529.228,26.85848,-0.71984,2.58126,0.50244
529.728,26.87381,-0.72032,2.55775,0.50226
530.228,26.88915,-0.72031,2.55859,0.50208
530.728,26.90451,-0.72022,2.55988,0.5019
531.228,26.91982,-0.72128,2.55035,0.50171
531.728,26.9352,-0.72214,2.548,0.50153
532.228,26.9505,-0.7226,2.55036,0.50135
532.728,26.96585,-0.72258,2.54785,0.50117
533.228,26.9812,-0.72296,2.54624,0.50099
533.728,26.99656,-0.72303,2.54436,0.50081
534.228,27.01199,-0.72456,2.54206,0.50063
534.728,27.02735,-0.72488,2.52703,0.50045
535.228,27.04265,-0.72608,2.5431,0.50027
535.728,27.058,-0.726,2.52507,0.50009
536.228,27.0734,-0.72597,2.52347,0.4999
536.728,27.08885,-0.72657,2.5165,0.49972
537.228,27.10417,-0.72738,2.51367,0.49954
537.728,27.1197,-0.72733,2.51204,0.49936
538.228,27.1351,-0.72732,2.50093,0.49918
538.728,27.15042,-0.7277,2.49345,0.499
539.228,27.16575,-0.72873,2.49318,0.49882
539.728,27.18103,-0.72865,2.48594,0.49864
540.228,27.1964,-0.72865,2.46958,0.49846
540.728,27.21182,-0.72865,2.47081,0.49828
541.228,27.22728,-0.7286,2.46562,0.4981
541.728,27.2427,-0.72953,2.47603,0.49791
542.228,27.2583,-0.72998,2.46441,0.49773
542.728,27.27378,-0.72997,2.44918,0.49755
543.228,27.2893,-0.72994,2.44185,0.49737
543.728,27.3047,-0.731,2.44622,0.49719
544.228,27.3202,-0.73128,2.44688,0.49701
544.728,27.33565,-0.73128,2.44499,0.49683
545.228,27.35115,-0.73128,2.44763,0.49665
545.728,27.3666,-0.73128,2.44002,0.49647
546.228,27.38206,-0.73128,2.42845,0.49629
546.728,27.3975,-0.73126,2.42445,0.49611
547.228,27.413,-0.73248,2.42331,0.49593
547.728,27.4285,-0.73373,2.4194,0.49575
548.228,27.4439,-0.73363,2.42364,0.49557
548.728,27.45935,-0.73461,2.41219,0.49539
549.228,27.47485,-0.73501,2.40684,0.49521
549.728,27.4903,-0.735,2.39957,0.49503
550.228,27.5058,-0.73508,2.395,0.49485
550.728,27.52133,-0.7365,2.38549,0.49467
551.228,27.53684,-0.7364,2.39279,0.49449
551.728,27.55237,-0.73699,2.39199,0.49431
552.228,27.5679,-0.73778,2.38501,0.49412
552.728,27.5834,-0.73774,2.38789,0.49394
553.228,27.59895,-0.73775,2.36315,0.49376
553.728,27.6144,-0.73812,2.35108,0.49358
554.228,27.63,-0.73906,2.34571,0.4934
554.728,27.6455,-0.73834,2.34652,0.49322
555.228,27.66102,-0.7384,2.34756,0.49304
555.728,27.67643,-0.73878,2.34826,0.49286
556.228,27.69183,-0.73977,2.34689,0.49268
556.728,27.7074,-0.73972,2.34725,0.4925
557.228,27.72294,-0.7397,2.35211,0.49232
557.728,27.73848,-0.74025,2.35311,0.49214
558.228,27.75406,-0.74109,2.34062,0.49196
558.728,27.7697,-0.74104,2.33927,0.49178
559.228,27.78537,-0.74153,2.34153,0.4916
559.728,27.8009,-0.74248,2.33463,0.49143
560.228,27.8165,-0.74237,2.33218,0.49125
560.728,27.8321,-0.7436,2.32349,0.49107
561.228,27.84768,-0.74378,2.33168,0.49089
561.728,27.8633,-0.74378,2.33112,0.49071
562.228,27.87885,-0.74378,2.33042,0.49053
562.728,27.8944,-0.74457,2.31306,0.49035
563.228,27.91,-0.7451,2.31605,0.49017
563.728,27.92554,-0.74513,2.31261,0.48999
564.228,27.9412,-0.74518,2.31264,0.48981
564.728,27.95676,-0.74639,2.31169,0.48963
565.228,27.9724,-0.74642,2.31278,0.48945
565.728,27.98805,-0.74642,2.31269,0.48927
566.228,28.0036,-0.74644,2.30591,0.48909
566.728,28.01918,-0.74637,2.31347,0.48891
567.228,28.0348,-0.74745,2.31915,0.48873
567.728,28.0504,-0.74809,2.319,0.48855
568.228,28.06605,-0.74875,2.32344,0.48837
568.728,28.08172,-0.74871,2.33912,0.4882
569.228,28.09742,-0.74871,2.34829,0.48802
569.728,28.1131,-0.74871,2.36259,0.48784
570.228,28.12872,-0.74894,2.39777,0.48766
570.728,28.1444,-0.75014,2.43788,0.48748
571.228,28.1601,-0.75003,2.55236,0.4873
571.728,28.17571,-0.75119,2.65656,0.48712
572.228,28.19138,-0.75144,2.71562,0.48694
572.728,28.20706,-0.75187,2.72878,0.48676
573.228,28.22281,-0.7528,2.75175,0.48658
573.728,28.2385,-0.75306,2.75043,0.48641
574.228,28.25419,-0.75309,2.71987,0.48623
574.728,28.26983,-0.7531,2.6876,0.48605
575.228,28.2855,-0.7531,2.6621,0.48587
575.728,28.3012,-0.75311,2.62083,0.48569
576.228,28.31685,-0.75411,2.58963,0.48551
576.728,28.33257,-0.75527,2.5641,0.48533
577.228,28.3483,-0.75575,2.51905,0.48516
577.728,28.36403,-0.75649,2.47654,0.48498
578.228,28.37977,-0.75705,2.43994,0.4848
578.728,28.39547,-0.75697,2.40125,0.48462
579.228,28.41116,-0.75816,2.35308,0.48444
579.728,28.42685,-0.75778,2.33228,0.48426
580.228,28.44258,-0.75752,2.32972,0.48409
580.728,28.4583,-0.75749,2.29854,0.48391
581.228,28.47407,-0.75753,2.27263,0.48373
581.728,28.4898,-0.7588,2.26406,0.48355
582.228,28.50558,-0.75879,2.25328,0.48337
582.728,28.52133,-0.75881,2.23418,0.4832
583.228,28.53707,-0.75881,2.21271,0.48302
583.728,28.55275,-0.75881,2.20182,0.48284
584.228,28.56845,-0.75902,2.19031,0.48266
584.728,28.58417,-0.76034,2.18093,0.48248
585.228,28.5999,-0.76023,2.1783,0.48231
585.728,28.6156,-0.76013,2.17136,0.48213
586.228,28.63138,-0.76132,2.15544,0.48195
586.728,28.6472,-0.76155,2.13949,0.48177
587.228,28.6629,-0.76155,2.11912,0.4816
587.728,28.6787,-0.76155,2.09924,0.48142
588.228,28.69445,-0.76155,2.08638,0.48124
588.728,28.7102,-0.76155,2.09194,0.48106
589.228,28.726,-0.76145,2.09251,0.48089
589.728,28.7418,-0.76267,2.08184,0.48071
590.228,28.7576,-0.76286,2.0557,0.48053
590.728,28.77344,-0.76286,2.06917,0.48035
591.228,28.7892,-0.76286,2.05695,0.48018
591.728,28.8051,-0.76281,2.05104,0.48
592.228,28.82088,-0.76359,2.06092,0.47982
592.728,28.83669,-0.76424,2.05713,0.47965
593.228,28.85248,-0.7644,2.04627,0.47947
593.728,28.8683,-0.76569,2.03649,0.47929
594.228,28.8841,-0.76564,2.0383,0.47911
594.728,28.89992,-0.76669,2.0295,0.47894
595.228,28.9157,-0.76704,2.0224,0.47876
595.728,28.93147,-0.76705,2.00968,0.47858
596.228,28.9473,-0.76788,2.01141,0.47841
596.728,28.96312,-0.768,2.02098,0.47823
597.228,28.97895,-0.76802,2.02058,0.47805
597.728,28.99478,-0.76802,2.01481,0.47788
598.228,29.0107,-0.76803,2.00715,0.4777
598.728,29.02651,-0.7676,2.00724,0.47752
599.228,29.0424,-0.76759,2.00486,0.47735
599.728,29.0582,-0.76839,1.98985,0.47717
600.228,29.07409,-0.76836,1.98262,0.477
600.728,29.09,-0.76868,1.98563,0.47682
601.228,29.10578,-0.76975,1.98794,0.47664
601.728,29.12165,-0.76968,1.99377,0.47647
602.228,29.1375,-0.7708,1.99998,0.47629
602.728,29.1534,-0.77096,2.01829,0.47611
603.228,29.16928,-0.77099,2.01383,0.47594
603.728,29.18517,-0.77106,2.01396,0.47576
604.228,29.20112,-0.77235,2.01806,0.47559
604.728,29.217,-0.77228,2.0268,0.47541
605.228,29.23297,-0.7723,2.03509,0.47524
605.728,29.24887,-0.7723,2.04276,0.47506
606.228,29.26479,-0.77236,2.04256,0.47488
606.728,29.2807,-0.77366,2.05441,0.47471
607.228,29.29665,-0.7736,2.06428,0.47453
607.728,29.3126,-0.77357,2.06709,0.47436
608.228,29.32852,-0.77447,2.07596,0.47418
608.728,29.3445,-0.77497,2.0776,0.47401
609.228,29.3604,-0.77497,2.05289,0.47383
609.728,29.37637,-0.77621,2.06998,0.47366
610.228,29.39227,-0.77625,2.07134,0.47348
610.728,29.4082,-0.77625,2.06678,0.47331
611.228,29.4241,-0.77625,2.05944,0.47313
611.728,29.44002,-0.77625,2.0648,0.47296
612.228,29.4559,-0.77616,2.05498,0.47278
612.728,29.4719,-0.77739,2.06047,0.47261
613.228,29.4878,-0.77769,2.05269,0.47243
613.728,29.5038,-0.77772,2.06379,0.47226
614.228,29.5197,-0.77898,2.07003,0.47208
614.728,29.53568,-0.77906,2.07164,0.47191
615.228,29.55162,-0.78038,2.05573,0.47173
615.728,29.5676,-0.78032,2.05604,0.47156
616.228,29.58357,-0.78061,2.04788,0.47138
616.728,29.59958,-0.78162,2.04981,0.47121
617.228,29.61556,-0.78161,2.04588,0.47103
617.728,29.63154,-0.7816,2.04973,0.47086
618.228,29.6475,-0.78208,2.05205,0.47069
618.728,29.6635,-0.78296,2.06872,0.47051
619.228,29.6794,-0.78167,2.07766,0.47034
619.728,29.69538,-0.78165,2.08293,0.47016
620.228,29.71133,-0.78163,2.0964,0.46999
620.728,29.72731,-0.78178,2.10603,0.46982
621.228,29.74326,-0.78304,2.10548,0.46964
621.728,29.7593,-0.78292,2.1087,0.46947
622.228,29.7753,-0.78402,2.12065,0.46929
622.728,29.79127,-0.78429,2.13058,0.46912
623.228,29.80718,-0.78552,2.12469,0.46895
623.728,29.8232,-0.7856,2.12139,0.46877
624.228,29.83918,-0.7866,2.1035,0.4686
624.728,29.8552,-0.78701,2.07888,0.46843
625.228,29.8712,-0.787,2.09769,0.46825
625.728,29.8873,-0.78695,2.10817,0.46808
626.228,29.90338,-0.78793,2.1071,0.46791
626.728,29.91938,-0.78832,2.11509,0.46773
627.228,29.9354,-0.78831,2.13381,0.46756
627.728,29.9513,-0.7883,2.13125,0.46739
628.228,29.9673,-0.78875,2.12031,0.46721
628.728,29.98323,-0.78968,2.11925,0.46704
629.228,29.9992,-0.78963,2.11904,0.46687