File: 01_Data/Fiberglass_Insulation_3/Cone/Fiberglass_Insulation_3_Cone_HF50Scan_220509_R2.csv
Names,Time,Stack TC,Smoke TC,Exh Press,Smoke Comp,Smoke Meas,CO Meter,CO2 Meter,O2 Meter,Sample Mass,Ext Coeff,Start Test,Flame Verif
Chan Gain,,500,500,1,1,1,1,1,1,1,1,1.0,1.0
Offset,,0,0,0.134207,0,0,0,0,0,0,0,0.0,0.0
Gain,,1,1,25.011,13.8443,15.4071,1,1,1,1.00079,1.02936,1.0,1.0
Units,sec,C,C,Pa,%,%,%,%,%,g,/m,,
Baseline,,30.767,31.7979,138.242,104.274,104.714,0.000334689,0.0405911,21.0062,-445.67,-0.0379937,,
2,0.25,29.6881,30.8643,137.613,105.583,105.847,0.000802912,0.0474647,20.9907,445.561,-0.0225112,0.0,0.0
4,0.75,28.2035,29.7683,138.652,105.592,105.352,0.00109794,0.0566944,20.973,445.982,0.0205465,0.0,0.0
6,1.25,28.1142,29.4847,141.898,105.61,104.912,0.0014423,0.0641705,20.9587,445.501,0.0598586,0.0,0.0
8,1.75,28.367,29.3338,126.251,105.583,107.515,0.00163904,0.0865459,20.93,445.441,-0.163745,0.0,1.0
10,2.25,28.0186,29.3033,117.422,105.6,108.387,0.00197545,0.10467,20.8809,445.231,-0.235222,0.0,1.0
12,2.75,28.1955,29.7859,109.751,105.583,104.017,0.00234744,0.127481,20.8412,445.301,0.134963,0.0,1.0
14,3.25,28.8614,29.4154,115.116,105.59,95.1008,0.0027383,0.153277,20.809,445.311,0.944732,0.0,1.0
16,3.75,29.7247,30.334,119.106,105.583,90.082,0.00319545,0.174171,20.783,445.091,1.43367,0.0,1.0
18,4.25,30.6061,30.8903,119.625,105.591,89.01,0.00356574,0.193334,20.7618,445.201,1.54242,0.0,1.0
20,4.75,31.5874,31.3155,126.534,105.582,97.5523,0.00400428,0.201504,20.7447,445.061,0.714229,0.0,1.0
22,5.25,32.1084,31.7616,130.351,105.584,103.82,0.00435949,0.213286,20.7383,445.131,0.152118,0.0,1.0
24,5.75,32.3534,32.0592,131.751,105.583,106.516,0.00474206,0.220859,20.7331,445.061,-0.0794039,0.0,1.0
26,6.25,32.7102,32.1309,132.692,105.583,107.19,0.00513729,0.224404,20.7416,445.071,-0.136345,0.0,1.0
28,6.75,32.6813,32.1743,134.885,105.572,106.824,0.00545743,0.224943,20.7485,445.071,-0.106377,0.0,1.0
30,7.25,32.4291,32.6751,134.745,105.572,107.017,0.00571674,0.223025,20.7541,445.051,-0.122773,0.0,1.0
32,7.75,32.7372,32.8377,133.467,105.565,107.003,0.00611785,0.219352,20.7682,445.051,-0.122197,0.0,1.0
34,8.25,33.7471,33.3843,133.83,105.564,106.109,0.00644275,0.214003,20.7796,444.971,-0.0464905,0.0,0.0
36,8.75,34.4315,33.3061,137.981,105.569,106.208,0.00675728,0.207533,20.7924,445.011,-0.0545276,0.0,0.0
38,9.25,33.1133,32.7609,139.791,105.561,106.295,0.00701205,0.202293,20.8058,444.981,-0.0625344,0.0,0.0
40,9.75,32.8456,32.9806,137.371,105.564,106.258,0.00711802,0.194229,20.8115,445.041,-0.0592384,0.0,0.0
42,10.25,33.4769,33.294,132.785,105.554,106.386,0.00737649,0.187697,20.8311,445.021,-0.0709302,0.0,0.0
44,10.75,33.2012,33.2807,135.171,105.541,106.036,0.00742294,0.182407,20.8364,445.011,-0.0422708,0.0,0.0
46,11.25,32.4676,32.9054,134.344,105.537,106.164,0.00750237,0.174559,20.8506,445.031,-0.05352,0.0,0.0
48,11.75,32.8429,32.9538,139.884,105.533,106.671,0.0075338,0.168202,20.8622,444.971,-0.096813,0.0,0.0
50,12.25,32.3472,32.8421,135.546,105.529,106.278,0.00752962,0.161059,20.8737,444.991,-0.0638791,0.0,0.0
52,12.75,32.9644,33.1728,138.057,105.525,106.034,0.00748746,0.158014,20.883,444.921,-0.0434486,0.0,0.0
54,13.25,32.8237,33.2374,134.56,105.529,105.987,0.00741841,0.148829,20.8906,444.911,-0.0391179,0.0,0.0
56,13.75,32.0501,33.1898,136.178,105.51,106.355,0.00736248,0.146082,20.8985,444.861,-0.0719794,0.0,0.0
58,14.25,32.3504,32.9038,137.451,105.499,105.925,0.00731718,0.14064,20.9049,444.851,-0.0363956,0.0,0.0
60,14.75,32.5964,32.9922,137.515,105.504,106.321,0.00719923,0.135562,20.9114,444.851,-0.0696469,0.0,0.0
62,15.25,32.3698,32.8496,137.23,105.5,105.954,0.00703056,0.130751,20.918,444.851,-0.038772,0.0,0.0
64,15.75,32.6659,32.411,136.991,105.491,105.997,0.00689394,0.126226,20.9233,444.871,-0.0432128,0.0,0.0
66,16.25,32.3078,33.0096,135.156,105.471,106.39,0.00667031,0.122561,20.9283,444.901,-0.0783001,0.0,0.0
68,16.75,32.3543,32.7247,138.197,105.46,105.992,0.00648917,0.119592,20.9329,444.951,-0.0454173,0.0,0.0
70,17.25,32.6691,32.7891,134.814,105.449,105.543,0.00625088,0.115381,20.9367,444.941,-0.00805987,0.0,0.0
72,17.75,32.5795,32.9648,138.832,105.452,106.362,0.00605787,0.11197,20.9408,444.941,-0.0776047,0.0,0.0
74,18.25,31.982,32.633,137.774,105.437,105.923,0.00584697,0.108624,20.9441,444.891,-0.0414766,0.0,0.0
76,18.75,32.4258,32.9791,134.288,105.435,106.143,0.00562704,0.105389,20.9485,444.851,-0.0604726,0.0,0.0
78,19.25,32.2149,32.3649,137.695,105.411,106.134,0.00540936,0.102769,20.9521,444.861,-0.0617389,0.0,0.0
80,19.75,32.1628,33.0926,139.042,105.398,106.276,0.00519747,0.099667,20.9559,444.861,-0.0748573,0.0,0.0
82,20.25,32.3263,32.8107,139.091,105.389,105.884,0.00499608,0.0971543,20.959,444.831,-0.0422389,0.0,0.0
84,20.75,32.1931,32.8276,135.446,105.385,106.229,0.00480618,0.095119,20.9623,444.861,-0.0720195,0.0,0.0
86,21.25,31.8287,32.7752,137.893,105.368,106.039,0.00465236,0.0925472,20.9651,444.851,-0.057271,0.0,0.0
88,21.75,31.7046,32.8656,138.224,105.363,105.638,0.00449611,0.090464,20.9673,444.861,-0.023565,0.0,0.0
90,22.25,32.2259,32.7854,132.84,105.349,105.768,0.00434108,0.0881438,20.9699,444.861,-0.035845,0.0,0.0
92,22.75,31.6524,32.7354,141.366,105.344,105.951,0.00418648,0.0862645,20.9721,444.831,-0.0518841,0.0,0.0
94,23.25,31.6654,32.9118,138.02,105.331,106.4,0.00403513,0.0841928,20.9738,444.811,-0.0912295,0.0,0.0
96,23.75,31.6662,32.2078,138.355,105.342,106.27,0.00387907,0.0825148,20.9753,444.841,-0.0791894,0.0,0.0
98,24.25,31.6782,32.6233,137.629,105.306,105.642,0.00372253,0.0808595,20.9773,444.831,-0.0287758,0.0,0.0
100,24.75,31.5806,32.7477,136.453,105.295,105.494,0.00356809,0.0792523,20.9789,444.801,-0.0170894,0.0,0.0
102,25.25,31.8606,32.8941,137.129,105.286,105.926,0.00341811,0.0776619,20.9807,444.821,-0.0547556,0.0,0.0
104,25.75,31.647,32.6431,136.447,105.273,105.811,0.0032716,0.0761142,20.9821,444.811,-0.0460221,0.0,0.0
106,26.25,31.6647,32.5739,137.968,105.257,105.879,0.00313039,0.0748604,20.9835,444.771,-0.0532103,0.0,0.0
108,26.75,31.2182,32.5568,136.771,105.248,105.671,0.00301602,0.0733659,20.9848,444.821,-0.0362314,0.0,0.0
110,27.25,32.1105,32.787,136.023,105.23,105.942,0.00288568,0.0721553,20.9861,444.771,-0.0609061,0.0,0.0
112,27.75,31.6907,32.6478,138.934,105.227,105.895,0.00278011,0.0707235,20.9874,444.801,-0.0571513,0.0,0.0
114,28.25,31.4411,32.3188,139.027,105.222,105.643,0.00269459,0.069384,20.9884,444.801,-0.0360682,0.0,0.0
116,28.75,31.7712,32.893,139.622,105.207,106.222,0.00262084,0.0681372,20.9892,444.801,-0.0867492,0.0,0.0
118,29.25,31.4376,32.6228,136.184,105.185,106.19,0.00255707,0.0671273,20.9897,444.781,-0.0859173,0.0,0.0
120,29.75,31.7916,31.9717,138.065,105.188,106.094,0.00250605,0.0659672,20.9901,444.781,-0.0774272,0.0,0.0
122,30.25,30.7194,32.5969,140.302,105.166,105.383,0.0024653,0.0650275,20.9905,444.821,-0.0186398,0.0,0.0
124,30.75,31.8422,32.3374,138.355,105.166,105.802,0.00242013,0.0640797,20.991,444.801,-0.0545049,0.0,0.0
126,31.25,31.4401,32.2909,136.247,105.143,106.1,0.00238353,0.063144,20.9916,444.761,-0.0817927,0.0,0.0
128,31.75,31.7853,32.1274,139.712,105.149,105.364,0.00232834,0.062386,20.9923,444.761,-0.0184036,0.0,0.0
130,32.25,31.2327,32.6627,140.413,105.127,106.271,0.00228364,0.0615999,20.9931,444.761,-0.0977613,0.0,0.0
132,32.75,31.3728,32.3977,137.865,105.127,105.536,0.00222505,0.0608081,20.9938,444.801,-0.0351021,0.0,0.0
134,33.25,31.1302,32.8138,136.462,105.111,105.455,0.00215743,0.0600879,20.9943,444.771,-0.0294464,0.0,0.0
136,33.75,31.4571,31.7588,139.928,105.106,105.354,0.00207328,0.0594336,20.9947,444.751,-0.0212984,0.0,0.0
138,34.25,31.3698,32.5297,135.337,105.082,105.346,0.00197867,0.0588032,20.9955,444.781,-0.0226062,0.0,0.0
140,34.75,30.9227,32.6258,137.731,105.075,105.732,0.00190203,0.0582023,20.9962,444.751,-0.0562902,0.0,0.0
142,35.25,31.1736,32.3323,137.35,105.058,105.333,0.00180616,0.0576152,20.9967,444.821,-0.0236276,0.0,0.0
144,35.75,30.7789,32.1523,136.426,105.057,106.042,0.00169808,0.0570493,20.9971,444.811,-0.0841973,0.0,0.0
146,36.25,30.9536,32.0208,138.263,105.038,105.21,0.00159843,0.0565122,20.9974,444.811,-0.0148411,0.0,0.0
148,36.75,31.0627,32.4134,138.963,105.036,105.42,0.00150682,0.0560062,20.9977,444.771,-0.032966,0.0,0.0
150,37.25,31.2639,32.3474,142.143,105.022,105.372,0.00143262,0.0555964,20.9979,444.761,-0.0299789,0.0,0.0
152,37.75,30.7288,32.6035,140.515,105.029,105.424,0.00137252,0.0551011,20.9981,444.741,-0.0339049,0.0,0.0
154,38.25,31.1644,31.7873,135.773,104.991,105.243,0.00132383,0.0547,20.9982,444.731,-0.0216615,0.0,0.0
156,38.75,31.3431,32.4819,137.623,104.991,105.537,0.00126759,0.054282,20.9988,444.721,-0.0468746,0.0,0.0
158,39.25,31.1143,31.9682,137.963,104.978,105.416,0.00125457,0.0538597,20.9992,444.721,-0.037657,0.0,0.0
160,39.75,31.497,32.0162,134.19,104.98,105.958,0.00124403,0.0535176,20.9994,444.731,-0.0837198,0.0,0.0
162,40.25,30.7179,32.2698,140.386,104.945,105.459,0.00124122,0.0532405,20.9996,444.721,-0.044156,0.0,0.0
164,40.75,31.6132,32.4864,140.66,104.946,105.191,0.00124411,0.0529158,20.9998,444.721,-0.0210303,0.0,0.0
166,41.25,30.8499,32.1963,138.865,104.937,105.259,0.00124709,0.0525627,20.9999,444.721,-0.0277209,0.0,0.0
168,41.75,31.0715,32.0096,138.861,104.93,105.76,0.00125008,0.0520868,21,444.741,-0.0711608,0.0,0.0
170,42.25,30.8919,31.8285,137.697,104.927,105.105,0.00125249,0.0518232,21.0001,444.731,-0.0152821,0.0,0.0
172,42.75,30.9026,32.2008,139.789,104.907,105.871,0.0012449,0.0515453,21.0002,444.701,-0.0826253,0.0,0.0
174,43.25,30.2898,32.1261,135.117,104.873,105.777,0.00123014,0.0512623,21.0003,444.681,-0.0775515,0.0,0.0
176,43.75,31.2568,32.4586,138.105,104.882,105.961,0.00120927,0.0509902,21.0003,444.741,-0.092467,0.0,0.0
178,44.25,30.7378,32.0588,138.449,104.87,105.589,0.00118434,0.0507311,21.0003,444.741,-0.0617373,0.0,0.0
180,44.75,30.4605,32.214,134.914,104.865,105.577,0.00115715,0.0505213,21.0004,444.691,-0.0610513,0.0,0.0
182,45.25,30.6187,31.7912,136.712,104.844,105.575,0.00112882,0.0502426,21.0008,444.731,-0.0626732,0.0,0.0
184,45.75,31.1252,32.2854,137.181,104.842,105.79,0.00110333,0.0500169,21.0012,444.741,-0.0812914,0.0,0.0
186,46.25,30.8273,31.8811,143.311,104.829,105.366,0.00108039,0.0497983,21.0015,444.701,-0.0461113,0.0,0.0
188,46.75,30.5724,31.4734,136.61,104.848,105.375,0.00106118,0.0495891,21.0018,444.691,-0.0453151,0.0,0.0
190,47.25,30.6861,32.3,138.647,104.814,105.129,0.00104504,0.0493982,21.002,444.731,-0.0270909,0.0,0.0
192,47.75,31.007,32.0968,134.769,104.813,105.312,0.00103197,0.0492243,21.0021,444.701,-0.0428992,0.0,0.0
194,48.25,30.69,32.0743,139.541,104.814,105.809,0.00102742,0.0490548,21.0022,444.711,-0.0853343,0.0,0.0
196,48.75,30.4654,32.2716,138.723,104.795,105.098,0.00102374,0.0488918,21.0024,444.741,-0.0261393,0.0,0.0
198,49.25,30.7912,31.7642,134.933,104.785,105.226,0.00102076,0.0487055,21.0024,444.711,-0.0379175,0.0,0.0
200,49.75,30.9401,32.0119,143.691,104.774,105.434,0.0010377,0.0485545,21.0025,444.721,-0.0567197,0.0,0.0
202,50.25,30.7183,31.9211,134.29,104.756,106.162,0.00105142,0.0484037,21.0026,444.701,-0.120369,0.0,0.0
204,50.75,30.7078,32.1116,133.714,104.752,105.129,0.00107827,0.0482557,21.0026,444.681,-0.0324469,0.0,0.0
206,51.25,30.5702,32.1016,141.724,104.751,105.067,0.00110001,0.0481359,21.0026,444.681,-0.027146,0.0,0.0
208,51.75,30.3147,31.9427,137.859,104.747,105.573,0.001124,0.0479846,21.0027,444.691,-0.0709622,0.0,0.0
210,52.25,30.4302,31.7863,140.522,104.738,105.72,0.00114916,0.047862,21.0027,444.711,-0.0842608,0.0,0.0
212,52.75,30.9269,32.4445,138.709,104.73,105.269,0.00117018,0.0477627,21.0027,444.721,-0.0463629,0.0,0.0
214,53.25,30.7744,31.2911,138.368,104.718,105.499,0.00118778,0.0476608,21.0027,444.691,-0.0670792,0.0,0.0
216,53.75,30.6907,31.6263,137.769,104.711,105.306,0.00120012,0.047559,21.0027,444.691,-0.0511474,0.0,0.0
218,54.25,31.1394,32.2201,133.796,104.719,105.513,0.0012084,0.0474623,21.0028,444.661,-0.0681404,0.0,0.0
220,54.75,31.2164,31.5302,140.102,104.708,105.012,0.0012151,0.047371,21.0028,444.691,-0.0262462,0.0,0.0
222,55.25,30.8905,31.7133,135.706,104.734,105.371,0.00121327,0.0472614,21.0028,444.711,-0.0547826,0.0,0.0
224,55.75,30.5127,31.5819,139.179,104.756,105.164,0.00121178,0.0471405,21.0028,444.751,-0.0350653,0.0,0.0
226,56.25,30.2551,32.1757,139.022,104.789,104.983,0.00120294,0.0470425,21.0028,444.731,-0.016706,0.0,0.0
228,56.75,30.4608,31.395,135.473,104.811,105.704,0.00118889,0.0469225,21.0028,444.721,-0.0766401,0.0,0.0
230,57.25,30.7281,31.65,135.5,104.833,105.573,0.00117752,0.0468252,21.0028,444.731,-0.0634953,0.0,0.0
232,57.75,30.5795,31.9277,139.338,104.855,105.462,0.00115379,0.0467193,21.0028,444.751,-0.0521839,0.0,0.0
234,58.25,30.4616,31.471,136.696,104.877,105.28,0.00113456,0.0466335,21.0028,444.741,-0.0346996,0.0,0.0
236,58.75,30.6478,31.6179,139.812,104.889,105.276,0.00111415,0.0465498,21.0028,444.701,-0.0332453,0.0,0.0
238,59.25,30.5258,32.5179,137.613,104.897,105.396,0.00109762,0.046469,21.0028,444.691,-0.0428283,0.0,0.0
240,59.75,30.5717,31.8885,136.018,104.924,105.222,0.00108423,0.0464108,21.0028,444.711,-0.0256249,0.0,0.0
242,60.25,30.6926,31.7828,140.271,104.952,105.657,0.00107339,0.0463701,21.0028,444.691,-0.0604742,0.0,0.0
244,60.75,30.4648,31.9154,136.284,104.967,106.139,0.0010646,0.0463371,21.0028,444.691,-0.100291,0.0,0.0
246,61.25,30.0376,31.4691,137.245,104.98,105.479,0.00105621,0.0462696,21.0028,444.681,-0.0427975,0.0,0.0
248,61.75,29.9613,31.9242,139.686,104.992,105.197,0.00104827,0.046215,21.0027,444.701,-0.0175973,0.0,0.0
250,62.25,30.5411,31.7678,138.577,105.022,105.575,0.00104184,0.04613,21.0027,444.691,-0.0473681,0.0,0.0
252,62.75,29.9477,32.0531,139.17,105.017,105.238,0.0010185,0.0460612,21.0026,444.691,-0.018924,0.0,0.0
254,63.25,30.7784,31.7273,138.745,105.05,105.695,0.00099959,0.0460055,21.0026,444.681,-0.0552196,0.0,0.0
256,63.75,30.0684,31.8753,138,105.044,105.976,0.000976642,0.0459175,21.0026,444.701,-0.0797166,0.0,0.0
258,64.25,29.9716,31.8954,136.425,105.073,105.333,0.000951185,0.0458077,21.0026,444.671,-0.0223564,0.0,0.0
260,64.75,30.1475,32.1209,137.181,105.083,105.908,0.000931201,0.0457187,21.0025,444.631,-0.0705652,0.0,0.0
262,65.25,30.9946,32.2719,139.891,105.106,105.664,0.000915586,0.0456195,21.003,444.631,-0.0477397,0.0,0.0
264,65.75,30.5545,31.996,137.065,105.106,105.692,0.000902937,0.0455392,21.0033,444.601,-0.0501499,0.0,0.0
266,66.25,30.1889,31.1593,139.005,105.125,105.485,0.000902359,0.0454606,21.0036,444.611,-0.030865,0.0,0.0
268,66.75,30.6512,31.8044,136.254,105.13,105.365,0.000901891,0.0453968,21.0038,444.651,-0.0201926,0.0,0.0
270,67.25,30.0204,31.2988,139.412,105.138,105.418,0.000903929,0.0453381,21.004,444.631,-0.0239789,0.0,0.0
272,67.75,30.3617,32.072,137.571,105.138,105.864,0.00090558,0.0452841,21.0041,444.661,-0.0621578,0.0,0.0
274,68.25,30.5122,31.8561,138.449,105.16,105.561,0.000909335,0.0452404,21.0043,444.691,-0.0344041,0.0,0.0
276,68.75,30.7997,31.618,138.282,105.162,106.024,0.000912376,0.0451778,21.0044,444.701,-0.0737156,0.0,0.0
278,69.25,30.3421,32.2282,134.455,105.183,106.198,0.000917256,0.0451271,21.0044,444.691,-0.0867411,0.0,0.0
280,69.75,30.2393,30.9905,138.859,105.19,105.789,0.000921209,0.0450725,21.0045,444.681,-0.0512773,0.0,0.0
282,70.25,30.4428,31.847,144.05,105.208,105.693,0.000924411,0.0450283,21.0045,444.641,-0.0414874,0.0,0.0
284,70.75,30.8757,31.7916,139.694,105.203,105.513,0.000910086,0.0449925,21.0046,444.631,-0.0265641,0.0,0.0
286,71.25,30.3988,31.5115,136.681,105.223,105.76,0.000898483,0.0449634,21.0046,444.651,-0.0459967,0.0,0.0
288,71.75,30.1919,31.5779,144.167,105.221,105.939,0.000880627,0.0448992,21.0047,444.691,-0.0613872,0.0,0.0
290,72.25,30.0357,32.0799,134.079,105.234,105.854,0.000866164,0.0448472,21.0047,444.681,-0.0530468,0.0,0.0
292,72.75,30.5907,31.558,138.26,105.223,105.723,0.000854449,0.044798,21.0047,444.651,-0.0427521,0.0,0.0
294,73.25,30.1967,31.4103,135.246,105.239,105.916,0.00084496,0.0447517,21.0047,444.601,-0.0578598,0.0,0.0
296,73.75,29.8852,31.0406,136.767,105.24,105.861,0.000838545,0.0447141,21.0047,444.621,-0.053101,0.0,0.0
298,74.25,30.7263,31.7879,136.612,105.261,106.087,0.000834494,0.0446695,21.0047,444.601,-0.0706308,0.0,0.0
300,74.75,30.4935,31.4398,139.846,105.245,105.531,0.000834392,0.0446205,21.0047,444.591,-0.024545,0.0,0.0
302,75.25,30.0692,31.5876,136.776,105.266,105.881,0.00083717,0.0445736,21.0047,444.601,-0.0525742,0.0,0.0
304,75.75,30.1553,31.1015,136.099,105.273,105.825,0.000846417,0.0445292,21.0047,444.621,-0.0471852,0.0,0.0
306,76.25,30.0723,31.2982,142.524,105.269,105.43,0.000860205,0.0444647,21.0047,444.601,-0.0138212,0.0,0.0
308,76.75,30.2185,31.225,138.303,105.264,105.997,0.000871372,0.0443868,21.0048,444.611,-0.062658,0.0,0.0
310,77.25,30.4656,31.2076,138.865,105.285,105.277,0.000879145,0.0443237,21.0048,444.601,0.000693171,0.0,0.0
312,77.75,30.3108,31.3007,136.586,105.269,105.957,0.000884296,0.0442726,21.0048,444.621,-0.0587774,0.0,0.0
314,78.25,29.6592,32.0642,137.347,105.28,105.765,0.000876386,0.0442311,21.0048,444.641,-0.0415447,0.0,0.0
316,78.75,30.0164,31.0577,141.35,105.275,105.602,0.000859106,0.0442383,21.0048,444.611,-0.0280405,0.0,0.0
318,79.25,29.5837,31.6942,135.024,105.294,105.938,0.000845109,0.0442441,21.0048,444.631,-0.0550734,0.0,0.0
320,79.75,29.9145,31.4942,136.346,105.269,106.242,0.000816866,0.0442216,21.0048,444.651,-0.0830266,0.0,0.0
322,80.25,29.9827,31.3482,136.482,105.281,106.042,0.000793989,0.0442034,21.0048,444.641,-0.0650125,0.0,0.0
324,80.75,29.8175,31.5449,135.078,105.283,105.839,0.000771837,0.0441816,21.0048,444.651,-0.0476315,0.0,0.0
326,81.25,29.8322,31.435,134.393,105.286,105.734,0.000753894,0.0441575,21.0048,444.661,-0.0383115,0.0,0.0
328,81.75,30.2968,31.2941,135.669,105.275,106.761,0.000741266,0.0441379,21.0048,444.651,-0.126641,0.0,0.0
330,82.25,29.9502,31.8835,139.986,105.275,106.334,0.000732753,0.044095,21.0048,444.631,-0.0903445,0.0,0.0
332,82.75,30.6938,31.649,137.987,105.277,105.599,0.000730941,0.0440602,21.0048,444.651,-0.0275449,0.0,0.0
334,83.25,29.9915,31.7967,140.338,105.27,105.776,0.000734049,0.0440049,21.0048,444.641,-0.0433053,0.0,0.0
336,83.75,30.0909,31.1063,136.938,105.27,105.967,0.000736566,0.0439601,21.0048,444.621,-0.0596231,0.0,0.0
338,84.25,30.7972,31.0645,137.407,105.271,105.694,0.000738605,0.0439095,21.0048,444.581,-0.0361665,0.0,0.0
340,84.75,30.038,31.2459,138.767,105.261,105.716,0.000753608,0.0438558,21.0048,444.591,-0.0389601,0.0,0.0
342,85.25,30.0501,31.7099,135.853,105.253,105.846,0.000777778,0.0437979,21.0052,444.591,-0.0508059,0.0,0.0
344,85.75,30.0935,31.4757,137.342,105.244,105.736,0.000804352,0.0437382,21.0056,444.601,-0.0421768,0.0,0.0
346,86.25,30.2644,31.4977,141.931,105.245,105.738,0.000832175,0.0436899,21.0058,444.651,-0.0421887,0.0,0.0
348,86.75,30.3415,31.8149,134.247,105.239,106.384,0.000852803,0.0436507,21.0061,444.651,-0.0977324,0.0,0.0
350,87.25,30.1933,31.6459,135.752,105.239,105.811,0.000867793,0.0436596,21.0063,444.651,-0.0488809,0.0,0.0
352,87.75,30.3715,31.6466,139,105.224,105.396,0.000871032,0.0436669,21.0064,444.631,-0.0147673,0.0,0.0
354,88.25,30.303,31.6263,138.108,105.226,105.912,0.000865641,0.0436728,21.0065,444.651,-0.0586675,0.0,0.0
356,88.75,30.3658,31.5433,139.18,105.21,106.073,0.000861274,0.0436775,21.0066,444.641,-0.07374,0.0,0.0
358,89.25,30.3224,31.1412,135.242,105.2,106.159,0.000838411,0.04366,21.0067,444.651,-0.0819317,0.0,0.0
360,89.75,30.0384,31.7192,137.92,105.199,106.207,0.000819892,0.0436265,21.0068,444.621,-0.0860472,0.0,0.0
362,90.25,30.7897,31.5211,140.095,105.174,105.688,0.000798774,0.0435851,21.0069,444.631,-0.0440224,0.0,0.0
364,90.75,30.2043,31.7484,137.333,105.166,106.008,0.000781669,0.0435387,21.0071,444.641,-0.071987,0.0,0.0
366,91.25,30.4339,31.3847,136.955,105.155,105.834,0.000767813,0.0435083,21.0073,444.641,-0.0581036,0.0,0.0
368,91.75,30.1571,31.7928,137.781,105.163,105.551,0.000771081,0.0434901,21.0074,444.621,-0.0332329,0.0,0.0
370,92.25,30.3323,31.3853,136.732,105.141,105.64,0.000773728,0.0434753,21.0075,444.591,-0.0427148,0.0,0.0
372,92.75,30.4046,31.1287,134.174,105.138,105.417,0.000786745,0.0434505,21.0076,444.601,-0.0239384,0.0,0.0
374,93.25,29.9875,31.4553,134.769,105.118,105.854,0.000797288,0.0434305,21.0076,444.651,-0.0630216,0.0,0.0
376,93.75,30.3185,31.2619,136.76,105.108,106.126,0.000803412,0.0434142,21.0077,444.651,-0.0870084,0.0,0.0
378,94.25,30.3777,31.3796,136.24,105.09,105.294,0.000808372,0.043401,21.0077,444.681,-0.0175224,0.0,0.0
380,94.75,30.2174,32.0944,137.586,105.087,105.641,0.000801518,0.0433904,21.0078,444.661,-0.0474438,0.0,0.0
382,95.25,30.6367,31.6624,137.604,105.066,105.516,0.000795967,0.0434103,21.0078,444.621,-0.0386028,0.0,0.0
384,95.75,30.3506,32.0429,137.622,105.051,106.071,0.000769737,0.0434521,21.0078,444.581,-0.0872285,0.0,0.0
386,96.25,30.3904,31.7316,138.367,105.019,105.479,0.000748491,0.0434859,21.0078,444.581,-0.0394147,0.0,0.0
388,96.75,29.829,31.4231,137.933,105.03,105.623,0.000713181,0.0435134,21.0079,444.591,-0.0508151,0.0,0.0
390,97.25,30.1938,31.7364,139.731,105.017,105.873,0.00068458,0.0435356,21.0079,444.591,-0.0732999,0.0,0.0
392,97.75,30.1317,31.3514,139.281,105.003,106.029,0.000661413,0.0435536,21.0079,444.621,-0.0878018,0.0,0.0
394,98.25,30.542,31.5016,138.873,104.976,105.272,0.000634205,0.0435546,21.0079,444.621,-0.0253934,0.0,0.0
396,98.75,30.3001,31.8933,139.278,104.961,106.327,0.000612166,0.0435554,21.0079,444.611,-0.11671,0.0,0.0
398,99.25,30.1517,31.4736,138.013,104.943,105.376,0.000593188,0.0435561,21.0079,444.581,-0.0371771,0.0,0.0
400,99.75,30.2577,31.6741,138.122,104.939,105.383,0.000577816,0.0435566,21.0079,444.611,-0.0381088,0.0,0.0
402,100.25,30.61,31.5592,137.856,104.917,105.947,0.000565365,0.0435571,21.0079,444.631,-0.0882469,0.0,0.0
404,100.75,30.6315,31.8959,139.94,104.901,106.063,0.00055528,0.0435574,21.0078,444.611,-0.0994806,0.0,0.0
406,101.25,30.4343,31.2438,135.079,104.885,105.673,0.00054965,0.0435577,21.0076,444.601,-0.0676182,0.0,0.0
408,101.75,30.0652,31.5116,137.726,104.864,105.27,0.000547376,0.0435173,21.0075,444.601,-0.0349076,0.0,0.0
410,102.25,30.4615,31.4467,137.604,104.843,105.193,0.000545533,0.0434845,21.0074,444.611,-0.0300701,0.0,0.0
412,102.75,29.9337,31.7405,134.675,104.852,105.717,0.000551279,0.0434576,21.0074,444.591,-0.0741551,0.0,0.0
414,103.25,30.249,31.3814,138.394,104.808,105.764,0.000555933,0.0434355,21.0073,444.611,-0.0820311,0.0,0.0
416,103.75,29.8426,31.4544,135.991,104.792,105.383,0.000574184,0.0434247,21.0073,444.661,-0.0507642,0.0,0.0
418,104.25,30.6248,32.4039,136.752,104.773,105.793,0.000588967,0.0434223,21.0072,444.641,-0.0874687,0.0,0.0
420,104.75,30.1201,31.5949,136.077,104.769,105.376,0.000614286,0.0434204,21.0072,444.601,-0.0522029,0.0,0.0
422,105.25,30.5002,31.2812,136.49,104.725,105.822,0.000646805,0.0433918,21.0072,444.551,-0.0940282,0.0,0.0
424,105.75,30.1487,31.292,139.138,104.711,105.578,0.000678231,0.0433686,21.0072,444.581,-0.0743835,0.0,0.0
426,106.25,30.4883,31.3655,137.919,104.681,105.478,0.000708264,0.0432956,21.0071,444.601,-0.0684776,0.0,0.0
428,106.75,30.313,31.3222,137.667,104.667,105.172,0.00073259,0.0432364,21.0071,444.601,-0.0434432,0.0,0.0
430,107.25,30.4963,31.8659,136.439,104.634,105.091,0.000746573,0.0431885,21.0071,444.611,-0.0393736,0.0,0.0
432,107.75,30.6575,31.8572,135.873,104.624,104.786,0.000752749,0.0431497,21.007,444.611,-0.0139188,0.0,0.0
434,108.25,29.5057,31.4837,138.509,104.588,105.149,0.000757752,0.0431183,21.0068,444.591,-0.0483566,0.0,0.0
436,108.75,30.0309,31.2234,138.002,104.564,105.036,0.000752258,0.0430793,21.0068,444.561,-0.0406261,0.0,0.0
438,109.25,30.5819,31.6211,138.026,104.544,105.214,0.000742864,0.0430477,21.0062,444.541,-0.057648,0.0,0.0
440,109.75,30.4886,31.4289,137.474,104.516,104.97,0.000733984,0.0430221,21.0057,444.591,-0.0391665,0.0,0.0
442,110.25,30.1239,31.0688,134.47,104.504,105.057,0.000725647,0.0430149,21.0054,444.571,-0.0476678,0.0,0.0
444,110.75,30.3069,31.2651,141.785,104.475,105.034,0.000723979,0.0430091,21.0051,444.561,-0.0481666,0.0,0.0
446,111.25,29.8557,31.636,135.112,104.438,105.939,0.000727202,0.043018,21.0048,444.621,-0.128854,0.0,0.0
448,111.75,29.7583,31.3509,137.542,104.412,104.932,0.000729813,0.0430217,21.0046,444.601,-0.0448337,0.0,0.0
450,112.25,30.2859,31.4303,135.455,104.381,104.867,0.000731928,0.0430282,21.0044,444.561,-0.0419524,0.0,0.0
452,112.75,30.0472,31.6271,139.98,104.38,104.71,0.000742095,0.0430334,21.0043,444.611,-0.0285707,0.0,0.0
454,113.25,30.2402,31.1207,138.293,104.359,105.351,0.00075033,0.0430376,21.0042,444.591,-0.0853794,0.0,0.0
456,113.75,30.4019,31.5929,139.128,104.391,105.318,0.000755793,0.0430004,21.0041,444.571,-0.0798573,0.0,0.0
458,114.25,29.796,31.4965,137.509,104.365,105.188,0.000760217,0.0429702,21.0041,444.591,-0.0709091,0.0,0.0
460,114.75,29.7927,31.7468,142.285,104.377,104.964,0.00075414,0.0429322,21.004,444.541,-0.0506538,0.0,0.0
462,115.25,30.5767,31.4328,139.436,104.367,105.036,0.000749218,0.0429015,21.004,444.571,-0.0576437,0.0,0.0
464,115.75,30.1087,31.2052,137.941,104.385,104.823,0.000734365,0.0428766,21.0039,444.601,-0.0378202,0.0,0.0
466,116.25,30.2178,31.8369,138.349,104.373,104.768,0.000722335,0.042897,21.0039,444.551,-0.0340637,0.0,0.0
468,116.75,30.0011,31.3065,138.678,104.386,105.302,0.000693282,0.0429136,21.0041,444.581,-0.0788452,0.0,0.0
470,117.25,30.4997,31.0224,138.557,104.391,104.693,0.000669749,0.0428999,21.0045,444.551,-0.0260794,0.0,0.0
472,117.75,29.6622,31.7519,140.231,104.401,105.128,0.00063139,0.0428889,21.0045,444.591,-0.0626396,0.0,0.0
474,118.25,30.237,31.4008,138.268,104.383,104.871,0.000600319,0.0428663,21.0044,444.561,-0.0421335,0.0,0.0
476,118.75,29.9355,32.0634,137.397,104.399,105.247,0.000575151,0.0428481,21.0043,444.551,-0.0730341,0.0,0.0
478,119.25,30.2982,31.6709,136.597,104.398,105.323,0.000529453,0.0428333,21.0042,444.541,-0.0795994,0.0,0.0
480,119.75,30.5828,31.4643,137.515,104.402,105.529,,0.0428213,,444.521,-0.0969855,0.0,0.0
482,120.25,30.2182,31.7502,134.178,104.403,104.953,,0.0428388,,444.541,-0.0474211,0.0,0.0
484,120.75,30.4428,31.8185,138.455,104.413,105.092,,0.0428529,,444.551,-0.0585835,0.0,0.0
486,121.25,30.3325,31.5999,134.841,104.394,105.381,,0.0428643,,444.551,-0.0849209,0.0,0.0
488,121.75,30.1825,31.6287,138.154,104.422,105.321,,0.0428735,,444.551,-0.0773545,0.0,0.0
490,122.25,30.504,31.8931,133.603,104.419,105.376,,0.042881,,444.521,-0.0824031,0.0,0.0
492,122.75,30.2985,31.6456,137.865,104.419,105.057,,,,444.591,-0.0550009,0.0,0.0
494,123.25,30.5818,31.5534,142.213,104.424,104.931,,,,444.621,-0.0437655,0.0,0.0
496,123.75,30.2655,31.4882,136.565,104.426,105.3,,,,444.571,-0.0752486,0.0,0.0
498,124.25,30.704,31.7281,136.025,104.442,104.777,,,,444.561,-0.0289184,0.0,0.0
500,124.75,30.7708,31.5486,134.766,104.446,105.374,,,,444.551,-0.0798676,0.0,0.0
502,125.25,30.9534,31.7327,139.788,104.435,104.947,,,,444.591,-0.0441917,0.0,0.0
504,125.75,30.1628,31.917,137.491,104.446,104.756,,,,444.591,-0.0266893,0.0,0.0
506,126.25,30.5359,31.8949,138.455,104.468,105.738,,,,444.571,-0.109132,0.0,0.0
508,126.75,30.1358,31.677,130.973,104.457,105.518,,,,444.541,-0.0912377,0.0,0.0
510,127.25,30.6204,31.2918,139.535,104.459,105.581,,,,444.601,-0.0965187,0.0,0.0
512,127.75,30.4977,31.6842,137.891,104.47,105.637,,,,444.601,-0.100276,0.0,0.0
514,128.25,30.6513,31.0373,135.518,104.462,105.404,,,,444.601,-0.0810905,0.0,0.0
516,128.75,30.315,31.338,132.857,104.471,105.088,,,,444.591,-0.0531789,0.0,0.0
518,129.25,30.8803,30.7016,139.438,104.481,105.169,,,,444.571,-0.0592894,0.0,0.0
520,129.75,30.1839,31.7038,135.994,104.479,105.353,,,,444.571,-0.075165,0.0,0.0
522,130.25,30.104,31.2202,145.242,104.506,105.113,,,,444.591,-0.05229,0.0,0.0
523,130.5,30.6376,31.4155,141.697,104.495,104.737,,,,444.591,-0.0209052,0.0,0.0