File: 01_Data/Fiberglass_Insulation_3/Cone/Fiberglass_Insulation_3_Cone_HF25Scan_220506_R1.csv
Names,Time,Stack TC,Smoke TC,Exh Press,Smoke Comp,Smoke Meas,CO Meter,CO2 Meter,O2 Meter,Sample Mass,Ext Coeff,Start Test,Flame Verif
Chan Gain,,500,500,1,1,1,1,1,1,1,1,1.0,1.0
Offset,,0,0,0.134207,0,0,0,0,0,0,0,0.0,0.0
Gain,,1,1,25.011,13.8443,15.4071,1,1,1,1.00079,1.02936,1.0,1.0
Units,sec,C,C,Pa,%,%,%,%,%,g,/m,,
Baseline,,19.6128,20.1146,143.656,104.912,105.752,0.000620791,0.0425445,21.0031,-444.122,-0.0720075,,
2,0.25,19.0772,20.1516,150.159,104.671,106.13,0.000603313,0.0513136,20.9891,440.848,-0.124972,0.0,0.0
4,0.75,17.6356,18.4019,142.523,104.623,106.11,0.000536685,0.0512505,20.9892,440.558,-0.127408,0.0,0.0
6,1.25,17.687,19.2041,142.213,104.616,106.098,0.000482716,0.0511179,20.9891,440.808,-0.127027,0.0,0.0
8,1.75,18.1983,18.9203,143.977,104.585,105.997,0.000439001,0.0510105,20.9889,440.628,-0.121118,0.0,0.0
10,2.25,17.9088,18.6429,140.872,104.561,105.932,0.000389142,0.0508283,20.9893,440.738,-0.117556,0.0,0.0
12,2.75,18.2029,18.5965,146.928,104.531,105.623,0.000348757,0.0506808,20.9896,440.788,-0.0938536,0.0,0.0
14,3.25,17.9673,18.6193,138.938,104.512,105.816,0.000350975,0.0504797,20.9898,440.758,-0.111965,0.0,0.0
16,3.75,18.0511,18.6316,144.448,104.485,105.3,0.000352771,0.0503169,20.99,440.838,-0.0700993,0.0,0.0
18,4.25,17.7566,18.348,143.579,104.478,105.369,0.000394863,0.0501636,20.9899,440.708,-0.0766847,0.0,0.0
20,4.75,17.9491,19.2044,144.35,104.435,105.217,0.000465529,0.05002,20.9896,440.688,-0.0673096,0.0,0.0
22,5.25,18.2802,18.838,141.319,104.424,105.115,0.000573048,0.0499038,20.9894,440.658,-0.059499,0.0,0.0
24,5.75,18.2403,18.7966,142.217,104.394,104.423,0.000705391,0.0499319,20.9888,440.638,-0.00248412,0.0,0.0
26,6.25,18.3529,18.7237,141.783,104.433,104.086,0.000885379,0.0499547,20.9883,440.638,0.0300438,0.0,0.0
28,6.75,17.5762,18.9411,141.682,104.524,103.946,0.00109668,0.0514578,20.9787,440.708,0.0500115,0.0,0.0
30,7.25,18.099,18.6689,143.405,104.604,103.251,0.00126783,0.0540116,20.971,440.678,0.117632,0.0,0.0
32,7.75,18.2213,18.5283,152.243,104.684,102.605,0.00155506,0.0598294,20.9415,440.578,0.18112,0.0,0.0
34,8.25,18.3484,18.9792,133.889,104.784,107.548,0.00178771,0.0679162,20.9177,440.497,-0.235097,0.0,1.0
36,8.75,18.7402,19.0608,135.05,104.854,108.649,0.00205984,0.0744664,20.8984,440.538,-0.321034,0.0,1.0
38,9.25,18.3936,19.0014,121.378,104.941,110.144,0.00235557,0.0901303,20.8618,440.337,-0.436994,0.0,1.0
40,9.75,18.3244,18.6313,119.046,104.991,106.191,0.00264938,0.102818,20.8321,440.327,-0.10266,0.0,1.0
42,10.25,18.9334,19.4665,124.693,105.04,98.4824,0.00293621,0.1191,20.8081,440.097,0.582039,0.0,1.0
44,10.75,19.7435,19.6706,124.933,105.085,92.2072,0.00316853,0.132288,20.7886,440.247,1.18041,0.0,1.0
46,11.25,20.4339,20.0605,131.09,105.136,93.4523,0.00335672,0.143423,20.7729,440.267,1.0637,0.0,1.0
48,11.75,20.8673,20.5169,135.5,105.178,100.036,0.00364582,0.152851,20.7605,440.137,0.452543,0.0,1.0
50,12.25,21.2896,20.9605,137.178,105.223,103.927,0.00387999,0.160487,20.7508,440.087,0.111889,0.0,1.0
52,12.75,21.3874,21.0234,138.55,105.249,107.078,0.00414624,0.16414,20.7522,440.097,-0.155539,0.0,1.0
54,13.25,21.3274,21.1758,139.211,105.272,107.591,0.00436189,0.1671,20.7616,440.187,-0.196811,0.0,1.0
56,13.75,21.7767,21.557,140.54,105.297,107.424,0.00457108,0.169497,20.7691,440.167,-0.180654,0.0,0.0
58,14.25,22.0559,21.4559,138.994,105.314,107.661,0.00477159,0.167276,20.7875,440.117,-0.199026,0.0,0.0
60,14.75,21.851,21.9495,142.426,105.315,106.693,0.00493399,0.165478,20.8024,440.117,-0.117355,0.0,0.0
62,15.25,21.8625,21.7155,140.697,105.321,106.861,0.0050928,0.161413,20.8184,440.057,-0.131118,0.0,0.0
64,15.75,21.3443,21.1412,144.033,105.316,106.105,0.00522142,0.15812,20.8348,440.107,-0.0673286,0.0,0.0
66,16.25,21.4296,21.369,140.015,105.316,106.279,0.00532561,0.154186,20.8482,440.117,-0.0821978,0.0,0.0
68,16.75,21.0145,21.0115,146.477,105.316,106.458,0.00538895,0.149861,20.8608,440.137,-0.0974006,0.0,0.0
70,17.25,21.0774,21.229,146.656,105.303,106.925,0.00544025,0.146357,20.8727,440.067,-0.138005,0.0,0.0
72,17.75,20.9312,21.1161,139.635,105.278,106.665,0.00544219,0.141494,20.8837,439.917,-0.118155,0.0,0.0
74,18.25,20.8583,21.3751,144.258,105.265,106.469,0.00544377,0.137554,20.8939,440.087,-0.102746,0.0,0.0
76,18.75,21.1458,20.7653,141.03,105.223,106.546,0.00540671,0.13267,20.9038,439.857,-0.112868,0.0,0.0
78,19.25,21.2453,21.059,147.77,105.195,106.545,0.00536434,0.128714,20.9119,439.937,-0.115104,0.0,0.0
80,19.75,20.5375,21.1317,146.683,105.158,106.673,0.0053189,0.12551,20.9198,439.927,-0.129129,0.0,0.0
82,20.25,21.2358,21.0843,143.611,105.112,106.881,0.00527105,0.121326,20.9261,439.957,-0.150662,0.0,0.0
84,20.75,21.4731,21.2094,140.031,105.071,106.562,0.00522234,0.117937,20.933,440.027,-0.127171,0.0,0.0
86,21.25,20.9737,21.107,140.484,105.024,106.346,0.00516341,0.114275,20.9386,439.967,-0.112934,0.0,0.0
88,21.75,20.5786,20.9379,142.023,104.959,106.444,0.00509814,0.111309,20.9436,440.057,-0.126868,0.0,0.0
90,22.25,21.1146,21.1055,142.221,104.909,106.789,0.00504528,0.10813,20.9476,440.077,-0.160384,0.0,0.0
92,22.75,20.8581,21.29,141.173,104.841,106.313,0.00495772,0.105556,20.9509,440.017,-0.12592,0.0,0.0
94,23.25,20.551,21.0891,144.359,104.815,106.452,0.00484654,0.102696,20.9544,440.007,-0.139913,0.0,0.0
96,23.75,20.7456,20.9153,141.462,104.807,106.62,0.00472219,0.100379,20.9572,439.917,-0.154868,0.0,0.0
98,24.25,20.8662,21.0269,144.436,104.842,106.841,0.00459061,0.097798,20.96,439.967,-0.170583,0.0,0.0
100,24.75,20.3348,20.9851,142.605,104.855,106.019,0.00448402,0.0957076,20.9627,440.047,-0.0997255,0.0,0.0
102,25.25,20.1749,20.5676,142.719,104.88,106.563,0.00432039,0.0935718,20.9653,439.947,-0.14375,0.0,0.0
104,25.75,20.1509,20.7574,137.148,104.898,106.303,0.00418785,0.0914436,20.9678,440.007,-0.120207,0.0,0.0
106,26.25,20.665,21.1166,144.455,104.931,106.654,0.0040009,0.0893432,20.9701,439.847,-0.147075,0.0,0.0
108,26.75,20.381,20.7206,142.041,104.964,106.302,0.00384948,0.087303,20.9721,440.027,-0.114379,0.0,0.0
110,27.25,20.2502,20.6809,143.925,104.978,106.575,0.00367796,0.0856505,20.9738,439.937,-0.136351,0.0,0.0
112,27.75,20.3642,20.7674,141.231,105.013,106.714,0.00349506,0.0837074,20.976,439.937,-0.145083,0.0,0.0
114,28.25,20.7193,21.0528,141.44,105.058,107.238,0.00331547,0.0821336,20.9778,439.897,-0.185484,0.0,0.0
116,28.75,20.6817,20.7393,140.269,105.074,106.754,0.00314171,0.0803923,20.9793,439.897,-0.143197,0.0,0.0
118,29.25,20.2279,20.5949,145.071,105.093,106.336,0.00300096,0.0789818,20.9804,439.967,-0.106139,0.0,0.0
120,29.75,20.231,20.3735,144.49,105.128,106.532,0.00286261,0.0775436,20.9814,439.837,-0.119833,0.0,0.0
122,30.25,20.0496,20.7804,138.267,105.163,106.545,0.00272864,0.0761125,20.9826,439.997,-0.117938,0.0,0.0
124,30.75,20.3011,20.5209,142.429,105.19,106.996,0.00262012,0.0749533,20.9836,440.037,-0.153637,0.0,0.0
126,31.25,20.1824,20.6934,142.686,105.217,106.563,0.00252735,0.0735763,20.9844,439.987,-0.114697,0.0,0.0
128,31.75,20.4277,21.0947,146.68,105.25,107.163,0.00245221,0.0724609,20.985,439.917,-0.162644,0.0,0.0
130,32.25,20.2105,19.8708,143.839,105.269,106.898,0.00239257,0.0713486,20.9858,439.957,-0.138677,0.0,0.0
132,32.75,20.3225,20.1708,140.623,105.302,108.125,0.00234425,0.0702599,20.9866,439.967,-0.238883,0.0,0.0
134,33.25,19.6307,20.1175,141.108,105.338,106.841,0.00230025,0.0693779,20.9872,439.947,-0.127889,0.0,0.0
136,33.75,19.8989,20.4947,143.005,105.362,107.066,0.00226461,0.0683219,20.9878,439.967,-0.144875,0.0,0.0
138,34.25,19.8057,20.47,143.581,105.389,106.919,0.00223574,0.0674665,20.9882,439.977,-0.130102,0.0,0.0
140,34.75,19.9045,20.2306,140.994,105.417,107.442,0.00220788,0.0665005,20.9886,439.997,-0.171761,0.0,0.0
142,35.25,19.7134,20.2352,142.791,105.435,107.202,0.00218128,0.065718,20.9898,439.927,-0.150066,0.0,0.0
144,35.75,19.9214,20.5037,143.952,105.472,107.072,0.00215397,0.0647976,20.9908,440.007,-0.135981,0.0,0.0
146,36.25,20.281,20.795,143.392,105.49,107.064,0.00212667,0.064052,20.9916,439.997,-0.133752,0.0,0.0
148,36.75,20.2965,20.4632,148.351,105.512,106.895,0.00210456,0.0634481,20.9922,439.987,-0.117661,0.0,0.0
150,37.25,19.5677,20.2124,141.82,105.525,107.174,0.00206555,0.0627795,20.9927,439.997,-0.139989,0.0,0.0
152,37.75,19.5511,20.2746,143.801,105.552,107.422,0.00201495,0.0620764,20.9932,439.987,-0.158564,0.0,0.0
154,38.25,20.1296,20.2919,143.582,105.576,107.256,0.00195609,0.0615068,20.9935,439.957,-0.142578,0.0,0.0
156,38.75,20.1793,20.7161,141.253,105.592,107.143,0.00189231,0.0608137,20.9938,440.017,-0.131625,0.0,0.0
158,39.25,20.0212,20.6899,140.335,105.602,107.472,0.00184065,0.0602523,20.994,440.077,-0.158525,0.0,0.0
160,39.75,19.6344,20.7916,142.435,105.626,107.231,0.00176607,0.0596205,20.9944,439.887,-0.136105,0.0,0.0
162,40.25,19.7648,20.596,142.972,105.632,107.69,0.00169546,0.0591086,20.995,439.947,-0.174232,0.0,0.0
164,40.75,19.8633,20.6109,141.542,105.648,107.001,0.00162907,0.0586941,20.9954,439.997,-0.114922,0.0,0.0
166,41.25,19.2534,19.9725,146.354,105.648,107.418,0.00157531,0.0581676,20.9957,439.937,-0.150008,0.0,0.0
168,41.75,19.2825,20.4187,140.452,105.664,107.152,0.00152085,0.0577411,20.996,439.977,-0.126241,0.0,0.0
170,42.25,19.9118,20.1393,140.023,105.653,107.332,0.00147674,0.0572595,20.9963,439.927,-0.142379,0.0,0.0
172,42.75,20.0817,19.9831,141.778,105.675,107.32,0.00144102,0.0568693,20.9965,439.987,-0.139508,0.0,0.0
174,43.25,20.2688,20.4432,147.23,105.669,106.888,0.00141208,0.05639,20.9966,439.797,-0.103589,0.0,0.0
176,43.75,19.5469,20.3826,144.121,105.677,107.575,0.00138864,0.0560017,20.9967,439.907,-0.160744,0.0,0.0
178,44.25,19.6005,20.2741,142.014,105.667,106.909,0.00136965,0.0556056,20.9971,440.037,-0.105477,0.0,0.0
180,44.75,19.7121,20.2475,139.798,105.679,107.265,0.00135427,0.0552847,20.9975,440.047,-0.134558,0.0,0.0
182,45.25,20.0424,20.276,140.919,105.659,107.866,0.00133927,0.0549603,20.9979,439.917,-0.186621,0.0,0.0
184,45.75,19.6449,20.8537,144.745,105.675,106.884,0.00132482,0.0546396,20.9982,439.947,-0.102687,0.0,0.0
186,46.25,19.4498,20.0489,147.072,105.657,106.663,0.00130674,0.0543153,20.9985,439.857,-0.0855544,0.0,0.0
188,46.75,19.1538,19.8501,143.641,105.657,106.949,0.00128636,0.0539947,20.9987,439.877,-0.109723,0.0,0.0
190,47.25,19.582,19.978,145.045,105.652,106.556,0.00126158,0.053735,20.9989,439.937,-0.0768681,0.0,0.0
192,47.75,19.7143,20.3832,143.475,105.64,107.021,0.00123405,0.0533614,20.999,439.927,-0.117311,0.0,0.0
194,48.25,19.4558,19.7699,144.045,105.63,106.964,0.00121176,0.0530588,20.9991,439.997,-0.11334,0.0,0.0
196,48.75,19.2564,20.1319,141.153,105.617,107.179,0.00117313,0.0527636,20.9992,439.997,-0.132505,0.0,0.0
198,49.25,19.5566,20.4,141.176,105.596,106.953,0.00114185,0.0524794,20.9993,439.987,-0.115313,0.0,0.0
200,49.75,19.5093,20.4468,140.839,105.591,106.875,0.00110563,0.0521992,20.9993,440.037,-0.109194,0.0,0.0
202,50.25,19.5868,20.5803,140.028,105.572,106.954,0.00107629,0.0519271,20.9994,439.957,-0.11742,0.0,0.0
204,50.75,19.9302,20.1653,142.836,105.578,107.093,0.00105252,0.0517067,20.9994,439.977,-0.128616,0.0,0.0
206,51.25,19.7344,20.141,144.363,105.545,107.299,0.00102481,0.0513651,20.9999,439.977,-0.148818,0.0,0.0
208,51.75,19.8412,20.3145,142.503,105.522,107.526,0.000999184,0.0510884,21.0002,439.987,-0.169858,0.0,0.0
210,52.25,19.7166,19.9685,140.515,105.499,107.078,0.000975565,0.0507556,21.0006,439.907,-0.134143,0.0,0.0
212,52.75,19.4183,20.6971,144.898,105.487,106.683,0.000956434,0.050486,21.0008,439.857,-0.101789,0.0,0.0
214,53.25,19.6691,20.015,146.066,105.466,106.911,0.000943354,0.0502247,21.001,439.897,-0.122878,0.0,0.0
216,53.75,19.4272,20.2222,142.775,105.452,106.942,0.00093276,0.0499745,21.0012,439.897,-0.126688,0.0,0.0
218,54.25,19.4791,19.778,143.058,105.403,106.86,0.000937473,0.0497718,21.0013,439.917,-0.123975,0.0,0.0
220,54.75,19.5387,20.514,139.216,105.4,107.504,0.000941291,0.0495261,21.0014,439.877,-0.178535,0.0,0.0
222,55.25,19.9132,20.1347,143.646,105.376,106.851,0.000956475,0.0493271,21.0015,439.787,-0.12554,0.0,0.0
224,55.75,19.719,20.2757,141.869,105.365,107.741,0.000968774,0.0491388,21.0016,439.797,-0.201381,0.0,0.0
226,56.25,19.1525,20.0281,145.398,105.328,107.061,0.000981918,0.0489862,21.0016,439.887,-0.147411,0.0,0.0
228,56.75,19.9326,20.5847,142.251,105.302,106.721,0.00099543,0.0488083,21.0017,439.967,-0.120869,0.0,0.0
230,57.25,19.6973,20.1585,143.146,105.264,106.659,0.00100637,0.0486643,21.0017,439.897,-0.118878,0.0,0.0
232,57.75,19.4832,20.1401,143.478,105.245,107.205,0.00101524,0.0484661,21.0017,439.977,-0.166601,0.0,0.0
234,58.25,19.8729,20.1642,141.36,105.216,106.96,0.00102121,0.0483056,21.0018,439.837,-0.148449,0.0,0.0
236,58.75,19.2054,19.908,145.977,105.193,106.479,0.00102605,0.048147,21.0021,439.857,-0.10967,0.0,0.0
238,59.25,19.5118,19.6817,142.709,105.159,106.394,0.00102551,0.0479928,21.0025,439.877,-0.105425,0.0,0.0
240,59.75,18.7854,19.7265,144.614,105.146,106.087,0.00102106,0.0478679,21.0027,439.907,-0.0804942,0.0,0.0
242,60.25,19.4467,19.9899,146.528,105.114,106.653,0.00100538,0.0477667,21.0029,439.977,-0.131231,0.0,0.0
244,60.75,19.5114,20.2366,142.459,105.076,106.385,0.000981789,0.0476033,21.0031,439.837,-0.111819,0.0,0.0
246,61.25,19.3155,20.1971,145.426,105.049,106.41,0.00094679,0.047471,21.0032,439.847,-0.116218,0.0,0.0
248,61.75,19.1385,20.0413,146.327,105.03,106.183,0.000904138,0.0473138,21.0033,439.847,-0.098524,0.0,0.0
250,62.25,18.9521,19.6518,143.117,104.991,106.137,0.000869589,0.0471414,21.0034,440.017,-0.0980208,0.0,0.0
252,62.75,19.0668,19.5601,141.368,104.964,105.803,0.00080902,0.0469804,21.0039,440.057,-0.0719409,0.0,0.0
254,63.25,19.0067,19.8642,143.732,104.945,106.047,0.000759958,0.0468307,21.0044,439.917,-0.0943023,0.0,0.0
256,63.75,19.17,19.7785,142.988,104.906,106.569,0.000697307,0.0467094,21.0047,439.747,-0.142053,0.0,0.0
258,64.25,19.8543,19.9089,141.398,104.895,106.582,0.000646559,0.0465298,21.005,439.897,-0.144037,0.0,0.0
260,64.75,19.6211,20.2022,140.945,104.85,106.662,0.000604818,0.0463843,21.0052,439.887,-0.154776,0.0,0.0
262,65.25,19.1722,19.5714,145.166,104.823,106.563,0.000570438,0.0462664,21.0054,439.907,-0.148625,0.0,0.0
264,65.75,19.0452,19.7965,144.513,104.789,106.256,0.00054259,0.046171,21.0055,439.807,-0.12556,0.0,0.0
266,66.25,19.303,19.7749,141.066,104.751,106.357,0.000527013,0.0460801,21.0056,439.817,-0.13731,0.0,0.0
268,66.75,18.849,19.2058,145.112,104.745,106.366,0.000520678,0.0460064,21.0057,439.977,-0.138615,0.0,0.0
270,67.25,19.2612,19.7422,144.172,104.695,105.742,0.00051999,0.0459111,21.0058,439.817,-0.0898324,0.0,0.0
272,67.75,19.3374,20.0429,142.346,104.674,106.019,0.000523431,0.0458018,21.0058,439.747,-0.11531,0.0,0.0
274,68.25,19.3594,19.4839,143.385,104.635,105.832,0.000529394,0.0457132,21.0059,439.887,-0.102673,0.0,0.0
276,68.75,18.9037,19.8189,141.07,104.603,106.134,0.00053708,0.0456143,21.0059,439.907,-0.131198,0.0,0.0
278,69.25,18.8566,19.9524,145.102,104.583,106.456,0.000543306,0.0455342,21.006,439.917,-0.160236,0.0,0.0
280,69.75,19.3159,19.4465,142.079,104.545,106.041,0.000558003,0.0454551,21.006,439.797,-0.128236,0.0,0.0
282,70.25,18.8693,20.1136,144.583,104.512,106.114,0.000569906,0.0453781,21.006,439.877,-0.137363,0.0,0.0
284,70.75,19.2762,19.6753,145.126,104.486,105.682,0.000590411,0.0452943,21.006,439.937,-0.102783,0.0,0.0
286,71.25,19.5045,19.8429,141.888,104.473,106.057,0.000607019,0.0452072,21.0061,439.867,-0.135875,0.0,0.0
288,71.75,19.2514,20.3075,141.614,104.438,105.941,0.000620472,0.0451367,21.0061,439.857,-0.129094,0.0,0.0
290,72.25,19.2146,19.5576,142.843,104.411,105.585,0.000627748,0.0450795,21.0061,439.847,-0.100891,0.0,0.0
292,72.75,18.9045,19.328,145.783,104.381,105.655,0.000633641,0.0450332,21.0061,439.897,-0.109551,0.0,0.0
294,73.25,19.0182,19.7332,144.188,104.365,105.559,0.000623934,0.0450093,21.0061,439.717,-0.102703,0.0,0.0
296,73.75,19.2362,19.8068,142.885,104.329,105.942,0.000616071,0.0449899,21.0061,439.947,-0.138563,0.0,0.0
298,74.25,19.1659,19.6378,143.815,104.304,105.998,0.00060367,0.0449456,21.0059,439.837,-0.145488,0.0,0.0
300,74.75,18.9188,19.8265,145.387,104.278,105.405,0.000593625,0.0448841,21.0055,439.867,-0.0971111,0.0,0.0
302,75.25,19.6298,20.2154,144.623,104.25,105.453,0.000596347,0.0448342,21.0052,439.907,-0.103634,0.0,0.0
304,75.75,19.5199,19.5927,148.955,104.22,105.154,0.000598552,0.0447667,21.0049,439.907,-0.0805127,0.0,0.0
306,76.25,18.6733,19.719,143.825,104.212,106.029,0.000622065,0.044712,21.0047,439.887,-0.156072,0.0,0.0
308,76.75,18.9588,19.6234,143.294,104.173,105.402,0.00064111,0.0446542,21.005,439.847,-0.105943,0.0,0.0
310,77.25,18.6276,19.8933,146.873,104.163,105.158,0.000667343,0.0446073,21.0052,439.787,-0.0858157,0.0,0.0
312,77.75,18.8732,19.2314,146.054,104.142,105.348,0.000698316,0.0445016,21.0054,439.897,-0.103984,0.0,0.0
314,78.25,19.2615,19.8593,142.707,104.118,105.014,0.000723405,0.0444159,21.0055,439.997,-0.0773773,0.0,0.0
316,78.75,18.6183,19.9736,142.076,104.095,105.293,0.000742455,0.0443465,21.0056,439.877,-0.103297,0.0,0.0
318,79.25,19.0607,19.6557,145.668,104.077,105.402,0.000756741,0.0442903,21.0057,439.917,-0.11426,0.0,0.0
320,79.75,19.2918,19.9398,140.095,104.059,105.633,0.00075306,0.0442448,21.0058,439.957,-0.135632,0.0,0.0
322,80.25,19.1047,18.8801,143.503,104.055,105.442,0.000736351,0.0442079,21.0059,439.937,-0.11959,0.0,0.0
324,80.75,18.473,18.9861,147.684,104.024,105.478,0.000722818,0.0441781,21.0059,439.927,-0.125325,0.0,0.0
326,81.25,18.7393,19.2964,141.766,104.023,105.667,0.000711855,0.0441403,21.0059,439.887,-0.141602,0.0,0.0
328,81.75,18.9451,19.4415,141.338,103.988,105.62,0.00064629,0.0441097,21.006,439.887,-0.140591,0.0,0.0
330,82.25,19.2764,19.5769,145.393,103.977,105.453,0.000581768,0.0441135,21.0062,439.907,-0.127341,0.0,0.0
332,82.75,18.8842,19.4884,139.603,103.959,105.944,0.000519233,0.0441423,21.0054,439.897,-0.170739,0.0,0.0
334,83.25,18.8477,19.0117,142.041,103.944,105.723,0.000469848,0.0441655,21.0048,439.877,-0.153206,0.0,0.0
336,83.75,19.3186,19.6039,145.112,103.929,105.19,0.000430987,0.0441844,21.0043,439.887,-0.108914,0.0,0.0
338,84.25,18.7477,19.7344,144.177,103.917,105.04,0.000412192,0.0443217,21.0039,439.897,-0.097054,0.0,0.0
340,84.75,18.4647,20.1085,143.143,103.885,105.359,0.000408384,0.044433,21.0031,439.837,-0.127246,0.0,0.0
342,85.25,18.8972,19.6895,141.354,103.883,104.94,0.000405299,0.0445909,21.0025,439.837,-0.0914182,0.0,0.0
344,85.75,18.7477,19.7798,143.288,103.859,104.93,0.000428827,0.0447545,21.002,439.907,-0.0925844,0.0,0.0
346,86.25,19.0906,19.6021,142.736,103.863,104.825,0.000471308,0.0449192,21.0016,439.887,-0.0831901,0.0,0.0
348,86.75,19.2007,19.7698,145.522,103.84,104.862,0.000520334,0.0450811,21.0013,439.907,-0.0884871,0.0,0.0
350,87.25,18.8282,19.8239,141.172,103.833,105.006,0.000573199,0.045238,21.001,439.937,-0.101419,0.0,0.0
352,87.75,18.8784,19.5373,141.95,103.81,105.383,0.00061602,0.0453651,21.0008,439.947,-0.135808,0.0,0.0
354,88.25,19.1745,19.6784,145.667,103.816,105.277,0.000647082,0.045563,21.0004,439.947,-0.126183,0.0,0.0
356,88.75,19.4551,19.7693,143.71,103.785,104.933,0.000672242,0.0457233,20.9998,439.937,-0.0993348,0.0,0.0
358,89.25,18.6637,19.271,143.939,103.795,104.86,0.000684168,0.0458531,20.9994,439.947,-0.0922201,0.0,0.0
360,89.75,18.7526,20.0835,145.906,103.781,104.592,0.000691287,0.0461076,20.9991,439.957,-0.0702853,0.0,0.0
362,90.25,19.0046,19.9364,143.128,103.78,104.949,0.000694765,0.0463138,20.9988,439.877,-0.101192,0.0,0.0
364,90.75,19.0799,19.7552,143.181,103.769,104.782,0.000697582,0.0465486,20.9985,439.937,-0.0877388,0.0,0.0
366,91.25,18.9833,19.5465,139.77,103.761,104.693,0.000687793,0.0467388,20.9981,439.927,-0.0807326,0.0,0.0
368,91.75,18.8907,19.7497,142.775,103.754,104.546,0.000679864,0.0469336,20.9976,439.967,-0.0686593,0.0,0.0
370,92.25,18.8403,19.4627,141.137,103.758,105.014,0.000673441,0.0470914,20.9971,439.947,-0.108685,0.0,0.0
372,92.75,19.3716,19.4339,144.603,103.743,104.629,0.000636873,0.04726,20.9968,439.977,-0.0768372,0.0,0.0
374,93.25,19.0267,19.649,141.614,103.741,104.766,0.000607253,0.0473965,20.9965,439.997,-0.0887877,0.0,0.0
376,93.75,19.1811,19.6576,142.059,103.721,104.996,0.000553128,0.0475886,20.9963,439.937,-0.110307,0.0,0.0
378,94.25,18.806,19.4345,143.304,103.724,104.993,0.000509286,0.0477441,20.9961,439.907,-0.109844,0.0,0.0
380,94.75,19.0694,19.8024,143.4,103.727,105.044,0.000447277,0.0478987,20.9959,439.937,-0.113952,0.0,0.0
382,95.25,18.7985,19.4558,141.61,103.734,105.275,0.00039705,0.0480497,20.9958,439.987,-0.13319,0.0,0.0
384,95.75,19.0412,19.6893,146.854,103.712,104.977,0.000345532,0.048172,20.9957,439.957,-0.109499,0.0,0.0
386,96.25,18.5384,19.2505,142.179,103.712,104.876,0.000303803,0.0483118,20.9956,439.927,-0.1008,0.0,0.0
388,96.75,18.8931,20.1753,142.125,103.718,105.162,0.000270002,0.048425,20.9955,439.927,-0.124827,0.0,0.0
390,97.25,18.7268,19.4797,143.282,103.714,105.289,0.000242623,0.048531,20.9955,439.927,-0.136089,0.0,0.0
392,97.75,18.7875,19.1731,142.889,103.705,104.68,0.000226148,0.0486297,20.9955,439.827,-0.0844547,0.0,0.0
394,98.25,18.7623,19.3589,144.86,103.715,104.557,0.000217936,0.0487026,20.9954,439.907,-0.0730172,0.0,0.0
396,98.75,19.132,20.0909,143.622,103.705,104.813,0.000211284,0.0487551,20.9954,439.927,-0.0959253,0.0,0.0
398,99.25,18.8714,19.5544,146.806,103.708,104.652,0.000214134,0.048762,20.9954,439.837,-0.0818003,0.0,0.0
400,99.75,18.7735,19.6902,143.481,103.704,104.586,0.000223859,0.0487353,20.9953,439.917,-0.0764871,0.0,0.0
402,100.25,18.9321,19.7002,142.997,103.705,104.688,0.000236808,0.0487138,20.9953,439.947,-0.0851811,0.0,0.0
404,100.75,19.2854,19.8317,148.595,103.694,104.614,0.000251862,0.048737,20.9953,439.967,-0.0798052,0.0,0.0
406,101.25,18.4748,19.6044,143.859,103.698,105.085,0.000264056,0.0487559,20.9953,439.937,-0.119973,0.0,0.0
408,101.75,19.2669,20.0257,141.847,103.716,104.631,0.000287187,0.0488255,20.9953,439.967,-0.0793523,0.0,0.0
410,102.25,19.146,19.4844,142.179,103.71,105.352,0.000312268,0.0488819,20.9953,439.937,-0.141861,0.0,0.0
412,102.75,19.0017,19.7985,145.453,103.704,104.49,0.000338294,0.0488846,20.9953,439.987,-0.0682022,0.0,0.0
414,103.25,18.7988,19.5076,140.733,103.695,105.252,0.000359376,0.0488483,20.9953,440.017,-0.134562,0.0,0.0
416,103.75,19.0281,19.7354,140.318,103.703,105.084,0.000376451,0.0488188,20.9953,440.017,-0.119411,0.0,0.0
418,104.25,18.5426,19.209,144.173,103.713,104.753,0.000416816,0.0487814,20.9956,439.987,-0.0901172,0.0,0.0
420,104.75,19.5102,19.7773,144.482,103.705,105.074,0.000449512,0.0487511,20.9962,439.987,-0.118377,0.0,0.0
422,105.25,18.8009,19.7163,144.097,103.71,105.165,0.000494098,0.0486993,20.9966,439.977,-0.125772,0.0,0.0
424,105.75,19.0156,19.8669,142.329,103.711,105.287,0.000530213,0.0486574,20.997,439.977,-0.136189,0.0,0.0
426,106.25,18.5149,19.2482,139.574,103.71,105.074,0.000559466,0.0486235,20.9973,439.967,-0.117977,0.0,0.0
428,106.75,18.6004,19.0665,145.248,103.716,105.127,0.00060248,0.0485281,20.9977,439.967,-0.121986,0.0,0.0
430,107.25,18.5952,19.7519,145.542,103.721,105.772,0.000637322,0.0484508,20.9983,439.987,-0.17682,0.0,0.0
432,107.75,18.9543,19.5949,142.317,103.716,105.063,0.000668086,0.0483611,20.9988,439.977,-0.116525,0.0,0.0
434,108.25,18.6615,19.1806,142.756,103.715,104.712,0.000695295,0.0482884,20.9992,439.997,-0.0864025,0.0,0.0
436,108.75,18.6865,19.1222,141.156,103.735,104.757,0.000721784,0.0482152,20.9995,439.997,-0.0884882,0.0,0.0
438,109.25,19.0807,20.0489,142.721,103.719,105.411,0.000747246,0.0481431,20.9997,439.987,-0.146048,0.0,0.0
440,109.75,18.9217,19.4165,139.557,103.72,104.914,0.000758101,0.0480847,20.9998,439.987,-0.103342,0.0,0.0
442,110.25,18.6481,19.6439,143.127,103.719,104.614,0.000789956,0.0480159,21.0003,439.977,-0.0775206,0.0,0.0
444,110.75,19.4856,19.6905,142.982,103.741,104.609,0.000815759,0.0479409,21.0008,439.987,-0.0752426,0.0,0.0
446,111.25,18.8322,19.632,141.988,103.718,104.713,0.000839203,0.0478302,21.0012,439.987,-0.0862265,0.0,0.0
448,111.75,18.6864,19.3255,142.804,103.746,105.005,0.000860484,0.0476954,21.0016,439.987,-0.108942,0.0,0.0
450,112.25,19.1546,19.8892,145.168,103.724,105.312,0.000872632,0.0475434,21.0019,439.977,-0.137144,0.0,0.0
452,112.75,19.0685,19.7015,140.759,103.739,104.9,0.000877891,0.0474583,21.0021,439.987,-0.10051,0.0,0.0
454,113.25,19.3205,19.3372,144.289,103.729,104.736,0.000882151,0.0473128,21.0023,439.967,-0.0872236,0.0,0.0
456,113.75,18.996,19.8853,144.269,103.739,104.977,0.000872885,0.0470999,21.0025,439.987,-0.107104,0.0,0.0
458,114.25,19.2481,19.5758,144.447,103.737,104.83,0.000853935,0.0469275,21.0026,439.977,-0.0945883,0.0,0.0
460,114.75,19.1342,19.7216,140.649,103.75,105.077,0.000824606,0.0467878,21.0027,439.967,-0.114762,0.0,0.0
462,115.25,19.2762,19.6858,141.193,103.746,105.23,0.000788269,0.0466747,21.0028,439.957,-0.128215,0.0,0.0
464,115.75,18.7958,19.4226,142.94,103.75,104.728,0.000746771,0.0465831,21.0028,439.947,-0.0847324,0.0,0.0
466,116.25,18.4987,19.6374,142.867,103.747,104.663,0.0007023,0.0464946,21.0029,439.957,-0.0793941,0.0,0.0
468,116.75,19.4406,19.8215,144.546,103.748,104.537,0.000659932,0.04641,21.0029,439.957,-0.0684061,0.0,0.0
470,117.25,18.1319,19.421,142.379,103.763,104.997,0.000619902,0.0462916,21.0034,439.957,-0.106711,0.0,0.0
472,117.75,18.7212,19.5863,147.224,103.755,105.035,0.000587478,0.0461506,21.0038,439.957,-0.110725,0.0,0.0
474,118.25,19.137,19.5103,143.935,103.752,105.04,0.000553981,0.0460365,21.0039,439.957,-0.111423,0.0,0.0
476,118.75,19.3632,19.0581,143.656,103.765,104.858,0.000526848,0.0458762,21.0037,439.957,-0.0945867,0.0,0.0
478,119.25,18.3875,19.7399,145.483,103.759,104.855,0.000501699,0.0457463,21.0036,439.947,-0.0948956,0.0,0.0
480,119.75,18.7515,19.4603,144.23,103.773,104.751,0.000478473,0.0455869,21.0035,439.947,-0.084696,0.0,0.0
482,120.25,19.0224,19.7571,146.459,103.758,104.881,0.000459661,0.0454577,21.0034,439.937,-0.0971954,0.0,0.0
484,120.75,18.9858,19.9192,142.926,103.761,104.729,0.000439348,0.0453125,21.0034,439.937,-0.0838577,0.0,0.0
486,121.25,19.7021,19.6126,144.093,103.768,104.978,0.000418329,0.0451948,21.0033,439.947,-0.104729,0.0,0.0
488,121.75,19.2918,19.5711,142.339,103.763,104.51,0.000396231,0.045078,21.0033,439.947,-0.0647637,0.0,0.0
490,122.25,18.9635,19.8134,143.531,103.771,104.655,0.000373766,0.0449642,21.0033,439.947,-0.0765273,0.0,0.0
492,122.75,18.9854,19.8445,142.627,103.779,104.869,0.00035557,0.044872,21.0032,439.957,-0.0943082,0.0,0.0
494,123.25,19.4007,19.2003,140.91,103.761,104.785,0.000338422,0.0447566,21.0032,439.977,-0.0886768,0.0,0.0
496,123.75,18.9203,20.1208,142.783,103.764,105.011,0.000326434,0.0446632,21.0032,439.967,-0.107891,0.0,0.0
498,124.25,18.8169,20.1995,146.061,103.753,105.046,,0.0445518,,439.957,-0.111798,0.0,0.0
500,124.75,19.0955,19.0788,140.892,103.764,104.512,,0.0444295,,439.947,-0.0648119,0.0,0.0
502,125.25,18.8746,19.4453,141.042,103.767,104.411,,0.0443304,,439.947,-0.0558976,0.0,0.0
504,125.75,18.8386,19.5899,142.734,103.77,104.486,,0.0442773,,439.947,-0.0621399,0.0,0.0
506,126.25,19.5074,19.6713,146.479,103.765,104.595,,0.0442342,,439.937,-0.07193,0.0,0.0
508,126.75,18.8224,19.3522,141.109,103.753,104.892,,0.0441858,,439.937,-0.0985317,0.0,0.0
510,127.25,18.8273,19.3435,144.473,103.756,104.721,,,,439.947,-0.0835693,0.0,0.0
512,127.75,19.0902,19.286,144.654,103.761,104.725,,,,439.937,-0.083452,0.0,0.0
514,128.25,18.8807,19.8551,142.78,103.764,104.566,,,,439.957,-0.069482,0.0,0.0
516,128.75,18.9391,19.6116,145.538,103.759,105.116,,,,439.937,-0.117306,0.0,0.0
518,129.25,19.0863,19.3732,141.27,103.748,104.467,,,,439.937,-0.0623122,0.0,0.0
520,129.75,19.8743,19.8454,143.864,103.757,104.673,,,,439.927,-0.0794001,0.0,0.0
522,130.25,19.1601,19.6594,139.434,103.751,104.836,,,,439.947,-0.0940151,0.0,0.0
524,130.75,19.0109,19.8274,143.278,103.748,104.731,,,,439.937,-0.0851561,0.0,0.0
526,131.25,19.2188,19.762,142.219,103.754,104.875,,,,439.947,-0.0970007,0.0,0.0
528,131.75,19.06,19.7187,140.198,103.744,104.707,,,,439.937,-0.0834596,0.0,0.0
530,132.25,19.1844,19.8734,144.889,103.745,104.56,,,,439.927,-0.0706856,0.0,0.0
532,132.75,19.1205,19.6457,143.762,103.741,104.516,,,,439.927,-0.0671627,0.0,0.0
534,133.25,19.2644,19.4374,143.239,103.746,104.537,,,,439.927,-0.0685899,0.0,0.0
536,133.75,19.2482,19.9569,145.8,103.746,104.744,,,,439.927,-0.0864378,0.0,0.0
538,134.25,18.7285,19.2659,140.902,103.735,104.724,,,,439.927,-0.0856875,0.0,0.0
540,134.75,19.1515,18.6262,154.269,103.739,104.946,,,,439.927,-0.104438,0.0,0.0
541,135,19.4273,19.9462,144.77,103.735,105.029,,,,439.927,-0.111924,0.0,0.0