File: 01_Data/Fiberglass_Insulation_3/Cone/Fiberglass_Insulation_3_Cone_HF25Scan_220506_R2.csv
Names,Time,Stack TC,Smoke TC,Exh Press,Smoke Comp,Smoke Meas,CO Meter,CO2 Meter,O2 Meter,Sample Mass,Ext Coeff,Start Test,Flame Verif
Chan Gain,,500,500,1,1,1,1,1,1,1,1,1.0,1.0
Offset,,0,0,0.134207,0,0,0,0,0,0,0,0.0,0.0
Gain,,1,1,25.011,13.8443,15.4071,1,1,1,1.00079,1.02936,1.0,1.0
Units,sec,C,C,Pa,%,%,%,%,%,g,/m,,
Baseline,,19.0844,19.5815,144.07,104.905,104.934,0.000516916,0.0410834,21.0086,-444.227,-0.00252202,,
2,0.25,17.6842,19.1263,144.294,104.949,104.836,0.000438812,0.0451632,21.0043,446.072,0.00974795,0.0,0.0
4,0.75,16.8221,17.6862,141.968,104.95,105.015,0.000421428,0.045468,21.0036,446.302,-0.00563668,0.0,0.0
6,1.25,17.5112,17.9811,144.598,104.935,104.772,0.000410962,0.0457436,21.0031,446.052,0.0140532,0.0,0.0
8,1.75,17.0835,17.8578,144.023,104.923,104.59,0.000402485,0.0459925,21.0026,446.272,0.0287349,0.0,0.0
10,2.25,17.1566,18.1071,145.632,104.912,104.871,0.000395618,0.0461941,21.0022,446.142,0.00350729,0.0,0.0
12,2.75,17.3471,18.2809,145.5,104.906,104.654,0.000426351,0.0463302,21.002,446.192,0.0217213,0.0,0.0
14,3.25,17.2526,17.6268,145.929,104.891,104.672,0.000440701,0.0464405,21.002,446.142,0.0189064,0.0,0.0
16,3.75,17.3681,17.7362,143.755,104.876,104.393,0.000493834,0.0464484,21.002,446.102,0.0417225,0.0,0.0
18,4.25,17.3489,17.8523,141.804,104.878,104.136,0.000562606,0.0464548,21.0019,446.162,0.0640599,0.0,0.0
20,4.75,18.0299,18.0649,143.681,104.86,104.488,0.000698144,0.04646,21.0016,446.122,0.0321248,0.0,0.0
22,5.25,17.2381,17.781,144.126,104.851,103.995,0.000807929,0.0475102,21.0012,446.182,0.0740475,0.0,0.0
24,5.75,17.6568,18.0309,141.064,104.837,103.742,0.000896855,0.0487236,20.9914,446.082,0.0948013,0.0,0.0
26,6.25,17.741,17.4627,141.924,104.826,103.528,0.000934765,0.0521825,20.9827,446.062,0.11253,0.0,0.0
28,6.75,17.5715,17.6704,146.865,104.822,103.609,0.00120725,0.0580973,20.9679,445.962,0.10508,0.0,0.0
30,7.25,17.8463,17.8874,136.991,104.812,106.509,0.00142796,0.0678029,20.9323,445.832,-0.144992,0.0,1.0
32,7.75,17.2133,18.0756,127.272,104.792,107.554,0.00167094,0.0800876,20.9035,445.692,-0.234842,0.0,1.0
34,8.25,17.9411,18.1904,125.703,104.798,107.441,0.00192553,0.0900383,20.8723,445.461,-0.22493,0.0,1.0
36,8.75,17.9821,18.432,127.958,104.833,105.212,0.00223331,0.103535,20.847,445.622,-0.0325609,0.0,1.0
38,9.25,18.6157,17.9439,124.748,104.847,101.589,0.0024826,0.111864,20.8265,445.672,0.285033,0.0,1.0
40,9.75,19.5674,18.9872,127.785,104.877,97.8613,0.00276672,0.126106,20.8099,445.511,0.62521,0.0,1.0
42,10.25,19.1169,19.7912,130.329,104.912,97.1329,0.00299685,0.138611,20.7965,445.552,0.695609,0.0,1.0
44,10.75,19.6032,19.998,132.254,104.923,94.3047,0.00313312,0.149611,20.7908,445.481,0.963402,0.0,1.0
46,11.25,21.0558,19.5913,138.696,104.95,98.0047,0.00336616,0.157438,20.7915,445.501,0.618243,0.0,1.0
48,11.75,20.5265,19.806,140.32,104.966,102.029,0.00363867,0.162803,20.7964,445.431,0.25626,0.0,1.0
50,12.25,20.4352,20.0832,139.585,105.013,104.299,0.0038594,0.16586,20.8043,445.271,0.0616323,0.0,1.0
52,12.75,20.7596,20.1226,141.469,105.019,105.188,0.0040382,0.167176,20.8107,445.341,-0.0144649,0.0,0.0
54,13.25,21.1641,20.3939,139.103,105.045,105.501,0.00434738,0.166896,20.8192,445.431,-0.0391676,0.0,0.0
56,13.75,21.2784,20.9646,142.093,105.071,104.989,0.00459782,0.166138,20.8289,445.361,0.00709065,0.0,0.0
58,14.25,21.1937,20.8875,139.519,105.073,105.209,0.00475088,0.163625,20.833,445.371,-0.011673,0.0,0.0
60,14.75,20.8541,20.6297,139.081,105.095,104.916,0.00501262,0.160495,20.843,445.381,0.0153578,0.0,0.0
62,15.25,20.8719,21.0357,144.481,105.114,104.815,0.00522464,0.157959,20.8536,445.411,0.0257676,0.0,0.0
64,15.75,20.9994,20.6688,143.728,105.123,105.028,0.00543735,0.153523,20.8638,445.421,0.00816291,0.0,0.0
66,16.25,20.5031,20.5061,144.046,105.134,104.916,0.00560965,0.149931,20.8735,445.371,0.0187689,0.0,0.0
68,16.75,20.5839,20.6173,144.125,105.159,105.167,0.00570947,0.145828,20.8835,445.451,-0.000632942,0.0,0.0
70,17.25,20.7437,20.3616,145.036,105.185,104.911,0.00579032,0.143514,20.8934,445.461,0.0235316,0.0,0.0
72,17.75,20.5341,20.4264,144.62,105.199,105.875,0.00577892,0.139556,20.9021,445.371,-0.0578208,0.0,0.0
74,18.25,20.0679,20.0315,144.545,105.203,105.483,0.00576969,0.134684,20.9098,445.301,-0.0240663,0.0,0.0
76,18.75,20.7895,21.0305,140.643,105.21,105.259,0.0056657,0.130738,20.9174,445.211,-0.00415368,0.0,0.0
78,19.25,20.5402,20.3173,142.085,105.228,105.457,0.00558147,0.12602,20.9248,445.271,-0.0196316,0.0,0.0
80,19.75,20.2873,20.3404,143.366,105.227,105.036,0.00551324,0.1222,20.9308,445.241,0.0163947,0.0,0.0
82,20.25,20.068,20.8944,143.164,105.249,105.037,0.00535678,0.117937,20.9363,445.181,0.0181996,0.0,0.0
84,20.75,19.9889,20.2483,144.597,105.249,105.239,0.00523005,0.114484,20.9415,445.251,0.000798649,0.0,0.0
86,21.25,20.7531,20.4438,144.486,105.265,105.007,0.00507321,0.111097,20.9463,445.281,0.0221272,0.0,0.0
88,21.75,20.4257,20.3742,142.897,105.281,105.286,0.00494617,0.107821,20.9508,445.411,-0.000439718,0.0,0.0
90,22.25,19.6259,20.6907,142.065,105.299,105.316,0.00478793,0.1046,20.9554,445.321,-0.00138489,0.0,0.0
92,22.75,20.1473,20.3445,144.904,105.298,105.199,0.00465976,0.10148,20.96,445.351,0.00843284,0.0,0.0
94,23.25,19.92,20.3189,139.143,105.304,105.298,0.00449945,0.0989534,20.9637,445.341,0.000469296,0.0,0.0
96,23.75,20.1033,20.3611,142.852,105.291,105.702,0.00436961,0.0959275,20.9666,445.381,-0.0351091,0.0,0.0
98,24.25,20.066,20.0053,145.68,105.315,104.807,0.00426443,0.0934765,20.9699,445.331,0.0436016,0.0,0.0
100,24.75,19.8983,20.094,143.362,105.315,105.265,0.00412125,0.0907756,20.9726,445.301,0.00427335,0.0,0.0
102,25.25,19.7261,20.5406,141.145,105.326,105.345,0.00395307,0.0885879,20.9747,445.261,-0.00167879,0.0,0.0
104,25.75,20.0507,20.3783,141.873,105.335,105.096,0.00378019,0.0861151,20.9764,445.251,0.020467,0.0,0.0
106,26.25,19.7118,19.7027,146.301,105.335,105.119,0.00360715,0.0841121,20.9779,445.341,0.0185638,0.0,0.0
108,26.75,20.4515,20.5819,143.323,105.326,105.467,0.00346699,0.0824897,20.9793,445.291,-0.012034,0.0,0.0
110,27.25,19.8699,20.3174,143.801,105.332,105.079,0.00335347,0.0806554,20.9804,445.331,0.0216676,0.0,0.0
112,27.75,18.9706,20.2302,144.384,105.333,105.394,0.00315544,0.0787016,20.9815,445.241,-0.00521287,0.0,0.0
114,28.25,19.037,19.7776,146.931,105.329,105.617,0.00299503,0.0771189,20.9826,445.221,-0.0245768,0.0,0.0
116,28.75,20.2258,19.6676,144.07,105.329,105.046,0.00281279,0.0753304,20.984,445.251,0.0243153,0.0,0.0
118,29.25,19.0838,20.5159,143.398,105.348,105.223,0.00266518,0.0738817,20.9855,445.231,0.0106844,0.0,0.0
120,29.75,19.639,19.7073,143.272,105.318,105.285,0.00253026,0.0724132,20.987,445.291,0.00286491,0.0,0.0
122,30.25,19.8688,19.8369,141.948,105.327,105.381,0.00240716,0.0709581,20.9884,445.281,-0.00463291,0.0,0.0
124,30.75,19.5038,19.7329,141.087,105.325,105.132,0.00229409,0.0697795,20.9897,445.321,0.0165237,0.0,0.0
126,31.25,19.7211,19.8288,145.296,105.31,105.091,0.00220251,0.068566,20.991,445.261,0.0188065,0.0,0.0
128,31.75,19.7913,19.7049,144.707,105.309,105.18,0.00212104,0.0673501,20.9921,445.341,0.011065,0.0,0.0
130,32.25,19.6229,20.2722,147.753,105.307,105.294,0.00205505,0.0661857,20.993,445.321,0.00119795,0.0,0.0
132,32.75,19.4286,19.8716,140.987,105.288,105.397,0.00199067,0.0650809,20.9939,445.301,-0.00933447,0.0,0.0
134,33.25,19.6583,19.9268,144.557,105.282,105.347,0.00193852,0.0640281,20.9948,445.261,-0.00557206,0.0,0.0
136,33.75,19.057,20.0358,144.587,105.285,105.324,0.00189628,0.0630332,20.9956,445.291,-0.00330244,0.0,0.0
138,34.25,20.0123,19.2247,142.668,105.283,105.278,0.00184023,0.0620766,20.9962,445.321,0.000462838,0.0,0.0
140,34.75,19.431,19.5205,139.554,105.254,105.071,0.00179483,0.0611663,20.9968,445.321,0.0157232,0.0,0.0
142,35.25,19.4993,19.9878,146.128,105.251,105.211,0.00174221,0.0602381,20.9972,445.351,0.00347824,0.0,0.0
144,35.75,19.4531,19.9493,143.847,105.238,104.88,0.00169959,0.0594864,20.9977,445.371,0.0307711,0.0,0.0
146,36.25,19.1028,19.9405,147.38,105.224,105.554,0.00165486,0.0587556,20.9981,445.271,-0.0282478,0.0,0.0
148,36.75,18.955,19.5469,143.546,105.215,105.047,0.00160944,0.058054,20.9993,445.221,0.0144175,0.0,0.0
150,37.25,19.249,19.3871,143.582,105.208,105.139,0.00155289,0.0574857,21.0003,445.261,0.005915,0.0,0.0
152,37.75,19.5224,19.6863,141.165,105.19,105.211,0.0014893,0.0568682,21.0011,445.331,-0.00177946,0.0,0.0
154,38.25,18.9561,19.3355,144.69,105.179,105.117,0.00141486,0.0562265,21.0017,445.231,0.00531582,0.0,0.0
156,38.75,18.9406,19.6296,142.262,105.171,104.956,0.00133394,0.0556209,21.0022,445.091,0.0184864,0.0,0.0
158,39.25,19.4177,19.3403,143.779,105.153,105.055,0.00124868,0.0550529,21.0026,445.191,0.00847155,0.0,0.0
160,39.75,18.8788,19.6362,141.002,105.139,105.478,0.00116187,0.0545929,21.0034,445.201,-0.0290636,0.0,0.0
162,40.25,19.6951,19.8225,144.009,105.132,104.985,0.00109156,0.0540843,21.004,445.211,0.0126452,0.0,0.0
164,40.75,18.6764,19.6963,137.795,105.111,104.982,0.0010238,0.0536723,21.0045,445.151,0.0111102,0.0,0.0
166,41.25,19.2938,19.9826,142.379,105.1,105.08,0.00095919,0.0532163,21.0049,445.141,0.00175328,0.0,0.0
168,41.75,19.2028,19.5777,144.742,105.078,105.049,0.00091067,0.0528468,21.0053,445.281,0.00249259,0.0,0.0
170,42.25,18.9989,20.1429,145.94,105.064,105.065,0.0008748,0.0524525,21.0051,445.181,-0.000111407,0.0,0.0
172,42.75,18.9754,19.4808,143.281,105.042,104.777,0.000849558,0.052133,21.005,445.341,0.0227639,0.0,0.0
174,43.25,19.6762,19.7338,143.891,105.023,104.546,0.000832544,0.0517247,21.0048,445.331,0.0411235,0.0,0.0
176,43.75,19.4315,19.9383,149.959,105.016,104.808,0.000821305,0.0513941,21.0048,445.341,0.0179106,0.0,0.0
178,44.25,18.4673,19.809,142.619,104.998,104.943,0.000814491,0.0511262,21.0047,445.291,0.00473059,0.0,0.0
180,44.75,18.6888,19.8181,146.896,104.985,104.893,0.000812191,0.0508005,21.0046,445.231,0.00789298,0.0,0.0
182,45.25,19.0097,19.3285,145.843,104.973,104.44,0.000813227,0.050501,21.0046,445.261,0.0459825,0.0,0.0
184,45.75,18.6257,19.4501,145.593,104.961,105.033,0.000817246,0.0502262,21.0045,445.211,-0.00611437,0.0,0.0
186,46.25,18.4526,18.4587,141.101,104.939,104.557,0.000823362,0.0499822,21.0045,445.251,0.0329174,0.0,0.0
188,46.75,18.5633,19.0719,142.481,104.931,105.102,0.000828316,0.0497652,21.0043,445.221,-0.0147074,0.0,0.0
190,47.25,19.1784,19.5442,146.872,104.912,104.801,0.000832329,0.0495895,21.0042,445.271,0.00950494,0.0,0.0
192,47.75,18.7017,19.2422,143.262,104.897,104.699,0.00083558,0.0493649,21.004,445.301,0.0171038,0.0,0.0
194,48.25,18.8547,19.5544,146.818,104.88,104.538,0.000816472,0.0491829,21.0045,445.231,0.0294516,0.0,0.0
196,48.75,18.3533,19.0411,141.531,104.875,105.075,0.000800994,0.0489812,21.0049,445.181,-0.0171692,0.0,0.0
198,49.25,18.9931,19.9614,144.328,104.86,104.922,0.000786771,0.0488179,21.0051,445.111,-0.00537388,0.0,0.0
200,49.75,19.1117,19.7962,146.045,104.851,104.722,0.00076245,0.0486856,21.0054,445.101,0.0110758,0.0,0.0
202,50.25,18.4098,19.5179,143.954,104.846,104.462,0.000747578,0.0485284,21.0057,445.171,0.033163,0.0,0.0
204,50.75,18.6478,19.0107,146.836,104.82,104.391,0.000735532,0.048356,21.0058,445.201,0.0370091,0.0,0.0
206,51.25,18.3968,19.5765,147.212,104.808,104.658,0.000743886,0.0482164,21.006,445.211,0.0129559,0.0,0.0
208,51.75,18.8044,19.0519,139.399,104.798,104.691,0.000750654,0.0480218,21.0061,445.231,0.00923827,0.0,0.0
210,52.25,18.58,19.3542,140.051,104.792,104.687,0.000776673,0.0479389,21.0062,445.281,0.00902106,0.0,0.0
212,52.75,18.5636,19.5595,144.173,104.784,104.634,0.000797748,0.0477828,21.0063,445.181,0.0129097,0.0,0.0
214,53.25,18.2349,19.4265,139.323,104.756,104.573,0.000828113,0.0476435,21.0064,445.231,0.0157458,0.0,0.0
216,53.75,18.024,19.527,144.684,104.745,104.657,0.00085271,0.0474949,21.0064,445.291,0.00753485,0.0,0.0
218,54.25,18.4805,19.053,140.818,104.719,104.877,0.000874542,0.0473425,21.0065,445.101,-0.0136887,0.0,0.0
220,54.75,18.4912,19.2231,141.353,104.716,104.402,0.000893944,0.0471647,21.0065,445.191,0.0270759,0.0,0.0
222,55.25,19.0043,19.2154,143.216,104.707,104.513,0.00090966,0.0470207,21.0066,445.201,0.0167955,0.0,0.0
224,55.75,19.1096,19.0155,140.644,104.673,104.413,0.000905467,0.0468497,21.0066,445.201,0.0224193,0.0,0.0
226,56.25,18.9473,19.4801,147.689,104.653,104.503,0.000902072,0.0467113,21.0066,445.291,0.012944,0.0,0.0
228,56.75,18.8373,19.5099,143.798,104.658,104.671,0.000885969,0.0465634,21.0068,445.181,-0.0011066,0.0,0.0
230,57.25,18.9296,19.0723,140.854,104.633,104.269,0.00086091,0.0464115,21.0072,445.131,0.0314888,0.0,0.0
232,57.75,18.7062,19.3272,141.866,104.627,104.188,0.000822824,0.0462885,21.0076,445.201,0.0379438,0.0,0.0
234,58.25,18.827,19.6392,142.887,104.6,104.391,0.000775966,0.0461817,21.0078,445.061,0.0180643,0.0,0.0
236,58.75,18.3449,18.9706,139.704,104.583,104.568,0.000713262,0.0460888,21.0081,445.191,0.0012862,0.0,0.0
238,59.25,18.6334,19.1649,145.556,104.582,104.238,0.000640199,0.0459921,21.0082,445.091,0.029723,0.0,0.0
240,59.75,18.4656,19.4783,140.131,104.588,104.392,0.000558836,0.0458944,21.0084,445.071,0.0169986,0.0,0.0
242,60.25,18.5228,19.7131,143.256,104.553,104.568,0.000472968,0.0458083,21.0081,445.241,-0.00126378,0.0,0.0
244,60.75,18.3474,19.3859,141.811,104.56,104.563,0.000403415,0.045732,21.0078,445.341,-0.000237348,0.0,0.0
246,61.25,18.4992,19.0337,140.012,104.538,104.295,0.000328716,0.0456703,21.0076,445.251,0.020961,0.0,0.0
248,61.75,18.5791,19.5068,145.404,104.542,104.474,0.000251684,0.0455524,21.0074,445.251,0.0058666,0.0,0.0
250,62.25,18.8315,19.3598,143.704,104.512,104.406,0.000196885,0.0454569,21.0073,445.241,0.00917375,0.0,0.0
252,62.75,18.9152,18.9486,141.818,104.508,104.145,0.000159335,0.0453661,21.0072,445.211,0.0314416,0.0,0.0
254,63.25,18.4672,19.4525,141.256,104.473,104.532,0.000151722,0.0452924,21.0071,445.221,-0.00504055,0.0,0.0
256,63.75,18.3988,19.3752,143.502,104.474,104.614,0.000166079,0.0452185,21.007,445.141,-0.0120718,0.0,0.0
258,64.25,18.3968,19.0877,143.007,104.46,104.427,0.000203712,0.0451458,21.0069,445.141,0.00284984,0.0,0.0
260,64.75,18.5151,18.8689,144.056,104.46,104.251,0.000257598,0.0450584,21.0069,445.211,0.0181115,0.0,0.0
262,65.25,17.7784,18.9737,141.485,104.439,104.431,0.000301246,0.0449618,21.0068,445.121,0.000697477,0.0,0.0
264,65.75,19.1033,19.3431,141.995,104.444,104.235,0.000386077,0.0448694,21.0068,445.121,0.018104,0.0,0.0
266,66.25,18.438,19.3112,143.688,104.427,104.478,0.00045479,0.0447816,21.0068,445.151,-0.00442614,0.0,0.0
268,66.75,18.433,19.5945,139.103,104.426,104.402,0.000538231,0.0446749,21.0068,445.291,0.00209012,0.0,0.0
270,67.25,18.8449,19.5417,141.992,104.4,104.193,0.000605818,0.0445563,21.0072,445.291,0.0179311,0.0,0.0
272,67.75,18.9755,18.8282,144.058,104.398,104.384,0.000660564,0.0444531,21.0075,445.201,0.00126037,0.0,0.0
274,68.25,18.1975,19.2134,142.342,104.386,104.185,0.000720622,0.0443631,21.0078,445.161,0.0174584,0.0,0.0
276,68.75,18.6263,18.9315,142.087,104.391,104.138,0.000769269,0.0442902,21.008,445.181,0.0218588,0.0,0.0
278,69.25,18.5676,19.2221,144.793,104.387,104.083,0.0008074,0.0442169,21.0082,445.031,0.0263375,0.0,0.0
280,69.75,18.5952,18.9839,142.927,104.399,104.106,0.000837141,0.0441446,21.0084,445.251,0.0253265,0.0,0.0
282,70.25,18.9681,18.6081,144.696,104.391,104.273,0.000861232,0.0440861,21.0085,445.101,0.0102028,0.0,0.0
284,70.75,18.2101,19.147,143.929,104.396,104.269,0.000862937,0.043998,21.0086,445.131,0.011008,0.0,0.0
286,71.25,18.7844,18.8968,144.033,104.389,104.08,0.000848292,0.0439267,21.0085,445.091,0.0267657,0.0,0.0
288,71.75,18.5675,19.0291,142.861,104.397,104.41,0.000821179,0.0438618,21.0085,445.211,-0.00108938,0.0,0.0
290,72.25,17.8616,19.3103,143.501,104.403,104.107,0.000785493,0.0438028,21.0089,445.191,0.0256141,0.0,0.0
292,72.75,18.7526,19.3887,140.616,104.395,104.562,0.000756588,0.043755,21.0092,445.221,-0.0144374,0.0,0.0
294,73.25,17.8189,18.7865,145.764,104.397,104.393,0.000709045,0.0436949,21.0095,445.271,0.000337981,0.0,0.0
296,73.75,18.6079,18.2389,143.88,104.399,104.349,0.000670536,0.0436269,21.0097,445.191,0.0042669,0.0,0.0
298,74.25,18.1714,19.3875,144.53,104.388,104.2,0.000630903,0.0435719,21.0099,445.221,0.0162594,0.0,0.0
300,74.75,18.3702,18.8076,144.828,104.398,104.1,0.0005988,0.043473,21.01,445.151,0.0258599,0.0,0.0
302,75.25,17.9848,18.3707,137.674,104.402,104.761,0.000572797,0.043393,21.0101,445.281,-0.0310076,0.0,0.0
304,75.75,18.5153,19.4536,143.136,104.405,104.305,0.000562587,0.0433011,21.01,445.271,0.00867695,0.0,0.0
306,76.25,18.2098,18.9053,139.475,104.394,104.171,0.000554317,0.0432266,21.0097,445.281,0.0193758,0.0,0.0
308,76.75,18.5097,19.2582,142.546,104.418,104.505,0.000565714,0.0431527,21.0094,445.241,-0.00750505,0.0,0.0
310,77.25,18.3559,19.2245,141.245,104.399,104.555,0.000574946,0.0430929,21.0092,445.231,-0.0134585,0.0,0.0
312,77.75,18.3543,19.402,143.405,104.408,104.059,0.000590046,0.043023,21.009,445.251,0.0302862,0.0,0.0
314,78.25,18.1721,18.9481,143.998,104.411,104.398,0.000609139,0.0429472,21.0089,445.221,0.0011366,0.0,0.0
316,78.75,17.9152,18.9661,142.579,104.412,104.296,0.000624603,0.0428857,21.0088,445.221,0.010035,0.0,0.0
318,79.25,18.6487,19.256,140.645,104.413,104.147,0.000646788,0.0428288,21.0087,445.181,0.022984,0.0,0.0
320,79.75,18.4366,18.5824,140.195,104.406,104.516,0.000664758,0.0427763,21.0086,445.211,-0.0095031,0.0,0.0
322,80.25,18.7752,19.255,142.376,104.413,104.269,0.000685034,0.0427338,21.0086,445.211,0.0124647,0.0,0.0
324,80.75,18.8796,18.9631,144.097,104.424,104.3,0.000706606,0.0426993,21.0085,445.201,0.0107285,0.0,0.0
326,81.25,19.0445,19.5059,143.785,104.41,104.292,0.000738577,0.0426714,21.0085,445.191,0.0102587,0.0,0.0
328,81.75,17.9532,19.0453,142.766,104.418,104.382,0.000764473,0.0426895,21.0085,445.201,0.00309948,0.0,0.0
330,82.25,18.8243,18.9443,141.332,104.416,104.306,0.000785449,0.0427041,21.0084,445.271,0.00951354,0.0,0.0
332,82.75,18.559,19.2499,143.608,104.42,104.284,0.000818151,0.0426946,21.0084,445.241,0.011752,0.0,0.0
334,83.25,18.2533,19.1797,144.084,104.422,104.225,0.00084464,0.0426676,21.0084,445.241,0.0170641,0.0,0.0
336,83.75,19.1566,19.2826,142.04,104.42,104.594,0.000870933,0.0426243,21.0084,445.301,-0.0150783,0.0,0.0
338,84.25,18.5462,19.3828,144.112,104.424,103.97,0.00089223,0.04257,21.0084,445.241,0.0393886,0.0,0.0
340,84.75,18.779,19.1783,145.085,104.413,104.41,0.000914316,0.042526,21.0084,445.261,0.000262636,0.0,0.0
342,85.25,18.3585,18.7368,143.755,104.427,104.181,0.000932206,0.0425039,21.0084,445.311,0.0212564,0.0,0.0
344,85.75,18.5761,19.478,146.296,104.42,104.157,0.000940652,0.0424861,21.0084,445.201,0.0227865,0.0,0.0
346,86.25,18.7857,18.9664,141.054,104.426,104.364,0.000947494,0.0424851,21.0084,445.171,0.00534487,0.0,0.0
348,86.75,18.5326,19.2159,142.632,104.424,104.193,0.000944129,0.0424844,21.0083,445.231,0.0199805,0.0,0.0
350,87.25,17.917,19.0121,142.419,104.434,104.389,0.000933387,0.0424766,21.0083,445.031,0.0039183,0.0,0.0
352,87.75,18.3424,18.6265,142.893,104.439,104.547,0.000917056,0.0424639,21.0083,445.041,-0.0093377,0.0,0.0
354,88.25,18.1908,19.7275,145.72,104.433,104.255,0.00089696,0.0424465,21.0083,445.111,0.0153675,0.0,0.0
356,88.75,18.6175,19.3919,142.142,104.441,104.337,0.000880682,0.042426,21.0083,445.101,0.00901568,0.0,0.0
358,89.25,18.2691,19.244,142.3,104.444,104.168,0.000860505,0.0424165,21.0083,445.191,0.0238902,0.0,0.0
360,89.75,18.5386,19.231,142.156,104.443,104.288,0.000837868,0.0424152,21.0083,445.231,0.0133579,0.0,0.0
362,90.25,17.8643,18.7849,144.478,104.454,104.127,0.000814449,0.0424142,21.0083,445.151,0.0283132,0.0,0.0
364,90.75,18.3693,19.0573,144.526,104.45,104.134,0.000790905,0.0423727,21.0083,445.191,0.0274182,0.0,0.0
366,91.25,18.6573,19.2251,143.602,104.447,104.133,0.000771834,0.0423391,21.0083,445.201,0.0272025,0.0,0.0
368,91.75,18.4168,18.5171,142.51,104.453,104.076,0.000747937,0.0422848,21.0083,445.211,0.0326482,0.0,0.0
370,92.25,18.7788,18.9929,145.156,104.454,104.072,0.00072858,0.0422408,21.0083,445.161,0.0331255,0.0,0.0
372,92.75,18.1595,19.1344,143.011,104.449,104.314,0.000708074,0.0422052,21.0083,445.121,0.0117025,0.0,0.0
374,93.25,18.4022,18.961,139.707,104.472,104.041,0.000691464,0.0421492,21.0081,445.201,0.0372749,0.0,0.0
376,93.75,17.9015,19.1121,143.165,104.457,104.228,0.00067801,0.0421039,21.0077,445.161,0.0198881,0.0,0.0
378,94.25,18.7983,19.2128,143.771,104.468,104.385,0.000686426,0.0420943,21.0078,445.131,0.00720251,0.0,0.0
380,94.75,17.9821,19.1758,141.73,104.459,104.34,0.000693243,0.0420865,21.0082,445.121,0.0102275,0.0,0.0
382,95.25,18.9695,18.7053,141.733,104.484,104.277,0.000714464,0.0420666,21.0085,445.221,0.0179493,0.0,0.0
384,95.75,18.3496,18.9858,144.839,104.471,104.158,0.000731652,0.0420505,21.0088,445.181,0.0270512,0.0,0.0
386,96.25,18.4278,18.7604,143.825,104.484,104.073,0.000746211,0.0420375,21.009,445.201,0.0355232,0.0,0.0
388,96.75,17.9802,18.7761,145.99,104.468,104.337,0.000758576,0.0420134,21.0092,445.221,0.0113929,0.0,0.0
390,97.25,18.6442,19.0648,145.935,104.492,104.092,0.000768591,0.0419939,21.0093,445.171,0.0346622,0.0,0.0
392,97.75,17.3975,19.0776,140.699,104.478,104.353,0.000751264,0.041978,21.0094,444.991,0.01085,0.0,0.0
394,98.25,18.0433,19.1595,142.253,104.486,104.095,0.00073723,0.0419652,21.0095,445.151,0.033829,0.0,0.0
396,98.75,18.4487,19.3188,141.15,104.495,104.205,0.00071443,0.0419762,21.0096,445.181,0.0250935,0.0,0.0
398,99.25,18.0875,19.5696,144.641,104.495,104.45,0.000685673,0.0420044,21.0098,445.031,0.0038559,0.0,0.0
400,99.75,17.8026,18.793,140.209,104.492,104.437,0.0006573,0.0420272,21.01,445.071,0.00473382,0.0,0.0
402,100.25,18.495,18.5755,142.766,104.512,104.179,0.000629747,0.0420728,21.0102,445.051,0.0287992,0.0,0.0
404,100.75,18.4166,18.9633,144.353,104.499,104.038,0.000607429,0.0421098,21.0103,445.121,0.039933,0.0,0.0
406,101.25,18.0122,19.0085,145.363,104.52,103.937,0.000577294,0.0421115,21.0104,445.091,0.0504964,0.0,0.0
408,101.75,18.1533,18.3295,142.662,104.509,104.018,0.00054527,0.0420876,21.0105,445.101,0.0424874,0.0,0.0
410,102.25,17.8131,18.6092,144.415,104.524,104.226,0.000512479,0.042054,21.0105,445.111,0.0257826,0.0,0.0
412,102.75,17.779,18.6875,145.028,104.517,104.15,0.000485918,0.0420139,21.0106,445.111,0.0316829,0.0,0.0
414,103.25,18.1042,18.9791,146.846,104.531,104.235,0.000454258,0.0419815,21.0106,445.161,0.0255529,0.0,0.0
416,103.75,17.7715,18.5417,147.009,104.527,104.073,0.000419482,0.0419417,21.0106,445.161,0.0392825,0.0,0.0
418,104.25,17.9205,19.2617,135.587,104.542,104.303,0.000391948,0.0419094,21.0107,445.161,0.0206346,0.0,0.0
420,104.75,17.5288,18.2292,146.67,104.539,104.103,0.000370215,0.0418833,21.0107,445.181,0.0377358,0.0,0.0
422,105.25,18.3352,18.6876,142.73,104.551,104.425,0.000352612,0.0418621,21.0107,445.211,0.0109414,0.0,0.0
424,105.75,18.0177,18.6434,145.097,104.555,104.813,0.000362452,0.0418378,21.0107,445.191,-0.0222463,0.0,0.0
426,106.25,18.3644,19.0448,142.446,104.561,104.367,0.000386925,0.0418117,21.0107,445.111,0.0167461,0.0,0.0
428,106.75,17.938,18.9862,142.044,104.559,104.35,0.0004216,0.0417906,21.0112,445.171,0.0180245,0.0,0.0
430,107.25,17.7814,18.4348,142.871,104.57,104.24,0.00046112,0.0417464,21.0116,445.161,0.0284977,0.0,0.0
432,107.75,18.1186,18.708,142.92,104.574,104.301,0.000503421,0.0417106,21.0118,445.111,0.0235745,0.0,0.0
434,108.25,17.7944,18.657,144.951,104.582,104.526,0.000537684,0.041668,21.0121,445.151,0.00486722,0.0,0.0
436,108.75,17.615,18.2879,139.602,104.584,104.166,0.000575176,0.0416336,21.0123,445.121,0.0361804,0.0,0.0
438,109.25,18.2361,18.6477,140.162,104.595,104.217,0.000605545,0.0416056,21.0124,445.151,0.0326472,0.0,0.0
440,109.75,18.1443,19.016,142.515,104.597,104.224,0.000630143,0.041583,21.0126,445.161,0.0322954,0.0,0.0
442,110.25,17.871,18.7185,136.33,104.607,104.363,0.000634375,0.0415783,21.0126,445.191,0.0210802,0.0,0.0
444,110.75,18.0237,18.7573,143.357,104.6,104.308,0.000637802,0.0415744,21.0125,445.201,0.0251848,0.0,0.0
446,111.25,17.675,18.5182,140.784,104.621,104.784,0.000630417,0.0415638,21.0125,445.201,-0.0140525,0.0,0.0
448,111.75,17.6721,18.7721,140.501,104.621,104.561,0.00061529,0.0415484,21.0124,445.251,0.00513724,0.0,0.0
450,112.25,17.6771,17.905,149.092,104.634,104.204,0.000593517,0.0415573,21.0124,445.211,0.0372149,0.0,0.0
452,112.75,17.3336,18.1357,141.947,104.635,104.454,0.000567311,0.0415838,21.0124,445.201,0.0156028,0.0,0.0
454,113.25,18.0478,18.5249,138.914,104.642,104.089,0.000537203,0.0416052,21.0123,445.261,0.0478179,0.0,0.0
456,113.75,17.6388,18.5853,143.183,104.641,104.259,0.000504821,0.0416226,21.0123,445.281,0.0329968,0.0,0.0
458,114.25,17.5805,19.0416,138.632,104.67,104.498,0.000472885,0.0416367,21.0123,445.261,0.0148496,0.0,0.0
460,114.75,18.0989,18.4194,142.7,104.665,104.74,0.000441879,0.0416481,21.0123,445.241,-0.00648814,0.0,0.0
462,115.25,17.7548,18.1545,147.777,104.659,104.455,0.000410424,0.0416302,21.0123,445.201,0.0176356,0.0,0.0
464,115.75,18.4084,18.4327,143.564,104.677,104.426,0.00037924,0.0416158,21.0123,445.171,0.021687,0.0,0.0
466,116.25,17.6797,18.2418,142.088,104.674,104.497,0.000343213,0.041604,21.0123,445.141,0.0152536,0.0,0.0
468,116.75,17.8227,18.4986,142.837,104.701,104.411,0.000333522,0.0415945,21.0123,445.241,0.0250238,0.0,0.0
470,117.25,18.5628,19.1854,141.225,104.703,104.269,0.000303643,0.0415869,21.0123,445.251,0.0375386,0.0,0.0
472,117.75,17.7958,18.3504,141.115,104.708,104.312,0.000267465,0.0415806,21.0119,445.171,0.0341946,0.0,0.0
474,118.25,18.4349,18.3939,143.301,104.719,104.321,0.000238161,0.0415756,21.0116,445.191,0.0343694,0.0,0.0
476,118.75,17.688,18.4797,142.842,104.711,104.531,0.000215629,0.0415715,21.0113,445.181,0.0155771,0.0,0.0
478,119.25,18.1194,18.6754,141.266,104.731,104.503,0.000197378,0.0415668,21.0111,445.231,0.0196884,0.0,0.0
480,119.75,18.1805,19.0189,142.513,104.731,104.512,0.000192223,0.0415512,21.011,445.201,0.0188764,0.0,0.0
482,120.25,18.0493,18.8498,142.825,104.735,104.655,0.000188048,0.0415247,21.0108,445.231,0.00690028,0.0,0.0
484,120.75,17.9027,18.4587,143.933,104.752,104.41,0.000196707,0.0415032,21.0107,445.121,0.0295943,0.0,0.0
486,121.25,18.0523,19.0608,142.313,104.754,104.553,0.000203721,0.0414858,21.0102,445.221,0.0173466,0.0,0.0
488,121.75,18.2062,18.6938,144.223,104.744,104.722,0.000217009,0.0414717,21.0098,445.231,0.00190609,0.0,0.0
490,122.25,17.8305,18.54,145.024,104.757,104.555,0.00023462,0.0414738,21.0094,445.181,0.0174025,0.0,0.0
492,122.75,17.693,18.9494,141.818,104.772,104.371,0.000252689,0.0414755,21.0092,445.201,0.0345635,0.0,0.0
494,123.25,18.2085,18.7295,144.422,104.769,104.445,0.00027075,0.0414697,21.0089,445.121,0.0279655,0.0,0.0
496,123.75,17.6392,18.888,143.913,104.792,104.547,0.00028538,0.0414587,21.0088,445.191,0.0211146,0.0,0.0
498,124.25,18.1036,18.5184,143.123,104.792,104.307,,0.0414569,,445.211,0.0418896,0.0,0.0
500,124.75,17.8547,18.1496,143.149,104.821,104.481,,0.0414618,,445.071,0.0293539,0.0,0.0
502,125.25,18.1795,18.9678,144.325,104.816,104.524,,0.0414586,,445.111,0.0251794,0.0,0.0
504,125.75,17.8843,18.7229,142.694,104.828,104.335,,0.0414497,,444.991,0.0425785,0.0,0.0
506,126.25,17.8367,18.8407,142.798,104.826,104.743,,0.0414424,,445.061,0.00710464,0.0,0.0
508,126.75,17.5179,18.7759,148.619,104.854,104.332,,0.0413553,,445.081,0.0450829,0.0,0.0
510,127.25,18.007,18.3018,140.72,104.847,104.355,,,,445.061,0.0425431,0.0,0.0
512,127.75,17.8378,18.7114,142.649,104.862,104.249,,,,445.081,0.0528981,0.0,0.0
514,128.25,18.3305,18.6039,147.164,104.856,104.525,,,,445.041,0.0285149,0.0,0.0
516,128.75,18.7224,19.0124,142.675,104.877,104.494,,,,445.101,0.033015,0.0,0.0
518,129.25,18.3414,18.5328,140.976,104.88,104.683,,,,445.161,0.0170286,0.0,0.0
520,129.75,18.2448,18.9237,147.921,104.888,104.643,,,,445.191,0.0211672,0.0,0.0
522,130.25,17.675,18.7021,143.042,104.892,104.418,,,,445.151,0.0408717,0.0,0.0
524,130.75,17.9221,18.7727,144.52,104.91,104.308,,,,445.131,0.0518782,0.0,0.0
526,131.25,18.0499,18.5587,143.739,104.902,104.472,,,,445.201,0.0371474,0.0,0.0
528,131.75,18.3999,18.4302,145.621,104.921,104.664,,,,445.191,0.0221788,0.0,0.0
530,132.25,18.2094,18.9672,142.369,104.917,104.499,,,,445.121,0.0360635,0.0,0.0
532,132.75,17.97,18.4167,135.68,104.937,104.885,,,,445.131,0.00447884,0.0,0.0
534,133.25,18.1702,19.3441,144.761,104.918,104.723,,,,445.131,0.0168138,0.0,0.0
536,133.75,18.0753,18.7102,142.604,104.946,104.775,,,,445.091,0.014755,0.0,0.0
538,134.25,18.186,18.7693,145.922,104.935,104.539,,,,445.141,0.0340971,0.0,0.0
540,134.75,17.7384,18.2809,140.398,104.959,104.745,,,,445.121,0.0183994,0.0,0.0
541,135,18.1275,18.6986,142.743,104.956,104.562,,,,445.141,0.033962,0.0,0.0