File: 01_Data/Fiberglass_Insulation_3/Cone/Fiberglass_Insulation_3_Cone_HF50Scan_220509_R1.csv
Names,Time,Stack TC,Smoke TC,Exh Press,Smoke Comp,Smoke Meas,CO Meter,CO2 Meter,O2 Meter,Sample Mass,Ext Coeff,Start Test,Flame Verif
Chan Gain,,500,500,1,1,1,1,1,1,1,1,1.0,1.0
Offset,,0,0,0.134207,0,0,0,0,0,0,0,0.0,0.0
Gain,,1,1,25.011,13.8443,15.4071,1,1,1,1.00079,1.02936,1.0,1.0
Units,sec,C,C,Pa,%,%,%,%,%,g,/m,,
Baseline,,30.7676,31.8475,138.102,105.191,106.218,0.000533658,0.0415305,21.004,-445.528,-0.0876833,,
2,0.25,30.5082,31.8879,138.631,104.138,104.711,0.000844535,0.0516647,20.9872,437.865,-0.0496179,0.0,0.0
4,0.75,28.6493,30.1635,139.133,104.124,104.975,0.00108316,0.0539614,20.984,437.996,-0.0735039,0.0,0.0
6,1.25,28.5902,29.832,139.139,104.114,104.572,0.00138587,0.0615895,20.9526,437.905,-0.0396201,0.0,0.0
8,1.75,29.1179,29.9066,146.995,104.091,104.532,0.00177347,0.0729593,20.9271,437.605,-0.0381472,0.0,0.0
10,2.25,28.7344,30.435,124.39,104.062,106.031,0.00221559,0.0916775,20.857,437.775,-0.169273,0.0,0.0
12,2.75,28.7673,30.445,123.099,104.058,105.708,0.0025737,0.115397,20.8003,437.485,-0.142016,0.0,1.0
14,3.25,28.9073,30.2978,108.349,104.031,99.5384,0.00313755,0.142165,20.7543,437.495,0.398582,0.0,1.0
16,3.75,29.4241,30.5253,120.589,104.011,84.2357,0.00359427,0.170647,20.7171,437.415,1.90414,0.0,1.0
18,4.25,30.4173,30.4127,110.699,103.992,66.2401,0.00402619,0.196006,20.6869,437.295,4.07255,0.0,1.0
20,4.75,31.3238,31.3148,116.523,103.985,69.7134,0.00443183,0.218606,20.6625,437.225,3.61047,0.0,1.0
22,5.25,31.2612,32.3305,122.047,103.949,85.2583,0.00479899,0.236912,20.6427,437.225,1.78978,0.0,1.0
24,5.75,32.7684,32.4983,131.783,103.944,99.7462,0.00513112,0.248876,20.6285,437.165,0.372193,0.0,1.0
26,6.25,33.4102,33.5586,128.063,103.914,103.551,0.00540015,0.258566,20.6187,437.155,0.031566,0.0,1.0
28,6.75,34.1,33.3806,136.082,103.91,104.409,0.00571522,0.263583,20.6231,437.105,-0.0432361,0.0,1.0
30,7.25,34.231,33.7365,134.586,103.887,105.813,0.00597042,0.265097,20.6379,437.175,-0.165792,0.0,1.0
32,7.75,34.2009,34.2173,133.803,103.879,105.127,0.00626079,0.263487,20.6564,437.185,-0.107796,0.0,1.0
34,8.25,34.1741,34.0813,130.609,103.845,106.033,0.00649598,0.259631,20.6771,437.105,-0.18826,0.0,1.0
36,8.75,34.1818,34.1818,130.987,103.846,105.73,0.00677158,0.256508,20.6939,437.125,-0.162327,0.0,1.0
38,9.25,34.62,34.5212,136.088,103.826,105.634,0.00688906,0.248865,20.7011,437.105,-0.155858,0.0,0.0
40,9.75,34.1234,34.9124,135.369,103.816,105.304,0.00708997,0.242675,20.7217,437.135,-0.128519,0.0,0.0
42,10.25,34.6431,34.4575,133.802,103.792,105.752,0.00725271,0.234461,20.7383,437.065,-0.168921,0.0,0.0
44,10.75,34.7213,34.856,134.58,103.785,105.242,0.00749868,0.227807,20.7547,437.005,-0.125878,0.0,0.0
46,11.25,34.8252,34.6411,137.001,103.759,105.416,0.00769792,0.219455,20.7705,436.935,-0.143071,0.0,0.0
48,11.75,34.363,35.4825,137.345,103.752,105.171,0.00788695,0.212689,20.7856,436.925,-0.122693,0.0,0.0
50,12.25,34.3785,34.9084,138.126,103.729,104.74,0.00804007,0.209805,20.8,436.925,-0.0875442,0.0,0.0
52,12.75,34.0606,34.8511,134.489,103.735,105.357,0.00815404,0.204873,20.8137,436.915,-0.140171,0.0,0.0
54,13.25,34.7358,35.1355,136.151,103.711,105.384,0.00824635,0.196419,20.8266,436.995,-0.144527,0.0,0.0
56,13.75,34.8433,34.8284,133.159,103.706,105.635,0.00827339,0.189572,20.8394,436.945,-0.166416,0.0,0.0
58,14.25,34.1458,34.8182,137.832,103.681,104.984,0.0082953,0.182733,20.8518,436.905,-0.112751,0.0,0.0
60,14.75,34.6137,35.2199,135.731,103.69,105.099,0.00826948,0.17603,20.8619,436.845,-0.12188,0.0,0.0
62,15.25,33.9006,34.0952,137.843,103.659,104.911,0.00820936,0.169607,20.8722,436.875,-0.108356,0.0,0.0
64,15.75,33.9041,34.7888,140.144,103.66,104.764,0.00812049,0.163511,20.8806,436.845,-0.0956484,0.0,0.0
66,16.25,34.118,34.371,134.608,103.648,104.633,0.00801234,0.157608,20.8888,436.925,-0.0853653,0.0,0.0
68,16.75,33.9405,34.7968,140.002,103.639,104.666,0.00792474,0.151957,20.8966,436.845,-0.0890524,0.0,0.0
70,17.25,34.0449,34.4836,135.654,103.622,104.687,0.00785378,0.146559,20.903,436.935,-0.0923087,0.0,0.0
72,17.75,33.6453,34.0257,139.59,103.62,104.992,0.00768271,0.141448,20.9091,436.875,-0.118778,0.0,0.0
74,18.25,33.851,34.5637,138.689,103.609,104.515,0.00754414,0.137308,20.9148,436.895,-0.0786769,0.0,0.0
76,18.75,33.6025,34.1117,138.625,103.606,104.426,0.00736092,0.132416,20.9202,436.835,-0.071176,0.0,0.0
78,19.25,34.1014,33.9426,136.659,103.598,104.552,0.0072125,0.128453,20.9252,436.885,-0.0827605,0.0,0.0
80,19.75,33.3778,34.3153,136.014,103.589,104.095,0.00702765,0.124496,20.9299,436.865,-0.0440181,0.0,0.0
82,20.25,33.3803,34.3523,137.235,103.576,104.057,0.00687792,0.120617,20.9343,436.815,-0.0418604,0.0,0.0
84,20.75,33.4694,34.4818,137.463,103.586,103.759,0.00669954,0.117474,20.9383,436.855,-0.0151085,0.0,0.0
86,21.25,33.3467,34.5313,137.021,103.567,104.001,0.00655505,0.113832,20.942,436.805,-0.0378137,0.0,0.0
88,21.75,33.2502,34.1654,139.136,103.578,103.661,0.00638721,0.110882,20.9453,436.825,-0.00721149,0.0,0.0
90,22.25,33.1826,34.0229,137.158,103.583,104.038,0.00625125,0.107813,20.9481,436.815,-0.0395606,0.0,0.0
92,22.75,33.2365,34.5663,133.163,103.578,104.48,0.00609657,0.105327,20.9506,436.695,-0.0782404,0.0,0.0
94,23.25,33.2749,34.4175,134.602,103.573,104.176,0.00597127,0.102691,20.9528,436.835,-0.0524308,0.0,0.0
96,23.75,32.8369,33.8002,136.569,103.578,103.59,0.0058327,0.100556,20.9547,436.775,-0.0011066,0.0,0.0
98,24.25,32.9714,34.1309,139.322,103.564,104.174,0.0056871,0.098315,20.9566,436.735,-0.053082,0.0,0.0
100,24.75,32.6381,34.1005,136.937,103.569,105.115,0.00554253,0.0965,20.9581,436.674,-0.133859,0.0,0.0
102,25.25,32.8612,34.4012,141.352,103.552,104.309,0.00540146,0.0945881,20.9594,436.785,-0.0657248,0.0,0.0
104,25.75,32.6524,33.8303,137.407,103.572,104.413,0.0052872,0.0930395,20.9604,436.745,-0.0729836,0.0,0.0
106,26.25,32.6491,34.1656,137.126,103.578,104.124,0.00512688,0.0914804,20.9614,436.654,-0.0474633,0.0,0.0
108,26.75,33.1127,34.3651,135.424,103.58,104.913,0.00499703,0.0899432,20.9625,436.765,-0.115444,0.0,0.0
110,27.25,32.8976,34.1995,140.177,103.569,104.302,0.00486401,0.0886982,20.9633,436.715,-0.0637132,0.0,0.0
112,27.75,32.5751,34.0586,135.986,103.583,104.75,0.00473122,0.087139,20.9645,436.815,-0.101093,0.0,0.0
114,28.25,32.7079,34.1807,138.895,103.588,104.903,0.0046049,0.085876,20.9654,436.695,-0.113894,0.0,0.0
116,28.75,32.4357,33.5133,138.271,103.596,104.52,0.0044857,0.0843305,20.9666,436.745,-0.0801461,0.0,0.0
118,29.25,32.5757,33.5363,138.497,103.607,104.536,0.00437494,0.0830787,20.9675,436.745,-0.0805702,0.0,0.0
120,29.75,32.9156,33.7352,136.666,103.609,104.558,0.00427244,0.0817762,20.9687,436.735,-0.0823314,0.0,0.0
122,30.25,33.035,33.7437,139.735,103.618,104.661,0.00418941,0.0807212,20.9697,436.835,-0.0904505,0.0,0.0
124,30.75,32.4364,33.5304,138.34,103.626,104.608,0.00411311,0.0796571,20.9705,436.815,-0.0851295,0.0,0.0
126,31.25,32.6316,33.1217,142.372,103.629,104.834,0.00404318,0.0786067,20.9712,436.614,-0.104331,0.0,0.0
128,31.75,32.0522,33.5051,137.929,103.646,104.403,0.00397427,0.0775465,20.9717,436.564,-0.0657227,0.0,0.0
130,32.25,31.8543,33.3311,140.618,103.652,104.661,0.00391845,0.0764993,20.9721,436.755,-0.0874649,0.0,0.0
132,32.75,31.7661,33.8198,138.184,103.671,104.746,0.00387324,0.0756512,20.9729,436.875,-0.093188,0.0,0.0
134,33.25,32.1144,33.0919,138.268,103.675,105.408,0.00382307,0.0745394,20.9735,436.815,-0.149746,0.0,0.0
136,33.75,31.984,33.5041,142.733,103.69,104.576,0.00377024,0.0736388,20.9753,436.755,-0.076848,0.0,0.0
138,34.25,32.4521,33.4578,134.54,103.699,105.012,0.00371263,0.0727508,20.9767,436.735,-0.113635,0.0,0.0
140,34.75,32.2348,33.365,139.451,103.712,104.729,0.00365261,0.0718889,20.9779,436.805,-0.0881611,0.0,0.0
142,35.25,32.0984,33.6438,134.489,103.724,104.25,0.00362703,0.0711907,20.9784,436.795,-0.0456867,0.0,0.0
144,35.75,32.2733,33.0844,137.741,103.721,104.692,0.00351924,0.0703948,20.9792,436.835,-0.0841114,0.0,0.0
146,36.25,31.683,33.3427,139.792,103.746,105.262,0.00346415,0.0695428,20.9802,436.845,-0.130955,0.0,0.0
148,36.75,33.021,33.1244,133.35,103.753,104.869,0.00336697,0.0687159,20.9809,436.815,-0.0966248,0.0,0.0
150,37.25,31.7553,32.9833,136.722,103.773,105.083,0.00328825,0.0679231,20.9817,436.765,-0.113339,0.0,0.0
152,37.75,31.6889,32.6874,137.869,103.788,104.649,0.00322449,0.06713,20.9823,436.775,-0.0746071,0.0,0.0
154,38.25,32.2718,33.7153,132.448,103.8,105.108,0.00308987,0.0667203,20.9831,436.805,-0.113051,0.0,0.0
156,38.75,32.0197,33.6209,138.647,103.814,105.016,0.00298083,0.0660198,20.9839,436.755,-0.103957,0.0,0.0
158,39.25,31.7436,32.7633,139.446,103.839,105.262,0.00284865,0.064951,20.9848,436.725,-0.122872,0.0,0.0
160,39.75,31.4716,32.9922,140.96,103.844,105.019,0.00279231,0.0643273,20.9853,436.725,-0.101592,0.0,0.0
162,40.25,32.1371,33.2482,138.855,103.863,105.316,0.00268122,0.0636712,20.9861,436.685,-0.125412,0.0,0.0
164,40.75,31.7838,33.3524,137.713,103.871,105.695,0.00257799,0.063004,20.9868,436.735,-0.157151,0.0,0.0
166,41.25,31.9843,33.5181,135.646,103.904,104.971,0.00248733,0.0624636,20.9873,436.735,-0.0922158,0.0,0.0
168,41.75,32.0675,32.8427,137.308,103.921,104.77,0.00240755,0.0617395,20.9882,436.704,-0.07346,0.0,0.0
170,42.25,31.5356,33.2379,135.533,103.939,104.974,0.00233718,0.0611529,20.9889,436.644,-0.0894883,0.0,0.0
172,42.75,32.017,33.3065,140.496,103.951,104.977,0.00227499,0.0608096,20.9895,436.695,-0.0887035,0.0,0.0
174,43.25,31.2166,32.9099,137.651,103.97,105,0.00221567,0.0602225,20.99,436.715,-0.0889932,0.0,0.0
176,43.75,31.5921,32.7619,137.565,103.978,105.767,0.00215955,0.0596681,20.9904,436.695,-0.154004,0.0,0.0
178,44.25,32.2556,33.2692,134.378,104.016,105.006,0.0021141,0.059148,20.9907,436.745,-0.0854837,0.0,0.0
180,44.75,32.0169,33.5028,133.953,104.024,104.788,0.00204814,0.058612,20.9912,436.785,-0.0661206,0.0,0.0
182,45.25,31.7075,32.6899,138.729,104.039,104.93,0.00199471,0.0580747,20.9918,436.745,-0.0769506,0.0,0.0
184,45.75,31.3678,33.1541,133.144,104.057,104.826,0.00194185,0.0575319,20.9922,436.775,-0.066505,0.0,0.0
186,46.25,31.5929,32.9025,137.906,104.082,105.295,0.0018904,0.0569955,20.9926,436.795,-0.104595,0.0,0.0
188,46.75,31.7555,33.0947,135.464,104.111,105.458,0.00183788,0.056561,20.9929,436.765,-0.116121,0.0,0.0
190,47.25,31.5169,32.5878,137.421,104.118,105.263,0.00178557,0.0560322,20.9932,436.785,-0.0987379,0.0,0.0
192,47.75,30.5953,32.9239,138.577,104.14,105.155,0.00173937,0.0556038,20.9934,436.755,-0.0875888,0.0,0.0
194,48.25,31.0849,33.0112,134.561,104.155,105.509,0.0016985,0.0551709,20.9938,436.745,-0.116624,0.0,0.0
196,48.75,31.7787,32.6623,137.017,104.166,105.244,0.0016654,0.0547429,20.9943,436.735,-0.0929444,0.0,0.0
198,49.25,31.3993,32.358,137.855,104.188,105.847,0.00163858,0.0543962,20.9948,436.735,-0.14265,0.0,0.0
200,49.75,31.4504,33.0195,135.04,104.209,105.445,0.00161686,0.0539657,20.9951,436.795,-0.106536,0.0,0.0
202,50.25,31.577,33.1923,137.997,104.244,105.034,0.00159684,0.0535455,20.9954,436.785,-0.0682396,0.0,0.0
204,50.75,31.7389,33.1112,140.65,104.244,105.401,0.00158063,0.0531407,20.9956,436.835,-0.0996352,0.0,0.0
206,51.25,31.4651,33.031,135.929,104.264,105.187,0.0015675,0.0528129,20.9958,436.795,-0.0796466,0.0,0.0
208,51.75,31.3957,32.431,138.634,104.274,106.082,0.0015411,0.0524249,20.996,436.755,-0.155293,0.0,0.0
210,52.25,31.7712,32.6816,139.249,104.321,105.357,0.00151972,0.0521107,20.9961,436.725,-0.0892709,0.0,0.0
212,52.75,31.0222,32.5678,134.552,104.313,104.965,0.00148301,0.0517339,20.9962,436.755,-0.0562556,0.0,0.0
214,53.25,31.6211,32.7582,138.077,104.346,105.474,0.00145328,0.0514286,20.9963,436.755,-0.0971013,0.0,0.0
216,53.75,31.6732,33.0561,135.822,104.348,104.966,0.00141588,0.051117,20.9965,436.715,-0.0533782,0.0,0.0
218,54.25,31.5509,32.6806,140.716,104.386,105.303,0.00138559,0.0508067,20.997,436.715,-0.0790423,0.0,0.0
220,54.75,31.0434,32.373,138.845,104.392,105.342,0.00136226,0.0505553,20.9974,436.725,-0.081803,0.0,0.0
222,55.25,31.082,32.5572,137.946,104.421,105.292,0.00134336,0.0502566,20.9977,436.715,-0.0750016,0.0,0.0
224,55.75,31.1463,32.3753,136.543,104.426,105.816,0.00132805,0.0500147,20.9979,436.695,-0.119414,0.0,0.0
226,56.25,30.9073,32.4529,142,104.463,105.998,0.00131693,0.0497543,20.9981,436.685,-0.13175,0.0,0.0
228,56.75,31.0761,31.8941,139.953,104.477,105.199,0.00130907,0.0494856,20.9984,436.704,-0.0621974,0.0,0.0
230,57.25,30.8833,32.9057,138.423,104.506,105.911,0.0013027,0.0492393,20.9986,436.674,-0.120613,0.0,0.0
232,57.75,31.4208,32.2221,135.856,104.518,105.371,0.0012927,0.0490141,20.9988,436.695,-0.0733743,0.0,0.0
234,58.25,31.1815,32.4496,133.786,104.541,105.646,0.0012846,0.0488317,20.9989,436.664,-0.0949435,0.0,0.0
236,58.75,31.2906,32.9349,138.161,104.55,105.797,0.00127803,0.048641,20.999,436.695,-0.106994,0.0,0.0
238,59.25,30.7622,32.62,137.372,104.58,105.885,0.00126303,0.048448,20.9991,436.674,-0.111946,0.0,0.0
240,59.75,30.9486,32.2423,140.289,104.596,105.974,0.00125088,0.0482917,20.9992,436.654,-0.118171,0.0,0.0
242,60.25,30.6831,32.5456,136.973,104.651,105.653,0.00122894,0.0480836,20.9995,436.634,-0.0860265,0.0,0.0
244,60.75,30.8518,32.5552,136.904,104.634,105.646,0.00121116,0.047915,21,436.644,-0.086922,0.0,0.0
246,61.25,30.6367,32.5295,140.51,104.666,105.265,0.00118346,0.0477356,21.0003,436.685,-0.051542,0.0,0.0
248,61.75,31.1234,32.4035,137.919,104.67,105.974,0.00116102,0.0475517,21.0006,436.735,-0.111831,0.0,0.0
250,62.25,31.0498,32.1993,138.726,104.705,106.211,0.00113437,0.0474028,21.0011,436.725,-0.128975,0.0,0.0
252,62.75,30.6441,32.5923,133.553,104.713,105.799,0.00111279,0.0471871,21.0017,436.685,-0.0931216,0.0,0.0
254,63.25,31.213,32.355,143.538,104.737,105.654,0.00109531,0.0470125,21.0021,436.704,-0.0786731,0.0,0.0
256,63.75,30.2607,32.3925,136.742,104.749,105.696,0.00108115,0.0468167,21.0025,436.695,-0.0812735,0.0,0.0
258,64.25,30.5021,32.3288,136.548,104.785,106.156,0.00106847,0.0466581,21.0028,436.695,-0.117376,0.0,0.0
260,64.75,30.7924,32.0189,139.851,104.798,105.733,0.0010582,0.046489,21.0031,436.674,-0.0802189,0.0,0.0
262,65.25,30.6882,32.1039,137.022,104.821,105.475,0.00104543,0.046352,21.0033,436.704,-0.0561825,0.0,0.0
264,65.75,30.7403,32.2625,136.512,104.841,105.815,0.00103108,0.0462139,21.0035,436.715,-0.0834943,0.0,0.0
266,66.25,30.5675,32.2785,135.836,104.864,106.042,0.00101436,0.046102,21.0036,436.695,-0.100884,0.0,0.0
268,66.75,30.6768,32.0966,136.38,104.88,105.9,0.000996236,0.04593,21.0037,436.674,-0.0874388,0.0,0.0
270,67.25,30.5667,32.4187,135.809,104.896,106.153,0.000981558,0.0457907,21.0038,436.685,-0.107527,0.0,0.0
272,67.75,30.7778,32.247,138.897,104.915,105.53,0.000964833,0.0456492,21.0039,436.654,-0.0528141,0.0,0.0
274,68.25,30.698,32.3009,136.549,104.94,106.152,0.000951286,0.045509,21.0039,436.674,-0.103662,0.0,0.0
276,68.75,30.2744,31.9924,139.532,104.957,105.891,0.00094273,0.0454025,21.004,436.674,-0.0799827,0.0,0.0
278,69.25,30.7496,32.1831,136.816,104.98,105.816,0.000935799,0.0453227,21.004,436.735,-0.0716067,0.0,0.0
280,69.75,30.4306,31.9741,136.717,104.99,105.796,0.000932731,0.0452581,21.004,436.664,-0.0690861,0.0,0.0
282,70.25,31.3033,31.9321,139.046,105.007,106.255,0.000932535,0.0451515,21.0041,436.704,-0.106714,0.0,0.0
284,70.75,30.403,32.2387,137.273,105.032,106.079,0.000938421,0.0450651,21.0041,436.725,-0.0895753,0.0,0.0
286,71.25,30.8208,32.2182,141.633,105.045,106.564,0.000943189,0.0449409,21.0041,436.674,-0.129622,0.0,0.0
288,71.75,30.6144,32.1621,138.006,105.065,106.46,0.00094705,0.0448403,21.0041,436.634,-0.119106,0.0,0.0
290,72.25,29.9281,32.0723,138.611,105.087,106.09,0.000942926,0.0447802,21.0041,436.634,-0.0857793,0.0,0.0
292,72.75,30.5526,31.9771,135.233,105.108,105.928,0.000939585,0.0447509,21.0041,436.644,-0.0701508,0.0,0.0
294,73.25,30.2134,32.419,139.302,105.112,105.832,0.000922377,0.0447056,21.0041,436.664,-0.0616441,0.0,0.0
296,73.75,30.6343,32.4806,136.477,105.128,106.022,0.000908438,0.0446497,21.0041,436.634,-0.0764936,0.0,0.0
298,74.25,30.7779,31.431,134.029,105.141,106.177,0.000881444,0.0445545,21.0041,436.644,-0.0884572,0.0,0.0
300,74.75,30.3404,31.9123,136.1,105.181,105.906,0.000859579,0.0444324,21.0041,436.715,-0.0620223,0.0,0.0
302,75.25,30.591,32.5605,137.333,105.187,106.671,0.000828587,0.0443335,21.0041,436.674,-0.126504,0.0,0.0
304,75.75,30.4489,32.0061,136.833,105.199,106.144,0.000803482,0.0441856,21.0042,436.674,-0.0807646,0.0,0.0
306,76.25,30.5124,31.8833,137.929,105.22,106.135,0.000777112,0.0440658,21.0042,436.685,-0.0781514,0.0,0.0
308,76.75,30.4444,32.2371,139.35,105.221,106.148,0.000755752,0.0439688,21.0042,436.725,-0.0791628,0.0,0.0
310,77.25,30.2404,32.1875,136.181,105.239,106.055,0.000742073,0.0438902,21.0042,436.654,-0.069718,0.0,0.0
312,77.75,30.6761,32.1594,137.233,105.259,106.091,0.000730992,0.0438265,21.0042,436.654,-0.0710957,0.0,0.0
314,78.25,30.4734,32.4505,140.257,105.269,106.224,0.000722017,0.0437749,21.0042,436.644,-0.0815081,0.0,0.0
316,78.75,30.6015,32.0368,136.891,105.286,106.63,0.000714748,0.0436925,21.0042,436.664,-0.114485,0.0,0.0
318,79.25,30.1324,31.6105,134.15,105.291,106.5,0.000729201,0.0436257,21.0044,436.644,-0.103166,0.0,0.0
320,79.75,30.1873,31.9743,137.203,105.316,107.084,0.000759216,0.0435445,21.005,436.624,-0.150329,0.0,0.0
322,80.25,30.3341,31.6947,135.395,105.324,106.529,0.00078989,0.0434787,21.0054,436.614,-0.102773,0.0,0.0
324,80.75,30.5469,31.8082,136.091,105.344,106.882,0.00082046,0.0434255,21.0057,436.554,-0.130878,0.0,0.0
326,81.25,30.2471,31.5251,137.152,105.345,106.128,0.00084395,0.0433823,21.006,436.524,-0.0668623,0.0,0.0
328,81.75,30.6927,31.6822,137.11,105.364,106.283,0.000861831,0.0433474,21.0062,436.494,-0.0784646,0.0,0.0
330,82.25,30.4906,32.1662,138.174,105.367,106.485,0.000869318,0.043319,21.0064,436.614,-0.09526,0.0,0.0
332,82.75,30.3258,31.9565,133.984,105.382,106.361,0.000869086,0.0432961,21.0065,436.464,-0.0835362,0.0,0.0
334,83.25,30.7355,31.9816,135.761,105.385,106.259,0.00085936,0.0432369,21.0066,436.644,-0.0745811,0.0,0.0
336,83.75,30.2173,31.8302,134.546,105.411,106.258,0.000842898,0.0431889,21.0067,436.584,-0.0723293,0.0,0.0
338,84.25,30.6525,32.0037,137.85,105.417,106.462,0.000829565,0.0431229,21.0068,436.574,-0.0890703,0.0,0.0
340,84.75,30.0431,31.9173,136.938,105.433,106.849,0.000804275,0.0430695,21.0068,436.564,-0.120531,0.0,0.0
342,85.25,30.2736,31.7121,136.707,105.446,106.47,0.00078379,0.0429991,21.0069,436.624,-0.0873279,0.0,0.0
344,85.75,30.4415,31.9011,135.26,105.461,106.351,0.000768468,0.0429421,21.0069,436.584,-0.0758515,0.0,0.0
346,86.25,30.2497,31.7318,141.14,105.455,106.667,0.000757201,0.0428823,21.007,436.594,-0.103188,0.0,0.0
348,86.75,30.4085,31.8442,135.543,105.483,106.52,0.000753159,0.0428339,21.007,436.564,-0.0883339,0.0,0.0
350,87.25,30.407,32.2205,140.389,105.48,106.248,0.000754461,0.0427812,21.007,436.594,-0.0655562,0.0,0.0
352,87.75,30.6905,32.0553,134.682,105.508,106.377,0.000753609,0.0427385,21.007,436.634,-0.0741122,0.0,0.0
354,88.25,30.2763,31.7092,132.014,105.506,106.422,0.000751202,0.0427038,21.0073,436.614,-0.0781232,0.0,0.0
356,88.75,30.0319,31.555,137.925,105.521,106.43,0.000749253,0.0426758,21.0077,436.574,-0.077424,0.0,0.0
358,89.25,30.1673,31.1062,141.716,105.529,106.348,0.000731981,0.0426531,21.008,436.584,-0.0697939,0.0,0.0
360,89.75,30.2045,31.9316,137.958,105.542,106.39,0.00071799,0.0426076,21.0083,436.564,-0.0723369,0.0,0.0
362,90.25,30.2333,32.1101,135.915,105.529,106.944,0.00069586,0.0425708,21.0085,436.574,-0.120233,0.0,0.0
364,90.75,29.6773,31.8686,139.953,105.546,106.398,0.000668219,0.042568,21.0087,436.584,-0.0725783,0.0,0.0
366,91.25,29.9056,31.6224,133.96,105.549,106.365,0.00064075,0.0425658,21.0088,436.584,-0.0695677,0.0,0.0
368,91.75,30.3943,31.4861,139.077,105.565,106.398,0.00061393,0.0425775,21.0087,436.614,-0.0709519,0.0,0.0
370,92.25,30.1976,31.7971,139.892,105.558,107.027,0.000592206,0.0425871,21.0084,436.614,-0.124762,0.0,0.0
372,92.75,30.1189,31.6645,136.948,105.581,106.441,0.000576513,0.0425876,21.0081,436.654,-0.0732489,0.0,0.0
374,93.25,30.0952,32.0745,133.448,105.569,106.438,0.000565516,0.0425817,21.008,436.644,-0.0740938,0.0,0.0
376,93.75,30.0518,31.8481,132.761,105.583,106.542,0.000564863,0.0425769,21.0078,436.664,-0.0816004,0.0,0.0
378,94.25,30.1435,31.7339,136.739,105.576,106.562,0.000571763,0.0425459,21.0077,436.634,-0.083924,0.0,0.0
380,94.75,29.9025,31.7982,132.725,105.599,106.499,0.000577351,0.0425208,21.0076,436.594,-0.0765967,0.0,0.0
382,95.25,30.3796,31.9547,138.462,105.583,107.195,0.000597568,0.0425004,21.0075,436.614,-0.136781,0.0,0.0
384,95.75,30.3055,31.8746,138.651,105.602,106.903,0.000613944,0.0424839,21.0074,436.614,-0.110562,0.0,0.0
386,96.25,30.6385,31.823,135.315,105.588,106.801,0.000626,0.0424706,21.0073,436.584,-0.103169,0.0,0.0
388,96.75,30.3472,31.8352,139.349,105.594,106.458,0.000633577,0.0424327,21.0073,436.564,-0.0736011,0.0,0.0
390,97.25,30.6364,31.8287,136.688,105.607,106.906,0.000631608,0.042402,21.0075,436.564,-0.110371,0.0,0.0
392,97.75,29.7786,31.9862,137.009,105.61,106.358,0.000628239,0.0423771,21.0079,436.584,-0.0638059,0.0,0.0
394,98.25,30.6893,31.9986,134.276,105.597,106.834,0.000611033,0.0423569,21.0082,436.604,-0.105196,0.0,0.0
396,98.75,30.0598,31.8726,137.956,105.602,106.701,0.000597096,0.0423542,21.0084,436.594,-0.0935056,0.0,0.0
398,99.25,30.0075,31.5894,138.128,105.603,106.53,0.000585806,0.0423519,21.0086,436.614,-0.0789017,0.0,0.0
400,99.75,29.8646,30.9989,136.407,105.599,106.936,0.000557368,0.0423687,21.0085,436.574,-0.113598,0.0,0.0
402,100.25,30.2685,31.9248,136.547,105.601,106.972,0.000534332,0.0423732,21.0082,436.554,-0.116507,0.0,0.0
404,100.75,30.1148,31.8495,135.155,105.601,106.747,0.000510598,0.0423809,21.008,436.564,-0.0974403,0.0,0.0
406,101.25,30.5626,31.7336,133.827,105.596,107.238,0.000486805,0.0423871,21.0079,436.584,-0.139304,0.0,0.0
408,101.75,29.9769,30.9966,137.378,105.602,106.844,0.000467533,0.0423779,21.0077,436.604,-0.105593,0.0,0.0
410,102.25,30.1345,31.6317,137.538,105.591,106.632,0.000452557,0.0423576,21.0076,436.584,-0.0885219,0.0,0.0
412,102.75,29.848,31.8802,140.282,105.597,106.35,0.000440998,0.0423411,21.0071,436.614,-0.0641317,0.0,0.0
414,103.25,30.3702,31.7335,138.222,105.59,106.353,0.000436711,0.042335,21.0066,436.664,-0.0649887,0.0,0.0
416,103.75,30.4666,32.5651,136.455,105.6,106.228,0.000437806,0.0423364,21.0063,436.614,-0.0534973,0.0,0.0
418,104.25,30.2155,31.0371,135.62,105.586,107.387,0.000450753,0.0423375,21.006,436.644,-0.152712,0.0,0.0
420,104.75,30.3045,32.0779,136.278,105.588,107.15,0.000472095,0.0423384,21.0058,436.554,-0.132656,0.0,0.0
422,105.25,30.2507,31.1035,134.765,105.569,106.827,0.00050272,0.042285,21.0056,436.574,-0.106984,0.0,0.0
424,105.75,29.7948,31.3658,137.485,105.585,106.934,0.00053953,0.0422417,21.0054,436.604,-0.114625,0.0,0.0
426,106.25,29.8177,31.3727,140.934,105.579,107.127,0.000569347,0.0422066,21.0053,436.614,-0.131437,0.0,0.0
428,106.75,30.3808,31.9512,138.925,105.564,106.964,0.000603667,0.0421782,21.0052,436.644,-0.118975,0.0,0.0
430,107.25,29.8653,31.4274,139.621,105.562,106.642,0.000640619,0.0421823,21.0052,436.584,-0.0918868,0.0,0.0
432,107.75,30.225,31.7581,140.969,105.554,106.845,0.00067055,0.0421856,21.0051,436.604,-0.109759,0.0,0.0
434,108.25,30.5568,31.4505,136.294,105.546,106.46,0.000694794,0.0421747,21.005,436.574,-0.0778403,0.0,0.0
436,108.75,30.4626,31.4809,134.38,105.55,106.569,0.000709346,0.0421659,21.005,436.614,-0.0867617,0.0,0.0
438,109.25,29.7149,31.5067,138.535,105.539,107.2,0.000716557,0.0421317,21.005,436.584,-0.140975,0.0,0.0
440,109.75,29.7755,30.8285,136.308,105.529,107.154,0.000722398,0.042104,21.0049,436.524,-0.137961,0.0,0.0
442,110.25,29.628,31.2357,135.256,105.531,106.273,0.000700572,0.0420672,21.0049,436.544,-0.0632227,0.0,0.0
444,110.75,30.5549,31.5519,140.858,105.512,106.495,0.000682894,0.0420247,21.0049,436.554,-0.0836866,0.0,0.0
446,111.25,29.6251,31.3361,139.746,105.504,106.169,0.000645724,0.0419902,21.0049,436.604,-0.0566639,0.0,0.0
448,111.75,30.4611,31.6971,136.99,105.495,107.367,0.000595053,0.0419893,21.0049,436.634,-0.158856,0.0,0.0
450,112.25,30.0503,30.9741,137.233,105.492,107.04,0.000545764,0.0419887,21.0049,436.715,-0.131549,0.0,0.0
452,112.75,29.8386,31.6095,138.048,105.479,106.593,0.00049842,0.0419475,21.0048,436.614,-0.0948679,0.0,0.0
454,113.25,30.338,31.4345,136.555,105.481,106.42,0.000460072,0.0419141,21.0048,436.685,-0.0799811,0.0,0.0
456,113.75,29.9954,31.4407,141.153,105.447,106.378,0.000419373,0.0419013,21.0048,436.664,-0.0793605,0.0,0.0
458,114.25,29.9225,31.8856,135.862,105.45,106.904,0.000386407,0.0419038,21.0048,436.664,-0.123696,0.0,0.0
460,114.75,30.8201,31.7255,134.545,105.434,106.814,0.000360909,0.0419058,21.0048,436.644,-0.117443,0.0,0.0
462,115.25,29.8921,31.8387,137.033,105.429,106.489,0.000340255,0.0419075,21.0048,436.614,-0.090333,0.0,0.0
464,115.75,30.8385,31.5263,135.607,105.411,106.569,0.000329866,0.0419088,21.0048,436.604,-0.098665,0.0,0.0
466,116.25,30.4251,31.3309,138.506,105.419,106.999,0.000327157,0.0418557,21.0048,436.604,-0.134356,0.0,0.0
468,116.75,29.8283,31.7827,133.572,105.4,105.882,0.00033638,0.0418127,21.0048,436.634,-0.0412133,0.0,0.0
470,117.25,29.7594,31.5156,140.055,105.395,106.305,0.000354127,0.0417921,21.0048,436.644,-0.0776232,0.0,0.0
472,117.75,30.4755,31.6033,133.821,105.375,106.103,0.000379291,0.0417882,21.0048,436.674,-0.0621356,0.0,0.0
474,118.25,29.8354,31.5734,139.677,105.365,106.225,0.000409385,0.0417922,21.0048,436.685,-0.0734378,0.0,0.0
476,118.75,30.1087,31.7127,136.858,105.363,105.97,0.000443286,0.0418019,21.0048,436.634,-0.0518575,0.0,0.0
478,119.25,30.1048,31.9941,138.203,105.351,106.828,0.000479318,0.0418097,21.0048,436.654,-0.125766,0.0,0.0
480,119.75,30.3234,31.3868,135.921,105.318,106.225,0.000508505,0.0418161,21.0048,436.654,-0.0774212,0.0,0.0
482,120.25,30.008,31.7624,134.237,105.329,106.091,0.000545424,0.0418355,21.0048,436.604,-0.0650819,0.0,0.0
484,120.75,30.2711,31.74,135.405,105.311,105.958,0.000575328,0.041864,21.0048,436.604,-0.0552711,0.0,0.0
486,121.25,30.2857,31.2712,138.653,105.306,106.184,0.000603364,0.0418872,21.0048,436.574,-0.0749175,0.0,0.0
488,121.75,30.2369,31.4492,133.95,105.291,106.662,0.000617122,0.0419059,21.0048,436.564,-0.11683,0.0,0.0
490,122.25,30.0312,31.7719,137.219,105.265,106.242,0.000640648,0.0419211,21.0048,436.654,-0.0834286,0.0,0.0
492,122.75,30.5264,32.0338,138.935,105.261,105.814,0.000666696,0.0419063,21.0048,436.624,-0.0473167,0.0,0.0
494,123.25,30.3995,31.556,134.828,105.253,106.411,0.000694089,0.0418943,21.0048,436.624,-0.0988146,0.0,0.0
496,123.75,30.3768,31.6068,133.995,105.224,106.022,,0.0418703,,436.584,-0.0682233,0.0,0.0
498,124.25,29.9675,31.7925,138.883,105.215,106.112,,0.041838,,436.594,-0.076663,0.0,0.0
500,124.75,30.3207,31.4893,137.53,105.194,106.302,,0.0418119,,436.614,-0.0945894,0.0,0.0
502,125.25,30.4349,31.1785,141.043,105.196,106.472,,0.0418008,,436.624,-0.108818,0.0,0.0
504,125.75,29.7772,31.6655,141.421,105.177,106.492,,0.0417817,,436.564,-0.112164,0.0,0.0
506,126.25,30.271,32.1495,136.498,105.163,106.284,,0.0417592,,436.524,-0.0957555,0.0,0.0
508,126.75,30.1002,31.5541,137.761,105.147,105.898,,,,436.544,-0.0642428,0.0,0.0
510,127.25,30.3052,31.4243,137.306,105.136,106.295,,,,436.544,-0.0990034,0.0,0.0
512,127.75,29.7833,31.4973,132.78,105.111,105.832,,,,436.584,-0.0617129,0.0,0.0
514,128.25,30.2949,31.6286,137.012,105.114,106.173,,,,436.604,-0.090532,0.0,0.0
516,128.75,30.2569,31.1237,138.344,105.092,106.265,,,,436.634,-0.100217,0.0,0.0
518,129.25,29.8287,31.5113,140.178,105.087,106.512,,,,436.664,-0.12168,0.0,0.0
520,129.75,30.6453,31.6094,138.024,105.06,106.095,,,,436.695,-0.0884665,0.0,0.0
522,130.25,29.6596,31.7204,133.933,105.058,106.1,,,,436.644,-0.0890883,0.0,0.0
524,130.75,30.2118,31.2214,136.083,105.037,106.039,,,,436.695,-0.0857,0.0,0.0
526,131.25,30.5686,31.1648,140.062,105.035,106.713,,,,436.604,-0.143118,0.0,0.0
528,131.75,29.7052,31.9315,138.811,105.008,106.211,,,,436.644,-0.102812,0.0,0.0
530,132.25,30.2799,31.6991,138.731,105.013,106.493,,,,436.644,-0.126361,0.0,0.0
532,132.75,30.0444,31.6142,138.659,104.991,106.328,,,,436.634,-0.114286,0.0,0.0
534,133.25,29.9394,31.2734,139.096,104.987,106.335,,,,436.614,-0.115176,0.0,0.0
536,133.75,29.9282,31.5399,139.984,104.965,105.827,,,,436.644,-0.0738783,0.0,0.0
538,134.25,30.3242,31.5363,137.998,104.97,105.653,,,,436.654,-0.0585862,0.0,0.0