File: 01_Data/Coaxial_Cable/MCC/Coaxial_Cable_MCC_30K_min_220201_R4.txt
Sample ID:	C:\MCC\MCC Cal\Test\Coaxial_Cable\Coaxial_Cable_MCC_30K_min_220201_R4.txt
Sample Weight (mg):	4.39
Heating Rate (C/s):	0.5
Combustor Temp (C):	900
N2 Flow Rate (cc/min):	80
O2 Flow Rate (cc/min):	20
Calibration File:	C:\MCC\MCC Cal\Coeff1 JN10440_30_210304.txt.txt
T Correction Coefficients:	0	1.024463	0
Time Shift (s):	14
*
Time (s)	Temperature (C)	N2 flow rate (cc/min)	O2 flow rate (cc/min)	Flow Rate (cc/min)	Oxygen (%)	HRR (W/g)	Heating rate (C/s)
0.000	115.580	80.008	19.994	103.786	20.049	0.058	0.008
2.000	115.565	80.007	19.995	103.783	20.052	-0.104	-0.041
4.000	115.597	80.009	19.994	103.781	20.051	-0.058	0.059
6.000	115.536	80.009	19.995	103.781	20.055	-0.389	-0.031
8.000	115.522	80.009	19.994	103.786	20.053	-0.191	-0.017
10.000	115.499	80.009	19.995	103.787	20.055	-0.353	-0.029
12.000	115.500	80.008	19.994	103.785	20.053	-0.181	-0.042
14.000	115.488	80.008	19.995	103.792	20.054	-0.265	-0.016
16.000	115.508	80.007	19.995	103.787	20.050	0.026	0.004
18.000	115.503	80.008	19.994	103.815	20.047	0.205	0.003
20.000	115.535	80.008	19.994	103.827	20.045	0.346	0.010
22.000	115.548	80.010	19.994	103.865	20.038	0.865	0.016
24.000	115.636	80.010	19.993	103.916	20.035	1.148	0.053
26.000	115.697	80.009	19.993	103.948	20.032	1.373	0.051
28.000	115.838	80.010	19.993	103.976	20.025	1.852	0.068
30.000	115.993	80.012	19.993	103.978	20.027	1.727	0.076
32.000	116.176	80.010	19.993	103.978	20.020	2.216	0.074
34.000	116.448	80.012	19.995	103.978	20.025	1.874	0.134
36.000	116.740	80.009	19.994	103.982	20.022	2.068	0.143
38.000	117.030	80.008	19.994	103.980	20.016	2.532	0.155
40.001	117.379	80.008	19.995	103.984	20.020	2.241	0.178
42.000	117.715	80.007	19.995	103.999	20.020	2.250	0.170
44.000	118.135	80.009	19.994	103.990	20.021	2.156	0.217
46.000	118.535	80.008	19.994	103.998	20.019	2.274	0.211
48.001	119.008	80.007	19.993	104.009	20.020	2.230	0.249
50.000	119.457	80.009	19.993	104.004	20.018	2.397	0.275
52.000	119.871	80.007	19.994	104.011	20.021	2.188	0.216
54.000	120.435	80.008	19.993	104.003	20.019	2.323	0.282
56.000	120.971	80.008	19.994	104.007	20.019	2.266	0.249
58.000	121.546	80.008	19.993	103.996	20.016	2.488	0.279
60.001	122.061	80.007	19.994	104.014	20.016	2.508	0.288
62.000	122.651	80.008	19.995	104.004	20.020	2.210	0.265
64.001	123.236	80.007	19.992	104.000	20.018	2.410	0.271
66.000	123.858	80.008	19.994	103.993	20.018	2.357	0.304
68.000	124.482	80.007	19.994	103.994	20.020	2.223	0.309
70.000	125.120	80.008	19.993	104.005	20.022	2.096	0.312
72.001	125.687	80.006	19.995	104.010	20.019	2.291	0.302
74.000	126.358	80.008	19.995	104.011	20.020	2.215	0.328
76.000	127.057	80.006	19.995	104.020	20.018	2.404	0.378
78.000	127.720	80.006	19.995	104.019	20.021	2.190	0.344
80.000	128.458	80.008	19.995	104.013	20.018	2.383	0.363
82.000	129.148	80.008	19.995	104.018	20.022	2.052	0.367
84.000	129.908	80.009	19.995	104.018	20.019	2.325	0.350
86.000	130.668	80.008	19.994	104.016	20.019	2.329	0.394
88.000	131.425	80.010	19.995	104.017	20.018	2.358	0.355
90.000	132.163	80.008	19.995	104.017	20.017	2.468	0.387
92.000	132.922	80.009	19.994	104.018	20.015	2.607	0.382
94.000	133.708	80.008	19.994	104.020	20.019	2.331	0.390
96.000	134.559	80.009	19.995	104.028	20.017	2.486	0.422
98.000	135.375	80.007	19.996	104.031	20.015	2.627	0.411
100.001	136.218	80.008	19.995	104.025	20.016	2.549	0.420
102.000	137.115	80.008	19.995	104.028	20.019	2.321	0.425
104.000	137.969	80.008	19.994	104.026	20.016	2.527	0.417
106.001	138.825	80.009	19.994	104.025	20.015	2.577	0.426
108.000	139.682	80.009	19.994	104.019	20.019	2.305	0.442
110.000	140.620	80.009	19.995	104.027	20.019	2.272	0.477
112.000	141.511	80.010	19.995	104.030	20.018	2.366	0.473
114.000	142.460	80.010	19.994	104.020	20.020	2.213	0.499
116.000	143.385	80.009	19.994	104.034	20.018	2.374	0.468
118.000	144.284	80.009	19.994	104.031	20.021	2.150	0.444
120.000	145.265	80.008	19.994	104.042	20.019	2.285	0.490
122.000	146.216	80.007	19.993	104.046	20.022	2.114	0.465
124.001	147.152	80.010	19.994	104.030	20.020	2.207	0.490
126.000	148.152	80.009	19.994	104.024	20.021	2.156	0.486
128.000	149.119	80.008	19.994	104.018	20.022	2.114	0.497
130.000	150.100	80.006	19.994	104.020	20.020	2.215	0.479
132.000	151.076	80.006	19.994	104.023	20.018	2.349	0.504
134.000	152.016	80.007	19.993	104.023	20.020	2.247	0.486
136.000	153.012	80.007	19.993	104.023	20.021	2.150	0.481
138.000	154.006	80.005	19.993	104.024	20.023	2.031	0.463
140.000	155.006	80.005	19.993	104.023	20.021	2.166	0.492
142.000	156.000	80.008	19.992	104.021	20.021	2.166	0.467
144.000	156.973	80.006	19.994	104.021	20.022	2.094	0.526
146.000	157.966	80.009	19.993	104.017	20.020	2.227	0.481
148.000	159.021	80.007	19.993	104.016	20.023	1.997	0.510
150.000	160.024	80.008	19.994	104.016	20.024	1.959	0.523
152.000	161.049	80.007	19.993	104.014	20.021	2.136	0.508
154.000	162.053	80.008	19.994	104.005	20.020	2.206	0.493
156.000	163.054	80.008	19.994	104.015	20.018	2.349	0.506
158.000	164.101	80.007	19.994	104.014	20.023	1.999	0.491
160.000	165.136	80.008	19.994	104.015	20.019	2.315	0.519
162.000	166.210	80.008	19.993	104.008	20.017	2.480	0.535
164.000	167.244	80.009	19.994	103.998	20.018	2.379	0.511
166.000	168.207	80.008	19.995	103.988	20.014	2.652	0.502
168.000	169.207	80.008	19.994	104.002	20.016	2.512	0.505
170.000	170.227	80.008	19.994	103.991	20.018	2.375	0.483
172.000	171.260	80.008	19.994	104.002	20.017	2.415	0.489
174.000	172.276	80.010	19.994	103.991	20.020	2.254	0.500
176.000	173.284	80.009	19.995	103.981	20.019	2.310	0.508
178.000	174.298	80.007	19.993	103.987	20.015	2.568	0.491
180.000	175.310	80.008	19.996	103.984	20.018	2.401	0.483
182.000	176.332	80.006	19.995	103.985	20.018	2.365	0.525
184.000	177.327	80.009	19.994	103.984	20.019	2.304	0.506
186.000	178.341	80.009	19.994	103.984	20.019	2.318	0.533
188.000	179.319	80.009	19.993	103.983	20.015	2.610	0.483
190.000	180.339	80.009	19.994	103.984	20.013	2.722	0.488
192.000	181.356	80.009	19.994	103.985	20.017	2.479	0.547
194.000	182.321	80.009	19.995	103.975	20.013	2.742	0.505
196.000	183.342	80.009	19.994	103.979	20.014	2.642	0.517
198.000	184.341	80.008	19.995	103.975	20.014	2.706	0.521
200.000	185.277	80.008	19.996	103.970	20.012	2.782	0.469
202.000	186.272	80.006	19.995	103.964	20.013	2.768	0.472
204.000	187.273	80.006	19.995	103.963	20.011	2.867	0.491
206.000	188.290	80.006	19.994	103.961	20.014	2.700	0.509
208.000	189.222	80.006	19.995	103.966	20.010	2.961	0.474
210.000	190.179	80.007	19.994	103.964	20.010	2.943	0.494
212.000	191.156	80.009	19.994	103.957	20.008	3.087	0.478
214.000	192.075	80.007	19.994	103.950	20.007	3.158	0.447
216.000	193.060	80.008	19.994	103.965	20.007	3.160	0.517
218.000	193.974	80.010	19.994	103.951	20.008	3.136	0.450
220.000	194.962	80.008	19.994	103.943	20.005	3.337	0.499
222.000	195.864	80.008	19.993	103.948	20.005	3.333	0.477
224.000	196.793	80.008	19.994	103.951	20.002	3.570	0.459
226.000	197.735	80.008	19.994	103.953	19.999	3.781	0.490
228.000	198.691	80.008	19.994	103.965	19.998	3.888	0.472
230.000	199.626	80.007	19.993	103.973	19.996	4.019	0.503
232.000	200.580	80.008	19.994	103.953	19.992	4.326	0.484
234.000	201.542	80.007	19.994	103.952	19.990	4.446	0.531
236.000	202.508	80.008	19.995	103.958	19.990	4.453	0.500
238.000	203.406	80.008	19.994	103.962	19.986	4.724	0.472
240.000	204.345	80.007	19.994	103.954	19.987	4.666	0.486
242.000	205.315	80.008	19.994	103.962	19.985	4.847	0.494
244.000	206.279	80.008	19.995	103.943	19.984	4.853	0.515
246.000	207.253	80.009	19.993	103.946	19.983	4.966	0.491
248.000	208.164	80.008	19.994	103.962	19.976	5.494	0.467
250.000	209.141	80.008	19.994	103.951	19.974	5.595	0.488
252.000	210.042	80.008	19.993	103.958	19.974	5.624	0.481
254.000	211.029	80.008	19.994	103.966	19.971	5.845	0.479
256.000	211.999	80.007	19.994	103.975	19.968	6.063	0.482
258.000	212.941	80.008	19.993	103.965	19.966	6.225	0.466
260.000	213.908	80.008	19.994	103.963	19.961	6.571	0.487
262.000	214.811	80.007	19.994	103.952	19.958	6.804	0.446
264.000	215.816	80.007	19.993	103.948	19.954	7.073	0.474
266.000	216.798	80.006	19.993	103.954	19.951	7.340	0.474
268.000	217.750	80.008	19.995	103.957	19.951	7.344	0.491
270.000	218.699	80.009	19.995	103.946	19.948	7.542	0.448
272.000	219.693	80.010	19.995	103.946	19.944	7.873	0.481
274.000	220.642	80.009	19.994	103.945	19.935	8.476	0.448
276.000	221.602	80.009	19.995	103.940	19.934	8.580	0.496
278.000	222.559	80.009	19.995	103.945	19.931	8.789	0.493
280.000	223.542	80.009	19.995	103.943	19.929	8.964	0.476
282.000	224.529	80.007	19.995	103.947	19.920	9.636	0.494
284.000	225.472	80.005	19.994	103.941	19.916	9.887	0.458
286.000	226.430	80.007	19.995	103.942	19.913	10.149	0.481
288.000	227.418	80.007	19.995	103.939	19.906	10.615	0.459
290.000	228.409	80.007	19.995	103.939	19.899	11.179	0.471
292.000	229.470	80.006	19.995	103.943	19.893	11.606	0.516
294.000	230.462	80.007	19.996	103.944	19.887	12.052	0.491
296.000	231.412	80.006	19.995	103.950	19.880	12.579	0.480
298.000	232.392	80.007	19.996	103.950	19.876	12.898	0.512
300.000	233.373	80.008	19.995	103.954	19.869	13.400	0.515
302.000	234.348	80.007	19.996	103.955	19.861	13.982	0.478
304.000	235.304	80.007	19.994	103.964	19.853	14.541	0.463
306.000	236.344	80.008	19.995	103.950	19.852	14.660	0.486
308.000	237.321	80.007	19.994	103.952	19.841	15.435	0.497
310.000	238.323	80.007	19.994	103.963	19.836	15.834	0.480
312.000	239.338	80.008	19.993	103.948	19.826	16.528	0.463
314.000	240.315	80.006	19.994	103.946	19.819	17.063	0.493
316.000	241.312	80.006	19.996	103.948	19.811	17.654	0.493
318.000	242.306	80.007	19.995	103.950	19.803	18.223	0.505
320.000	243.366	80.007	19.994	103.950	19.793	18.991	0.515
322.000	244.417	80.008	19.994	103.948	19.787	19.468	0.546
324.000	245.369	80.008	19.994	103.945	19.778	20.115	0.512
326.000	246.385	80.007	19.994	103.945	19.769	20.789	0.500
328.000	247.417	80.009	19.993	103.946	19.761	21.356	0.526
330.000	248.412	80.009	19.994	103.948	19.752	22.023	0.520
332.000	249.436	80.009	19.994	103.948	19.746	22.485	0.543
334.000	250.465	80.008	19.993	103.948	19.732	23.518	0.515
336.000	251.502	80.008	19.993	103.945	19.725	24.045	0.492
338.000	252.486	80.008	19.993	103.944	19.716	24.688	0.469
340.000	253.480	80.008	19.993	103.941	19.706	25.392	0.500
342.000	254.482	80.009	19.994	103.942	19.694	26.298	0.517
344.000	255.507	80.009	19.993	103.942	19.687	26.815	0.508
346.000	256.502	80.009	19.993	103.941	19.677	27.534	0.517
348.000	257.510	80.009	19.994	103.941	19.666	28.352	0.513
350.000	258.482	80.009	19.993	103.945	19.654	29.285	0.506
352.000	259.472	80.010	19.993	103.940	19.643	30.070	0.496
354.000	260.482	80.011	19.994	103.943	19.634	30.749	0.510
356.000	261.486	80.009	19.993	103.944	19.623	31.554	0.509
358.000	262.489	80.010	19.994	103.940	19.613	32.282	0.481
360.000	263.506	80.008	19.995	103.940	19.601	33.191	0.507
362.000	264.538	80.009	19.995	103.943	19.587	34.231	0.499
364.000	265.493	80.007	19.995	103.940	19.582	34.548	0.487
366.000	266.516	80.007	19.994	103.941	19.569	35.526	0.492
368.000	267.508	80.008	19.994	103.943	19.558	36.349	0.487
370.000	268.530	80.008	19.994	103.943	19.544	37.396	0.538
372.000	269.513	80.007	19.994	103.947	19.533	38.218	0.478
374.000	270.555	80.007	19.994	103.946	19.520	39.194	0.499
376.000	271.574	80.006	19.993	103.948	19.507	40.115	0.497
378.000	272.601	80.007	19.994	103.949	19.496	40.948	0.510
380.000	273.593	80.007	19.994	103.953	19.487	41.611	0.485
382.000	274.641	80.007	19.994	103.952	19.473	42.642	0.526
384.000	275.658	80.007	19.994	103.952	19.464	43.278	0.521
386.000	276.680	80.007	19.996	103.948	19.458	43.755	0.481
388.000	277.673	80.007	19.995	103.947	19.449	44.414	0.515
390.000	278.715	80.007	19.995	103.951	19.445	44.701	0.496
392.000	279.725	80.005	19.995	103.965	19.434	45.556	0.484
394.000	280.792	80.005	19.997	103.965	19.431	45.746	0.538
396.000	281.784	80.006	19.994	103.954	19.430	45.815	0.499
398.000	282.759	80.005	19.993	103.961	19.429	45.888	0.523
400.000	283.785	80.006	19.994	103.957	19.427	46.075	0.525
402.000	284.769	80.009	19.994	103.966	19.424	46.278	0.497
404.000	285.788	80.007	19.994	103.972	19.424	46.306	0.484
406.000	286.810	80.009	19.994	103.979	19.421	46.481	0.507
408.000	287.789	80.008	19.994	103.976	19.422	46.453	0.496
410.000	288.818	80.010	19.994	103.965	19.427	46.015	0.506
412.000	289.762	80.010	19.995	103.972	19.432	45.647	0.499
414.000	290.829	80.009	19.993	103.977	19.432	45.710	0.527
416.000	291.855	80.010	19.993	103.977	19.436	45.410	0.513
418.000	292.865	80.008	19.993	103.980	19.447	44.588	0.498
420.000	293.844	80.009	19.994	103.971	19.453	44.140	0.481
422.000	294.861	80.008	19.994	103.978	19.466	43.193	0.498
424.000	295.892	80.009	19.995	103.980	19.481	42.031	0.568
426.000	296.911	80.009	19.995	103.980	19.491	41.361	0.567
428.000	297.867	80.011	19.995	103.990	19.513	39.676	0.491
430.000	298.845	80.010	19.993	103.996	19.529	38.488	0.504
432.000	299.897	80.010	19.993	103.984	19.545	37.308	0.503
434.000	300.872	80.011	19.994	103.989	19.566	35.760	0.500
436.000	301.847	80.010	19.992	104.001	19.585	34.386	0.486
438.000	302.862	80.009	19.994	104.008	19.603	33.073	0.515
440.000	303.853	80.010	19.993	104.009	19.631	30.983	0.502
442.000	304.900	80.010	19.994	104.016	19.653	29.320	0.436
444.000	305.886	80.008	19.994	104.018	19.676	27.652	0.484
446.000	306.878	80.006	19.994	104.007	19.700	25.913	0.506
448.000	307.841	80.007	19.994	104.013	19.722	24.276	0.516
450.000	308.827	80.007	19.995	103.996	19.748	22.313	0.499
452.000	309.831	80.007	19.994	103.996	19.771	20.651	0.488
454.000	310.816	80.006	19.994	103.989	19.792	19.109	0.499
456.000	311.870	80.007	19.994	103.983	19.815	17.366	0.505
458.000	312.878	80.007	19.994	103.984	19.834	15.962	0.528
460.000	313.822	80.007	19.994	103.984	19.857	14.298	0.460
462.000	314.844	80.006	19.994	103.976	19.870	13.303	0.475
464.000	315.817	80.007	19.993	103.977	19.890	11.828	0.491
466.000	316.818	80.008	19.994	103.963	19.904	10.820	0.482
468.000	317.775	80.008	19.994	103.952	19.923	9.390	0.382
470.000	318.883	80.008	19.994	103.946	19.938	8.256	0.538
472.000	319.839	80.007	19.996	103.940	19.950	7.386	0.496
474.000	320.805	80.007	19.995	103.940	19.958	6.805	0.525
476.000	321.720	80.006	19.995	103.934	19.970	5.918	0.467
478.000	322.776	80.007	19.994	103.921	19.977	5.393	0.524
480.000	323.708	80.005	19.995	103.910	19.988	4.596	0.443
482.000	324.747	80.006	19.995	103.904	19.992	4.274	0.515
484.000	325.755	80.007	19.995	103.903	19.997	3.890	0.494
486.000	326.752	80.007	19.994	103.893	20.003	3.489	0.445
488.000	327.768	80.008	19.996	103.881	20.010	2.958	0.476
490.000	328.738	80.008	19.994	103.872	20.016	2.527	0.529
492.000	329.720	80.009	19.994	103.867	20.020	2.231	0.518
494.000	330.699	80.009	19.994	103.862	20.024	1.954	0.457
496.000	331.680	80.008	19.994	103.865	20.030	1.510	0.491
498.000	332.676	80.008	19.993	103.864	20.032	1.330	0.484
500.000	333.699	80.008	19.993	103.864	20.038	0.900	0.525
502.000	334.713	80.008	19.993	103.865	20.043	0.560	0.498
504.000	335.673	80.007	19.993	103.865	20.039	0.815	0.460
506.000	336.715	80.008	19.993	103.866	20.045	0.400	0.509
508.000	337.699	80.008	19.993	103.865	20.047	0.219	0.540
510.000	338.697	80.008	19.993	103.869	20.049	0.048	0.524
512.000	339.687	80.008	19.994	103.867	20.053	-0.223	0.527
514.000	340.656	80.009	19.993	103.866	20.053	-0.229	0.499
516.000	341.664	80.009	19.993	103.870	20.054	-0.307	0.500
518.000	342.685	80.010	19.994	103.874	20.058	-0.595	0.527
520.000	343.612	80.009	19.992	103.878	20.060	-0.711	0.488
522.000	344.574	80.008	19.993	103.883	20.059	-0.623	0.468
524.000	345.590	80.007	19.993	103.893	20.061	-0.773	0.498
526.000	346.598	80.007	19.993	103.879	20.062	-0.840	0.500
528.000	347.560	80.009	19.992	103.880	20.061	-0.767	0.522
530.000	348.510	80.008	19.993	103.887	20.066	-1.153	0.467
532.000	349.532	80.008	19.993	103.889	20.067	-1.252	0.524
534.000	350.525	80.008	19.994	103.881	20.064	-1.001	0.500
536.000	351.501	80.008	19.993	103.872	20.070	-1.457	0.474
538.000	352.487	80.008	19.994	103.900	20.073	-1.670	0.526
540.000	353.470	80.008	19.995	103.898	20.072	-1.589	0.478
542.000	354.455	80.009	19.996	103.902	20.071	-1.567	0.504
544.000	355.484	80.008	19.994	103.899	20.074	-1.788	0.473
546.000	356.425	80.008	19.994	103.898	20.074	-1.762	0.469
548.000	357.407	80.007	19.995	103.900	20.073	-1.710	0.501
550.000	358.458	80.008	19.994	103.900	20.075	-1.826	0.524
552.000	359.429	80.007	19.994	103.901	20.076	-1.937	0.495
554.000	360.436	80.008	19.994	103.905	20.077	-2.003	0.461
556.000	361.441	80.007	19.995	103.907	20.078	-2.037	0.511
558.000	362.449	80.007	19.995	103.904	20.076	-1.935	0.512
560.000	363.478	80.007	19.995	103.903	20.077	-1.977	0.499
562.000	364.492	80.008	19.994	103.904	20.075	-1.858	0.505
564.000	365.524	80.007	19.994	103.904	20.077	-2.007	0.506
566.000	366.513	80.007	19.994	103.905	20.077	-1.977	0.500
568.000	367.518	80.008	19.994	103.904	20.079	-2.126	0.514
570.000	368.562	80.009	19.994	103.904	20.077	-1.953	0.505
572.000	369.582	80.007	19.995	103.902	20.078	-2.075	0.509
574.000	370.552	80.006	19.994	103.899	20.074	-1.796	0.482
576.000	371.563	80.009	19.994	103.901	20.077	-1.947	0.510
578.000	372.618	80.007	19.995	103.901	20.078	-2.059	0.552
580.000	373.599	80.007	19.995	103.902	20.076	-1.887	0.487
582.000	374.630	80.007	19.993	103.900	20.076	-1.941	0.526
584.000	375.668	80.006	19.995	103.903	20.079	-2.148	0.544
586.000	376.657	80.008	19.995	103.904	20.078	-2.051	0.496
588.000	377.635	80.008	19.993	103.903	20.074	-1.766	0.477
590.000	378.638	80.009	19.993	103.905	20.077	-1.973	0.476
592.000	379.702	80.009	19.994	103.903	20.076	-1.889	0.544
594.000	380.766	80.010	19.993	103.899	20.073	-1.706	0.503
596.000	381.754	80.011	19.993	103.900	20.074	-1.784	0.517
598.000	382.779	80.010	19.993	103.893	20.075	-1.808	0.497
600.000	383.815	80.011	19.993	103.897	20.074	-1.738	0.506
602.000	384.852	80.009	19.994	103.900	20.074	-1.794	0.505
604.000	385.871	80.008	19.993	103.890	20.071	-1.541	0.521
606.000	386.869	80.008	19.995	103.887	20.071	-1.527	0.520
608.000	387.937	80.006	19.994	103.897	20.070	-1.489	0.513
610.000	388.961	80.008	19.993	103.893	20.069	-1.388	0.523
612.000	389.986	80.007	19.995	103.878	20.071	-1.509	0.533
614.000	391.036	80.007	19.995	103.890	20.071	-1.553	0.515
616.000	392.067	80.008	19.992	103.890	20.066	-1.197	0.513
618.000	393.105	80.007	19.994	103.884	20.068	-1.292	0.531
620.000	394.175	80.008	19.994	103.884	20.068	-1.314	0.515
622.000	395.204	80.009	19.994	103.882	20.064	-1.029	0.485
624.000	396.231	80.008	19.994	103.875	20.066	-1.171	0.534
626.000	397.281	80.008	19.994	103.883	20.061	-0.828	0.501
628.000	398.298	80.007	19.994	103.888	20.061	-0.834	0.525
630.000	399.331	80.006	19.994	103.883	20.060	-0.699	0.518
632.000	400.315	80.009	19.993	103.891	20.056	-0.422	0.496
634.000	401.372	80.009	19.994	103.877	20.056	-0.446	0.514
636.000	402.373	80.006	19.994	103.897	20.055	-0.345	0.515
638.000	403.418	80.007	19.995	103.890	20.053	-0.243	0.532
640.000	404.428	80.007	19.995	103.887	20.050	0.042	0.506
642.000	405.440	80.008	19.995	103.890	20.050	0.036	0.509
644.000	406.436	80.006	19.994	103.879	20.045	0.402	0.527
646.000	407.461	80.008	19.995	103.871	20.043	0.532	0.515
648.000	408.494	80.008	19.994	103.885	20.037	0.944	0.514
650.000	409.558	80.009	19.993	103.882	20.034	1.187	0.526
652.000	410.560	80.008	19.994	103.889	20.029	1.559	0.525
654.000	411.583	80.008	19.995	103.880	20.028	1.659	0.547
656.000	412.608	80.009	19.993	103.882	20.024	1.963	0.530
658.000	413.639	80.008	19.994	103.891	20.020	2.230	0.546
660.000	414.628	80.008	19.995	103.883	20.016	2.497	0.498
662.000	415.673	80.008	19.995	103.898	20.012	2.830	0.499
664.000	416.706	80.008	19.997	103.886	20.008	3.089	0.524
666.000	417.733	80.007	19.997	103.884	20.005	3.368	0.510
668.000	418.790	80.007	19.996	103.885	20.002	3.583	0.516
670.000	419.902	80.007	19.996	103.868	19.994	4.118	0.557
672.000	420.940	80.009	19.995	103.876	19.991	4.349	0.540
674.000	422.044	80.010	19.995	103.878	19.985	4.814	0.534
676.000	423.081	80.010	19.995	103.871	19.979	5.241	0.536
678.000	424.137	80.010	19.994	103.870	19.970	5.938	0.532
680.000	425.242	80.011	19.995	103.879	19.960	6.645	0.554
682.000	426.299	80.008	19.993	103.880	19.954	7.096	0.557
684.000	427.396	80.009	19.992	103.892	19.947	7.621	0.547
686.000	428.529	80.008	19.995	103.895	19.941	8.091	0.559
688.000	429.595	80.008	19.995	103.884	19.929	8.920	0.533
690.000	430.677	80.007	19.994	103.887	19.920	9.623	0.534
692.000	431.760	80.008	19.994	103.874	19.908	10.513	0.546
694.000	432.819	80.007	19.995	103.879	19.899	11.147	0.539
696.000	433.954	80.007	19.995	103.880	19.890	11.856	0.557
698.000	435.035	80.008	19.993	103.869	19.875	12.917	0.519
700.000	436.127	80.007	19.996	103.871	19.861	13.943	0.540
702.000	437.194	80.008	19.993	103.880	19.850	14.752	0.520
704.000	438.234	80.008	19.993	103.869	19.835	15.860	0.527
706.000	439.285	80.009	19.994	103.865	19.827	16.442	0.507
708.000	440.334	80.007	19.994	103.872	19.810	17.715	0.561
710.000	441.385	80.008	19.994	103.872	19.798	18.643	0.499
712.000	442.390	80.008	19.994	103.866	19.780	19.956	0.515
714.000	443.395	80.007	19.993	103.871	19.765	21.060	0.504
716.000	444.448	80.007	19.995	103.875	19.751	22.110	0.529
718.000	445.494	80.006	19.995	103.869	19.732	23.466	0.520
720.000	446.508	80.007	19.995	103.866	19.713	24.854	0.520
722.000	447.493	80.007	19.994	103.867	19.699	25.948	0.478
724.000	448.534	80.007	19.994	103.864	19.678	27.439	0.499
726.000	449.504	80.007	19.995	103.863	19.663	28.537	0.485
728.000	450.526	80.008	19.995	103.863	19.646	29.829	0.461
730.000	451.536	80.008	19.995	103.862	19.627	31.263	0.509
732.000	452.549	80.007	19.994	103.853	19.613	32.258	0.528
734.000	453.529	80.008	19.994	103.852	19.594	33.684	0.459
736.000	454.578	80.009	19.995	103.845	19.575	35.054	0.505
738.000	455.534	80.008	19.994	103.846	19.556	36.447	0.470
740.000	456.513	80.008	19.994	103.836	19.540	37.638	0.476
742.000	457.514	80.007	19.994	103.852	19.521	39.059	0.491
744.000	458.548	80.008	19.994	103.863	19.499	40.660	0.509
746.000	459.577	80.008	19.994	103.856	19.479	42.178	0.531
748.000	460.561	80.008	19.995	103.844	19.458	43.679	0.494
750.000	461.511	80.009	19.994	103.849	19.434	45.442	0.488
752.000	462.550	80.008	19.995	103.851	19.406	47.509	0.526
754.000	463.548	80.009	19.994	103.832	19.381	49.400	0.480
756.000	464.558	80.008	19.994	103.837	19.356	51.186	0.471
758.000	465.547	80.010	19.995	103.830	19.331	53.079	0.476
760.000	466.582	80.010	19.995	103.826	19.298	55.477	0.526
762.000	467.578	80.007	19.994	103.826	19.270	57.567	0.495
764.000	468.571	80.009	19.995	103.823	19.238	59.910	0.503
766.000	469.553	80.008	19.995	103.819	19.204	62.405	0.500
768.000	470.529	80.007	19.995	103.822	19.165	65.324	0.500
770.000	471.563	80.007	19.994	103.821	19.130	67.850	0.512
772.000	472.564	80.007	19.993	103.808	19.090	70.841	0.517
774.000	473.585	80.007	19.994	103.790	19.049	73.841	0.517
776.000	474.604	80.007	19.993	103.797	19.006	77.025	0.529
778.000	475.602	80.008	19.993	103.791	18.960	80.375	0.474
780.000	476.587	80.007	19.993	103.789	18.918	83.507	0.515
782.000	477.567	80.007	19.995	103.789	18.870	86.998	0.496
784.000	478.593	80.008	19.994	103.780	18.820	90.685	0.476
786.000	479.592	80.007	19.993	103.759	18.774	94.081	0.482
788.000	480.598	80.007	19.993	103.770	18.726	97.571	0.498
790.000	481.610	80.008	19.995	103.753	18.676	101.256	0.510
792.000	482.599	80.007	19.996	103.746	18.627	104.864	0.470
794.000	483.640	80.007	19.995	103.744	18.577	108.545	0.530
796.000	484.611	80.008	19.995	103.739	18.527	112.227	0.518
798.000	485.601	80.007	19.994	103.719	18.477	115.884	0.514
800.000	486.634	80.006	19.995	103.708	18.434	119.057	0.515
802.000	487.665	80.007	19.995	103.704	18.392	122.135	0.510
804.000	488.691	80.008	19.993	103.694	18.360	124.479	0.548
806.000	489.695	80.008	19.994	103.680	18.330	126.722	0.559
808.000	490.678	80.008	19.993	103.670	18.311	128.050	0.463
810.000	491.701	80.009	19.993	103.666	18.302	128.756	0.512
812.000	492.705	80.009	19.994	103.656	18.305	128.502	0.487
814.000	493.782	80.008	19.993	103.637	18.321	127.334	0.527
816.000	494.778	80.009	19.995	103.633	18.352	125.092	0.523
818.000	495.804	80.009	19.996	103.630	18.392	122.170	0.484
820.000	496.815	80.009	19.994	103.629	18.451	117.835	0.475
822.000	497.791	80.008	19.994	103.637	18.522	112.621	0.503
824.000	498.835	80.008	19.994	103.635	18.606	106.442	0.476
826.000	499.846	80.008	19.994	103.635	18.703	99.310	0.483
828.000	500.866	80.007	19.996	103.647	18.809	91.493	0.513
830.000	501.874	80.008	19.995	103.657	18.924	83.066	0.498
832.000	502.896	80.009	19.994	103.680	19.040	74.530	0.532
834.000	503.872	80.010	19.994	103.704	19.159	65.728	0.493
836.000	504.890	80.009	19.994	103.709	19.280	56.831	0.485
838.000	505.933	80.009	19.994	103.732	19.391	48.615	0.520
840.000	506.926	80.010	19.994	103.751	19.494	41.018	0.526
842.000	507.933	80.009	19.994	103.776	19.588	34.077	0.474
844.000	508.987	80.009	19.995	103.790	19.676	27.644	0.515
846.000	509.957	80.007	19.994	103.799	19.749	22.203	0.505
848.000	510.981	80.007	19.995	103.812	19.813	17.525	0.513
850.000	512.034	80.007	19.996	103.826	19.863	13.805	0.504
852.000	513.022	80.007	19.996	103.828	19.908	10.487	0.495
854.000	514.073	80.007	19.995	103.826	19.941	8.061	0.507
856.000	515.102	80.008	19.995	103.825	19.968	6.098	0.513
858.000	516.138	80.007	19.994	103.822	19.990	4.440	0.529
860.000	517.173	80.007	19.995	103.827	20.005	3.345	0.486
862.000	518.192	80.008	19.995	103.830	20.019	2.285	0.522
864.000	519.257	80.008	19.993	103.826	20.032	1.337	0.528
866.000	520.272	80.008	19.994	103.828	20.042	0.590	0.501
868.000	521.310	80.007	19.995	103.841	20.049	0.076	0.533
870.000	522.287	80.008	19.993	103.834	20.057	-0.524	0.488
872.000	523.309	80.008	19.995	103.837	20.061	-0.797	0.502
874.000	524.332	80.006	19.994	103.835	20.070	-1.452	0.514
876.000	525.357	80.007	19.994	103.835	20.069	-1.356	0.497
878.000	526.356	80.007	19.995	103.837	20.076	-1.914	0.492
880.000	527.376	80.008	19.994	103.837	20.075	-1.860	0.507
882.000	528.407	80.008	19.994	103.846	20.078	-2.091	0.503
884.000	529.448	80.007	19.996	103.855	20.082	-2.378	0.505
886.000	530.428	80.007	19.994	103.849	20.084	-2.500	0.530
888.000	531.504	80.007	19.994	103.854	20.085	-2.551	0.534
890.000	532.508	80.007	19.994	103.852	20.086	-2.643	0.506
892.000	533.482	80.009	19.994	103.865	20.090	-2.944	0.485
894.000	534.555	80.009	19.994	103.865	20.090	-2.942	0.515
896.000	535.601	80.008	19.993	103.866	20.091	-3.035	0.542
898.000	536.622	80.010	19.993	103.862	20.092	-3.067	0.521
900.000	537.621	80.008	19.994	103.865	20.092	-3.089	0.493
902.000	538.629	80.009	19.995	103.863	20.095	-3.338	0.471
904.000	539.681	80.007	19.993	103.863	20.096	-3.370	0.515
906.000	540.784	80.009	19.994	103.866	20.095	-3.336	0.532
908.000	541.799	80.007	19.993	103.863	20.096	-3.360	0.565
910.000	542.832	80.007	19.994	103.863	20.097	-3.458	0.589
912.000	543.834	80.008	19.994	103.864	20.095	-3.302	0.536
914.000	544.886	80.009	19.994	103.864	20.094	-3.215	0.476
916.000	545.940	80.009	19.996	103.864	20.094	-3.237	0.560
918.000	546.960	80.010	19.994	103.863	20.100	-3.649	0.475
920.000	547.974	80.009	19.995	103.857	20.101	-3.778	0.522
922.000	549.035	80.009	19.994	103.858	20.100	-3.645	0.513
924.000	550.078	80.010	19.995	103.844	20.100	-3.693	0.527
926.000	551.110	80.007	19.994	103.857	20.100	-3.669	0.492
928.000	552.014	80.006	19.996	103.859	20.105	-4.041	0.447
930.000	553.135	80.006	19.994	103.862	20.110	-4.404	0.549
932.000	554.214	80.008	19.995	103.864	20.103	-3.874	0.554
934.000	555.198	80.006	19.995	103.863	20.107	-4.177	0.458
936.000	556.303	80.007	19.996	103.863	20.108	-4.284	0.560
938.000	557.197	80.007	19.995	103.863	20.108	-4.262	0.481
940.000	558.160	80.006	19.995	103.864	20.106	-4.153	0.350
942.000	559.227	80.006	19.995	103.862	20.108	-4.252	0.321
944.000	560.960	80.007	19.996	103.863	20.109	-4.314	0.539
946.000	561.480	80.007	19.995	103.861	20.111	-4.459	0.350
948.000	562.476	80.005	19.995	103.862	20.110	-4.402	0.276
950.000	563.387	80.007	19.996	103.863	20.106	-4.154	0.523
952.000	564.507	80.006	19.995	103.866	20.108	-4.287	0.457
954.000	565.542	80.005	19.995	103.872	20.106	-4.108	0.537
956.000	566.657	80.006	19.994	103.872	20.109	-4.373	0.484
958.000	567.628	80.006	19.996	103.883	20.109	-4.335	0.534
960.000	568.685	80.007	19.995	103.892	20.108	-4.295	0.543
962.000	569.749	80.008	19.996	103.885	20.109	-4.345	0.485
964.000	570.766	80.006	19.995	103.883	20.113	-4.629	0.540
966.000	571.827	80.006	19.996	103.885	20.109	-4.379	0.510
968.000	572.899	80.007	19.995	103.887	20.114	-4.685	0.546
970.000	573.906	80.007	19.994	103.888	20.111	-4.510	0.495
972.000	575.055	80.008	19.995	103.882	20.113	-4.641	0.569
974.000	576.068	80.008	19.995	103.895	20.115	-4.772	0.494
976.000	577.111	80.008	19.994	103.897	20.112	-4.602	0.518
978.000	578.259	80.010	19.995	103.893	20.110	-4.421	0.565
980.000	579.280	80.008	19.995	103.887	20.113	-4.621	0.532
982.000	580.293	80.007	19.996	103.892	20.113	-4.619	0.515
984.000	581.369	80.008	19.996	103.881	20.113	-4.618	0.536
986.000	582.394	80.008	19.995	103.871	20.111	-4.459	0.510
988.000	583.433	80.009	19.995	103.877	20.113	-4.606	0.501
990.000	584.458	80.010	19.994	103.873	20.113	-4.642	0.508
992.000	585.487	80.009	19.994	103.866	20.115	-4.764	0.469
994.000	586.553	80.009	19.995	103.865	20.114	-4.690	0.520
996.000	587.551	80.010	19.996	103.871	20.119	-5.065	0.525
998.000	588.599	80.010	19.994	103.866	20.119	-5.073	0.505
1000.000	589.633	80.010	19.995	103.870	20.119	-5.101	0.540
1002.000	590.635	80.010	19.995	103.860	20.119	-5.082	0.531
1004.000	591.668	80.009	19.994	103.863	20.119	-5.077	0.500
1006.000	592.666	80.008	19.995	103.859	20.121	-5.211	0.469
1008.000	593.678	80.007	19.996	103.857	20.120	-5.188	0.501
1010.000	594.735	80.007	19.995	103.861	20.121	-5.193	0.521
1012.000	595.765	80.006	19.996	103.851	20.121	-5.251	0.516
1014.000	596.734	80.006	19.995	103.845	20.124	-5.459	0.497
1016.000	597.786	80.007	19.995	103.854	20.126	-5.580	0.489
1018.000	598.800	80.006	19.995	103.836	20.122	-5.287	0.475
1020.000	599.763	80.006	19.995	103.830	20.123	-5.382	0.511
1022.000	600.777	80.007	19.995	103.848	20.122	-5.321	0.521
1024.000	601.754	80.006	19.996	103.834	20.124	-5.462	0.522
1026.000	602.698	80.007	19.994	103.838	20.125	-5.498	0.488
1028.000	603.679	80.006	19.995	103.840	20.126	-5.629	0.505
1030.000	604.636	80.008	19.995	103.846	20.120	-5.183	0.478
1032.000	605.594	80.007	19.995	103.843	20.118	-5.040	0.487
1034.001	606.554	80.006	19.995	103.839	20.123	-5.369	0.491
1036.000	607.557	80.006	19.995	103.837	20.125	-5.543	0.500
1038.000	608.526	80.005	19.994	103.838	20.124	-5.478	0.513
1040.000	609.512	80.005	19.995	103.860	20.124	-5.455	0.489
1042.000	610.443	80.006	19.995	103.849	20.126	-5.593	0.473
1044.000	611.419	80.007	19.995	103.840	20.127	-5.689	0.477
1046.000	612.371	80.005	19.997	103.842	20.127	-5.705	0.495
1048.000	613.393	80.006	19.995	103.854	20.123	-5.360	0.518
1050.000	614.326	80.007	19.995	103.831	20.124	-5.460	0.517
1052.000	615.358	80.009	19.995	103.841	20.125	-5.490	0.485
1054.000	616.349	80.008	19.995	103.854	20.125	-5.509	0.492
1056.000	617.297	80.008	19.995	103.844	20.127	-5.706	0.494
1058.000	618.278	80.007	19.994	103.847	20.126	-5.565	0.484
1060.000	619.253	80.007	19.996	103.850	20.123	-5.365	0.475
1062.000	620.179	80.008	19.994	103.848	20.124	-5.464	0.483
1064.000	621.197	80.007	19.995	103.847	20.125	-5.494	0.496
1066.000	622.197	80.008	19.995	103.860	20.124	-5.428	0.516
1068.000	623.133	80.007	19.995	103.854	20.125	-5.531	0.458
1070.000	624.180	80.008	19.994	103.847	20.125	-5.513	0.520
1072.000	625.162	80.009	19.994	103.836	20.124	-5.447	0.525
1074.000	626.116	80.008	19.994	103.841	20.124	-5.483	0.496
1076.000	627.109	80.009	19.996	103.844	20.126	-5.573	0.494
1078.000	628.089	80.010	19.993	103.847	20.125	-5.497	0.499
1080.000	629.118	80.010	19.995	103.856	20.125	-5.545	0.514
1082.000	630.089	80.009	19.995	103.860	20.126	-5.636	0.496
1084.000	631.089	80.010	19.995	103.860	20.122	-5.310	0.478
1086.000	632.088	80.009	19.995	103.863	20.124	-5.427	0.490
1088.000	633.166	80.008	19.994	103.866	20.125	-5.560	0.498
1090.000	634.228	80.007	19.994	103.866	20.125	-5.491	0.552
1092.001	635.227	80.006	19.994	103.863	20.128	-5.720	0.520
1094.000	636.330	80.008	19.994	103.867	20.126	-5.630	0.532
1096.000	637.367	80.007	19.996	103.867	20.124	-5.459	0.534
1098.000	638.394	80.005	19.995	103.869	20.125	-5.489	0.539
1100.000	639.465	80.007	19.993	103.871	20.126	-5.616	0.517
1102.001	640.523	80.006	19.995	103.868	20.128	-5.776	0.522
1104.000	641.609	80.007	19.994	103.868	20.124	-5.457	0.547
1106.000	642.677	80.007	19.996	103.867	20.129	-5.788	0.536
1108.000	643.721	80.006	19.995	103.869	20.124	-5.486	0.551
1110.000	644.750	80.007	19.995	103.870	20.124	-5.469	0.517
1112.000	645.818	80.007	19.995	103.864	20.122	-5.289	0.493
1114.000	646.853	80.007	19.995	103.865	20.124	-5.488	0.509
1116.000	647.928	80.007	19.996	103.865	20.128	-5.772	0.532
1118.001	648.942	80.005	19.996	103.872	20.124	-5.424	0.472
1120.000	650.036	80.007	19.995	103.868	20.126	-5.621	0.523
1122.000	651.104	80.007	19.995	103.874	20.123	-5.345	0.534
1124.000	652.026	80.004	19.996	103.884	20.125	-5.526	0.442
1126.000	653.099	80.007	19.996	103.879	20.127	-5.687	0.433
1128.000	654.203	80.007	19.995	103.870	20.126	-5.603	0.372
1130.000	655.271	80.007	19.996	103.887	20.124	-5.436	0.509
1132.000	656.259	80.009	19.995	103.879	20.123	-5.390	0.525
1134.000	657.303	80.007	19.995	103.879	20.124	-5.486	0.510
1136.000	658.323	80.008	19.997	103.892	20.124	-5.462	0.510
1138.000	659.373	80.010	19.995	103.890	20.125	-5.563	0.524
1140.000	660.427	80.008	19.995	103.892	20.125	-5.537	0.538
1142.000	661.442	80.008	19.995	103.896	20.122	-5.324	0.481
1144.000	662.462	80.008	19.995	103.892	20.119	-5.065	0.498
1146.000	663.500	80.007	19.995	103.891	20.117	-4.939	0.519
1148.000	664.498	80.007	19.994	103.896	20.120	-5.180	0.520
1150.000	665.524	80.007	19.994	103.898	20.119	-5.109	0.510
1152.001	666.593	80.008	19.994	103.895	20.122	-5.272	0.509
1154.000	667.583	80.008	19.993	103.895	20.122	-5.304	0.479
1156.000	668.566	80.010	19.995	103.902	20.122	-5.280	0.523
1158.000	669.622	80.009	19.993	103.904	20.124	-5.448	0.519
1160.000	670.776	80.009	19.994	103.902	20.119	-5.063	0.553
1162.000	671.692	80.010	19.995	103.897	20.122	-5.306	0.704
1164.000	672.672	80.010	19.995	103.901	20.122	-5.275	0.505
1166.000	673.640	80.008	19.993	103.904	20.121	-5.202	0.492
1168.000	674.720	80.008	19.994	103.894	20.122	-5.338	0.500
1170.000	675.776	80.008	19.994	103.892	20.122	-5.313	0.558
1172.000	676.795	80.008	19.994	103.904	20.124	-5.440	0.514
1174.000	677.819	80.007	19.995	103.890	20.125	-5.495	0.490
1176.000	678.818	80.007	19.995	103.895	20.125	-5.525	0.516
1178.000	679.856	80.008	19.995	103.898	20.126	-5.563	0.536
1180.000	680.999	80.007	19.994	103.885	20.127	-5.678	0.553
1182.000	681.935	80.007	19.994	103.881	20.125	-5.555	0.488
1184.000	682.904	80.007	19.994	103.869	20.128	-5.780	0.489
1186.000	683.907	80.008	19.994	103.863	20.128	-5.740	0.490
1188.000	684.955	80.008	19.995	103.865	20.131	-5.966	0.513
1190.001	685.989	80.007	19.994	103.864	20.128	-5.763	0.504
1192.000	686.989	80.008	19.995	103.864	20.131	-5.943	0.515
1194.001	687.990	80.006	19.994	103.864	20.132	-6.013	0.525
1196.000	689.001	80.007	19.994	103.863	20.130	-5.907	0.516
1198.000	689.969	80.007	19.995	103.862	20.133	-6.102	0.458
1200.000	691.024	80.006	19.995	103.841	20.133	-6.096	0.517
1202.000	692.011	80.008	19.995	103.833	20.132	-6.049	0.507
1204.000	692.985	80.007	19.996	103.829	20.132	-6.062	0.489
1206.000	693.996	80.008	19.995	103.827	20.133	-6.102	0.506
1208.000	695.021	80.008	19.995	103.829	20.135	-6.264	0.522
1210.000	695.978	80.008	19.995	103.830	20.136	-6.315	0.492
1212.000	696.981	80.009	19.995	103.826	20.137	-6.407	0.506
1214.000	697.900	80.009	19.994	103.827	20.135	-6.293	0.459
1216.000	698.898	80.008	19.994	103.842	20.134	-6.218	0.482
1218.000	699.893	80.009	19.994	103.836	20.132	-6.017	0.516
1220.000	700.860	80.007	19.996	103.828	20.133	-6.100	0.468
1222.000	701.889	80.008	19.994	103.842	20.135	-6.253	0.508
1224.000	702.850	80.007	19.994	103.841	20.137	-6.403	0.513
1226.000	703.817	80.007	19.995	103.830	20.135	-6.298	0.507
1228.000	704.836	80.008	19.995	103.827	20.136	-6.324	0.522
1230.000	705.811	80.007	19.995	103.828	20.135	-6.292	0.473
1232.000	706.778	80.007	19.995	103.846	20.137	-6.397	0.472
1234.000	707.832	80.008	19.994	103.834	20.136	-6.324	0.514
1236.000	708.818	80.007	19.995	103.828	20.135	-6.252	0.520
1238.000	709.788	80.008	19.995	103.827	20.137	-6.440	0.502
1240.000	710.811	80.010	19.994	103.823	20.134	-6.216	0.528
1242.000	711.841	80.011	19.994	103.830	20.137	-6.432	0.579
1244.000	712.852	80.010	19.994	103.821	20.135	-6.286	0.514
1246.000	713.849	80.009	19.994	103.823	20.132	-6.059	0.497
1248.000	714.873	80.009	19.994	103.825	20.131	-5.993	0.513
1250.000	715.895	80.007	19.994	103.822	20.129	-5.853	0.512
1252.000	716.911	80.008	19.995	103.823	20.129	-5.804	0.530
1254.000	717.938	80.008	19.995	103.823	20.132	-6.049	0.508
1256.000	718.923	80.006	19.995	103.824	20.131	-5.939	0.504
1258.000	719.947	80.007	19.994	103.824	20.133	-6.077	0.498
1260.000	720.973	80.006	19.995	103.824	20.132	-6.050	0.473
1262.000	721.949	80.005	19.995	103.828	20.131	-5.979	0.505
1264.000	722.975	80.007	19.995	103.825	20.130	-5.929	0.505
1266.000	723.995	80.007	19.995	103.824	20.132	-6.045	0.515
1268.000	725.015	80.008	19.996	103.823	20.135	-6.228	0.512
1270.000	726.049	80.007	19.995	103.830	20.131	-5.939	0.515
1272.000	727.072	80.007	19.994	103.828	20.129	-5.808	0.516
1274.000	728.103	80.008	19.994	103.827	20.132	-6.075	0.515
1276.000	729.072	80.007	19.994	103.826	20.133	-6.116	0.485
1278.000	730.061	80.006	19.993	103.827	20.130	-5.865	0.494
1280.000	731.076	80.007	19.995	103.828	20.131	-5.977	0.510
1282.000	732.098	80.008	19.993	103.826	20.133	-6.095	0.496
1284.000	733.033	80.006	19.994	103.827	20.132	-6.059	0.462
1286.000	734.067	80.007	19.994	103.828	20.135	-6.292	0.476
1288.000	735.087	80.007	19.995	103.828	20.132	-6.027	0.490
1290.001	736.076	80.007	19.995	103.828	20.133	-6.111	0.522
1292.000	737.006	80.007	19.994	103.827	20.134	-6.164	0.478
1294.000	737.985	80.007	19.995	103.828	20.132	-6.039	0.481
1296.000	738.987	80.007	19.994	103.828	20.132	-6.005	0.490
1298.000	739.987	80.008	19.995	103.828	20.135	-6.286	0.489
1300.000	740.966	80.009	19.995	103.826	20.134	-6.174	0.518
1302.000	741.941	80.007	19.993	103.826	20.134	-6.166	0.489
1304.000	742.949	80.009	19.994	103.825	20.132	-6.069	0.498