File: 01_Data/Coaxial_Cable/MCC/Coaxial_Cable_MCC_30K_min_220202_R5.txt
Sample ID:	C:\MCC\MCC Cal\Test\Coaxial_Cable\Coaxial_Cable_MCC_30K_min_220202_R5.txt
Sample Weight (mg):	4.45
Heating Rate (C/s):	0.5
Combustor Temp (C):	900
N2 Flow Rate (cc/min):	80
O2 Flow Rate (cc/min):	20
Calibration File:	C:\MCC\MCC Cal\Coeff1 JN10440_30_210304.txt.txt
T Correction Coefficients:	0	1.024463	0
Time Shift (s):	14
*
Time (s)	Temperature (C)	N2 flow rate (cc/min)	O2 flow rate (cc/min)	Flow Rate (cc/min)	Oxygen (%)	HRR (W/g)	Heating rate (C/s)
-0.001	113.045	80.011	19.994	103.786	20.004	0.197	-0.003
2.000	113.008	80.012	19.994	103.786	20.007	0.038	-0.025
3.999	113.066	80.011	19.994	103.790	20.005	0.146	0.021
6.000	113.044	80.012	19.994	103.788	20.011	-0.259	0.025
8.000	113.003	80.013	19.994	103.788	20.005	0.186	-0.011
10.000	113.036	80.012	19.993	103.789	20.008	-0.042	0.009
12.000	113.034	80.013	19.995	103.783	20.001	0.445	-0.014
14.001	113.013	80.012	19.993	103.787	20.010	-0.219	-0.023
16.000	113.055	80.012	19.994	103.788	20.006	0.109	0.021
18.000	113.041	80.014	19.993	103.818	20.000	0.497	-0.017
20.000	113.042	80.011	19.994	103.835	20.004	0.216	-0.027
22.000	113.032	80.011	19.994	103.880	19.996	0.837	0.003
24.000	113.119	80.011	19.993	103.900	19.992	1.074	-0.010
26.001	113.179	80.010	19.993	103.929	19.983	1.763	0.038
28.000	113.312	80.012	19.995	103.946	19.981	1.866	0.063
30.000	113.494	80.011	19.993	103.955	19.985	1.627	0.061
32.000	113.643	80.011	19.994	103.955	19.981	1.918	0.118
33.999	113.828	80.011	19.993	103.949	19.978	2.137	0.074
35.999	114.064	80.009	19.993	103.954	19.982	1.847	0.150
38.001	114.323	80.010	19.994	103.965	19.973	2.482	0.128
39.999	114.608	80.010	19.992	103.976	19.976	2.282	0.126
42.000	114.886	80.011	19.995	104.002	19.970	2.670	0.153
43.999	115.228	80.011	19.994	104.004	19.973	2.484	0.172
46.000	115.531	80.010	19.995	104.012	19.967	2.955	0.166
48.001	115.911	80.012	19.996	104.018	19.966	3.007	0.183
49.999	116.304	80.011	19.995	104.021	19.962	3.292	0.197
51.999	116.720	80.009	19.994	104.020	19.968	2.848	0.197
54.000	117.172	80.009	19.995	104.020	19.968	2.825	0.202
55.999	117.650	80.009	19.995	104.018	19.966	2.987	0.245
58.000	118.129	80.010	19.994	104.016	19.966	2.959	0.228
60.001	118.615	80.009	19.994	104.019	19.962	3.262	0.219
62.000	119.129	80.010	19.994	104.021	19.961	3.363	0.267
63.999	119.699	80.010	19.994	104.019	19.965	3.054	0.291
65.999	120.277	80.012	19.994	104.019	19.966	3.005	0.276
68.000	120.832	80.011	19.993	104.020	19.963	3.222	0.290
69.999	121.416	80.009	19.994	104.017	19.966	3.013	0.327
71.999	121.987	80.011	19.995	104.015	19.962	3.276	0.278
74.000	122.612	80.011	19.995	104.018	19.964	3.117	0.287
76.001	123.236	80.010	19.994	104.019	19.966	2.962	0.329
78.000	123.856	80.011	19.996	104.018	19.969	2.752	0.330
80.000	124.489	80.011	19.996	104.019	19.967	2.924	0.328
81.999	125.136	80.011	19.996	104.033	19.967	2.903	0.318
84.000	125.796	80.011	19.994	104.024	19.964	3.156	0.318
85.999	126.502	80.011	19.994	104.030	19.965	3.102	0.365
88.000	127.159	80.014	19.995	104.039	19.963	3.247	0.335
90.000	127.910	80.013	19.995	104.047	19.958	3.582	0.359
92.000	128.620	80.013	19.994	104.046	19.958	3.550	0.380
93.999	129.366	80.015	19.994	104.053	19.964	3.152	0.385
96.001	130.086	80.012	19.994	104.054	19.961	3.395	0.380
98.000	130.856	80.013	19.994	104.044	19.959	3.477	0.380
100.001	131.605	80.013	19.994	104.048	19.959	3.477	0.361
101.999	132.359	80.009	19.995	104.048	19.963	3.213	0.344
103.999	133.167	80.012	19.995	104.054	19.959	3.536	0.392
106.000	133.995	80.011	19.994	104.043	19.963	3.225	0.414
107.999	134.763	80.011	19.994	104.050	19.961	3.352	0.390
109.999	135.589	80.010	19.994	104.049	19.959	3.542	0.395
112.001	136.434	80.011	19.995	104.034	19.962	3.316	0.436
114.001	137.260	80.010	19.993	104.039	19.966	3.003	0.419
116.001	138.071	80.012	19.995	104.049	19.963	3.182	0.404
118.000	138.954	80.009	19.993	104.053	19.960	3.427	0.435
120.000	139.786	80.011	19.994	104.048	19.967	2.918	0.401
121.999	140.648	80.011	19.994	104.047	19.962	3.289	0.455
124.000	141.523	80.012	19.995	104.046	19.966	2.994	0.407
126.000	142.388	80.011	19.993	104.044	19.964	3.136	0.432
127.999	143.287	80.011	19.993	104.046	19.959	3.542	0.428
130.000	144.205	80.011	19.993	104.049	19.961	3.388	0.493
132.000	145.049	80.009	19.993	104.056	19.961	3.332	0.442
134.000	145.972	80.009	19.994	104.047	19.968	2.863	0.456
136.000	146.893	80.009	19.993	104.045	19.964	3.163	0.448
138.000	147.765	80.012	19.996	104.050	19.970	2.722	0.444
140.000	148.674	80.009	19.994	104.054	19.960	3.454	0.464
142.000	149.588	80.011	19.994	104.046	19.960	3.466	0.441
143.999	150.475	80.010	19.994	104.036	19.961	3.365	0.473
146.000	151.382	80.012	19.994	104.034	19.959	3.496	0.430
147.999	152.305	80.013	19.995	104.031	19.964	3.174	0.463
150.000	153.234	80.013	19.993	104.045	19.958	3.558	0.469
151.999	154.104	80.013	19.994	104.029	19.962	3.258	0.448
154.000	155.062	80.012	19.994	104.031	19.959	3.472	0.463
156.000	155.934	80.012	19.994	104.031	19.961	3.344	0.467
158.000	156.866	80.009	19.994	104.040	19.959	3.500	0.480
160.000	157.801	80.012	19.995	104.039	19.959	3.486	0.455
162.000	158.759	80.012	19.996	104.036	19.963	3.181	0.474
164.000	159.661	80.010	19.994	104.028	19.963	3.217	0.445
166.000	160.628	80.011	19.995	104.036	19.958	3.544	0.488
168.000	161.560	80.009	19.995	104.038	19.961	3.326	0.479
170.000	162.512	80.015	19.995	104.032	19.962	3.312	0.463
171.999	163.464	80.013	19.996	104.031	19.963	3.187	0.519
174.000	164.389	80.012	19.995	104.029	19.960	3.399	0.435
175.999	165.360	80.013	19.994	104.038	19.956	3.747	0.498
177.999	166.353	80.010	19.994	104.041	19.955	3.815	0.465
179.999	167.307	80.012	19.994	104.028	19.958	3.595	0.483
181.999	168.283	80.012	19.994	104.033	19.962	3.288	0.530
184.000	169.244	80.010	19.994	104.026	19.956	3.704	0.516
186.000	170.208	80.009	19.995	104.029	19.957	3.642	0.477
188.000	171.178	80.011	19.995	104.038	19.953	3.953	0.476
190.000	172.133	80.010	19.994	104.032	19.951	4.117	0.492
192.000	173.151	80.010	19.994	104.037	19.949	4.242	0.540
193.999	174.167	80.011	19.994	104.034	19.950	4.175	0.494
195.999	175.133	80.010	19.994	104.028	19.953	3.945	0.477
198.000	176.092	80.009	19.994	104.034	19.951	4.079	0.493
200.000	177.111	80.010	19.994	104.029	19.950	4.182	0.491
201.999	178.123	80.011	19.993	104.028	19.949	4.238	0.501
204.000	179.082	80.011	19.994	104.023	19.952	4.016	0.468
206.000	180.098	80.010	19.994	104.020	19.951	4.094	0.507
207.999	181.106	80.010	19.994	104.020	19.949	4.238	0.513
210.000	182.155	80.010	19.994	104.019	19.945	4.501	0.539
212.000	183.111	80.012	19.995	104.020	19.947	4.394	0.508
214.000	184.146	80.008	19.993	104.021	19.948	4.321	0.499
216.000	185.132	80.010	19.995	104.024	19.943	4.705	0.504
218.000	186.195	80.011	19.994	104.019	19.946	4.469	0.529
220.000	187.253	80.011	19.993	104.019	19.940	4.893	0.526
221.999	188.230	80.008	19.995	104.017	19.944	4.616	0.494
223.999	189.212	80.011	19.994	104.020	19.937	5.079	0.482
226.000	190.214	80.012	19.993	104.018	19.937	5.073	0.485
228.000	191.194	80.010	19.994	104.010	19.932	5.439	0.472
230.000	192.222	80.012	19.994	104.009	19.933	5.435	0.486
232.000	193.270	80.014	19.995	104.017	19.934	5.300	0.541
234.000	194.272	80.013	19.994	104.013	19.926	5.943	0.492
236.000	195.285	80.010	19.996	104.011	19.935	5.289	0.489
238.000	196.274	80.011	19.996	104.010	19.929	5.661	0.487
240.000	197.268	80.011	19.994	104.014	19.927	5.866	0.478
242.000	198.276	80.012	19.995	104.011	19.928	5.776	0.508
244.000	199.283	80.011	19.994	104.006	19.924	6.024	0.495
245.999	200.299	80.009	19.995	104.007	19.917	6.580	0.513
247.999	201.308	80.009	19.993	104.018	19.916	6.619	0.487
249.999	202.346	80.013	19.995	104.014	19.917	6.580	0.524
252.000	203.336	80.012	19.994	104.012	19.914	6.757	0.483
254.000	204.359	80.010	19.993	104.009	19.915	6.740	0.529
255.999	205.356	80.012	19.994	103.994	19.913	6.825	0.493
258.000	206.362	80.013	19.994	104.003	19.904	7.534	0.500
260.000	207.363	80.011	19.993	103.990	19.907	7.312	0.487
262.000	208.360	80.011	19.994	104.005	19.904	7.533	0.483
264.000	209.391	80.009	19.993	103.994	19.900	7.781	0.522
266.000	210.418	80.010	19.995	103.991	19.898	7.925	0.517
268.000	211.422	80.010	19.996	103.999	19.902	7.668	0.491
270.000	212.413	80.009	19.995	104.000	19.891	8.491	0.490
272.000	213.417	80.009	19.996	103.989	19.885	8.872	0.505
274.000	214.379	80.009	19.995	103.989	19.883	9.013	0.497
276.000	215.393	80.009	19.994	103.990	19.881	9.217	0.471
278.000	216.337	80.010	19.994	103.993	19.882	9.110	0.478
280.000	217.350	80.010	19.994	103.987	19.877	9.502	0.513
282.000	218.319	80.012	19.996	103.995	19.872	9.838	0.468
284.000	219.292	80.011	19.995	104.002	19.865	10.372	0.458
286.000	220.281	80.011	19.995	103.980	19.862	10.548	0.462
288.000	221.295	80.012	19.993	103.985	19.857	10.964	0.498
290.000	222.247	80.011	19.995	103.986	19.852	11.317	0.461
292.000	223.277	80.012	19.995	103.980	19.848	11.617	0.494
294.000	224.270	80.009	19.994	103.979	19.840	12.191	0.464
296.000	225.233	80.011	19.995	103.981	19.831	12.851	0.478
298.000	226.222	80.009	19.994	103.985	19.828	13.050	0.495
300.000	227.209	80.009	19.995	103.989	19.820	13.659	0.487
302.000	228.192	80.012	19.995	103.988	19.819	13.728	0.496
304.000	229.202	80.009	19.995	103.986	19.809	14.471	0.485
306.000	230.185	80.011	19.993	103.989	19.800	15.080	0.470
308.000	231.138	80.011	19.994	103.994	19.800	15.123	0.448
310.000	232.152	80.011	19.995	103.985	19.791	15.736	0.501
312.000	233.123	80.013	19.994	103.983	19.788	16.005	0.507
314.000	234.134	80.012	19.994	103.983	19.778	16.706	0.514
316.000	235.063	80.015	19.994	103.989	19.771	17.244	0.490
318.000	236.108	80.013	19.994	103.983	19.763	17.762	0.527
320.000	237.067	80.012	19.994	103.982	19.754	18.425	0.489
322.000	238.043	80.013	19.993	103.987	19.748	18.870	0.475
324.000	239.028	80.012	19.993	103.989	19.742	19.347	0.511
326.000	240.046	80.013	19.995	103.984	19.732	20.081	0.504
328.000	240.994	80.011	19.993	103.989	19.726	20.524	0.469
330.000	241.984	80.012	19.994	103.991	19.715	21.294	0.506
332.000	243.000	80.011	19.995	103.984	19.713	21.458	0.512
334.000	243.990	80.011	19.994	103.981	19.702	22.261	0.503
336.000	244.940	80.013	19.995	103.980	19.693	22.930	0.493
338.000	245.950	80.014	19.995	103.979	19.682	23.733	0.476
340.000	246.944	80.013	19.994	103.977	19.671	24.511	0.519
342.000	247.911	80.012	19.994	103.980	19.664	24.986	0.472
344.000	248.884	80.012	19.994	103.978	19.658	25.444	0.511
346.000	249.942	80.013	19.995	103.978	19.651	25.981	0.540
348.000	250.948	80.010	19.994	103.977	19.638	26.930	0.507
350.000	251.874	80.012	19.995	103.989	19.628	27.647	0.479
352.000	252.925	80.010	19.993	103.981	19.615	28.586	0.515
354.000	253.902	80.010	19.995	103.984	19.605	29.334	0.501
356.000	254.904	80.012	19.995	103.978	19.594	30.122	0.493
358.000	255.881	80.012	19.995	103.981	19.587	30.647	0.493
360.000	256.852	80.011	19.997	103.981	19.575	31.535	0.465
362.000	257.863	80.009	19.994	103.987	19.563	32.339	0.507
364.000	258.881	80.006	19.996	103.983	19.551	33.237	0.526
366.000	259.857	80.011	19.994	103.980	19.543	33.806	0.505
368.000	260.834	80.009	19.995	103.982	19.534	34.511	0.470
370.000	261.881	80.011	19.996	103.991	19.516	35.785	0.499
372.000	262.863	80.010	19.994	103.987	19.506	36.541	0.498
374.000	263.854	80.011	19.994	103.980	19.492	37.545	0.497
376.000	264.863	80.009	19.993	103.981	19.479	38.488	0.474
378.000	265.860	80.011	19.994	103.987	19.469	39.254	0.500
380.000	266.860	80.010	19.994	103.990	19.451	40.517	0.480
382.000	267.884	80.011	19.995	103.987	19.440	41.338	0.531
384.000	268.883	80.009	19.993	103.993	19.427	42.279	0.487
386.000	269.871	80.010	19.995	103.990	19.408	43.693	0.507
388.000	270.909	80.010	19.995	103.999	19.403	44.082	0.514
390.000	271.905	80.011	19.993	103.995	19.391	44.891	0.483
392.000	272.937	80.012	19.994	104.000	19.381	45.624	0.480
394.000	273.930	80.010	19.993	104.005	19.370	46.481	0.465
396.000	274.919	80.012	19.993	104.007	19.361	47.121	0.492
398.000	275.938	80.010	19.994	104.006	19.352	47.793	0.507
400.000	276.961	80.010	19.993	104.003	19.348	48.083	0.518
402.000	277.988	80.011	19.994	104.013	19.341	48.587	0.533
404.000	278.982	80.013	19.995	103.995	19.339	48.754	0.501
406.000	280.034	80.010	19.992	103.992	19.337	48.832	0.529
408.000	281.017	80.012	19.993	104.007	19.336	48.913	0.508
410.000	282.001	80.012	19.993	104.010	19.330	49.366	0.519
412.000	283.041	80.012	19.993	104.009	19.333	49.154	0.530
414.000	284.045	80.013	19.994	104.010	19.341	48.601	0.475
416.000	285.049	80.013	19.993	104.009	19.343	48.430	0.509
418.000	286.042	80.014	19.994	103.993	19.340	48.679	0.506
420.000	287.053	80.015	19.993	104.012	19.348	48.089	0.511
422.000	288.100	80.014	19.994	104.017	19.352	47.812	0.499
424.000	289.095	80.013	19.994	104.016	19.365	46.831	0.491
426.000	290.146	80.012	19.993	104.016	19.371	46.424	0.539
428.000	291.159	80.011	19.995	104.017	19.386	45.322	0.505
430.000	292.205	80.010	19.995	104.017	19.400	44.246	0.535
432.000	293.198	80.011	19.995	104.021	19.405	43.928	0.492
434.000	294.180	80.010	19.996	104.027	19.424	42.518	0.480
436.000	295.224	80.010	19.995	104.020	19.435	41.713	0.501
438.000	296.267	80.010	19.995	104.025	19.458	40.055	0.536
440.000	297.281	80.011	19.994	104.026	19.472	39.004	0.504
442.000	298.230	80.011	19.995	104.037	19.485	38.091	0.498
444.000	299.241	80.012	19.995	104.050	19.511	36.167	0.514
446.000	300.283	80.012	19.995	104.054	19.535	34.405	0.520
448.000	301.317	80.011	19.995	104.055	19.558	32.790	0.508
450.000	302.313	80.010	19.993	104.055	19.579	31.216	0.517
452.000	303.371	80.010	19.994	104.049	19.604	29.425	0.558
454.000	304.310	80.008	19.994	104.039	19.621	28.156	0.489
456.000	305.334	80.009	19.993	104.039	19.647	26.263	0.491
458.000	306.335	80.010	19.994	104.053	19.673	24.359	0.513
460.000	307.346	80.008	19.995	104.035	19.692	22.944	0.528
462.000	308.364	80.009	19.995	104.043	19.714	21.375	0.516
464.000	309.353	80.009	19.995	104.032	19.731	20.111	0.538
466.000	310.374	80.010	19.994	104.031	19.749	18.822	0.516
468.000	311.358	80.009	19.993	104.018	19.765	17.654	0.505
470.000	312.390	80.013	19.994	104.017	19.791	15.734	0.547
472.000	313.365	80.013	19.994	104.017	19.795	15.445	0.520
474.000	314.398	80.011	19.993	104.002	19.816	13.925	0.527
476.000	315.379	80.014	19.995	104.002	19.830	12.942	0.467
478.000	316.356	80.012	19.994	103.991	19.835	12.572	0.506
480.000	317.304	80.011	19.994	103.982	19.850	11.443	0.482
482.000	318.316	80.012	19.993	103.979	19.857	10.954	0.488
484.000	319.273	80.011	19.994	103.978	19.870	10.024	0.487
486.000	320.352	80.011	19.993	103.978	19.884	8.939	0.487
488.000	321.310	80.011	19.994	103.976	19.893	8.301	0.504
490.000	322.314	80.013	19.994	103.976	19.903	7.603	0.469
492.000	323.225	80.011	19.994	103.959	19.903	7.612	0.459
494.000	324.111	80.012	19.994	103.944	19.910	7.047	0.490
496.000	324.997	80.011	19.993	103.947	19.913	6.864	0.286
498.000	326.413	80.013	19.993	103.946	19.921	6.298	0.398
500.000	327.306	80.013	19.993	103.938	19.927	5.798	0.426
502.000	328.544	80.013	19.993	103.936	19.933	5.387	0.536
504.000	329.431	80.013	19.994	103.925	19.933	5.402	0.493
506.000	330.274	80.012	19.993	103.920	19.933	5.416	0.554
508.000	331.263	80.011	19.994	103.928	19.939	4.951	0.516
510.000	332.280	80.010	19.994	103.917	19.940	4.860	0.518
512.000	333.243	80.009	19.994	103.923	19.947	4.395	0.517
514.000	334.305	80.011	19.995	103.924	19.945	4.514	0.517
516.000	335.363	80.010	19.994	103.909	19.948	4.313	0.585
518.000	336.376	80.012	19.994	103.923	19.952	3.985	0.530
520.000	337.407	80.008	19.993	103.910	19.954	3.833	0.533
522.000	338.477	80.011	19.996	103.910	19.959	3.481	0.577
524.000	339.464	80.010	19.993	103.911	19.957	3.629	0.517
526.000	340.550	80.010	19.994	103.921	19.964	3.152	0.525
528.000	341.640	80.010	19.994	103.933	19.956	3.742	0.554
530.000	342.632	80.011	19.995	103.923	19.962	3.249	0.540
532.000	343.699	80.012	19.995	103.933	19.967	2.917	0.537
534.000	344.758	80.011	19.994	103.937	19.970	2.725	0.523
536.000	345.819	80.011	19.994	103.933	19.971	2.619	0.482
538.000	346.860	80.010	19.995	103.929	19.968	2.854	0.512
540.000	347.908	80.011	19.996	103.932	19.967	2.890	0.490
542.000	348.958	80.008	19.994	103.935	19.965	3.081	0.531
544.000	350.081	80.010	19.994	103.937	19.969	2.787	0.566
546.000	351.102	80.009	19.994	103.938	19.969	2.741	0.514
548.000	352.200	80.011	19.995	103.936	19.967	2.911	0.552
550.000	353.265	80.010	19.995	103.937	19.972	2.565	0.526
552.000	354.302	80.010	19.995	103.939	19.977	2.195	0.485
554.000	355.393	80.011	19.995	103.936	19.973	2.474	0.518
556.000	356.442	80.011	19.995	103.936	19.975	2.334	0.514
558.000	357.541	80.012	19.994	103.937	19.979	2.047	0.552
560.000	358.632	80.012	19.996	103.941	19.977	2.191	0.526
562.000	359.643	80.012	19.993	103.937	19.978	2.099	0.518
564.000	360.710	80.012	19.994	103.936	19.978	2.087	0.536
566.000	361.807	80.010	19.994	103.937	19.983	1.776	0.539
568.000	362.869	80.011	19.994	103.938	19.982	1.826	0.539
570.000	363.942	80.011	19.993	103.939	19.976	2.286	0.544
572.000	364.969	80.012	19.995	103.947	19.974	2.435	0.534
574.000	366.046	80.011	19.994	103.945	19.980	1.950	0.532
576.000	367.068	80.010	19.993	103.943	19.978	2.136	0.506
578.000	368.067	80.013	19.994	103.941	19.975	2.354	0.509
580.000	369.198	80.014	19.995	103.942	19.977	2.170	0.518
582.000	370.237	80.014	19.996	103.945	19.976	2.282	0.505
584.000	371.264	80.012	19.995	103.940	19.978	2.118	0.508
586.000	372.327	80.011	19.993	103.938	19.981	1.875	0.529
588.000	373.360	80.011	19.994	103.935	19.976	2.261	0.530
590.000	374.425	80.011	19.993	103.942	19.979	2.013	0.543
592.000	375.476	80.010	19.994	103.940	19.979	2.019	0.535
594.000	376.524	80.011	19.994	103.942	19.975	2.320	0.527
596.000	377.534	80.010	19.995	103.944	19.975	2.332	0.501
598.000	378.583	80.011	19.994	103.943	19.971	2.599	0.514
600.000	379.609	80.012	19.995	103.937	19.975	2.336	0.529
602.000	380.617	80.011	19.994	103.930	19.975	2.365	0.489
604.000	381.660	80.010	19.994	103.937	19.969	2.789	0.527
606.000	382.676	80.011	19.994	103.934	19.975	2.330	0.522
608.000	383.686	80.011	19.993	103.931	19.975	2.352	0.507
610.000	384.689	80.011	19.996	103.936	19.975	2.359	0.495
612.000	385.748	80.010	19.995	103.933	19.974	2.389	0.514
614.000	386.744	80.011	19.995	103.935	19.973	2.458	0.483
616.000	387.767	80.012	19.995	103.933	19.970	2.684	0.494
618.000	388.833	80.011	19.994	103.935	19.968	2.834	0.500
620.000	389.822	80.011	19.995	103.937	19.972	2.591	0.506
622.000	390.833	80.011	19.995	103.932	19.969	2.749	0.487
624.000	391.883	80.009	19.994	103.931	19.969	2.781	0.552
626.000	392.826	80.010	19.994	103.928	19.965	3.085	0.486
628.000	393.878	80.012	19.995	103.933	19.968	2.857	0.517
630.000	394.892	80.011	19.994	103.935	19.963	3.214	0.504
632.000	395.868	80.011	19.994	103.927	19.965	3.099	0.476
634.000	396.898	80.011	19.995	103.923	19.958	3.611	0.517
636.000	397.880	80.010	19.994	103.936	19.953	3.921	0.492
638.000	398.870	80.012	19.995	103.928	19.953	3.940	0.497
640.000	399.881	80.011	19.994	103.924	19.955	3.823	0.506
642.000	400.880	80.010	19.994	103.934	19.956	3.728	0.506
644.000	401.872	80.010	19.994	103.922	19.948	4.283	0.505
646.000	402.889	80.010	19.995	103.922	19.949	4.236	0.527
648.000	403.896	80.010	19.994	103.929	19.947	4.383	0.515
650.000	404.863	80.010	19.995	103.932	19.937	5.083	0.498
652.000	405.891	80.009	19.994	103.926	19.941	4.826	0.500
654.000	406.963	80.011	19.996	103.924	19.944	4.624	0.544
656.000	407.930	80.012	19.994	103.922	19.933	5.377	0.524
658.000	408.914	80.012	19.994	103.933	19.924	6.048	0.516
660.000	409.907	80.014	19.995	103.934	19.926	5.927	0.499
662.000	410.922	80.012	19.995	103.933	19.921	6.253	0.524
664.000	411.905	80.013	19.994	103.937	19.923	6.159	0.522
666.000	412.932	80.014	19.993	103.936	19.917	6.528	0.521
668.000	413.927	80.013	19.993	103.934	19.910	7.092	0.514
670.000	414.883	80.011	19.993	103.928	19.902	7.625	0.487
672.000	415.865	80.011	19.994	103.926	19.900	7.825	0.483
674.000	416.888	80.011	19.994	103.931	19.894	8.234	0.538
676.000	417.893	80.009	19.994	103.932	19.891	8.443	0.514
678.000	418.934	80.011	19.994	103.923	19.886	8.830	0.504
680.000	419.934	80.010	19.994	103.921	19.877	9.502	0.514
682.000	420.972	80.011	19.995	103.922	19.876	9.577	0.507
684.000	421.942	80.011	19.994	103.919	19.870	9.965	0.498
686.000	422.974	80.011	19.994	103.924	19.857	10.933	0.491
688.000	423.988	80.012	19.995	103.932	19.853	11.245	0.534
690.000	424.965	80.011	19.994	103.923	19.850	11.474	0.469
692.000	426.024	80.011	19.994	103.919	19.836	12.436	0.522
694.000	426.998	80.012	19.993	103.923	19.822	13.451	0.500
696.000	428.034	80.011	19.993	103.924	19.817	13.866	0.499
698.000	429.076	80.013	19.993	103.912	19.804	14.793	0.521
700.000	430.041	80.012	19.994	103.920	19.793	15.571	0.516
702.000	431.058	80.009	19.993	103.929	19.786	16.082	0.504
704.000	432.075	80.011	19.994	103.924	19.779	16.651	0.500
706.000	433.056	80.010	19.994	103.920	19.766	17.548	0.492
708.000	434.098	80.011	19.993	103.917	19.755	18.395	0.507
710.000	435.092	80.009	19.994	103.910	19.738	19.615	0.492
712.000	436.120	80.009	19.994	103.910	19.727	20.379	0.521
714.000	437.132	80.010	19.995	103.920	19.710	21.644	0.543
716.000	438.129	80.011	19.995	103.920	19.700	22.370	0.482
718.000	439.199	80.011	19.995	103.913	19.686	23.412	0.524
720.000	440.200	80.011	19.994	103.914	19.667	24.779	0.506
722.000	441.197	80.011	19.993	103.920	19.661	25.212	0.515
724.000	442.207	80.012	19.993	103.911	19.646	26.284	0.517
726.000	443.216	80.013	19.995	103.922	19.630	27.457	0.490
728.000	444.199	80.010	19.993	103.915	19.610	28.957	0.478
730.000	445.269	80.012	19.995	103.903	19.592	30.240	0.519
732.000	446.264	80.011	19.993	103.905	19.568	31.997	0.473
734.000	447.238	80.009	19.993	103.907	19.559	32.658	0.497
736.000	448.260	80.010	19.994	103.901	19.540	34.012	0.520
738.000	449.272	80.011	19.994	103.898	19.525	35.126	0.518
740.000	450.284	80.010	19.996	103.902	19.507	36.411	0.520
742.000	451.268	80.012	19.995	103.899	19.486	37.958	0.478
744.000	452.304	80.013	19.994	103.896	19.466	39.404	0.501
746.000	453.285	80.011	19.995	103.896	19.456	40.128	0.506
748.000	454.293	80.012	19.995	103.898	19.429	42.119	0.477
750.000	455.312	80.011	19.995	103.898	19.406	43.795	0.480
752.000	456.300	80.012	19.995	103.897	19.391	44.871	0.496
754.000	457.317	80.010	19.995	103.901	19.364	46.826	0.501
756.000	458.344	80.010	19.994	103.911	19.339	48.672	0.527
758.000	459.389	80.010	19.994	103.898	19.315	50.385	0.539
760.000	460.371	80.011	19.995	103.899	19.285	52.573	0.465
762.000	461.358	80.009	19.994	103.886	19.251	55.025	0.490
764.000	462.381	80.009	19.994	103.890	19.220	57.288	0.514
766.000	463.373	80.011	19.994	103.892	19.186	59.805	0.468
768.000	464.409	80.010	19.995	103.894	19.158	61.843	0.518
770.000	465.428	80.009	19.993	103.883	19.118	64.766	0.498
772.000	466.434	80.011	19.995	103.870	19.084	67.187	0.514
774.000	467.461	80.012	19.994	103.871	19.043	70.195	0.515
776.000	468.474	80.011	19.993	103.866	19.001	73.240	0.524
778.000	469.531	80.010	19.993	103.866	18.960	76.209	0.501
780.000	470.570	80.009	19.994	103.866	18.912	79.686	0.527
782.000	471.612	80.008	19.993	103.861	18.869	82.869	0.514
784.000	472.640	80.009	19.993	103.861	18.815	86.769	0.522
786.000	473.663	80.009	19.993	103.850	18.763	90.521	0.532
788.000	474.738	80.010	19.994	103.836	18.711	94.288	0.528
790.000	475.763	80.010	19.994	103.831	18.656	98.343	0.500
792.000	476.815	80.010	19.994	103.828	18.593	102.902	0.521
794.000	477.839	80.010	19.993	103.826	18.538	106.881	0.534
796.000	478.881	80.011	19.994	103.812	18.466	112.110	0.520
798.000	479.920	80.011	19.994	103.809	18.405	116.497	0.506
800.000	480.973	80.011	19.993	103.787	18.344	120.983	0.541
802.000	481.997	80.012	19.994	103.784	18.281	125.528	0.535
804.000	483.020	80.011	19.993	103.783	18.220	129.902	0.521
806.000	484.058	80.012	19.994	103.767	18.160	134.328	0.506
808.000	485.080	80.011	19.996	103.747	18.109	138.018	0.530
810.000	486.107	80.011	19.994	103.740	18.063	141.289	0.499
812.000	487.126	80.011	19.994	103.720	18.019	144.471	0.494
814.000	488.166	80.012	19.995	103.706	17.987	146.843	0.506
816.000	489.211	80.012	19.995	103.705	17.964	148.499	0.499
818.000	490.252	80.011	19.994	103.696	17.956	149.050	0.497
820.000	491.207	80.011	19.993	103.686	17.960	148.779	0.507
822.000	492.242	80.012	19.994	103.673	17.982	147.218	0.503
824.000	493.274	80.012	19.994	103.663	18.017	144.716	0.485
826.000	494.326	80.013	19.994	103.655	18.074	140.575	0.537
828.000	495.316	80.011	19.993	103.664	18.148	135.178	0.467
830.000	496.341	80.012	19.994	103.669	18.228	129.414	0.479
832.000	497.337	80.012	19.994	103.677	18.331	121.903	0.487
834.000	498.368	80.009	19.994	103.693	18.445	113.628	0.510
836.000	499.380	80.010	19.995	103.700	18.575	104.222	0.489
838.000	500.393	80.008	19.995	103.705	18.705	94.803	0.479
840.000	501.409	80.009	19.994	103.724	18.839	85.019	0.505
842.000	502.408	80.009	19.995	103.746	18.974	75.249	0.515
844.000	503.424	80.008	19.996	103.768	19.101	65.970	0.485
846.000	504.449	80.008	19.995	103.782	19.229	56.696	0.518
848.000	505.428	80.009	19.995	103.812	19.346	48.147	0.498
850.000	506.474	80.009	19.993	103.825	19.450	40.552	0.506
852.000	507.521	80.011	19.994	103.839	19.539	34.106	0.530
854.000	508.530	80.011	19.993	103.852	19.620	28.212	0.499
856.000	509.541	80.009	19.995	103.865	19.690	23.099	0.521
858.000	510.538	80.011	19.993	103.866	19.744	19.131	0.494
860.000	511.586	80.011	19.993	103.869	19.792	15.670	0.542
862.000	512.561	80.010	19.994	103.873	19.828	13.014	0.472
864.000	513.594	80.011	19.993	103.872	19.851	11.386	0.540
866.000	514.665	80.010	19.994	103.863	19.878	9.375	0.522
868.000	515.741	80.009	19.994	103.873	19.893	8.283	0.522
870.000	516.721	80.010	19.994	103.877	19.911	7.027	0.503
872.000	517.791	80.009	19.993	103.882	19.919	6.418	0.519
874.000	518.776	80.009	19.994	103.896	19.931	5.569	0.538
876.000	519.808	80.011	19.994	103.898	19.935	5.220	0.540
878.000	520.874	80.011	19.993	103.889	19.941	4.789	0.530
880.000	521.919	80.010	19.993	103.893	19.950	4.140	0.528
882.000	522.958	80.011	19.995	103.903	19.954	3.883	0.542
884.000	524.036	80.011	19.994	103.900	19.956	3.705	0.532
886.000	525.079	80.012	19.993	103.901	19.959	3.513	0.555
888.000	526.139	80.013	19.994	103.900	19.963	3.187	0.556
890.000	527.185	80.012	19.994	103.901	19.968	2.881	0.511
892.000	528.236	80.010	19.993	103.902	19.973	2.466	0.560
894.000	529.235	80.011	19.993	103.900	19.968	2.841	0.514
896.000	530.262	80.011	19.993	103.902	19.972	2.525	0.514
898.000	531.306	80.010	19.994	103.903	19.973	2.468	0.515
900.000	532.314	80.011	19.995	103.907	19.980	1.983	0.495
902.000	533.342	80.010	19.995	103.909	19.978	2.108	0.536
904.000	534.396	80.010	19.994	103.913	19.984	1.669	0.525
906.000	535.393	80.012	19.994	103.908	19.983	1.766	0.531
908.000	536.432	80.010	19.994	103.919	19.982	1.792	0.545
910.000	537.459	80.012	19.994	103.908	19.984	1.671	0.532
912.000	538.433	80.010	19.994	103.908	19.987	1.438	0.489
914.000	539.514	80.011	19.993	103.909	19.988	1.366	0.522
916.000	540.510	80.009	19.994	103.917	19.988	1.414	0.525
918.000	541.516	80.009	19.995	103.920	19.993	1.010	0.483
920.000	542.520	80.010	19.994	103.923	19.994	0.947	0.502
922.000	543.523	80.009	19.994	103.918	19.995	0.886	0.510
924.000	544.530	80.009	19.995	103.908	19.992	1.133	0.501
926.000	545.520	80.011	19.994	103.905	19.992	1.101	0.499
928.000	546.487	80.009	19.996	103.906	19.992	1.078	0.475
930.000	547.519	80.009	19.994	103.902	19.989	1.295	0.526
932.000	548.493	80.009	19.995	103.912	19.992	1.121	0.490
934.000	549.473	80.011	19.995	103.915	19.993	1.003	0.492
936.000	550.449	80.010	19.996	103.906	19.992	1.129	0.474
938.000	551.400	80.009	19.996	103.904	19.998	0.668	0.462
940.000	552.379	80.009	19.995	103.907	19.994	0.943	0.448
942.000	553.370	80.010	19.994	103.908	19.993	1.017	0.495
944.000	554.326	80.010	19.995	103.926	19.994	0.924	0.496
946.000	555.342	80.009	19.995	103.913	19.993	1.044	0.476
948.000	556.309	80.008	19.995	103.916	19.998	0.653	0.479
950.000	557.268	80.009	19.995	103.917	19.997	0.712	0.466
952.000	558.259	80.008	19.993	103.930	19.997	0.767	0.490
954.000	559.249	80.010	19.994	103.927	19.995	0.868	0.508
956.000	560.243	80.010	19.994	103.925	19.999	0.580	0.507
958.000	561.208	80.010	19.995	103.929	19.994	0.924	0.494
960.000	562.178	80.010	19.994	103.941	19.997	0.752	0.489
962.000	563.219	80.011	19.993	103.942	19.999	0.615	0.491
964.000	564.222	80.011	19.994	103.941	20.000	0.498	0.496
966.000	565.237	80.011	19.994	103.942	19.996	0.801	0.528
968.000	566.206	80.011	19.993	103.942	20.001	0.415	0.489
970.000	567.236	80.010	19.994	103.942	20.005	0.156	0.496
972.000	568.236	80.011	19.994	103.942	19.993	0.997	0.519
974.000	569.270	80.011	19.995	103.942	19.996	0.825	0.507
976.000	570.301	80.010	19.992	103.944	19.997	0.710	0.498
978.000	571.334	80.010	19.993	103.942	19.997	0.724	0.527
980.000	572.312	80.010	19.994	103.944	20.002	0.403	0.509
982.000	573.351	80.010	19.993	103.945	19.997	0.761	0.538
984.000	574.429	80.011	19.993	103.949	19.998	0.694	0.523
986.000	575.452	80.011	19.994	103.958	20.004	0.245	0.483
988.000	576.451	80.012	19.993	103.944	20.002	0.396	0.492
990.000	577.505	80.012	19.993	103.940	20.000	0.540	0.528
992.000	578.493	80.013	19.993	103.939	20.003	0.314	0.527
994.000	579.559	80.013	19.993	103.944	19.998	0.657	0.536
996.000	580.577	80.013	19.994	103.942	19.994	0.930	0.513
998.000	581.625	80.012	19.993	103.940	19.996	0.779	0.509
1000.000	582.651	80.009	19.996	103.938	20.000	0.479	0.506
1002.000	583.732	80.010	19.996	103.941	20.002	0.358	0.525
1004.000	584.777	80.010	19.996	103.938	20.002	0.346	0.523
1006.000	585.807	80.009	19.994	103.936	19.996	0.825	0.534
1008.000	586.827	80.009	19.994	103.936	20.001	0.439	0.524
1010.000	587.909	80.010	19.994	103.937	20.002	0.354	0.511
1012.001	588.962	80.012	19.994	103.924	20.005	0.142	0.546
1014.000	590.001	80.012	19.994	103.925	19.999	0.573	0.540
1016.000	591.038	80.009	19.995	103.920	20.003	0.318	0.543
1018.000	592.079	80.010	19.995	103.926	20.001	0.411	0.526
1020.000	593.110	80.010	19.995	103.932	20.010	-0.178	0.495
1022.000	594.196	80.010	19.995	103.931	20.007	0.020	0.568
1024.000	595.238	80.011	19.995	103.929	20.004	0.196	0.541
1026.001	596.261	80.009	19.995	103.923	20.008	-0.099	0.531
1028.000	597.270	80.008	19.995	103.915	20.010	-0.202	0.502
1030.000	598.296	80.010	19.995	103.903	20.010	-0.180	0.492
1032.001	599.294	80.008	19.994	103.907	20.007	-0.010	0.510
1034.000	600.344	80.008	19.996	103.907	20.009	-0.148	0.534
1036.000	601.280	80.009	19.995	103.902	20.010	-0.225	0.476
1038.000	602.273	80.008	19.995	103.903	20.004	0.217	0.482
1040.000	603.262	80.011	19.995	103.904	20.011	-0.320	0.499
1042.001	604.259	80.010	19.995	103.899	20.008	-0.089	0.466
1044.000	605.257	80.011	19.995	103.906	20.010	-0.182	0.488
1046.000	606.226	80.011	19.994	103.905	20.008	-0.085	0.474
1048.000	607.190	80.011	19.994	103.903	20.007	0.012	0.493
1050.000	608.152	80.011	19.994	103.910	20.011	-0.277	0.465
1052.000	609.117	80.012	19.994	103.908	20.005	0.136	0.477
1054.000	610.090	80.011	19.994	103.902	20.012	-0.372	0.506
1056.000	611.046	80.011	19.995	103.902	20.008	-0.099	0.469
1058.000	612.033	80.011	19.994	103.902	20.006	0.042	0.487
1060.000	612.948	80.011	19.996	103.902	20.008	-0.093	0.463
1061.999	613.972	80.012	19.995	103.904	20.011	-0.279	0.499
1063.999	614.954	80.011	19.994	103.901	20.013	-0.445	0.496
1065.999	615.957	80.013	19.995	103.900	20.009	-0.115	0.478
1067.999	616.884	80.012	19.994	103.904	20.009	-0.172	0.469
1070.000	617.850	80.014	19.995	103.906	20.012	-0.374	0.450
1071.999	618.887	80.014	19.994	103.905	20.009	-0.130	0.500
1074.001	619.840	80.014	19.994	103.905	20.013	-0.441	0.487
1075.999	620.860	80.013	19.994	103.901	20.012	-0.328	0.500
1078.000	621.820	80.013	19.994	103.899	20.011	-0.312	0.496
1079.999	622.822	80.012	19.995	103.900	20.011	-0.267	0.511
1082.000	623.816	80.012	19.994	103.900	20.012	-0.374	0.530
1084.001	624.777	80.012	19.994	103.907	20.009	-0.109	0.491
1086.000	625.790	80.009	19.995	103.920	20.009	-0.117	0.505
1088.000	626.770	80.010	19.994	103.906	20.012	-0.358	0.493
1090.000	627.740	80.011	19.994	103.910	20.009	-0.127	0.491
1092.000	628.730	80.010	19.995	103.907	20.016	-0.629	0.485
1094.000	629.708	80.010	19.994	103.926	20.013	-0.449	0.499
1095.999	630.721	80.010	19.995	103.909	20.012	-0.372	0.468
1098.001	631.720	80.009	19.995	103.925	20.010	-0.190	0.490
1100.000	632.705	80.011	19.994	103.928	20.005	0.121	0.501
1102.001	633.719	80.010	19.994	103.913	20.006	0.111	0.526
1104.000	634.708	80.010	19.995	103.921	20.010	-0.229	0.499
1106.001	635.749	80.009	19.994	103.922	20.011	-0.318	0.519
1107.999	636.761	80.010	19.994	103.940	20.009	-0.144	0.513
1109.999	637.745	80.009	19.994	103.940	20.012	-0.376	0.472
1112.000	638.808	80.010	19.995	103.941	20.011	-0.275	0.521
1113.999	639.798	80.008	19.994	103.938	20.007	-0.004	0.503
1116.000	640.825	80.009	19.995	103.937	20.008	-0.091	0.536
1117.999	641.867	80.012	19.995	103.935	20.004	0.200	0.526
1120.000	642.896	80.009	19.994	103.934	20.003	0.299	0.539
1122.001	643.877	80.011	19.996	103.936	20.009	-0.121	0.528
1124.000	644.941	80.011	19.995	103.936	20.003	0.267	0.539
1126.000	645.958	80.012	19.995	103.937	20.006	0.097	0.538
1128.000	646.999	80.012	19.995	103.937	20.007	-0.020	0.489
1129.999	648.079	80.012	19.995	103.936	20.006	0.095	0.514
1131.999	649.088	80.012	19.996	103.939	20.005	0.146	0.535
1134.000	650.127	80.012	19.994	103.939	20.010	-0.223	0.534
1136.001	651.158	80.011	19.994	103.937	20.004	0.214	0.528
1138.000	652.174	80.012	19.995	103.937	20.007	0.020	0.511
1139.999	653.213	80.013	19.995	103.939	20.004	0.227	0.543
1142.000	654.225	80.012	19.995	103.938	20.005	0.119	0.498
1144.000	655.254	80.013	19.995	103.939	20.005	0.180	0.526
1146.000	656.277	80.012	19.994	103.937	20.007	-0.014	0.511
1148.001	657.292	80.012	19.994	103.938	20.005	0.170	0.491
1150.000	658.355	80.013	19.994	103.942	20.004	0.196	0.522
1152.000	659.396	80.012	19.994	103.947	20.003	0.322	0.541
1153.999	660.404	80.014	19.993	103.947	20.002	0.362	0.518
1156.000	661.480	80.012	19.995	103.949	20.005	0.168	0.524
1158.000	662.493	80.014	19.992	103.964	20.002	0.400	0.522
1159.999	663.555	80.013	19.994	103.968	20.004	0.255	0.548
1162.000	664.529	80.011	19.993	103.965	20.002	0.388	0.496
1164.001	665.546	80.011	19.994	103.947	20.002	0.354	0.511
1166.000	666.541	80.012	19.994	103.951	20.002	0.340	0.468
1168.000	667.527	80.011	19.993	103.949	20.002	0.366	0.495
1169.999	668.527	80.012	19.994	103.956	20.007	0.036	0.498
1172.000	669.492	80.011	19.993	103.954	20.008	-0.089	0.477
1174.000	670.487	80.010	19.994	103.949	20.003	0.281	0.496
1176.001	671.459	80.011	19.993	103.949	20.003	0.322	0.498
1177.999	672.391	80.011	19.994	103.950	20.004	0.231	0.497
1179.999	673.349	80.012	19.994	103.946	20.003	0.263	0.467
1182.001	674.297	80.012	19.995	103.947	20.000	0.546	0.458
1183.999	675.267	80.012	19.993	103.942	20.005	0.180	0.476
1186.001	676.227	80.011	19.995	103.943	20.004	0.251	0.489
1188.000	677.149	80.011	19.996	103.939	20.005	0.176	0.466
1190.000	678.171	80.010	19.993	103.935	20.005	0.123	0.516
1192.000	679.155	80.010	19.995	103.937	20.003	0.275	0.484
1194.000	680.131	80.010	19.995	103.938	20.005	0.152	0.491
1196.000	681.141	80.010	19.994	103.937	20.004	0.192	0.494
1197.999	682.124	80.010	19.994	103.922	20.006	0.101	0.489
1199.999	683.195	80.013	19.995	103.919	20.003	0.285	0.535
1202.000	684.206	80.012	19.994	103.924	20.006	0.042	0.507
1204.000	685.253	80.012	19.995	103.915	20.006	0.107	0.524
1205.999	686.345	80.011	19.994	103.910	20.009	-0.115	0.525
1207.999	687.403	80.013	19.995	103.906	20.010	-0.217	0.501
1210.000	688.460	80.013	19.995	103.903	20.014	-0.542	0.523
1211.999	689.558	80.012	19.995	103.904	20.012	-0.395	0.541
1213.999	690.607	80.012	19.994	103.905	20.010	-0.229	0.549
1216.000	691.679	80.010	19.995	103.896	20.018	-0.777	0.558
1218.000	692.756	80.011	19.995	103.900	20.012	-0.334	0.538
1219.999	693.870	80.011	19.994	103.898	20.012	-0.376	0.552
1221.999	694.989	80.012	19.994	103.892	20.015	-0.575	0.570
1223.999	696.097	80.011	19.995	103.898	20.011	-0.289	0.560
1225.999	697.164	80.010	19.994	103.902	20.011	-0.281	0.540
1227.999	698.214	80.012	19.994	103.901	20.015	-0.595	0.533
1230.000	699.320	80.011	19.994	103.896	20.015	-0.562	0.563
1231.999	700.398	80.013	19.994	103.898	20.014	-0.492	0.503
1233.999	701.460	80.013	19.994	103.897	20.014	-0.475	0.537
1236.000	702.566	80.015	19.993	103.899	20.012	-0.380	0.540
1237.999	703.655	80.014	19.994	103.901	20.013	-0.455	0.572
1240.000	704.706	80.014	19.993	103.902	20.014	-0.502	0.515
1242.000	705.788	80.013	19.995	103.902	20.012	-0.370	0.534
1244.000	706.858	80.011	19.993	103.903	20.012	-0.330	0.523
1245.999	707.891	80.012	19.994	103.903	20.011	-0.306	0.534
1248.000	709.023	80.011	19.993	103.902	20.013	-0.401	0.542
1250.000	710.069	80.012	19.994	103.901	20.013	-0.437	0.519
1252.000	711.120	80.011	19.995	103.899	20.011	-0.263	0.525
1254.000	712.193	80.011	19.995	103.894	20.012	-0.356	0.506
1255.999	713.217	80.010	19.993	103.899	20.013	-0.433	0.514
1257.999	714.284	80.010	19.994	103.896	20.013	-0.403	0.530
1260.000	715.342	80.011	19.995	103.899	20.014	-0.492	0.549
1261.999	716.400	80.013	19.994	103.899	20.014	-0.534	0.532
1263.999	717.470	80.012	19.994	103.896	20.013	-0.409	0.520
1266.000	718.474	80.010	19.994	103.898	20.018	-0.785	0.521
1268.000	719.531	80.011	19.995	103.897	20.013	-0.405	0.510
1270.000	720.528	80.011	19.993	103.899	20.012	-0.356	0.504
1272.000	721.577	80.010	19.993	103.900	20.012	-0.334	0.531
1273.999	722.649	80.012	19.994	103.896	20.014	-0.482	0.539
1275.999	723.665	80.011	19.993	103.898	20.012	-0.372	0.509
1277.999	724.713	80.009	19.995	103.899	20.014	-0.528	0.550
1279.999	725.715	80.010	19.994	103.901	20.016	-0.658	0.507
1281.999	726.742	80.010	19.995	103.900	20.012	-0.352	0.511
1284.000	727.809	80.011	19.995	103.901	20.015	-0.569	0.541
1286.000	728.817	80.011	19.995	103.901	20.014	-0.498	0.537
1287.999	729.817	80.011	19.995	103.902	20.014	-0.488	0.486
1289.999	730.848	80.013	19.995	103.902	20.013	-0.441	0.506
1292.000	731.877	80.012	19.994	103.902	20.012	-0.342	0.487
1293.999	732.894	80.010	19.994	103.901	20.013	-0.469	0.499
1295.999	733.942	80.011	19.993	103.896	20.014	-0.500	0.521
1298.000	735.013	80.012	19.993	103.895	20.011	-0.289	0.539
1300.000	735.996	80.011	19.994	103.901	20.013	-0.419	0.510
1301.999	737.023	80.012	19.995	103.898	20.009	-0.158	0.517
1303.999	738.031	80.011	19.995	103.894	20.010	-0.214	0.557
1306.000	739.016	80.009	19.994	103.901	20.013	-0.427	0.505
1308.000	740.053	80.011	19.994	103.901	20.012	-0.384	0.522
1310.000	741.086	80.012	19.995	103.903	20.012	-0.391	0.494
1312.000	742.079	80.011	19.994	103.902	20.010	-0.196	0.489
1314.000	743.109	80.012	19.995	103.899	20.013	-0.431	0.489
1314.999	743.602	80.011	19.995	103.891	20.011	-0.283	0.509