File: 01_Data/Coaxial_Cable/MCC/Coaxial_Cable_MCC_30K_min_220113_O2.txt
Sample ID:	C:\MCC\MCC Cal\Test\Coaxial_Cable_MCC_30K_min_220113_R2.txt
Sample Weight (mg):	4.35
Heating Rate (C/s):	0.5
Combustor Temp (C):	900
N2 Flow Rate (cc/min):	80
O2 Flow Rate (cc/min):	20
Calibration File:	C:\MCC\MCC Cal\Coeff1 JN10440_30_210304.txt.txt
T Correction Coefficients:	0	1.024463	0
Time Shift (s):	14
*
Time (s)	Temperature (C)	N2 flow rate (cc/min)	O2 flow rate (cc/min)	Flow Rate (cc/min)	Oxygen (%)	HRR (W/g)	Heating rate (C/s)
0.000	110.942	80.015	19.995	104.373	20.103	-0.178	0.022
2.000	110.949	80.013	19.994	104.374	20.100	0.027	0.024
4.000	110.880	80.011	19.992	104.370	20.101	0.000	-0.027
6.000	110.930	80.012	19.993	104.370	20.099	0.102	0.005
8.000	110.888	80.011	19.993	104.385	20.097	0.260	-0.015
10.001	110.939	80.011	19.994	104.400	20.097	0.253	0.015
12.000	110.926	80.011	19.993	104.410	20.097	0.309	-0.010
14.000	110.927	80.011	19.993	104.430	20.090	0.785	0.006
16.001	111.009	80.011	19.992	104.472	20.088	0.985	0.031
18.000	111.069	80.012	19.994	104.485	20.084	1.261	0.048
20.000	111.124	80.012	19.991	104.478	20.080	1.531	0.035
22.000	111.258	80.011	19.993	104.514	20.074	2.026	0.035
24.001	111.375	80.010	19.993	104.538	20.074	1.983	0.061
26.000	111.536	80.011	19.993	104.562	20.068	2.442	0.074
28.000	111.703	80.011	19.993	104.568	20.066	2.612	0.068
30.000	111.934	80.011	19.994	104.572	20.067	2.556	0.106
32.001	112.171	80.011	19.993	104.581	20.063	2.825	0.110
34.000	112.492	80.010	19.993	104.586	20.065	2.667	0.160
36.001	112.804	80.010	19.993	104.583	20.061	2.987	0.149
38.001	113.121	80.011	19.994	104.581	20.062	2.887	0.163
40.001	113.454	80.011	19.994	104.577	20.063	2.863	0.189
42.001	113.889	80.011	19.993	104.602	20.059	3.119	0.212
44.000	114.284	80.010	19.994	104.602	20.057	3.298	0.193
46.001	114.755	80.010	19.993	104.603	20.056	3.329	0.212
48.001	115.179	80.012	19.994	104.612	20.056	3.337	0.217
50.001	115.673	80.012	19.993	104.620	20.058	3.237	0.237
52.001	116.178	80.012	19.994	104.629	20.052	3.641	0.232
54.001	116.717	80.012	19.994	104.636	20.052	3.655	0.284
56.001	117.288	80.013	19.993	104.641	20.048	3.928	0.271
58.001	117.862	80.012	19.993	104.639	20.051	3.732	0.298
60.001	118.443	80.013	19.994	104.640	20.051	3.751	0.302
62.000	119.028	80.011	19.994	104.638	20.049	3.855	0.290
64.001	119.729	80.011	19.994	104.637	20.051	3.726	0.321
66.001	120.339	80.011	19.993	104.642	20.049	3.849	0.333
68.001	121.026	80.011	19.994	104.643	20.047	3.996	0.348
70.000	121.704	80.012	19.995	104.642	20.050	3.822	0.343
72.001	122.431	80.013	19.994	104.641	20.049	3.869	0.367
74.001	123.172	80.012	19.995	104.646	20.047	4.007	0.327
76.001	123.926	80.012	19.995	104.641	20.047	4.003	0.356
78.001	124.687	80.014	19.994	104.640	20.049	3.907	0.404
80.000	125.499	80.013	19.994	104.640	20.049	3.893	0.406
82.001	126.282	80.013	19.995	104.640	20.046	4.098	0.394
84.001	127.022	80.012	19.994	104.643	20.047	3.997	0.375
86.001	127.827	80.010	19.994	104.645	20.047	4.042	0.389
88.001	128.674	80.011	19.993	104.647	20.044	4.263	0.416
90.001	129.532	80.011	19.992	104.650	20.046	4.126	0.400
92.001	130.397	80.010	19.993	104.647	20.047	4.049	0.420
94.001	131.267	80.010	19.994	104.646	20.041	4.483	0.447
96.000	132.147	80.009	19.993	104.648	20.041	4.460	0.449
98.001	133.013	80.011	19.994	104.648	20.045	4.152	0.432
100.000	133.910	80.010	19.993	104.649	20.046	4.130	0.440
102.000	134.809	80.010	19.993	104.648	20.042	4.435	0.440
104.001	135.741	80.010	19.994	104.652	20.043	4.329	0.466
106.001	136.651	80.009	19.992	104.651	20.042	4.387	0.464
108.001	137.578	80.010	19.993	104.647	20.042	4.379	0.446
110.001	138.534	80.009	19.992	104.646	20.042	4.410	0.486
112.001	139.471	80.011	19.993	104.647	20.042	4.371	0.461
114.001	140.460	80.010	19.992	104.647	20.041	4.460	0.475
116.000	141.416	80.010	19.993	104.647	20.042	4.402	0.521
118.000	142.350	80.010	19.993	104.646	20.042	4.408	0.472
120.001	143.314	80.011	19.993	104.645	20.044	4.288	0.504
122.001	144.324	80.011	19.992	104.643	20.044	4.221	0.496
124.000	145.331	80.011	19.993	104.645	20.043	4.341	0.495
126.001	146.323	80.010	19.993	104.647	20.044	4.269	0.501
128.001	147.309	80.011	19.993	104.645	20.041	4.472	0.507
130.001	148.290	80.012	19.994	104.643	20.041	4.470	0.476
132.001	149.315	80.012	19.994	104.643	20.044	4.266	0.517
134.001	150.307	80.011	19.995	104.639	20.042	4.391	0.492
136.001	151.297	80.014	19.994	104.641	20.041	4.478	0.496
138.001	152.307	80.012	19.994	104.636	20.045	4.214	0.502
140.001	153.238	80.013	19.993	104.630	20.044	4.277	0.461
142.001	154.296	80.010	19.994	104.637	20.042	4.385	0.525
144.000	155.291	80.012	19.994	104.624	20.044	4.242	0.488
146.001	156.283	80.011	19.993	104.630	20.040	4.563	0.496
148.000	157.275	80.012	19.993	104.621	20.043	4.315	0.489
150.001	158.287	80.013	19.993	104.620	20.042	4.405	0.469
152.001	159.334	80.013	19.994	104.634	20.046	4.133	0.500
154.001	160.321	80.013	19.994	104.637	20.043	4.344	0.516
156.001	161.338	80.013	19.994	104.629	20.040	4.546	0.531
158.000	162.340	80.013	19.993	104.613	20.041	4.507	0.484
160.001	163.351	80.013	19.993	104.618	20.043	4.347	0.510
162.001	164.335	80.014	19.993	104.617	20.042	4.432	0.487
164.001	165.353	80.013	19.994	104.615	20.040	4.559	0.499
166.000	166.420	80.013	19.993	104.605	20.040	4.571	0.527
168.000	167.397	80.011	19.993	104.607	20.038	4.679	0.477
170.000	168.410	80.009	19.995	104.618	20.040	4.565	0.498
172.001	169.384	80.010	19.995	104.608	20.035	4.901	0.487
174.001	170.392	80.011	19.994	104.607	20.035	4.939	0.501
176.000	171.364	80.009	19.994	104.613	20.039	4.660	0.464
178.000	172.377	80.010	19.993	104.610	20.038	4.687	0.509
180.001	173.388	80.011	19.993	104.607	20.037	4.783	0.495
182.001	174.382	80.011	19.993	104.606	20.037	4.756	0.465
184.000	175.400	80.012	19.993	104.606	20.036	4.887	0.504
186.001	176.347	80.010	19.992	104.602	20.035	4.903	0.471
188.000	177.328	80.012	19.994	104.599	20.033	5.101	0.467
190.000	178.363	80.012	19.992	104.604	20.033	5.053	0.537
192.001	179.360	80.012	19.993	104.604	20.033	5.115	0.499
194.001	180.374	80.012	19.993	104.604	20.030	5.302	0.516
196.001	181.296	80.012	19.994	104.605	20.029	5.377	0.478
198.000	182.324	80.011	19.994	104.603	20.028	5.476	0.510
200.001	183.285	80.011	19.993	104.604	20.027	5.505	0.490
202.001	184.213	80.011	19.993	104.600	20.024	5.736	0.474
204.000	185.228	80.010	19.994	104.600	20.023	5.824	0.486
206.001	186.258	80.011	19.994	104.595	20.022	5.932	0.531
208.001	187.245	80.011	19.994	104.599	20.025	5.696	0.547
210.000	188.234	80.012	19.993	104.590	20.020	6.061	0.496
212.000	189.193	80.013	19.994	104.594	20.020	6.040	0.498
214.000	190.141	80.013	19.993	104.597	20.020	6.087	0.468
216.001	191.063	80.013	19.992	104.597	20.017	6.242	0.456
218.001	192.076	80.014	19.993	104.588	20.018	6.229	0.520
220.000	192.998	80.013	19.992	104.594	20.012	6.659	0.463
222.000	193.989	80.013	19.992	104.598	20.015	6.439	0.489
224.001	194.989	80.012	19.993	104.601	20.014	6.496	0.498
226.000	195.955	80.012	19.992	104.598	20.009	6.849	0.503
228.001	196.925	80.013	19.993	104.603	20.005	7.194	0.501
230.001	197.850	80.012	19.993	104.599	20.003	7.314	0.466
232.000	198.831	80.011	19.994	104.602	20.003	7.295	0.486
234.001	199.813	80.012	19.994	104.579	20.002	7.434	0.484
236.001	200.753	80.012	19.993	104.583	19.999	7.638	0.497
238.001	201.718	80.013	19.993	104.576	19.994	7.980	0.487
240.001	202.694	80.014	19.994	104.588	19.990	8.270	0.483
242.000	203.661	80.014	19.992	104.596	19.983	8.803	0.504
244.001	204.575	80.013	19.993	104.591	19.985	8.689	0.447
246.000	205.568	80.014	19.992	104.584	19.984	8.717	0.475
248.001	206.505	80.014	19.993	104.571	19.980	9.067	0.502
250.001	207.484	80.012	19.994	104.579	19.976	9.377	0.480
252.001	208.428	80.010	19.993	104.572	19.972	9.631	0.470
254.000	209.374	80.011	19.995	104.588	19.968	9.956	0.472
256.000	210.305	80.011	19.996	104.588	19.966	10.092	0.454
258.000	211.272	80.011	19.994	104.571	19.965	10.144	0.465
260.000	212.263	80.011	19.995	104.569	19.959	10.651	0.475
262.001	213.210	80.010	19.994	104.569	19.956	10.882	0.477
264.000	214.207	80.011	19.994	104.570	19.952	11.148	0.490
266.000	215.145	80.012	19.993	104.576	19.948	11.486	0.467
268.000	216.118	80.012	19.994	104.574	19.943	11.854	0.470
270.000	217.101	80.011	19.993	104.569	19.939	12.135	0.485
272.001	218.065	80.014	19.994	104.572	19.934	12.535	0.522
274.000	219.046	80.013	19.993	104.572	19.929	12.876	0.490
276.001	219.989	80.011	19.994	104.574	19.923	13.323	0.499
278.000	221.007	80.012	19.992	104.569	19.920	13.544	0.486
280.000	221.917	80.012	19.993	104.569	19.915	13.955	0.476
282.000	222.889	80.012	19.993	104.585	19.910	14.304	0.511
284.000	223.890	80.012	19.993	104.576	19.906	14.634	0.482
286.000	224.891	80.011	19.993	104.570	19.898	15.182	0.503
288.000	225.840	80.011	19.994	104.573	19.894	15.524	0.460
290.000	226.828	80.012	19.993	104.574	19.891	15.731	0.495
292.001	227.835	80.010	19.993	104.574	19.883	16.321	0.520
294.001	228.841	80.011	19.993	104.570	19.875	16.949	0.500
296.000	229.854	80.012	19.993	104.575	19.871	17.251	0.464
298.000	230.864	80.013	19.992	104.572	19.866	17.638	0.506
300.000	231.816	80.015	19.993	104.569	19.859	18.155	0.505
302.000	232.799	80.012	19.993	104.569	19.850	18.823	0.468
304.001	233.782	80.014	19.994	104.566	19.848	18.926	0.455
306.000	234.783	80.013	19.993	104.573	19.841	19.484	0.502
308.000	235.765	80.010	19.994	104.577	19.835	19.943	0.457
310.000	236.779	80.009	19.992	104.572	19.827	20.555	0.544
312.000	237.750	80.010	19.992	104.571	19.817	21.260	0.490
314.000	238.774	80.012	19.994	104.576	19.811	21.739	0.489
316.000	239.753	80.013	19.992	104.573	19.802	22.388	0.481
318.000	240.775	80.015	19.993	104.567	19.792	23.178	0.533
320.000	241.701	80.012	19.992	104.571	19.787	23.522	0.470
322.001	242.755	80.014	19.993	104.569	19.778	24.189	0.492
324.000	243.760	80.013	19.992	104.565	19.772	24.661	0.503
326.000	244.730	80.014	19.994	104.565	19.762	25.418	0.521
328.000	245.715	80.017	19.993	104.566	19.753	26.049	0.513
330.000	246.734	80.013	19.994	104.569	19.747	26.531	0.539
332.000	247.702	80.010	19.994	104.570	19.737	27.297	0.497
334.001	248.718	80.012	19.994	104.563	19.728	27.937	0.506
336.000	249.783	80.009	19.995	104.568	19.717	28.767	0.523
338.000	250.808	80.012	19.993	104.567	19.710	29.282	0.532
340.000	251.809	80.011	19.993	104.568	19.700	30.028	0.512
342.000	252.841	80.012	19.994	104.568	19.690	30.775	0.512
344.000	253.824	80.012	19.994	104.569	19.679	31.612	0.508
346.000	254.777	80.011	19.993	104.570	19.674	31.986	0.485
348.000	255.831	80.012	19.993	104.565	19.664	32.745	0.517
350.000	256.804	80.011	19.993	104.566	19.654	33.468	0.474
352.000	257.777	80.011	19.994	104.568	19.648	33.950	0.483
354.000	258.867	80.011	19.994	104.572	19.639	34.653	0.537
356.000	259.828	80.012	19.994	104.566	19.625	35.647	0.490
358.000	260.829	80.012	19.995	104.570	19.616	36.333	0.509
360.000	261.789	80.010	19.994	104.567	19.606	37.091	0.478
362.000	262.811	80.009	19.994	104.571	19.595	37.952	0.496
364.001	263.799	80.010	19.994	104.571	19.584	38.784	0.524
366.000	264.802	80.010	19.994	104.574	19.569	39.854	0.523
368.000	265.805	80.010	19.994	104.569	19.562	40.400	0.503
370.000	266.789	80.010	19.994	104.575	19.548	41.457	0.483
372.000	267.784	80.009	19.992	104.583	19.540	42.095	0.484
374.000	268.767	80.008	19.994	104.588	19.527	42.999	0.512
376.000	269.749	80.011	19.993	104.592	19.516	43.863	0.465
378.001	270.815	80.014	19.993	104.582	19.507	44.495	0.514
380.000	271.750	80.014	19.994	104.575	19.495	45.406	0.475
382.000	272.771	80.013	19.992	104.588	19.487	46.055	0.491
384.000	273.775	80.011	19.993	104.583	19.480	46.544	0.493
386.000	274.771	80.012	19.993	104.576	19.475	46.975	0.466
388.001	275.759	80.013	19.993	104.579	19.470	47.280	0.522
390.000	276.748	80.012	19.993	104.578	19.472	47.152	0.498
392.000	277.782	80.011	19.993	104.576	19.466	47.605	0.523
394.000	278.765	80.011	19.994	104.595	19.462	47.896	0.508
396.001	279.757	80.014	19.993	104.588	19.461	48.002	0.511
398.000	280.762	80.013	19.994	104.603	19.457	48.289	0.515
400.000	281.757	80.012	19.993	104.585	19.454	48.498	0.481
402.001	282.761	80.013	19.993	104.591	19.460	48.086	0.501
404.000	283.806	80.016	19.994	104.585	19.462	47.948	0.550
406.000	284.788	80.014	19.993	104.590	19.461	47.956	0.504
408.000	285.801	80.015	19.993	104.590	19.467	47.525	0.483
410.000	286.784	80.011	19.992	104.602	19.473	47.107	0.493
412.000	287.773	80.013	19.992	104.596	19.476	46.854	0.469
414.000	288.762	80.012	19.992	104.591	19.487	46.068	0.498
416.000	289.795	80.012	19.993	104.604	19.496	45.396	0.505
418.000	290.790	80.013	19.993	104.605	19.508	44.445	0.512
420.000	291.834	80.012	19.994	104.607	19.522	43.455	0.524
422.001	292.791	80.010	19.994	104.608	19.533	42.578	0.460
424.000	293.796	80.013	19.994	104.608	19.546	41.598	0.502
426.000	294.782	80.012	19.994	104.607	19.565	40.203	0.474
428.000	295.811	80.011	19.994	104.606	19.578	39.250	0.528
430.001	296.785	80.012	19.994	104.612	19.596	37.857	0.498
432.000	297.774	80.012	19.994	104.627	19.608	36.982	0.497
434.000	298.770	80.011	19.994	104.637	19.622	35.901	0.492
436.000	299.778	80.012	19.994	104.636	19.636	34.876	0.504
438.000	300.784	80.012	19.993	104.633	19.653	33.590	0.512
440.000	301.778	80.011	19.993	104.642	19.676	31.862	0.493
442.001	302.757	80.011	19.993	104.641	19.696	30.336	0.498
444.000	303.797	80.013	19.993	104.625	19.717	28.800	0.495
446.001	304.766	80.013	19.993	104.641	19.738	27.194	0.499
448.001	305.785	80.012	19.994	104.633	19.757	25.765	0.496
450.000	306.741	80.009	19.994	104.639	19.779	24.122	0.498
452.000	307.778	80.014	19.993	104.637	19.792	23.175	0.502
454.000	308.779	80.011	19.994	104.626	19.812	21.666	0.498
456.000	309.838	80.013	19.995	104.620	19.830	20.315	0.520
458.000	310.836	80.011	19.995	104.613	19.851	18.767	0.500
460.000	311.898	80.011	19.995	104.610	19.861	17.954	0.522
462.000	312.951	80.013	19.994	104.604	19.878	16.694	0.530
464.000	313.984	80.014	19.994	104.602	19.888	15.942	0.520
466.000	315.003	80.014	19.993	104.603	19.899	15.104	0.539
468.001	316.019	80.014	19.993	104.595	19.913	14.042	0.504
470.000	317.043	80.013	19.994	104.597	19.922	13.366	0.522
472.000	318.102	80.011	19.994	104.580	19.932	12.620	0.533
474.000	319.127	80.013	19.994	104.572	19.945	11.683	0.537
476.000	320.167	80.014	19.993	104.572	19.949	11.356	0.516
478.000	321.185	80.012	19.993	104.569	19.957	10.810	0.486
480.000	322.229	80.011	19.993	104.564	19.959	10.643	0.536
482.000	323.247	80.011	19.993	104.566	19.963	10.325	0.509
484.000	324.273	80.012	19.993	104.567	19.970	9.770	0.503
486.000	325.334	80.013	19.993	104.563	19.977	9.251	0.526
488.001	326.307	80.014	19.993	104.544	19.981	8.953	0.494
490.000	327.368	80.013	19.993	104.538	19.986	8.592	0.504
492.000	328.390	80.014	19.992	104.531	19.991	8.233	0.524
494.000	329.389	80.016	19.993	104.527	19.996	7.820	0.525
496.001	330.378	80.014	19.993	104.527	20.001	7.502	0.460
498.000	331.409	80.013	19.993	104.522	20.005	7.137	0.493
500.001	332.463	80.013	19.993	104.510	20.010	6.833	0.556
502.000	333.514	80.011	19.993	104.499	20.011	6.719	0.569
504.000	334.507	80.012	19.992	104.500	20.016	6.382	0.524
506.000	335.528	80.012	19.992	104.499	20.016	6.372	0.513
508.000	336.579	80.010	19.993	104.508	20.018	6.175	0.533
510.000	337.592	80.013	19.993	104.499	20.017	6.279	0.529
512.001	338.551	80.015	19.993	104.492	20.018	6.175	0.501
514.000	339.565	80.012	19.993	104.491	20.023	5.796	0.460
516.000	340.604	80.012	19.992	104.491	20.022	5.875	0.534
518.000	341.621	80.011	19.993	104.489	20.022	5.864	0.503
520.000	342.560	80.011	19.993	104.499	20.025	5.707	0.504
522.000	343.599	80.011	19.994	104.500	20.031	5.261	0.508
524.000	344.558	80.012	19.994	104.502	20.027	5.510	0.510
526.000	345.535	80.012	19.994	104.510	20.031	5.196	0.494
528.000	346.601	80.012	19.993	104.505	20.029	5.371	0.483
530.000	347.552	80.010	19.994	104.509	20.033	5.080	0.484
532.000	348.493	80.011	19.994	104.514	20.033	5.074	0.424
534.000	349.407	80.010	19.993	104.521	20.031	5.197	0.523
536.001	350.731	80.011	19.993	104.523	20.033	5.109	0.425
538.000	351.834	80.012	19.993	104.523	20.033	5.070	0.839
540.000	352.658	80.012	19.993	104.525	20.035	4.933	0.606
542.000	353.664	80.010	19.994	104.530	20.036	4.885	0.514
544.000	354.647	80.011	19.993	104.526	20.036	4.883	0.513
546.000	355.572	80.012	19.995	104.526	20.035	4.956	0.532
548.000	356.618	80.012	19.993	104.526	20.035	4.894	0.473
550.000	357.683	80.012	19.994	104.528	20.037	4.779	0.551
552.000	358.628	80.012	19.994	104.528	20.037	4.742	0.511
554.000	359.656	80.012	19.994	104.536	20.035	4.952	0.510
556.000	360.725	80.011	19.993	104.528	20.038	4.672	0.512
558.000	361.681	80.012	19.993	104.531	20.040	4.572	0.486
560.000	362.727	80.010	19.993	104.529	20.033	5.093	0.476
562.000	363.735	80.010	19.994	104.527	20.038	4.678	0.491
564.000	364.762	80.013	19.992	104.527	20.036	4.840	0.504
566.000	365.764	80.011	19.993	104.535	20.039	4.599	0.485
568.000	366.782	80.014	19.992	104.537	20.038	4.681	0.508
570.000	367.785	80.012	19.993	104.529	20.039	4.650	0.514
572.000	368.823	80.015	19.994	104.531	20.039	4.598	0.549
574.000	369.804	80.011	19.992	104.530	20.038	4.706	0.480
576.000	370.843	80.013	19.993	104.531	20.040	4.534	0.516
578.000	371.881	80.013	19.993	104.526	20.038	4.665	0.501
580.000	372.896	80.011	19.993	104.525	20.038	4.719	0.510
582.000	373.931	80.012	19.993	104.524	20.034	4.983	0.525
584.000	374.919	80.010	19.993	104.525	20.040	4.557	0.497
586.000	375.957	80.012	19.994	104.521	20.034	4.975	0.522
588.000	376.967	80.010	19.993	104.524	20.035	4.916	0.515
590.000	377.971	80.010	19.993	104.523	20.036	4.856	0.504
592.001	378.988	80.010	19.993	104.525	20.034	5.012	0.510
594.001	379.991	80.012	19.993	104.522	20.035	4.951	0.482
596.000	381.022	80.013	19.993	104.528	20.039	4.659	0.485
598.000	382.030	80.013	19.993	104.526	20.036	4.866	0.496
600.000	383.079	80.009	19.992	104.523	20.032	5.174	0.537
602.001	384.100	80.010	19.993	104.530	20.036	4.881	0.526
604.001	385.133	80.012	19.993	104.528	20.033	5.087	0.499
606.000	386.131	80.012	19.993	104.525	20.033	5.066	0.500
608.000	387.167	80.012	19.994	104.528	20.029	5.346	0.522
610.000	388.186	80.012	19.993	104.528	20.029	5.373	0.504
612.000	389.186	80.012	19.993	104.527	20.028	5.438	0.475
614.000	390.243	80.012	19.994	104.531	20.027	5.498	0.535
616.000	391.270	80.011	19.995	104.525	20.029	5.367	0.526
618.000	392.316	80.008	19.994	104.528	20.028	5.473	0.521
620.001	393.359	80.010	19.994	104.521	20.019	6.110	0.558
622.000	394.381	80.009	19.993	104.528	20.021	5.953	0.526
624.000	395.426	80.012	19.993	104.524	20.021	6.011	0.537
626.000	396.428	80.011	19.993	104.525	20.017	6.302	0.530
628.000	397.438	80.013	19.993	104.525	20.019	6.148	0.503
630.000	398.481	80.013	19.993	104.518	20.014	6.471	0.536
632.000	399.511	80.012	19.993	104.528	20.013	6.609	0.498
634.000	400.508	80.015	19.993	104.525	20.013	6.598	0.512
636.000	401.511	80.013	19.993	104.527	20.005	7.140	0.496
638.000	402.542	80.013	19.993	104.529	20.006	7.062	0.512
640.000	403.575	80.012	19.994	104.516	20.004	7.268	0.471
642.000	404.559	80.014	19.994	104.517	20.003	7.321	0.484
644.000	405.576	80.012	19.995	104.526	20.001	7.468	0.515
646.000	406.602	80.010	19.994	104.515	19.997	7.744	0.509
648.001	407.638	80.013	19.994	104.524	19.993	8.052	0.508
650.000	408.671	80.013	19.993	104.514	19.993	8.067	0.519
652.000	409.687	80.012	19.994	104.516	19.985	8.642	0.550
654.000	410.687	80.013	19.993	104.520	19.981	8.960	0.524
656.000	411.748	80.015	19.993	104.517	19.982	8.894	0.528
658.000	412.747	80.013	19.993	104.521	19.972	9.668	0.511
660.000	413.776	80.013	19.993	104.522	19.971	9.714	0.500
662.000	414.762	80.014	19.993	104.523	19.967	10.021	0.486
664.000	415.765	80.014	19.994	104.524	19.965	10.196	0.520
666.000	416.785	80.011	19.993	104.525	19.957	10.804	0.521
668.000	417.750	80.012	19.994	104.521	19.953	11.074	0.522
670.000	418.787	80.011	19.993	104.522	19.949	11.379	0.489
672.000	419.782	80.012	19.994	104.522	19.942	11.871	0.506
674.000	420.801	80.011	19.995	104.522	19.936	12.350	0.512
676.001	421.851	80.012	19.994	104.523	19.926	13.070	0.507
678.000	422.864	80.012	19.994	104.519	19.920	13.529	0.502
680.000	423.877	80.011	19.994	104.520	19.918	13.698	0.519
682.000	424.854	80.012	19.994	104.519	19.908	14.414	0.486
684.000	425.891	80.011	19.993	104.516	19.901	14.944	0.517
686.000	426.898	80.011	19.994	104.518	19.894	15.471	0.488
688.000	427.877	80.012	19.994	104.521	19.883	16.308	0.478
690.000	428.887	80.009	19.992	104.512	19.878	16.660	0.509
692.000	429.904	80.010	19.993	104.516	19.866	17.602	0.489
694.000	430.923	80.012	19.992	104.523	19.856	18.369	0.514
696.000	431.924	80.012	19.992	104.528	19.845	19.196	0.508
698.000	432.993	80.011	19.993	104.523	19.834	20.008	0.545
700.000	434.020	80.011	19.993	104.521	19.821	20.969	0.538
702.000	435.062	80.011	19.991	104.526	19.808	21.926	0.520
704.000	436.112	80.012	19.992	104.527	19.800	22.542	0.520
706.000	437.195	80.012	19.993	104.530	19.781	23.986	0.522
708.000	438.257	80.011	19.994	104.526	19.770	24.818	0.538
710.000	439.342	80.012	19.994	104.520	19.753	26.070	0.549
712.000	440.419	80.013	19.993	104.516	19.739	27.128	0.552
714.000	441.507	80.014	19.993	104.522	19.720	28.539	0.530
716.000	442.577	80.014	19.994	104.505	19.702	29.851	0.522
718.000	443.649	80.013	19.994	104.497	19.684	31.199	0.548
720.000	444.692	80.012	19.994	104.508	19.666	32.614	0.519
722.000	445.807	80.012	19.993	104.507	19.646	34.069	0.522
724.000	446.892	80.012	19.993	104.502	19.624	35.720	0.548
726.000	447.994	80.013	19.994	104.495	19.604	37.249	0.565
728.000	449.093	80.012	19.993	104.500	19.583	38.801	0.550
730.000	450.211	80.014	19.994	104.496	19.566	40.090	0.536
732.000	451.287	80.013	19.993	104.513	19.548	41.421	0.545
734.000	452.365	80.013	19.994	104.504	19.524	43.226	0.543
736.000	453.445	80.013	19.995	104.490	19.500	44.998	0.517
738.000	454.520	80.013	19.994	104.491	19.474	46.955	0.543
740.000	455.622	80.014	19.994	104.484	19.451	48.701	0.547
742.000	456.705	80.012	19.994	104.484	19.422	50.855	0.530
744.000	457.803	80.013	19.994	104.484	19.397	52.754	0.553
746.000	458.938	80.012	19.995	104.486	19.364	55.197	0.555
748.000	460.030	80.011	19.994	104.484	19.334	57.434	0.575
750.000	461.087	80.012	19.994	104.481	19.298	60.112	0.515
752.000	462.183	80.012	19.992	104.483	19.264	62.662	0.562
754.000	463.270	80.011	19.994	104.476	19.224	65.696	0.546
756.000	464.334	80.009	19.993	104.473	19.188	68.354	0.554
758.000	465.390	80.010	19.993	104.463	19.145	71.613	0.506
760.000	466.435	80.012	19.993	104.471	19.104	74.667	0.533
762.000	467.516	80.011	19.992	104.451	19.058	78.127	0.515
764.000	468.594	80.013	19.992	104.458	19.010	81.664	0.515
766.000	469.643	80.011	19.993	104.451	18.956	85.717	0.527
768.000	470.721	80.011	19.993	104.456	18.905	89.571	0.539
770.000	471.763	80.010	19.993	104.440	18.848	93.777	0.518
772.000	472.806	80.010	19.993	104.429	18.789	98.194	0.527
774.000	473.861	80.012	19.994	104.432	18.724	103.088	0.537
776.000	474.942	80.011	19.992	104.411	18.662	107.729	0.523
778.000	475.991	80.010	19.993	104.409	18.597	112.551	0.511
780.000	477.029	80.012	19.993	104.403	18.531	117.456	0.523
782.000	478.038	80.010	19.992	104.384	18.458	122.921	0.501
784.000	479.105	80.011	19.994	104.388	18.388	128.126	0.518
786.000	480.176	80.011	19.994	104.376	18.314	133.687	0.558
788.001	481.193	80.009	19.993	104.369	18.241	139.091	0.527
790.000	482.221	80.012	19.993	104.355	18.168	144.552	0.499
792.000	483.283	80.012	19.994	104.333	18.093	150.098	0.541
794.000	484.336	80.012	19.994	104.330	18.031	154.725	0.524
796.001	485.305	80.013	19.992	104.309	17.968	159.426	0.495
798.000	486.377	80.012	19.993	104.292	17.914	163.449	0.518
800.000	487.413	80.013	19.994	104.279	17.869	166.800	0.509
802.001	488.441	80.011	19.993	104.255	17.837	169.194	0.526
804.000	489.471	80.011	19.994	104.251	17.816	170.734	0.503
806.001	490.489	80.010	19.994	104.240	17.811	171.112	0.518
808.000	491.544	80.012	19.995	104.220	17.823	170.260	0.550
810.000	492.557	80.010	19.994	104.216	17.855	167.930	0.517
812.000	493.547	80.011	19.994	104.223	17.900	164.590	0.497
814.000	494.635	80.010	19.993	104.215	17.968	159.455	0.523
816.000	495.693	80.012	19.993	104.213	18.055	152.989	0.544
818.000	496.686	80.012	19.994	104.216	18.152	145.798	0.506
820.000	497.691	80.013	19.995	104.243	18.266	137.291	0.524
822.000	498.707	80.013	19.993	104.254	18.389	128.115	0.501
824.000	499.727	80.012	19.993	104.262	18.521	118.235	0.518
826.000	500.765	80.013	19.993	104.264	18.663	107.638	0.486
828.000	501.806	80.012	19.993	104.287	18.812	96.498	0.523
830.001	502.817	80.011	19.994	104.310	18.955	85.818	0.525
832.000	503.812	80.010	19.995	104.323	19.102	74.798	0.509
834.000	504.838	80.011	19.994	104.360	19.233	64.988	0.512
836.000	505.843	80.010	19.994	104.375	19.356	55.765	0.503
838.000	506.844	80.010	19.994	104.392	19.469	47.339	0.520
840.000	507.853	80.010	19.995	104.416	19.570	39.748	0.484
842.000	508.873	80.011	19.993	104.440	19.656	33.360	0.513
844.000	509.878	80.010	19.993	104.448	19.729	27.872	0.518
846.000	510.897	80.010	19.995	104.469	19.792	23.120	0.528
848.000	511.939	80.011	19.995	104.477	19.837	19.738	0.509
850.000	512.890	80.011	19.994	104.481	19.879	16.628	0.502
852.000	513.930	80.012	19.993	104.481	19.906	14.574	0.509
854.000	514.940	80.012	19.993	104.479	19.929	12.840	0.492
856.000	515.943	80.012	19.993	104.484	19.949	11.361	0.498
858.000	517.026	80.011	19.994	104.470	19.964	10.264	0.518
860.000	518.032	80.011	19.995	104.475	19.979	9.139	0.521
862.001	519.082	80.009	19.993	104.462	19.982	8.857	0.549
864.000	520.078	80.010	19.994	104.473	19.993	8.101	0.525
866.000	521.122	80.011	19.994	104.486	19.998	7.670	0.499
868.000	522.111	80.010	19.993	104.479	20.006	7.063	0.489
870.001	523.160	80.010	19.994	104.486	20.007	6.991	0.510
872.001	524.148	80.011	19.994	104.486	20.014	6.528	0.485
874.000	525.193	80.011	19.994	104.486	20.017	6.295	0.497
876.000	526.183	80.012	19.993	104.487	20.021	5.984	0.467
878.000	527.213	80.013	19.993	104.488	20.021	5.961	0.531
880.000	528.187	80.013	19.993	104.486	20.024	5.733	0.488
882.000	529.208	80.013	19.993	104.488	20.027	5.531	0.507
884.000	530.178	80.013	19.993	104.489	20.032	5.156	0.484
886.000	531.175	80.013	19.993	104.487	20.030	5.312	0.492
888.000	532.180	80.011	19.993	104.487	20.029	5.357	0.515
890.000	533.214	80.011	19.993	104.502	20.032	5.146	0.502
892.000	534.222	80.011	19.993	104.492	20.037	4.786	0.501
894.000	535.207	80.012	19.993	104.491	20.033	5.081	0.496
896.000	536.247	80.012	19.993	104.501	20.035	4.954	0.541
898.000	537.260	80.013	19.994	104.495	20.036	4.854	0.520
900.000	538.249	80.012	19.994	104.496	20.037	4.765	0.488
902.000	539.243	80.013	19.994	104.502	20.038	4.672	0.497
904.000	540.304	80.013	19.994	104.495	20.042	4.419	0.486
906.000	541.301	80.013	19.994	104.494	20.038	4.693	0.492
908.000	542.345	80.012	19.993	104.498	20.043	4.304	0.519
910.000	543.384	80.012	19.993	104.496	20.043	4.325	0.503
912.000	544.379	80.013	19.994	104.494	20.040	4.578	0.502
914.001	545.340	80.012	19.994	104.497	20.048	3.945	0.495
916.000	546.393	80.013	19.994	104.507	20.045	4.176	0.524
918.000	547.399	80.011	19.993	104.505	20.048	3.937	0.510
920.000	548.406	80.011	19.994	104.488	20.048	3.931	0.501
922.001	549.472	80.011	19.994	104.492	20.046	4.109	0.516
924.000	550.439	80.011	19.994	104.493	20.053	3.586	0.501
926.000	551.489	80.011	19.993	104.500	20.055	3.389	0.529
928.000	552.454	80.011	19.993	104.496	20.055	3.453	0.490
930.000	553.461	80.012	19.994	104.493	20.053	3.545	0.512
932.000	554.462	80.011	19.994	104.494	20.052	3.649	0.516
934.000	555.458	80.011	19.995	104.488	20.052	3.626	0.500
936.000	556.441	80.011	19.995	104.507	20.052	3.655	0.493
938.000	557.447	80.011	19.995	104.507	20.054	3.474	0.482
940.000	558.432	80.011	19.994	104.499	20.055	3.406	0.490
942.000	559.403	80.010	19.994	104.507	20.054	3.496	0.487
944.000	560.348	80.011	19.994	104.513	20.052	3.633	0.509
946.000	561.306	80.011	19.994	104.523	20.055	3.400	0.460
948.000	562.245	80.010	19.994	104.502	20.056	3.383	0.478
950.001	563.215	80.011	19.994	104.517	20.051	3.699	0.456
952.000	564.210	80.010	19.994	104.528	20.048	3.980	0.494
954.000	565.189	80.012	19.994	104.524	20.050	3.784	0.496
956.000	566.155	80.012	19.994	104.526	20.051	3.732	0.446
958.001	567.126	80.012	19.994	104.529	20.053	3.601	0.489
960.000	568.135	80.013	19.994	104.528	20.052	3.635	0.515
962.000	569.103	80.012	19.993	104.527	20.053	3.583	0.491
964.000	570.069	80.013	19.993	104.528	20.052	3.649	0.489
966.000	571.049	80.010	19.993	104.528	20.049	3.853	0.497
968.001	572.030	80.011	19.993	104.524	20.052	3.672	0.477
970.000	573.041	80.011	19.994	104.529	20.050	3.768	0.535
972.000	574.006	80.013	19.993	104.528	20.048	3.917	0.476
974.000	575.089	80.012	19.994	104.519	20.049	3.906	0.529
976.000	576.088	80.012	19.994	104.527	20.052	3.684	0.512
978.000	577.050	80.013	19.993	104.528	20.051	3.695	0.503
980.000	578.010	80.012	19.994	104.522	20.053	3.559	0.489
982.000	578.991	80.013	19.992	104.520	20.055	3.399	0.488
984.000	579.952	80.012	19.992	104.517	20.052	3.665	0.476
986.000	580.919	80.013	19.992	104.513	20.053	3.545	0.457
988.000	581.964	80.014	19.992	104.514	20.055	3.443	0.528
990.000	582.914	80.014	19.994	104.517	20.054	3.507	0.505
992.000	583.889	80.014	19.993	104.502	20.053	3.559	0.477
994.000	584.874	80.014	19.994	104.499	20.057	3.310	0.507
996.000	585.828	80.013	19.994	104.504	20.056	3.357	0.480
998.000	586.762	80.011	19.993	104.511	20.061	2.965	0.457
1000.000	587.794	80.013	19.993	104.507	20.060	3.056	0.493
1002.001	588.788	80.012	19.994	104.499	20.057	3.285	0.502
1004.000	589.760	80.012	19.995	104.496	20.060	3.013	0.483
1006.000	590.727	80.010	19.995	104.496	20.060	3.044	0.515
1008.000	591.715	80.010	19.993	104.493	20.061	2.994	0.487
1010.000	592.771	80.012	19.994	104.497	20.059	3.148	0.528
1012.000	593.806	80.011	19.994	104.494	20.056	3.362	0.549
1014.000	594.893	80.011	19.993	104.496	20.058	3.183	0.553
1016.000	595.960	80.011	19.994	104.506	20.063	2.813	0.528
1018.000	596.997	80.011	19.993	104.496	20.065	2.689	0.534
1020.000	598.098	80.012	19.994	104.490	20.063	2.861	0.557
1022.000	599.135	80.012	19.993	104.489	20.062	2.874	0.555
1024.000	600.227	80.010	19.994	104.498	20.063	2.861	0.555
1026.001	601.341	80.010	19.993	104.492	20.060	3.063	0.576
1028.001	602.420	80.009	19.994	104.494	20.058	3.187	0.555
1030.001	603.537	80.009	19.994	104.492	20.062	2.917	0.562
1032.000	604.622	80.010	19.994	104.494	20.060	3.069	0.542
1034.001	605.716	80.010	19.994	104.500	20.063	2.834	0.521
1036.001	606.845	80.011	19.995	104.497	20.059	3.102	0.530
1038.000	607.963	80.010	19.994	104.507	20.054	3.521	0.567
1040.000	609.079	80.011	19.994	104.492	20.058	3.216	0.568
1042.000	610.173	80.012	19.994	104.488	20.061	3.000	0.560
1044.000	611.282	80.012	19.994	104.490	20.059	3.121	0.551
1046.000	612.408	80.013	19.993	104.487	20.059	3.096	0.550
1048.001	613.492	80.014	19.993	104.487	20.063	2.807	0.509
1050.001	614.538	80.014	19.994	104.486	20.060	3.027	0.583
1052.000	615.593	80.013	19.994	104.486	20.061	2.988	0.540
1054.000	616.664	80.012	19.993	104.487	20.060	3.060	0.524
1056.000	617.705	80.012	19.995	104.487	20.059	3.135	0.512
1058.001	618.767	80.012	19.993	104.487	20.063	2.803	0.522
1060.000	619.783	80.012	19.993	104.487	20.062	2.927	0.502
1062.001	620.776	80.013	19.993	104.485	20.064	2.759	0.514
1064.001	621.745	80.013	19.996	104.487	20.060	3.052	0.480
1066.001	622.734	80.013	19.993	104.486	20.062	2.917	0.484
1068.000	623.719	80.012	19.994	104.485	20.061	2.992	0.492
1070.000	624.660	80.015	19.992	104.486	20.065	2.639	0.511
1072.001	625.615	80.013	19.993	104.485	20.067	2.514	0.483
1074.000	626.603	80.014	19.992	104.485	20.061	2.957	0.477
1076.000	627.533	80.014	19.994	104.486	20.056	3.368	0.494
1078.001	628.454	80.011	19.993	104.489	20.059	3.139	0.456
1080.000	629.370	80.012	19.993	104.489	20.056	3.353	0.466
1082.001	630.335	80.012	19.992	104.490	20.055	3.420	0.481
1084.000	631.229	80.010	19.993	104.494	20.057	3.293	0.453
1086.001	632.161	80.012	19.993	104.497	20.056	3.368	0.464
1088.001	633.118	80.010	19.993	104.495	20.056	3.330	0.472
1090.000	634.016	80.011	19.994	104.494	20.056	3.333	0.479
1092.000	635.010	80.011	19.993	104.498	20.058	3.167	0.490
1094.000	635.927	80.011	19.993	104.504	20.062	2.937	0.451
1096.000	636.883	80.011	19.994	104.501	20.060	3.042	0.503
1098.001	637.800	80.011	19.993	104.492	20.053	3.568	0.469
1100.001	638.776	80.012	19.994	104.501	20.059	3.153	0.460
1102.001	639.693	80.012	19.994	104.512	20.056	3.354	0.470
1104.000	640.630	80.012	19.993	104.526	20.061	2.990	0.447
1106.001	641.628	80.012	19.994	104.508	20.062	2.880	0.505
1108.000	642.575	80.010	19.995	104.522	20.058	3.219	0.490
1110.001	643.552	80.011	19.994	104.523	20.057	3.240	0.470
1112.001	644.574	80.012	19.993	104.508	20.056	3.373	0.512
1114.000	645.545	80.010	19.994	104.507	20.057	3.263	0.477
1116.000	646.550	80.010	19.993	104.503	20.059	3.140	0.485
1118.000	647.539	80.010	19.994	104.511	20.057	3.246	0.491
1120.001	648.545	80.011	19.995	104.521	20.055	3.390	0.508
1122.001	649.523	80.012	19.995	104.525	20.054	3.491	0.511
1124.000	650.569	80.012	19.994	104.522	20.057	3.255	0.494
1126.001	651.514	80.014	19.993	104.522	20.059	3.130	0.461
1128.001	652.545	80.012	19.995	104.523	20.051	3.738	0.476
1130.000	653.552	80.012	19.994	104.523	20.054	3.506	0.520
1132.001	654.608	80.014	19.994	104.524	20.055	3.419	0.522
1134.001	655.556	80.013	19.993	104.526	20.060	3.051	0.490
1136.001	656.621	80.012	19.994	104.527	20.056	3.361	0.493
1138.000	657.589	80.012	19.992	104.522	20.055	3.458	0.496
1140.001	658.586	80.013	19.993	104.526	20.059	3.118	0.475
1142.001	659.575	80.011	19.993	104.528	20.056	3.327	0.522
1144.001	660.603	80.012	19.992	104.527	20.062	2.891	0.502
1146.001	661.626	80.012	19.992	104.529	20.056	3.384	0.535
1148.001	662.586	80.013	19.994	104.529	20.059	3.136	0.478
1150.001	663.584	80.015	19.992	104.529	20.057	3.259	0.487
1152.000	664.580	80.013	19.993	104.528	20.059	3.130	0.497
1154.000	665.541	80.014	19.994	104.528	20.061	2.981	0.486
1156.000	666.543	80.014	19.994	104.537	20.059	3.109	0.527
1158.001	667.543	80.013	19.993	104.539	20.057	3.263	0.520
1160.000	668.461	80.013	19.993	104.530	20.057	3.259	0.477
1162.001	669.496	80.011	19.994	104.528	20.055	3.392	0.494
1164.001	670.503	80.012	19.992	104.531	20.058	3.201	0.490
1166.001	671.508	80.012	19.993	104.531	20.056	3.352	0.528
1168.001	672.526	80.013	19.993	104.531	20.057	3.261	0.517
1170.000	673.514	80.011	19.993	104.531	20.059	3.158	0.491
1172.001	674.533	80.012	19.993	104.530	20.058	3.217	0.524
1174.000	675.529	80.011	19.992	104.523	20.060	3.059	0.492
1176.001	676.537	80.010	19.993	104.525	20.060	3.015	0.518
1178.001	677.566	80.012	19.993	104.523	20.059	3.094	0.521
1180.000	678.551	80.013	19.993	104.509	20.063	2.813	0.499
1182.001	679.515	80.026	19.996	104.505	20.062	2.878	0.463
1184.000	680.594	80.029	19.997	104.525	20.064	2.755	0.539
1186.000	681.634	80.012	19.993	104.509	20.068	2.452	0.540
1188.001	682.620	80.011	19.995	104.499	20.063	2.832	0.523
1190.001	683.656	80.010	19.994	104.495	20.065	2.707	0.529
1192.000	684.654	80.010	19.995	104.494	20.066	2.570	0.504
1194.001	685.733	80.010	19.995	104.496	20.068	2.427	0.521
1196.000	686.785	80.011	19.994	104.482	20.066	2.601	0.514
1198.001	687.803	80.010	19.995	104.486	20.066	2.632	0.524
1200.001	688.844	80.010	19.995	104.476	20.066	2.587	0.543
1202.000	689.843	80.012	19.994	104.485	20.070	2.286	0.506
1204.001	690.929	80.010	19.994	104.479	20.068	2.415	0.546
1206.001	691.897	80.012	19.994	104.484	20.070	2.310	0.493
1208.001	692.900	80.012	19.993	104.482	20.073	2.076	0.491
1210.001	693.925	80.012	19.992	104.485	20.071	2.244	0.516
1212.000	694.968	80.012	19.993	104.484	20.069	2.381	0.539
1214.000	696.004	80.012	19.994	104.483	20.070	2.284	0.537
1216.001	697.031	80.012	19.994	104.474	20.071	2.253	0.507
1218.000	698.055	80.012	19.994	104.469	20.069	2.406	0.502
1220.000	699.060	80.011	19.994	104.486	20.071	2.219	0.498
1222.001	700.076	80.011	19.994	104.475	20.069	2.406	0.483
1224.000	701.084	80.011	19.995	104.479	20.070	2.327	0.508
1226.000	702.115	80.011	19.994	104.480	20.065	2.645	0.516
1228.000	703.174	80.011	19.994	104.485	20.065	2.659	0.518
1230.001	704.208	80.012	19.995	104.481	20.061	2.948	0.513
1232.001	705.288	80.013	19.993	104.488	20.064	2.720	0.526
1234.001	706.405	80.013	19.994	104.490	20.061	2.946	0.550
1236.001	707.477	80.015	19.992	104.485	20.068	2.450	0.552
1238.001	708.586	80.014	19.993	104.478	20.066	2.595	0.557
1240.000	709.700	80.014	19.992	104.486	20.065	2.697	0.509
1242.000	710.726	80.012	19.993	104.485	20.067	2.516	0.527
1244.001	711.848	80.012	19.992	104.478	20.066	2.622	0.551
1246.000	712.995	80.012	19.993	104.484	20.066	2.608	0.562
1248.001	714.142	80.012	19.993	104.484	20.065	2.672	0.618
1250.001	715.300	80.011	19.994	104.485	20.065	2.701	0.584
1252.000	716.453	80.012	19.994	104.485	20.067	2.533	0.587
1254.000	717.570	80.012	19.993	104.487	20.066	2.612	0.577
1256.001	718.736	80.011	19.993	104.483	20.067	2.526	0.589
1258.000	719.856	80.011	19.993	104.475	20.064	2.746	0.552
1260.001	720.947	80.012	19.994	104.466	20.065	2.699	0.533
1262.001	722.061	80.012	19.994	104.467	20.064	2.757	0.548
1264.000	723.143	80.013	19.994	104.480	20.063	2.823	0.549
1266.001	724.235	80.012	19.994	104.469	20.065	2.636	0.540
1268.000	725.340	80.011	19.993	104.465	20.067	2.497	0.582
1270.001	726.345	80.010	19.994	104.469	20.067	2.489	0.511
1272.000	727.412	80.011	19.993	104.462	20.062	2.863	0.515
1274.001	728.433	80.011	19.994	104.477	20.063	2.819	0.507
1276.001	729.463	80.011	19.992	104.459	20.069	2.406	0.470
1278.000	730.568	80.011	19.994	104.470	20.068	2.470	0.539
1280.001	731.556	80.013	19.993	104.469	20.064	2.740	0.520
1282.001	732.574	80.011	19.994	104.463	20.066	2.612	0.502
1284.001	733.605	80.010	19.994	104.476	20.068	2.485	0.508
1286.001	734.643	80.010	19.992	104.463	20.070	2.284	0.503
1288.001	735.630	80.011	19.993	104.460	20.068	2.446	0.523
1290.001	736.663	80.011	19.993	104.457	20.071	2.244	0.498
1292.001	737.638	80.012	19.993	104.465	20.067	2.526	0.505
1294.001	738.642	80.012	19.993	104.484	20.065	2.667	0.519
1296.001	739.656	80.012	19.994	104.482	20.067	2.524	0.503
1298.000	740.636	80.011	19.994	104.483	20.070	2.331	0.509
1300.001	741.643	80.014	19.994	104.472	20.064	2.742	0.506
1302.001	742.582	80.012	19.993	104.453	20.065	2.678	0.469
1304.000	743.544	80.013	19.994	104.459	20.066	2.598	0.490
1305.001	744.049	80.013	19.994	104.463	20.066	2.594	0.509