File: 01_Data/Coaxial_Cable/MCC/Coaxial_Cable_MCC_30K_min_220113_R3.txt
Sample ID:	C:\MCC\MCC Cal\Test\Coaxial_Cable_MCC_30K_min_220113_R3.txt
Sample Weight (mg):	4.71
Heating Rate (C/s):	0.5
Combustor Temp (C):	900
N2 Flow Rate (cc/min):	80
O2 Flow Rate (cc/min):	20
Calibration File:	C:\MCC\MCC Cal\Coeff1 JN10440_30_210304.txt.txt
T Correction Coefficients:	0	1.024463	0
Time Shift (s):	14
*
Time (s)	Temperature (C)	N2 flow rate (cc/min)	O2 flow rate (cc/min)	Flow Rate (cc/min)	Oxygen (%)	HRR (W/g)	Heating rate (C/s)
0.000	112.749	80.010	19.992	104.326	20.106	-0.067	-0.027
2.000	112.725	80.011	19.994	104.323	20.106	-0.100	-0.005
3.999	112.729	80.011	19.994	104.313	20.107	-0.191	-0.007
6.000	112.732	80.011	19.992	104.324	20.109	-0.299	0.011
8.000	112.720	80.010	19.993	104.313	20.111	-0.440	-0.021
9.999	112.697	80.009	19.993	104.320	20.106	-0.105	-0.022
12.000	112.731	80.010	19.993	104.332	20.106	-0.123	-0.025
13.999	112.732	80.009	19.994	104.325	20.106	-0.090	0.006
15.999	112.743	80.010	19.994	104.293	20.104	0.057	-0.022
18.000	112.831	80.009	19.994	104.322	20.103	0.082	0.030
20.000	112.862	80.009	19.993	104.336	20.102	0.171	0.046
21.999	112.880	80.010	19.993	104.360	20.099	0.370	0.004
23.999	112.949	80.011	19.997	104.387	20.096	0.583	0.041
25.999	113.029	80.012	19.994	104.405	20.091	0.968	0.058
27.999	113.145	80.011	19.995	104.414	20.089	1.076	0.077
29.999	113.277	80.010	19.993	104.403	20.085	1.331	0.065
31.999	113.457	80.008	19.995	104.419	20.082	1.538	0.100
33.999	113.673	80.009	19.994	104.449	20.083	1.498	0.130
35.999	113.878	80.010	19.994	104.446	20.084	1.436	0.090
38.000	114.091	80.009	19.994	104.460	20.083	1.467	0.111
39.999	114.351	80.012	19.993	104.476	20.080	1.707	0.126
41.999	114.636	80.010	19.993	104.491	20.082	1.586	0.116
43.999	114.925	80.011	19.993	104.490	20.081	1.655	0.134
45.999	115.212	80.010	19.994	104.499	20.080	1.700	0.122
47.999	115.550	80.010	19.994	104.494	20.079	1.751	0.176
49.999	115.937	80.010	19.993	104.502	20.078	1.834	0.165
51.999	116.333	80.012	19.993	104.511	20.076	1.960	0.180
53.999	116.675	80.012	19.993	104.521	20.072	2.250	0.190
55.999	117.125	80.011	19.994	104.526	20.075	2.043	0.225
57.999	117.568	80.010	19.993	104.524	20.077	1.893	0.214
60.000	118.048	80.007	19.994	104.521	20.074	2.131	0.226
61.999	118.528	80.009	19.993	104.522	20.072	2.250	0.239
63.999	119.024	80.010	19.993	104.523	20.073	2.219	0.252
65.999	119.538	80.008	19.993	104.524	20.074	2.108	0.262
67.999	120.069	80.009	19.993	104.524	20.073	2.175	0.272
69.999	120.629	80.008	19.992	104.525	20.071	2.337	0.288
71.999	121.147	80.009	19.994	104.527	20.073	2.206	0.292
73.999	121.685	80.010	19.993	104.528	20.072	2.289	0.270
75.999	122.312	80.009	19.996	104.530	20.072	2.260	0.321
77.999	122.919	80.011	19.994	104.531	20.071	2.354	0.303
80.000	123.486	80.010	19.994	104.535	20.067	2.629	0.300
81.999	124.083	80.010	19.994	104.539	20.069	2.475	0.289
83.999	124.777	80.009	19.993	104.548	20.070	2.367	0.353
85.999	125.422	80.009	19.994	104.535	20.068	2.517	0.312
88.000	126.084	80.009	19.993	104.537	20.067	2.594	0.341
89.999	126.776	80.008	19.993	104.551	20.068	2.540	0.345
91.999	127.447	80.009	19.993	104.553	20.068	2.534	0.351
93.999	128.111	80.009	19.993	104.541	20.067	2.604	0.340
95.999	128.849	80.009	19.993	104.540	20.065	2.719	0.344
97.999	129.563	80.009	19.993	104.548	20.069	2.483	0.371
99.999	130.313	80.010	19.993	104.544	20.071	2.334	0.369
102.000	131.038	80.010	19.992	104.541	20.065	2.775	0.414
104.000	131.802	80.011	19.992	104.542	20.066	2.683	0.393
105.999	132.556	80.012	19.993	104.557	20.067	2.593	0.382
107.999	133.262	80.010	19.993	104.565	20.067	2.625	0.359
109.999	134.083	80.010	19.993	104.566	20.064	2.798	0.403
111.999	134.868	80.008	19.993	104.569	20.062	2.940	0.371
113.999	135.672	80.010	19.993	104.568	20.065	2.735	0.400
115.999	136.462	80.009	19.993	104.568	20.062	2.963	0.387
117.999	137.298	80.009	19.993	104.568	20.062	2.938	0.393
120.000	138.137	80.008	19.992	104.567	20.068	2.548	0.412
121.999	139.007	80.009	19.994	104.569	20.065	2.775	0.432
123.999	139.861	80.010	19.994	104.565	20.065	2.719	0.416
125.999	140.713	80.010	19.994	104.565	20.066	2.692	0.459
127.999	141.596	80.011	19.995	104.564	20.067	2.619	0.455
129.999	142.496	80.011	19.993	104.564	20.064	2.840	0.457
131.999	143.378	80.011	19.993	104.565	20.062	2.961	0.480
133.999	144.301	80.011	19.994	104.563	20.066	2.673	0.446
135.999	145.233	80.011	19.993	104.566	20.066	2.663	0.469
137.999	146.176	80.010	19.993	104.564	20.064	2.815	0.427
139.999	147.053	80.010	19.993	104.564	20.066	2.654	0.458
141.999	148.014	80.009	19.995	104.564	20.066	2.665	0.475
143.999	148.945	80.008	19.994	104.564	20.064	2.783	0.501
145.999	149.896	80.007	19.995	104.564	20.065	2.719	0.499
147.999	150.889	80.008	19.995	104.564	20.065	2.744	0.482
149.999	151.867	80.008	19.995	104.564	20.065	2.733	0.487
152.000	152.834	80.008	19.995	104.564	20.062	2.976	0.503
153.999	153.803	80.008	19.994	104.566	20.065	2.723	0.482
155.999	154.751	80.009	19.994	104.566	20.063	2.848	0.454
158.000	155.726	80.009	19.994	104.565	20.062	2.921	0.459
159.999	156.727	80.009	19.993	104.566	20.063	2.898	0.494
161.999	157.670	80.009	19.993	104.569	20.063	2.848	0.476
163.999	158.696	80.009	19.993	104.569	20.060	3.088	0.503
165.999	159.682	80.008	19.993	104.569	20.061	3.030	0.476
167.999	160.673	80.009	19.993	104.568	20.059	3.180	0.531
169.999	161.671	80.009	19.993	104.567	20.059	3.161	0.478
172.000	162.660	80.009	19.994	104.565	20.062	2.948	0.451
173.999	163.650	80.009	19.994	104.565	20.062	2.965	0.505
175.999	164.691	80.008	19.993	104.561	20.062	2.951	0.520
177.999	165.714	80.007	19.994	104.564	20.060	3.118	0.500
179.999	166.736	80.007	19.992	104.567	20.057	3.311	0.505
181.999	167.715	80.007	19.993	104.567	20.062	2.916	0.490
183.999	168.714	80.008	19.993	104.562	20.058	3.221	0.545
185.999	169.747	80.010	19.993	104.553	20.060	3.110	0.534
187.999	170.731	80.008	19.993	104.554	20.058	3.217	0.502
189.999	171.742	80.011	19.992	104.548	20.057	3.317	0.500
191.999	172.749	80.011	19.993	104.545	20.056	3.376	0.511
194.000	173.718	80.011	19.993	104.544	20.057	3.290	0.486
195.999	174.754	80.012	19.993	104.545	20.056	3.384	0.523
197.999	175.715	80.011	19.993	104.540	20.057	3.273	0.469
199.999	176.760	80.011	19.993	104.541	20.054	3.485	0.504
202.000	177.680	80.010	19.993	104.532	20.056	3.332	0.447
203.999	178.744	80.011	19.994	104.535	20.056	3.334	0.508
205.999	179.752	80.010	19.994	104.529	20.056	3.380	0.512
207.999	180.726	80.011	19.993	104.529	20.054	3.489	0.498
209.999	181.739	80.012	19.994	104.530	20.053	3.560	0.493
211.999	182.748	80.010	19.995	104.527	20.053	3.560	0.469
213.999	183.729	80.012	19.994	104.526	20.056	3.374	0.480
216.000	184.799	80.012	19.994	104.526	20.047	3.957	0.531
217.999	185.834	80.012	19.995	104.528	20.048	3.936	0.522
219.999	186.810	80.012	19.994	104.524	20.050	3.775	0.514
222.000	187.802	80.011	19.995	104.526	20.045	4.122	0.485
224.000	188.781	80.010	19.992	104.527	20.046	4.078	0.500
226.000	189.763	80.009	19.994	104.528	20.043	4.289	0.474
228.000	190.799	80.009	19.993	104.529	20.042	4.349	0.509
229.999	191.731	80.009	19.993	104.529	20.036	4.748	0.463
231.999	192.724	80.009	19.993	104.529	20.038	4.631	0.489
233.999	193.719	80.009	19.993	104.529	20.037	4.673	0.500
236.000	194.695	80.009	19.994	104.528	20.038	4.634	0.466
238.000	195.648	80.008	19.994	104.529	20.035	4.790	0.479
239.999	196.622	80.008	19.994	104.529	20.037	4.686	0.512
241.999	197.599	80.009	19.995	104.529	20.033	4.949	0.464
243.999	198.591	80.009	19.994	104.528	20.031	5.066	0.506
245.999	199.533	80.008	19.995	104.527	20.030	5.199	0.454
247.999	200.488	80.009	19.995	104.528	20.029	5.233	0.486
249.999	201.474	80.007	19.995	104.529	20.025	5.511	0.491
251.999	202.479	80.010	19.994	104.529	20.027	5.350	0.501
253.999	203.480	80.009	19.996	104.529	20.021	5.783	0.530
255.999	204.436	80.009	19.993	104.530	20.019	5.939	0.459
257.999	205.430	80.009	19.993	104.529	20.013	6.328	0.510
259.999	206.448	80.008	19.994	104.528	20.012	6.399	0.492
261.999	207.486	80.007	19.993	104.528	20.009	6.607	0.495
263.999	208.479	80.008	19.993	104.528	20.004	6.945	0.471
266.000	209.496	80.009	19.994	104.526	20.004	6.935	0.525
267.999	210.491	80.009	19.994	104.521	20.002	7.131	0.506
269.999	211.468	80.009	19.994	104.519	19.996	7.498	0.485
271.999	212.427	80.011	19.994	104.519	19.999	7.315	0.502
273.999	213.441	80.011	19.994	104.512	19.993	7.747	0.492
275.999	214.450	80.011	19.993	104.509	19.985	8.273	0.498
277.999	215.391	80.010	19.993	104.511	19.984	8.327	0.474
280.000	216.380	80.011	19.993	104.519	19.984	8.379	0.471
281.999	217.394	80.011	19.994	104.518	19.974	9.018	0.499
284.000	218.356	80.010	19.994	104.511	19.972	9.165	0.514
286.000	219.320	80.010	19.995	104.517	19.972	9.176	0.480
287.999	220.280	80.008	19.994	104.524	19.963	9.828	0.493
289.999	221.284	80.010	19.993	104.526	19.959	10.101	0.475
292.000	222.279	80.010	19.993	104.527	19.953	10.508	0.506
293.999	223.302	80.009	19.993	104.526	19.945	11.070	0.502
295.999	224.237	80.010	19.992	104.520	19.941	11.300	0.495
297.999	225.227	80.010	19.994	104.519	19.937	11.584	0.469
299.999	226.263	80.011	19.992	104.524	19.930	12.089	0.498
301.999	227.284	80.012	19.994	104.527	19.926	12.371	0.519
303.999	228.251	80.011	19.994	104.520	19.917	12.994	0.485
305.999	229.280	80.009	19.993	104.528	19.909	13.572	0.498
308.000	230.229	80.009	19.993	104.528	19.908	13.600	0.484
309.999	231.306	80.008	19.994	104.527	19.894	14.589	0.516
311.999	232.294	80.008	19.994	104.526	19.891	14.766	0.507
314.000	233.281	80.008	19.994	104.530	19.882	15.435	0.507
315.999	234.320	80.008	19.993	104.526	19.874	15.968	0.534
317.999	235.305	80.008	19.994	104.528	19.868	16.398	0.534
319.999	236.323	80.009	19.994	104.523	19.858	17.089	0.505
322.000	237.351	80.008	19.994	104.523	19.850	17.651	0.523
324.000	238.406	80.008	19.994	104.519	19.841	18.212	0.538
325.999	239.345	80.009	19.994	104.516	19.833	18.802	0.500
327.999	240.335	80.010	19.994	104.504	19.829	19.097	0.496
329.999	241.383	80.007	19.995	104.510	19.817	19.895	0.529
331.999	242.392	80.009	19.994	104.515	19.813	20.217	0.525
333.999	243.387	80.009	19.994	104.503	19.804	20.789	0.473
335.999	244.374	80.007	19.994	104.493	19.795	21.431	0.491
337.999	245.380	80.007	19.995	104.491	19.786	22.081	0.506
339.999	246.351	80.007	19.994	104.492	19.775	22.796	0.507
341.999	247.371	80.008	19.995	104.495	19.768	23.312	0.504
344.000	248.372	80.008	19.994	104.492	19.759	23.903	0.515
345.999	249.345	80.008	19.995	104.493	19.747	24.757	0.528
348.000	250.304	80.009	19.994	104.490	19.738	25.409	0.483
349.999	251.279	80.009	19.994	104.491	19.729	25.983	0.461
352.000	252.249	80.009	19.992	104.489	19.716	26.867	0.473
353.999	253.222	80.010	19.993	104.491	19.710	27.311	0.466
356.000	254.173	80.011	19.993	104.492	19.700	28.027	0.482
357.999	255.132	80.010	19.992	104.496	19.691	28.647	0.484
360.000	256.049	80.009	19.993	104.492	19.680	29.383	0.466
361.999	257.022	80.010	19.993	104.505	19.670	30.081	0.458
363.999	258.000	80.009	19.992	104.497	19.661	30.702	0.509
366.000	258.894	80.010	19.993	104.505	19.650	31.477	0.439
367.999	259.874	80.010	19.993	104.495	19.642	32.005	0.432
369.999	260.803	80.010	19.993	104.497	19.629	32.926	0.455
371.999	261.745	80.008	19.994	104.496	19.614	33.944	0.467
373.999	262.721	80.009	19.993	104.495	19.605	34.590	0.472
375.999	263.662	80.010	19.993	104.498	19.594	35.365	0.477
377.999	264.652	80.010	19.992	104.511	19.582	36.217	0.483
379.999	265.566	80.009	19.993	104.514	19.569	37.060	0.468
382.000	266.554	80.010	19.993	104.511	19.557	37.905	0.461
383.999	267.499	80.011	19.992	104.520	19.547	38.639	0.473
385.999	268.464	80.011	19.992	104.520	19.535	39.467	0.494
387.999	269.442	80.012	19.992	104.519	19.521	40.424	0.504
389.999	270.428	80.010	19.993	104.524	19.510	41.204	0.487
392.000	271.425	80.009	19.993	104.523	19.498	41.979	0.499
393.999	272.418	80.008	19.993	104.518	19.487	42.762	0.491
395.999	273.366	80.009	19.993	104.522	19.474	43.649	0.461
397.999	274.345	80.009	19.992	104.526	19.466	44.241	0.489
399.999	275.383	80.009	19.992	104.526	19.460	44.610	0.518
401.999	276.356	80.008	19.993	104.526	19.451	45.252	0.487
403.999	277.399	80.008	19.995	104.528	19.438	46.140	0.544
405.999	278.348	80.007	19.995	104.525	19.437	46.243	0.481
407.999	279.321	80.008	19.994	104.524	19.429	46.803	0.511
409.999	280.349	80.010	19.994	104.525	19.426	46.970	0.503
411.999	281.358	80.010	19.993	104.527	19.418	47.567	0.522
413.999	282.392	80.009	19.993	104.527	19.411	48.039	0.513
415.999	283.426	80.008	19.993	104.535	19.408	48.230	0.524
417.999	284.425	80.009	19.993	104.536	19.408	48.253	0.520
419.999	285.487	80.007	19.992	104.532	19.402	48.654	0.524
421.999	286.481	80.009	19.993	104.535	19.401	48.751	0.512
423.999	287.513	80.007	19.994	104.546	19.402	48.645	0.513
425.999	288.575	80.007	19.994	104.554	19.401	48.747	0.491
427.999	289.655	80.008	19.994	104.560	19.403	48.599	0.528
430.000	290.700	80.007	19.994	104.564	19.406	48.393	0.526
431.999	291.738	80.007	19.994	104.563	19.410	48.139	0.514
433.999	292.773	80.007	19.995	104.554	19.418	47.533	0.516
435.999	293.807	80.009	19.994	104.563	19.430	46.733	0.538
437.999	294.852	80.009	19.994	104.561	19.440	46.057	0.522
440.000	295.871	80.010	19.994	104.557	19.451	45.294	0.528
441.999	296.910	80.010	19.994	104.565	19.467	44.211	0.517
443.999	297.976	80.011	19.993	104.567	19.481	43.177	0.530
446.000	299.006	80.010	19.992	104.569	19.498	42.058	0.529
447.999	300.045	80.009	19.994	104.583	19.517	40.705	0.499
449.999	301.099	80.010	19.993	104.588	19.536	39.391	0.547
451.999	302.124	80.010	19.992	104.588	19.559	37.803	0.537
453.999	303.134	80.010	19.993	104.602	19.579	36.411	0.492
455.999	304.197	80.011	19.992	104.603	19.602	34.807	0.524
457.999	305.226	80.010	19.992	104.603	19.629	32.941	0.515
459.999	306.267	80.011	19.994	104.598	19.653	31.300	0.536
461.999	307.286	80.011	19.992	104.603	19.680	29.386	0.509
463.999	308.293	80.012	19.993	104.598	19.700	28.030	0.504
465.999	309.363	80.012	19.993	104.593	19.727	26.165	0.527
467.999	310.406	80.012	19.993	104.582	19.753	24.330	0.514
469.999	311.426	80.011	19.993	104.567	19.781	22.413	0.503
472.000	312.484	80.012	19.993	104.571	19.799	21.133	0.552
474.000	313.554	80.010	19.993	104.567	19.822	19.554	0.517
476.000	314.552	80.009	19.994	104.566	19.846	17.905	0.498
477.999	315.549	80.009	19.992	104.567	19.865	16.615	0.494
479.999	316.592	80.008	19.991	104.564	19.886	15.111	0.511
481.999	317.627	80.010	19.993	104.566	19.906	13.784	0.501
483.999	318.681	80.009	19.994	104.558	19.921	12.701	0.503
486.000	319.704	80.008	19.992	104.547	19.937	11.601	0.512
487.999	320.740	80.009	19.993	104.533	19.951	10.662	0.507
490.000	321.787	80.010	19.994	104.530	19.960	9.995	0.542
491.999	322.804	80.008	19.994	104.528	19.969	9.392	0.537
493.999	323.825	80.009	19.993	104.527	19.982	8.504	0.521
495.999	324.842	80.008	19.992	104.526	19.991	7.864	0.510
497.999	325.897	80.008	19.993	104.514	20.000	7.228	0.517
500.000	326.940	80.006	19.993	104.499	20.005	6.911	0.525
501.999	327.952	80.008	19.994	104.491	20.016	6.150	0.508
504.000	328.945	80.009	19.993	104.489	20.020	5.850	0.511
505.999	329.987	80.008	19.994	104.489	20.024	5.557	0.523
507.999	331.005	80.008	19.993	104.480	20.034	4.880	0.528
510.000	332.013	80.008	19.993	104.457	20.037	4.673	0.509
512.000	333.060	80.009	19.993	104.461	20.042	4.347	0.504
514.000	334.088	80.008	19.993	104.452	20.048	3.949	0.504
516.000	335.087	80.010	19.992	104.450	20.051	3.728	0.499
517.999	336.119	80.009	19.994	104.446	20.054	3.481	0.504
520.000	337.137	80.009	19.993	104.446	20.054	3.533	0.493
522.000	338.160	80.011	19.994	104.447	20.055	3.419	0.513
524.000	339.205	80.011	19.993	104.448	20.059	3.178	0.524
525.999	340.198	80.009	19.993	104.446	20.062	2.917	0.502
527.999	341.223	80.008	19.995	104.444	20.065	2.733	0.546
530.000	342.221	80.009	19.995	104.448	20.069	2.476	0.498
532.000	343.202	80.009	19.994	104.443	20.068	2.549	0.519
534.000	344.167	80.009	19.994	104.445	20.070	2.408	0.486
536.000	345.177	80.009	19.994	104.446	20.070	2.394	0.503
538.000	346.174	80.008	19.993	104.444	20.074	2.139	0.502
540.000	347.159	80.008	19.991	104.445	20.077	1.940	0.510
542.000	348.142	80.009	19.994	104.448	20.078	1.806	0.499
544.000	349.154	80.009	19.993	104.448	20.080	1.723	0.503
546.000	350.115	80.012	19.994	104.452	20.075	2.023	0.496
548.000	351.127	80.011	19.992	104.452	20.083	1.522	0.509
550.000	352.116	80.012	19.993	104.455	20.080	1.697	0.509
552.000	353.135	80.010	19.994	104.459	20.079	1.766	0.519
553.999	354.139	80.010	19.992	104.460	20.080	1.729	0.504
556.000	355.162	80.009	19.992	104.461	20.084	1.411	0.499
558.000	356.143	80.008	19.993	104.471	20.083	1.478	0.499
560.000	357.147	80.007	19.993	104.464	20.084	1.444	0.459
562.000	358.196	80.008	19.993	104.476	20.085	1.331	0.530
564.000	359.150	80.010	19.993	104.477	20.086	1.304	0.482
566.000	360.173	80.009	19.994	104.475	20.084	1.402	0.503
568.000	361.138	80.008	19.992	104.474	20.082	1.559	0.490
570.000	362.187	80.008	19.992	104.469	20.084	1.407	0.521
572.000	363.187	80.008	19.993	104.488	20.081	1.611	0.520
574.000	364.175	80.009	19.992	104.489	20.084	1.430	0.484
575.999	365.197	80.009	19.993	104.486	20.086	1.284	0.514
578.000	366.218	80.010	19.993	104.480	20.084	1.430	0.529
580.000	367.220	80.008	19.992	104.482	20.086	1.275	0.517
581.999	368.220	80.009	19.992	104.485	20.084	1.457	0.513
584.000	369.278	80.009	19.993	104.482	20.083	1.473	0.504
586.000	370.275	80.007	19.993	104.470	20.087	1.214	0.545
588.000	371.307	80.008	19.993	104.467	20.086	1.286	0.519
589.999	372.316	80.009	19.993	104.473	20.089	1.062	0.492
592.000	373.372	80.007	19.994	104.470	20.088	1.179	0.511
593.999	374.432	80.008	19.993	104.473	20.089	1.089	0.524
596.000	375.445	80.007	19.993	104.473	20.087	1.216	0.536
598.000	376.424	80.008	19.994	104.472	20.085	1.332	0.506
600.000	377.472	80.009	19.993	104.476	20.085	1.378	0.503
601.999	378.510	80.010	19.994	104.484	20.088	1.139	0.527
603.999	379.572	80.011	19.993	104.480	20.088	1.171	0.539
605.999	380.589	80.010	19.994	104.477	20.087	1.206	0.532
608.000	381.634	80.010	19.993	104.467	20.085	1.350	0.529
610.000	382.669	80.009	19.995	104.471	20.084	1.436	0.521
612.000	383.712	80.010	19.993	104.472	20.085	1.388	0.504
613.999	384.763	80.009	19.994	104.466	20.084	1.447	0.531
615.999	385.777	80.008	19.994	104.476	20.085	1.359	0.500
618.000	386.841	80.008	19.994	104.476	20.085	1.386	0.518
620.000	387.919	80.009	19.995	104.465	20.083	1.499	0.537
622.000	388.958	80.009	19.994	104.467	20.085	1.326	0.533
624.000	389.963	80.010	19.994	104.477	20.079	1.744	0.483
626.000	391.026	80.011	19.994	104.461	20.078	1.808	0.531
627.999	392.046	80.011	19.995	104.458	20.079	1.744	0.506
630.000	393.063	80.010	19.993	104.455	20.078	1.846	0.514
632.000	394.121	80.009	19.994	104.455	20.077	1.902	0.501
634.000	395.163	80.010	19.993	104.456	20.081	1.604	0.501
635.999	396.203	80.009	19.992	104.459	20.074	2.151	0.494
637.999	397.165	80.009	19.992	104.457	20.071	2.312	0.501
639.999	398.188	80.009	19.993	104.456	20.069	2.429	0.505
642.000	399.237	80.009	19.992	104.465	20.070	2.377	0.507
644.000	400.227	80.008	19.994	104.453	20.068	2.534	0.494
646.000	401.203	80.009	19.994	104.452	20.069	2.461	0.513
647.999	402.234	80.008	19.993	104.453	20.064	2.833	0.518
650.000	403.220	80.008	19.996	104.459	20.058	3.213	0.542
651.999	404.225	80.008	19.994	104.458	20.057	3.284	0.499
654.000	405.216	80.010	19.993	104.450	20.057	3.267	0.470
656.000	406.177	80.009	19.994	104.452	20.053	3.537	0.480
658.000	407.194	80.009	19.994	104.455	20.051	3.740	0.480
659.999	408.219	80.008	19.992	104.453	20.049	3.846	0.483
662.000	409.203	80.009	19.994	104.453	20.044	4.186	0.478
664.000	410.195	80.009	19.993	104.454	20.044	4.213	0.502
665.999	411.220	80.008	19.994	104.460	20.040	4.457	0.506
668.000	412.218	80.008	19.993	104.455	20.031	5.107	0.508
669.999	413.159	80.009	19.992	104.461	20.028	5.306	0.493
672.000	414.183	80.008	19.993	104.461	20.026	5.421	0.512
674.000	415.123	80.008	19.993	104.452	20.017	6.054	0.480
676.000	416.167	80.008	19.993	104.451	20.015	6.226	0.522
678.000	417.150	80.010	19.994	104.452	20.009	6.596	0.510
680.000	418.185	80.009	19.994	104.456	19.999	7.280	0.506
682.000	419.159	80.009	19.992	104.453	20.000	7.250	0.496
683.999	420.173	80.008	19.994	104.455	19.992	7.802	0.502
685.999	421.200	80.009	19.994	104.455	19.983	8.429	0.504
688.000	422.140	80.008	19.994	104.452	19.978	8.785	0.498
690.000	423.180	80.009	19.994	104.452	19.974	9.023	0.492
692.000	424.223	80.009	19.994	104.453	19.967	9.546	0.514
694.000	425.205	80.010	19.993	104.454	19.957	10.202	0.504
696.000	426.210	80.008	19.994	104.453	19.951	10.660	0.495
697.999	427.224	80.009	19.993	104.453	19.943	11.158	0.503
699.999	428.242	80.009	19.994	104.456	19.937	11.618	0.518
701.999	429.241	80.009	19.993	104.455	19.926	12.341	0.499
704.000	430.248	80.011	19.993	104.453	19.916	13.056	0.453
706.000	431.274	80.011	19.993	104.452	19.905	13.786	0.494
707.999	432.300	80.009	19.994	104.450	19.895	14.476	0.532
709.999	433.324	80.010	19.993	104.448	19.883	15.363	0.524
712.000	434.375	80.011	19.994	104.451	19.871	16.142	0.539
714.000	435.379	80.010	19.994	104.453	19.860	16.912	0.489
715.999	436.399	80.010	19.993	104.447	19.849	17.692	0.507
717.999	437.419	80.009	19.995	104.447	19.834	18.706	0.506
720.000	438.444	80.006	19.994	104.448	19.822	19.538	0.506
722.000	439.468	80.008	19.997	104.450	19.808	20.546	0.533
724.000	440.487	80.008	19.995	104.448	19.792	21.610	0.527
726.000	441.527	80.009	19.993	104.448	19.779	22.560	0.490
728.000	442.524	80.008	19.995	104.449	19.761	23.791	0.486
729.999	443.567	80.008	19.993	104.449	19.747	24.723	0.505
732.000	444.558	80.008	19.993	104.448	19.728	26.047	0.508
733.999	445.605	80.007	19.995	104.446	19.713	27.083	0.516
735.999	446.552	80.009	19.993	104.448	19.699	28.054	0.460
737.999	447.572	80.007	19.993	104.446	19.681	29.296	0.512
739.999	448.604	80.007	19.994	104.449	19.664	30.494	0.512
742.000	449.557	80.008	19.995	104.449	19.643	31.957	0.512
744.000	450.521	80.009	19.993	104.448	19.628	32.933	0.490
746.000	451.495	80.008	19.993	104.448	19.606	34.464	0.502
748.000	452.475	80.009	19.992	104.449	19.586	35.860	0.487
750.000	453.476	80.008	19.994	104.447	19.570	36.983	0.525
752.000	454.438	80.008	19.992	104.436	19.553	38.168	0.470
753.999	455.416	80.007	19.993	104.430	19.529	39.799	0.470
756.000	456.356	80.009	19.993	104.430	19.511	41.079	0.463
757.999	457.327	80.008	19.992	104.431	19.489	42.552	0.488
760.000	458.292	80.008	19.992	104.423	19.469	43.980	0.475
762.000	459.301	80.008	19.993	104.429	19.444	45.655	0.502
763.999	460.267	80.009	19.993	104.419	19.419	47.399	0.531
766.000	461.188	80.011	19.991	104.416	19.399	48.828	0.488
767.999	462.193	80.009	19.993	104.413	19.374	50.512	0.498
769.999	463.146	80.009	19.992	104.415	19.349	52.278	0.454
772.000	464.126	80.009	19.993	104.412	19.322	54.148	0.479
774.000	465.110	80.010	19.992	104.411	19.289	56.384	0.509
776.000	466.059	80.010	19.993	104.410	19.259	58.471	0.498
778.000	467.031	80.008	19.993	104.409	19.228	60.606	0.485
780.000	468.074	80.006	19.993	104.409	19.193	63.006	0.474
782.000	469.075	80.010	19.994	104.409	19.156	65.579	0.503
784.000	470.111	80.010	19.995	104.405	19.120	68.045	0.534
785.999	471.076	80.010	19.993	104.403	19.084	70.586	0.504
788.000	472.067	80.009	19.993	104.399	19.040	73.591	0.499
790.000	473.097	80.011	19.993	104.397	18.998	76.526	0.519
792.000	474.147	80.012	19.993	104.392	18.949	79.909	0.493
794.000	475.215	80.010	19.994	104.371	18.903	83.068	0.510
795.999	476.224	80.011	19.992	104.369	18.847	86.896	0.500
798.000	477.253	80.010	19.993	104.368	18.790	90.845	0.510
799.999	478.312	80.008	19.994	104.369	18.737	94.492	0.524
802.000	479.361	80.008	19.993	104.368	18.682	98.283	0.530
803.999	480.379	80.007	19.995	104.348	18.625	102.202	0.498
806.000	481.452	80.007	19.994	104.334	18.568	106.149	0.497
807.999	482.515	80.007	19.994	104.330	18.511	110.064	0.508
810.000	483.566	80.007	19.994	104.327	18.454	113.959	0.548
812.000	484.634	80.007	19.995	104.300	18.400	117.718	0.564
814.000	485.671	80.006	19.995	104.296	18.350	121.174	0.522
816.000	486.776	80.007	19.993	104.289	18.304	124.273	0.529
817.999	487.821	80.007	19.994	104.271	18.263	127.139	0.497
819.999	488.918	80.006	19.992	104.261	18.228	129.563	0.536
821.999	490.010	80.008	19.992	104.255	18.210	130.825	0.562
824.000	491.064	80.007	19.993	104.249	18.196	131.728	0.513
826.000	492.161	80.007	19.992	104.223	18.198	131.645	0.556
828.000	493.251	80.009	19.993	104.218	18.213	130.636	0.537
830.000	494.336	80.008	19.992	104.219	18.244	128.480	0.572
832.000	495.426	80.008	19.994	104.218	18.288	125.457	0.542
833.999	496.494	80.008	19.993	104.218	18.348	121.309	0.542
836.000	497.563	80.008	19.994	104.219	18.423	116.169	0.533
838.000	498.636	80.008	19.993	104.240	18.512	110.010	0.545
840.000	499.709	80.007	19.992	104.250	18.614	102.991	0.530
842.000	500.767	80.009	19.994	104.252	18.724	95.436	0.546
844.000	501.838	80.008	19.993	104.255	18.848	86.892	0.537
846.000	502.894	80.009	19.994	104.276	18.970	78.426	0.540
848.000	503.939	80.010	19.993	104.296	19.095	69.795	0.525
850.000	505.063	80.009	19.993	104.306	19.215	61.530	0.555
852.000	506.087	80.010	19.992	104.331	19.337	53.073	0.520
853.999	507.135	80.010	19.992	104.346	19.448	45.436	0.516
856.000	508.189	80.011	19.992	104.367	19.551	38.296	0.505
858.000	509.257	80.009	19.992	104.380	19.642	32.021	0.504
859.999	510.329	80.011	19.993	104.400	19.722	26.468	0.533
862.000	511.382	80.012	19.993	104.410	19.789	21.828	0.511
864.000	512.385	80.010	19.993	104.416	19.840	18.283	0.515
865.999	513.398	80.010	19.993	104.421	19.906	13.725	0.474
868.000	514.564	80.010	19.993	104.443	19.933	11.846	0.541
870.000	515.636	80.011	19.993	104.426	19.961	9.915	0.514
871.999	516.601	80.010	19.994	104.438	19.984	8.311	0.517
874.000	517.587	80.011	19.994	104.429	20.005	6.914	0.525
875.999	518.741	80.011	19.994	104.412	20.016	6.132	0.403
878.000	519.496	80.010	19.994	104.415	20.029	5.244	0.370
880.000	521.000	80.008	19.994	104.416	20.035	4.807	0.468
882.000	522.297	80.008	19.993	104.425	20.045	4.146	1.259
884.000	522.976	80.008	19.993	104.424	20.053	3.567	-0.029
885.999	523.921	80.009	19.993	104.423	20.059	3.153	0.567
888.000	524.981	80.009	19.993	104.425	20.061	2.983	0.559
890.000	526.135	80.009	19.993	104.437	20.072	2.273	0.577
891.999	527.124	80.008	19.993	104.445	20.070	2.361	0.531
894.000	528.202	80.007	19.994	104.448	20.076	1.965	0.512
896.000	529.316	80.009	19.994	104.451	20.078	1.823	0.507
898.000	530.431	80.007	19.994	104.450	20.082	1.572	0.561
900.000	531.572	80.008	19.994	104.444	20.083	1.514	0.534
902.000	532.678	80.009	19.995	104.446	20.087	1.234	0.582
904.000	533.860	80.006	19.995	104.446	20.085	1.330	0.558
906.000	534.963	80.008	19.995	104.447	20.090	1.004	0.561
908.000	536.094	80.007	19.995	104.448	20.093	0.774	0.620
909.999	537.245	80.008	19.993	104.447	20.091	0.930	0.556
911.999	538.388	80.007	19.993	104.446	20.092	0.897	0.555
914.000	539.527	80.008	19.994	104.447	20.096	0.619	0.564
916.000	540.661	80.007	19.994	104.449	20.098	0.466	0.552
918.000	541.795	80.008	19.994	104.449	20.097	0.491	0.583
919.999	542.998	80.008	19.993	104.449	20.098	0.437	0.576
922.000	544.124	80.008	19.995	104.449	20.098	0.439	0.577
923.999	545.248	80.009	19.994	104.448	20.101	0.274	0.568
926.000	546.422	80.011	19.993	104.448	20.101	0.224	0.609
927.999	547.601	80.010	19.994	104.449	20.105	-0.008	0.578
929.999	548.697	80.012	19.993	104.449	20.107	-0.167	0.568
931.999	549.830	80.009	19.993	104.449	20.106	-0.081	0.539
934.000	550.956	80.010	19.993	104.450	20.106	-0.111	0.557
935.999	552.109	80.009	19.993	104.450	20.104	0.010	0.537
937.999	553.265	80.010	19.993	104.450	20.107	-0.194	0.614
940.000	554.427	80.009	19.993	104.451	20.109	-0.276	0.592
941.999	555.538	80.009	19.992	104.451	20.110	-0.343	0.563
943.999	556.622	80.011	19.993	104.452	20.107	-0.186	0.526
945.999	557.762	80.009	19.993	104.453	20.109	-0.303	0.562
948.000	558.818	80.012	19.992	104.452	20.110	-0.393	0.530
950.000	559.934	80.010	19.993	104.453	20.108	-0.211	0.508
952.000	561.026	80.011	19.993	104.457	20.110	-0.353	0.546
954.000	562.115	80.010	19.993	104.457	20.109	-0.332	0.569
955.999	563.185	80.010	19.993	104.455	20.113	-0.554	0.539
958.000	564.208	80.010	19.993	104.467	20.115	-0.690	0.497
960.000	565.244	80.008	19.992	104.459	20.113	-0.590	0.481
961.999	566.367	80.008	19.994	104.468	20.113	-0.596	0.532
963.999	567.387	80.009	19.994	104.456	20.115	-0.719	0.484
966.000	568.461	80.008	19.994	104.457	20.113	-0.579	0.502
968.000	569.534	80.008	19.996	104.455	20.113	-0.600	0.540
969.999	570.568	80.008	19.994	104.463	20.112	-0.516	0.515
971.999	571.645	80.009	19.995	104.472	20.113	-0.558	0.524
974.000	572.682	80.008	19.994	104.479	20.115	-0.750	0.506
976.000	573.768	80.008	19.993	104.468	20.116	-0.765	0.524
977.999	574.844	80.008	19.994	104.474	20.115	-0.731	0.545
979.999	575.865	80.008	19.994	104.478	20.117	-0.884	0.541
981.999	576.864	80.010	19.994	104.474	20.113	-0.562	0.493
984.000	577.899	80.009	19.993	104.484	20.118	-0.915	0.505
985.999	578.962	80.009	19.995	104.479	20.119	-0.970	0.533
988.000	580.006	80.009	19.994	104.477	20.115	-0.700	0.520
989.999	580.977	80.008	19.994	104.479	20.115	-0.732	0.525
991.999	582.034	80.007	19.996	104.481	20.114	-0.682	0.511
994.000	583.051	80.006	19.995	104.482	20.115	-0.713	0.550
996.000	584.066	80.007	19.995	104.484	20.116	-0.757	0.507
997.999	585.082	80.007	19.995	104.478	20.114	-0.675	0.501
1000.000	586.172	80.008	19.995	104.479	20.117	-0.880	0.553
1002.000	587.119	80.009	19.995	104.476	20.118	-0.926	0.472
1004.000	588.138	80.008	19.994	104.458	20.120	-1.054	0.494
1006.000	589.186	80.009	19.994	104.457	20.120	-1.072	0.546
1008.000	590.160	80.008	19.993	104.452	20.123	-1.305	0.494
1009.999	591.214	80.009	19.994	104.451	20.120	-1.058	0.516
1012.000	592.209	80.009	19.994	104.452	20.122	-1.213	0.479
1014.000	593.242	80.009	19.993	104.450	20.120	-1.096	0.479
1016.000	594.292	80.008	19.993	104.450	20.120	-1.091	0.535
1017.999	595.329	80.008	19.993	104.449	20.120	-1.056	0.502
1019.999	596.335	80.006	19.992	104.450	20.121	-1.158	0.497
1021.999	597.387	80.008	19.995	104.450	20.124	-1.351	0.530
1023.999	598.366	80.008	19.994	104.450	20.125	-1.395	0.474
1025.999	599.372	80.008	19.994	104.444	20.124	-1.346	0.470
1027.999	600.398	80.010	19.995	104.445	20.126	-1.502	0.476
1029.999	601.387	80.010	19.993	104.446	20.125	-1.422	0.491
1031.999	602.395	80.011	19.994	104.440	20.124	-1.361	0.478
1034.000	603.425	80.012	19.993	104.439	20.124	-1.349	0.510
1036.000	604.449	80.012	19.993	104.447	20.129	-1.688	0.499
1038.000	605.482	80.010	19.994	104.439	20.125	-1.391	0.504
1039.999	606.466	80.011	19.993	104.427	20.126	-1.483	0.509
1042.000	607.498	80.010	19.994	104.448	20.126	-1.478	0.524
1044.000	608.484	80.008	19.993	104.446	20.127	-1.583	0.508
1045.999	609.454	80.008	19.993	104.433	20.126	-1.491	0.463
1048.000	610.515	80.010	19.993	104.424	20.125	-1.411	0.494
1049.999	611.555	80.007	19.994	104.426	20.128	-1.629	0.521
1052.000	612.518	80.008	19.993	104.439	20.126	-1.483	0.507
1053.999	613.555	80.008	19.995	104.437	20.129	-1.700	0.478
1056.000	614.560	80.008	19.994	104.439	20.127	-1.553	0.502
1057.999	615.549	80.008	19.993	104.441	20.128	-1.614	0.464
1060.000	616.578	80.008	19.994	104.431	20.126	-1.468	0.502
1061.999	617.596	80.008	19.994	104.438	20.125	-1.428	0.484
1064.000	618.592	80.008	19.994	104.441	20.128	-1.610	0.499
1066.000	619.619	80.008	19.994	104.448	20.130	-1.765	0.537
1067.999	620.632	80.008	19.993	104.450	20.127	-1.574	0.538
1069.999	621.638	80.009	19.995	104.449	20.127	-1.581	0.509
1072.000	622.673	80.007	19.993	104.450	20.126	-1.466	0.504
1074.000	623.683	80.008	19.992	104.450	20.128	-1.599	0.493
1076.000	624.684	80.008	19.993	104.449	20.129	-1.723	0.504
1078.000	625.716	80.008	19.994	104.448	20.132	-1.892	0.527
1080.000	626.738	80.008	19.993	104.451	20.128	-1.643	0.492
1081.999	627.779	80.007	19.995	104.453	20.131	-1.838	0.500
1084.000	628.798	80.007	19.994	104.453	20.128	-1.641	0.510
1085.999	629.787	80.008	19.995	104.451	20.130	-1.792	0.516
1088.000	630.829	80.009	19.994	104.449	20.128	-1.595	0.541
1089.999	631.876	80.009	19.994	104.448	20.129	-1.698	0.521
1092.000	632.881	80.010	19.995	104.447	20.127	-1.574	0.503
1093.999	633.904	80.011	19.994	104.447	20.131	-1.829	0.541
1096.000	634.938	80.009	19.994	104.446	20.127	-1.562	0.485
1098.000	635.974	80.009	19.994	104.446	20.129	-1.716	0.524
1100.000	637.003	80.009	19.993	104.447	20.127	-1.555	0.488
1102.000	638.005	80.010	19.993	104.449	20.126	-1.499	0.512
1104.000	639.053	80.011	19.994	104.449	20.129	-1.693	0.503
1106.000	640.067	80.008	19.994	104.452	20.127	-1.560	0.520
1107.999	641.113	80.009	19.992	104.450	20.128	-1.616	0.494
1109.999	642.110	80.009	19.994	104.450	20.128	-1.637	0.509
1112.000	643.149	80.012	19.993	104.452	20.127	-1.522	0.524
1114.000	644.122	80.011	19.993	104.452	20.125	-1.440	0.482
1115.999	645.169	80.012	19.993	104.451	20.125	-1.428	0.494
1117.999	646.125	80.012	19.994	104.452	20.126	-1.492	0.487
1120.000	647.183	80.011	19.994	104.456	20.126	-1.459	0.513
1121.999	648.226	80.010	19.992	104.459	20.126	-1.494	0.526
1124.000	649.238	80.010	19.994	104.451	20.129	-1.718	0.526
1126.000	650.263	80.008	19.993	104.466	20.128	-1.588	0.527
1128.000	651.298	80.009	19.993	104.476	20.126	-1.495	0.511
1130.000	652.317	80.009	19.993	104.475	20.127	-1.549	0.520
1132.000	653.344	80.009	19.995	104.475	20.131	-1.816	0.520
1134.000	654.375	80.008	19.994	104.481	20.129	-1.676	0.518
1135.999	655.410	80.008	19.993	104.484	20.126	-1.503	0.534
1138.000	656.472	80.008	19.993	104.468	20.131	-1.799	0.520
1140.000	657.494	80.006	19.991	104.473	20.126	-1.511	0.487
1142.000	658.492	80.007	19.993	104.489	20.128	-1.636	0.523
1144.000	659.513	80.008	19.993	104.472	20.126	-1.513	0.489
1146.000	660.538	80.008	19.993	104.484	20.119	-0.986	0.510
1147.999	661.559	80.007	19.994	104.486	20.125	-1.436	0.528
1150.000	662.556	80.007	19.993	104.486	20.126	-1.490	0.525
1152.000	663.577	80.009	19.994	104.484	20.129	-1.664	0.514
1154.000	664.561	80.007	19.994	104.484	20.125	-1.430	0.483
1156.000	665.581	80.007	19.994	104.485	20.122	-1.231	0.513
1157.999	666.592	80.008	19.995	104.486	20.125	-1.388	0.420
1160.000	667.866	80.007	19.994	104.487	20.130	-1.747	0.961
1162.000	668.967	80.009	19.994	104.485	20.128	-1.588	0.216
1164.000	669.752	80.009	19.993	104.489	20.125	-1.425	0.475
1166.000	670.585	80.008	19.994	104.487	20.128	-1.586	0.383
1168.000	671.678	80.010	19.994	104.483	20.126	-1.465	0.570
1170.000	671.959	80.007	19.994	104.488	20.127	-1.538	0.267
1172.000	673.720	80.011	19.994	104.481	20.125	-1.432	0.302
1174.000	674.710	80.010	19.995	104.483	20.128	-1.641	-0.071
1176.000	675.686	80.009	19.994	104.480	20.127	-1.553	0.506
1178.000	676.653	80.010	19.994	104.473	20.127	-1.581	0.500
1180.000	677.657	80.009	19.995	104.477	20.127	-1.566	0.515
1182.000	678.592	80.009	19.995	104.469	20.129	-1.662	0.440
1183.999	679.582	80.009	19.994	104.466	20.130	-1.779	0.473
1186.000	680.561	80.007	19.995	104.453	20.129	-1.712	0.472
1187.999	681.578	80.008	19.994	104.449	20.131	-1.852	0.512
1190.000	682.543	80.009	19.994	104.450	20.132	-1.907	0.488
1191.999	683.552	80.011	19.995	104.449	20.132	-1.903	0.500
1194.000	684.554	80.011	19.994	104.452	20.133	-1.981	0.540
1195.999	685.512	80.010	19.993	104.450	20.131	-1.846	0.486
1197.999	686.492	80.011	19.993	104.446	20.134	-2.031	0.477
1200.000	687.497	80.010	19.991	104.443	20.134	-2.037	0.501
1201.999	688.475	80.010	19.994	104.445	20.130	-1.732	0.509
1204.000	689.429	80.009	19.994	104.429	20.137	-2.213	0.461
1206.000	690.411	80.008	19.993	104.422	20.140	-2.445	0.487
1207.999	691.349	80.008	19.993	104.428	20.138	-2.342	0.457
1209.999	692.326	80.007	19.993	104.418	20.137	-2.244	0.489
1211.999	693.241	80.007	19.993	104.415	20.140	-2.416	0.476
1213.999	694.231	80.007	19.993	104.415	20.138	-2.278	0.513
1216.000	695.149	80.008	19.993	104.414	20.138	-2.332	0.446
1218.000	696.119	80.009	19.992	104.412	20.139	-2.366	0.481
1220.000	697.087	80.008	19.994	104.410	20.138	-2.303	0.472
1222.000	698.029	80.008	19.994	104.412	20.133	-1.997	0.456
1224.000	698.994	80.008	19.995	104.413	20.138	-2.338	0.466
1225.999	699.881	80.009	19.994	104.412	20.140	-2.449	0.464
1228.000	700.847	80.008	19.992	104.411	20.137	-2.255	0.458
1230.000	701.802	80.010	19.993	104.410	20.138	-2.342	0.479
1232.000	702.737	80.009	19.994	104.410	20.139	-2.376	0.488
1233.999	703.707	80.008	19.994	104.411	20.138	-2.336	0.448
1235.999	704.662	80.008	19.994	104.412	20.142	-2.562	0.499
1238.000	705.645	80.007	19.994	104.411	20.139	-2.368	0.500
1240.000	706.601	80.008	19.993	104.413	20.138	-2.326	0.474
1242.000	707.589	80.007	19.994	104.410	20.136	-2.154	0.500
1243.999	708.565	80.007	19.995	104.409	20.140	-2.464	0.484
1246.000	709.607	80.007	19.994	104.411	20.140	-2.470	0.526
1247.999	710.573	80.008	19.994	104.413	20.141	-2.510	0.476
1250.000	711.595	80.008	19.994	104.411	20.140	-2.441	0.524
1252.000	712.572	80.008	19.994	104.410	20.139	-2.388	0.496
1253.999	713.538	80.010	19.994	104.411	20.139	-2.403	0.490
1255.999	714.571	80.010	19.994	104.411	20.141	-2.495	0.503
1257.999	715.613	80.009	19.994	104.411	20.138	-2.313	0.503
1260.000	716.622	80.009	19.994	104.419	20.141	-2.526	0.495
1261.999	717.634	80.009	19.995	104.413	20.139	-2.361	0.505
1264.000	718.678	80.009	19.994	104.415	20.142	-2.585	0.532
1266.000	719.710	80.008	19.994	104.415	20.139	-2.372	0.531
1268.000	720.738	80.009	19.994	104.413	20.138	-2.296	0.516
1269.999	721.790	80.008	19.994	104.432	20.138	-2.330	0.509
1272.000	722.793	80.008	19.994	104.427	20.143	-2.625	0.538
1274.000	723.858	80.008	19.994	104.429	20.141	-2.505	0.552
1276.000	724.895	80.009	19.994	104.432	20.136	-2.181	0.534
1277.999	725.916	80.010	19.994	104.419	20.140	-2.447	0.516
1280.000	726.971	80.010	19.995	104.418	20.137	-2.213	0.518
1281.999	728.028	80.010	19.994	104.419	20.137	-2.271	0.551
1284.000	729.108	80.009	19.993	104.417	20.137	-2.255	0.527
1286.000	730.236	80.010	19.994	104.419	20.139	-2.361	0.583
1288.000	731.366	80.009	19.993	104.413	20.137	-2.236	0.567
1290.000	732.453	80.009	19.993	104.419	20.136	-2.144	0.565
1292.000	733.664	80.007	19.993	104.418	20.135	-2.104	0.607
1294.000	734.784	80.007	19.993	104.414	20.135	-2.102	0.560
1296.000	735.940	80.008	19.993	104.414	20.134	-2.064	0.561
1297.999	737.118	80.008	19.993	104.416	20.135	-2.119	0.554
1300.000	738.314	80.008	19.994	104.424	20.136	-2.169	0.602
1302.000	739.478	80.008	19.993	104.416	20.138	-2.292	0.593
1303.999	740.675	80.009	19.995	104.415	20.136	-2.146	0.598
1306.000	741.834	80.009	19.994	104.413	20.136	-2.167	0.601
1307.500	742.705	80.009	19.994	104.413	20.135	-2.115	0.574