File: 01_Data/Coaxial_Cable/MCC/Coaxial_Cable_MCC_30K_min_220113_O1.txt
Sample ID:	C:\MCC\MCC Cal\Test\Coaxial_Cable_MCC_30K_min_220113_R1.txt
Sample Weight (mg):	4.65
Heating Rate (C/s):	0.5
Combustor Temp (C):	900
N2 Flow Rate (cc/min):	80
O2 Flow Rate (cc/min):	20
Calibration File:	C:\MCC\MCC Cal\Coeff1 JN10440_30_210304.txt.txt
T Correction Coefficients:	0	1.024463	0
Time Shift (s):	14
*
Time (s)	Temperature (C)	N2 flow rate (cc/min)	O2 flow rate (cc/min)	Flow Rate (cc/min)	Oxygen (%)	HRR (W/g)	Heating rate (C/s)
-0.001	113.848	80.009	19.993	104.491	20.071	-0.175	0.003
2.000	113.822	80.010	19.994	104.490	20.072	-0.254	0.019
3.999	113.830	80.008	19.994	104.491	20.072	-0.264	0.005
6.000	113.792	80.009	19.994	104.488	20.070	-0.152	-0.014
7.999	113.763	80.010	19.994	104.480	20.069	-0.093	-0.021
10.000	113.772	80.012	19.996	104.489	20.069	-0.074	-0.001
11.999	113.760	80.009	19.994	104.497	20.067	0.056	0.000
14.000	113.779	80.012	19.994	104.522	20.068	-0.008	0.033
15.999	113.818	80.011	19.993	104.527	20.067	0.109	0.028
18.000	113.847	80.011	19.994	104.522	20.061	0.475	0.038
20.000	113.905	80.012	19.994	104.491	20.058	0.735	0.022
22.000	113.973	80.010	19.993	104.599	20.059	0.638	0.056
24.000	114.099	80.010	19.994	104.586	20.056	0.825	0.051
26.000	114.150	80.012	19.994	104.570	20.055	0.885	0.029
28.000	114.265	80.011	19.993	104.597	20.051	1.230	0.042
30.000	114.409	80.010	19.994	104.639	20.046	1.523	0.077
32.000	114.559	80.010	19.994	104.645	20.044	1.679	0.077
34.000	114.733	80.009	19.994	104.661	20.041	1.886	0.081
35.999	114.996	80.012	19.994	104.651	20.042	1.835	0.146
37.999	115.198	80.012	19.995	104.659	20.040	1.997	0.134
39.999	115.481	80.012	19.994	104.648	20.040	2.005	0.146
42.000	115.829	80.012	19.996	104.656	20.037	2.168	0.146
43.999	116.086	80.011	19.995	104.675	20.038	2.122	0.154
45.999	116.461	80.010	19.994	104.695	20.033	2.472	0.170
47.999	116.840	80.009	19.996	104.698	20.031	2.575	0.206
49.999	117.221	80.009	19.995	104.706	20.030	2.672	0.192
52.000	117.670	80.009	19.994	104.710	20.028	2.850	0.236
54.000	118.162	80.009	19.996	104.718	20.030	2.704	0.262
56.000	118.625	80.009	19.994	104.718	20.028	2.784	0.278
58.000	119.056	80.010	19.993	104.722	20.027	2.881	0.258
59.999	119.596	80.010	19.994	104.720	20.025	3.056	0.255
61.999	120.125	80.009	19.994	104.708	20.027	2.920	0.257
63.999	120.723	80.010	19.995	104.725	20.026	2.953	0.304
66.000	121.278	80.011	19.994	104.726	20.024	3.068	0.292
68.000	121.897	80.011	19.993	104.725	20.026	2.936	0.306
69.999	122.496	80.012	19.993	104.719	20.026	2.942	0.308
72.000	123.131	80.010	19.993	104.722	20.028	2.824	0.308
74.000	123.807	80.009	19.995	104.718	20.028	2.834	0.332
75.999	124.437	80.010	19.994	104.720	20.026	2.937	0.306
77.999	125.102	80.010	19.995	104.721	20.021	3.278	0.339
80.001	125.818	80.009	19.995	104.732	20.024	3.081	0.361
81.999	126.552	80.010	19.993	104.722	20.026	2.930	0.357
83.999	127.227	80.009	19.992	104.713	20.026	2.984	0.351
86.001	127.985	80.010	19.993	104.718	20.027	2.895	0.341
88.001	128.703	80.009	19.994	104.718	20.030	2.702	0.350
89.999	129.508	80.011	19.992	104.719	20.026	2.934	0.379
91.999	130.227	80.012	19.991	104.723	20.028	2.823	0.345
93.999	131.007	80.011	19.993	104.721	20.026	2.928	0.383
96.000	131.803	80.011	19.993	104.723	20.025	3.023	0.392
97.999	132.611	80.012	19.993	104.722	20.028	2.799	0.398
99.999	133.364	80.011	19.993	104.722	20.026	2.979	0.391
102.000	134.220	80.011	19.992	104.723	20.025	3.058	0.378
104.001	134.972	80.011	19.994	104.723	20.028	2.792	0.368
106.001	135.804	80.012	19.993	104.725	20.030	2.647	0.404
107.999	136.653	80.010	19.994	104.726	20.028	2.786	0.427
109.999	137.492	80.009	19.995	104.727	20.028	2.813	0.410
112.000	138.342	80.011	19.993	104.728	20.023	3.189	0.442
113.999	139.194	80.009	19.994	104.726	20.025	3.052	0.447
115.999	140.079	80.010	19.994	104.724	20.023	3.140	0.417
118.000	140.946	80.012	19.994	104.725	20.025	3.000	0.442
120.000	141.866	80.011	19.994	104.726	20.024	3.099	0.429
121.999	142.743	80.012	19.993	104.726	20.025	3.045	0.430
124.000	143.649	80.012	19.993	104.728	20.024	3.115	0.455
126.000	144.596	80.011	19.993	104.729	20.023	3.191	0.475
128.000	145.494	80.010	19.993	104.736	20.025	3.023	0.459
130.000	146.429	80.011	19.993	104.732	20.023	3.179	0.470
132.000	147.339	80.009	19.993	104.728	20.025	2.994	0.476
134.000	148.244	80.008	19.995	104.728	20.020	3.346	0.467
136.000	149.215	80.009	19.994	104.724	20.022	3.249	0.474
138.000	150.156	80.009	19.993	104.721	20.023	3.194	0.451
140.000	151.083	80.009	19.995	104.728	20.023	3.155	0.466
142.000	152.071	80.008	19.994	104.722	20.019	3.438	0.488
144.000	153.022	80.010	19.996	104.721	20.018	3.486	0.479
146.000	153.950	80.009	19.994	104.720	20.019	3.477	0.457
148.000	154.954	80.009	19.995	104.720	20.015	3.722	0.470
150.000	155.870	80.009	19.993	104.721	20.020	3.395	0.468
152.000	156.830	80.010	19.994	104.720	20.020	3.387	0.458
154.000	157.853	80.010	19.993	104.721	20.018	3.490	0.517
156.000	158.762	80.010	19.992	104.721	20.020	3.379	0.470
158.000	159.757	80.011	19.994	104.722	20.023	3.140	0.494
160.000	160.767	80.012	19.994	104.716	20.019	3.446	0.507
162.000	161.698	80.009	19.993	104.718	20.020	3.405	0.485
164.000	162.741	80.009	19.995	104.722	20.021	3.290	0.536
166.000	163.713	80.009	19.994	104.715	20.019	3.482	0.526
168.000	164.765	80.010	19.995	104.719	20.020	3.346	0.518
170.000	165.725	80.011	19.994	104.723	20.021	3.282	0.480
172.000	166.767	80.010	19.994	104.717	20.016	3.630	0.535
174.000	167.767	80.012	19.993	104.724	20.015	3.704	0.507
176.000	168.746	80.010	19.994	104.721	20.015	3.751	0.469
178.000	169.841	80.012	19.993	104.722	20.015	3.704	0.541
180.000	170.851	80.012	19.994	104.720	20.015	3.731	0.517
182.000	171.806	80.011	19.993	104.713	20.015	3.753	0.508
184.000	172.836	80.012	19.993	104.713	20.012	3.951	0.540
186.000	173.859	80.012	19.992	104.707	20.016	3.642	0.494
188.000	174.835	80.011	19.992	104.716	20.015	3.756	0.521
190.000	175.829	80.011	19.992	104.711	20.014	3.822	0.503
192.000	176.815	80.010	19.993	104.711	20.013	3.886	0.514
194.000	177.859	80.010	19.993	104.706	20.013	3.877	0.484
196.000	178.898	80.011	19.992	104.714	20.010	4.051	0.534
198.000	179.889	80.012	19.995	104.706	20.008	4.232	0.531
200.000	180.913	80.011	19.994	104.699	20.006	4.375	0.557
202.000	181.989	80.013	19.993	104.686	20.009	4.135	0.528
204.000	182.977	80.012	19.994	104.691	20.008	4.234	0.474
206.000	184.011	80.013	19.994	104.688	20.006	4.357	0.521
208.000	184.989	80.014	19.993	104.682	20.006	4.392	0.509
210.000	186.025	80.014	19.995	104.685	20.005	4.452	0.517
212.000	187.062	80.013	19.993	104.685	20.004	4.501	0.525
214.000	188.076	80.011	19.995	104.693	20.004	4.487	0.504
216.000	189.084	80.011	19.994	104.684	20.001	4.739	0.522
218.000	190.068	80.011	19.995	104.684	19.998	4.958	0.503
220.000	191.088	80.011	19.994	104.683	19.999	4.861	0.490
222.000	192.050	80.011	19.994	104.683	19.995	5.155	0.491
224.000	193.034	80.009	19.994	104.671	19.995	5.120	0.482
226.000	194.083	80.009	19.994	104.624	19.993	5.289	0.533
228.000	195.067	80.009	19.994	104.730	19.990	5.515	0.521
230.000	196.035	80.009	19.994	104.684	19.988	5.598	0.479
232.000	197.029	80.010	19.994	104.697	19.984	5.908	0.498
234.000	198.051	80.009	19.994	104.684	19.984	5.873	0.514
236.000	198.993	80.010	19.994	104.682	19.981	6.128	0.470
238.000	200.037	80.009	19.995	104.681	19.977	6.416	0.516
240.000	201.010	80.008	19.993	104.682	19.975	6.573	0.500
242.000	202.009	80.009	19.994	104.685	19.974	6.643	0.511
244.000	203.006	80.009	19.994	104.686	19.967	7.126	0.515
246.000	203.988	80.008	19.994	104.683	19.966	7.192	0.488
248.000	204.993	80.009	19.994	104.685	19.961	7.500	0.524
250.000	206.002	80.009	19.995	104.686	19.961	7.548	0.492
252.000	207.037	80.010	19.992	104.686	19.958	7.724	0.524
254.000	208.034	80.009	19.993	104.685	19.954	8.039	0.500
256.000	209.039	80.009	19.994	104.686	19.952	8.149	0.517
258.000	210.035	80.010	19.996	104.687	19.948	8.461	0.480
260.000	211.059	80.010	19.994	104.687	19.944	8.687	0.490
262.000	212.104	80.010	19.993	104.686	19.940	9.007	0.491
264.000	213.106	80.011	19.993	104.636	19.933	9.466	0.511
266.000	214.125	80.011	19.994	104.642	19.932	9.575	0.495
268.000	215.138	80.011	19.994	104.681	19.925	10.071	0.494
270.000	216.188	80.012	19.994	104.663	19.919	10.493	0.509
272.000	217.168	80.011	19.993	104.677	19.915	10.761	0.473
274.000	218.180	80.011	19.993	104.677	19.907	11.343	0.489
276.000	219.179	80.011	19.995	104.669	19.905	11.479	0.500
278.000	220.199	80.010	19.994	104.678	19.901	11.726	0.512
280.000	221.185	80.011	19.994	104.676	19.893	12.278	0.510
282.000	222.189	80.012	19.993	104.668	19.887	12.722	0.548
284.000	223.178	80.011	19.994	104.674	19.884	12.930	0.471
286.000	224.196	80.012	19.994	104.688	19.875	13.543	0.504
288.000	225.161	80.013	19.993	104.683	19.871	13.844	0.491
290.000	226.225	80.014	19.992	104.669	19.862	14.498	0.518
292.000	227.203	80.013	19.993	104.655	19.857	14.795	0.507
294.000	228.229	80.015	19.993	104.663	19.847	15.498	0.522
296.000	229.255	80.014	19.992	104.662	19.844	15.706	0.497
298.000	230.276	80.013	19.994	104.661	19.836	16.272	0.536
300.000	231.253	80.011	19.994	104.662	19.829	16.762	0.489
302.000	232.275	80.009	19.995	104.669	19.823	17.234	0.518
304.000	233.241	80.010	19.995	104.668	19.811	18.022	0.482
306.000	234.262	80.008	19.994	104.668	19.804	18.541	0.512
308.000	235.246	80.010	19.994	104.672	19.797	19.024	0.488
310.000	236.284	80.009	19.994	104.671	19.791	19.467	0.515
312.000	237.258	80.010	19.994	104.666	19.782	20.121	0.516
314.000	238.320	80.010	19.995	104.660	19.773	20.710	0.496
316.000	239.266	80.011	19.994	104.666	19.760	21.604	0.491
318.000	240.292	80.012	19.997	104.662	19.754	22.087	0.511
320.000	241.318	80.011	19.995	104.671	19.744	22.782	0.522
322.000	242.331	80.010	19.995	104.658	19.732	23.600	0.524
324.000	243.351	80.010	19.994	104.672	19.722	24.300	0.507
326.000	244.360	80.009	19.994	104.666	19.712	24.976	0.507
328.000	245.361	80.009	19.994	104.668	19.702	25.697	0.488
330.000	246.356	80.009	19.995	104.663	19.692	26.404	0.489
332.000	247.336	80.009	19.994	104.658	19.677	27.438	0.511
334.000	248.356	80.010	19.994	104.655	19.670	27.945	0.503
336.000	249.373	80.009	19.995	104.648	19.659	28.740	0.514
338.000	250.427	80.008	19.995	104.650	19.651	29.285	0.514
340.000	251.431	80.009	19.995	104.649	19.636	30.341	0.536
342.000	252.463	80.010	19.994	104.652	19.627	30.927	0.500
344.000	253.446	80.011	19.996	104.648	19.611	32.120	0.461
346.000	254.425	80.012	19.994	104.658	19.602	32.727	0.493
348.000	255.476	80.011	19.994	104.651	19.592	33.458	0.525
350.000	256.476	80.011	19.993	104.645	19.574	34.688	0.523
352.000	257.474	80.012	19.994	104.630	19.566	35.274	0.504
354.000	258.509	80.012	19.995	104.602	19.554	36.092	0.492
356.000	259.506	80.011	19.993	104.706	19.543	36.883	0.510
358.000	260.491	80.012	19.994	104.660	19.530	37.793	0.488
360.000	261.489	80.013	19.994	104.652	19.517	38.729	0.492
362.000	262.491	80.013	19.995	104.648	19.507	39.368	0.498
364.000	263.506	80.012	19.993	104.646	19.495	40.218	0.516
366.000	264.491	80.012	19.994	104.646	19.483	41.061	0.518
368.000	265.513	80.013	19.993	104.661	19.471	41.927	0.528
370.000	266.493	80.013	19.993	104.668	19.456	42.957	0.486
372.000	267.500	80.013	19.993	104.656	19.444	43.817	0.489
374.000	268.492	80.013	19.993	104.657	19.428	44.960	0.497
376.000	269.518	80.014	19.994	104.667	19.416	45.787	0.520
378.000	270.523	80.012	19.995	104.653	19.401	46.882	0.490
380.000	271.562	80.012	19.994	104.619	19.384	48.076	0.520
382.000	272.570	80.012	19.993	104.627	19.375	48.706	0.507
384.000	273.569	80.011	19.992	104.677	19.365	49.397	0.506
386.000	274.583	80.009	19.993	104.732	19.357	49.925	0.508
388.000	275.565	80.011	19.994	104.675	19.349	50.507	0.510
390.000	276.550	80.010	19.993	104.672	19.342	51.003	0.495
392.000	277.547	80.010	19.993	104.671	19.335	51.504	0.475
394.000	278.491	80.010	19.994	104.682	19.326	52.134	0.502
396.000	279.514	80.010	19.993	104.678	19.321	52.510	0.509
398.000	280.540	80.010	19.995	104.673	19.323	52.365	0.508
400.000	281.521	80.010	19.994	104.680	19.323	52.354	0.505
402.000	282.523	80.011	19.994	104.683	19.319	52.590	0.488
404.000	283.536	80.011	19.995	104.680	19.321	52.496	0.512
406.000	284.546	80.011	19.995	104.683	19.321	52.456	0.502
408.000	285.513	80.009	19.993	104.684	19.322	52.432	0.468
410.000	286.540	80.010	19.994	104.685	19.324	52.240	0.506
412.000	287.544	80.010	19.993	104.684	19.330	51.841	0.502
414.000	288.553	80.010	19.993	104.680	19.340	51.173	0.489
416.000	289.536	80.011	19.996	104.683	19.349	50.499	0.475
418.000	290.582	80.011	19.995	104.687	19.362	49.640	0.526
420.000	291.622	80.009	19.995	104.685	19.380	48.364	0.536
422.000	292.562	80.010	19.992	104.691	19.393	47.449	0.470
424.000	293.574	80.009	19.995	104.689	19.410	46.212	0.492
426.000	294.573	80.011	19.995	104.698	19.435	44.502	0.490
428.000	295.578	80.012	19.996	104.710	19.453	43.206	0.480
430.000	296.591	80.012	19.994	104.719	19.477	41.551	0.495
432.000	297.625	80.012	19.995	104.718	19.498	40.092	0.532
434.000	298.598	80.011	19.994	104.726	19.520	38.540	0.505
436.000	299.637	80.010	19.995	104.736	19.546	36.695	0.523
438.000	300.613	80.012	19.995	104.736	19.574	34.739	0.493
440.000	301.625	80.009	19.995	104.744	19.596	33.162	0.488
442.000	302.603	80.012	19.994	104.743	19.622	31.320	0.489
444.000	303.657	80.010	19.994	104.729	19.656	28.966	0.504
446.000	304.657	80.011	19.994	104.734	19.682	27.117	0.528
448.000	305.670	80.012	19.993	104.732	19.709	25.205	0.504
450.000	306.640	80.012	19.993	104.732	19.738	23.229	0.516
452.000	307.670	80.011	19.993	104.732	19.759	21.699	0.489
454.000	308.628	80.013	19.993	104.728	19.785	19.857	0.484
456.000	309.687	80.014	19.993	104.730	19.803	18.630	0.516
458.000	310.718	80.013	19.993	104.727	19.824	17.134	0.514
460.000	311.739	80.012	19.993	104.722	19.850	15.316	0.482
462.000	312.806	80.012	19.993	104.719	19.866	14.161	0.555
464.000	313.760	80.011	19.993	104.701	19.882	13.096	0.499
466.000	314.798	80.008	19.994	104.700	19.895	12.147	0.516
468.000	315.797	80.011	19.994	104.685	19.908	11.263	0.506
470.000	316.801	80.011	19.994	104.685	19.923	10.179	0.471
472.000	317.808	80.009	19.993	104.683	19.934	9.446	0.495
474.000	318.867	80.011	19.994	104.665	19.945	8.642	0.515
476.000	319.850	80.012	19.993	104.666	19.952	8.119	0.518
478.000	320.861	80.010	19.995	104.649	19.957	7.784	0.544
480.000	321.859	80.010	19.992	104.646	19.966	7.144	0.483
482.000	322.886	80.012	19.992	104.645	19.976	6.459	0.507
484.000	323.910	80.013	19.993	104.629	19.983	5.938	0.486
486.000	324.951	80.011	19.993	104.617	19.989	5.578	0.521
488.000	325.905	80.011	19.993	104.607	19.992	5.330	0.509
490.000	326.903	80.012	19.993	104.606	19.996	5.077	0.516
492.000	327.911	80.010	19.994	104.599	20.000	4.754	0.485
494.000	328.887	80.011	19.995	104.583	20.011	4.038	0.480
496.000	329.890	80.011	19.994	104.567	20.010	4.091	0.521
498.000	330.970	80.010	19.996	104.567	20.015	3.737	0.552
500.000	331.945	80.010	19.995	104.564	20.017	3.592	0.502
502.000	332.939	80.010	19.994	104.556	20.022	3.210	0.523
504.000	333.986	80.010	19.995	104.538	20.025	3.010	0.508
506.000	335.007	80.010	19.994	104.553	20.031	2.616	0.496
508.000	335.985	80.011	19.994	104.546	20.030	2.653	0.516
510.000	337.017	80.011	19.993	104.551	20.031	2.628	0.510
512.000	338.024	80.012	19.994	104.543	20.032	2.548	0.518
514.000	339.031	80.012	19.994	104.544	20.034	2.363	0.508
516.000	340.049	80.010	19.994	104.542	20.036	2.245	0.518
518.000	341.036	80.010	19.993	104.551	20.039	2.062	0.482
520.000	342.028	80.011	19.995	104.558	20.043	1.782	0.469
522.000	343.023	80.011	19.995	104.562	20.046	1.568	0.469
524.000	344.049	80.010	19.994	104.544	20.044	1.685	0.494
526.000	345.021	80.010	19.994	104.553	20.048	1.423	0.508
528.000	346.060	80.010	19.993	104.560	20.049	1.349	0.521
530.000	347.084	80.010	19.995	104.564	20.048	1.403	0.534
532.000	348.088	80.010	19.994	104.559	20.050	1.269	0.508
534.000	349.117	80.013	19.994	104.563	20.053	1.032	0.529
536.000	350.172	80.013	19.994	104.565	20.052	1.108	0.540
538.000	351.118	80.014	19.993	104.565	20.054	0.999	0.491
540.000	352.116	80.013	19.993	104.565	20.057	0.779	0.461
542.000	353.137	80.014	19.993	104.563	20.054	0.962	0.519
544.000	354.146	80.013	19.993	104.560	20.057	0.758	0.484
546.000	355.173	80.013	19.992	104.561	20.060	0.569	0.487
548.000	356.157	80.011	19.993	104.565	20.059	0.639	0.473
550.000	357.220	80.010	19.993	104.565	20.058	0.729	0.503
552.000	358.241	80.011	19.993	104.566	20.062	0.445	0.492
554.000	359.236	80.011	19.994	104.565	20.063	0.383	0.499
556.000	360.255	80.011	19.994	104.564	20.061	0.513	0.488
558.000	361.260	80.011	19.995	104.558	20.061	0.533	0.498
560.000	362.269	80.011	19.993	104.568	20.060	0.554	0.480
562.000	363.306	80.011	19.994	104.566	20.060	0.554	0.521
564.000	364.315	80.012	19.995	104.566	20.056	0.836	0.517
566.000	365.348	80.012	19.994	104.566	20.059	0.645	0.533
568.000	366.379	80.010	19.994	104.564	20.061	0.521	0.519
570.000	367.378	80.010	19.994	104.569	20.056	0.820	0.505
572.000	368.397	80.012	19.992	104.567	20.060	0.542	0.530
574.000	369.442	80.011	19.993	104.566	20.061	0.474	0.551
576.000	370.407	80.010	19.993	104.566	20.062	0.433	0.502
578.000	371.413	80.010	19.994	104.569	20.063	0.334	0.469
580.000	372.430	80.009	19.993	104.568	20.061	0.511	0.514
582.000	373.460	80.009	19.993	104.563	20.064	0.255	0.533
584.000	374.459	80.010	19.994	104.563	20.062	0.428	0.491
586.000	375.496	80.009	19.994	104.570	20.062	0.435	0.501
588.000	376.518	80.010	19.994	104.568	20.060	0.601	0.523
590.000	377.587	80.010	19.995	104.565	20.062	0.420	0.514
592.000	378.568	80.011	19.993	104.562	20.061	0.482	0.516
594.000	379.597	80.012	19.993	104.566	20.060	0.554	0.499
596.000	380.611	80.012	19.994	104.557	20.058	0.684	0.524
598.000	381.585	80.012	19.994	104.557	20.057	0.744	0.507
600.000	382.576	80.013	19.994	104.554	20.059	0.628	0.504
602.000	383.612	80.010	19.993	104.556	20.059	0.655	0.497
604.000	384.624	80.012	19.993	104.553	20.056	0.869	0.478
606.000	385.633	80.011	19.994	104.557	20.056	0.830	0.532
608.000	386.629	80.012	19.994	104.562	20.059	0.651	0.480
610.000	387.625	80.012	19.995	104.557	20.057	0.783	0.521
612.000	388.607	80.013	19.995	104.548	20.056	0.838	0.472
614.000	389.639	80.011	19.993	104.555	20.057	0.787	0.534
616.000	390.637	80.012	19.994	104.557	20.058	0.682	0.474
618.000	391.697	80.012	19.995	104.550	20.060	0.583	0.502
620.000	392.665	80.013	19.997	104.546	20.047	1.479	0.502
622.000	393.743	80.014	19.995	104.557	20.056	0.880	0.547
624.000	394.686	80.014	19.995	104.554	20.047	1.467	0.492
626.000	395.742	80.013	19.995	104.539	20.039	2.011	0.534
628.000	396.759	80.012	19.993	104.554	20.048	1.405	0.499
630.000	397.594	80.010	19.994	104.553	20.047	1.496	0.393
632.000	398.976	80.010	19.994	104.542	20.045	1.652	0.957
634.000	399.824	80.010	19.994	104.553	20.041	1.895	0.382
636.000	400.828	80.010	19.993	104.556	20.035	2.342	0.154
638.000	401.775	80.010	19.993	104.550	20.056	0.865	0.373
640.000	402.686	80.010	19.993	104.552	20.029	2.752	0.519
642.000	403.906	80.011	19.994	104.549	20.030	2.698	0.638
644.000	404.758	80.011	19.994	104.548	20.033	2.456	0.573
646.000	405.884	80.011	19.994	104.553	20.029	2.727	0.466
648.000	406.801	80.011	19.993	104.549	20.037	2.204	0.508
650.000	407.880	80.010	19.993	104.546	20.015	3.753	0.566
652.000	408.845	80.010	19.994	104.561	20.013	3.873	0.517
654.000	409.889	80.011	19.993	104.539	20.011	4.019	0.478
656.000	411.028	80.010	19.992	104.549	20.009	4.126	0.476
658.000	412.095	80.010	19.994	104.549	20.004	4.502	0.491
660.000	413.028	80.009	19.993	104.544	20.003	4.551	0.516
662.000	414.017	80.010	19.993	104.543	19.994	5.206	0.494
664.000	415.027	80.010	19.994	104.542	19.988	5.602	0.494
666.000	416.103	80.010	19.993	104.546	19.985	5.853	0.564
668.000	417.137	80.011	19.994	104.546	19.973	6.638	0.475
670.000	418.188	80.010	19.994	104.535	19.967	7.124	0.514
672.000	419.216	80.011	19.994	104.533	19.963	7.349	0.529
674.000	420.270	80.012	19.993	104.539	19.959	7.685	0.543
676.000	421.287	80.011	19.993	104.534	19.950	8.264	0.499
678.000	422.326	80.013	19.994	104.531	19.943	8.790	0.480
680.000	423.332	80.012	19.994	104.546	19.934	9.433	0.509
682.000	424.426	80.011	19.994	104.542	19.926	9.966	0.521
684.000	425.432	80.013	19.994	104.533	19.914	10.790	0.545
686.000	426.455	80.011	19.994	104.533	19.904	11.535	0.530
688.000	427.506	80.012	19.994	104.529	19.896	12.086	0.530
690.000	428.581	80.011	19.994	104.528	19.887	12.726	0.546
692.000	429.590	80.010	19.994	104.530	19.871	13.833	0.521
694.000	430.614	80.011	19.994	104.530	19.870	13.912	0.511
696.000	431.614	80.011	19.993	104.534	19.867	14.089	0.495
698.000	432.655	80.013	19.993	104.531	19.845	15.622	0.514
700.000	433.680	80.011	19.993	104.538	19.826	16.972	0.502
702.000	434.746	80.013	19.993	104.530	19.812	17.967	0.520
704.000	435.772	80.014	19.993	104.533	19.796	19.068	0.526
706.000	436.741	80.012	19.993	104.529	19.784	19.944	0.503
708.000	437.780	80.013	19.994	104.530	19.772	20.758	0.464
710.000	438.757	80.011	19.993	104.528	19.756	21.863	0.501
712.000	439.802	80.011	19.995	104.530	19.740	23.034	0.514
714.000	440.828	80.010	19.993	104.531	19.726	24.021	0.461
716.000	441.857	80.011	19.994	104.532	19.710	25.125	0.476
718.000	442.873	80.009	19.994	104.530	19.692	26.372	0.503
720.000	443.933	80.008	19.995	104.531	19.678	27.363	0.529
722.000	444.932	80.008	19.994	104.527	19.660	28.593	0.511
724.000	445.933	80.010	19.993	104.530	19.644	29.763	0.491
726.000	446.986	80.011	19.994	104.522	19.629	30.775	0.513
728.000	447.980	80.011	19.995	104.522	19.614	31.869	0.534
730.000	449.005	80.012	19.994	104.525	19.596	33.137	0.532
732.000	450.033	80.012	19.993	104.527	19.579	34.318	0.520
734.000	451.066	80.012	19.993	104.520	19.562	35.518	0.533
736.000	452.048	80.012	19.994	104.519	19.546	36.583	0.507
738.000	453.022	80.010	19.995	104.522	19.529	37.774	0.491
740.000	454.072	80.011	19.994	104.523	19.509	39.205	0.527
742.000	455.086	80.011	19.994	104.525	19.489	40.626	0.507
744.000	456.115	80.010	19.993	104.520	19.470	41.944	0.487
746.000	457.151	80.010	19.994	104.525	19.450	43.352	0.546
748.000	458.162	80.011	19.994	104.514	19.431	44.690	0.514
750.000	459.130	80.010	19.993	104.506	19.414	45.833	0.503
752.000	460.213	80.010	19.993	104.512	19.391	47.439	0.534
754.000	461.227	80.010	19.993	104.507	19.365	49.279	0.492
756.000	462.241	80.011	19.993	104.499	19.343	50.829	0.518
758.000	463.254	80.012	19.994	104.491	19.318	52.612	0.519
760.000	464.252	80.013	19.993	104.492	19.290	54.544	0.480
762.000	465.285	80.013	19.993	104.490	19.264	56.359	0.489
764.000	466.343	80.013	19.993	104.486	19.233	58.516	0.520
766.000	467.305	80.013	19.993	104.487	19.205	60.493	0.494
768.000	468.328	80.012	19.992	104.491	19.175	62.581	0.506
770.000	469.374	80.012	19.993	104.488	19.141	64.950	0.521
772.000	470.404	80.012	19.993	104.484	19.111	67.104	0.517
774.000	471.442	80.011	19.992	104.473	19.077	69.470	0.506
776.000	472.452	80.010	19.994	104.465	19.041	71.999	0.492
778.000	473.497	80.011	19.994	104.466	19.001	74.779	0.509
780.000	474.531	80.012	19.994	104.459	18.964	77.383	0.521
782.000	475.568	80.012	19.994	104.463	18.928	79.863	0.516
784.000	476.586	80.012	19.993	104.453	18.886	82.804	0.517
786.000	477.627	80.012	19.993	104.450	18.852	85.222	0.519
788.000	478.658	80.013	19.993	104.444	18.810	88.156	0.506
790.000	479.688	80.011	19.994	104.444	18.776	90.497	0.493
792.000	480.689	80.013	19.994	104.431	18.740	93.035	0.528
794.000	481.696	80.012	19.994	104.411	18.704	95.516	0.530
796.000	482.762	80.009	19.994	104.407	18.677	97.429	0.528
798.000	483.769	80.012	19.995	104.409	18.652	99.150	0.493
800.000	484.806	80.011	19.995	104.406	18.632	100.548	0.529
802.000	485.850	80.010	19.994	104.391	18.616	101.698	0.520
804.000	486.908	80.010	19.994	104.383	18.615	101.755	0.534
806.000	487.909	80.010	19.994	104.383	18.610	102.127	0.516
808.000	488.955	80.010	19.994	104.380	18.619	101.445	0.537
810.000	489.997	80.010	19.995	104.367	18.632	100.552	0.504
812.000	491.028	80.011	19.996	104.369	18.655	98.950	0.512
814.000	492.043	80.010	19.995	104.369	18.685	96.869	0.502
816.000	493.087	80.011	19.995	104.369	18.724	94.147	0.516
818.000	494.151	80.011	19.995	104.369	18.776	90.518	0.516
820.000	495.193	80.011	19.995	104.366	18.835	86.366	0.502
822.000	496.190	80.012	19.994	104.365	18.908	81.249	0.495
824.000	497.238	80.011	19.995	104.367	18.985	75.909	0.521
826.000	498.270	80.011	19.993	104.376	19.070	69.974	0.527
828.000	499.280	80.010	19.994	104.383	19.154	64.039	0.487
830.001	500.275	80.011	19.993	104.392	19.236	58.331	0.521
832.000	501.310	80.012	19.993	104.412	19.332	51.575	0.515
834.000	502.340	80.011	19.994	104.429	19.419	45.490	0.487
836.000	503.381	80.011	19.994	104.439	19.503	39.641	0.502
838.000	504.398	80.011	19.994	104.451	19.584	33.923	0.532
840.000	505.426	80.010	19.993	104.454	19.660	28.621	0.516
842.000	506.471	80.011	19.993	104.470	19.726	23.977	0.535
844.000	507.458	80.012	19.994	104.488	19.785	19.862	0.476
846.000	508.446	80.011	19.994	104.491	19.834	16.384	0.528
848.000	509.466	80.010	19.992	104.492	19.875	13.566	0.488
850.000	510.522	80.011	19.993	104.498	19.911	11.043	0.507
852.000	511.504	80.011	19.993	104.500	19.940	9.003	0.516
854.000	512.560	80.012	19.993	104.505	19.962	7.448	0.497
856.000	513.588	80.012	19.994	104.498	19.980	6.195	0.534
858.000	514.569	80.012	19.994	104.498	19.995	5.093	0.484
860.000	515.660	80.011	19.994	104.519	20.010	4.076	0.506
862.000	516.610	80.012	19.993	104.513	20.018	3.503	0.486
864.000	517.655	80.012	19.992	104.509	20.028	2.817	0.490
866.000	518.700	80.012	19.993	104.508	20.037	2.211	0.502
868.000	519.744	80.014	19.993	104.498	20.040	1.976	0.523
870.000	520.738	80.013	19.992	104.510	20.047	1.502	0.494
872.000	521.799	80.013	19.993	104.501	20.052	1.123	0.532
874.000	522.834	80.013	19.994	104.505	20.054	0.960	0.554
876.000	523.863	80.012	19.995	104.504	20.058	0.707	0.525
878.000	524.899	80.010	19.995	104.508	20.062	0.455	0.523
880.000	525.935	80.012	19.994	104.517	20.066	0.171	0.520
882.000	526.959	80.011	19.994	104.495	20.067	0.066	0.523
884.000	528.007	80.012	19.995	104.508	20.072	-0.288	0.528
886.000	529.006	80.011	19.994	104.517	20.073	-0.348	0.543
888.000	530.020	80.011	19.995	104.523	20.074	-0.387	0.534
890.000	531.039	80.010	19.994	104.521	20.073	-0.367	0.503
892.000	532.052	80.011	19.994	104.522	20.076	-0.528	0.482
894.000	533.131	80.011	19.994	104.520	20.077	-0.649	0.554
896.000	534.143	80.009	19.993	104.508	20.075	-0.460	0.516
898.000	535.185	80.010	19.994	104.523	20.080	-0.812	0.523
900.000	536.242	80.010	19.993	104.519	20.080	-0.849	0.527
902.000	537.260	80.009	19.994	104.519	20.081	-0.919	0.491
904.000	538.270	80.009	19.995	104.517	20.085	-1.181	0.514
906.000	539.278	80.009	19.994	104.526	20.082	-0.987	0.531
908.000	540.326	80.008	19.994	104.521	20.087	-1.329	0.517
910.000	541.326	80.009	19.994	104.521	20.090	-1.549	0.478
912.000	542.344	80.009	19.995	104.527	20.090	-1.552	0.518
914.000	543.371	80.008	19.996	104.522	20.088	-1.376	0.503
916.000	544.407	80.008	19.995	104.527	20.089	-1.479	0.509
918.000	545.431	80.008	19.994	104.524	20.090	-1.568	0.502
920.000	546.446	80.010	19.994	104.532	20.092	-1.648	0.490
922.000	547.509	80.011	19.993	104.529	20.092	-1.683	0.522
924.000	548.528	80.011	19.994	104.526	20.094	-1.836	0.486
926.000	549.559	80.011	19.993	104.530	20.095	-1.914	0.512
928.000	550.598	80.012	19.994	104.527	20.097	-2.007	0.518
930.000	551.637	80.012	19.993	104.525	20.096	-1.990	0.516
932.000	552.678	80.012	19.994	104.526	20.096	-1.939	0.515
934.000	553.742	80.011	19.993	104.528	20.098	-2.069	0.550
936.000	554.791	80.010	19.994	104.525	20.098	-2.128	0.546
938.000	555.827	80.009	19.994	104.528	20.095	-1.914	0.525
940.000	556.845	80.010	19.993	104.527	20.096	-1.933	0.502
942.000	557.902	80.011	19.994	104.527	20.097	-2.054	0.507
944.000	558.916	80.012	19.994	104.528	20.099	-2.145	0.548
946.000	559.941	80.011	19.993	104.528	20.101	-2.287	0.502
948.000	560.970	80.012	19.993	104.526	20.098	-2.066	0.496
950.000	562.043	80.015	19.993	104.528	20.100	-2.260	0.515
952.000	563.019	80.014	19.992	104.528	20.103	-2.449	0.491
954.000	564.002	80.013	19.993	104.529	20.103	-2.433	0.495
956.000	565.036	80.013	19.993	104.534	20.100	-2.239	0.516
958.000	566.040	80.011	19.993	104.550	20.099	-2.185	0.522
960.000	567.093	80.010	19.993	104.535	20.102	-2.375	0.510
962.000	568.112	80.011	19.993	104.544	20.099	-2.138	0.526
964.000	569.131	80.010	19.994	104.550	20.102	-2.356	0.531
966.000	570.155	80.009	19.993	104.558	20.101	-2.323	0.494
968.000	571.161	80.010	19.993	104.546	20.101	-2.323	0.507
970.000	572.161	80.008	19.993	104.567	20.101	-2.329	0.497
972.000	573.204	80.009	19.994	104.565	20.101	-2.282	0.504
974.000	574.303	80.010	19.994	104.567	20.101	-2.284	0.537
976.000	575.346	80.009	19.994	104.564	20.100	-2.218	0.521
978.000	576.321	80.008	19.996	104.562	20.097	-2.029	0.507
980.000	577.381	80.010	19.994	104.564	20.101	-2.305	0.523
982.000	578.382	80.009	19.995	104.552	20.103	-2.439	0.519
984.000	579.384	80.010	19.994	104.558	20.104	-2.495	0.533
986.000	580.390	80.011	19.994	104.560	20.105	-2.602	0.494
988.000	581.403	80.010	19.994	104.556	20.103	-2.448	0.496
990.000	582.441	80.010	19.993	104.564	20.104	-2.508	0.507
992.000	583.427	80.010	19.993	104.565	20.105	-2.590	0.482
994.000	584.469	80.009	19.994	104.554	20.106	-2.670	0.508
996.000	585.527	80.009	19.994	104.542	20.108	-2.778	0.544
998.000	586.533	80.010	19.994	104.534	20.106	-2.670	0.502
1000.000	587.556	80.011	19.995	104.528	20.108	-2.802	0.494
1002.000	588.554	80.009	19.994	104.527	20.108	-2.821	0.511
1004.000	589.587	80.009	19.994	104.526	20.110	-2.926	0.501
1006.000	590.560	80.010	19.996	104.524	20.106	-2.638	0.507
1008.000	591.605	80.012	19.994	104.525	20.105	-2.606	0.545
1010.000	592.648	80.012	19.995	104.521	20.111	-3.033	0.532
1012.000	593.672	80.013	19.994	104.524	20.113	-3.145	0.530
1014.000	594.708	80.012	19.993	104.523	20.114	-3.190	0.521
1016.000	595.709	80.011	19.993	104.521	20.114	-3.212	0.504
1018.000	596.747	80.011	19.993	104.524	20.115	-3.301	0.511
1020.000	597.746	80.010	19.994	104.524	20.115	-3.289	0.489
1022.000	598.772	80.011	19.994	104.523	20.114	-3.184	0.505
1024.000	599.854	80.011	19.994	104.511	20.115	-3.291	0.569
1026.000	600.874	80.011	19.994	104.520	20.115	-3.287	0.517
1028.000	601.903	80.012	19.994	104.512	20.118	-3.531	0.515
1029.999	602.885	80.012	19.993	104.521	20.114	-3.235	0.507
1032.001	603.888	80.013	19.993	104.513	20.117	-3.402	0.517
1034.000	604.924	80.012	19.993	104.455	20.116	-3.342	0.526
1036.000	605.890	80.012	19.993	104.498	20.117	-3.400	0.486
1037.999	606.914	80.012	19.994	104.571	20.119	-3.587	0.515
1040.000	607.952	80.011	19.993	104.525	20.119	-3.548	0.537
1042.001	608.939	80.011	19.993	104.521	20.120	-3.633	0.483
1044.000	609.997	80.011	19.995	104.516	20.122	-3.806	0.532
1045.999	611.004	80.008	19.993	104.518	20.120	-3.616	0.513
1048.000	612.021	80.010	19.994	104.527	20.120	-3.612	0.508
1050.000	613.064	80.012	19.993	104.523	20.121	-3.728	0.487
1052.000	614.133	80.011	19.993	104.523	20.122	-3.756	0.520
1053.999	615.154	80.010	19.993	104.524	20.120	-3.633	0.512
1056.000	616.169	80.010	19.994	104.518	20.119	-3.600	0.522
1058.001	617.235	80.011	19.993	104.527	20.118	-3.489	0.521
1059.999	618.228	80.010	19.993	104.520	20.120	-3.670	0.520
1062.000	619.268	80.012	19.994	104.524	20.114	-3.237	0.502
1063.999	620.319	80.011	19.995	104.527	20.122	-3.775	0.537
1066.000	621.358	80.011	19.993	104.523	20.121	-3.680	0.510
1067.999	622.383	80.011	19.995	104.523	20.120	-3.643	0.527
1069.999	623.368	80.011	19.994	104.515	20.118	-3.521	0.515
1072.000	624.407	80.009	19.995	104.523	20.121	-3.719	0.512
1074.000	625.427	80.010	19.995	104.519	20.120	-3.676	0.523
1076.000	626.435	80.009	19.993	104.518	20.119	-3.577	0.512
1077.999	627.493	80.010	19.994	104.521	20.122	-3.767	0.543
1080.001	628.458	80.010	19.995	104.523	20.120	-3.659	0.480
1081.999	629.498	80.009	19.994	104.465	20.119	-3.604	0.495
1083.999	630.535	80.010	19.993	104.535	20.125	-3.960	0.496
1086.000	631.572	80.011	19.994	104.584	20.125	-4.018	0.517
1088.001	632.587	80.011	19.993	104.526	20.124	-3.909	0.522
1090.000	633.565	80.011	19.994	104.526	20.126	-4.028	0.493
1091.999	634.617	80.011	19.993	104.524	20.122	-3.771	0.523
1094.000	635.627	80.010	19.994	104.522	20.128	-4.166	0.545
1095.999	636.639	80.011	19.995	104.530	20.123	-3.816	0.483
1098.000	637.623	80.011	19.996	104.528	20.125	-3.995	0.505
1100.000	638.685	80.010	19.995	104.534	20.123	-3.869	0.509
1102.000	639.656	80.011	19.995	104.530	20.124	-3.944	0.519
1104.001	640.636	80.009	19.995	104.529	20.123	-3.820	0.453
1106.000	641.604	80.010	19.995	104.533	20.119	-3.537	0.470
1107.999	642.616	80.011	19.994	104.530	20.121	-3.718	0.499
1109.999	643.629	80.010	19.994	104.532	20.120	-3.638	0.499
1112.000	644.562	80.012	19.992	104.533	20.118	-3.469	0.506
1114.000	645.525	80.011	19.992	104.531	20.121	-3.679	0.479
1115.999	646.544	80.012	19.993	104.540	20.122	-3.770	0.503
1118.000	647.506	80.013	19.992	104.549	20.121	-3.702	0.506
1120.000	648.477	80.013	19.994	104.538	20.115	-3.296	0.489
1121.999	649.480	80.011	19.995	104.539	20.121	-3.720	0.529
1123.999	650.505	80.011	19.994	104.555	20.121	-3.679	0.509
1125.999	651.486	80.011	19.993	104.554	20.122	-3.747	0.470
1128.001	652.503	80.011	19.993	104.558	20.119	-3.580	0.513
1130.000	653.484	80.010	19.995	104.559	20.119	-3.561	0.477
1132.000	654.508	80.011	19.994	104.565	20.121	-3.679	0.493
1133.999	655.536	80.009	19.994	104.561	20.119	-3.596	0.507
1136.001	656.559	80.010	19.993	104.549	20.126	-4.051	0.528
1137.999	657.610	80.010	19.994	104.566	20.123	-3.886	0.519
1139.999	658.600	80.010	19.994	104.564	20.120	-3.633	0.515
1142.000	659.731	80.009	19.994	104.564	20.122	-3.787	0.557
1143.999	660.662	80.011	19.994	104.564	20.119	-3.575	0.501
1146.000	661.693	80.011	19.993	104.565	20.123	-3.882	0.531
1148.000	662.666	80.012	19.994	104.562	20.123	-3.824	0.526
1150.000	663.727	80.010	19.994	104.566	20.121	-3.680	0.539
1151.999	664.712	80.010	19.993	104.568	20.120	-3.633	0.483
1154.000	665.731	80.011	19.993	104.571	20.120	-3.672	0.517
1156.000	666.720	80.009	19.993	104.571	20.121	-3.742	0.497
1158.000	667.741	80.009	19.994	104.570	20.119	-3.590	0.510
1160.000	668.770	80.010	19.996	104.573	20.121	-3.742	0.461
1161.999	669.817	80.009	19.995	104.571	20.119	-3.594	0.517
1163.999	670.827	80.009	19.994	104.571	20.120	-3.668	0.504
1165.999	671.860	80.010	19.995	104.576	20.117	-3.411	0.505
1167.999	672.869	80.011	19.994	104.567	20.120	-3.607	0.476
1169.999	673.908	80.011	19.994	104.568	20.120	-3.619	0.504
1171.999	674.907	80.011	19.993	104.570	20.119	-3.561	0.487
1174.001	676.043	80.009	19.993	104.562	20.121	-3.725	0.509
1176.000	677.029	80.011	19.995	104.566	20.120	-3.670	0.513
1177.999	678.087	80.011	19.994	104.567	20.120	-3.647	0.518
1179.999	679.121	80.011	19.993	104.559	20.123	-3.878	0.528
1181.999	680.135	80.011	19.994	104.562	20.123	-3.823	0.522
1183.999	681.176	80.009	19.993	104.551	20.126	-4.086	0.542
1186.001	682.205	80.009	19.994	104.525	20.124	-3.921	0.514
1187.999	683.236	80.010	19.994	104.527	20.126	-4.025	0.491
1189.999	684.277	80.009	19.995	104.525	20.126	-4.089	0.528
1192.000	685.284	80.010	19.994	104.512	20.131	-4.384	0.482
1193.999	686.377	80.010	19.994	104.523	20.129	-4.272	0.529
1195.999	687.380	80.011	19.995	104.523	20.132	-4.463	0.497
1198.000	688.390	80.013	19.995	104.517	20.133	-4.547	0.499
1199.999	689.412	80.012	19.994	104.516	20.134	-4.642	0.487
1201.999	690.453	80.011	19.994	104.498	20.133	-4.575	0.523
1204.001	691.483	80.012	19.994	104.513	20.133	-4.577	0.493
1206.001	692.469	80.013	19.993	104.498	20.134	-4.586	0.496
1208.001	693.489	80.010	19.994	104.487	20.137	-4.817	0.484
1210.000	694.508	80.010	19.995	104.499	20.137	-4.827	0.500
1212.000	695.536	80.010	19.993	104.497	20.136	-4.765	0.509
1214.000	696.561	80.009	19.994	104.504	20.139	-4.994	0.503
1216.000	697.595	80.009	19.993	104.502	20.137	-4.846	0.490
1218.000	698.591	80.010	19.994	104.492	20.139	-4.965	0.492
1220.000	699.615	80.011	19.995	104.499	20.136	-4.764	0.514
1222.000	700.625	80.012	19.994	104.495	20.135	-4.714	0.502
1224.000	701.619	80.010	19.995	104.482	20.134	-4.629	0.488
1226.000	702.600	80.011	19.994	104.431	20.137	-4.846	0.495
1228.000	703.627	80.011	19.994	104.541	20.134	-4.598	0.515
1230.000	704.596	80.010	19.994	104.498	20.135	-4.656	0.510
1232.000	705.539	80.010	19.993	104.490	20.135	-4.666	0.493
1234.000	706.461	80.010	19.994	104.490	20.135	-4.689	0.444
1236.001	707.442	80.011	19.993	104.492	20.139	-4.971	0.511
1238.001	708.422	80.009	19.993	104.492	20.139	-4.980	0.489
1240.000	709.352	80.009	19.993	104.492	20.134	-4.632	0.478
1242.000	710.235	80.010	19.994	104.493	20.136	-4.788	0.425
1244.000	711.213	80.009	19.993	104.492	20.135	-4.662	0.481
1246.001	712.112	80.009	19.995	104.493	20.136	-4.774	0.429
1248.000	713.045	80.011	19.993	104.492	20.136	-4.790	0.473
1250.000	714.000	80.012	19.993	104.489	20.134	-4.637	0.504
1252.001	714.920	80.012	19.995	104.490	20.135	-4.691	0.463
1254.000	715.902	80.012	19.994	104.493	20.132	-4.512	0.468
1256.000	716.936	80.013	19.992	104.492	20.135	-4.677	0.528
1258.001	717.934	80.011	19.994	104.490	20.135	-4.660	0.515
1260.000	718.965	80.011	19.994	104.493	20.136	-4.726	0.540
1262.001	720.009	80.012	19.995	104.501	20.131	-4.391	0.539
1264.001	721.081	80.011	19.995	104.492	20.133	-4.545	0.544
1266.000	722.131	80.010	19.995	104.488	20.130	-4.318	0.542
1268.000	723.140	80.011	19.994	104.494	20.134	-4.605	0.479
1270.000	724.248	80.013	19.993	104.488	20.136	-4.784	0.523
1272.000	725.235	80.012	19.994	104.488	20.135	-4.694	0.499
1274.000	726.263	80.013	19.994	104.490	20.136	-4.778	0.478
1276.000	727.237	80.012	19.994	104.490	20.131	-4.436	0.486
1278.000	728.224	80.012	19.994	104.486	20.133	-4.529	0.518
1280.001	729.228	80.012	19.995	104.488	20.135	-4.663	0.495
1282.000	730.191	80.012	19.994	104.492	20.133	-4.555	0.517
1284.000	731.219	80.011	19.994	104.487	20.131	-4.421	0.489
1286.000	732.155	80.010	19.995	104.487	20.135	-4.691	0.496
1288.001	733.106	80.011	19.995	104.482	20.134	-4.607	0.484
1290.000	734.049	80.009	19.994	104.486	20.134	-4.654	0.441
1292.000	735.031	80.009	19.995	104.487	20.134	-4.625	0.470
1294.000	735.967	80.009	19.995	104.489	20.133	-4.559	0.468
1296.000	736.916	80.009	19.995	104.488	20.135	-4.656	0.500
1298.001	737.875	80.009	19.994	104.489	20.138	-4.891	0.504
1300.000	738.881	80.009	19.993	104.493	20.134	-4.615	0.488
1302.000	739.882	80.011	19.994	104.503	20.133	-4.576	0.491
1304.000	740.891	80.011	19.994	104.495	20.134	-4.596	0.507
1306.000	741.943	80.009	19.994	104.495	20.132	-4.464	0.539
1308.001	743.001	80.010	19.994	104.495	20.129	-4.302	0.485
1308.501	743.296	80.010	19.994	104.495	20.131	-4.392	0.535