File: 01_Data/Excelsior/MCC/Excelsior_MCC_30K_min_220216_R2.txt
Sample ID:	C:\MCC\MCC Cal\Test\Excelsior_MCC_30K_min_220216_R2.txt
Sample Weight (mg):	4.38
Heating Rate (C/s):	0.5
Combustor Temp (C):	900
N2 Flow Rate (cc/min):	80
O2 Flow Rate (cc/min):	20
Calibration File:	C:\MCC\MCC Cal\Coeff1 JN10440_30_210304.txt.txt
T Correction Coefficients:	0	1.024463	0
Time Shift (s):	14
*
Time (s)	Temperature (C)	N2 flow rate (cc/min)	O2 flow rate (cc/min)	Flow Rate (cc/min)	Oxygen (%)	HRR (W/g)	Heating rate (C/s)
0.001	113.092	80.011	19.993	103.727	19.970	-0.106	-0.024
1.999	113.148	80.010	19.994	103.724	19.967	0.154	0.028
4.000	113.110	80.011	19.993	103.715	19.969	-0.006	0.053
6.001	113.093	80.010	19.994	103.714	19.970	-0.040	0.009
8.000	113.089	80.012	19.993	103.727	19.970	-0.076	-0.017
10.000	113.086	80.011	19.993	103.724	19.969	-0.022	-0.028
11.999	113.041	80.012	19.993	103.733	19.971	-0.128	-0.046
14.001	113.047	80.015	19.993	103.731	19.969	-0.030	0.009
15.999	113.039	80.013	19.993	103.709	19.969	-0.014	-0.030
17.999	113.063	80.012	19.993	103.724	19.966	0.212	0.029
20.001	113.046	80.012	19.992	103.723	19.967	0.154	0.018
22.000	113.023	80.012	19.996	103.738	19.967	0.176	-0.026
24.000	113.020	80.013	19.995	103.742	19.966	0.200	0.004
25.999	113.037	80.012	19.992	103.740	19.963	0.455	0.011
27.999	113.000	80.012	19.992	103.732	19.965	0.302	-0.045
30.000	113.043	80.012	19.992	103.739	19.963	0.417	-0.004
32.001	113.045	80.011	19.992	103.743	19.963	0.456	0.011
34.000	113.028	80.012	19.993	103.744	19.962	0.550	-0.037
36.000	113.086	80.014	19.993	103.757	19.955	1.067	-0.011
38.001	113.116	80.015	19.994	103.779	19.956	0.971	0.031
40.000	113.142	80.014	19.993	103.807	19.955	1.040	0.048
42.000	113.231	80.013	19.994	103.837	19.951	1.319	0.027
44.000	113.280	80.014	19.994	103.860	19.943	1.897	0.040
45.999	113.413	80.014	19.993	103.887	19.941	2.099	0.056
48.001	113.603	80.012	19.993	103.872	19.938	2.307	0.094
49.999	113.760	80.012	19.993	103.895	19.935	2.543	0.052
52.000	114.008	80.012	19.993	103.905	19.930	2.862	0.130
53.999	114.270	80.011	19.993	103.893	19.930	2.898	0.141
56.000	114.555	80.011	19.994	103.892	19.931	2.840	0.155
57.999	114.820	80.012	19.993	103.896	19.932	2.764	0.135
60.000	115.094	80.011	19.994	103.901	19.927	3.085	0.148
62.000	115.432	80.012	19.995	103.920	19.923	3.403	0.166
64.000	115.819	80.012	19.994	103.934	19.923	3.395	0.178
66.000	116.180	80.011	19.994	103.942	19.926	3.191	0.180
67.999	116.609	80.012	19.994	103.947	19.923	3.419	0.201
70.001	117.071	80.010	19.995	103.950	19.923	3.417	0.226
71.999	117.573	80.010	19.994	103.971	19.920	3.592	0.228
73.999	118.071	80.011	19.994	103.973	19.919	3.685	0.261
75.999	118.595	80.011	19.995	103.973	19.918	3.794	0.256
77.999	119.127	80.010	19.994	103.973	19.921	3.540	0.269
79.999	119.725	80.011	19.994	103.975	19.918	3.804	0.303
82.001	120.303	80.011	19.993	103.989	19.915	4.005	0.282
84.000	120.947	80.010	19.994	103.995	19.915	4.015	0.291
86.000	121.561	80.010	19.993	103.984	19.915	4.016	0.334
88.001	122.282	80.011	19.993	104.008	19.916	3.936	0.366
90.000	122.974	80.012	19.993	104.009	19.907	4.582	0.337
92.001	123.713	80.011	19.993	104.012	19.912	4.210	0.365
94.001	124.421	80.011	19.992	104.018	19.909	4.453	0.384
95.999	125.186	80.011	19.992	104.014	19.912	4.205	0.363
98.000	125.935	80.012	19.993	104.001	19.909	4.409	0.376
100.000	126.796	80.012	19.992	104.008	19.910	4.391	0.432
102.000	127.572	80.012	19.992	103.992	19.907	4.575	0.410
104.001	128.400	80.015	19.993	104.008	19.911	4.324	0.425
106.000	129.230	80.013	19.992	104.011	19.911	4.316	0.440
108.000	130.096	80.012	19.994	104.009	19.911	4.307	0.398
110.001	130.992	80.012	19.992	104.008	19.910	4.342	0.449
112.001	131.859	80.013	19.993	104.012	19.913	4.154	0.442
113.999	132.787	80.012	19.992	104.010	19.908	4.536	0.460
116.000	133.673	80.013	19.992	104.003	19.909	4.420	0.462
117.999	134.592	80.014	19.992	104.009	19.910	4.345	0.460
120.001	135.515	80.013	19.993	104.006	19.909	4.428	0.480
121.999	136.467	80.014	19.992	104.011	19.908	4.522	0.441
123.999	137.458	80.014	19.992	104.003	19.911	4.311	0.502
126.000	138.377	80.015	19.992	104.000	19.912	4.252	0.470
128.000	139.390	80.014	19.992	104.008	19.908	4.516	0.503
130.000	140.323	80.015	19.993	104.003	19.907	4.582	0.483
131.999	141.331	80.013	19.993	104.002	19.909	4.466	0.484
133.999	142.310	80.013	19.993	103.993	19.911	4.280	0.477
136.000	143.366	80.012	19.993	103.981	19.907	4.574	0.523
137.999	144.383	80.011	19.994	103.993	19.910	4.342	0.517
140.001	145.394	80.011	19.993	103.989	19.910	4.335	0.520
142.000	146.397	80.010	19.995	103.988	19.910	4.379	0.493
143.999	147.371	80.011	19.993	103.994	19.910	4.395	0.477
145.999	148.441	80.011	19.993	103.986	19.910	4.389	0.511
148.000	149.495	80.011	19.993	103.983	19.913	4.129	0.536
150.001	150.526	80.011	19.992	103.981	19.912	4.193	0.527
151.999	151.547	80.013	19.993	103.978	19.914	4.049	0.495
154.000	152.582	80.011	19.993	103.977	19.912	4.217	0.523
155.999	153.583	80.012	19.993	103.978	19.911	4.321	0.515
158.000	154.580	80.010	19.993	103.981	19.912	4.183	0.480
160.000	155.656	80.010	19.993	103.980	19.914	4.049	0.520
162.000	156.701	80.012	19.994	103.978	19.914	4.107	0.507
164.000	157.695	80.009	19.994	103.977	19.914	4.041	0.506
166.000	158.754	80.010	19.995	103.975	19.916	3.915	0.521
168.000	159.760	80.010	19.994	103.975	19.914	4.081	0.508
170.000	160.813	80.012	19.995	103.975	19.916	3.926	0.512
172.000	161.809	80.010	19.995	103.971	19.916	3.953	0.502
173.999	162.842	80.011	19.995	103.969	19.915	3.989	0.487
175.999	163.886	80.012	19.994	103.968	19.913	4.109	0.538
177.999	164.932	80.012	19.993	103.966	19.915	4.030	0.507
180.001	166.019	80.012	19.993	103.962	19.911	4.281	0.542
182.001	166.970	80.013	19.993	103.958	19.913	4.146	0.470
183.999	168.017	80.013	19.993	103.967	19.911	4.280	0.493
186.000	169.001	80.013	19.993	103.964	19.913	4.138	0.501
187.999	170.091	80.013	19.992	103.961	19.911	4.262	0.533
190.001	171.039	80.013	19.993	103.948	19.915	4.012	0.503
192.001	172.090	80.013	19.992	103.958	19.917	3.864	0.515
194.001	173.070	80.013	19.993	103.953	19.915	4.028	0.499
195.999	174.068	80.013	19.994	103.947	19.915	3.980	0.505
198.000	175.068	80.013	19.993	103.940	19.917	3.856	0.499
200.000	176.060	80.013	19.994	103.938	19.917	3.860	0.480
202.000	177.053	80.014	19.994	103.938	19.914	4.040	0.501
204.001	178.060	80.013	19.994	103.939	19.916	3.926	0.476
206.001	179.083	80.013	19.992	103.936	19.917	3.852	0.499
208.000	180.053	80.014	19.993	103.936	19.917	3.818	0.495
210.000	181.063	80.015	19.994	103.944	19.919	3.712	0.500
212.001	182.071	80.014	19.993	103.938	19.918	3.752	0.512
214.000	183.056	80.012	19.993	103.941	19.920	3.605	0.482
216.000	184.011	80.012	19.992	103.938	19.917	3.862	0.489
218.000	184.995	80.012	19.992	103.937	19.920	3.652	0.495
220.000	186.022	80.011	19.993	103.937	19.920	3.654	0.518
222.000	186.969	80.011	19.993	103.939	19.917	3.842	0.456
223.999	187.999	80.011	19.992	103.934	19.917	3.840	0.510
226.001	188.959	80.011	19.993	103.928	19.918	3.758	0.473
228.001	189.960	80.012	19.993	103.939	19.918	3.802	0.518
230.000	190.922	80.011	19.993	103.939	19.915	3.998	0.488
232.001	191.885	80.010	19.993	103.936	19.918	3.782	0.494
234.000	192.833	80.011	19.993	103.939	19.918	3.802	0.497
236.000	193.834	80.013	19.994	103.938	19.917	3.816	0.497
238.000	194.776	80.012	19.995	103.935	19.918	3.752	0.448
240.000	195.748	80.012	19.994	103.936	19.917	3.856	0.489
241.999	196.728	80.012	19.994	103.935	19.916	3.923	0.501
243.999	197.676	80.012	19.993	103.935	19.913	4.113	0.480
245.999	198.644	80.012	19.994	103.935	19.913	4.120	0.479
248.000	199.648	80.011	19.992	103.938	19.915	3.985	0.497
250.000	200.609	80.012	19.994	103.939	19.914	4.081	0.500
251.999	201.540	80.011	19.994	103.935	19.913	4.128	0.471
253.999	202.531	80.010	19.993	103.932	19.911	4.319	0.507
256.000	203.521	80.011	19.994	103.936	19.911	4.271	0.491
257.999	204.501	80.010	19.994	103.933	19.911	4.285	0.505
260.000	205.451	80.011	19.993	103.931	19.911	4.297	0.470
262.000	206.458	80.013	19.996	103.934	19.909	4.475	0.490
263.999	207.459	80.012	19.994	103.935	19.908	4.495	0.496
266.000	208.430	80.014	19.995	103.933	19.906	4.684	0.440
267.999	209.404	80.012	19.994	103.934	19.905	4.702	0.480
269.999	210.398	80.011	19.994	103.933	19.906	4.698	0.467
271.999	211.406	80.012	19.993	103.928	19.903	4.898	0.510
273.999	212.364	80.013	19.994	103.932	19.903	4.872	0.482
275.999	213.350	80.012	19.994	103.936	19.902	4.948	0.486
277.999	214.338	80.013	19.993	103.937	19.903	4.892	0.483
280.000	215.349	80.011	19.993	103.936	19.902	4.926	0.532
282.000	216.317	80.013	19.994	103.938	19.902	4.986	0.500
284.000	217.357	80.013	19.992	103.937	19.898	5.288	0.476
286.000	218.290	80.013	19.993	103.938	19.898	5.288	0.470
288.000	219.330	80.012	19.993	103.937	19.895	5.472	0.503
290.000	220.293	80.013	19.993	103.939	19.899	5.152	0.494
292.000	221.330	80.014	19.992	103.938	19.896	5.386	0.503
294.000	222.325	80.013	19.993	103.940	19.890	5.861	0.525
296.000	223.333	80.014	19.993	103.937	19.892	5.723	0.452
298.001	224.225	80.014	19.993	103.938	19.886	6.111	0.445
300.000	225.320	80.013	19.993	103.938	19.889	5.951	0.552
302.000	226.299	80.011	19.993	103.937	19.886	6.149	0.498
304.000	227.342	80.012	19.995	103.938	19.879	6.629	0.489
306.000	228.337	80.012	19.993	103.936	19.883	6.331	0.518
308.000	229.336	80.012	19.994	103.935	19.878	6.744	0.505
310.000	230.352	80.011	19.994	103.933	19.878	6.724	0.498
312.000	231.320	80.012	19.993	103.936	19.875	6.955	0.495
314.000	232.368	80.012	19.993	103.938	19.874	7.059	0.541
316.000	233.351	80.011	19.993	103.937	19.871	7.289	0.511
318.001	234.384	80.013	19.992	103.937	19.865	7.693	0.484
319.999	235.365	80.013	19.993	103.941	19.867	7.548	0.480
322.000	236.263	80.012	19.995	103.940	19.861	7.991	0.475
324.001	237.408	80.012	19.994	103.939	19.859	8.177	0.405
326.000	238.384	80.012	19.994	103.936	19.855	8.406	0.536
328.000	239.361	80.014	19.994	103.936	19.857	8.258	0.521
330.000	240.296	80.012	19.993	103.943	19.849	8.871	0.471
331.999	241.321	80.013	19.994	103.942	19.846	9.134	0.456
334.000	242.393	80.011	19.994	103.937	19.845	9.212	0.480
336.000	243.329	80.011	19.994	103.939	19.840	9.523	0.480
337.999	244.370	80.011	19.994	103.949	19.838	9.724	0.499
340.000	245.348	80.011	19.994	103.939	19.833	10.069	0.527
341.999	246.324	80.010	19.993	103.945	19.830	10.289	0.497
344.000	247.320	80.010	19.994	103.944	19.827	10.489	0.480
346.000	248.332	80.013	19.993	103.954	19.819	11.135	0.507
348.000	249.331	80.012	19.994	103.947	19.820	11.001	0.492
350.001	250.371	80.012	19.994	103.952	19.811	11.693	0.515
352.001	251.349	80.013	19.994	103.957	19.810	11.799	0.507
354.000	252.356	80.012	19.993	103.964	19.799	12.570	0.501
356.000	253.408	80.012	19.993	103.952	19.797	12.746	0.511
358.000	254.422	80.012	19.994	103.965	19.793	13.020	0.494
359.999	255.412	80.012	19.994	103.972	19.787	13.462	0.494
362.000	256.465	80.011	19.993	103.975	19.783	13.762	0.474
364.000	257.456	80.011	19.993	103.978	19.777	14.206	0.510
366.000	258.468	80.012	19.995	103.961	19.768	14.892	0.545
368.000	259.429	80.013	19.995	103.973	19.762	15.341	0.474
370.000	260.438	80.014	19.994	103.974	19.754	15.922	0.486
372.000	261.450	80.015	19.993	103.975	19.747	16.427	0.484
374.000	262.443	80.015	19.994	103.975	19.739	17.007	0.480
376.000	263.463	80.014	19.992	103.975	19.732	17.530	0.514
378.000	264.465	80.015	19.993	103.978	19.723	18.223	0.493
380.000	265.437	80.013	19.993	103.975	19.719	18.536	0.491
382.000	266.438	80.014	19.995	103.982	19.707	19.420	0.478
383.999	267.418	80.015	19.994	103.997	19.699	20.006	0.491
386.000	268.461	80.013	19.994	103.998	19.693	20.425	0.515
387.999	269.406	80.014	19.994	104.008	19.682	21.263	0.473
389.999	270.492	80.012	19.993	104.006	19.671	22.086	0.557
391.999	271.465	80.011	19.993	104.003	19.663	22.632	0.512
394.001	272.522	80.013	19.993	103.999	19.654	23.356	0.502
396.001	273.482	80.012	19.993	104.014	19.642	24.212	0.494
397.999	274.463	80.011	19.994	104.012	19.636	24.673	0.515
399.999	275.507	80.012	19.994	104.014	19.624	25.555	0.549
402.000	276.516	80.012	19.993	104.014	19.622	25.723	0.497
404.000	277.455	80.012	19.993	104.015	19.611	26.541	0.470
406.000	278.470	80.012	19.993	104.019	19.600	27.349	0.506
408.000	279.460	80.011	19.994	104.017	19.590	28.093	0.506
410.000	280.430	80.013	19.992	104.018	19.585	28.472	0.480
412.000	281.392	80.012	19.993	104.032	19.575	29.221	0.515
413.999	282.418	80.012	19.992	104.034	19.565	29.929	0.486
416.000	283.436	80.012	19.992	104.025	19.557	30.511	0.511
417.999	284.406	80.011	19.992	104.038	19.550	31.018	0.475
419.999	285.376	80.011	19.993	104.037	19.545	31.450	0.488
422.001	286.402	80.012	19.993	104.049	19.537	32.020	0.496
424.000	287.438	80.012	19.993	104.038	19.527	32.778	0.553
426.000	288.400	80.011	19.995	104.043	19.517	33.510	0.497
428.000	289.364	80.012	19.994	104.052	19.514	33.727	0.460
430.000	290.354	80.011	19.994	104.054	19.508	34.145	0.500
431.999	291.414	80.012	19.993	104.048	19.504	34.473	0.514
434.000	292.373	80.014	19.994	104.052	19.497	35.010	0.470
436.000	293.402	80.013	19.994	104.053	19.491	35.402	0.503
437.999	294.389	80.013	19.994	104.051	19.481	36.132	0.479
440.000	295.416	80.014	19.994	104.046	19.478	36.423	0.518
441.999	296.404	80.013	19.995	104.051	19.473	36.785	0.478
444.000	297.409	80.013	19.994	104.052	19.464	37.456	0.494
446.000	298.420	80.012	19.994	104.048	19.459	37.778	0.516
448.001	299.422	80.013	19.993	104.051	19.456	38.034	0.502
450.000	300.455	80.011	19.995	104.051	19.449	38.567	0.493
452.000	301.444	80.013	19.993	104.053	19.445	38.803	0.481
454.000	302.448	80.013	19.994	104.052	19.440	39.242	0.508
456.000	303.452	80.015	19.995	104.051	19.432	39.826	0.513
458.001	304.435	80.014	19.993	104.051	19.431	39.852	0.480
460.000	305.440	80.013	19.995	104.050	19.423	40.499	0.521
462.001	306.442	80.013	19.994	104.051	19.414	41.115	0.523
464.001	307.441	80.014	19.994	104.053	19.413	41.200	0.499
466.000	308.433	80.014	19.994	104.055	19.406	41.726	0.496
468.000	309.453	80.012	19.994	104.060	19.399	42.235	0.526
470.000	310.463	80.013	19.994	104.055	19.394	42.603	0.524
472.001	311.446	80.013	19.993	104.062	19.391	42.828	0.498
474.000	312.505	80.011	19.992	104.058	19.386	43.229	0.514
475.999	313.482	80.012	19.993	104.072	19.382	43.491	0.483
478.000	314.519	80.012	19.993	104.084	19.376	43.946	0.493
480.000	315.508	80.011	19.992	104.088	19.366	44.703	0.504
482.000	316.498	80.012	19.994	104.067	19.361	45.055	0.499
484.000	317.519	80.012	19.993	104.058	19.356	45.461	0.545
486.000	318.531	80.012	19.993	104.071	19.348	46.061	0.567
488.000	319.518	80.011	19.994	104.068	19.343	46.429	0.518
490.000	320.480	80.012	19.994	104.086	19.340	46.643	0.502
491.999	321.525	80.010	19.993	104.079	19.333	47.177	0.515
494.001	322.513	80.011	19.992	104.086	19.325	47.754	0.540
495.999	323.503	80.010	19.993	104.087	19.323	47.917	0.488
498.000	324.492	80.010	19.993	104.088	19.313	48.649	0.486
500.001	325.535	80.010	19.993	104.088	19.306	49.127	0.491
502.000	326.508	80.011	19.994	104.094	19.297	49.826	0.523
504.001	327.556	80.012	19.994	104.094	19.291	50.309	0.519
506.001	328.540	80.011	19.993	104.094	19.279	51.159	0.532
508.001	329.568	80.012	19.993	104.092	19.272	51.684	0.525
510.001	330.585	80.012	19.994	104.095	19.264	52.284	0.516
512.000	331.585	80.012	19.994	104.095	19.255	52.933	0.484
514.000	332.596	80.013	19.993	104.092	19.244	53.798	0.486
516.000	333.628	80.013	19.993	104.106	19.234	54.543	0.504
518.001	334.650	80.014	19.993	104.118	19.224	55.278	0.508
520.000	335.633	80.014	19.993	104.122	19.213	56.061	0.482
522.000	336.646	80.013	19.993	104.127	19.196	57.342	0.477
524.000	337.691	80.012	19.993	104.130	19.189	57.879	0.519
526.000	338.685	80.013	19.993	104.127	19.180	58.574	0.528
528.001	339.695	80.013	19.994	104.131	19.162	59.866	0.509
530.000	340.696	80.013	19.995	104.139	19.149	60.846	0.539
531.999	341.636	80.013	19.995	104.149	19.134	61.922	0.499
534.000	342.654	80.013	19.994	104.168	19.123	62.756	0.489
535.999	343.662	80.013	19.993	104.164	19.101	64.413	0.502
537.999	344.649	80.014	19.994	104.166	19.090	65.216	0.488
540.000	345.635	80.014	19.993	104.172	19.078	66.156	0.494
541.999	346.651	80.014	19.992	104.173	19.054	67.894	0.493
543.999	347.637	80.012	19.992	104.173	19.038	69.150	0.487
546.000	348.613	80.014	19.993	104.184	19.021	70.339	0.492
548.001	349.670	80.014	19.993	104.190	19.010	71.148	0.495
550.001	350.627	80.013	19.993	104.205	18.997	72.153	0.467
552.001	351.669	80.012	19.993	104.209	18.982	73.235	0.525
554.000	352.630	80.011	19.994	104.209	18.965	74.519	0.489
556.000	353.683	80.011	19.994	104.224	18.946	75.940	0.488
557.999	354.674	80.010	19.995	104.210	18.937	76.625	0.495
560.000	355.659	80.010	19.993	104.208	18.926	77.437	0.522
562.000	356.664	80.011	19.996	104.212	18.914	78.280	0.520
564.000	357.687	80.011	19.994	104.216	18.902	79.205	0.509
565.999	358.659	80.012	19.995	104.216	18.895	79.730	0.468
568.000	359.647	80.012	19.995	104.214	18.891	79.965	0.488
570.000	360.628	80.012	19.994	104.212	18.882	80.674	0.479
572.000	361.652	80.013	19.993	104.215	18.884	80.478	0.508
574.000	362.651	80.014	19.994	104.209	18.889	80.094	0.523
576.000	363.725	80.012	19.993	104.204	18.885	80.413	0.526
577.999	364.726	80.011	19.993	104.191	18.890	80.049	0.520
580.000	365.754	80.012	19.993	104.178	18.899	79.392	0.506
582.000	366.778	80.010	19.993	104.171	18.912	78.402	0.518
583.999	367.736	80.013	19.994	104.165	18.927	77.282	0.473
585.999	368.817	80.012	19.994	104.155	18.944	75.946	0.545
588.000	369.884	80.012	19.993	104.146	18.968	74.190	0.547
590.000	370.872	80.011	19.992	104.122	18.995	72.143	0.475
592.000	371.918	80.013	19.993	104.117	19.023	70.077	0.534
594.000	372.984	80.012	19.994	104.094	19.055	67.686	0.536
596.000	374.055	80.011	19.993	104.072	19.094	64.770	0.500
598.000	375.144	80.013	19.993	104.053	19.144	61.063	0.549
600.001	376.165	80.012	19.994	104.030	19.181	58.324	0.524
602.000	377.250	80.014	19.992	104.012	19.226	54.986	0.529
604.001	378.290	80.014	19.992	103.992	19.271	51.657	0.516
606.000	379.368	80.012	19.993	103.975	19.323	47.797	0.528
607.999	380.435	80.013	19.992	103.963	19.369	44.411	0.527
609.999	381.510	80.013	19.993	103.943	19.422	40.440	0.553
611.999	382.562	80.013	19.993	103.930	19.471	36.831	0.533
614.000	383.579	80.013	19.993	103.917	19.517	33.438	0.507
616.000	384.621	80.012	19.992	103.899	19.560	30.245	0.536
618.000	385.674	80.013	19.993	103.896	19.609	26.652	0.504
620.000	386.744	80.013	19.992	103.878	19.645	23.964	0.551
622.000	387.801	80.014	19.993	103.883	19.683	21.145	0.533
624.000	388.797	80.014	19.995	103.878	19.710	19.131	0.524
626.000	389.857	80.013	19.992	103.860	19.736	17.207	0.529
628.000	390.894	80.013	19.994	103.859	19.762	15.276	0.546
630.001	391.902	80.013	19.994	103.859	19.787	13.491	0.534
632.000	392.938	80.012	19.993	103.858	19.802	12.317	0.522
634.001	394.023	80.013	19.993	103.854	19.818	11.178	0.522
636.000	395.030	80.013	19.995	103.854	19.828	10.439	0.519
638.000	396.056	80.012	19.993	103.836	19.836	9.816	0.511
640.000	397.065	80.012	19.994	103.840	19.846	9.081	0.513
642.001	398.084	80.012	19.993	103.854	19.849	8.873	0.523
644.000	399.106	80.014	19.994	103.848	19.855	8.427	0.501
646.000	400.162	80.013	19.993	103.833	19.857	8.290	0.549
648.000	401.146	80.011	19.994	103.840	19.858	8.185	0.524
650.000	402.183	80.012	19.994	103.845	19.862	7.888	0.517
651.999	403.175	80.012	19.995	103.838	19.869	7.407	0.513
654.000	404.145	80.011	19.994	103.832	19.869	7.359	0.491
655.999	405.159	80.011	19.995	103.837	19.870	7.348	0.484
658.000	406.136	80.013	19.995	103.838	19.869	7.410	0.524
660.000	407.162	80.012	19.995	103.830	19.872	7.161	0.518
662.000	408.139	80.011	19.994	103.852	19.873	7.109	0.473
663.999	409.135	80.012	19.995	103.847	19.876	6.872	0.486
666.000	410.121	80.013	19.994	103.840	19.874	7.062	0.506
668.000	411.106	80.011	19.994	103.842	19.879	6.680	0.494
670.000	412.083	80.011	19.994	103.845	19.878	6.730	0.483
672.001	413.041	80.011	19.993	103.854	19.881	6.538	0.491
674.000	414.033	80.012	19.995	103.854	19.879	6.634	0.504
676.000	415.014	80.012	19.993	103.862	19.881	6.526	0.491
678.001	415.979	80.011	19.993	103.860	19.882	6.410	0.505
680.000	416.952	80.013	19.993	103.853	19.881	6.473	0.479
682.000	417.961	80.013	19.994	103.856	19.888	6.025	0.489
684.000	418.946	80.014	19.993	103.857	19.891	5.751	0.467
686.000	419.954	80.013	19.993	103.851	19.889	5.879	0.500
688.000	420.927	80.011	19.992	103.854	19.883	6.337	0.504
690.000	421.926	80.013	19.993	103.858	19.887	6.039	0.485
692.000	422.924	80.012	19.993	103.862	19.891	5.763	0.508
694.000	423.876	80.013	19.993	103.861	19.890	5.827	0.505
696.000	424.909	80.013	19.993	103.859	19.892	5.708	0.497
698.000	425.922	80.012	19.993	103.860	19.893	5.629	0.491
699.999	426.941	80.014	19.993	103.858	19.897	5.291	0.493
701.999	427.950	80.013	19.994	103.851	19.894	5.575	0.472
704.001	428.932	80.014	19.994	103.850	19.895	5.443	0.529
706.000	429.929	80.014	19.993	103.846	19.900	5.089	0.514
708.000	430.927	80.014	19.992	103.845	19.893	5.587	0.482
710.000	431.978	80.015	19.992	103.851	19.902	4.985	0.515
711.999	432.996	80.014	19.994	103.850	19.901	5.051	0.512
714.000	434.053	80.013	19.993	103.841	19.895	5.479	0.517
716.000	435.067	80.013	19.992	103.847	19.901	5.059	0.518
718.000	436.051	80.013	19.993	103.849	19.898	5.259	0.501
720.000	437.069	80.012	19.994	103.857	19.903	4.879	0.510
721.999	438.104	80.012	19.993	103.844	19.902	4.977	0.490
724.001	439.117	80.012	19.995	103.836	19.900	5.113	0.530
725.999	440.149	80.011	19.994	103.850	19.898	5.239	0.519
728.000	441.199	80.011	19.993	103.841	19.902	4.967	0.543
730.000	442.149	80.012	19.994	103.847	19.905	4.739	0.497
732.000	443.197	80.011	19.994	103.842	19.905	4.755	0.524
734.000	444.172	80.012	19.994	103.839	19.907	4.562	0.515
736.000	445.212	80.012	19.993	103.851	19.904	4.797	0.502
737.999	446.209	80.012	19.994	103.851	19.908	4.474	0.498
740.001	447.222	80.011	19.993	103.841	19.912	4.218	0.495
742.000	448.264	80.011	19.994	103.844	19.911	4.292	0.517
744.000	449.188	80.011	19.994	103.848	19.909	4.444	0.479
746.000	450.259	80.011	19.993	103.847	19.911	4.254	0.502
748.000	451.259	80.009	19.995	103.843	19.914	4.102	0.518
750.000	452.248	80.010	19.994	103.848	19.911	4.286	0.502
752.000	453.298	80.009	19.995	103.850	19.908	4.538	0.546
754.000	454.264	80.012	19.995	103.837	19.905	4.762	0.505
755.999	455.286	80.010	19.994	103.848	19.913	4.148	0.520
758.000	456.327	80.009	19.994	103.851	19.909	4.412	0.530
760.001	457.288	80.010	19.994	103.853	19.909	4.450	0.499
762.000	458.324	80.012	19.993	103.848	19.910	4.362	0.498
764.000	459.294	80.013	19.993	103.850	19.912	4.192	0.500
766.000	460.323	80.013	19.993	103.859	19.910	4.368	0.487
768.000	461.311	80.015	19.993	103.849	19.911	4.318	0.500
770.000	462.368	80.014	19.993	103.849	19.914	4.070	0.533
772.000	463.394	80.013	19.994	103.849	19.916	3.932	0.500
774.000	464.368	80.013	19.994	103.847	19.912	4.230	0.499
776.000	465.356	80.013	19.994	103.850	19.916	3.944	0.500
778.000	466.395	80.012	19.993	103.854	19.916	3.920	0.522
780.000	467.384	80.013	19.994	103.856	19.915	3.982	0.504
781.999	468.442	80.013	19.993	103.855	19.911	4.274	0.525
784.001	469.462	80.013	19.993	103.849	19.912	4.190	0.541
786.000	470.504	80.013	19.993	103.850	19.917	3.829	0.539
788.000	471.537	80.013	19.992	103.843	19.910	4.366	0.500
790.000	472.526	80.015	19.994	103.846	19.915	4.010	0.496
792.001	473.577	80.014	19.993	103.850	19.915	3.962	0.493
794.000	474.595	80.015	19.994	103.854	19.915	4.015	0.487
796.000	475.626	80.015	19.993	103.856	19.918	3.739	0.499
798.001	476.710	80.014	19.993	103.856	19.918	3.745	0.529
799.999	477.747	80.012	19.993	103.851	19.919	3.711	0.486
802.001	478.825	80.013	19.992	103.858	19.911	4.304	0.562
804.000	479.897	80.013	19.992	103.854	19.918	3.788	0.560
805.999	480.940	80.012	19.993	103.861	19.917	3.841	0.529
808.000	482.026	80.012	19.992	103.855	19.911	4.256	0.523
809.999	483.071	80.010	19.993	103.860	19.915	4.005	0.544
812.000	484.166	80.011	19.993	103.861	19.915	4.012	0.556
814.000	485.240	80.013	19.994	103.852	19.921	3.537	0.551
815.999	486.277	80.011	19.992	103.852	19.914	4.082	0.535
818.000	487.375	80.010	19.993	103.859	19.923	3.407	0.535
819.999	488.461	80.011	19.994	103.858	19.922	3.511	0.549
822.000	489.559	80.009	19.993	103.857	19.923	3.405	0.543
824.000	490.610	80.012	19.994	103.849	19.920	3.626	0.547
826.000	491.671	80.012	19.995	103.857	19.916	3.940	0.547
828.000	492.809	80.011	19.994	103.849	19.914	4.102	0.572
830.000	493.879	80.009	19.993	103.852	19.916	3.904	0.554
832.000	494.952	80.012	19.995	103.844	19.917	3.832	0.510
834.000	495.953	80.010	19.994	103.844	19.918	3.800	0.514
835.999	497.060	80.010	19.995	103.829	19.918	3.768	0.531
838.000	498.111	80.011	19.992	103.834	19.924	3.291	0.538
839.999	499.068	80.012	19.994	103.837	19.924	3.329	0.454
842.000	500.107	80.011	19.994	103.839	19.922	3.453	0.518
843.999	501.128	80.012	19.995	103.847	19.924	3.305	0.503
845.999	502.139	80.013	19.994	103.840	19.924	3.337	0.489
847.999	503.188	80.011	19.994	103.842	19.928	3.063	0.550
850.000	504.206	80.031	19.996	103.853	19.923	3.411	0.543
852.000	505.179	80.031	20.001	103.854	19.927	3.117	0.519
854.000	506.160	80.032	20.001	103.855	19.927	3.079	0.470
856.000	507.187	80.030	20.000	103.841	19.925	3.261	0.489
857.999	508.191	80.032	20.000	103.848	19.929	2.985	0.507
860.000	509.194	80.031	20.000	103.849	19.925	3.217	0.499
862.000	510.191	80.031	19.999	103.854	19.939	2.244	0.511
863.999	511.127	80.031	19.998	103.853	19.929	2.983	0.496
865.999	512.125	80.034	19.999	103.857	19.925	3.241	0.473
868.000	513.117	80.033	19.999	103.860	19.927	3.091	0.509
870.000	514.134	80.031	19.996	103.857	19.921	3.567	0.479
872.000	515.190	80.033	19.997	103.850	19.928	2.995	0.524
874.000	516.180	80.033	19.997	103.845	19.931	2.773	0.506
876.000	517.154	80.035	19.998	103.858	19.928	3.039	0.501
878.000	518.184	80.034	19.999	103.854	19.927	3.097	0.513
880.000	519.184	80.033	19.997	103.859	19.923	3.415	0.509
881.999	520.161	80.031	19.997	103.858	19.923	3.399	0.499
883.999	521.207	80.031	19.997	103.850	19.923	3.387	0.539
886.000	522.199	80.031	19.998	103.846	19.928	3.019	0.500
888.000	523.224	80.030	19.997	103.852	19.927	3.105	0.525
889.999	524.257	80.031	19.999	103.852	19.930	2.906	0.549
891.999	525.239	80.030	19.998	103.840	19.927	3.097	0.510
894.000	526.254	80.031	19.997	103.861	19.927	3.133	0.515
896.000	527.247	80.031	19.996	103.863	19.927	3.101	0.515
897.999	528.282	80.032	19.998	103.860	19.930	2.883	0.514
899.999	529.315	80.035	19.999	103.861	19.931	2.807	0.506
902.000	530.328	80.032	19.996	103.852	19.928	3.053	0.514
904.000	531.347	80.032	19.997	103.846	19.928	3.057	0.504
906.000	532.357	80.031	19.995	103.859	19.926	3.201	0.495
907.999	533.366	80.033	19.997	103.841	19.927	3.075	0.506
910.000	534.410	80.030	19.996	103.851	19.924	3.311	0.516
912.000	535.466	80.031	19.998	103.853	19.928	3.041	0.533
914.000	536.503	80.021	19.995	103.849	19.929	2.943	0.534
916.000	537.482	80.013	19.996	103.848	19.928	3.019	0.488
917.999	538.504	80.012	19.995	103.834	19.926	3.145	0.479
919.999	539.583	80.011	19.995	103.837	19.921	3.516	0.529
922.000	540.606	80.017	19.997	103.844	19.925	3.270	0.511
923.999	541.659	80.014	19.995	103.833	19.929	2.991	0.535
925.999	542.691	80.018	19.996	103.835	19.927	3.069	0.531
928.000	543.718	80.029	19.995	103.850	19.927	3.083	0.509
929.999	544.714	80.014	19.995	103.833	19.927	3.137	0.513
932.000	545.772	80.013	19.994	103.825	19.926	3.215	0.521
934.000	546.743	80.014	19.995	103.830	19.932	2.747	0.497
936.000	547.775	80.014	19.995	103.831	19.926	3.215	0.490
938.000	548.817	80.013	19.996	103.835	19.927	3.119	0.493
940.000	549.838	80.013	19.996	103.842	19.926	3.145	0.507
942.000	550.903	80.012	19.996	103.841	19.928	3.001	0.537
943.999	551.894	80.011	19.996	103.830	19.930	2.865	0.516
945.999	552.938	80.030	19.999	103.828	19.928	3.007	0.510
948.000	553.977	80.030	19.997	103.843	19.927	3.107	0.534
949.999	555.001	80.031	19.998	103.833	19.931	2.825	0.507
952.000	556.044	80.032	19.998	103.840	19.932	2.743	0.544
954.000	557.076	80.032	19.997	103.844	19.932	2.727	0.514
956.000	558.128	80.034	19.998	103.833	19.933	2.695	0.520
958.000	559.093	80.034	19.997	103.829	19.932	2.765	0.496
959.999	560.161	80.032	19.997	103.841	19.925	3.223	0.522
962.000	561.184	80.032	19.997	103.856	19.929	2.993	0.501
964.000	562.238	80.032	19.998	103.844	19.934	2.592	0.512
966.000	563.267	80.031	19.998	103.839	19.931	2.813	0.470
968.000	564.356	80.031	19.999	103.845	19.929	2.945	0.529
970.000	565.342	80.031	19.997	103.835	19.934	2.553	0.556
972.000	566.372	80.031	19.996	103.847	19.936	2.447	0.535
974.000	567.352	80.030	19.998	103.854	19.935	2.509	0.511
976.000	568.448	80.031	19.997	103.841	19.937	2.330	0.540
978.000	569.429	80.032	20.000	103.848	19.931	2.839	0.505
980.001	570.427	80.031	19.998	103.837	19.933	2.661	0.476
982.000	571.480	80.033	19.999	103.835	19.934	2.613	0.518
984.000	572.474	80.033	19.997	103.837	19.931	2.799	0.480
986.000	573.557	80.032	19.995	103.837	19.929	2.975	0.546
988.000	574.623	80.032	19.999	103.848	19.929	2.959	0.565
990.000	575.619	80.032	19.995	103.831	19.934	2.609	0.503
991.999	576.661	80.031	19.997	103.823	19.931	2.841	0.515
994.000	577.642	80.033	19.999	103.837	19.932	2.734	0.474
995.999	578.670	80.020	19.995	103.836	19.931	2.842	0.517
997.999	579.672	80.032	19.997	103.844	19.926	3.195	0.488
1000.000	580.704	80.033	19.996	103.850	19.932	2.724	0.500
1002.000	581.693	80.032	19.999	103.847	19.935	2.548	0.497
1004.000	582.714	80.032	19.998	103.860	19.935	2.538	0.518
1006.000	583.730	80.031	19.999	103.856	19.936	2.414	0.511
1008.000	584.772	80.031	19.997	103.858	19.932	2.756	0.525
1010.000	585.754	80.033	20.000	103.857	19.933	2.669	0.514
1012.000	586.755	80.034	19.999	103.854	19.934	2.592	0.476
1014.000	587.822	80.032	19.998	103.856	19.932	2.749	0.506
1016.000	588.851	80.032	20.001	103.858	19.936	2.458	0.524
1017.999	589.867	80.032	20.000	103.848	19.934	2.610	0.540
1020.000	590.885	80.033	19.997	103.852	19.936	2.470	0.528
1021.999	591.910	80.032	19.999	103.847	19.936	2.402	0.497
1024.000	592.976	80.032	19.998	103.839	19.941	2.046	0.530
1025.999	594.002	80.032	20.000	103.838	19.937	2.327	0.506
1028.001	595.019	80.033	20.000	103.852	19.939	2.248	0.489
1029.999	596.019	80.032	19.999	103.850	19.938	2.297	0.491
1032.000	597.112	80.033	20.001	103.858	19.933	2.647	0.531
1034.000	598.147	80.032	19.997	103.859	19.932	2.753	0.528
1035.999	599.167	80.014	19.995	103.818	19.932	2.749	0.515
1038.000	600.196	80.014	19.997	103.825	19.927	3.077	0.515
1040.000	601.197	80.014	19.994	103.839	19.932	2.737	0.524
1042.001	602.167	80.014	19.997	103.821	19.926	3.154	0.500
1044.000	603.158	80.015	19.995	103.819	19.929	2.983	0.480
1045.999	604.168	80.014	19.995	103.821	19.933	2.671	0.508
1047.999	605.157	80.013	19.995	103.827	19.927	3.096	0.483
1050.001	606.198	80.013	19.994	103.832	19.930	2.877	0.559
1051.999	607.148	80.012	19.994	103.822	19.929	2.953	0.492
1054.000	608.179	80.013	19.994	103.822	19.929	2.935	0.493
1055.999	609.131	80.012	19.995	103.829	19.933	2.681	0.490
1058.000	610.105	80.012	19.994	103.832	19.933	2.687	0.484
1059.999	611.144	80.013	19.993	103.822	19.927	3.117	0.510
1062.000	612.092	80.013	19.994	103.830	19.925	3.274	0.479
1063.999	613.127	80.012	19.994	103.832	19.933	2.685	0.513
1065.999	614.148	80.013	19.994	103.829	19.933	2.625	0.502
1067.999	615.169	80.013	19.993	103.834	19.929	2.963	0.470
1069.999	616.137	80.011	19.995	103.827	19.927	3.097	0.499
1071.999	617.122	80.013	19.993	103.829	19.927	3.121	0.506
1073.999	618.092	80.013	19.993	103.838	19.932	2.719	0.471
1076.000	619.086	80.012	19.995	103.836	19.923	3.430	0.493
1078.001	620.190	80.011	19.994	103.830	19.930	2.863	0.538
1080.001	621.183	80.011	19.995	103.834	19.928	2.999	0.500
1082.001	622.133	80.012	19.993	103.840	19.933	2.645	0.509
1084.000	623.153	80.011	19.994	103.848	19.931	2.837	0.528
1086.000	624.222	80.010	19.994	103.838	19.927	3.071	0.543
1087.999	625.222	80.011	19.993	103.832	19.932	2.733	0.490
1089.999	626.323	80.012	19.992	103.832	19.930	2.894	0.533
1092.000	627.353	80.013	19.993	103.828	19.934	2.561	0.512
1094.001	628.407	80.014	19.993	103.831	19.932	2.771	0.532
1095.999	629.500	80.014	19.993	103.838	19.927	3.070	0.542
1098.000	630.537	80.014	19.994	103.838	19.927	3.082	0.512
1099.999	631.601	80.013	19.994	103.820	19.930	2.904	0.522
1101.999	632.639	80.014	19.994	103.821	19.931	2.809	0.499
1104.000	633.688	80.012	19.993	103.821	19.926	3.166	0.514
1106.000	634.772	80.014	19.995	103.820	19.934	2.571	0.505
1108.001	635.813	80.014	19.994	103.819	19.925	3.266	0.498
1110.000	636.839	80.013	19.994	103.818	19.928	3.008	0.518
1111.999	637.882	80.013	19.994	103.818	19.923	3.384	0.514
1114.000	638.903	80.012	19.994	103.822	19.926	3.210	0.533
1116.000	639.979	80.015	19.994	103.834	19.931	2.833	0.505
1117.999	641.022	80.015	19.994	103.827	19.925	3.246	0.560
1120.000	642.063	80.015	19.994	103.821	19.923	3.432	0.515
1122.000	643.110	80.014	19.993	103.825	19.924	3.312	0.518
1124.000	644.161	80.014	19.994	103.817	19.929	2.951	0.524
1125.999	645.191	80.015	19.994	103.827	19.926	3.167	0.544
1128.000	646.278	80.013	19.994	103.829	19.929	2.987	0.522
1130.001	647.319	80.012	19.994	103.822	19.932	2.767	0.536
1131.999	648.362	80.011	19.995	103.826	19.930	2.871	0.541
1133.999	649.398	80.012	19.994	103.826	19.928	3.018	0.532
1136.000	650.456	80.012	19.994	103.839	19.925	3.246	0.505
1137.999	651.535	80.008	19.994	103.845	19.931	2.791	0.548
1140.000	652.582	80.010	19.995	103.838	19.929	2.961	0.566
1142.000	653.615	80.010	19.995	103.830	19.931	2.783	0.541
1144.001	654.664	80.012	19.995	103.830	19.930	2.859	0.510
1146.000	655.736	80.011	19.994	103.821	19.934	2.607	0.518
1148.000	656.772	80.013	19.994	103.821	19.930	2.881	0.480
1149.999	657.808	80.013	19.994	103.823	19.931	2.785	0.554
1151.999	658.856	80.011	19.993	103.827	19.937	2.369	0.499
1154.000	659.923	80.012	19.992	103.823	19.927	3.126	0.533
1155.999	660.929	80.017	19.995	103.825	19.929	2.968	0.516
1158.000	661.994	80.030	20.002	103.852	19.929	2.931	0.526
1159.999	663.054	80.016	19.995	103.836	19.933	2.695	0.515
1162.000	664.056	80.013	19.996	103.826	19.931	2.825	0.503
1163.999	665.127	80.013	19.994	103.830	19.935	2.491	0.524
1166.001	666.108	80.011	19.995	103.825	19.932	2.735	0.517
1168.000	667.165	80.012	19.993	103.825	19.930	2.873	0.517
1169.999	668.193	80.011	19.993	103.833	19.931	2.831	0.519
1172.000	669.177	80.013	19.993	103.824	19.931	2.803	0.509
1173.999	670.238	80.013	19.993	103.819	19.930	2.859	0.518
1175.999	671.252	80.012	19.994	103.821	19.932	2.701	0.516
1177.999	672.284	80.014	19.994	103.829	19.931	2.787	0.481
1179.999	673.306	80.015	19.994	103.820	19.932	2.713	0.539
1182.000	674.340	80.016	19.994	103.821	19.931	2.787	0.542
1184.000	675.339	80.012	19.993	103.825	19.933	2.635	0.526
1186.000	676.302	80.015	19.994	103.821	19.934	2.619	0.457
1187.999	677.343	80.014	19.993	103.820	19.929	2.968	0.509
1189.999	678.334	80.014	19.993	103.820	19.933	2.679	0.487
1191.999	679.351	80.013	19.994	103.822	19.928	3.022	0.510
1194.000	680.337	80.014	19.993	103.830	19.930	2.857	0.496
1196.001	681.316	80.012	19.993	103.826	19.933	2.671	0.501
1197.999	682.333	80.017	19.993	103.819	19.932	2.771	0.523
1199.999	683.283	80.014	19.993	103.821	19.937	2.399	0.436
1202.000	684.242	80.015	19.994	103.822	19.934	2.613	0.484
1204.000	685.237	80.015	19.994	103.826	19.932	2.719	0.490
1206.000	686.225	80.015	19.993	103.819	19.932	2.703	0.528
1208.000	687.224	80.014	19.994	103.819	19.930	2.906	0.499
1210.000	688.221	80.015	19.994	103.822	19.929	2.950	0.546
1212.000	689.225	80.014	19.994	103.822	19.928	3.015	0.516
1214.001	690.243	80.011	19.994	103.826	19.932	2.763	0.519
1216.000	691.243	80.011	19.994	103.827	19.930	2.851	0.508
1218.000	692.297	80.011	19.995	103.821	19.930	2.895	0.508
1220.000	693.306	80.012	19.993	103.821	19.929	2.985	0.496
1222.000	694.325	80.010	19.994	103.829	19.929	2.923	0.541
1224.000	695.397	80.014	19.994	103.840	19.929	2.934	0.542
1226.000	696.406	80.013	19.994	103.831	19.929	2.924	0.508
1228.000	697.518	80.011	19.995	103.825	19.929	2.930	0.574
1230.000	698.530	80.014	19.995	103.821	19.933	2.695	0.542
1231.999	699.604	80.013	19.994	103.828	19.928	3.010	0.527
1234.000	700.614	80.013	19.995	103.821	19.925	3.230	0.564
1236.001	701.679	80.014	19.995	103.819	19.930	2.897	0.507
1238.001	702.739	80.012	19.996	103.822	19.930	2.891	0.534
1240.000	703.816	80.011	19.995	103.822	19.930	2.871	0.551
1242.000	704.861	80.012	19.994	103.826	19.930	2.873	0.516
1244.000	705.873	80.014	19.994	103.824	19.933	2.645	0.528
1246.001	706.912	80.012	19.995	103.822	19.931	2.789	0.506
1247.999	707.920	80.015	19.992	103.824	19.928	3.018	0.509
1249.999	708.983	80.012	19.995	103.822	19.931	2.777	0.520
1251.999	710.048	80.012	19.995	103.824	19.928	3.014	0.524
1253.999	711.150	80.013	19.995	103.822	19.930	2.892	0.533
1255.999	712.171	80.015	19.993	103.821	19.930	2.919	0.559
1257.999	713.236	80.012	19.994	103.822	19.928	3.044	0.519
1260.000	714.204	80.015	19.994	103.824	19.930	2.910	0.497
1261.999	715.290	80.014	19.992	103.830	19.929	2.932	0.528
1264.000	716.357	80.014	19.994	103.821	19.932	2.735	0.534
1265.999	717.331	80.014	19.994	103.825	19.931	2.805	0.479
1268.000	718.332	80.014	19.994	103.822	19.931	2.817	0.538
1270.000	719.321	80.014	19.994	103.821	19.931	2.819	0.497
1271.999	720.313	80.013	19.994	103.821	19.933	2.643	0.481
1273.999	721.310	80.013	19.994	103.821	19.930	2.849	0.480
1276.000	722.266	80.013	19.993	103.823	19.930	2.877	0.458
1277.999	723.280	80.012	19.994	103.827	19.929	2.966	0.529
1280.000	724.246	80.010	19.994	103.823	19.931	2.839	0.421
1282.000	725.204	80.014	19.994	103.823	19.932	2.771	0.434
1284.000	726.187	80.014	19.995	103.827	19.925	3.224	0.492
1286.000	727.219	80.015	19.993	103.826	19.926	3.186	0.556
1288.000	728.142	80.015	19.992	103.825	19.928	3.016	0.514
1289.999	729.133	80.015	19.993	103.822	19.924	3.304	0.490
1291.999	730.110	80.014	19.994	103.821	19.928	3.028	0.486
1293.999	731.130	80.017	19.993	103.827	19.927	3.078	0.525
1296.000	732.102	80.015	19.993	103.826	19.927	3.082	0.492
1298.000	733.147	80.012	19.993	103.819	19.930	2.885	0.520
1300.000	734.146	80.011	19.994	103.818	19.928	3.003	0.546
1302.000	735.154	80.015	19.994	103.825	19.925	3.228	0.510
1304.001	736.200	80.010	19.995	103.823	19.931	2.773	0.495
1306.001	737.208	80.011	19.995	103.820	19.932	2.763	0.529
1307.999	738.246	80.013	19.994	103.828	19.929	2.934	0.548
1309.999	739.306	80.012	19.995	103.826	19.931	2.811	0.547
1312.000	740.388	80.012	19.993	103.822	19.928	3.014	0.537
1314.000	741.414	80.014	19.994	103.833	19.926	3.162	0.498
1316.000	742.495	80.013	19.994	103.831	19.931	2.843	0.550
1317.500	743.269	80.012	19.993	103.825	19.929	2.960	0.543