File: 01_Data/Excelsior/MCC/Excelsior_MCC_30K_min_220216_R3.txt
Sample ID:	C:\MCC\MCC Cal\Test\Excelsior_MCC_30K_min_220216_R3.txt
Sample Weight (mg):	4.4
Heating Rate (C/s):	0.5
Combustor Temp (C):	900
N2 Flow Rate (cc/min):	80
O2 Flow Rate (cc/min):	20
Calibration File:	C:\MCC\MCC Cal\Coeff1 JN10440_30_210304.txt.txt
T Correction Coefficients:	0	1.024463	0
Time Shift (s):	14
*
Time (s)	Temperature (C)	N2 flow rate (cc/min)	O2 flow rate (cc/min)	Flow Rate (cc/min)	Oxygen (%)	HRR (W/g)	Heating rate (C/s)
0.000	112.877	80.011	19.994	103.726	20.034	-0.054	0.004
2.000	112.878	80.012	19.993	103.735	20.038	-0.376	-0.023
4.000	112.833	80.011	19.992	103.734	20.042	-0.640	-0.033
6.000	112.868	80.012	19.994	103.736	20.041	-0.537	0.011
8.000	112.892	80.010	19.993	103.738	20.036	-0.211	0.015
10.000	112.907	80.010	19.994	103.741	20.033	-0.002	0.020
12.001	112.864	80.010	19.993	103.747	20.029	0.316	0.011
14.001	112.852	80.010	19.992	103.773	20.025	0.591	-0.025
16.001	112.941	80.011	19.993	103.797	20.023	0.772	0.031
18.000	113.018	80.011	19.992	103.841	20.016	1.276	0.059
20.001	113.064	80.012	19.993	103.865	20.015	1.385	0.014
22.000	113.149	80.012	19.994	103.865	20.015	1.350	0.026
23.999	113.257	80.012	19.993	103.870	20.008	1.889	0.082
26.001	113.346	80.012	19.992	103.896	20.008	1.865	0.066
27.999	113.584	80.014	19.992	103.920	20.006	2.036	0.137
30.001	113.798	80.013	19.992	103.917	20.001	2.385	0.074
32.001	114.031	80.011	19.992	103.934	20.003	2.245	0.107
34.001	114.308	80.012	19.993	103.936	20.001	2.361	0.146
36.000	114.659	80.011	19.992	103.926	20.002	2.331	0.137
38.001	114.961	80.010	19.993	103.906	19.999	2.538	0.169
40.001	115.289	80.011	19.991	103.930	20.001	2.385	0.194
42.000	115.650	80.009	19.991	103.927	20.000	2.427	0.153
44.001	116.060	80.010	19.994	103.929	20.000	2.439	0.211
46.000	116.426	80.011	19.994	103.922	20.000	2.435	0.186
48.000	116.832	80.010	19.992	103.935	20.000	2.451	0.217
49.999	117.292	80.012	19.993	103.944	19.996	2.740	0.218
52.000	117.773	80.010	19.994	103.948	19.998	2.603	0.244
54.000	118.219	80.010	19.993	103.954	19.997	2.673	0.221
56.000	118.739	80.009	19.993	103.944	19.990	3.192	0.279
58.001	119.276	80.010	19.994	103.961	19.989	3.254	0.268
60.000	119.778	80.009	19.995	103.972	19.990	3.168	0.263
62.001	120.333	80.010	19.995	103.980	19.991	3.141	0.300
64.001	120.920	80.010	19.993	103.977	19.989	3.300	0.272
65.999	121.504	80.010	19.994	103.974	19.991	3.154	0.296
68.000	122.133	80.012	19.995	103.978	19.990	3.169	0.316
70.000	122.711	80.011	19.993	103.971	19.989	3.302	0.285
71.999	123.390	80.011	19.994	103.976	19.988	3.380	0.315
74.000	124.043	80.010	19.995	103.976	19.989	3.292	0.326
75.999	124.704	80.010	19.993	103.980	19.989	3.270	0.306
78.001	125.419	80.011	19.994	103.976	19.989	3.304	0.377
80.000	126.123	80.010	19.994	103.977	19.985	3.539	0.362
82.000	126.829	80.012	19.994	103.977	19.985	3.603	0.370
83.999	127.551	80.012	19.994	103.974	19.987	3.447	0.356
86.000	128.284	80.010	19.995	103.976	19.988	3.380	0.350
88.001	129.055	80.011	19.997	103.982	19.989	3.244	0.403
89.999	129.836	80.011	19.996	103.980	19.988	3.370	0.367
92.000	130.622	80.012	19.994	103.980	19.989	3.301	0.404
93.999	131.404	80.012	19.995	103.975	19.985	3.571	0.404
96.000	132.195	80.010	19.994	103.995	19.982	3.769	0.421
98.000	133.033	80.011	19.993	103.999	19.982	3.753	0.430
100.000	133.849	80.012	19.992	103.982	19.985	3.541	0.399
102.000	134.676	80.011	19.991	103.986	19.980	3.908	0.403
104.001	135.551	80.013	19.993	104.001	19.984	3.669	0.431
106.000	136.350	80.014	19.993	103.985	19.982	3.756	0.416
108.001	137.256	80.012	19.992	103.994	19.983	3.730	0.441
109.999	138.072	80.012	19.993	103.991	19.982	3.773	0.402
112.000	138.968	80.013	19.993	103.991	19.983	3.701	0.437
114.001	139.890	80.013	19.993	104.000	19.984	3.675	0.454
116.000	140.776	80.011	19.994	103.990	19.986	3.514	0.463
118.001	141.703	80.011	19.994	103.995	19.982	3.817	0.456
120.000	142.628	80.010	19.993	103.990	19.985	3.577	0.430
122.001	143.570	80.010	19.993	104.006	19.986	3.504	0.479
123.999	144.558	80.009	19.993	103.991	19.985	3.589	0.480
125.999	145.491	80.010	19.992	103.994	19.983	3.683	0.464
127.999	146.480	80.011	19.994	103.998	19.986	3.513	0.481
129.999	147.467	80.011	19.993	103.998	19.985	3.589	0.465
132.001	148.416	80.011	19.993	103.994	19.985	3.555	0.464
134.000	149.393	80.013	19.993	103.995	19.984	3.654	0.481
136.000	150.406	80.012	19.994	103.983	19.983	3.734	0.494
138.000	151.359	80.013	19.993	103.988	19.985	3.599	0.495
139.999	152.337	80.011	19.993	103.983	19.988	3.382	0.507
142.000	153.374	80.011	19.995	103.985	19.985	3.557	0.517
144.000	154.393	80.010	19.993	103.981	19.986	3.515	0.512
146.000	155.316	80.011	19.992	103.980	19.986	3.471	0.479
148.000	156.326	80.010	19.994	103.979	19.986	3.525	0.520
149.999	157.338	80.010	19.993	103.980	19.986	3.457	0.436
151.999	158.347	80.011	19.993	103.979	19.987	3.431	0.513
153.999	159.369	80.011	19.994	103.984	19.987	3.388	0.505
156.000	160.393	80.011	19.993	103.980	19.986	3.487	0.497
158.000	161.407	80.010	19.994	103.978	19.986	3.459	0.502
160.001	162.419	80.010	19.994	103.976	19.986	3.519	0.521
162.000	163.425	80.010	19.993	103.976	19.987	3.391	0.513
163.999	164.487	80.012	19.994	103.979	19.988	3.350	0.532
165.999	165.487	80.013	19.993	103.976	19.989	3.254	0.513
167.999	166.557	80.013	19.994	103.974	19.986	3.507	0.555
170.000	167.565	80.011	19.993	103.974	19.987	3.423	0.542
171.999	168.543	80.011	19.993	103.974	19.988	3.311	0.478
173.999	169.614	80.011	19.993	103.978	19.987	3.425	0.532
175.999	170.630	80.011	19.994	103.974	19.985	3.550	0.521
178.001	171.636	80.011	19.994	103.970	19.988	3.337	0.512
180.000	172.648	80.011	19.994	103.976	19.986	3.475	0.515
182.000	173.656	80.010	19.993	103.968	19.986	3.508	0.526
184.001	174.678	80.010	19.995	103.960	19.987	3.389	0.519
185.999	175.703	80.010	19.994	103.971	19.989	3.236	0.507
187.999	176.663	80.011	19.993	103.959	19.988	3.381	0.460
190.001	177.652	80.012	19.994	103.966	19.986	3.472	0.493
192.001	178.681	80.012	19.993	103.954	19.989	3.297	0.499
193.999	179.738	80.011	19.993	103.953	19.987	3.446	0.511
195.999	180.733	80.013	19.993	103.958	19.989	3.271	0.494
198.000	181.727	80.011	19.993	103.953	19.990	3.233	0.536
200.001	182.733	80.010	19.992	103.946	19.987	3.404	0.487
202.000	183.700	80.010	19.993	103.951	19.986	3.522	0.481
204.000	184.713	80.010	19.993	103.951	19.989	3.265	0.497
206.001	185.743	80.010	19.992	103.950	19.988	3.358	0.508
208.000	186.799	80.010	19.994	103.946	19.986	3.522	0.520
209.999	187.793	80.011	19.993	103.940	19.987	3.392	0.509
211.999	188.816	80.009	19.993	103.946	19.988	3.343	0.476
214.000	189.781	80.010	19.993	103.958	19.984	3.627	0.469
216.000	190.751	80.010	19.994	103.947	19.988	3.380	0.503
218.000	191.751	80.010	19.994	103.944	19.988	3.317	0.481
219.999	192.758	80.010	19.994	103.948	19.986	3.526	0.462
222.000	193.704	80.008	19.993	103.939	19.989	3.287	0.474
224.000	194.721	80.012	19.994	103.942	19.985	3.546	0.506
226.000	195.671	80.011	19.994	103.938	19.988	3.339	0.505
228.000	196.659	80.012	19.994	103.942	19.988	3.329	0.498
230.000	197.688	80.011	19.994	103.943	19.985	3.546	0.508
231.999	198.710	80.010	19.994	103.940	19.985	3.562	0.538
233.999	199.673	80.011	19.994	103.940	19.987	3.410	0.505
236.000	200.664	80.010	19.994	103.943	19.985	3.579	0.473
238.000	201.609	80.009	19.992	103.946	19.985	3.550	0.475
240.001	202.609	80.011	19.993	103.943	19.981	3.826	0.508
241.999	203.606	80.011	19.995	103.943	19.982	3.818	0.497
243.999	204.580	80.011	19.993	103.942	19.983	3.677	0.504
245.999	205.543	80.012	19.993	103.943	19.984	3.607	0.457
248.000	206.575	80.012	19.994	103.940	19.982	3.771	0.506
249.999	207.531	80.012	19.994	103.941	19.983	3.703	0.526
252.001	208.526	80.012	19.994	103.943	19.979	4.035	0.488
253.999	209.457	80.012	19.993	103.936	19.978	4.053	0.447
256.000	210.433	80.012	19.995	103.941	19.980	3.922	0.472
258.000	211.409	80.011	19.993	103.940	19.979	4.037	0.498
260.000	212.441	80.011	19.993	103.945	19.980	3.956	0.495
262.000	213.385	80.012	19.994	103.941	19.978	4.093	0.463
264.000	214.405	80.012	19.992	103.939	19.976	4.254	0.484
266.001	215.313	80.013	19.994	103.938	19.974	4.380	0.456
267.999	216.322	80.012	19.994	103.936	19.969	4.748	0.512
270.000	217.309	80.013	19.994	103.936	19.969	4.722	0.444
272.000	218.296	80.013	19.993	103.935	19.969	4.740	0.494
273.999	219.281	80.013	19.994	103.937	19.970	4.662	0.506
276.000	220.296	80.013	19.994	103.937	19.966	4.967	0.489
277.999	221.253	80.014	19.994	103.935	19.965	5.066	0.475
279.999	222.171	80.012	19.995	103.935	19.963	5.184	0.458
281.999	223.186	80.010	19.993	103.936	19.964	5.138	0.484
284.001	224.171	80.011	19.995	103.935	19.958	5.523	0.496
285.999	225.169	80.009	19.995	103.938	19.958	5.571	0.512
287.999	226.164	80.010	19.994	103.937	19.957	5.658	0.501
290.001	227.151	80.011	19.994	103.936	19.958	5.550	0.501
292.000	228.152	80.010	19.993	103.937	19.954	5.867	0.505
294.001	229.112	80.011	19.993	103.937	19.951	6.082	0.509
296.000	230.128	80.012	19.993	103.945	19.950	6.162	0.497
298.000	231.121	80.012	19.993	103.941	19.948	6.301	0.500
299.999	232.114	80.012	19.992	103.941	19.942	6.751	0.500
302.000	233.124	80.012	19.994	103.939	19.941	6.829	0.494
303.999	234.088	80.010	19.993	103.940	19.938	7.024	0.477
305.999	235.110	80.011	19.992	103.943	19.936	7.185	0.510
308.000	236.116	80.011	19.993	103.943	19.937	7.083	0.502
310.001	237.079	80.010	19.993	103.939	19.933	7.388	0.493
312.000	238.102	80.011	19.993	103.940	19.931	7.557	0.502
314.000	239.049	80.010	19.993	103.944	19.928	7.757	0.477
315.999	240.051	80.010	19.993	103.944	19.924	8.083	0.475
317.999	241.069	80.009	19.994	103.939	19.922	8.243	0.530
320.000	242.071	80.009	19.993	103.944	19.919	8.410	0.518
321.999	243.079	80.010	19.993	103.941	19.915	8.731	0.492
323.999	244.065	80.010	19.993	103.945	19.912	8.984	0.493
325.999	245.089	80.011	19.993	103.947	19.911	9.057	0.497
327.999	246.072	80.013	19.994	103.955	19.908	9.256	0.501
329.999	247.069	80.013	19.992	103.954	19.899	9.871	0.494
332.000	248.078	80.013	19.994	103.952	19.894	10.306	0.479
334.000	249.115	80.013	19.992	103.955	19.894	10.296	0.526
336.001	250.141	80.013	19.993	103.956	19.885	10.905	0.490
338.000	251.199	80.012	19.993	103.949	19.883	11.081	0.523
340.000	252.176	80.012	19.995	103.958	19.881	11.253	0.443
342.000	253.144	80.010	19.992	103.961	19.875	11.690	0.489
343.999	254.152	80.010	19.995	103.970	19.870	12.036	0.464
346.001	255.168	80.012	19.994	103.972	19.862	12.606	0.503
348.000	256.164	80.011	19.994	103.968	19.858	12.901	0.512
350.000	257.148	80.011	19.993	103.968	19.856	13.062	0.509
351.999	258.130	80.013	19.993	103.964	19.847	13.730	0.453
354.000	259.178	80.012	19.993	103.969	19.842	14.088	0.459
356.000	260.149	80.014	19.994	103.973	19.831	14.890	0.495
358.001	261.149	80.013	19.992	103.973	19.831	14.957	0.472
360.001	262.161	80.014	19.993	103.974	19.818	15.856	0.509
361.999	263.184	80.012	19.993	103.975	19.814	16.189	0.495
364.000	264.173	80.014	19.995	103.980	19.808	16.654	0.495
366.001	265.141	80.011	19.993	103.984	19.796	17.474	0.453
368.000	266.194	80.011	19.993	103.985	19.790	17.914	0.543
370.001	267.199	80.008	19.996	103.980	19.780	18.709	0.517
372.000	268.206	80.010	19.994	103.996	19.775	19.066	0.507
374.000	269.171	80.009	19.994	104.006	19.764	19.881	0.479
376.000	270.236	80.010	19.993	104.005	19.755	20.531	0.544
378.000	271.210	80.010	19.993	104.005	19.744	21.346	0.518
380.000	272.238	80.010	19.995	104.009	19.736	21.944	0.497
381.999	273.278	80.010	19.993	104.016	19.726	22.637	0.535
384.000	274.213	80.010	19.993	104.017	19.718	23.271	0.486
385.999	275.224	80.010	19.992	104.019	19.710	23.828	0.501
388.000	276.210	80.010	19.993	104.021	19.698	24.710	0.499
389.999	277.217	80.010	19.994	104.022	19.691	25.234	0.511
391.999	278.219	80.011	19.994	104.020	19.686	25.598	0.472
394.000	279.218	80.010	19.993	104.023	19.675	26.436	0.492
396.001	280.221	80.011	19.992	104.022	19.668	26.921	0.499
398.001	281.216	80.009	19.993	104.027	19.658	27.722	0.503
400.001	282.176	80.011	19.993	104.030	19.650	28.298	0.469
402.000	283.185	80.009	19.992	104.033	19.640	29.060	0.488
404.000	284.186	80.010	19.994	104.044	19.634	29.483	0.503
406.001	285.180	80.010	19.993	104.050	19.626	30.078	0.499
408.000	286.193	80.011	19.992	104.039	19.615	30.855	0.493
410.000	287.200	80.011	19.993	104.033	19.608	31.358	0.486
411.999	288.156	80.011	19.993	104.048	19.603	31.792	0.491
413.999	289.165	80.013	19.993	104.047	19.596	32.260	0.472
415.999	290.123	80.011	19.994	104.042	19.589	32.771	0.483
417.999	291.156	80.012	19.992	104.049	19.582	33.307	0.497
420.000	292.161	80.013	19.993	104.055	19.578	33.626	0.533
422.000	293.128	80.011	19.992	104.056	19.568	34.340	0.490
423.999	294.130	80.011	19.992	104.055	19.564	34.605	0.501
426.000	295.119	80.011	19.992	104.054	19.556	35.191	0.471
427.999	296.119	80.013	19.993	104.056	19.552	35.520	0.498
430.000	297.115	80.012	19.993	104.056	19.548	35.799	0.481
431.999	298.127	80.013	19.993	104.057	19.542	36.276	0.518
434.000	299.141	80.011	19.993	104.057	19.536	36.698	0.492
435.999	300.131	80.012	19.992	104.059	19.532	36.975	0.490
438.000	301.102	80.012	19.993	104.057	19.523	37.633	0.473
440.000	302.125	80.011	19.994	104.057	19.519	37.994	0.492
442.000	303.116	80.015	19.993	104.057	19.511	38.531	0.488
444.000	304.142	80.012	19.994	104.056	19.509	38.716	0.504
446.000	305.121	80.012	19.994	104.059	19.505	39.009	0.487
447.999	306.129	80.010	19.993	104.061	19.500	39.393	0.492
449.999	307.158	80.010	19.994	104.067	19.491	40.062	0.519
452.000	308.155	80.009	19.994	104.067	19.487	40.303	0.487
454.000	309.151	80.010	19.993	104.072	19.481	40.752	0.502
455.999	310.166	80.010	19.995	104.064	19.476	41.163	0.492
458.000	311.195	80.010	19.994	104.068	19.471	41.493	0.504
460.000	312.227	80.011	19.994	104.064	19.465	41.967	0.508
462.000	313.212	80.009	19.992	104.085	19.462	42.193	0.503
464.000	314.254	80.010	19.993	104.093	19.455	42.669	0.494
466.000	315.242	80.010	19.995	104.081	19.448	43.234	0.498
468.001	316.260	80.009	19.994	104.091	19.445	43.407	0.498
469.999	317.273	80.011	19.993	104.090	19.438	43.920	0.490
472.000	318.324	80.011	19.996	104.088	19.434	44.220	0.539
474.000	319.310	80.010	19.994	104.090	19.425	44.942	0.485
476.001	320.328	80.011	19.994	104.087	19.415	45.613	0.516
478.000	321.312	80.010	19.995	104.092	19.408	46.138	0.492
480.000	322.345	80.009	19.994	104.080	19.404	46.492	0.518
481.999	323.317	80.009	19.994	104.087	19.397	47.009	0.470
484.000	324.376	80.010	19.993	104.093	19.391	47.381	0.493
485.999	325.381	80.011	19.993	104.096	19.384	47.903	0.513
487.999	326.407	80.011	19.994	104.102	19.372	48.806	0.514
490.000	327.381	80.011	19.993	104.095	19.362	49.597	0.486
492.000	328.371	80.010	19.993	104.099	19.359	49.806	0.514
494.000	329.396	80.011	19.993	104.099	19.349	50.537	0.515
496.001	330.396	80.011	19.993	104.103	19.344	50.931	0.522
498.000	331.387	80.012	19.992	104.106	19.330	51.928	0.493
500.001	332.451	80.012	19.993	104.118	19.322	52.500	0.513
502.000	333.472	80.013	19.992	104.134	19.312	53.282	0.524
504.001	334.446	80.012	19.994	104.132	19.302	54.043	0.509
505.999	335.502	80.010	19.993	104.133	19.291	54.846	0.534
508.001	336.469	80.011	19.994	104.136	19.281	55.583	0.487
510.000	337.524	80.010	19.993	104.136	19.269	56.492	0.523
511.999	338.534	80.012	19.992	104.141	19.255	57.488	0.521
513.999	339.530	80.012	19.993	104.155	19.244	58.326	0.510
516.000	340.558	80.012	19.992	104.146	19.230	59.310	0.505
518.001	341.556	80.013	19.992	104.169	19.216	60.384	0.496
520.001	342.597	80.013	19.993	104.169	19.199	61.624	0.509
521.999	343.598	80.013	19.992	104.177	19.187	62.532	0.507
523.999	344.568	80.013	19.993	104.175	19.173	63.552	0.507
526.000	345.533	80.014	19.994	104.176	19.158	64.685	0.497
528.001	346.561	80.012	19.993	104.176	19.141	65.919	0.486
530.000	347.563	80.013	19.993	104.202	19.126	67.031	0.511
532.000	348.540	80.012	19.993	104.195	19.109	68.286	0.503
533.999	349.545	80.011	19.994	104.206	19.096	69.270	0.501
535.999	350.566	80.011	19.994	104.210	19.076	70.741	0.517
538.000	351.556	80.011	19.993	104.211	19.060	71.957	0.502
540.001	352.601	80.011	19.994	104.212	19.042	73.272	0.516
541.999	353.602	80.010	19.994	104.212	19.030	74.178	0.506
544.000	354.594	80.010	19.994	104.223	19.016	75.219	0.501
546.000	355.578	80.010	19.994	104.223	18.998	76.495	0.464
548.000	356.593	80.011	19.993	104.229	18.987	77.327	0.499
550.001	357.600	80.011	19.994	104.232	18.976	78.136	0.487
552.000	358.604	80.011	19.994	104.233	18.963	79.137	0.498
554.000	359.583	80.011	19.993	104.235	18.953	79.841	0.488
556.001	360.533	80.010	19.993	104.240	18.945	80.440	0.476
557.999	361.588	80.010	19.994	104.236	18.942	80.682	0.505
560.000	362.565	80.011	19.994	104.225	18.940	80.802	0.494
561.999	363.526	80.009	19.995	104.218	18.938	80.946	0.485
564.000	364.504	80.008	19.995	104.221	18.941	80.712	0.467
565.999	365.513	80.009	19.994	104.214	18.943	80.512	0.496
568.000	366.541	80.009	19.995	104.212	18.952	79.868	0.496
569.999	367.533	80.009	19.995	104.201	18.963	79.046	0.511
571.999	368.534	80.009	19.995	104.182	18.977	78.004	0.515
574.000	369.535	80.011	19.994	104.174	18.998	76.415	0.512
576.000	370.527	80.012	19.994	104.156	19.023	74.567	0.486
578.000	371.562	80.010	19.993	104.139	19.043	73.099	0.505
580.000	372.573	80.011	19.993	104.124	19.078	70.494	0.527
582.001	373.542	80.008	19.992	104.103	19.112	67.929	0.479
584.000	374.578	80.012	19.993	104.095	19.148	65.276	0.506
585.999	375.606	80.012	19.993	104.071	19.188	62.331	0.526
588.000	376.622	80.012	19.994	104.060	19.232	59.039	0.506
589.999	377.634	80.011	19.993	104.032	19.275	55.879	0.476
592.001	378.610	80.010	19.992	104.008	19.321	52.474	0.473
593.999	379.620	80.012	19.993	103.988	19.370	48.864	0.496
595.999	380.677	80.011	19.994	103.974	19.421	45.156	0.521
598.001	381.651	80.012	19.993	103.957	19.469	41.557	0.497
600.000	382.703	80.012	19.993	103.937	19.518	37.946	0.504
601.999	383.688	80.013	19.993	103.933	19.568	34.301	0.486
603.999	384.768	80.014	19.993	103.913	19.613	30.971	0.542
606.000	385.698	80.012	19.992	103.910	19.654	27.972	0.515
608.000	386.719	80.013	19.993	103.901	19.697	24.818	0.523
610.001	387.754	80.014	19.992	103.899	19.730	22.360	0.533
612.000	388.761	80.013	19.993	103.887	19.763	19.924	0.512
613.999	389.739	80.011	19.993	103.888	19.795	17.523	0.485
616.000	390.762	80.011	19.994	103.890	19.820	15.720	0.501
618.000	391.778	80.012	19.993	103.890	19.842	14.115	0.508
620.001	392.805	80.012	19.992	103.890	19.863	12.571	0.511
622.000	393.876	80.010	19.992	103.873	19.879	11.381	0.550
624.000	394.880	80.010	19.993	103.874	19.886	10.832	0.543
626.001	395.884	80.010	19.993	103.864	19.898	9.959	0.500
627.999	396.892	80.011	19.993	103.868	19.908	9.203	0.520
630.000	397.907	80.010	19.994	103.868	19.915	8.717	0.495
631.999	398.974	80.010	19.994	103.868	19.920	8.322	0.504
633.999	399.992	80.011	19.994	103.867	19.923	8.161	0.528
635.999	401.027	80.010	19.995	103.862	19.927	7.860	0.514
637.999	401.998	80.011	19.994	103.868	19.927	7.815	0.484
639.999	403.036	80.011	19.994	103.868	19.932	7.496	0.532
641.999	404.048	80.008	19.991	103.866	19.933	7.401	0.493
644.001	405.073	80.009	19.995	103.880	19.933	7.394	0.509
645.999	406.091	80.009	19.993	103.868	19.939	6.921	0.491
648.001	407.096	80.008	19.993	103.869	19.939	6.927	0.493
650.000	408.116	80.009	19.993	103.870	19.938	6.988	0.538
651.999	409.127	80.010	19.993	103.869	19.939	6.980	0.527
653.999	410.148	80.010	19.993	103.867	19.943	6.662	0.514
656.000	411.201	80.011	19.993	103.862	19.940	6.861	0.523
658.001	412.209	80.010	19.993	103.861	19.942	6.760	0.512
659.999	413.214	80.011	19.996	103.859	19.943	6.626	0.490
661.999	414.260	80.011	19.995	103.860	19.947	6.380	0.507
663.999	415.254	80.011	19.994	103.864	19.946	6.421	0.503
666.000	416.266	80.012	19.994	103.858	19.950	6.141	0.499
667.999	417.289	80.012	19.994	103.862	19.950	6.117	0.501
669.999	418.323	80.010	19.994	103.858	19.950	6.125	0.505
671.999	419.332	80.010	19.994	103.862	19.946	6.399	0.529
673.999	420.356	80.011	19.994	103.860	19.953	5.894	0.518
676.000	421.387	80.012	19.993	103.859	19.946	6.425	0.529
678.000	422.394	80.011	19.993	103.862	19.949	6.207	0.524
680.000	423.393	80.011	19.993	103.860	19.951	6.033	0.487
681.999	424.447	80.012	19.993	103.857	19.955	5.765	0.528
683.999	425.495	80.012	19.992	103.856	19.957	5.653	0.587
686.000	426.442	80.013	19.993	103.857	19.957	5.628	0.508
688.000	427.573	80.012	19.993	103.859	19.957	5.598	0.483
690.000	428.474	80.013	19.993	103.861	19.955	5.739	0.499
692.000	429.622	80.013	19.992	103.859	19.957	5.618	0.540
694.000	430.379	80.010	19.992	103.861	19.958	5.572	0.420
696.001	431.507	80.009	19.993	103.860	19.956	5.731	0.318
697.999	432.989	80.010	19.992	103.861	19.958	5.532	0.841
700.001	433.745	80.010	19.994	103.862	19.958	5.560	0.579
702.000	434.835	80.008	19.992	103.860	19.955	5.781	0.625
704.001	435.683	80.009	19.993	103.860	19.963	5.192	0.522
706.000	436.812	80.011	19.993	103.858	19.962	5.274	0.546
708.000	437.823	80.009	19.993	103.857	19.963	5.148	0.493
709.999	438.829	80.009	19.993	103.861	19.964	5.116	0.532
711.999	439.970	80.009	19.992	103.863	19.964	5.140	0.522
714.001	440.934	80.011	19.993	103.863	19.964	5.080	0.539
715.999	441.991	80.011	19.994	103.863	19.967	4.882	0.493
718.000	443.032	80.010	19.993	103.862	19.970	4.700	0.537
720.000	444.092	80.011	19.992	103.861	19.968	4.822	0.525
721.999	445.153	80.010	19.993	103.860	19.968	4.830	0.538
724.001	446.178	80.009	19.993	103.854	19.970	4.677	0.554
726.000	447.197	80.010	19.993	103.853	19.974	4.396	0.516
728.000	448.245	80.009	19.994	103.858	19.979	4.016	0.541
729.999	449.291	80.009	19.994	103.858	19.977	4.169	0.510
732.001	450.369	80.010	19.994	103.857	19.979	3.992	0.550
734.000	451.371	80.010	19.993	103.854	19.975	4.283	0.490
736.000	452.415	80.010	19.994	103.856	19.977	4.169	0.527
737.999	453.392	80.011	19.993	103.852	19.975	4.265	0.486
739.999	454.441	80.011	19.993	103.854	19.982	3.783	0.539
742.000	455.453	80.012	19.994	103.853	19.977	4.131	0.515
743.999	456.493	80.012	19.994	103.857	19.981	3.829	0.513
746.000	457.529	80.012	19.994	103.852	19.976	4.205	0.516
747.999	458.528	80.012	19.994	103.855	19.983	3.718	0.517
750.001	459.565	80.011	19.994	103.857	19.983	3.746	0.521
751.999	460.536	80.010	19.994	103.848	19.978	4.069	0.480
754.000	461.613	80.011	19.994	103.846	19.982	3.768	0.509
756.000	462.626	80.010	19.994	103.857	19.981	3.835	0.517
758.001	463.589	80.010	19.994	103.858	19.977	4.153	0.484
760.000	464.636	80.010	19.995	103.859	19.981	3.837	0.506
762.000	465.651	80.010	19.993	103.845	19.984	3.642	0.536
764.000	466.652	80.012	19.996	103.850	19.983	3.701	0.507
766.000	467.660	80.011	19.994	103.857	19.985	3.582	0.523
768.001	468.668	80.012	19.993	103.847	19.982	3.754	0.500
770.000	469.664	80.013	19.994	103.844	19.984	3.614	0.530
772.000	470.663	80.013	19.992	103.841	19.986	3.525	0.492
774.000	471.664	80.014	19.992	103.840	19.985	3.566	0.504
775.999	472.695	80.011	19.993	103.839	19.985	3.582	0.514
777.999	473.702	80.010	19.992	103.852	19.985	3.536	0.534
779.999	474.751	80.010	19.993	103.861	19.986	3.513	0.530
782.000	475.733	80.011	19.993	103.853	19.984	3.612	0.510
783.999	476.735	80.010	19.992	103.857	19.985	3.598	0.506
785.999	477.749	80.009	19.992	103.844	19.984	3.664	0.496
787.999	478.750	80.010	19.994	103.836	19.987	3.445	0.521
789.999	479.762	80.010	19.994	103.848	19.988	3.378	0.518
792.000	480.772	80.009	19.994	103.851	19.985	3.582	0.500
794.001	481.737	80.011	19.994	103.855	19.986	3.501	0.494
796.000	482.767	80.009	19.993	103.852	19.986	3.493	0.495
798.000	483.786	80.009	19.994	103.851	19.987	3.397	0.504
800.000	484.815	80.010	19.993	103.853	19.985	3.586	0.538
802.000	485.820	80.012	19.993	103.855	19.989	3.252	0.494
804.000	486.859	80.011	19.994	103.844	19.990	3.230	0.511
806.000	487.893	80.012	19.993	103.854	19.987	3.407	0.508
808.001	488.914	80.011	19.993	103.859	19.988	3.329	0.507
810.000	489.956	80.010	19.992	103.841	19.989	3.242	0.525
812.000	491.003	80.011	19.994	103.850	19.991	3.125	0.514
813.999	492.020	80.011	19.992	103.843	19.989	3.272	0.527
816.001	493.080	80.010	19.992	103.850	19.990	3.192	0.512
818.000	494.112	80.010	19.994	103.828	19.988	3.335	0.523
820.001	495.161	80.011	19.993	103.829	19.992	3.017	0.537
822.000	496.217	80.010	19.993	103.844	19.988	3.363	0.552
824.000	497.264	80.010	19.995	103.849	19.990	3.163	0.541
826.001	498.299	80.012	19.993	103.839	19.992	3.053	0.526
828.001	499.340	80.012	19.993	103.854	19.992	3.039	0.524
830.000	500.356	80.012	19.993	103.839	19.989	3.250	0.517
832.000	501.401	80.011	19.994	103.851	19.992	3.045	0.497
834.000	502.427	80.013	19.994	103.852	19.993	2.974	0.521
836.000	503.434	80.011	19.994	103.855	19.993	3.006	0.509
837.999	504.471	80.012	19.993	103.839	19.989	3.294	0.533
840.000	505.501	80.011	19.993	103.846	19.991	3.144	0.503
842.000	506.542	80.011	19.993	103.845	19.992	3.081	0.507
844.000	507.514	80.010	19.993	103.854	19.992	3.081	0.508
845.999	508.591	80.012	19.993	103.851	19.990	3.190	0.531
848.000	509.625	80.011	19.994	103.853	19.987	3.399	0.532
850.000	510.635	80.013	19.995	103.846	19.990	3.228	0.505
852.000	511.691	80.011	19.995	103.840	19.990	3.216	0.510
854.001	512.667	80.012	19.994	103.847	19.990	3.222	0.506
856.000	513.743	80.011	19.994	103.851	19.992	3.069	0.584
858.000	514.814	80.011	19.995	103.839	19.992	3.019	0.559
860.000	515.827	80.011	19.994	103.842	19.992	3.021	0.529
861.999	516.878	80.011	19.994	103.845	19.992	3.031	0.507
863.999	517.941	80.008	19.994	103.840	19.992	3.077	0.564
866.000	518.963	80.009	19.993	103.842	19.990	3.230	0.510
868.000	520.021	80.011	19.993	103.849	19.992	3.043	0.559
870.000	521.083	80.011	19.994	103.851	19.992	3.029	0.540
871.999	522.105	80.010	19.993	103.855	19.991	3.153	0.529
873.999	523.121	80.010	19.994	103.851	19.988	3.329	0.506
876.001	524.191	80.012	19.993	103.835	19.989	3.258	0.525
878.001	525.192	80.010	19.994	103.838	19.991	3.118	0.533
879.999	526.252	80.011	19.993	103.835	19.989	3.303	0.531
882.000	527.254	80.009	19.992	103.851	19.994	2.917	0.516
884.001	528.315	80.011	19.994	103.848	19.993	2.963	0.536
886.000	529.319	80.010	19.995	103.834	19.992	3.059	0.510
888.001	530.298	80.011	19.994	103.849	19.992	3.055	0.498
890.000	531.368	80.009	19.994	103.828	19.990	3.166	0.549
892.000	532.383	80.010	19.995	103.826	19.990	3.162	0.510
894.000	533.406	80.010	19.993	103.835	19.989	3.252	0.496
896.001	534.456	80.010	19.993	103.840	19.992	3.081	0.528
898.000	535.502	80.010	19.993	103.832	19.990	3.204	0.538
899.999	536.489	80.009	19.994	103.849	19.990	3.186	0.506
902.000	537.521	80.008	19.994	103.845	19.993	2.953	0.516
903.999	538.563	80.011	19.992	103.855	19.995	2.844	0.517
906.001	539.591	80.012	19.993	103.842	19.996	2.743	0.539
907.999	540.590	80.012	19.992	103.850	19.995	2.826	0.502
910.000	541.612	80.011	19.993	103.840	19.993	2.951	0.520
912.001	542.673	80.011	19.992	103.834	19.995	2.832	0.512
914.001	543.713	80.011	19.992	103.829	19.991	3.106	0.497
915.999	544.742	80.010	19.993	103.846	19.992	3.011	0.524
917.999	545.739	80.011	19.994	103.838	19.993	2.949	0.516
920.000	546.800	80.011	19.994	103.829	19.993	2.993	0.516
921.999	547.822	80.012	19.994	103.834	19.992	3.065	0.471
924.000	548.875	80.011	19.994	103.833	19.993	3.005	0.511
926.001	549.889	80.012	19.993	103.838	19.989	3.255	0.538
928.000	550.905	80.012	19.995	103.829	19.995	2.816	0.497
929.999	551.908	80.012	19.994	103.842	19.991	3.098	0.514
931.999	552.969	80.013	19.994	103.843	19.994	2.882	0.519
933.999	554.021	80.012	19.993	103.832	19.993	2.995	0.542
936.000	555.047	80.013	19.993	103.835	19.992	3.073	0.504
937.999	556.071	80.012	19.993	103.824	19.991	3.148	0.535
939.999	557.063	80.012	19.993	103.822	19.990	3.218	0.494
942.001	558.123	80.010	19.994	103.828	19.994	2.917	0.498
944.001	559.115	80.011	19.995	103.848	19.990	3.176	0.512
945.999	560.172	80.010	19.995	103.839	19.995	2.844	0.519
948.000	561.191	80.009	19.994	103.832	19.987	3.389	0.489
950.000	562.267	80.009	19.995	103.829	19.989	3.265	0.525
952.001	563.229	80.009	19.994	103.831	19.990	3.198	0.496
954.000	564.215	80.009	19.994	103.834	19.990	3.204	0.493
956.001	565.237	80.010	19.994	103.832	19.992	3.073	0.514
958.001	566.210	80.009	19.995	103.837	19.990	3.160	0.506
960.000	567.221	80.011	19.993	103.829	19.991	3.150	0.524
962.000	568.200	80.011	19.993	103.825	19.989	3.258	0.478
964.001	569.212	80.010	19.992	103.826	19.990	3.226	0.486
965.999	570.208	80.010	19.993	103.824	19.990	3.168	0.495
968.000	571.167	80.010	19.993	103.841	19.988	3.365	0.507
970.000	572.187	80.010	19.992	103.841	19.994	2.888	0.500
972.000	573.195	80.011	19.993	103.837	19.992	3.068	0.513
974.000	574.255	80.011	19.994	103.843	19.992	3.021	0.561
976.001	575.286	80.010	19.994	103.833	19.991	3.096	0.468
978.000	576.267	80.010	19.993	103.830	19.989	3.287	0.486
980.000	577.307	80.010	19.995	103.834	19.993	2.967	0.515
982.000	578.308	80.011	19.992	103.827	19.996	2.782	0.494
984.000	579.301	80.010	19.993	103.822	19.992	3.055	0.497
986.000	580.348	80.011	19.993	103.826	19.992	3.035	0.526
987.999	581.357	80.011	19.993	103.828	19.994	2.933	0.523
989.999	582.344	80.013	19.993	103.835	19.994	2.919	0.511
992.001	583.373	80.012	19.994	103.825	19.989	3.244	0.516
994.000	584.388	80.012	19.992	103.824	19.992	3.080	0.506
996.001	585.420	80.012	19.994	103.834	19.992	3.023	0.529
998.000	586.415	80.011	19.994	103.836	19.991	3.112	0.493
1000.001	587.421	80.011	19.994	103.829	19.989	3.232	0.502
1002.000	588.451	80.010	19.991	103.836	19.991	3.084	0.503
1004.001	589.440	80.012	19.993	103.830	19.994	2.933	0.489
1006.000	590.469	80.013	19.993	103.823	19.989	3.261	0.534
1007.999	591.467	80.013	19.993	103.829	19.987	3.400	0.490
1009.999	592.460	80.013	19.993	103.832	19.992	3.023	0.533
1012.000	593.457	80.012	19.992	103.830	19.991	3.084	0.493
1013.999	594.468	80.011	19.993	103.825	19.990	3.207	0.516
1016.000	595.472	80.012	19.995	103.825	19.992	3.078	0.495
1018.000	596.503	80.014	19.994	103.826	19.994	2.872	0.506
1020.000	597.513	80.012	19.993	103.822	19.990	3.184	0.500
1022.001	598.502	80.013	19.994	103.822	19.990	3.158	0.489
1024.001	599.513	80.012	19.993	103.822	19.991	3.150	0.477
1025.999	600.508	80.012	19.993	103.822	19.992	3.063	0.504
1028.000	601.513	80.011	19.994	103.825	19.988	3.327	0.483
1030.000	602.507	80.010	19.994	103.836	19.990	3.168	0.506
1032.000	603.569	80.009	19.993	103.832	19.990	3.184	0.495
1033.999	604.586	80.010	19.993	103.824	19.989	3.254	0.496
1035.999	605.604	80.009	19.992	103.827	19.991	3.126	0.508
1038.000	606.619	80.009	19.994	103.837	19.991	3.112	0.532
1040.001	607.669	80.011	19.993	103.825	19.987	3.436	0.524
1042.000	608.665	80.009	19.995	103.824	19.991	3.140	0.520
1044.000	609.689	80.010	19.994	103.842	19.992	3.059	0.522
1046.000	610.681	80.011	19.994	103.830	19.991	3.146	0.517
1048.000	611.703	80.009	19.994	103.824	19.993	2.959	0.508
1049.999	612.685	80.011	19.994	103.820	19.991	3.150	0.489
1051.999	613.760	80.010	19.994	103.822	19.995	2.862	0.530
1053.999	614.786	80.009	19.994	103.825	19.993	2.969	0.508
1056.000	615.862	80.010	19.994	103.831	19.994	2.882	0.553
1057.999	616.858	80.010	19.994	103.829	19.994	2.933	0.491
1060.000	617.879	80.010	19.994	103.826	19.992	3.040	0.515
1061.999	618.896	80.010	19.992	103.827	19.992	3.029	0.488
1064.001	619.923	80.011	19.994	103.833	19.992	3.046	0.525
1066.001	620.960	80.011	19.995	103.829	19.995	2.814	0.516
1068.000	621.972	80.011	19.993	103.827	19.995	2.840	0.508
1069.999	623.003	80.012	19.994	103.821	19.990	3.213	0.498
1072.000	624.008	80.012	19.994	103.825	19.989	3.268	0.543
1073.999	625.029	80.012	19.993	103.822	19.991	3.154	0.512
1076.000	626.051	80.012	19.995	103.820	19.989	3.241	0.532
1077.999	627.019	80.011	19.993	103.821	19.994	2.912	0.499
1079.999	628.098	80.011	19.994	103.821	19.990	3.176	0.524
1081.999	629.140	80.011	19.993	103.826	19.992	3.064	0.518
1083.999	630.101	80.010	19.993	103.833	19.995	2.836	0.487
1085.999	631.125	80.011	19.993	103.823	19.994	2.883	0.526
1088.000	632.135	80.012	19.993	103.832	19.995	2.796	0.485
1090.000	633.142	80.012	19.993	103.827	19.993	3.001	0.482
1091.999	634.182	80.012	19.992	103.825	19.988	3.369	0.524
1094.001	635.240	80.012	19.993	103.825	19.992	3.023	0.550
1096.001	636.182	80.013	19.992	103.824	19.994	2.891	0.500
1097.999	637.224	80.013	19.993	103.823	19.991	3.102	0.489
1100.000	638.282	80.013	19.991	103.827	19.994	2.895	0.509
1102.001	639.248	80.012	19.991	103.823	19.995	2.794	0.453
1104.001	640.283	80.012	19.992	103.825	19.992	3.039	0.503
1106.000	641.260	80.011	19.993	103.825	19.992	3.070	0.498
1107.999	642.301	80.011	19.992	103.824	19.993	2.993	0.504
1109.999	643.318	80.010	19.994	103.823	19.993	2.991	0.502
1112.000	644.284	80.010	19.994	103.822	19.990	3.176	0.489
1114.001	645.305	80.010	19.994	103.823	19.989	3.277	0.501
1116.000	646.283	80.010	19.994	103.825	19.993	3.009	0.497
1118.000	647.290	80.010	19.994	103.820	19.990	3.192	0.469
1120.000	648.307	80.010	19.993	103.821	19.991	3.094	0.513
1122.000	649.338	80.009	19.991	103.822	19.991	3.138	0.518
1124.000	650.314	80.011	19.994	103.828	19.991	3.112	0.487
1126.000	651.338	80.012	19.993	103.825	19.990	3.219	0.497
1128.000	652.359	80.011	19.992	103.820	19.993	2.957	0.539
1130.000	653.355	80.011	19.994	103.822	19.995	2.853	0.489
1132.000	654.424	80.011	19.994	103.820	19.992	3.044	0.544
1134.000	655.415	80.011	19.993	103.831	19.991	3.122	0.522
1136.001	656.454	80.009	19.995	103.828	19.991	3.092	0.535
1138.001	657.448	80.009	19.995	103.819	19.991	3.130	0.486
1140.001	658.496	80.010	19.994	103.821	19.991	3.118	0.527
1142.000	659.588	80.009	19.994	103.819	19.989	3.283	0.546
1144.001	660.580	80.009	19.995	103.819	19.992	3.027	0.500
1146.000	661.619	80.009	19.995	103.822	19.995	2.828	0.493
1147.999	662.639	80.011	19.994	103.818	19.992	3.013	0.492
1150.000	663.697	80.010	19.995	103.822	19.992	3.062	0.509
1152.000	664.738	80.011	19.994	103.822	19.991	3.150	0.500
1153.999	665.798	80.011	19.993	103.823	19.991	3.100	0.545
1156.000	666.790	80.012	19.993	103.825	19.992	3.026	0.504
1158.000	667.810	80.011	19.993	103.827	19.991	3.096	0.509
1160.000	668.900	80.012	19.994	103.824	19.995	2.838	0.520
1161.999	669.948	80.011	19.992	103.824	19.994	2.915	0.515
1164.001	670.964	80.011	19.992	103.823	19.988	3.339	0.513
1165.999	671.992	80.010	19.993	103.821	19.989	3.253	0.518
1168.000	673.003	80.012	19.993	103.821	19.987	3.412	0.497
1169.999	674.102	80.010	19.993	103.824	19.995	2.804	0.528
1171.999	675.121	80.010	19.992	103.822	19.995	2.845	0.527
1173.999	676.131	80.011	19.993	103.826	19.995	2.861	0.511
1176.000	677.182	80.011	19.992	103.822	19.994	2.887	0.508
1178.000	678.201	80.014	19.992	103.820	19.993	2.987	0.518
1180.001	679.219	80.012	19.992	103.816	19.994	2.871	0.514
1181.999	680.113	80.011	19.992	103.818	19.995	2.796	0.464
1184.000	681.299	80.013	19.993	103.821	19.990	3.190	0.539
1186.001	682.315	80.013	19.993	103.820	19.993	2.965	0.505
1188.000	683.363	80.013	19.994	103.817	19.991	3.116	0.499
1190.001	684.345	80.010	19.993	103.817	19.992	3.016	0.509
1192.000	685.334	80.010	19.992	103.819	19.992	3.030	0.514
1194.000	686.379	80.011	19.993	103.820	19.991	3.086	0.510
1196.000	687.372	80.011	19.993	103.820	19.994	2.871	0.506
1198.000	688.358	80.011	19.992	103.808	19.991	3.120	0.477
1199.999	689.356	80.010	19.992	103.815	19.989	3.251	0.485
1202.001	690.379	80.009	19.994	103.821	19.994	2.925	0.499
1203.999	691.392	80.011	19.994	103.821	19.995	2.830	0.509
1206.001	692.415	80.010	19.994	103.819	19.994	2.903	0.525
1208.000	693.407	80.010	19.994	103.821	19.996	2.780	0.501
1210.000	694.422	80.009	19.994	103.820	19.993	2.957	0.505
1212.000	695.396	80.012	19.993	103.823	19.992	3.068	0.497
1214.000	696.442	80.009	19.994	103.822	19.993	2.998	0.527
1215.999	697.449	80.011	19.993	103.823	19.991	3.124	0.493
1218.000	698.447	80.011	19.993	103.824	19.989	3.283	0.509
1219.999	699.475	80.011	19.994	103.823	19.991	3.142	0.505
1222.000	700.477	80.010	19.994	103.820	19.994	2.913	0.549
1224.000	701.437	80.010	19.993	103.818	19.987	3.424	0.478
1226.001	702.441	80.010	19.993	103.818	19.991	3.108	0.533
1228.000	703.436	80.009	19.995	103.823	19.991	3.098	0.499
1230.000	704.447	80.009	19.992	103.823	19.991	3.128	0.494
1232.000	705.383	80.011	19.992	103.823	19.992	3.026	0.465
1234.000	706.411	80.011	19.993	103.819	19.992	3.017	0.493
1236.001	707.383	80.012	19.994	103.818	19.992	3.062	0.484
1237.999	708.385	80.010	19.995	103.823	19.990	3.189	0.500
1239.999	709.415	80.010	19.994	103.822	19.987	3.428	0.511
1242.000	710.364	80.011	19.994	103.819	19.990	3.159	0.456
1243.999	711.398	80.012	19.995	103.822	19.989	3.259	0.498
1246.001	712.426	80.011	19.993	103.817	19.992	3.062	0.511
1248.000	713.407	80.011	19.994	103.819	19.991	3.090	0.497
1249.999	714.371	80.010	19.994	103.814	19.990	3.172	0.487
1252.000	715.394	80.011	19.993	103.819	19.993	2.961	0.495
1253.999	716.360	80.013	19.991	103.807	19.990	3.166	0.489
1255.999	717.450	80.013	19.993	103.816	19.988	3.320	0.556
1258.000	718.403	80.012	19.992	103.817	19.992	3.056	0.469
1260.000	719.391	80.012	19.994	103.818	19.991	3.090	0.480
1261.999	720.410	80.013	19.993	103.809	19.989	3.303	0.504
1263.999	721.416	80.014	19.993	103.812	19.993	2.953	0.500
1266.000	722.447	80.013	19.994	103.811	19.992	3.024	0.507
1268.000	723.422	80.012	19.993	103.809	19.992	3.060	0.452
1269.999	724.445	80.011	19.992	103.807	19.989	3.249	0.526
1271.999	725.453	80.012	19.993	103.809	19.989	3.281	0.529
1274.000	726.470	80.011	19.993	103.814	19.989	3.245	0.502
1275.999	727.414	80.008	19.993	103.815	19.993	2.945	0.489
1277.999	728.476	80.011	19.994	103.822	19.992	3.064	0.531
1279.999	729.491	80.009	19.993	103.822	19.988	3.311	0.511
1282.000	730.485	80.008	19.993	103.822	19.989	3.297	0.484
1284.000	731.485	80.012	19.994	103.820	19.987	3.432	0.499
1285.999	732.486	80.011	19.993	103.822	19.987	3.430	0.506
1288.000	733.490	80.013	19.994	103.824	19.987	3.428	0.537
1289.999	734.519	80.011	19.993	103.823	19.991	3.094	0.528
1291.999	735.525	80.011	19.994	103.823	19.986	3.492	0.485
1294.000	736.525	80.011	19.992	103.820	19.989	3.271	0.493
1296.001	737.574	80.011	19.992	103.824	19.991	3.144	0.517
1298.001	738.566	80.009	19.993	103.822	19.989	3.249	0.504
1300.000	739.602	80.010	19.992	103.819	19.989	3.245	0.538
1302.001	740.630	80.009	19.992	103.819	19.991	3.100	0.522
1304.000	741.724	80.010	19.996	103.827	19.989	3.291	0.530
1305.999	742.726	80.010	19.994	103.824	19.987	3.400	0.503
1306.999	743.279	80.009	19.994	103.822	19.984	3.619	0.536