File: 01_Data/Excelsior/MCC/Excelsior_MCC_30K_min_220216_R1.txt
Sample ID:	C:\MCC\MCC Cal\Test\Excelsior_MCC_30K_min_220216_R1.txt
Sample Weight (mg):	4.53
Heating Rate (C/s):	0.5
Combustor Temp (C):	900
N2 Flow Rate (cc/min):	80
O2 Flow Rate (cc/min):	20
Calibration File:	C:\MCC\MCC Cal\Coeff1 JN10440_30_210304.txt.txt
T Correction Coefficients:	0	1.024463	0
Time Shift (s):	14
*
Time (s)	Temperature (C)	N2 flow rate (cc/min)	O2 flow rate (cc/min)	Flow Rate (cc/min)	Oxygen (%)	HRR (W/g)	Heating rate (C/s)
0.000	113.473	80.013	19.993	103.748	19.980	0.191	0.003
1.501	113.481	80.014	19.993	103.742	19.980	0.203	0.005
2.999	113.464	80.013	19.992	103.739	19.979	0.309	0.011
4.500	113.446	80.011	19.993	103.738	19.983	0.037	-0.013
5.999	113.459	80.012	19.992	103.742	19.980	0.245	0.010
7.501	113.438	80.011	19.994	103.744	19.982	0.091	-0.025
9.000	113.391	80.011	19.994	103.740	19.983	0.037	-0.013
10.499	113.465	80.011	19.994	103.740	19.981	0.135	0.038
12.001	113.426	80.010	19.994	103.743	19.981	0.160	-0.025
13.500	113.450	80.011	19.994	103.746	19.979	0.317	-0.003
15.000	113.404	80.010	19.994	103.763	19.976	0.501	-0.023
16.500	113.398	80.010	19.993	103.783	19.979	0.315	0.003
18.000	113.443	80.010	19.993	103.792	19.976	0.493	0.010
19.499	113.420	80.010	19.993	103.810	19.974	0.675	-0.011
21.000	113.498	80.010	19.994	103.829	19.972	0.773	0.035
22.499	113.513	80.010	19.992	103.871	19.967	1.133	0.002
24.000	113.536	80.010	19.994	103.896	19.963	1.460	0.013
25.500	113.596	80.010	19.993	103.900	19.962	1.528	0.045
26.999	113.729	80.010	19.994	103.905	19.959	1.746	0.093
28.499	113.799	80.009	19.993	103.908	19.954	2.073	0.032
30.001	113.929	80.009	19.992	103.927	19.953	2.157	0.081
31.500	114.093	80.010	19.994	103.941	19.950	2.395	0.126
32.999	114.288	80.010	19.993	103.940	19.946	2.664	0.133
34.500	114.456	80.010	19.994	103.937	19.944	2.814	0.105
36.001	114.628	80.010	19.993	103.938	19.945	2.706	0.129
37.500	114.829	80.010	19.994	103.952	19.944	2.805	0.141
39.000	115.027	80.009	19.996	103.969	19.944	2.794	0.114
40.501	115.266	80.010	19.994	103.966	19.941	3.040	0.165
41.999	115.509	80.008	19.994	103.967	19.939	3.148	0.156
43.500	115.757	80.009	19.995	103.980	19.940	3.061	0.197
45.000	116.080	80.008	19.994	103.978	19.937	3.295	0.210
46.500	116.369	80.009	19.995	103.983	19.938	3.249	0.182
47.999	116.683	80.010	19.995	103.989	19.935	3.465	0.228
49.500	117.022	80.009	19.994	103.997	19.936	3.369	0.227
50.999	117.424	80.010	19.994	104.012	19.931	3.702	0.262
52.499	117.810	80.010	19.994	104.015	19.932	3.638	0.254
54.000	118.170	80.010	19.993	104.015	19.934	3.506	0.251
55.499	118.554	80.012	19.993	104.014	19.933	3.597	0.259
57.000	119.009	80.011	19.993	104.014	19.932	3.634	0.283
58.499	119.425	80.012	19.993	104.010	19.931	3.744	0.268
59.999	119.881	80.014	19.993	104.005	19.932	3.659	0.302
61.500	120.349	80.014	19.993	104.014	19.931	3.715	0.315
63.001	120.803	80.013	19.994	104.015	19.930	3.828	0.310
64.499	121.302	80.012	19.994	104.015	19.933	3.580	0.319
66.001	121.786	80.013	19.993	104.015	19.930	3.799	0.324
67.501	122.297	80.011	19.993	104.015	19.933	3.555	0.340
69.001	122.814	80.012	19.994	104.017	19.931	3.733	0.359
70.499	123.328	80.012	19.993	104.015	19.936	3.394	0.304
72.001	123.888	80.011	19.992	104.015	19.934	3.524	0.378
73.499	124.409	80.011	19.992	104.018	19.935	3.423	0.320
74.999	124.920	80.012	19.992	104.018	19.932	3.682	0.314
76.500	125.505	80.014	19.993	104.018	19.934	3.524	0.373
78.000	126.089	80.011	19.993	104.018	19.934	3.493	0.406
79.500	126.697	80.013	19.993	104.019	19.935	3.423	0.377
81.001	127.268	80.012	19.993	104.013	19.933	3.620	0.380
82.501	127.884	80.011	19.991	104.017	19.933	3.551	0.395
84.000	128.497	80.013	19.993	104.021	19.934	3.522	0.409
85.499	129.128	80.014	19.993	104.019	19.934	3.534	0.407
87.000	129.695	80.014	19.993	104.017	19.935	3.414	0.418
88.501	130.316	80.012	19.992	104.013	19.934	3.485	0.402
89.999	130.924	80.013	19.992	104.014	19.933	3.621	0.399
91.500	131.593	80.011	19.993	104.015	19.933	3.617	0.428
92.999	132.176	80.012	19.992	104.017	19.933	3.553	0.386
94.500	132.862	80.010	19.992	104.020	19.934	3.512	0.456
96.001	133.477	80.011	19.994	104.020	19.934	3.510	0.408
97.499	134.120	80.010	19.993	104.018	19.932	3.624	0.435
98.999	134.786	80.012	19.992	104.016	19.935	3.462	0.440
100.499	135.426	80.011	19.993	104.017	19.935	3.475	0.445
101.999	136.131	80.012	19.992	104.017	19.934	3.539	0.462
103.499	136.792	80.010	19.993	104.016	19.929	3.845	0.459
105.001	137.498	80.009	19.993	104.015	19.932	3.626	0.441
106.499	138.107	80.010	19.992	104.015	19.933	3.586	0.390
107.999	138.821	80.011	19.994	104.016	19.933	3.572	0.478
109.500	139.529	80.011	19.994	104.014	19.931	3.709	0.463
111.001	140.180	80.011	19.994	104.015	19.932	3.644	0.445
112.501	140.865	80.012	19.993	104.011	19.934	3.535	0.453
113.999	141.628	80.011	19.993	104.010	19.934	3.487	0.501
115.500	142.301	80.011	19.993	104.015	19.930	3.808	0.446
117.000	142.977	80.011	19.993	104.015	19.932	3.659	0.461
118.499	143.719	80.013	19.994	104.010	19.933	3.617	0.492
119.999	144.472	80.010	19.993	104.009	19.934	3.479	0.501
121.499	145.176	80.012	19.994	104.016	19.934	3.491	0.467
122.999	145.867	80.010	19.994	104.017	19.933	3.589	0.462
124.500	146.630	80.011	19.994	104.013	19.934	3.527	0.506
126.001	147.328	80.010	19.994	104.011	19.934	3.483	0.469
127.501	148.131	80.011	19.992	104.015	19.934	3.543	0.511
129.000	148.785	80.009	19.993	104.014	19.938	3.228	0.450
130.499	149.556	80.010	19.993	104.006	19.932	3.632	0.507
132.001	150.259	80.009	19.993	104.008	19.935	3.407	0.480
133.500	151.011	80.010	19.994	104.012	19.932	3.634	0.512
135.000	151.714	80.009	19.994	104.011	19.932	3.628	0.458
136.499	152.454	80.010	19.993	104.014	19.932	3.680	0.513
138.000	153.196	80.009	19.994	104.012	19.933	3.558	0.461
139.500	153.974	80.010	19.995	104.011	19.932	3.665	0.518
140.999	154.701	80.011	19.994	104.015	19.933	3.581	0.484
142.500	155.409	80.010	19.991	104.012	19.931	3.697	0.469
144.001	156.177	80.012	19.995	104.007	19.936	3.395	0.498
145.500	156.921	80.012	19.996	104.016	19.932	3.655	0.490
147.000	157.700	80.012	19.993	104.015	19.934	3.535	0.492
148.500	158.400	80.012	19.994	104.013	19.930	3.773	0.497
150.000	159.172	80.012	19.994	104.006	19.929	3.893	0.512
151.500	159.917	80.012	19.993	104.000	19.933	3.618	0.512
153.001	160.694	80.012	19.992	103.999	19.932	3.691	0.520
154.501	161.422	80.011	19.993	103.995	19.932	3.635	0.494
155.999	162.126	80.012	19.993	103.996	19.931	3.748	0.483
157.499	162.872	80.011	19.992	104.005	19.933	3.614	0.485
159.000	163.681	80.011	19.993	103.999	19.929	3.898	0.537
160.501	164.412	80.014	19.993	104.000	19.932	3.691	0.494
162.001	165.170	80.011	19.994	104.004	19.930	3.764	0.511
163.500	165.920	80.013	19.992	103.991	19.936	3.402	0.478
165.001	166.690	80.014	19.992	103.982	19.931	3.739	0.500
166.500	167.458	80.013	19.993	103.993	19.936	3.391	0.501
168.001	168.194	80.015	19.992	103.997	19.937	3.331	0.499
169.500	168.929	80.014	19.993	103.982	19.933	3.577	0.502
170.999	169.647	80.015	19.993	103.977	19.933	3.579	0.490
172.500	170.415	80.013	19.992	103.975	19.935	3.439	0.495
174.000	171.200	80.013	19.992	103.974	19.935	3.445	0.526
175.499	171.923	80.013	19.993	103.976	19.935	3.408	0.490
177.001	172.710	80.012	19.992	103.976	19.938	3.197	0.504
178.499	173.472	80.012	19.993	103.976	19.935	3.457	0.501
179.999	174.234	80.012	19.993	103.982	19.940	3.110	0.494
181.500	175.008	80.011	19.993	103.989	19.936	3.377	0.534
183.000	175.821	80.011	19.991	103.976	19.939	3.153	0.538
184.500	176.532	80.011	19.993	103.976	19.938	3.259	0.465
186.000	177.248	80.011	19.992	103.977	19.933	3.571	0.488
187.500	178.010	80.012	19.992	103.976	19.934	3.484	0.519
189.000	178.766	80.011	19.993	103.976	19.935	3.406	0.513
190.501	179.546	80.011	19.993	103.973	19.935	3.406	0.519
192.001	180.266	80.012	19.993	103.971	19.936	3.339	0.480
193.499	181.030	80.011	19.993	103.976	19.932	3.667	0.523
195.000	181.805	80.012	19.993	103.970	19.932	3.642	0.545
196.500	182.523	80.010	19.993	103.968	19.932	3.661	0.490
197.999	183.252	80.011	19.992	103.976	19.934	3.516	0.471
199.499	183.963	80.012	19.994	103.976	19.931	3.700	0.457
200.999	184.771	80.010	19.994	103.977	19.931	3.706	0.524
202.500	185.465	80.010	19.991	103.977	19.931	3.739	0.460
204.000	186.240	80.011	19.994	103.976	19.932	3.646	0.513
205.500	187.014	80.011	19.993	103.967	19.931	3.735	0.495
207.000	187.782	80.011	19.993	103.967	19.931	3.727	0.507
208.500	188.522	80.011	19.994	103.969	19.934	3.539	0.494
209.999	189.245	80.011	19.994	103.971	19.931	3.746	0.485
211.500	189.974	80.010	19.993	103.977	19.930	3.812	0.483
212.999	190.684	80.010	19.994	103.966	19.930	3.818	0.479
214.500	191.426	80.010	19.993	103.968	19.931	3.692	0.485
216.000	192.159	80.011	19.994	103.974	19.931	3.735	0.502
217.500	192.895	80.010	19.993	103.975	19.930	3.802	0.484
219.000	193.641	80.011	19.993	103.969	19.926	4.107	0.493
220.500	194.357	80.011	19.994	103.963	19.928	3.956	0.467
222.001	195.137	80.012	19.993	103.967	19.931	3.738	0.517
223.500	195.875	80.011	19.994	103.956	19.929	3.899	0.488
224.999	196.595	80.012	19.992	103.963	19.928	3.965	0.467
226.501	197.345	80.013	19.993	103.958	19.926	4.056	0.488
228.001	198.058	80.012	19.994	103.905	19.931	3.736	0.477
229.500	198.785	80.012	19.993	103.930	19.926	4.079	0.493
230.999	199.535	80.012	19.994	104.012	19.930	3.783	0.486
232.499	200.229	80.013	19.994	104.019	19.928	3.959	0.477
234.000	201.005	80.012	19.995	103.963	19.930	3.781	0.511
235.500	201.692	80.012	19.995	103.960	19.928	3.920	0.449
237.000	202.452	80.012	19.994	103.962	19.928	3.932	0.475
238.501	203.247	80.012	19.993	103.953	19.931	3.725	0.519
240.000	203.936	80.011	19.995	103.954	19.927	4.022	0.461
241.500	204.670	80.012	19.994	103.958	19.926	4.055	0.491
243.000	205.415	80.011	19.993	103.953	19.926	4.070	0.499
244.501	206.212	80.013	19.993	103.953	19.925	4.189	0.557
245.999	206.934	80.012	19.993	103.950	19.925	4.175	0.484
247.501	207.700	80.013	19.995	103.964	19.924	4.256	0.495
249.001	208.453	80.013	19.993	103.960	19.926	4.067	0.499
250.501	209.158	80.014	19.993	103.948	19.926	4.073	0.458
252.001	209.900	80.014	19.993	103.950	19.924	4.198	0.507
253.501	210.638	80.013	19.993	103.944	19.923	4.266	0.521
255.001	211.418	80.014	19.992	103.947	19.925	4.168	0.519
256.500	212.139	80.014	19.993	103.956	19.925	4.133	0.479
258.000	212.863	80.012	19.992	103.945	19.922	4.357	0.502
259.501	213.625	80.012	19.993	103.944	19.920	4.502	0.499
261.000	214.401	80.012	19.993	103.947	19.921	4.434	0.511
262.500	215.119	80.010	19.992	103.948	19.917	4.694	0.490
264.000	215.884	80.011	19.994	103.949	19.916	4.814	0.518
265.499	216.614	80.010	19.994	103.956	19.914	4.932	0.497
266.999	217.341	80.010	19.993	103.947	19.917	4.707	0.514
268.500	218.092	80.011	19.993	103.951	19.914	4.924	0.498
270.000	218.848	80.011	19.994	103.960	19.914	4.908	0.483
271.500	219.588	80.011	19.993	103.956	19.913	5.023	0.522
272.999	220.297	80.010	19.993	103.951	19.908	5.404	0.488
274.501	221.049	80.011	19.993	103.962	19.909	5.333	0.499
276.000	221.820	80.010	19.993	103.969	19.910	5.230	0.520
277.501	222.557	80.011	19.992	103.958	19.910	5.232	0.505
279.000	223.277	80.010	19.993	103.953	19.907	5.427	0.480
280.501	224.003	80.010	19.992	103.951	19.906	5.527	0.476
282.001	224.775	80.011	19.993	103.961	19.904	5.657	0.510
283.500	225.501	80.011	19.992	103.970	19.901	5.893	0.499
285.000	226.248	80.012	19.992	103.973	19.902	5.794	0.518
286.500	226.988	80.011	19.993	103.968	19.899	6.046	0.479
288.000	227.778	80.011	19.993	103.963	19.900	5.944	0.510
289.499	228.518	80.011	19.993	103.971	19.897	6.191	0.502
291.001	229.293	80.011	19.992	103.958	19.896	6.265	0.511
292.500	230.012	80.010	19.992	103.962	19.895	6.321	0.476
294.001	230.821	80.010	19.993	103.970	19.889	6.743	0.552
295.501	231.544	80.010	19.993	103.960	19.887	6.899	0.460
297.000	232.262	80.009	19.993	103.957	19.885	6.996	0.481
298.501	233.009	80.010	19.993	103.969	19.887	6.886	0.503
300.000	233.778	80.011	19.993	103.968	19.884	7.079	0.501
301.499	234.524	80.010	19.993	103.964	19.879	7.482	0.498
303.000	235.308	80.009	19.993	103.965	19.881	7.276	0.505
304.501	236.006	80.010	19.994	103.966	19.879	7.463	0.460
306.000	236.770	80.010	19.994	103.970	19.878	7.538	0.508
307.500	237.529	80.012	19.994	103.971	19.876	7.634	0.517
309.000	238.294	80.012	19.993	103.973	19.872	7.931	0.502
310.500	238.977	80.012	19.994	103.967	19.873	7.880	0.450
312.000	239.736	80.011	19.993	103.952	19.867	8.306	0.506
313.500	240.507	80.012	19.993	103.963	19.865	8.453	0.514
314.999	241.260	80.012	19.993	103.971	19.864	8.489	0.493
316.501	241.977	80.012	19.994	103.972	19.861	8.747	0.487
317.999	242.779	80.012	19.993	103.968	19.859	8.863	0.529
319.499	243.528	80.011	19.993	103.974	19.854	9.225	0.520
321.001	244.235	80.012	19.992	103.973	19.856	9.105	0.484
322.501	244.991	80.010	19.991	103.974	19.852	9.401	0.490
324.000	245.779	80.012	19.994	103.975	19.850	9.538	0.505
325.501	246.499	80.011	19.993	103.973	19.842	10.086	0.488
327.000	247.236	80.011	19.994	103.972	19.842	10.131	0.471
328.501	247.998	80.011	19.994	103.974	19.841	10.187	0.531
330.001	248.775	80.013	19.994	103.974	19.836	10.498	0.512
331.500	249.519	80.012	19.993	103.976	19.832	10.838	0.514
333.001	250.296	80.013	19.994	103.975	19.829	10.997	0.506
334.500	251.058	80.013	19.993	103.974	19.827	11.205	0.506
336.001	251.809	80.013	19.993	103.977	19.824	11.400	0.501
337.501	252.538	80.012	19.994	103.977	19.822	11.548	0.464
339.000	253.300	80.012	19.994	103.987	19.815	12.040	0.501
340.500	254.048	80.013	19.994	103.983	19.810	12.361	0.469
342.000	254.795	80.012	19.994	103.977	19.809	12.451	0.490
343.500	255.540	80.013	19.993	103.980	19.803	12.885	0.492
344.999	256.282	80.012	19.993	103.991	19.802	12.954	0.501
346.500	257.032	80.012	19.993	103.987	19.800	13.081	0.503
348.001	257.783	80.012	19.993	103.977	19.787	14.075	0.500
349.501	258.555	80.011	19.993	103.982	19.785	14.193	0.519
351.000	259.296	80.012	19.992	103.992	19.780	14.523	0.493
352.499	260.080	80.012	19.993	103.990	19.773	15.035	0.510
354.000	260.775	80.012	19.992	103.993	19.768	15.402	0.470
355.501	261.559	80.011	19.992	104.004	19.762	15.850	0.520
357.000	262.282	80.012	19.992	104.004	19.754	16.390	0.475
358.500	263.030	80.012	19.992	104.006	19.748	16.827	0.526
360.000	263.788	80.012	19.993	103.951	19.743	17.203	0.503
361.500	264.549	80.011	19.992	103.948	19.738	17.544	0.486
363.000	265.278	80.012	19.994	104.074	19.733	17.924	0.507
364.501	266.037	80.011	19.994	104.047	19.728	18.299	0.498
366.000	266.813	80.011	19.993	104.015	19.717	19.064	0.501
367.501	267.558	80.011	19.994	104.017	19.712	19.411	0.486
369.001	268.310	80.011	19.993	104.016	19.706	19.821	0.488
370.500	269.033	80.012	19.992	104.016	19.702	20.145	0.486
372.001	269.793	80.011	19.993	104.023	19.692	20.868	0.506
373.499	270.562	80.013	19.993	104.023	19.685	21.352	0.522
374.999	271.289	80.011	19.993	104.032	19.680	21.725	0.504
376.501	272.122	80.012	19.994	104.028	19.675	22.072	0.529
378.000	272.843	80.012	19.993	104.034	19.669	22.519	0.477
379.500	273.566	80.010	19.993	104.047	19.661	23.093	0.484
381.001	274.312	80.011	19.993	104.040	19.653	23.666	0.504
382.500	275.082	80.010	19.992	104.036	19.648	23.981	0.515
384.000	275.861	80.013	19.996	104.043	19.640	24.571	0.491
385.500	276.596	80.011	19.994	104.054	19.633	25.059	0.493
387.000	277.357	80.013	19.993	104.053	19.626	25.564	0.497
388.500	278.105	80.011	19.993	104.054	19.619	26.060	0.503
390.001	278.854	80.013	19.993	104.051	19.613	26.509	0.503
391.499	279.626	80.014	19.994	104.053	19.606	27.041	0.516
393.000	280.336	80.013	19.994	104.049	19.599	27.495	0.477
394.499	281.094	80.014	19.993	104.049	19.595	27.822	0.518
396.000	281.874	80.014	19.994	104.047	19.587	28.407	0.522
397.499	282.636	80.013	19.993	104.052	19.578	29.048	0.511
399.000	283.361	80.013	19.994	104.054	19.572	29.481	0.500
400.499	284.094	80.012	19.993	104.056	19.570	29.630	0.498
402.001	284.872	80.013	19.994	104.060	19.562	30.210	0.513
403.500	285.634	80.011	19.994	104.058	19.558	30.486	0.498
405.000	286.362	80.012	19.993	104.057	19.550	31.012	0.503
406.499	287.124	80.012	19.993	104.057	19.547	31.277	0.510
408.000	287.873	80.012	19.994	104.062	19.537	31.942	0.498
409.500	288.638	80.011	19.994	104.072	19.532	32.347	0.524
411.000	289.390	80.012	19.994	104.081	19.525	32.851	0.513
412.500	290.117	80.013	19.992	104.074	19.521	33.087	0.496
414.000	290.900	80.012	19.993	104.072	19.517	33.378	0.507
415.500	291.618	80.013	19.994	104.087	19.510	33.942	0.489
417.000	292.381	80.014	19.993	104.086	19.502	34.484	0.506
418.500	293.140	80.014	19.993	104.077	19.500	34.621	0.511
419.999	293.881	80.013	19.993	104.083	19.492	35.172	0.500
421.500	294.619	80.013	19.993	104.080	19.492	35.226	0.490
423.000	295.385	80.013	19.992	104.072	19.488	35.515	0.535
424.500	296.126	80.012	19.993	104.086	19.483	35.878	0.495
426.000	296.860	80.012	19.993	104.083	19.473	36.572	0.485
427.500	297.649	80.011	19.994	104.073	19.473	36.537	0.529
429.000	298.397	80.009	19.993	104.084	19.467	37.019	0.498
430.499	299.116	80.011	19.994	104.080	19.463	37.244	0.474
432.001	299.854	80.011	19.995	104.078	19.457	37.695	0.498
433.500	300.610	80.010	19.994	104.083	19.459	37.580	0.517
435.000	301.394	80.009	19.994	104.087	19.455	37.878	0.492
436.501	302.132	80.011	19.993	104.087	19.451	38.122	0.482
438.001	302.883	80.010	19.993	104.083	19.449	38.310	0.502
439.501	303.616	80.012	19.994	104.087	19.439	38.973	0.499
441.001	304.367	80.012	19.994	104.082	19.439	39.038	0.510
442.501	305.120	80.011	19.992	104.070	19.436	39.235	0.512
444.001	305.903	80.011	19.995	104.088	19.431	39.544	0.516
445.500	306.659	80.011	19.994	104.093	19.428	39.779	0.505
446.999	307.422	80.012	19.993	104.093	19.427	39.893	0.513
448.499	308.203	80.012	19.994	104.092	19.420	40.336	0.517
450.000	308.927	80.012	19.994	104.093	19.420	40.373	0.498
451.500	309.705	80.011	19.993	104.095	19.416	40.634	0.506
453.000	310.463	80.012	19.993	104.092	19.408	41.231	0.496
454.501	311.214	80.011	19.993	104.092	19.407	41.324	0.525
456.000	312.014	80.013	19.994	104.095	19.401	41.699	0.534
457.500	312.770	80.010	19.994	104.095	19.396	42.055	0.502
459.001	313.531	80.011	19.994	104.093	19.390	42.498	0.503
460.500	314.285	80.011	19.994	104.094	19.389	42.608	0.501
462.001	315.079	80.012	19.993	104.094	19.387	42.733	0.514
463.500	315.812	80.010	19.994	104.096	19.379	43.314	0.466
465.000	316.566	80.011	19.993	104.096	19.376	43.542	0.498
466.501	317.300	80.011	19.994	104.094	19.369	44.027	0.492
468.000	318.087	80.011	19.993	104.097	19.366	44.266	0.527
469.500	318.837	80.012	19.993	104.103	19.361	44.616	0.504
471.000	319.586	80.012	19.993	104.106	19.358	44.795	0.503
472.500	320.348	80.012	19.994	104.118	19.353	45.210	0.511
474.001	321.070	80.012	19.994	104.115	19.343	45.912	0.473
475.500	321.894	80.014	19.993	104.119	19.343	45.912	0.565
477.000	322.634	80.012	19.993	104.114	19.335	46.508	0.481
478.500	323.365	80.014	19.993	104.102	19.332	46.683	0.501
480.001	324.136	80.013	19.993	104.115	19.326	47.127	0.513
481.501	324.868	80.014	19.992	104.127	19.321	47.460	0.484
483.001	325.641	80.013	19.993	104.133	19.313	48.078	0.507
484.501	326.427	80.013	19.993	104.132	19.307	48.486	0.515
486.000	327.166	80.013	19.992	104.131	19.300	48.986	0.491
487.500	327.920	80.012	19.993	104.133	19.292	49.593	0.512
488.999	328.660	80.013	19.993	104.134	19.287	49.907	0.511
490.499	329.425	80.011	19.993	104.137	19.281	50.383	0.514
492.001	330.196	80.011	19.992	104.137	19.271	51.065	0.527
493.501	330.953	80.013	19.994	104.136	19.267	51.327	0.499
495.001	331.668	80.011	19.994	104.135	19.259	51.936	0.480
496.500	332.443	80.013	19.993	104.137	19.250	52.555	0.515
498.000	333.207	80.013	19.994	104.143	19.246	52.857	0.525
499.500	333.975	80.014	19.994	104.142	19.233	53.830	0.516
501.001	334.722	80.014	19.994	104.148	19.224	54.485	0.479
502.500	335.471	80.013	19.992	104.161	19.215	55.091	0.499
504.000	336.219	80.015	19.993	104.148	19.203	55.960	0.511
505.501	336.963	80.013	19.994	104.154	19.195	56.542	0.493
507.001	337.727	80.013	19.994	104.166	19.187	57.157	0.501
508.500	338.481	80.013	19.992	104.161	19.173	58.158	0.500
510.000	339.239	80.013	19.993	104.168	19.165	58.702	0.509
511.500	339.976	80.013	19.994	104.170	19.152	59.670	0.520
513.000	340.695	80.012	19.994	104.173	19.145	60.159	0.461
514.500	341.443	80.012	19.994	104.174	19.133	61.040	0.502
516.001	342.200	80.011	19.994	104.174	19.122	61.823	0.489
517.500	342.914	80.011	19.993	104.185	19.112	62.532	0.489
519.000	343.685	80.010	19.994	104.206	19.097	63.609	0.501
520.500	344.408	80.012	19.995	104.197	19.089	64.140	0.510
521.999	345.190	80.012	19.995	104.194	19.072	65.413	0.523
523.500	345.936	80.011	19.994	104.205	19.059	66.419	0.500
525.000	346.684	80.012	19.995	104.207	19.046	67.263	0.519
526.501	347.465	80.010	19.994	104.211	19.033	68.245	0.505
528.000	348.221	80.011	19.995	104.214	19.019	69.220	0.511
529.500	348.962	80.010	19.994	104.212	19.006	70.180	0.498
531.000	349.713	80.012	19.994	104.177	18.992	71.150	0.503
532.499	350.491	80.011	19.995	104.221	18.979	72.098	0.526
533.999	351.231	80.011	19.994	104.300	18.964	73.173	0.476
535.499	351.986	80.012	19.994	104.267	18.950	74.172	0.474
536.999	352.777	80.012	19.994	104.253	18.937	75.092	0.518
538.500	353.542	80.010	19.994	104.258	18.926	75.886	0.515
540.001	354.304	80.010	19.993	104.258	18.910	77.071	0.509
541.500	355.034	80.011	19.993	104.261	18.899	77.815	0.476
543.000	355.815	80.012	19.993	104.268	18.887	78.703	0.510
544.501	356.558	80.010	19.993	104.271	18.878	79.390	0.463
546.000	357.306	80.011	19.993	104.281	18.868	80.089	0.494
547.499	358.024	80.011	19.993	104.276	18.862	80.508	0.511
549.001	358.795	80.010	19.993	104.271	18.856	80.958	0.545
550.500	359.567	80.011	19.994	104.268	18.840	82.066	0.468
552.000	360.248	80.011	19.993	104.255	18.834	82.534	0.489
553.499	361.000	80.012	19.994	104.257	18.831	82.680	0.512
555.000	361.763	80.011	19.992	104.261	18.830	82.753	0.519
556.500	362.570	80.013	19.993	104.268	18.830	82.746	0.526
558.000	363.265	80.012	19.993	104.257	18.830	82.772	0.454
559.499	364.083	80.013	19.993	104.252	18.832	82.550	0.597
560.999	364.905	80.013	19.993	104.251	18.836	82.265	0.427
562.499	365.428	80.012	19.993	104.248	18.844	81.696	0.337
564.000	366.719	80.013	19.995	104.243	18.856	80.862	0.749
565.500	367.017	80.012	19.993	104.224	18.864	80.249	0.332
567.001	367.943	80.013	19.993	104.209	18.876	79.376	0.678
568.500	368.566	80.013	19.993	104.198	18.896	77.946	0.397
570.000	369.373	80.013	19.993	104.178	18.911	76.863	0.551
571.499	370.115	80.013	19.993	104.168	18.934	75.187	0.495
572.999	370.869	80.012	19.993	104.148	18.958	73.424	0.463
574.501	371.603	80.012	19.993	104.133	18.991	71.071	0.486
576.000	372.383	80.013	19.993	104.128	19.016	69.297	0.535
577.499	373.126	80.014	19.992	104.110	19.047	67.031	0.521
579.001	373.901	80.013	19.994	104.097	19.081	64.586	0.509
580.500	374.641	80.014	19.993	104.079	19.120	61.766	0.496
582.000	375.422	80.015	19.991	104.059	19.154	59.352	0.517
583.500	376.212	80.013	19.993	104.044	19.194	56.513	0.515
584.999	376.980	80.013	19.994	104.025	19.237	53.406	0.493
586.500	377.714	80.013	19.993	104.013	19.277	50.578	0.518
588.000	378.493	80.013	19.993	103.993	19.316	47.781	0.511
589.500	379.270	80.014	19.994	103.980	19.356	44.883	0.475
590.999	380.016	80.012	19.993	103.974	19.396	42.043	0.510
592.501	380.830	80.014	19.993	103.963	19.438	38.980	0.566
594.001	381.555	80.012	19.994	103.945	19.476	36.255	0.492
595.500	382.343	80.011	19.994	103.941	19.519	33.189	0.510
597.001	383.094	80.012	19.994	103.942	19.554	30.695	0.491
598.500	383.879	80.012	19.994	103.936	19.588	28.269	0.499
600.000	384.651	80.010	19.993	103.922	19.619	26.073	0.501
601.500	385.367	80.012	19.993	103.904	19.649	23.890	0.490
603.000	386.162	80.010	19.994	103.916	19.676	21.939	0.552
604.500	386.914	80.010	19.993	103.915	19.704	19.982	0.483
606.000	387.735	80.011	19.992	103.897	19.722	18.676	0.552
607.500	388.517	80.010	19.994	103.893	19.745	17.004	0.530
609.000	389.299	80.012	19.993	103.894	19.768	15.355	0.528
610.501	390.065	80.011	19.993	103.892	19.787	14.048	0.521
612.000	390.833	80.012	19.993	103.883	19.799	13.145	0.515
613.501	391.603	80.012	19.994	103.875	19.811	12.292	0.517
614.999	392.364	80.012	19.993	103.883	19.824	11.351	0.494
616.499	393.132	80.011	19.993	103.890	19.838	10.387	0.508
618.000	393.906	80.012	19.993	103.889	19.846	9.787	0.540
619.500	394.654	80.012	19.994	103.885	19.847	9.705	0.484
621.000	395.415	80.011	19.994	103.873	19.857	9.012	0.498
622.500	396.183	80.009	19.993	103.867	19.863	8.583	0.517
623.999	396.938	80.012	19.994	103.881	19.867	8.298	0.521
625.501	397.729	80.010	19.995	103.896	19.874	7.837	0.529
627.000	398.491	80.010	19.996	103.881	19.874	7.779	0.512
628.501	399.264	80.011	19.994	103.868	19.880	7.385	0.500
630.001	400.005	80.009	19.995	103.875	19.880	7.381	0.513
631.501	400.785	80.008	19.994	103.885	19.882	7.250	0.496
633.001	401.498	80.011	19.994	103.883	19.882	7.260	0.474
634.500	402.285	80.010	19.994	103.875	19.883	7.126	0.530
636.000	403.052	80.011	19.995	103.874	19.882	7.227	0.517
637.500	403.879	80.012	19.993	103.889	19.886	6.927	0.545
639.001	404.567	80.012	19.994	103.894	19.885	7.018	0.492
640.500	405.287	80.012	19.994	103.891	19.890	6.661	0.468
642.001	406.074	80.014	19.993	103.891	19.891	6.588	0.518
643.500	406.840	80.014	19.994	103.895	19.894	6.397	0.507
645.000	407.617	80.014	19.992	103.890	19.893	6.424	0.518
646.501	408.367	80.012	19.993	103.887	19.892	6.482	0.499
648.000	409.174	80.016	19.993	103.893	19.894	6.333	0.547
649.500	409.908	80.013	19.992	103.896	19.895	6.302	0.494
651.000	410.647	80.014	19.993	103.880	19.897	6.159	0.496
652.500	411.431	80.013	19.993	103.878	19.899	6.016	0.528
653.999	412.166	80.013	19.993	103.892	19.899	6.006	0.507
655.500	412.969	80.012	19.993	103.876	19.900	5.975	0.522
657.001	413.690	80.013	19.993	103.838	19.899	5.984	0.475
658.499	414.465	80.014	19.993	103.801	19.902	5.784	0.517
660.001	415.200	80.014	19.994	103.919	19.904	5.654	0.466
661.500	415.981	80.013	19.993	103.950	19.906	5.482	0.518
662.999	416.744	80.014	19.993	103.875	19.905	5.585	0.513
664.500	417.488	80.013	19.992	103.874	19.907	5.430	0.494
666.000	418.231	80.015	19.993	103.873	19.905	5.615	0.505
667.499	419.006	80.013	19.993	103.863	19.906	5.513	0.514
669.000	419.756	80.014	19.992	103.876	19.907	5.404	0.492
670.499	420.527	80.014	19.993	103.873	19.907	5.425	0.514
672.000	421.296	80.014	19.993	103.866	19.908	5.363	0.514
673.500	422.076	80.014	19.992	103.877	19.908	5.363	0.527
675.000	422.783	80.013	19.992	103.869	19.910	5.195	0.487
676.501	423.546	80.012	19.992	103.863	19.909	5.292	0.504
678.000	424.297	80.014	19.993	103.868	19.911	5.170	0.489
679.501	425.094	80.011	19.993	103.866	19.909	5.284	0.519
681.000	425.852	80.011	19.993	103.872	19.910	5.234	0.480
682.501	426.604	80.010	19.992	103.884	19.914	4.934	0.502
684.000	427.373	80.011	19.993	103.885	19.916	4.827	0.512
685.500	428.130	80.011	19.993	103.883	19.915	4.850	0.500
686.999	428.876	80.013	19.993	103.883	19.915	4.858	0.499
688.501	429.606	80.011	19.993	103.888	19.918	4.676	0.475
690.000	430.375	80.012	19.993	103.884	19.920	4.535	0.499
691.501	431.133	80.009	19.994	103.898	19.915	4.895	0.517
693.000	431.895	80.012	19.993	103.881	19.921	4.442	0.505
694.500	432.641	80.012	19.994	103.876	19.919	4.558	0.488
696.001	433.429	80.010	19.996	103.866	19.918	4.651	0.507
697.501	434.204	80.012	19.994	103.859	19.918	4.630	0.523
698.999	434.965	80.012	19.994	103.874	19.925	4.143	0.501
700.500	435.698	80.012	19.994	103.874	19.920	4.496	0.499
702.000	436.486	80.010	19.995	103.869	19.923	4.320	0.525
703.501	437.255	80.012	19.993	103.872	19.923	4.267	0.494
705.000	437.983	80.012	19.994	103.865	19.924	4.251	0.499
706.500	438.714	80.011	19.994	103.860	19.920	4.527	0.486
708.000	439.480	80.011	19.993	103.861	19.922	4.357	0.506
709.500	440.201	80.010	19.994	103.861	19.924	4.218	0.471
711.000	440.982	80.009	19.995	103.867	19.925	4.152	0.493
712.499	441.710	80.012	19.994	103.865	19.927	4.009	0.507
713.999	442.479	80.011	19.995	103.868	19.927	3.985	0.496
715.499	443.223	80.009	19.994	103.869	19.930	3.818	0.496
717.001	443.974	80.012	19.995	103.863	19.930	3.803	0.517
718.500	444.711	80.010	19.993	103.864	19.929	3.886	0.492
719.999	445.425	80.011	19.995	103.867	19.931	3.700	0.480
721.500	446.203	80.009	19.995	103.863	19.934	3.511	0.530
722.999	446.941	80.012	19.995	103.860	19.929	3.841	0.499
724.500	447.722	80.012	19.995	103.870	19.930	3.785	0.510
726.000	448.448	80.011	19.995	103.868	19.934	3.494	0.487
727.500	449.217	80.014	19.994	103.867	19.931	3.697	0.519
728.999	449.980	80.011	19.994	103.868	19.934	3.522	0.504
730.501	450.740	80.014	19.994	103.863	19.936	3.374	0.499
731.999	451.499	80.013	19.993	103.862	19.933	3.546	0.499
733.501	452.252	80.013	19.993	103.862	19.933	3.593	0.507
735.001	453.027	80.012	19.993	103.868	19.934	3.539	0.507
736.500	453.804	80.012	19.993	103.867	19.934	3.503	0.508
737.999	454.556	80.011	19.994	103.869	19.939	3.159	0.498
739.500	455.345	80.012	19.993	103.867	19.933	3.584	0.541
740.999	456.112	80.012	19.993	103.862	19.938	3.231	0.508
742.501	456.855	80.014	19.992	103.862	19.934	3.509	0.498
744.000	457.644	80.012	19.993	103.877	19.938	3.202	0.522
745.501	458.426	80.014	19.994	103.892	19.938	3.225	0.522
747.000	459.204	80.014	19.994	103.880	19.937	3.289	0.531
748.500	459.988	80.013	19.992	103.867	19.937	3.281	0.514
750.001	460.770	80.014	19.993	103.864	19.938	3.188	0.513
751.500	461.568	80.014	19.992	103.862	19.938	3.217	0.530
753.000	462.353	80.014	19.993	103.861	19.942	2.957	0.517
754.501	463.117	80.013	19.992	103.862	19.938	3.202	0.510
756.000	463.905	80.014	19.994	103.861	19.938	3.206	0.528
757.501	464.686	80.014	19.993	103.861	19.941	2.997	0.525
759.001	465.431	80.013	19.992	103.861	19.938	3.238	0.500
760.501	466.236	80.012	19.992	103.860	19.940	3.066	0.515
762.000	467.012	80.012	19.993	103.864	19.940	3.045	0.519
763.500	467.808	80.011	19.993	103.881	19.941	3.038	0.529
765.000	468.588	80.011	19.994	103.878	19.941	3.032	0.533
766.500	469.370	80.013	19.992	103.864	19.941	2.997	0.522
768.001	470.155	80.013	19.994	103.863	19.943	2.873	0.538
769.500	470.960	80.012	19.993	103.863	19.940	3.088	0.525
771.000	471.717	80.013	19.993	103.860	19.941	2.995	0.514
772.500	472.535	80.011	19.994	103.868	19.940	3.111	0.545
774.001	473.249	80.014	19.993	103.867	19.942	2.966	0.489
775.500	474.110	80.014	19.993	103.860	19.943	2.850	0.569
777.000	474.882	80.012	19.994	103.859	19.941	2.985	0.524
778.501	475.689	80.013	19.993	103.857	19.943	2.840	0.529
780.000	476.438	80.012	19.993	103.858	19.942	2.902	0.525
781.501	477.230	80.013	19.993	103.860	19.940	3.111	0.525
783.001	477.997	80.011	19.994	103.858	19.941	3.039	0.494
784.500	478.727	80.011	19.994	103.861	19.942	2.935	0.498
785.999	479.553	80.011	19.993	103.863	19.944	2.769	0.540
787.500	480.300	80.012	19.994	103.857	19.939	3.132	0.515
789.000	481.085	80.013	19.993	103.858	19.941	3.022	0.539
790.500	481.898	80.014	19.994	103.858	19.941	3.022	0.532
792.001	482.672	80.008	19.994	103.859	19.945	2.699	0.524
793.499	483.407	80.011	19.993	103.862	19.942	2.951	0.506
795.000	484.196	80.010	19.994	103.863	19.942	2.964	0.521
796.501	484.956	80.012	19.995	103.861	19.942	2.924	0.484
798.001	485.713	80.011	19.994	103.862	19.944	2.779	0.508
799.500	486.492	80.010	19.993	103.862	19.945	2.726	0.507
801.000	487.275	80.011	19.994	103.861	19.944	2.809	0.517
802.500	488.058	80.010	19.992	103.862	19.942	2.943	0.519
804.000	488.814	80.013	19.995	103.867	19.942	2.908	0.517
805.500	489.570	80.011	19.994	103.869	19.943	2.852	0.498
807.001	490.382	80.013	19.994	103.868	19.942	2.927	0.541
808.500	491.127	80.010	19.994	103.866	19.944	2.826	0.508
810.000	491.896	80.013	19.994	103.860	19.942	2.960	0.535
811.500	492.692	80.012	19.994	103.859	19.943	2.850	0.526
812.999	493.466	80.012	19.994	103.859	19.942	2.964	0.499
814.500	494.237	80.013	19.994	103.857	19.944	2.774	0.533
815.999	495.042	80.012	19.996	103.857	19.942	2.904	0.538
817.499	495.820	80.012	19.994	103.855	19.943	2.896	0.527
819.000	496.558	80.011	19.993	103.849	19.941	2.981	0.494
820.500	497.290	80.011	19.994	103.851	19.942	2.946	0.493
822.000	498.097	80.012	19.994	103.854	19.941	3.033	0.551
823.501	498.865	80.012	19.994	103.855	19.944	2.817	0.512
825.001	499.618	80.012	19.994	103.857	19.942	2.958	0.510
826.501	500.362	80.013	19.994	103.853	19.942	2.945	0.494
828.001	501.146	80.012	19.994	103.853	19.946	2.626	0.526
829.500	501.938	80.010	19.994	103.856	19.943	2.838	0.534
831.000	502.682	80.010	19.993	103.855	19.943	2.894	0.504
832.499	503.443	80.012	19.993	103.856	19.943	2.887	0.485
834.000	504.185	80.014	19.992	103.858	19.937	3.277	0.490
835.501	504.956	80.014	19.994	103.857	19.938	3.188	0.507
837.000	505.695	80.013	19.993	103.858	19.943	2.867	0.488
838.501	506.458	80.014	19.993	103.856	19.942	2.900	0.509
840.000	507.218	80.010	19.992	103.856	19.943	2.848	0.504
841.500	507.999	80.014	19.993	103.858	19.944	2.809	0.523
842.999	508.757	80.012	19.993	103.859	19.944	2.771	0.487
844.501	509.513	80.013	19.992	103.857	19.943	2.846	0.507
846.000	510.243	80.010	19.994	103.856	19.946	2.634	0.482
847.501	510.985	80.012	19.993	103.857	19.947	2.589	0.508
848.999	511.761	80.011	19.993	103.862	19.945	2.705	0.514
850.500	512.518	80.011	19.993	103.859	19.941	2.983	0.504
852.000	513.304	80.011	19.993	103.853	19.946	2.660	0.528
853.501	514.062	80.012	19.994	103.857	19.946	2.657	0.525
854.999	514.825	80.010	19.994	103.851	19.947	2.589	0.519
856.499	515.618	80.010	19.993	103.858	19.945	2.705	0.529
858.000	516.367	80.011	19.994	103.859	19.946	2.655	0.509
859.501	517.134	80.011	19.993	103.858	19.943	2.831	0.513
860.999	517.925	80.013	19.994	103.856	19.946	2.628	0.529
862.499	518.671	80.010	19.991	103.851	19.945	2.724	0.491
864.001	519.412	80.011	19.994	103.861	19.944	2.759	0.502
865.499	520.217	80.012	19.994	103.861	19.947	2.599	0.535
867.000	520.960	80.011	19.993	103.861	19.946	2.641	0.515
868.501	521.735	80.012	19.993	103.862	19.952	2.249	0.501
870.001	522.469	80.012	19.993	103.862	19.948	2.502	0.536
871.500	523.234	80.013	19.992	103.861	19.949	2.431	0.506
873.000	524.001	80.011	19.993	103.859	19.950	2.398	0.511
874.500	524.781	80.012	19.993	103.862	19.949	2.415	0.520
876.000	525.569	80.011	19.994	103.864	19.949	2.438	0.516
877.500	526.296	80.011	19.993	103.869	19.947	2.605	0.493
878.999	527.127	80.011	19.994	103.864	19.947	2.560	0.537
880.499	527.876	80.011	19.994	103.863	19.949	2.419	0.494
882.001	528.663	80.012	19.995	103.862	19.949	2.465	0.537
883.500	529.425	80.010	19.994	103.865	19.950	2.380	0.501
885.000	530.162	80.011	19.994	103.866	19.951	2.293	0.502
886.501	530.966	80.011	19.993	103.859	19.949	2.407	0.531
888.000	531.733	80.012	19.993	103.856	19.949	2.405	0.526
889.500	532.489	80.013	19.993	103.859	19.949	2.458	0.502
891.000	533.281	80.013	19.993	103.855	19.950	2.332	0.533
892.500	534.047	80.012	19.993	103.856	19.949	2.419	0.522
894.000	534.846	80.013	19.993	103.857	19.947	2.570	0.534
895.500	535.611	80.013	19.992	103.847	19.950	2.382	0.497
897.001	536.363	80.014	19.994	103.852	19.950	2.334	0.510
898.500	537.124	80.013	19.993	103.855	19.948	2.483	0.515
900.001	537.910	80.013	19.993	103.857	19.947	2.585	0.529
901.500	538.673	80.013	19.994	103.857	19.948	2.477	0.518
903.001	539.437	80.013	19.993	103.857	19.950	2.361	0.492
904.500	540.205	80.013	19.993	103.859	19.952	2.253	0.524
906.001	540.992	80.011	19.994	103.857	19.947	2.597	0.504
907.500	541.752	80.012	19.993	103.856	19.949	2.444	0.512
908.999	542.507	80.012	19.994	103.855	19.949	2.429	0.491
910.500	543.311	80.014	19.993	103.858	19.947	2.556	0.542
912.001	544.058	80.012	19.995	103.860	19.947	2.589	0.515
913.499	544.833	80.012	19.995	103.857	19.946	2.664	0.513
914.999	545.586	80.014	19.995	103.856	19.946	2.626	0.498
916.500	546.339	80.015	19.994	103.856	19.951	2.299	0.493
918.000	547.178	80.012	19.994	103.855	19.946	2.627	0.548
919.500	547.962	80.012	19.995	103.855	19.950	2.328	0.536
921.000	548.659	80.013	19.994	103.856	19.947	2.591	0.469
922.500	549.453	80.012	19.993	103.854	19.947	2.554	0.522
923.999	550.230	80.013	19.994	103.851	19.946	2.653	0.493
925.500	550.991	80.012	19.994	103.852	19.944	2.807	0.511
927.000	551.755	80.013	19.994	103.861	19.948	2.518	0.515
928.500	552.523	80.012	19.994	103.854	19.944	2.825	0.512
929.999	553.285	80.013	19.994	103.839	19.949	2.427	0.508
931.500	554.057	80.012	19.993	103.845	19.946	2.661	0.512
933.001	554.889	80.011	19.993	103.862	19.948	2.475	0.541
934.501	555.647	80.011	19.993	103.862	19.948	2.481	0.529
936.000	556.385	80.009	19.994	103.861	19.948	2.502	0.496
937.499	557.152	80.011	19.994	103.860	19.947	2.547	0.507
939.001	557.910	80.011	19.993	103.860	19.949	2.463	0.502
940.500	558.688	80.012	19.994	103.860	19.949	2.419	0.533
942.000	559.478	80.008	19.994	103.860	19.949	2.452	0.531
943.500	560.224	80.012	19.993	103.860	19.945	2.746	0.515
945.001	561.028	80.012	19.993	103.860	19.946	2.645	0.526
946.500	561.806	80.010	19.994	103.860	19.944	2.800	0.517
948.001	562.578	80.012	19.993	103.860	19.945	2.707	0.513
949.501	563.365	80.012	19.993	103.853	19.948	2.506	0.513
951.000	564.146	80.012	19.993	103.850	19.946	2.662	0.502
952.500	564.895	80.011	19.993	103.858	19.946	2.635	0.498
954.000	565.645	80.012	19.992	103.857	19.947	2.610	0.539
955.501	566.430	80.012	19.994	103.857	19.943	2.840	0.526
957.000	567.245	80.011	19.993	103.858	19.946	2.670	0.526
958.500	568.011	80.012	19.994	103.856	19.944	2.809	0.526
960.001	568.751	80.011	19.993	103.857	19.945	2.745	0.521
961.501	569.532	80.012	19.993	103.858	19.943	2.884	0.531
962.999	570.311	80.011	19.993	103.856	19.945	2.751	0.513
964.501	571.042	80.011	19.994	103.856	19.944	2.792	0.483
966.000	571.827	80.012	19.993	103.858	19.943	2.860	0.492
967.501	572.596	80.011	19.993	103.858	19.947	2.612	0.512
968.999	573.351	80.014	19.991	103.857	19.943	2.860	0.510
970.499	574.135	80.013	19.993	103.856	19.941	3.022	0.518
971.999	574.946	80.011	19.993	103.847	19.941	2.998	0.520
973.500	575.742	80.013	19.993	103.855	19.942	2.960	0.524
975.001	576.459	80.015	19.993	103.860	19.943	2.836	0.487
976.500	577.268	80.014	19.994	103.860	19.944	2.776	0.564
978.000	578.007	80.014	19.993	103.859	19.943	2.869	0.510
979.501	578.752	80.011	19.993	103.857	19.943	2.869	0.499
981.000	579.519	80.015	19.994	103.858	19.943	2.898	0.516
982.500	580.277	80.012	19.993	103.846	19.941	3.003	0.513
984.000	581.017	80.012	19.993	103.845	19.946	2.680	0.499
985.499	581.774	80.011	19.995	103.857	19.946	2.664	0.504
986.999	582.542	80.012	19.993	103.856	19.945	2.686	0.502
988.500	583.310	80.014	19.993	103.853	19.944	2.806	0.522
989.999	584.096	80.015	19.994	103.851	19.946	2.632	0.507
991.500	584.879	80.013	19.994	103.856	19.944	2.761	0.527
993.000	585.662	80.013	19.994	103.861	19.945	2.711	0.491
994.500	586.403	80.011	19.993	103.861	19.945	2.691	0.516
996.000	587.157	80.014	19.993	103.860	19.944	2.798	0.509
997.501	588.006	80.013	19.993	103.863	19.942	2.956	0.561
999.000	588.783	80.016	19.994	103.862	19.943	2.854	0.512
1000.500	589.588	80.018	19.993	103.861	19.941	2.973	0.521
1002.000	590.351	80.015	19.995	103.860	19.939	3.173	0.524
1003.500	591.159	80.015	19.993	103.855	19.939	3.117	0.543
1005.000	591.943	80.014	19.993	103.854	19.938	3.200	0.497
1006.500	592.735	80.015	19.994	103.859	19.946	2.635	0.545
1008.000	593.561	80.013	19.994	103.859	19.941	3.016	0.552
1009.499	594.389	80.012	19.994	103.859	19.943	2.857	0.555
1010.999	595.168	80.010	19.994	103.853	19.944	2.797	0.527
1012.500	595.972	80.012	19.994	103.856	19.941	2.983	0.543
1014.000	596.779	80.011	19.993	103.860	19.942	2.935	0.528
1015.501	597.598	80.012	19.993	103.860	19.941	3.000	0.541
1017.000	598.396	80.009	19.993	103.860	19.944	2.790	0.542
1018.500	599.217	80.011	19.995	103.855	19.944	2.776	0.541
1020.001	600.007	80.015	19.994	103.855	19.944	2.778	0.540
1021.501	600.791	80.012	19.993	103.849	19.945	2.743	0.533
1023.001	601.580	80.011	19.993	103.852	19.947	2.612	0.514
1024.501	602.398	80.013	19.993	103.860	19.945	2.703	0.545
1026.000	603.149	80.011	19.992	103.854	19.946	2.672	0.506
1027.500	603.966	80.013	19.993	103.852	19.943	2.882	0.535
1029.001	604.744	80.013	19.992	103.838	19.945	2.743	0.504
1030.501	605.534	80.014	19.993	103.838	19.942	2.962	0.509
1032.001	606.292	80.013	19.993	103.850	19.946	2.620	0.501
1033.501	607.050	80.011	19.993	103.852	19.945	2.712	0.516
1035.000	607.831	80.013	19.993	103.846	19.949	2.419	0.516
1036.501	608.611	80.012	19.994	103.843	19.946	2.619	0.517
1037.999	609.351	80.011	19.993	103.837	19.947	2.554	0.480
1039.501	610.121	80.012	19.993	103.840	19.946	2.647	0.506
1040.999	610.837	80.012	19.994	103.850	19.946	2.662	0.479
1042.500	611.580	80.012	19.992	103.853	19.947	2.548	0.496
1044.000	612.341	80.010	19.994	103.850	19.948	2.523	0.516
1045.500	613.103	80.012	19.994	103.854	19.947	2.564	0.530
1047.000	613.880	80.010	19.993	103.843	19.943	2.881	0.515
1048.500	614.681	80.012	19.993	103.829	19.946	2.641	0.514
1050.000	615.460	80.012	19.992	103.841	19.945	2.740	0.522
1051.501	616.231	80.012	19.993	103.850	19.942	2.923	0.527
1052.999	616.978	80.012	19.993	103.856	19.944	2.782	0.500
1054.499	617.768	80.012	19.993	103.855	19.945	2.699	0.534
1056.000	618.553	80.014	19.993	103.855	19.941	2.979	0.523
1057.500	619.351	80.012	19.993	103.852	19.944	2.798	0.522
1059.000	620.100	80.014	19.994	103.855	19.947	2.573	0.495
1060.500	620.894	80.014	19.993	103.854	19.943	2.871	0.528
1062.000	621.644	80.013	19.993	103.839	19.942	2.905	0.499
1063.501	622.446	80.014	19.992	103.838	19.945	2.730	0.536
1065.001	623.224	80.013	19.992	103.836	19.947	2.593	0.507
1066.499	624.019	80.014	19.994	103.839	19.944	2.792	0.530
1068.000	624.805	80.012	19.992	103.856	19.944	2.795	0.526
1069.500	625.580	80.012	19.993	103.847	19.944	2.801	0.510
1071.000	626.390	80.013	19.993	103.839	19.944	2.815	0.540
1072.500	627.147	80.012	19.993	103.839	19.946	2.676	0.498
1073.999	627.955	80.012	19.992	103.836	19.944	2.775	0.529
1075.500	628.753	80.011	19.993	103.846	19.945	2.732	0.539
1077.000	629.529	80.011	19.993	103.850	19.945	2.722	0.525
1078.500	630.304	80.014	19.993	103.837	19.942	2.946	0.526
1080.000	631.090	80.012	19.994	103.829	19.946	2.679	0.522
1081.499	631.891	80.013	19.993	103.842	19.941	3.039	0.517
1082.999	632.660	80.013	19.993	103.846	19.948	2.515	0.523
1084.499	633.456	80.014	19.993	103.855	19.946	2.677	0.546
1086.000	634.182	80.013	19.993	103.856	19.944	2.770	0.544
1087.500	635.003	80.014	19.994	103.843	19.948	2.538	0.535
1089.000	635.757	80.013	19.994	103.841	19.946	2.664	0.523
1090.499	636.569	80.015	19.993	103.838	19.948	2.492	0.535
1092.001	637.335	80.014	19.992	103.841	19.951	2.314	0.498
1093.501	638.096	80.014	19.993	103.843	19.949	2.422	0.502
1094.999	638.876	80.011	19.993	103.834	19.947	2.556	0.505
1096.499	639.644	80.012	19.994	103.836	19.949	2.399	0.506
1098.000	640.439	80.010	19.994	103.833	19.947	2.602	0.509
1099.500	641.167	80.011	19.994	103.834	19.945	2.693	0.483
1101.000	642.003	80.012	19.994	103.838	19.948	2.517	0.536
1102.499	642.746	80.011	19.993	103.829	19.946	2.645	0.489
1104.000	643.487	80.012	19.994	103.841	19.946	2.643	0.490
1105.500	644.274	80.010	19.994	103.844	19.946	2.644	0.497
1107.000	645.028	80.011	19.994	103.842	19.948	2.519	0.509
1108.499	645.780	80.012	19.994	103.838	19.945	2.739	0.511
1110.001	646.539	80.011	19.995	103.837	19.947	2.566	0.483
1111.499	647.315	80.012	19.994	103.843	19.948	2.515	0.517
1113.001	648.041	80.011	19.995	103.850	19.944	2.824	0.476
1114.500	648.792	80.013	19.994	103.847	19.947	2.600	0.505
1115.999	649.535	80.012	19.994	103.839	19.944	2.780	0.498
1117.499	650.301	80.009	19.994	103.825	19.942	2.958	0.499
1119.000	651.086	80.011	19.993	103.827	19.948	2.477	0.542
1120.500	651.827	80.014	19.993	103.842	19.948	2.477	0.503
1121.999	652.548	80.011	19.994	103.846	19.949	2.420	0.466
1123.500	653.345	80.012	19.994	103.833	19.948	2.483	0.523
1124.999	654.073	80.012	19.992	103.835	19.942	2.944	0.486
1126.499	654.840	80.012	19.992	103.845	19.945	2.697	0.499
1128.000	655.599	80.010	19.993	103.852	19.945	2.704	0.492
1129.501	656.321	80.012	19.993	103.850	19.944	2.762	0.455
1131.001	657.073	80.012	19.993	103.847	19.946	2.662	0.505
1132.500	657.838	80.011	19.993	103.841	19.948	2.532	0.483
1134.000	658.612	80.011	19.993	103.842	19.950	2.362	0.510
1135.499	659.343	80.012	19.993	103.855	19.946	2.616	0.492
1136.999	660.107	80.010	19.993	103.839	19.948	2.492	0.518
1138.499	660.852	80.012	19.993	103.824	19.948	2.503	0.501
1140.001	661.587	80.012	19.993	103.828	19.948	2.500	0.501
1141.500	662.342	80.012	19.992	103.833	19.949	2.438	0.503
1143.001	663.099	80.013	19.993	103.839	19.948	2.488	0.503
1144.499	663.813	80.013	19.994	103.836	19.947	2.612	0.488
1146.000	664.627	80.013	19.993	103.839	19.944	2.824	0.530
1147.500	665.364	80.014	19.994	103.846	19.947	2.561	0.502
1149.000	666.082	80.013	19.992	103.837	19.948	2.515	0.482
1150.501	666.847	80.012	19.992	103.833	19.951	2.289	0.503
1152.001	667.605	80.014	19.992	103.842	19.949	2.453	0.505
1153.500	668.369	80.013	19.993	103.838	19.942	2.904	0.495
1155.001	669.104	80.012	19.992	103.832	19.946	2.625	0.484
1156.501	669.900	80.013	19.993	103.844	19.945	2.711	0.541
1158.001	670.639	80.014	19.993	103.830	19.944	2.759	0.504
1159.501	671.378	80.013	19.993	103.821	19.942	2.906	0.524
1161.001	672.133	80.013	19.993	103.828	19.942	2.954	0.522
1162.500	672.908	80.013	19.991	103.836	19.940	3.093	0.493
1164.000	673.656	80.014	19.996	103.842	19.940	3.068	0.510
1165.500	674.449	80.015	19.994	103.846	19.940	3.067	0.543
1167.000	675.228	80.015	19.993	103.844	19.941	2.996	0.509
1168.499	675.981	80.014	19.993	103.841	19.940	3.081	0.501
1170.000	676.777	80.015	19.993	103.845	19.940	3.075	0.519
1171.499	677.560	80.013	19.992	103.853	19.941	2.977	0.524
1172.999	678.312	80.015	19.993	103.852	19.944	2.801	0.509
1174.499	679.067	80.013	19.993	103.839	19.943	2.853	0.503
1175.999	679.857	80.012	19.993	103.825	19.941	2.975	0.543
1177.499	680.613	80.012	19.995	103.835	19.943	2.896	0.502
1178.999	681.367	80.012	19.994	103.838	19.940	3.087	0.504
1180.501	682.186	80.012	19.994	103.834	19.947	2.550	0.535
1182.000	682.965	80.012	19.994	103.847	19.948	2.533	0.506
1183.501	683.676	80.012	19.994	103.842	19.946	2.679	0.504
1184.999	684.463	80.011	19.993	103.840	19.944	2.785	0.506
1186.499	685.245	80.012	19.994	103.839	19.949	2.411	0.523
1188.000	686.044	80.012	19.992	103.841	19.946	2.613	0.551
1189.499	686.856	80.011	19.993	103.830	19.945	2.708	0.529
1191.000	687.599	80.014	19.993	103.827	19.948	2.488	0.480
1192.501	688.390	80.012	19.993	103.839	19.948	2.511	0.527
1194.000	689.161	80.010	19.993	103.826	19.946	2.671	0.515
1195.500	689.973	80.011	19.994	103.821	19.944	2.777	0.522
1197.001	690.717	80.011	19.994	103.826	19.949	2.461	0.493
1198.499	691.487	80.013	19.994	103.829	19.941	3.023	0.500
1199.999	692.280	80.012	19.994	103.831	19.947	2.548	0.521
1201.499	693.055	80.011	19.995	103.826	19.945	2.739	0.522
1202.999	693.826	80.011	19.993	103.824	19.944	2.764	0.566
1204.500	694.535	80.011	19.995	103.825	19.944	2.814	0.489
1205.999	695.330	80.010	19.994	103.824	19.945	2.691	0.524
1207.499	696.088	80.008	19.994	103.823	19.944	2.814	0.479
1209.000	696.847	80.011	19.993	103.823	19.946	2.666	0.506
1210.499	697.593	80.011	19.993	103.825	19.940	3.098	0.501
1211.999	698.340	80.012	19.993	103.830	19.941	3.004	0.509
1213.499	699.110	80.010	19.994	103.827	19.942	2.961	0.506
1215.000	699.847	80.011	19.994	103.833	19.946	2.640	0.506
1216.499	700.623	80.011	19.992	103.833	19.941	3.015	0.511
1218.000	701.320	80.011	19.993	103.828	19.941	2.978	0.471
1219.500	702.090	80.012	19.993	103.834	19.941	2.980	0.519
1221.000	702.842	80.012	19.993	103.833	19.940	3.073	0.492
1222.499	703.572	80.011	19.992	103.830	19.942	2.915	0.481
1224.001	704.291	80.014	19.994	103.836	19.941	2.984	0.481
1225.499	705.047	80.014	19.994	103.827	19.942	2.915	0.497
1227.000	705.762	80.013	19.993	103.827	19.944	2.772	0.487
1228.499	706.513	80.014	19.992	103.821	19.943	2.841	0.510
1230.000	707.264	80.013	19.993	103.824	19.944	2.801	0.486
1231.500	707.931	80.013	19.993	103.832	19.946	2.669	0.461
1232.999	708.674	80.013	19.993	103.825	19.947	2.602	0.463
1234.500	709.430	80.013	19.993	103.825	19.942	2.930	0.492
1236.000	710.133	80.014	19.993	103.829	19.943	2.882	0.475
1237.499	710.862	80.013	19.993	103.833	19.939	3.141	0.495
1239.000	711.629	80.013	19.993	103.827	19.950	2.381	0.508
1240.501	712.364	80.013	19.993	103.826	19.945	2.754	0.497
1242.000	713.086	80.014	19.994	103.825	19.943	2.882	0.492
1243.499	713.825	80.015	19.993	103.826	19.939	3.139	0.494
1245.000	714.563	80.014	19.993	103.828	19.940	3.075	0.505
1246.499	715.344	80.014	19.993	103.829	19.940	3.085	0.518
1248.000	716.091	80.015	19.992	103.825	19.942	2.915	0.493
1249.500	716.821	80.016	19.993	103.823	19.942	2.959	0.490
1251.000	717.557	80.015	19.993	103.823	19.940	3.110	0.496
1252.500	718.284	80.017	19.993	103.826	19.938	3.241	0.515
1254.000	719.011	80.015	19.992	103.822	19.938	3.193	0.490
1255.501	719.781	80.016	19.992	103.821	19.942	2.942	0.509
1256.999	720.565	80.014	19.991	103.825	19.942	2.948	0.526
1258.500	721.272	80.014	19.993	103.827	19.944	2.791	0.484
1259.999	721.982	80.012	19.993	103.829	19.940	3.081	0.483
1261.499	722.721	80.013	19.992	103.844	19.942	2.951	0.495
1262.999	723.535	80.012	19.992	103.838	19.942	2.969	0.526
1264.500	724.273	80.012	19.994	103.831	19.938	3.208	0.485
1266.000	725.012	80.011	19.993	103.835	19.938	3.253	0.474
1267.501	725.803	80.011	19.993	103.844	19.943	2.897	0.525
1268.999	726.573	80.011	19.993	103.845	19.942	2.915	0.507
1270.501	727.326	80.012	19.993	103.827	19.940	3.061	0.496
1271.999	728.079	80.010	19.993	103.826	19.944	2.801	0.518
1273.501	728.851	80.012	19.994	103.827	19.944	2.766	0.506
1275.000	729.614	80.011	19.993	103.826	19.943	2.880	0.515
1276.500	730.403	80.012	19.992	103.828	19.941	2.987	0.535
1277.999	731.113	80.012	19.994	103.832	19.941	3.031	0.487
1279.499	731.880	80.012	19.994	103.827	19.944	2.777	0.512
1281.001	732.663	80.011	19.994	103.825	19.943	2.839	0.516
1282.501	733.440	80.010	19.992	103.825	19.943	2.865	0.530
1284.000	734.221	80.013	19.994	103.827	19.944	2.805	0.521
1285.501	734.996	80.012	19.994	103.834	19.939	3.150	0.518
1286.999	735.754	80.013	19.994	103.845	19.941	3.004	0.506
1288.499	736.492	80.012	19.994	103.832	19.941	3.036	0.512
1289.999	737.239	80.011	19.994	103.821	19.939	3.147	0.482
1291.500	738.020	80.012	19.993	103.822	19.941	2.971	0.526
1292.999	738.758	80.012	19.994	103.828	19.943	2.847	0.510
1294.499	739.601	80.012	19.994	103.825	19.939	3.115	0.543
1296.000	740.358	80.010	19.994	103.827	19.938	3.185	0.505
1297.499	741.081	80.011	19.993	103.828	19.939	3.158	0.500
1299.001	741.838	80.011	19.995	103.826	19.943	2.884	0.508
1300.500	742.617	80.011	19.995	103.838	19.939	3.175	0.539
1301.999	743.396	80.012	19.995	103.846	19.939	3.123	0.529
1302.500	743.648	80.011	19.994	103.842	19.941	3.030	0.517