File: 01_Data/Vinyl_Plan_Flooring/MCC/Vinyl_Plan_Flooring_MCC_30K_min_211111_R1.txt
Sample ID:	C:\MCC\MCC Cal\Test\Vinyl_Plan_Flooring_MCC_30K_min_211111_R1.txt
Sample Weight (mg):	4.7
Heating Rate (C/s):	0.5
Combustor Temp (C):	900
N2 Flow Rate (cc/min):	80
O2 Flow Rate (cc/min):	20
Calibration File:	C:\MCC\MCC Cal\Coeff1 JN10440_30_210304.txt.txt
T Correction Coefficients:	0	1.024463	0
Time Shift (s):	14
*
Time (s)	Temperature (C)	N2 flow rate (cc/min)	O2 flow rate (cc/min)	Flow Rate (cc/min)	Oxygen (%)	HRR (W/g)	Heating rate (C/s)
0.000	106.867	80.003	19.994	103.010	20.025	-0.119	-0.003
2.000	106.860	80.002	19.993	103.002	20.027	-0.298	0.021
4.000	106.840	80.002	19.994	103.003	20.026	-0.199	0.005
6.000	106.846	80.000	19.993	103.009	20.023	-0.028	-0.009
8.000	106.838	80.002	19.995	103.012	20.023	-0.043	-0.012
10.000	106.834	80.002	19.994	103.003	20.023	-0.007	0.023
12.001	106.835	80.001	19.995	102.997	20.024	-0.073	-0.020
14.000	106.815	80.001	19.995	103.002	20.024	-0.084	0.020
16.001	106.812	80.001	19.996	103.025	20.025	-0.166	0.027
18.001	106.840	80.002	19.996	103.033	20.022	0.041	0.018
20.000	106.848	80.001	19.996	103.057	20.018	0.300	0.039
22.000	106.843	80.001	19.996	103.051	20.016	0.468	-0.001
24.000	106.870	80.002	19.995	103.064	20.015	0.529	0.007
26.000	106.922	80.001	19.996	103.103	20.012	0.762	0.017
28.000	107.051	80.002	19.995	103.111	20.005	1.228	0.100
30.000	107.107	80.001	19.995	103.131	20.007	1.101	0.066
32.001	107.251	80.001	19.996	103.141	20.005	1.243	0.075
34.000	107.360	80.001	19.996	103.144	20.007	1.113	0.086
36.000	107.541	80.002	19.996	103.155	20.003	1.372	0.099
38.001	107.672	80.001	19.995	103.149	20.002	1.398	0.097
40.001	107.889	80.000	19.996	103.152	20.001	1.471	0.137
42.000	108.102	80.000	19.996	103.147	20.003	1.357	0.084
44.000	108.331	80.000	19.997	103.152	19.998	1.683	0.138
46.001	108.582	80.000	19.995	103.176	19.998	1.679	0.108
48.000	108.892	80.001	19.996	103.174	19.997	1.801	0.161
50.001	109.164	80.002	19.995	103.191	19.993	2.045	0.170
52.001	109.484	80.001	19.996	103.193	19.991	2.165	0.145
54.000	109.806	80.003	19.994	103.196	19.988	2.417	0.186
56.001	110.154	80.003	19.995	103.193	19.988	2.387	0.192
58.000	110.507	80.002	19.995	103.201	19.988	2.361	0.168
60.001	110.880	80.002	19.994	103.221	19.988	2.378	0.160
62.000	111.296	80.002	19.995	103.231	19.988	2.407	0.192
64.000	111.730	80.000	19.995	103.231	19.983	2.760	0.217
66.000	112.165	80.001	19.994	103.232	19.983	2.697	0.207
68.000	112.642	80.001	19.994	103.231	19.984	2.647	0.233
70.000	113.148	80.001	19.995	103.238	19.981	2.848	0.282
72.001	113.650	80.002	19.994	103.238	19.984	2.660	0.252
74.001	114.221	80.003	19.994	103.244	19.984	2.678	0.269
76.000	114.784	80.005	19.994	103.250	19.983	2.723	0.303
78.000	115.313	80.004	19.994	103.250	19.983	2.761	0.265
80.001	115.890	80.003	19.994	103.257	19.981	2.893	0.285
82.000	116.471	80.005	19.994	103.262	19.979	3.016	0.300
84.001	117.121	80.004	19.995	103.263	19.984	2.656	0.312
86.001	117.770	80.001	19.995	103.261	19.980	2.942	0.324
88.000	118.430	80.001	19.994	103.264	19.979	2.977	0.342
90.000	119.066	80.002	19.994	103.266	19.984	2.636	0.351
92.001	119.741	80.001	19.995	103.265	19.982	2.766	0.328
94.000	120.434	80.002	19.995	103.266	19.981	2.846	0.365
96.001	121.137	80.001	19.995	103.263	19.980	2.914	0.344
98.000	121.885	80.001	19.995	103.267	19.980	2.938	0.374
100.001	122.620	80.001	19.994	103.265	19.980	2.953	0.340
102.000	123.371	80.000	19.995	103.267	19.982	2.787	0.376
104.001	124.141	80.001	19.993	103.266	19.979	3.026	0.375
106.000	124.889	80.001	19.996	103.267	19.981	2.895	0.391
108.001	125.664	80.001	19.995	103.267	19.977	3.151	0.380
110.001	126.436	80.000	19.996	103.270	19.980	2.927	0.392
112.000	127.231	79.999	19.994	103.271	19.980	2.944	0.391
114.001	128.038	80.000	19.996	103.271	19.981	2.841	0.395
116.001	128.858	80.001	19.995	103.281	19.981	2.873	0.395
118.000	129.665	80.001	19.995	103.275	19.980	2.953	0.421
120.000	130.522	80.001	19.995	103.280	19.979	3.026	0.414
122.000	131.339	80.000	19.994	103.278	19.980	2.957	0.459
124.000	132.219	80.000	19.995	103.289	19.982	2.794	0.429
126.001	133.056	80.001	19.996	103.290	19.978	3.097	0.401
128.000	133.935	80.001	19.994	103.280	19.976	3.210	0.451
130.000	134.778	80.002	19.994	103.274	19.976	3.199	0.424
132.000	135.698	80.001	19.995	103.272	19.975	3.242	0.453
134.000	136.579	80.000	19.995	103.270	19.974	3.337	0.476
136.000	137.439	80.001	19.994	103.278	19.972	3.473	0.426
138.000	138.371	80.000	19.996	103.270	19.975	3.268	0.436
140.000	139.255	80.001	19.996	103.272	19.973	3.387	0.419
142.000	140.185	80.000	19.996	103.272	19.974	3.354	0.472
144.000	141.064	80.000	19.995	103.266	19.972	3.505	0.468
146.000	142.018	80.001	19.996	103.266	19.974	3.369	0.488
148.000	142.911	80.002	19.996	103.265	19.966	3.882	0.459
150.000	143.859	80.000	19.993	103.265	19.972	3.501	0.465
152.000	144.833	80.003	19.995	103.268	19.973	3.445	0.475
154.000	145.763	80.003	19.995	103.267	19.971	3.535	0.463
156.000	146.728	80.003	19.995	103.267	19.969	3.719	0.464
158.000	147.664	80.004	19.996	103.266	19.971	3.563	0.475
160.000	148.588	80.004	19.995	103.266	19.971	3.544	0.462
162.000	149.555	80.004	19.995	103.268	19.969	3.686	0.466
164.000	150.512	80.003	19.993	103.266	19.968	3.751	0.498
166.000	151.454	80.002	19.995	103.265	19.966	3.904	0.472
168.000	152.432	80.000	19.995	103.265	19.965	3.938	0.519
170.000	153.354	80.000	19.994	103.266	19.964	4.037	0.433
172.000	154.335	80.002	19.994	103.267	19.964	4.038	0.473
174.000	155.272	80.001	19.994	103.267	19.964	4.033	0.472
176.000	156.240	80.000	19.993	103.269	19.962	4.163	0.496
178.000	157.213	80.002	19.994	103.267	19.961	4.241	0.478
180.000	158.165	80.000	19.994	103.268	19.957	4.480	0.469
182.000	159.116	80.002	19.993	103.269	19.959	4.374	0.473
184.000	160.070	80.000	19.994	103.270	19.958	4.429	0.502
186.000	161.023	80.001	19.995	103.271	19.956	4.605	0.486
188.000	162.005	80.001	19.995	103.264	19.954	4.741	0.486
190.000	162.996	80.001	19.993	103.261	19.955	4.628	0.457
192.000	163.983	80.001	19.994	103.259	19.953	4.786	0.511
194.000	164.982	80.000	19.994	103.253	19.954	4.749	0.540
196.000	165.958	80.001	19.993	103.251	19.949	5.038	0.488
198.000	166.948	80.000	19.993	103.264	19.946	5.265	0.511
200.000	167.901	80.000	19.996	103.265	19.946	5.250	0.486
202.000	168.904	80.000	19.995	103.261	19.944	5.422	0.492
204.000	169.926	80.000	19.995	103.260	19.943	5.448	0.528
206.000	170.919	79.999	19.995	103.260	19.941	5.594	0.494
208.000	171.877	80.000	19.995	103.260	19.938	5.788	0.513
210.000	172.855	80.001	19.995	103.262	19.937	5.889	0.493
212.000	173.855	80.000	19.996	103.256	19.937	5.895	0.486
214.000	174.864	80.001	19.995	103.262	19.934	6.058	0.503
216.000	175.837	80.002	19.996	103.264	19.929	6.441	0.496
218.000	176.839	80.002	19.994	103.250	19.924	6.779	0.469
220.000	177.812	80.003	19.994	103.232	19.921	6.991	0.481
222.000	178.812	80.002	19.994	103.243	19.919	7.120	0.464
224.000	179.832	80.002	19.993	103.235	19.915	7.408	0.500
226.000	180.837	80.000	19.995	103.238	19.915	7.407	0.496
228.000	181.826	80.001	19.996	103.247	19.911	7.688	0.516
230.000	182.822	80.001	19.995	103.247	19.905	8.083	0.521
232.000	183.796	80.000	19.996	103.240	19.902	8.300	0.500
234.000	184.814	80.001	19.995	103.235	19.897	8.654	0.517
236.000	185.821	80.003	19.996	103.235	19.897	8.630	0.510
238.000	186.823	80.001	19.994	103.239	19.895	8.766	0.487
240.000	187.866	80.002	19.994	103.235	19.891	9.053	0.510
242.000	188.880	80.003	19.995	103.232	19.890	9.134	0.508
244.000	189.845	80.002	19.995	103.235	19.885	9.416	0.518
246.000	190.850	80.002	19.993	103.239	19.884	9.488	0.481
248.000	191.828	80.000	19.994	103.236	19.880	9.791	0.466
250.000	192.865	80.000	19.996	103.235	19.870	10.491	0.507
252.000	193.901	80.001	19.994	103.236	19.870	10.493	0.526
254.000	194.879	80.000	19.996	103.247	19.869	10.508	0.492
256.000	195.884	80.001	19.994	103.242	19.864	10.887	0.480
258.000	196.900	80.001	19.995	103.233	19.859	11.205	0.523
260.000	197.901	80.000	19.996	103.230	19.854	11.576	0.492
262.000	198.913	80.001	19.994	103.238	19.850	11.872	0.492
264.000	199.915	80.001	19.994	103.232	19.848	11.958	0.483
266.000	200.891	80.000	19.994	103.246	19.841	12.478	0.489
268.000	201.936	80.001	19.994	103.241	19.835	12.880	0.488
270.000	202.938	80.001	19.996	103.233	19.831	13.143	0.491
272.000	203.954	80.000	19.995	103.231	19.826	13.459	0.543
274.000	204.935	80.001	19.995	103.229	19.820	13.889	0.480
276.000	205.946	80.000	19.994	103.230	19.817	14.118	0.515
278.000	206.967	80.002	19.994	103.227	19.813	14.364	0.531
280.000	207.945	80.001	19.996	103.228	19.808	14.726	0.501
282.000	208.886	79.999	19.995	103.233	19.800	15.235	0.458
284.000	209.912	80.000	19.994	103.229	19.795	15.642	0.489
286.000	210.897	79.999	19.995	103.226	19.790	15.977	0.494
288.000	211.893	80.000	19.994	103.224	19.784	16.387	0.491
290.000	212.894	80.001	19.995	103.226	19.779	16.714	0.508
292.000	213.947	80.001	19.994	103.222	19.770	17.323	0.545
294.000	214.902	80.002	19.996	103.227	19.765	17.642	0.479
296.000	215.905	80.001	19.996	103.226	19.758	18.134	0.489
298.000	216.865	80.002	19.996	103.225	19.753	18.519	0.488
300.000	217.877	80.003	19.995	103.218	19.747	18.909	0.503
302.000	218.873	80.001	19.995	103.222	19.739	19.430	0.497
304.000	219.806	80.000	19.995	103.226	19.734	19.785	0.487
306.000	220.796	80.000	19.995	103.223	19.729	20.159	0.512
308.000	221.818	80.000	19.995	103.226	19.718	20.861	0.486
310.000	222.808	80.000	19.995	103.227	19.711	21.375	0.485
312.000	223.758	80.001	19.996	103.222	19.705	21.804	0.490
314.000	224.767	80.001	19.994	103.227	19.693	22.599	0.493
316.000	225.741	80.001	19.995	103.218	19.691	22.720	0.486
318.000	226.753	80.001	19.996	103.226	19.683	23.268	0.518
320.000	227.707	80.002	19.995	103.228	19.670	24.181	0.490
322.000	228.691	80.002	19.996	103.228	19.665	24.491	0.499
324.000	229.707	80.002	19.994	103.222	19.661	24.811	0.516
326.000	230.661	80.001	19.996	103.226	19.648	25.669	0.461
328.000	231.689	80.001	19.996	103.227	19.644	25.961	0.492
330.000	232.667	80.001	19.995	103.226	19.638	26.396	0.497
332.000	233.645	79.999	19.995	103.225	19.628	27.064	0.489
334.000	234.649	80.001	19.996	103.211	19.622	27.442	0.460
336.000	235.641	80.001	19.994	103.213	19.615	27.970	0.539
338.000	236.615	80.001	19.993	103.223	19.606	28.531	0.480
340.000	237.590	80.000	19.995	103.227	19.600	28.986	0.480
342.000	238.607	80.000	19.993	103.223	19.593	29.476	0.499
344.000	239.613	80.000	19.996	103.231	19.587	29.877	0.471
346.000	240.627	80.000	19.995	103.226	19.576	30.585	0.492
348.000	241.623	80.000	19.994	103.225	19.571	30.987	0.513
350.000	242.678	80.000	19.995	103.226	19.560	31.694	0.511
352.000	243.624	80.000	19.995	103.226	19.550	32.402	0.481
354.000	244.648	80.002	19.995	103.224	19.545	32.754	0.513
356.000	245.669	80.000	19.995	103.224	19.533	33.529	0.533
358.000	246.673	80.002	19.994	103.225	19.527	33.974	0.500
360.000	247.657	80.000	19.995	103.226	19.515	34.784	0.488
362.000	248.677	79.999	19.993	103.227	19.504	35.540	0.495
364.000	249.686	80.000	19.996	103.225	19.499	35.909	0.470
366.000	250.719	79.998	19.995	103.226	19.491	36.448	0.496
368.000	251.751	80.000	19.994	103.219	19.477	37.400	0.526
370.000	252.715	80.000	19.994	103.227	19.468	38.042	0.465
372.000	253.721	80.000	19.994	103.235	19.456	38.809	0.502
374.000	254.688	80.002	19.994	103.241	19.446	39.509	0.476
376.000	255.700	80.002	19.996	103.230	19.438	40.115	0.496
378.000	256.711	80.003	19.994	103.229	19.426	40.908	0.502
380.000	257.725	80.003	19.995	103.232	19.411	41.936	0.516
382.000	258.668	80.001	19.994	103.247	19.407	42.233	0.478
384.000	259.690	80.001	19.993	103.238	19.390	43.402	0.511
386.000	260.642	80.019	20.001	103.265	19.381	43.974	0.472
388.000	261.667	80.002	19.997	103.262	19.371	44.661	0.504
390.000	262.629	80.000	19.995	103.252	19.359	45.473	0.485
392.000	263.591	80.001	19.995	103.262	19.352	45.964	0.465
394.000	264.619	79.999	19.994	103.270	19.337	46.998	0.495
396.000	265.608	80.001	19.996	103.269	19.327	47.732	0.489
398.000	266.598	80.003	19.995	103.271	19.313	48.663	0.493
400.000	267.620	80.001	19.995	103.266	19.304	49.305	0.488
402.000	268.586	80.002	19.994	103.267	19.292	50.146	0.490
404.000	269.618	80.004	19.996	103.275	19.281	50.845	0.520
406.000	270.657	80.002	19.993	103.280	19.271	51.528	0.524
408.000	271.674	80.002	19.995	103.275	19.259	52.354	0.530
410.000	272.681	80.003	19.993	103.279	19.252	52.866	0.498
412.000	273.631	80.000	19.995	103.295	19.243	53.502	0.489
414.000	274.660	80.000	19.995	103.302	19.235	54.020	0.527
416.000	275.634	79.999	19.995	103.302	19.232	54.249	0.505
418.000	276.606	80.000	19.995	103.302	19.225	54.700	0.472
420.000	277.641	79.999	19.996	103.303	19.229	54.465	0.495
422.000	278.637	80.000	19.996	103.307	19.228	54.532	0.518
424.000	279.663	80.000	19.995	103.308	19.233	54.161	0.500
426.000	280.625	80.000	19.993	103.307	19.242	53.575	0.471
428.000	281.665	80.001	19.995	103.304	19.247	53.225	0.522
430.000	282.630	80.000	19.994	103.304	19.255	52.642	0.501
432.000	283.689	80.001	19.995	103.306	19.272	51.490	0.513
434.000	284.688	80.000	19.993	103.305	19.286	50.536	0.543
436.000	285.634	80.001	19.994	103.299	19.306	49.111	0.463
438.000	286.688	80.002	19.994	103.296	19.331	47.389	0.538
440.000	287.733	80.001	19.993	103.284	19.357	45.624	0.481
442.000	288.745	80.000	19.994	103.276	19.385	43.714	0.497
444.000	289.693	80.000	19.995	103.268	19.418	41.443	0.457
446.000	290.757	80.001	19.995	103.265	19.451	39.200	0.511
448.000	291.756	79.999	19.993	103.260	19.487	36.736	0.516
450.000	292.761	80.000	19.996	103.241	19.527	33.935	0.494
452.000	293.767	80.000	19.994	103.228	19.565	31.371	0.502
454.000	294.784	80.000	19.993	103.228	19.603	28.757	0.502
456.000	295.794	80.001	19.995	103.217	19.646	25.786	0.478
458.000	296.802	80.000	19.995	103.221	19.678	23.596	0.512
460.000	297.801	80.002	19.993	103.199	19.716	21.010	0.516
462.000	298.834	80.003	19.995	103.191	19.746	18.974	0.522
464.000	299.811	80.003	19.995	103.177	19.775	16.939	0.509
466.000	300.816	80.003	19.994	103.176	19.803	15.026	0.496
468.000	301.811	80.002	19.993	103.175	19.825	13.552	0.463
470.000	302.851	80.002	19.994	103.160	19.845	12.169	0.526
472.000	303.850	80.001	19.994	103.151	19.863	10.959	0.512
474.000	304.839	80.002	19.994	103.147	19.873	10.285	0.468
476.000	305.920	80.002	19.994	103.144	19.886	9.347	0.533
478.000	306.892	80.002	19.994	103.147	19.894	8.841	0.512
480.000	307.939	80.001	19.995	103.145	19.903	8.182	0.517
482.000	308.936	80.004	19.995	103.137	19.914	7.451	0.484
484.000	309.979	80.004	19.995	103.118	19.922	6.902	0.490
486.000	310.976	80.003	19.994	103.121	19.923	6.801	0.495
488.000	312.025	80.002	19.994	103.129	19.929	6.437	0.526
490.000	313.070	80.002	19.993	103.128	19.933	6.156	0.541
492.000	314.068	80.002	19.994	103.134	19.936	5.935	0.478
494.000	315.112	80.003	19.995	103.112	19.942	5.511	0.498
496.000	316.079	80.001	19.995	103.122	19.943	5.469	0.504
498.000	317.135	80.001	19.995	103.137	19.945	5.344	0.514
500.000	318.110	80.003	19.995	103.129	19.950	4.984	0.484
502.000	319.115	80.001	19.996	103.133	19.951	4.906	0.471
504.000	320.092	80.001	19.996	103.125	19.953	4.771	0.493
506.000	321.132	80.000	19.994	103.128	19.954	4.686	0.525
508.000	322.143	80.000	19.995	103.127	19.962	4.149	0.528
510.000	323.073	80.000	19.996	103.120	19.955	4.621	0.475
512.000	324.129	80.001	19.995	103.120	19.960	4.306	0.530
514.000	325.136	80.000	19.996	103.133	19.961	4.203	0.478
516.000	326.060	79.999	19.996	103.141	19.961	4.234	0.507
518.000	327.172	80.000	19.994	103.144	19.964	4.033	0.529
520.000	328.153	80.000	19.994	103.144	19.967	3.804	0.494
522.000	329.326	80.001	19.995	103.147	19.965	3.926	0.602
524.000	330.321	80.001	19.994	103.146	19.966	3.866	0.709
526.000	331.157	79.999	19.995	103.141	19.969	3.667	0.505
528.000	332.241	80.000	19.994	103.133	19.966	3.877	0.491
530.000	333.257	80.002	19.995	103.139	19.972	3.471	0.458
532.000	334.333	80.001	19.995	103.149	19.973	3.437	0.570
534.000	335.260	80.002	19.996	103.144	19.970	3.581	0.525
536.000	336.248	80.001	19.995	103.148	19.975	3.292	0.487
538.000	337.297	80.002	19.995	103.143	19.973	3.380	0.515
540.000	338.298	80.002	19.995	103.143	19.979	2.985	0.495
542.000	339.305	80.001	19.994	103.146	19.977	3.117	0.510
544.000	340.302	80.004	19.994	103.146	19.977	3.147	0.523
546.000	341.346	80.002	19.994	103.148	19.977	3.134	0.518
548.000	342.378	80.004	19.995	103.143	19.976	3.212	0.514
550.000	343.359	80.001	19.995	103.147	19.976	3.227	0.505
552.000	344.383	80.002	19.994	103.148	19.977	3.165	0.511
554.001	345.382	80.002	19.994	103.147	19.974	3.331	0.488
556.000	346.430	80.001	19.994	103.149	19.978	3.100	0.515
558.000	347.443	80.001	19.994	103.148	19.982	2.778	0.519
560.000	348.440	80.003	19.994	103.149	19.982	2.787	0.520
562.000	349.448	80.003	19.995	103.150	19.980	2.946	0.522
564.000	350.496	80.003	19.994	103.147	19.981	2.851	0.527
566.000	351.435	80.004	19.993	103.148	19.982	2.767	0.483
568.000	352.474	80.003	19.993	103.149	19.982	2.806	0.537
570.000	353.519	80.002	19.992	103.153	19.980	2.916	0.521
572.000	354.579	80.003	19.995	103.153	19.981	2.869	0.532
574.000	355.561	80.000	19.996	103.155	19.983	2.752	0.499
576.000	356.552	80.001	19.996	103.150	19.985	2.560	0.485
578.000	357.554	80.000	19.995	103.151	19.986	2.534	0.517
580.000	358.571	79.999	19.996	103.150	19.985	2.603	0.508
582.000	359.610	80.000	19.994	103.150	19.983	2.722	0.522
584.000	360.566	80.000	19.995	103.151	19.984	2.689	0.501
586.000	361.569	80.002	19.994	103.150	19.984	2.661	0.531
588.000	362.537	80.000	19.995	103.150	19.981	2.834	0.505
590.000	363.518	80.000	19.995	103.154	19.984	2.689	0.470
592.000	364.525	80.001	19.995	103.158	19.982	2.780	0.503
594.000	365.513	79.999	19.993	103.160	19.981	2.870	0.487
596.000	366.535	80.001	19.994	103.161	19.981	2.871	0.486
598.000	367.507	80.000	19.996	103.154	19.983	2.754	0.499
600.000	368.495	80.001	19.995	103.149	19.984	2.636	0.495
602.000	369.460	79.998	19.995	103.148	19.984	2.672	0.490
604.000	370.489	79.997	19.994	103.160	19.981	2.862	0.515
606.000	371.485	79.998	19.996	103.157	19.984	2.659	0.497
608.000	372.470	80.001	19.995	103.163	19.984	2.681	0.502
610.000	373.531	79.999	19.994	103.155	19.985	2.601	0.527
612.000	374.515	80.001	19.996	103.158	19.985	2.577	0.527
614.000	375.532	80.000	19.996	103.156	19.986	2.485	0.514
616.000	376.489	79.999	19.995	103.142	19.982	2.806	0.473
618.000	377.516	80.001	19.994	103.147	19.984	2.668	0.527
620.000	378.541	80.001	19.995	103.149	19.981	2.860	0.521
622.000	379.520	80.002	19.994	103.150	19.980	2.907	0.508
624.000	380.533	80.003	19.994	103.149	19.980	2.905	0.506
626.000	381.565	80.002	19.995	103.149	19.976	3.214	0.491
628.000	382.597	80.001	19.995	103.149	19.978	3.082	0.520
630.000	383.526	80.002	19.995	103.153	19.978	3.069	0.486
632.000	384.546	80.002	19.995	103.148	19.976	3.193	0.491
634.000	385.620	80.000	19.994	103.153	19.974	3.365	0.553
636.000	386.604	80.001	19.995	103.162	19.978	3.085	0.510
638.000	387.636	80.001	19.995	103.155	19.976	3.193	0.505
640.000	388.667	80.001	19.993	103.150	19.979	3.030	0.521
642.000	389.669	80.001	19.995	103.144	19.979	3.028	0.504
644.000	390.703	80.000	19.995	103.150	19.973	3.376	0.531
646.000	391.742	80.002	19.995	103.150	19.969	3.661	0.518
648.000	392.759	80.003	19.995	103.151	19.973	3.432	0.520
650.000	393.791	80.004	19.993	103.148	19.972	3.503	0.516
652.000	394.809	80.002	19.994	103.149	19.969	3.708	0.515
654.000	395.845	80.002	19.994	103.137	19.965	3.983	0.533
656.000	396.848	80.000	19.994	103.133	19.966	3.900	0.496
658.000	397.897	80.000	19.994	103.136	19.963	4.108	0.498
660.000	398.899	80.001	19.995	103.139	19.962	4.144	0.523
662.001	399.929	80.001	19.996	103.151	19.964	4.009	0.524
664.000	400.962	80.000	19.995	103.147	19.960	4.322	0.521
666.000	401.992	80.000	19.994	103.149	19.957	4.514	0.498
668.000	403.001	80.000	19.995	103.148	19.959	4.363	0.518
670.000	404.026	80.001	19.995	103.147	19.959	4.378	0.502
672.000	405.026	80.001	19.996	103.145	19.953	4.754	0.476
674.000	406.030	80.000	19.996	103.143	19.955	4.620	0.521
676.000	407.033	80.002	19.996	103.148	19.952	4.825	0.503
678.000	408.078	80.001	19.995	103.148	19.949	5.034	0.519
680.000	409.067	79.998	19.995	103.147	19.946	5.271	0.495
682.000	410.077	80.001	19.995	103.143	19.941	5.573	0.521
684.000	411.073	80.001	19.995	103.138	19.942	5.558	0.488
686.000	412.081	80.000	19.996	103.136	19.941	5.575	0.510
688.000	413.087	80.000	19.995	103.146	19.936	5.930	0.503
690.000	414.043	80.000	19.996	103.145	19.934	6.098	0.473
692.000	415.053	80.000	19.996	103.146	19.930	6.363	0.499
694.000	416.056	80.000	19.996	103.147	19.928	6.471	0.487
696.000	417.032	80.000	19.996	103.149	19.930	6.362	0.485
698.000	418.004	80.000	19.995	103.145	19.926	6.642	0.447
700.000	419.017	80.001	19.995	103.143	19.923	6.840	0.499
702.000	419.961	80.001	19.995	103.151	19.915	7.404	0.500
704.000	420.920	80.002	19.997	103.151	19.912	7.611	0.476
706.000	421.933	80.002	19.995	103.146	19.908	7.887	0.502
708.000	422.934	80.003	19.994	103.146	19.902	8.271	0.477
710.000	423.923	80.003	19.994	103.148	19.897	8.617	0.490
712.000	424.943	80.001	19.995	103.151	19.892	8.930	0.519
714.000	425.896	80.001	19.996	103.150	19.888	9.223	0.495
716.000	426.919	80.002	19.994	103.148	19.877	9.974	0.504
718.000	427.909	80.003	19.993	103.152	19.872	10.292	0.516
720.000	428.876	80.002	19.994	103.148	19.870	10.487	0.498
722.001	429.919	80.002	19.995	103.147	19.861	11.093	0.507
724.000	430.911	80.002	19.994	103.149	19.854	11.586	0.491
726.000	431.960	80.002	19.995	103.144	19.845	12.158	0.528
728.000	432.953	80.004	19.994	103.138	19.839	12.614	0.489
730.000	433.986	80.004	19.995	103.126	19.829	13.256	0.538
732.000	435.042	80.004	19.994	103.141	19.822	13.754	0.551
734.000	436.027	80.003	19.995	103.145	19.812	14.402	0.520
736.000	437.098	80.004	19.994	103.143	19.804	14.968	0.540
738.000	438.074	80.002	19.994	103.148	19.794	15.666	0.456
740.000	439.122	80.001	19.995	103.150	19.782	16.454	0.496
742.000	440.151	80.003	19.995	103.150	19.776	16.894	0.517
744.000	441.199	80.001	19.994	103.146	19.761	17.949	0.526
746.000	442.238	80.001	19.995	103.142	19.748	18.782	0.544
748.000	443.262	80.001	19.995	103.143	19.737	19.562	0.514
750.000	444.305	80.003	19.995	103.139	19.721	20.670	0.539
752.000	445.335	80.002	19.995	103.145	19.708	21.533	0.491
754.000	446.374	80.002	19.995	103.134	19.693	22.595	0.534
756.000	447.382	80.003	19.994	103.141	19.681	23.386	0.528
758.000	448.427	80.001	19.995	103.133	19.662	24.700	0.527
760.000	449.488	80.000	19.995	103.135	19.651	25.428	0.534
762.000	450.512	80.000	19.994	103.145	19.638	26.360	0.510
764.000	451.536	80.000	19.995	103.146	19.622	27.462	0.515
766.000	452.575	80.000	19.996	103.144	19.608	28.393	0.535
768.000	453.625	80.001	19.995	103.150	19.597	29.182	0.514
770.000	454.641	80.001	19.995	103.146	19.584	30.019	0.487
772.000	455.686	79.999	19.994	103.135	19.573	30.827	0.517
774.000	456.760	79.999	19.995	103.147	19.562	31.527	0.541
776.000	457.776	79.999	19.995	103.137	19.549	32.422	0.537
778.000	458.804	79.999	19.995	103.135	19.543	32.878	0.528
780.000	459.892	80.002	19.996	103.147	19.534	33.473	0.549
782.000	460.935	80.002	19.995	103.146	19.534	33.494	0.494
784.000	461.969	80.002	19.995	103.140	19.525	34.086	0.526
786.000	462.985	80.002	19.994	103.143	19.523	34.228	0.524
788.000	464.004	80.002	19.995	103.141	19.518	34.548	0.487
790.000	464.993	80.001	19.995	103.144	19.518	34.584	0.494
792.000	466.033	80.001	19.995	103.145	19.521	34.385	0.515
794.000	467.041	80.001	19.996	103.135	19.521	34.374	0.490
796.000	468.095	80.001	19.997	103.133	19.525	34.090	0.517
798.000	469.096	80.002	19.996	103.143	19.529	33.801	0.483
800.000	470.130	80.002	19.996	103.139	19.534	33.484	0.534
802.000	471.147	80.001	19.995	103.142	19.539	33.097	0.502
804.000	472.143	80.003	19.995	103.140	19.546	32.636	0.530
806.000	473.168	80.003	19.994	103.141	19.552	32.207	0.511
808.000	474.241	80.003	19.996	103.148	19.561	31.593	0.533
810.000	475.277	80.004	19.996	103.148	19.570	30.973	0.529
812.000	476.259	80.004	19.994	103.143	19.577	30.502	0.514
814.000	477.290	80.004	19.994	103.142	19.583	30.107	0.479
816.000	478.297	80.003	19.995	103.141	19.590	29.636	0.520
818.000	479.354	80.003	19.994	103.143	19.603	28.713	0.498
820.000	480.350	80.003	19.994	103.142	19.611	28.172	0.478
822.000	481.335	80.001	19.996	103.128	19.622	27.427	0.452
824.000	482.379	80.000	19.995	103.125	19.628	27.025	0.510
826.000	483.428	80.001	19.995	103.142	19.642	26.093	0.544
828.000	484.400	80.000	19.995	103.143	19.651	25.436	0.509
830.000	485.433	80.000	19.995	103.148	19.661	24.766	0.521
832.000	486.468	80.001	19.996	103.125	19.672	24.041	0.503
834.001	487.474	80.000	19.994	103.129	19.682	23.352	0.500
836.000	488.490	80.000	19.994	103.141	19.690	22.747	0.513
838.000	489.519	80.003	19.995	103.138	19.700	22.077	0.501
840.000	490.523	80.001	19.994	103.129	19.711	21.355	0.510
842.000	491.562	80.001	19.994	103.131	19.721	20.673	0.518
844.000	492.533	80.000	19.994	103.137	19.732	19.931	0.507
846.000	493.617	80.002	19.994	103.132	19.740	19.367	0.548
848.000	494.578	80.000	19.995	103.133	19.750	18.681	0.519
850.000	495.635	80.000	19.994	103.140	19.763	17.817	0.499
852.000	496.627	80.000	19.995	103.148	19.771	17.226	0.499
854.000	497.674	79.999	19.996	103.128	19.778	16.744	0.524
856.000	498.722	80.000	19.995	103.119	19.788	16.096	0.520
858.000	499.719	80.001	19.996	103.115	19.799	15.353	0.516
860.000	500.707	80.001	19.996	103.137	19.801	15.160	0.507
862.000	501.714	80.000	19.996	103.145	19.816	14.167	0.495
864.000	502.728	80.001	19.995	103.138	19.821	13.808	0.495
866.000	503.716	80.002	19.995	103.142	19.829	13.278	0.462
868.000	504.782	80.003	19.995	103.133	19.839	12.564	0.546
870.000	505.745	80.003	19.996	103.124	19.843	12.291	0.515
872.000	506.774	80.003	19.995	103.112	19.853	11.618	0.540
874.000	507.787	80.002	19.995	103.128	19.857	11.347	0.507
876.000	508.836	80.002	19.995	103.135	19.868	10.606	0.541
878.000	509.868	80.002	19.995	103.118	19.873	10.257	0.520
880.000	510.850	80.002	19.997	103.117	19.883	9.591	0.499
882.000	511.860	80.001	19.996	103.132	19.887	9.309	0.501
884.000	512.856	80.002	19.996	103.121	19.888	9.228	0.497
886.000	513.851	80.001	19.995	103.115	19.894	8.790	0.518
888.000	514.913	80.001	19.997	103.127	19.900	8.421	0.526
890.000	515.893	80.000	19.997	103.118	19.906	7.972	0.499
892.000	516.952	80.003	19.995	103.125	19.911	7.619	0.526
894.000	517.939	80.002	19.995	103.110	19.916	7.333	0.499
896.000	518.902	80.003	19.994	103.121	19.919	7.122	0.448
898.000	519.930	80.002	19.993	103.135	19.922	6.919	0.518
900.000	520.960	80.002	19.994	103.132	19.927	6.580	0.502
902.000	521.923	80.001	19.994	103.112	19.929	6.450	0.487
904.000	522.916	80.001	19.994	103.111	19.928	6.514	0.486
906.000	523.951	79.999	19.994	103.125	19.931	6.285	0.522
908.000	524.934	80.001	19.994	103.137	19.934	6.110	0.492
910.000	525.971	80.000	19.994	103.123	19.935	5.994	0.500
912.000	526.992	80.001	19.995	103.122	19.937	5.905	0.528
914.000	527.968	80.000	19.994	103.128	19.935	6.023	0.543
916.000	528.976	80.001	19.995	103.138	19.940	5.681	0.526
918.000	529.959	80.003	19.996	103.130	19.941	5.577	0.484
920.000	530.986	80.003	19.996	103.119	19.944	5.388	0.522
922.000	531.994	80.002	19.995	103.121	19.944	5.377	0.504
924.000	533.023	80.002	19.994	103.126	19.944	5.386	0.499
926.000	534.015	80.003	19.995	103.124	19.948	5.099	0.493
928.000	534.998	80.001	19.994	103.119	19.950	4.975	0.484
930.000	536.046	80.002	19.996	103.115	19.954	4.727	0.510
932.000	537.070	80.004	19.995	103.118	19.954	4.731	0.517
934.001	538.080	80.002	19.995	103.116	19.953	4.779	0.503
936.000	539.132	80.003	19.995	103.119	19.954	4.736	0.512
938.000	540.140	80.001	19.994	103.148	19.959	4.387	0.513
940.000	541.206	80.000	19.993	103.159	19.958	4.462	0.535
942.000	542.268	80.000	19.994	103.130	19.958	4.415	0.522
944.000	543.326	80.002	19.995	103.111	19.956	4.551	0.533
946.000	544.399	80.004	19.994	103.129	19.960	4.273	0.547
948.000	545.455	80.003	19.995	103.133	19.961	4.235	0.547
950.000	546.517	80.003	19.995	103.136	19.965	3.946	0.557
952.000	547.655	80.002	19.995	103.135	19.961	4.244	0.569
954.000	548.732	80.003	19.996	103.133	19.960	4.311	0.537
956.000	549.799	80.002	19.995	103.132	19.960	4.309	0.536
958.000	550.891	80.003	19.995	103.129	19.961	4.250	0.545
960.000	551.950	80.001	19.995	103.150	19.962	4.138	0.524
962.000	553.035	80.003	19.994	103.152	19.964	4.000	0.514
964.000	554.134	80.002	19.994	103.145	19.963	4.059	0.575
966.000	555.216	80.003	19.995	103.138	19.965	3.980	0.551
968.000	556.279	80.002	19.994	103.152	19.964	4.013	0.555
970.000	557.314	80.002	19.995	103.152	19.965	3.963	0.515
972.000	558.392	80.002	19.995	103.135	19.964	4.045	0.532
974.000	559.474	80.003	19.995	103.140	19.962	4.164	0.568
976.000	560.537	80.004	19.995	103.140	19.963	4.086	0.519
978.000	561.618	80.004	19.996	103.149	19.965	3.970	0.521
980.000	562.671	80.001	19.996	103.150	19.965	3.929	0.511
982.000	563.708	80.001	19.994	103.151	19.965	3.939	0.515
984.000	564.791	80.001	19.995	103.150	19.966	3.861	0.541
986.000	565.823	80.001	19.995	103.150	19.967	3.788	0.525
988.000	566.854	80.001	19.995	103.146	19.971	3.555	0.515
990.000	567.951	80.001	19.996	103.144	19.969	3.697	0.496
992.000	569.031	80.001	19.994	103.147	19.966	3.911	0.516
994.000	570.122	80.002	19.995	103.150	19.971	3.549	0.546
996.000	571.141	80.003	19.995	103.159	19.969	3.715	0.504
998.000	572.224	80.000	19.995	103.159	19.972	3.497	0.534
1000.000	573.335	80.000	19.994	103.156	19.971	3.573	0.568
1002.000	574.429	80.003	19.995	103.148	19.971	3.553	0.542
1004.000	575.561	80.002	19.994	103.147	19.972	3.505	0.565
1006.000	576.566	80.002	19.994	103.143	19.972	3.507	0.529
1008.000	577.610	80.001	19.994	103.141	19.970	3.583	0.525
1010.000	578.683	80.002	19.995	103.147	19.972	3.499	0.517
1012.000	579.740	80.001	19.995	103.147	19.971	3.559	0.519
1014.000	580.793	80.002	19.996	103.145	19.972	3.486	0.512
1016.000	581.865	80.001	19.995	103.152	19.972	3.469	0.538
1018.000	582.884	80.001	19.994	103.153	19.973	3.441	0.529
1020.000	583.942	80.001	19.994	103.147	19.972	3.452	0.558
1022.000	584.956	80.001	19.995	103.150	19.973	3.389	0.512
1024.000	585.992	80.002	19.996	103.145	19.976	3.210	0.515
1026.000	587.018	80.002	19.994	103.137	19.971	3.554	0.505
1028.000	588.011	80.002	19.994	103.148	19.977	3.111	0.518
1030.000	589.004	80.003	19.995	103.149	19.975	3.255	0.473
1032.001	590.022	80.002	19.995	103.146	19.978	3.044	0.504
1034.001	591.073	80.003	19.994	103.148	19.979	3.001	0.494
1036.000	592.091	80.002	19.994	103.140	19.981	2.887	0.519
1038.000	593.094	80.002	19.995	103.127	19.979	3.005	0.516
1040.001	594.131	80.001	19.995	103.141	19.982	2.780	0.508
1042.000	595.138	80.001	19.995	103.150	19.982	2.776	0.513
1044.000	596.160	80.001	19.995	103.138	19.981	2.830	0.510
1046.000	597.156	80.000	19.995	103.122	19.983	2.697	0.511
1048.001	598.187	80.001	19.995	103.123	19.984	2.658	0.517
1050.000	599.191	80.002	19.995	103.144	19.986	2.546	0.512
1052.000	600.216	80.003	19.995	103.142	19.982	2.820	0.539
1054.001	601.204	80.002	19.995	103.147	19.981	2.873	0.492
1056.000	602.220	80.003	19.994	103.133	19.986	2.520	0.479
1058.000	603.237	80.003	19.995	103.126	19.986	2.550	0.530
1060.000	604.223	80.003	19.995	103.132	19.985	2.584	0.489
1062.000	605.239	80.002	19.995	103.127	19.981	2.855	0.498
1064.000	606.283	80.001	19.994	103.135	19.983	2.718	0.535
1066.001	607.267	80.000	19.996	103.133	19.983	2.699	0.503
1068.000	608.295	80.000	19.995	103.116	19.984	2.636	0.512
1070.000	609.344	80.000	19.995	103.126	19.981	2.884	0.519
1072.001	610.292	80.001	19.997	103.120	19.982	2.811	0.505
1074.000	611.291	80.001	19.996	103.125	19.979	3.025	0.471
1076.000	612.287	80.001	19.995	103.122	19.980	2.909	0.484
1078.000	613.330	80.000	19.995	103.134	19.978	3.090	0.504
1080.000	614.369	80.001	19.996	103.119	19.979	2.964	0.537
1082.000	615.365	80.001	19.995	103.132	19.978	3.096	0.518
1084.000	616.343	80.001	19.994	103.123	19.978	3.036	0.468
1086.000	617.389	80.001	19.993	103.123	19.975	3.293	0.501
1088.000	618.398	80.001	19.994	103.119	19.981	2.851	0.494
1090.001	619.411	80.001	19.995	103.137	19.978	3.076	0.510
1092.000	620.421	80.001	19.995	103.126	19.977	3.130	0.504
1094.000	621.439	80.001	19.995	103.127	19.973	3.378	0.506
1096.000	622.446	80.001	19.995	103.127	19.976	3.229	0.468
1098.000	623.476	80.000	19.995	103.135	19.978	3.035	0.502
1100.001	624.459	80.000	19.996	103.152	19.979	3.011	0.502
1102.001	625.498	80.000	19.994	103.149	19.975	3.272	0.497
1104.000	626.476	80.001	19.995	103.151	19.977	3.158	0.472
1106.000	627.505	80.002	19.995	103.153	19.974	3.315	0.506
1108.000	628.524	80.002	19.994	103.150	19.977	3.139	0.493
1110.000	629.532	80.004	19.994	103.147	19.976	3.184	0.534
1112.001	630.541	80.002	19.994	103.151	19.979	2.992	0.522
1114.000	631.577	80.004	19.994	103.154	19.979	3.003	0.520
1116.000	632.589	80.003	19.993	103.152	19.977	3.154	0.496
1118.001	633.613	80.003	19.994	103.152	19.976	3.199	0.512
1120.000	634.667	80.003	19.995	103.151	19.977	3.115	0.501
1122.000	635.711	80.003	19.994	103.149	19.976	3.235	0.555
1124.000	636.738	80.003	19.994	103.152	19.978	3.088	0.526
1126.000	637.783	80.003	19.995	103.151	19.978	3.091	0.537
1128.000	638.818	80.003	19.994	103.151	19.974	3.358	0.518
1130.000	639.818	80.002	19.994	103.152	19.972	3.446	0.529
1132.001	640.844	80.004	19.995	103.153	19.974	3.336	0.547
1134.000	641.869	80.003	19.995	103.171	19.974	3.375	0.521
1136.000	642.920	80.005	19.995	103.158	19.975	3.284	0.529
1138.001	643.956	80.005	19.995	103.158	19.971	3.521	0.489
1140.000	644.986	80.005	19.995	103.173	19.973	3.418	0.510
1142.001	645.971	80.004	19.995	103.169	19.973	3.435	0.503
1144.000	646.980	80.004	19.995	103.176	19.971	3.560	0.488
1146.001	648.032	80.003	19.996	103.182	19.974	3.344	0.499
1148.001	649.057	80.003	19.995	103.184	19.970	3.627	0.517
1150.000	650.092	80.001	19.996	103.191	19.967	3.817	0.537
1152.000	651.090	80.002	19.995	103.189	19.968	3.781	0.507
1154.000	652.104	80.001	19.995	103.191	19.967	3.822	0.502
1156.001	653.147	79.999	19.995	103.191	19.966	3.911	0.516
1158.000	654.183	80.000	19.995	103.186	19.966	3.892	0.494
1160.000	655.259	80.000	19.995	103.189	19.964	4.041	0.523
1162.000	656.285	80.001	19.996	103.203	19.965	3.990	0.510
1164.000	657.280	80.001	19.996	103.216	19.965	3.927	0.481
1166.000	658.319	80.001	19.995	103.213	19.961	4.207	0.499
1168.000	659.331	80.001	19.996	103.208	19.959	4.388	0.499
1170.000	660.377	80.000	19.995	103.205	19.954	4.696	0.521
1172.001	661.388	80.001	19.995	103.207	19.958	4.442	0.520
1174.000	662.396	80.002	19.995	103.229	19.960	4.308	0.509
1176.001	663.394	80.001	19.994	103.230	19.963	4.084	0.509
1178.000	664.396	80.002	19.995	103.231	19.963	4.120	0.497
1180.000	665.397	80.001	19.994	103.246	19.963	4.109	0.488
1182.000	666.413	80.001	19.994	103.245	19.963	4.064	0.534
1184.000	667.430	80.001	19.996	103.254	19.957	4.486	0.519
1186.000	668.447	80.001	19.996	103.244	19.962	4.186	0.522
1188.000	669.477	80.004	19.994	103.254	19.959	4.391	0.536
1190.000	670.509	80.003	19.995	103.258	19.957	4.477	0.526
1192.000	671.552	80.004	19.995	103.256	19.958	4.468	0.564
1194.001	672.520	80.005	19.994	103.257	19.956	4.561	0.494
1196.001	673.525	80.003	19.995	103.266	19.952	4.886	0.500
1198.001	674.548	80.003	19.994	103.267	19.952	4.840	0.490
1200.001	675.577	80.002	19.995	103.264	19.952	4.865	0.513
1202.000	676.577	80.003	19.994	103.271	19.948	5.153	0.513
1204.000	677.590	80.004	19.994	103.277	19.947	5.195	0.502
1206.001	678.583	80.004	19.995	103.282	19.946	5.275	0.498
1208.000	679.539	80.003	19.994	103.289	19.946	5.256	0.461
1210.000	680.549	80.003	19.994	103.291	19.946	5.266	0.471
1212.000	681.524	80.002	19.993	103.287	19.947	5.191	0.475
1214.001	682.516	80.005	19.993	103.296	19.946	5.237	0.496
1216.001	683.527	80.004	19.993	103.301	19.943	5.477	0.483
1218.001	684.555	80.004	19.995	103.305	19.949	5.047	0.509
1220.000	685.545	80.005	19.995	103.303	19.949	5.058	0.507
1222.000	686.575	80.004	19.994	103.299	19.947	5.165	0.522
1224.000	687.548	80.003	19.994	103.299	19.951	4.891	0.521
1226.000	688.597	80.003	19.995	103.286	19.947	5.162	0.527
1228.000	689.592	80.001	19.995	103.285	19.949	5.091	0.505
1230.000	690.587	80.002	19.995	103.294	19.948	5.139	0.491
1232.000	691.627	80.001	19.996	103.297	19.946	5.233	0.515
1234.001	692.621	80.002	19.995	103.289	19.949	5.064	0.508
1236.001	693.614	80.000	19.996	103.274	19.948	5.131	0.507
1238.000	694.639	80.000	19.995	103.272	19.948	5.094	0.497
1240.000	695.712	80.003	19.994	103.274	19.948	5.106	0.537
1242.000	696.689	80.001	19.994	103.278	19.944	5.397	0.512
1244.000	697.696	80.002	19.995	103.278	19.949	5.066	0.512
1246.001	698.650	80.004	19.995	103.269	19.951	4.898	0.502
1248.001	699.712	80.001	19.995	103.262	19.951	4.906	0.538
1250.000	700.730	80.002	19.996	103.254	19.948	5.125	0.488
1252.000	701.764	80.001	19.996	103.239	19.952	4.860	0.526
1254.000	702.783	80.001	19.995	103.227	19.953	4.796	0.490
1256.000	703.761	80.001	19.996	103.223	19.955	4.676	0.482
1258.001	704.819	80.001	19.996	103.202	19.957	4.479	0.516
1260.000	705.844	80.002	19.995	103.203	19.959	4.338	0.500
1262.000	706.855	80.000	19.996	103.207	19.961	4.242	0.528
1264.000	707.856	80.002	19.996	103.198	19.959	4.350	0.506
1266.000	708.885	80.003	19.995	103.176	19.961	4.244	0.516
1268.000	709.910	80.003	19.993	103.181	19.967	3.849	0.535
1270.000	710.947	80.003	19.995	103.178	19.969	3.671	0.511
1272.000	711.969	80.004	19.995	103.156	19.966	3.891	0.494
1274.001	712.979	80.003	19.994	103.146	19.966	3.898	0.521
1276.000	714.014	80.004	19.994	103.142	19.969	3.682	0.514
1278.000	715.008	80.003	19.995	103.143	19.969	3.673	0.497
1280.000	716.042	80.003	19.995	103.125	19.970	3.630	0.492
1282.000	717.080	80.002	19.994	103.125	19.975	3.258	0.514
1284.000	718.126	80.003	19.994	103.123	19.974	3.362	0.537
1286.000	719.152	80.003	19.994	103.116	19.974	3.347	0.522
1288.000	720.117	80.003	19.994	103.117	19.973	3.412	0.504
1290.000	721.086	80.003	19.995	103.115	19.973	3.440	0.488
1292.000	722.133	80.002	19.994	103.127	19.975	3.267	0.500
1294.000	723.117	80.002	19.994	103.116	19.973	3.412	0.506
1296.001	724.122	80.003	19.994	103.113	19.973	3.420	0.505
1298.000	725.144	80.003	19.995	103.110	19.972	3.477	0.510
1300.000	726.145	80.005	19.995	103.112	19.973	3.434	0.514
1302.000	727.136	80.004	19.994	103.113	19.973	3.397	0.492
1304.001	728.155	80.003	19.994	103.118	19.974	3.365	0.512
1306.000	729.155	80.004	19.994	103.116	19.973	3.433	0.507
1308.000	730.158	80.003	19.993	103.112	19.973	3.403	0.497
1310.000	731.157	80.003	19.993	103.113	19.970	3.593	0.508
1312.001	732.159	80.003	19.994	103.112	19.968	3.771	0.483
1314.000	733.186	80.002	19.995	103.111	19.972	3.501	0.520
1316.000	734.169	80.003	19.995	103.111	19.972	3.488	0.534
1318.000	735.145	80.003	19.995	103.109	19.972	3.462	0.515
1320.000	736.122	80.003	19.995	103.108	19.976	3.220	0.502
1322.000	737.107	80.002	19.995	103.107	19.968	3.747	0.498
1324.000	738.117	80.003	19.994	103.107	19.972	3.505	0.476
1326.000	739.142	80.002	19.995	103.109	19.971	3.567	0.531
1328.000	740.117	80.002	19.996	103.110	19.969	3.704	0.481
1330.000	741.154	80.002	19.995	103.107	19.972	3.498	0.486
1332.000	742.169	80.003	19.995	103.115	19.971	3.529	0.527
1334.000	743.165	80.001	19.996	103.113	19.975	3.276	0.512
1335.000	743.661	80.003	19.994	103.108	19.973	3.440	0.501