File: 01_Data/Vinyl_Plan_Flooring/MCC/Vinyl_Plan_Flooring_MCC_30K_min_211111_R3.txt
Sample ID:	C:\MCC\MCC Cal\Test\Vinyl_Plan_Flooring_MCC_30K_min_211111_R3.txt
Sample Weight (mg):	4.68
Heating Rate (C/s):	0.5
Combustor Temp (C):	900
N2 Flow Rate (cc/min):	80
O2 Flow Rate (cc/min):	20
Calibration File:	C:\MCC\MCC Cal\Coeff1 JN10440_30_210304.txt.txt
T Correction Coefficients:	0	1.024463	0
Time Shift (s):	14
*
Time (s)	Temperature (C)	N2 flow rate (cc/min)	O2 flow rate (cc/min)	Flow Rate (cc/min)	Oxygen (%)	HRR (W/g)	Heating rate (C/s)
-0.001	106.980	80.002	19.998	103.010	20.092	-0.084	0.019
2.000	106.948	80.002	19.996	103.019	20.091	0.019	-0.025
4.000	106.974	80.001	19.996	102.991	20.090	0.043	0.029
6.000	106.966	80.002	19.997	102.977	20.091	-0.017	0.002
8.000	106.959	80.001	19.996	103.003	20.091	0.009	0.004
10.000	106.968	80.002	19.995	103.022	20.091	0.006	-0.021
12.000	107.015	80.001	19.995	103.025	20.087	0.279	0.034
14.000	106.998	80.001	19.996	103.026	20.088	0.228	-0.000
16.000	107.027	80.001	19.995	103.027	20.087	0.249	0.045
18.000	107.013	80.001	19.995	103.042	20.087	0.297	0.025
20.000	107.048	80.000	19.994	103.052	20.083	0.539	0.031
22.000	107.059	80.001	19.995	103.066	20.083	0.559	0.019
24.000	107.121	80.003	19.994	103.065	20.083	0.574	0.021
26.000	107.147	80.001	19.995	103.048	20.084	0.490	0.011
28.000	107.209	80.001	19.995	103.066	20.082	0.621	-0.000
30.000	107.254	80.001	19.995	103.078	20.080	0.747	0.025
32.000	107.359	80.001	19.994	103.088	20.079	0.826	0.043
33.999	107.412	80.001	19.995	103.105	20.076	1.065	0.042
35.999	107.550	80.001	19.995	103.151	20.066	1.732	0.058
37.999	107.698	80.002	19.995	103.188	20.062	2.035	0.070
40.000	107.874	80.001	19.996	103.190	20.057	2.378	0.129
41.999	108.060	80.000	19.994	103.193	20.055	2.507	0.122
44.000	108.276	80.001	19.995	103.194	20.055	2.468	0.125
45.999	108.526	80.001	19.996	103.216	20.055	2.514	0.134
48.000	108.797	80.001	19.994	103.228	20.047	3.003	0.146
49.999	109.109	80.003	19.994	103.229	20.049	2.888	0.133
51.999	109.445	80.003	19.994	103.227	20.044	3.274	0.190
54.000	109.769	80.003	19.994	103.229	20.048	2.962	0.173
55.999	110.181	80.004	19.996	103.248	20.046	3.083	0.189
57.999	110.574	80.005	19.994	103.262	20.046	3.111	0.173
60.000	111.115	80.003	19.995	103.258	20.040	3.490	0.250
62.000	111.509	80.002	19.996	103.258	20.042	3.381	0.205
63.999	112.026	80.003	19.995	103.260	20.041	3.445	0.266
65.999	112.518	80.004	19.996	103.259	20.042	3.372	0.253
67.999	113.076	80.003	19.995	103.242	20.038	3.632	0.249
70.000	113.622	80.004	19.996	103.255	20.043	3.338	0.294
71.999	114.224	80.003	19.995	103.260	20.041	3.427	0.271
73.999	114.815	80.005	19.995	103.262	20.037	3.698	0.352
75.999	115.454	80.004	19.995	103.273	20.037	3.734	0.332
77.999	116.068	80.004	19.995	103.271	20.039	3.588	0.315
79.999	116.731	80.004	19.995	103.264	20.037	3.743	0.310
81.999	117.399	80.003	19.995	103.280	20.036	3.807	0.359
83.999	118.135	80.002	19.995	103.288	20.037	3.726	0.346
85.999	118.807	80.002	19.996	103.292	20.036	3.786	0.340
87.999	119.557	80.001	19.996	103.286	20.039	3.599	0.359
89.999	120.310	80.002	19.996	103.284	20.037	3.726	0.401
91.999	121.064	80.001	19.996	103.278	20.039	3.556	0.379
93.999	121.829	80.002	19.996	103.270	20.037	3.702	0.373
96.000	122.611	80.002	19.996	103.274	20.037	3.757	0.413
97.999	123.408	80.002	19.997	103.270	20.039	3.618	0.423
99.999	124.244	80.002	19.997	103.275	20.038	3.638	0.402
101.999	125.073	80.002	19.996	103.279	20.034	3.900	0.400
103.999	125.897	80.002	19.996	103.236	20.037	3.747	0.426
106.001	126.735	80.002	19.996	103.289	20.038	3.635	0.418
107.999	127.553	80.001	19.995	103.312	20.034	3.903	0.377
109.999	128.432	80.000	19.995	103.271	20.034	3.907	0.414
111.999	129.328	80.001	19.994	103.270	20.034	3.914	0.441
113.999	130.165	80.002	19.994	103.269	20.032	4.073	0.409
115.999	131.034	80.000	19.996	103.291	20.033	4.007	0.415
117.999	131.954	80.001	19.996	103.296	20.036	3.797	0.435
119.999	132.853	80.001	19.994	103.297	20.034	3.904	0.473
122.000	133.718	80.001	19.995	103.289	20.035	3.874	0.431
123.999	134.620	80.001	19.995	103.272	20.036	3.811	0.430
125.999	135.513	80.003	19.996	103.281	20.034	3.951	0.491
127.999	136.448	80.002	19.995	103.273	20.031	4.168	0.444
130.000	137.373	80.003	19.994	103.265	20.029	4.294	0.469
132.000	138.290	80.002	19.996	103.268	20.031	4.151	0.433
134.000	139.234	80.002	19.995	103.286	20.032	4.081	0.497
136.000	140.145	80.002	19.995	103.278	20.026	4.509	0.473
138.000	141.090	80.004	19.993	103.262	20.025	4.539	0.485
140.000	142.049	80.002	19.994	103.256	20.027	4.380	0.468
142.000	143.009	80.004	19.995	103.269	20.025	4.542	0.493
144.000	143.927	80.002	19.994	103.269	20.026	4.478	0.485
146.000	144.909	80.003	19.995	103.223	20.026	4.468	0.481
148.000	145.864	80.002	19.995	103.302	20.026	4.513	0.491
150.000	146.772	80.001	19.994	103.283	20.024	4.604	0.464
152.000	147.771	80.002	19.996	103.263	20.024	4.645	0.501
154.000	148.739	80.001	19.995	103.263	20.026	4.514	0.484
156.000	149.694	80.004	19.995	103.259	20.023	4.667	0.504
158.000	150.613	80.003	19.995	103.265	20.025	4.573	0.480
160.000	151.611	80.003	19.994	103.265	20.023	4.690	0.481
162.000	152.560	80.004	19.996	103.265	20.020	4.881	0.463
164.000	153.533	80.003	19.996	103.255	20.023	4.715	0.489
166.000	154.449	80.003	19.994	103.249	20.021	4.842	0.466
168.000	155.424	80.001	19.996	103.264	20.019	4.934	0.462
170.000	156.385	80.001	19.995	103.261	20.018	5.038	0.485
172.000	157.341	80.000	19.996	103.259	20.017	5.080	0.496
174.000	158.305	79.999	19.996	103.258	20.012	5.434	0.453
176.000	159.265	79.998	19.996	103.264	20.012	5.443	0.517
178.000	160.235	80.001	19.997	103.254	20.008	5.697	0.514
180.000	161.247	80.000	19.995	103.264	20.008	5.690	0.476
182.000	162.185	79.999	19.996	103.253	20.006	5.883	0.440
184.000	163.170	80.000	19.997	103.258	20.003	6.091	0.474
186.000	164.154	80.000	19.997	103.260	20.002	6.145	0.474
188.000	165.186	80.000	19.995	103.245	20.002	6.104	0.519
190.000	166.134	80.000	19.996	103.254	20.003	6.081	0.462
192.000	167.096	80.001	19.997	103.260	20.000	6.280	0.496
194.000	168.098	80.003	19.995	103.260	19.996	6.546	0.476
196.000	169.079	79.998	19.996	103.258	19.993	6.778	0.497
198.000	170.084	79.999	19.996	103.250	19.992	6.836	0.492
200.000	171.064	80.000	19.995	103.251	19.991	6.862	0.494
202.000	172.071	80.000	19.995	103.248	19.990	6.941	0.513
204.000	173.071	80.000	19.995	103.256	19.989	7.059	0.508
206.000	174.046	80.001	19.994	103.240	19.985	7.280	0.495
208.000	175.031	80.001	19.995	103.252	19.988	7.127	0.521
210.000	175.968	80.001	19.994	103.234	19.981	7.564	0.492
212.000	177.010	80.000	19.996	103.243	19.981	7.588	0.508
214.000	178.028	80.003	19.995	103.246	19.977	7.824	0.525
216.000	179.025	80.001	19.995	103.229	19.974	8.044	0.501
218.000	179.988	80.003	19.994	103.225	19.973	8.129	0.520
220.000	180.964	80.002	19.995	103.231	19.970	8.337	0.478
222.000	181.977	80.002	19.995	103.235	19.967	8.573	0.502
224.000	182.986	80.002	19.995	103.232	19.964	8.749	0.479
226.000	183.965	80.001	19.994	103.228	19.960	8.996	0.475
228.000	184.941	80.001	19.995	103.228	19.952	9.591	0.511
230.000	185.931	80.001	19.996	103.228	19.952	9.581	0.490
232.000	186.948	80.002	19.994	103.230	19.951	9.670	0.515
234.000	187.924	80.003	19.992	103.227	19.946	9.971	0.488
236.000	188.876	80.003	19.993	103.229	19.941	10.363	0.491
238.000	189.876	80.004	19.994	103.230	19.939	10.452	0.489
240.000	190.877	80.003	19.993	103.234	19.935	10.717	0.513
242.000	191.828	80.004	19.994	103.236	19.932	10.981	0.453
244.000	192.820	80.004	19.994	103.226	19.929	11.145	0.511
246.000	193.785	80.003	19.995	103.228	19.922	11.654	0.487
248.000	194.791	80.002	19.996	103.230	19.920	11.764	0.472
250.000	195.761	80.003	19.996	103.224	19.919	11.870	0.491
252.000	196.735	80.000	19.997	103.234	19.913	12.260	0.487
254.000	197.728	80.002	19.995	103.227	19.907	12.686	0.493
256.000	198.738	80.001	19.995	103.226	19.905	12.788	0.521
258.000	199.686	80.001	19.995	103.222	19.898	13.263	0.480
260.000	200.659	80.001	19.994	103.223	19.898	13.319	0.477
262.000	201.677	80.001	19.996	103.230	19.892	13.673	0.530
264.000	202.676	80.001	19.995	103.226	19.887	14.079	0.515
266.000	203.641	80.004	19.994	103.225	19.881	14.434	0.464
268.000	204.653	80.002	19.995	103.230	19.876	14.834	0.489
270.000	205.691	80.000	19.995	103.225	19.869	15.253	0.522
272.000	206.666	80.002	19.995	103.225	19.858	16.069	0.520
274.000	207.654	80.002	19.995	103.225	19.852	16.462	0.501
276.000	208.677	80.002	19.995	103.223	19.851	16.547	0.505
278.000	209.663	80.001	19.996	103.220	19.846	16.838	0.492
280.000	210.657	80.001	19.996	103.225	19.837	17.494	0.500
282.000	211.649	80.000	19.995	103.227	19.830	17.943	0.508
284.000	212.608	80.001	19.995	103.232	19.822	18.510	0.497
286.000	213.603	79.999	19.996	103.225	19.817	18.837	0.499
288.000	214.605	79.999	19.997	103.228	19.812	19.209	0.492
290.000	215.593	80.000	19.996	103.222	19.803	19.860	0.490
292.000	216.609	80.000	19.996	103.227	19.797	20.243	0.514
294.000	217.606	80.003	19.994	103.227	19.790	20.705	0.500
296.000	218.570	80.004	19.995	103.226	19.784	21.122	0.466
298.000	219.548	80.002	19.994	103.223	19.777	21.600	0.494
300.000	220.537	80.003	19.995	103.225	19.770	22.129	0.500
302.000	221.559	80.002	19.994	103.223	19.764	22.500	0.506
304.000	222.530	80.000	19.996	103.226	19.757	22.994	0.494
306.000	223.538	80.002	19.995	103.227	19.748	23.586	0.488
308.000	224.503	80.003	19.995	103.228	19.740	24.175	0.480
310.000	225.499	80.003	19.993	103.229	19.734	24.604	0.488
312.000	226.529	80.003	19.996	103.225	19.729	24.933	0.520
314.000	227.515	80.002	19.996	103.225	19.722	25.413	0.489
316.000	228.517	80.003	19.996	103.218	19.713	26.049	0.499
318.000	229.527	80.006	19.995	103.222	19.708	26.343	0.517
320.000	230.530	80.004	19.994	103.221	19.700	26.917	0.510
322.000	231.548	80.002	19.995	103.223	19.693	27.409	0.490
324.000	232.542	80.004	19.994	103.221	19.686	27.864	0.511
326.000	233.506	80.005	19.994	103.222	19.681	28.254	0.482
328.000	234.511	80.004	19.995	103.220	19.670	28.952	0.478
330.000	235.500	80.005	19.995	103.218	19.660	29.649	0.490
332.000	236.510	80.005	19.995	103.220	19.656	29.936	0.490
334.000	237.471	80.002	19.996	103.222	19.646	30.664	0.477
336.000	238.516	80.003	19.995	103.223	19.638	31.154	0.521
338.000	239.458	80.001	19.995	103.222	19.630	31.721	0.489
340.000	240.454	80.002	19.996	103.226	19.623	32.192	0.491
342.000	241.441	80.000	19.994	103.210	19.611	33.014	0.493
344.000	242.372	80.002	19.994	103.221	19.604	33.522	0.466
346.000	243.422	80.002	19.996	103.226	19.598	33.949	0.505
348.000	244.370	80.001	19.995	103.222	19.589	34.540	0.496
350.000	245.380	80.001	19.996	103.226	19.580	35.155	0.512
352.000	246.385	80.003	19.996	103.226	19.574	35.600	0.517
354.000	247.363	80.001	19.996	103.227	19.565	36.190	0.496
356.000	248.309	80.002	19.996	103.229	19.555	36.876	0.483
358.000	249.351	80.002	19.995	103.230	19.544	37.642	0.500
360.000	250.376	80.003	19.994	103.236	19.536	38.171	0.496
362.000	251.352	80.001	19.995	103.226	19.523	39.074	0.498
364.000	252.360	79.999	19.996	103.227	19.516	39.607	0.527
366.000	253.332	80.002	19.994	103.239	19.506	40.291	0.479
368.000	254.323	80.002	19.995	103.232	19.494	41.123	0.499
370.000	255.351	80.001	19.995	103.229	19.482	41.888	0.525
372.000	256.329	80.000	19.995	103.236	19.473	42.525	0.484
374.000	257.323	80.000	19.997	103.239	19.462	43.311	0.524
376.000	258.352	80.001	19.996	103.225	19.447	44.327	0.506
378.000	259.341	80.003	19.996	103.223	19.437	45.001	0.500
380.000	260.338	80.002	19.996	103.229	19.425	45.850	0.521
382.000	261.254	80.004	19.997	103.234	19.413	46.708	0.453
384.000	262.274	80.002	19.996	103.242	19.404	47.309	0.494
386.000	263.259	80.003	19.995	103.233	19.389	48.310	0.473
388.000	264.286	80.001	19.995	103.240	19.378	49.109	0.507
390.000	265.265	80.003	19.994	103.253	19.365	50.015	0.486
392.000	266.295	80.001	19.994	103.261	19.351	50.975	0.552
394.000	267.255	80.003	19.995	103.263	19.339	51.765	0.506
396.000	268.271	80.004	19.995	103.264	19.329	52.479	0.495
398.000	269.272	80.000	19.995	103.271	19.317	53.286	0.490
400.000	270.251	80.003	19.995	103.267	19.308	53.892	0.498
402.000	271.315	80.003	19.993	103.273	19.297	54.675	0.512
404.000	272.312	80.004	19.994	103.289	19.289	55.226	0.484
406.000	273.285	80.004	19.995	103.287	19.283	55.664	0.470
408.000	274.291	80.004	19.995	103.287	19.275	56.224	0.523
410.000	275.270	80.004	19.994	103.292	19.268	56.692	0.500
412.000	276.281	80.002	19.995	103.278	19.268	56.692	0.513
414.000	277.259	80.002	19.995	103.291	19.269	56.613	0.471
416.000	278.274	80.003	19.995	103.298	19.270	56.523	0.538
418.000	279.302	80.000	19.995	103.291	19.272	56.420	0.508
420.000	280.278	80.002	19.995	103.275	19.278	56.013	0.488
422.000	281.254	80.002	19.995	103.273	19.290	55.174	0.515
424.000	282.220	80.002	19.994	103.283	19.302	54.349	0.525
426.000	283.216	80.002	19.993	103.284	19.318	53.258	0.520
428.000	284.306	80.001	19.994	103.278	19.335	52.061	0.535
430.000	285.241	80.000	19.993	103.285	19.358	50.498	0.476
432.000	286.219	80.001	19.994	103.282	19.384	48.690	0.489
434.000	287.240	80.003	19.994	103.270	19.410	46.865	0.506
436.000	288.248	80.001	19.996	103.269	19.446	44.407	0.502
438.000	289.255	80.000	19.994	103.265	19.478	42.168	0.522
440.000	290.207	80.001	19.994	103.266	19.516	39.569	0.463
442.000	291.227	80.000	19.995	103.263	19.554	36.950	0.488
444.000	292.263	80.001	19.996	103.263	19.593	34.304	0.504
446.000	293.271	80.001	19.995	103.256	19.634	31.455	0.501
448.000	294.223	80.002	19.995	103.228	19.673	28.778	0.464
450.000	295.260	80.002	19.995	103.232	19.708	26.346	0.518
452.000	296.290	80.003	19.994	103.228	19.749	23.511	0.533
454.000	297.282	80.002	19.997	103.225	19.779	21.499	0.506
456.000	298.289	80.002	19.995	103.220	19.811	19.246	0.496
458.000	299.268	80.002	19.996	103.200	19.836	17.542	0.489
460.000	300.286	80.002	19.995	103.188	19.860	15.873	0.506
462.000	301.293	80.002	19.994	103.187	19.880	14.515	0.501
464.000	302.309	80.004	19.996	103.186	19.900	13.139	0.494
466.000	303.371	80.004	19.995	103.185	19.917	11.952	0.539
468.000	304.298	80.003	19.996	103.179	19.932	10.948	0.500
470.000	305.310	80.002	19.997	103.171	19.940	10.363	0.499
472.000	306.323	80.002	19.996	103.160	19.950	9.737	0.477
474.000	307.340	80.002	19.995	103.151	19.961	8.967	0.522
476.000	308.363	80.002	19.996	103.158	19.966	8.633	0.490
478.000	309.355	80.002	19.995	103.152	19.972	8.173	0.502
480.000	310.399	80.002	19.995	103.142	19.975	7.963	0.492
482.000	311.416	80.002	19.993	103.143	19.983	7.428	0.508
484.000	312.455	80.003	19.995	103.151	19.986	7.217	0.521
486.000	313.454	80.005	19.994	103.148	19.991	6.910	0.489
488.000	314.503	80.003	19.996	103.143	19.990	6.986	0.541
490.000	315.484	80.006	19.995	103.149	19.993	6.728	0.498
492.000	316.524	80.005	19.994	103.139	20.000	6.293	0.514
494.000	317.502	80.003	19.994	103.143	19.998	6.371	0.469
496.000	318.526	80.003	19.994	103.150	20.000	6.289	0.516
498.000	319.513	80.002	19.994	103.150	20.000	6.244	0.513
500.000	320.533	80.002	19.995	103.137	20.004	5.987	0.505
502.000	321.513	80.002	19.995	103.143	19.999	6.322	0.472
504.000	322.573	80.002	19.994	103.151	20.005	5.918	0.513
506.000	323.549	80.003	19.994	103.150	20.006	5.823	0.489
508.000	324.533	80.002	19.995	103.143	20.008	5.692	0.493
510.000	325.556	80.003	19.996	103.147	20.011	5.533	0.515
512.000	326.562	80.003	19.995	103.146	20.013	5.346	0.488
514.000	327.535	80.002	19.995	103.149	20.013	5.374	0.491
516.000	328.514	80.002	19.996	103.148	20.013	5.359	0.488
518.000	329.509	80.003	19.994	103.148	20.015	5.215	0.513
520.000	330.519	80.003	19.995	103.149	20.016	5.136	0.491
522.000	331.506	80.003	19.994	103.148	20.018	5.056	0.492
524.000	332.520	80.004	19.995	103.144	20.017	5.078	0.502
526.000	333.516	80.002	19.995	103.149	20.019	4.940	0.493
528.000	334.550	80.001	19.995	103.147	20.021	4.811	0.517
530.000	335.495	80.002	19.995	103.145	20.021	4.801	0.497
532.000	336.467	80.002	19.994	103.145	20.023	4.710	0.473
534.000	337.495	80.001	19.995	103.145	20.023	4.672	0.515
536.000	338.484	80.002	19.995	103.156	20.024	4.627	0.503
538.000	339.488	80.001	19.996	103.156	20.025	4.532	0.474
540.000	340.477	80.002	19.995	103.149	20.025	4.532	0.496
542.000	341.465	80.002	19.996	103.148	20.025	4.513	0.465
544.000	342.471	80.003	19.995	103.149	20.026	4.457	0.479
546.000	343.450	80.003	19.995	103.153	20.026	4.459	0.495
548.000	344.436	80.002	19.995	103.153	20.029	4.261	0.504
550.000	345.409	80.002	19.996	103.150	20.026	4.508	0.493
552.000	346.386	80.001	19.995	103.152	20.027	4.423	0.504
554.000	347.411	80.002	19.996	103.149	20.027	4.408	0.493
556.000	348.378	80.002	19.995	103.150	20.027	4.393	0.500
558.000	349.386	80.002	19.994	103.150	20.026	4.508	0.480
560.000	350.396	80.001	19.995	103.151	20.031	4.120	0.531
562.000	351.434	80.001	19.995	103.151	20.027	4.422	0.524
564.000	352.437	80.003	19.995	103.152	20.027	4.416	0.496
566.000	353.462	80.002	19.996	103.151	20.024	4.592	0.523
568.000	354.448	80.003	19.995	103.150	20.026	4.467	0.458
570.000	355.488	80.004	19.994	103.153	20.026	4.488	0.506
572.000	356.473	80.005	19.994	103.155	20.029	4.257	0.488
574.000	357.513	80.004	19.995	103.156	20.029	4.300	0.490
576.000	358.544	80.003	19.993	103.152	20.032	4.087	0.485
578.000	359.528	80.002	19.995	103.159	20.028	4.324	0.493
580.000	360.634	80.001	19.995	103.158	20.031	4.103	0.525
582.000	361.644	80.003	19.995	103.164	20.031	4.164	0.518
584.000	362.660	80.001	19.995	103.159	20.033	3.999	0.515
586.000	363.675	80.002	19.995	103.152	20.029	4.304	0.514
588.000	364.738	80.001	19.995	103.151	20.033	3.995	0.467
590.000	365.785	80.000	19.995	103.153	20.035	3.864	0.523
592.000	366.770	80.000	19.996	103.160	20.036	3.781	0.519
594.000	367.848	80.000	19.994	103.156	20.032	4.043	0.507
596.000	368.873	80.002	19.996	103.162	20.034	3.961	0.515
598.000	369.923	80.002	19.995	103.149	20.032	4.064	0.547
600.000	370.951	80.000	19.995	103.152	20.034	3.903	0.569
602.000	371.901	80.002	19.995	103.148	20.028	4.324	0.495
604.000	372.840	80.000	19.994	103.148	20.029	4.292	0.373
606.000	373.957	80.002	19.995	103.150	20.029	4.289	0.275
608.000	375.070	80.002	19.996	103.147	20.028	4.364	0.491
610.000	375.997	80.002	19.995	103.151	20.028	4.360	0.404
612.000	377.104	80.001	19.994	103.152	20.026	4.470	0.466
614.000	378.139	80.002	19.993	103.154	20.026	4.493	0.490
616.000	379.199	80.003	19.995	103.155	20.026	4.504	0.509
618.000	380.232	80.002	19.995	103.157	20.026	4.493	0.566
620.000	381.212	80.002	19.994	103.158	20.020	4.897	0.490
622.000	382.219	80.003	19.995	103.155	20.024	4.614	0.518
624.000	383.263	80.003	19.994	103.153	20.022	4.726	0.493
626.000	384.255	80.002	19.995	103.154	20.024	4.648	0.526
628.000	385.255	80.003	19.994	103.154	20.025	4.577	0.477
630.000	386.297	80.002	19.995	103.150	20.023	4.696	0.504
632.000	387.258	80.002	19.996	103.151	20.025	4.550	0.490
634.000	388.332	80.002	19.995	103.148	20.020	4.874	0.519
636.000	389.300	80.003	19.996	103.148	20.018	5.033	0.488
638.000	390.329	80.003	19.996	103.146	20.017	5.129	0.502
640.000	391.310	80.002	19.995	103.147	20.019	4.992	0.520
642.000	392.332	80.003	19.995	103.145	20.021	4.792	0.530
644.000	393.368	80.004	19.994	103.143	20.016	5.179	0.534
646.000	394.394	80.005	19.994	103.146	20.018	5.027	0.529
648.000	395.386	80.004	19.996	103.147	20.017	5.078	0.491
650.000	396.367	80.004	19.995	103.147	20.018	5.050	0.516
652.000	397.294	80.005	19.995	103.145	20.015	5.250	0.476
654.000	398.334	80.003	19.996	103.144	20.018	5.024	0.522
656.000	399.317	80.003	19.996	103.144	20.011	5.478	0.502
658.000	400.287	80.003	19.996	103.144	20.013	5.389	0.492
660.000	401.256	80.001	19.995	103.143	20.010	5.587	0.499
662.000	402.257	80.002	19.996	103.147	20.007	5.788	0.500
664.000	403.242	80.003	19.997	103.148	20.007	5.785	0.507
666.000	404.273	80.002	19.996	103.159	20.003	6.069	0.499
668.000	405.233	80.001	19.996	103.164	20.000	6.287	0.493
670.000	406.236	80.001	19.996	103.155	19.998	6.394	0.524
672.000	407.261	80.002	19.995	103.152	20.000	6.250	0.504
674.000	408.266	80.001	19.996	103.159	19.995	6.603	0.495
676.000	409.341	80.002	19.994	103.172	19.993	6.715	0.529
678.000	410.314	80.002	19.995	103.155	19.991	6.916	0.493
680.000	411.356	80.002	19.994	103.146	19.987	7.156	0.519
682.000	412.359	80.003	19.995	103.150	19.987	7.141	0.475
684.000	413.390	80.002	19.994	103.149	19.988	7.101	0.495
686.000	414.357	80.001	19.995	103.147	19.982	7.508	0.465
688.000	415.379	80.003	19.995	103.149	19.976	7.922	0.496
690.000	416.371	80.001	19.995	103.162	19.977	7.861	0.486
692.000	417.399	80.002	19.995	103.169	19.971	8.236	0.536
694.000	418.410	80.000	19.994	103.144	19.967	8.518	0.489
696.000	419.450	80.001	19.994	103.119	19.964	8.713	0.496
698.000	420.494	80.001	19.996	103.149	19.962	8.866	0.540
700.000	421.489	80.002	19.996	103.151	19.958	9.133	0.522
702.000	422.490	80.003	19.996	103.155	19.950	9.711	0.520
704.000	423.530	80.002	19.995	103.168	19.946	9.988	0.502
706.000	424.505	80.004	19.994	103.148	19.941	10.291	0.506
708.000	425.543	80.003	19.995	103.141	19.935	10.721	0.514
710.000	426.561	80.004	19.993	103.144	19.932	10.973	0.526
712.000	427.537	80.004	19.995	103.147	19.926	11.342	0.475
714.000	428.552	80.004	19.995	103.147	19.916	12.059	0.513
716.000	429.526	80.004	19.996	103.147	19.913	12.227	0.482
718.000	430.536	80.003	19.995	103.148	19.906	12.736	0.490
720.000	431.507	80.003	19.997	103.147	19.897	13.354	0.506
722.000	432.498	80.002	19.995	103.139	19.888	13.960	0.509
724.000	433.526	80.002	19.996	103.140	19.878	14.679	0.499
726.000	434.512	80.003	19.995	103.127	19.870	15.222	0.480
728.000	435.530	80.004	19.996	103.150	19.862	15.758	0.501
730.000	436.546	80.003	19.995	103.145	19.851	16.479	0.494
732.000	437.607	80.003	19.995	103.146	19.844	17.001	0.487
734.000	438.556	80.004	19.996	103.147	19.832	17.813	0.487
736.000	439.578	80.004	19.995	103.148	19.819	18.679	0.492
738.000	440.598	80.004	19.995	103.150	19.810	19.345	0.491
740.000	441.568	80.003	19.995	103.147	19.797	20.247	0.477
742.000	442.616	80.001	19.996	103.150	19.788	20.841	0.528
744.000	443.636	80.000	19.996	103.150	19.773	21.889	0.494
746.000	444.601	80.001	19.995	103.149	19.756	23.036	0.503
748.000	445.623	80.001	19.995	103.143	19.744	23.885	0.504
750.000	446.605	80.001	19.996	103.148	19.730	24.858	0.481
752.000	447.608	80.001	19.996	103.149	19.714	25.955	0.506
754.000	448.663	79.999	19.995	103.152	19.703	26.716	0.492
756.000	449.651	80.001	19.996	103.152	19.685	27.899	0.490
758.000	450.701	80.001	19.995	103.151	19.672	28.855	0.532
760.000	451.755	80.002	19.996	103.157	19.655	30.012	0.527
762.000	452.778	80.000	19.995	103.154	19.641	30.920	0.531
764.000	453.793	80.002	19.995	103.149	19.627	31.893	0.513
766.000	454.845	80.002	19.995	103.143	19.614	32.790	0.519
768.000	455.877	80.001	19.995	103.149	19.603	33.536	0.525
770.000	456.941	80.001	19.994	103.148	19.591	34.383	0.520
772.000	457.992	80.000	19.996	103.152	19.586	34.745	0.515
774.000	458.998	80.000	19.995	103.154	19.576	35.427	0.508
776.000	460.087	80.001	19.996	103.153	19.569	35.925	0.544
778.000	461.089	80.001	19.996	103.161	19.563	36.282	0.502
780.000	462.194	80.000	19.995	103.150	19.559	36.600	0.553
782.000	463.235	80.002	19.996	103.151	19.557	36.742	0.539
784.000	464.260	80.001	19.995	103.148	19.550	37.238	0.538
786.000	465.284	80.002	19.994	103.154	19.550	37.208	0.519
788.000	466.366	80.002	19.995	103.151	19.553	36.997	0.521
790.000	467.391	80.002	19.996	103.147	19.550	37.230	0.510
792.000	468.436	80.003	19.995	103.145	19.558	36.657	0.510
794.000	469.431	80.002	19.995	103.142	19.560	36.523	0.505
796.000	470.471	80.003	19.995	103.145	19.566	36.103	0.521
798.000	471.447	80.002	19.994	103.147	19.576	35.424	0.513
800.000	472.461	80.000	19.995	103.149	19.581	35.053	0.502
802.000	473.480	80.002	19.994	103.148	19.588	34.628	0.474
804.000	474.474	80.002	19.994	103.144	19.596	34.037	0.474
806.000	475.527	80.002	19.994	103.148	19.607	33.321	0.528
808.000	476.494	80.001	19.994	103.151	19.621	32.327	0.502
810.000	477.477	80.004	19.995	103.147	19.623	32.186	0.513
812.000	478.465	80.003	19.995	103.145	19.636	31.308	0.462
814.000	479.447	80.003	19.996	103.142	19.643	30.847	0.498
816.000	480.417	80.004	19.995	103.144	19.654	30.089	0.481
818.000	481.428	80.003	19.995	103.140	19.662	29.493	0.516
820.000	482.400	80.001	19.994	103.146	19.671	28.873	0.463
822.000	483.408	80.003	19.994	103.151	19.683	28.062	0.492
824.000	484.423	80.002	19.994	103.150	19.691	27.503	0.517
826.000	485.443	80.001	19.995	103.146	19.704	26.629	0.514
828.000	486.461	80.002	19.996	103.151	19.712	26.073	0.523
830.000	487.458	80.001	19.996	103.148	19.724	25.265	0.517
832.000	488.408	80.000	19.996	103.147	19.735	24.473	0.497
834.000	489.423	80.002	19.996	103.145	19.745	23.830	0.505
836.000	490.434	80.001	19.995	103.147	19.761	22.691	0.488
838.000	491.447	80.001	19.997	103.145	19.767	22.269	0.488
840.000	492.490	80.000	19.996	103.148	19.777	21.581	0.538
842.000	493.483	80.001	19.996	103.145	19.787	20.918	0.510
844.000	494.569	80.001	19.997	103.142	19.794	20.432	0.536
846.000	495.555	80.000	19.995	103.138	19.803	19.792	0.487
848.000	496.631	80.000	19.995	103.143	19.809	19.406	0.516
850.000	497.716	80.001	19.996	103.146	19.821	18.561	0.542
852.000	498.758	80.001	19.996	103.143	19.830	17.941	0.540
854.000	499.825	80.001	19.995	103.144	19.838	17.384	0.554
856.000	500.895	80.001	19.996	103.146	19.847	16.820	0.537
858.000	501.975	80.001	19.995	103.143	19.855	16.256	0.525
860.000	503.073	80.001	19.995	103.148	19.863	15.688	0.562
862.000	504.164	80.000	19.994	103.146	19.876	14.795	0.537
864.000	505.234	80.000	19.995	103.142	19.881	14.450	0.547
866.000	506.327	80.000	19.995	103.147	19.887	14.009	0.532
868.000	507.437	80.002	19.994	103.149	19.893	13.653	0.562
870.000	508.531	80.003	19.995	103.150	19.901	13.050	0.544
872.000	509.613	80.003	19.995	103.151	19.909	12.526	0.534
874.000	510.723	80.002	19.995	103.148	19.914	12.158	0.544
876.000	511.842	80.003	19.995	103.146	19.923	11.541	0.551
878.000	512.883	80.005	19.994	103.149	19.926	11.326	0.532
880.000	513.989	80.001	19.994	103.145	19.932	10.913	0.560
882.000	515.063	80.002	19.994	103.147	19.941	10.289	0.523
884.000	516.252	80.002	19.994	103.140	19.945	10.043	0.560
886.000	517.351	80.001	19.994	103.151	19.953	9.493	0.542
888.000	518.418	80.001	19.995	103.150	19.956	9.303	0.543
890.000	519.552	80.003	19.994	103.147	19.960	9.019	0.587
892.000	520.621	80.002	19.994	103.140	19.963	8.797	0.584
894.000	521.699	80.004	19.995	103.147	19.967	8.535	0.516
896.000	522.833	80.004	19.993	103.141	19.971	8.288	0.575
898.000	523.958	80.004	19.994	103.129	19.974	8.018	0.557
900.000	525.034	80.003	19.994	103.127	19.976	7.916	0.554
902.000	526.097	80.003	19.994	103.138	19.977	7.847	0.541
904.000	527.186	80.002	19.996	103.135	19.981	7.585	0.546
906.000	528.257	80.001	19.995	103.138	19.979	7.674	0.553
908.000	529.344	80.001	19.995	103.132	19.984	7.396	0.534
910.000	530.399	80.000	19.996	103.137	19.987	7.134	0.527
912.000	531.480	80.000	19.995	103.143	19.989	7.001	0.539
914.000	532.524	80.001	19.996	103.146	19.989	7.054	0.529
916.000	533.573	80.000	19.995	103.134	19.991	6.880	0.513
918.000	534.630	80.002	19.995	103.124	19.994	6.655	0.529
920.000	535.701	80.002	19.995	103.118	19.994	6.710	0.546
922.000	536.740	80.001	19.995	103.133	19.996	6.551	0.529
924.000	537.802	80.002	19.994	103.145	19.996	6.515	0.508
926.000	538.805	80.003	19.995	103.144	19.998	6.422	0.497
928.000	539.865	80.002	19.996	103.148	19.998	6.410	0.537
930.000	540.886	80.000	19.996	103.147	19.998	6.384	0.529
932.000	541.949	80.001	19.995	103.150	19.998	6.409	0.546
934.000	543.008	80.001	19.996	103.148	20.001	6.226	0.539
936.000	543.974	80.001	19.996	103.137	20.003	6.064	0.506
938.000	545.005	79.999	19.997	103.123	20.003	6.078	0.537
940.000	545.982	80.000	19.994	103.116	20.001	6.162	0.489
942.000	547.045	80.000	19.996	103.117	20.003	6.069	0.514
944.000	548.082	80.001	19.996	103.118	20.008	5.732	0.541
946.000	549.101	80.001	19.995	103.127	20.006	5.845	0.509
948.000	550.083	80.002	19.995	103.124	20.007	5.779	0.510
950.000	551.096	80.001	19.995	103.137	20.007	5.777	0.496
952.000	552.110	80.002	19.995	103.131	20.009	5.662	0.507
954.000	553.145	80.002	19.995	103.132	20.009	5.614	0.503
956.000	554.198	80.002	19.995	103.142	20.011	5.533	0.540
958.000	555.204	80.002	19.994	103.146	20.010	5.544	0.504
960.000	556.181	80.002	19.995	103.137	20.013	5.398	0.473
962.000	557.222	80.001	19.995	103.146	20.012	5.441	0.518
964.000	558.250	80.003	19.994	103.151	20.014	5.334	0.497
966.000	559.254	80.002	19.996	103.153	20.014	5.330	0.504
968.000	560.278	80.003	19.994	103.142	20.015	5.231	0.512
970.000	561.277	80.003	19.995	103.136	20.020	4.883	0.510
972.000	562.328	80.003	19.994	103.140	20.017	5.110	0.511
974.000	563.317	80.004	19.995	103.145	20.016	5.183	0.472
976.000	564.282	80.004	19.995	103.142	20.016	5.164	0.490
978.000	565.293	80.003	19.994	103.145	20.014	5.271	0.514
980.000	566.320	80.005	19.994	103.139	20.015	5.226	0.501
982.000	567.324	80.005	19.995	103.141	20.016	5.150	0.518
984.000	568.327	80.005	19.995	103.143	20.019	4.926	0.527
986.000	569.345	80.002	19.995	103.147	20.023	4.678	0.522
988.000	570.330	80.002	19.995	103.149	20.021	4.796	0.522
990.000	571.325	80.003	19.995	103.147	20.022	4.764	0.495
992.000	572.367	80.001	19.994	103.151	20.020	4.903	0.496
994.000	573.366	80.002	19.993	103.151	20.023	4.710	0.506
996.000	574.435	80.002	19.994	103.143	20.025	4.539	0.546
998.000	575.476	80.000	19.996	103.157	20.027	4.418	0.558
1000.000	576.477	80.003	19.994	103.162	20.025	4.526	0.480
1002.000	577.491	80.002	19.996	103.153	20.025	4.571	0.490
1004.000	578.500	80.001	19.995	103.164	20.028	4.322	0.495
1006.000	579.518	80.001	19.997	103.153	20.025	4.534	0.516
1008.000	580.515	80.002	19.995	103.150	20.027	4.410	0.520
1010.000	581.527	80.002	19.995	103.151	20.026	4.491	0.497
1012.000	582.547	80.002	19.995	103.144	20.026	4.493	0.534
1014.000	583.536	80.001	19.995	103.148	20.028	4.320	0.496
1016.000	584.531	80.001	19.996	103.147	20.030	4.232	0.506
1018.000	585.520	80.000	19.996	103.150	20.026	4.451	0.507
1020.000	586.523	80.001	19.996	103.149	20.026	4.489	0.483
1022.000	587.513	80.001	19.996	103.149	20.024	4.632	0.476
1024.000	588.509	80.001	19.995	103.150	20.027	4.433	0.483
1025.999	589.481	80.000	19.997	103.147	20.028	4.317	0.480
1027.999	590.475	80.001	19.997	103.146	20.026	4.507	0.499
1029.999	591.481	80.002	19.995	103.143	20.027	4.442	0.508
1031.999	592.426	80.002	19.996	103.138	20.026	4.490	0.497
1034.000	593.412	80.002	19.997	103.117	20.027	4.390	0.483
1035.999	594.374	80.004	19.996	103.112	20.029	4.250	0.482
1037.999	595.414	80.004	19.996	103.139	20.030	4.179	0.515
1039.999	596.326	80.004	19.996	103.144	20.031	4.134	0.461
1042.000	597.332	80.004	19.996	103.142	20.028	4.367	0.458
1044.000	598.344	80.002	19.995	103.123	20.025	4.533	0.520
1045.999	599.296	80.004	19.995	103.116	20.029	4.256	0.476
1047.999	600.262	80.003	19.996	103.127	20.026	4.495	0.463
1050.000	601.294	80.004	19.995	103.120	20.026	4.490	0.512
1051.999	602.273	80.003	19.994	103.129	20.028	4.368	0.508
1053.999	603.244	80.003	19.996	103.141	20.028	4.360	0.471
1055.999	604.234	80.004	19.995	103.138	20.028	4.366	0.460
1057.999	605.205	80.004	19.995	103.121	20.029	4.256	0.490
1059.999	606.230	80.004	19.994	103.135	20.030	4.210	0.506
1061.999	607.217	80.004	19.995	103.138	20.028	4.331	0.492
1063.999	608.271	80.004	19.994	103.117	20.027	4.402	0.569
1065.999	609.231	80.004	19.995	103.111	20.030	4.198	0.521
1067.999	610.225	80.003	19.994	103.130	20.029	4.268	0.507
1069.999	611.258	80.003	19.995	103.135	20.032	4.053	0.511
1072.000	612.272	80.001	19.995	103.138	20.029	4.247	0.499
1074.000	613.235	80.001	19.994	103.125	20.032	4.054	0.499
1075.999	614.291	80.001	19.995	103.126	20.031	4.135	0.510
1077.999	615.331	80.001	19.995	103.144	20.030	4.222	0.524
1079.999	616.381	80.002	19.994	103.152	20.028	4.310	0.535
1081.999	617.361	80.002	19.995	103.145	20.032	4.088	0.506
1083.999	618.416	80.003	19.994	103.134	20.030	4.197	0.514
1085.999	619.427	80.002	19.994	103.142	20.027	4.382	0.521
1087.999	620.438	80.001	19.995	103.132	20.028	4.320	0.524
1090.000	621.456	80.003	19.995	103.133	20.027	4.417	0.505
1091.999	622.489	80.001	19.996	103.133	20.025	4.528	0.531
1093.999	623.531	80.002	19.995	103.143	20.026	4.446	0.552
1095.999	624.485	80.001	19.997	103.147	20.026	4.489	0.508
1097.999	625.579	80.002	19.996	103.142	20.027	4.401	0.525
1099.999	626.540	80.001	19.996	103.136	20.027	4.399	0.469
1102.000	627.621	80.002	19.996	103.138	20.029	4.288	0.545
1103.999	628.599	80.002	19.996	103.147	20.026	4.474	0.510
1105.999	629.619	80.000	19.996	103.145	20.028	4.345	0.537
1107.999	630.630	80.002	19.995	103.148	20.025	4.554	0.495
1110.000	631.655	80.002	19.996	103.148	20.027	4.391	0.518
1111.999	632.692	80.004	19.995	103.145	20.025	4.562	0.517
1114.000	633.693	80.002	19.996	103.145	20.026	4.478	0.506
1115.999	634.751	80.003	19.996	103.147	20.024	4.637	0.527
1117.999	635.802	80.002	19.996	103.144	20.026	4.508	0.533
1119.999	636.806	80.002	19.995	103.147	20.026	4.467	0.526
1122.000	637.775	80.003	19.997	103.148	20.028	4.315	0.511
1123.999	638.856	80.003	19.996	103.150	20.025	4.523	0.544
1125.999	639.825	80.003	19.996	103.149	20.024	4.634	0.520
1127.999	640.848	80.001	19.995	103.154	20.023	4.674	0.519
1129.999	641.857	80.002	19.996	103.153	20.023	4.683	0.509
1131.999	642.901	80.002	19.995	103.155	20.025	4.520	0.535
1133.999	643.898	80.002	19.995	103.154	20.024	4.607	0.504
1135.999	644.905	80.004	19.996	103.173	20.022	4.781	0.505
1137.999	645.909	80.003	19.995	103.186	20.023	4.652	0.525
1139.999	646.926	80.004	19.994	103.179	20.023	4.672	0.526
1141.999	647.952	80.004	19.995	103.192	20.024	4.617	0.521
1143.999	649.018	80.002	19.994	103.186	20.019	4.944	0.538
1145.999	650.053	80.004	19.994	103.190	20.023	4.710	0.545
1148.000	651.081	80.002	19.995	103.192	20.021	4.802	0.528
1149.999	652.062	80.002	19.995	103.187	20.018	5.050	0.486
1151.999	653.111	80.001	19.995	103.178	20.023	4.712	0.524
1153.999	654.130	80.003	19.994	103.187	20.022	4.785	0.505
1155.999	655.201	80.002	19.995	103.196	20.018	4.998	0.530
1158.001	656.178	80.003	19.995	103.201	20.020	4.880	0.511
1159.999	657.197	80.002	19.995	103.198	20.019	4.978	0.516
1161.999	658.235	80.002	19.994	103.190	20.018	5.042	0.527
1164.000	659.231	80.002	19.995	103.200	20.018	5.035	0.491
1165.999	660.250	80.003	19.994	103.207	20.014	5.327	0.517
1168.000	661.286	80.002	19.994	103.193	20.016	5.177	0.547
1170.000	662.272	80.004	19.994	103.208	20.013	5.408	0.462
1172.001	663.289	80.004	19.994	103.213	20.012	5.443	0.503
1173.999	664.301	80.002	19.993	103.222	20.011	5.504	0.501
1175.999	665.287	80.002	19.994	103.221	20.013	5.395	0.492
1177.999	666.230	80.001	19.996	103.226	20.011	5.537	0.470
1179.999	667.280	80.001	19.996	103.226	20.009	5.661	0.504
1181.999	668.250	80.001	19.995	103.226	20.012	5.442	0.493
1183.999	669.244	80.001	19.996	103.227	20.010	5.591	0.497
1185.999	670.233	80.002	19.996	103.230	20.008	5.751	0.513
1187.999	671.245	80.001	19.995	103.232	20.008	5.743	0.502
1189.999	672.273	80.002	19.996	103.238	20.010	5.610	0.523
1191.999	673.255	80.002	19.996	103.234	20.005	5.918	0.506
1193.999	674.286	80.004	19.994	103.247	20.004	6.026	0.525
1195.999	675.260	80.004	19.996	103.262	20.005	5.942	0.520
1197.999	676.237	80.002	19.995	103.265	20.006	5.840	0.486
1199.999	677.230	80.003	19.995	103.266	20.003	6.073	0.481
1201.999	678.275	80.002	19.995	103.265	20.005	5.901	0.535
1203.999	679.242	80.002	19.995	103.269	20.007	5.783	0.466
1205.999	680.238	80.002	19.996	103.271	20.002	6.107	0.504
1207.999	681.244	80.002	19.994	103.282	20.004	5.979	0.498
1209.999	682.209	80.001	19.995	103.277	20.003	6.064	0.464
1211.999	683.234	80.001	19.997	103.273	20.005	5.946	0.477
1213.999	684.251	80.002	19.996	103.266	20.003	6.082	0.494
1216.000	685.236	80.002	19.996	103.273	20.001	6.187	0.502
1218.000	686.251	80.003	19.996	103.268	20.005	5.962	0.486
1219.999	687.248	80.003	19.996	103.263	20.004	6.017	0.489
1221.999	688.258	80.004	19.995	103.272	20.000	6.279	0.513
1223.999	689.293	80.005	19.995	103.265	19.998	6.425	0.488
1226.000	690.288	80.005	19.995	103.263	20.001	6.206	0.509
1227.999	691.327	80.003	19.994	103.260	20.001	6.211	0.535
1229.999	692.356	80.002	19.995	103.261	20.000	6.280	0.535
1232.001	693.382	80.001	19.995	103.264	20.001	6.236	0.509
1234.000	694.388	80.003	19.994	103.265	20.005	5.916	0.507
1236.000	695.382	80.001	19.994	103.265	20.006	5.863	0.486
1238.001	696.403	80.002	19.995	103.262	20.004	6.003	0.508
1239.999	697.408	80.002	19.994	103.241	20.004	6.011	0.505
1242.000	698.404	80.004	19.996	103.247	20.005	5.902	0.510
1243.999	699.457	80.003	19.995	103.234	20.009	5.647	0.516
1245.999	700.481	80.002	19.995	103.236	20.012	5.457	0.518
1247.999	701.518	80.003	19.995	103.224	20.010	5.578	0.545
1250.000	702.522	80.000	19.995	103.216	20.010	5.613	0.516
1251.999	703.518	80.002	19.996	103.198	20.007	5.813	0.495
1253.999	704.558	80.003	19.994	103.192	20.015	5.258	0.518
1255.999	705.583	80.003	19.995	103.191	20.014	5.318	0.515
1258.000	706.646	80.003	19.995	103.187	20.016	5.138	0.527
1259.999	707.643	80.002	19.995	103.177	20.015	5.203	0.498
1261.999	708.703	80.001	19.994	103.178	20.018	5.012	0.513
1263.999	709.727	80.001	19.994	103.163	20.020	4.891	0.503
1265.999	710.683	80.000	19.994	103.157	20.023	4.693	0.478
1268.000	711.779	80.000	19.995	103.153	20.021	4.802	0.563
1269.999	712.817	80.002	19.995	103.142	20.021	4.846	0.528
1272.000	713.853	80.003	19.995	103.134	20.022	4.743	0.531
1273.999	714.870	80.002	19.996	103.127	20.021	4.807	0.512
1275.999	715.927	80.002	19.995	103.116	20.021	4.792	0.523
1277.999	716.990	80.003	19.995	103.115	20.024	4.614	0.522
1279.999	717.937	80.003	19.996	103.116	20.022	4.730	0.465
1281.999	718.975	80.005	19.996	103.110	20.024	4.618	0.505
1283.999	720.003	80.003	19.996	103.109	20.023	4.689	0.495
1286.000	721.033	80.002	19.995	103.106	20.022	4.717	0.522
1287.999	722.004	80.003	19.995	103.107	20.022	4.751	0.469
1289.999	723.022	80.002	19.995	103.108	20.028	4.369	0.508
1291.999	724.005	80.003	19.995	103.108	20.027	4.397	0.475
1293.999	725.027	80.003	19.995	103.108	20.024	4.637	0.506
1295.999	726.063	80.003	19.995	103.102	20.025	4.569	0.508
1298.000	727.048	80.004	19.996	103.106	20.024	4.599	0.517
1299.999	728.102	80.003	19.994	103.107	20.025	4.528	0.526
1301.999	729.086	80.004	19.995	103.104	20.021	4.839	0.486
1303.999	730.170	80.004	19.995	103.107	20.024	4.585	0.507
1306.000	731.126	80.003	19.996	103.104	20.019	4.943	0.524
1307.999	732.183	80.003	19.996	103.107	20.021	4.829	0.542
1309.999	733.144	80.001	19.996	103.103	20.021	4.798	0.468
1311.999	734.185	80.001	19.996	103.097	20.023	4.695	0.455
1313.999	735.127	80.002	19.997	103.114	20.020	4.887	0.499
1315.999	736.107	80.001	19.996	103.110	20.017	5.108	0.516
1317.999	737.163	80.001	19.996	103.100	20.020	4.914	0.525
1320.000	738.145	80.001	19.994	103.111	20.023	4.682	0.496
1321.999	739.156	80.001	19.995	103.108	20.019	4.979	0.516
1324.001	740.176	80.002	19.993	103.105	20.022	4.727	0.501
1325.999	741.189	80.001	19.996	103.116	20.020	4.886	0.502
1327.999	742.215	80.000	19.994	103.112	20.025	4.573	0.491
1329.999	743.227	80.001	19.995	103.111	20.024	4.594	0.506
1330.499	743.507	80.001	19.995	103.112	20.022	4.747	0.519