File: 01_Data/PVC/STA/N2/30K_min/PVC_STA_N2_30KData_210710_R1.csv
##Temp./Â°C,Time/min,Mass loss(subtr.2)/mg,DSC(subtr.2)/mW,DTG(subtr.2)/(mg/min),Sensit./(uV/mW)
49.367,10.01,-0.00679,-0.03981153,-0.01265136,1.05401
50.067,11.06395,-0.007005525,0.03474582,0.000923292,1.05402
50.767,11.30039,-0.006253137,0.07178734,-0.0002891741,1.05404
51.467,11.45969,-0.004949182,0.11571,-0.0009681724,1.05405
52.167,11.58637,-0.007439901,0.14815,-0.007841131,1.05405
52.867,11.69231,-0.00783457,0.17912,-0.002824386,1.05406
53.567,11.78695,-0.007550503,0.20669,-0.001630819,1.05406
54.267,11.8729,-0.009456463,0.23785,-0.0003062675,1.05406
54.967,11.95067,-0.006896221,0.25723,0.003653705,1.05406
55.667,12.0235,-0.00834893,0.28263,0.002186528,1.05406
56.367,12.09175,-0.00606434,0.31441,-0.000911696,1.05405
57.067,12.15666,-0.008998451,0.32652,-0.0003274561,1.05404
57.767,12.2185,-0.006727846,0.35271,0.0001374499,1.05403
58.467,12.27788,-0.006886335,0.37538,-0.001988219,1.05402
59.167,12.3353,-0.008117083,0.39467,-0.001526641,1.054
59.867,12.39113,-0.009433538,0.41912,0.00147804,1.05398
60.567,12.44427,-0.005317935,0.44286,0.001623296,1.05396
61.267,12.4964,-0.00737464,0.46946,0.0006560639,1.05394
61.967,12.54845,-0.00912691,0.48875,0.00271175,1.05391
62.667,12.59858,-0.006740195,0.52084,0.005255495,1.05388
63.367,12.6476,-0.005317006,0.54081,0.004668213,1.05385
64.067,12.69472,-0.007295358,0.54716,0.002498124,1.05382
64.767,12.74185,-0.006515379,0.5426,0.0009154959,1.05378
65.467,12.789,-0.006981385,0.51351,-0.0009362067,1.05375
66.167,12.8347,-0.00642991,0.48521,-0.003611671,1.05371
66.867,12.87974,-0.00632971,0.46908,-0.00540061,1.05366
67.567,12.9239,-0.00883101,0.46098,-0.004491836,1.05362
68.267,12.9678,-0.007404479,0.4558,-0.001626743,1.05357
68.967,13.01137,-0.007098341,0.45313,0.000672554,1.05352
69.667,13.05395,-0.00801587,0.46168,0.0006256059,1.05347
70.367,13.09618,-0.006295159,0.47948,-0.001625235,1.05342
71.067,13.1383,-0.00765757,0.47332,-0.004230286,1.05336
71.767,13.1798,-0.00766053,0.49326,-0.0052979,1.0533
72.467,13.2208,-0.008668597,0.50564,-0.004274323,1.05324
73.167,13.26135,-0.00847378,0.50662,-0.00195582,1.05318
73.867,13.30171,-0.006929317,0.52389,0.000179305,1.05312
74.567,13.3414,-0.00877491,0.54329,0.0009885386,1.05305
75.267,13.381,-0.00754671,0.55257,0.0002524763,1.05298
75.967,13.42031,-0.00647565,0.57683,-0.001505534,1.05291
76.667,13.45911,-0.009006629,0.59676,-0.003071297,1.05283
77.367,13.49753,-0.008048479,0.61488,-0.00333448,1.05275
78.067,13.53571,-0.00804475,0.63837,-0.0019239,1.05267
78.767,13.57349,-0.00905444,0.65665,0.0007613,1.05259
79.467,13.6108,-0.008899652,0.68624,0.003493162,1.05251
80.167,13.6477,-0.007861554,0.70946,0.004829391,1.05242
80.867,13.68457,-0.007915,0.75092,0.003940056,1.05233
81.567,13.72115,-0.006039536,0.7733,0.001243349,1.05224
82.267,13.7571,-0.006925931,0.79251,-0.001542258,1.05215
82.967,13.793,-0.00838516,0.82668,-0.002687363,1.05206
83.667,13.8287,-0.008788755,0.84259,-0.001658547,1.05196
84.367,13.86409,-0.008881908,0.85043,0.0005606029,1.05186
85.067,13.89905,-0.008056231,0.86538,0.002444945,1.05176
85.767,13.9338,-0.00715082,0.86555,0.00306231,1.05165
86.467,13.9681,-0.007679985,0.86816,0.002438814,1.05155
87.167,14.0022,-0.008040234,0.86299,0.001292966,1.05144
87.867,14.03609,-0.00776975,0.86375,0.0002838902,1.05133
88.567,14.06954,-0.007836235,0.86614,-0.0003932264,1.05121
89.267,14.1028,-0.008137748,0.85952,-0.0009460159,1.0511
89.967,14.1358,-0.008512701,0.8578,-0.00164525,1.05098
90.667,14.1685,-0.008199048,0.86211,-0.00241091,1.05086
91.367,14.20103,-0.007886467,0.86169,-0.002767897,1.05074
92.067,14.2332,-0.007859025,0.86544,-0.00225451,1.05062
92.767,14.2653,-0.009473747,0.8727,-0.000859828,1.05049
93.467,14.2971,-0.00902484,0.87611,0.0008615314,1.05036
94.167,14.32876,-0.00835075,0.8962,0.0022429,1.05023
94.867,14.3601,-0.007223134,0.90022,0.002958723,1.0501
95.567,14.39105,-0.007484361,0.92126,0.00309103,1.04996
96.267,14.4219,-0.00866034,0.92983,0.002821718,1.04982
96.967,14.45261,-0.007542876,0.95093,0.002148901,1.04968
97.667,14.4832,-0.00724267,0.96612,0.0009660114,1.04954
98.367,14.5135,-0.006888127,0.97689,-0.0006238354,1.0494
99.067,14.54355,-0.006347681,0.99732,-0.002193937,1.04925
99.767,14.57347,-0.00867825,1.01256,-0.00315617,1.0491
100.467,14.6035,-0.008489017,1.03378,-0.00314458,1.04895
101.167,14.6332,-0.008100988,1.04828,-0.00224899,1.0488
101.867,14.6627,-0.008121457,1.06789,-0.0009481786,1.04865
102.567,14.69195,-0.008482631,1.08716,0.0002110113,1.04849
103.267,14.7211,-0.00832083,1.09603,0.0008908625,1.04833
103.967,14.75,-0.007667374,1.1173,0.001010387,1.04817
104.667,14.7789,-0.00755752,1.13713,0.000685732,1.04801
105.367,14.80761,-0.007288013,1.15677,0.0001482484,1.04784
106.067,14.83624,-0.00760512,1.17225,-0.000308698,1.04767
106.767,14.86469,-0.008476849,1.18961,-0.000420309,1.0475
107.467,14.89299,-0.007625858,1.20497,-3.929584e-05,1.04733
108.167,14.92104,-0.00735355,1.22463,0.000760721,1.04716
108.867,14.9489,-0.008598633,1.23076,0.001673761,1.04698
109.567,14.97661,-0.009065524,1.24654,0.00227692,1.0468
110.267,15.00431,-0.00736339,1.26504,0.0021785,1.04662
110.967,15.032,-0.00631366,1.28129,0.0012054,1.04644
111.667,15.0596,-0.00754608,1.2969,-0.0005105233,1.04625
112.367,15.08702,-0.00805792,1.31199,-0.00256156,1.04607
113.067,15.11425,-0.007817806,1.33089,-0.004461005,1.04588
113.767,15.14141,-0.0078746,1.33734,-0.00581294,1.04569
114.467,15.16845,-0.007560533,1.35218,-0.00638619,1.04549
115.167,15.1955,-0.009104914,1.37021,-0.006225562,1.0453
115.867,15.2223,-0.009652251,1.38447,-0.005654187,1.0451
116.567,15.2491,-0.00898433,1.39269,-0.005121419,1.0449
117.267,15.27571,-0.008296749,1.4077,-0.005017318,1.0447
117.967,15.30224,-0.00885708,1.41893,-0.00550749,1.0445
118.667,15.32869,-0.008895233,1.43403,-0.00645902,1.04429
119.367,15.35501,-0.008203369,1.44676,-0.007459758,1.04409
120.067,15.38127,-0.008992604,1.45568,-0.007991122,1.04388
120.767,15.40693,-0.01048531,1.46655,-0.007711395,1.04366
121.467,15.4328,-0.01044451,1.48329,-0.00654091,1.04345
122.167,15.45875,-0.01037265,1.49048,-0.004668154,1.04324
122.867,15.4848,-0.01106717,1.49847,-0.002437745,1.04302
123.567,15.5109,-0.0104332,1.50866,-0.0002561768,1.0428
124.267,15.5365,-0.01027468,1.52263,0.001536893,1.04258
124.967,15.562,-0.009556105,1.52684,0.002821657,1.04235
125.667,15.5875,-0.01034173,1.54217,0.00360135,1.04213
126.367,15.6127,-0.01036152,1.54885,0.00395755,1.0419
127.067,15.6379,-0.00901463,1.5568,0.004033274,1.04167
127.767,15.66303,-0.009954112,1.56601,0.003970403,1.04144
128.467,15.68786,-0.008955447,1.57351,0.003865443,1.0412
129.167,15.7128,-0.01035173,1.58203,0.00376477,1.04097
129.867,15.7378,-0.009155619,1.59621,0.003628982,1.04073
130.567,15.76283,-0.00898144,1.59575,0.00335099,1.04049
131.267,15.78781,-0.008943787,1.60883,0.002859392,1.04025
131.967,15.81259,-0.00977527,1.61629,0.00213116,1.04
132.667,15.8372,-0.00906226,1.61559,0.001197063,1.03976
133.367,15.86166,-0.008217375,1.62007,0.0001566257,1.03951
134.067,15.88616,-0.00879619,1.64148,-0.0008565205,1.03926
134.767,15.91061,-0.009178419,1.65233,-0.001671613,1.03901
135.467,15.93493,-0.008937029,1.66363,-0.00215699,1.03876
136.167,15.95921,-0.009619725,1.67624,-0.002235346,1.0385
136.867,15.98339,-0.008901538,1.67829,-0.00189004,1.03824
137.567,16.00757,-0.009341339,1.69134,-0.00120113,1.03798
138.267,16.0316,-0.01017124,1.69025,-0.000369786,1.03772
138.967,16.05557,-0.00956685,1.6907,0.0003238111,1.03746
139.667,16.07936,-0.009956075,1.7093,0.0006026167,1.03719
140.367,16.10315,-0.009336997,1.72234,0.0003113465,1.03693
141.067,16.1269,-0.008675743,1.72572,-0.000549435,1.03666
141.767,16.15055,-0.00866418,1.72368,-0.00180807,1.03639
142.467,16.1742,-0.008787966,1.73034,-0.003181243,1.03611
143.167,16.19773,-0.009531026,1.74961,-0.004340365,1.03584
143.867,16.22118,-0.01007924,1.75586,-0.00506642,1.03556
144.567,16.24472,-0.01009737,1.76771,-0.005302991,1.03528
145.267,16.26801,-0.009412676,1.77289,-0.005147279,1.035
145.967,16.29126,-0.01008457,1.78172,-0.00478051,1.03472
146.667,16.31452,-0.01054057,1.78396,-0.004365435,1.03444
147.367,16.3377,-0.01019094,1.7846,-0.004012292,1.03415
148.067,16.36093,-0.01008824,1.79627,-0.003771105,1.03386
148.767,16.38402,-0.01009118,1.80211,-0.00363679,1.03357
149.467,16.40705,-0.01011464,1.80464,-0.003550308,1.03328
150.167,16.43008,-0.01107633,1.81398,-0.0034465,1.03299
150.867,16.4531,-0.01140255,1.81631,-0.003288772,1.03269
151.567,16.47606,-0.01043091,1.82796,-0.003077088,1.03239
152.267,16.49895,-0.01009594,1.83495,-0.002828131,1.03209
152.967,16.5217,-0.01057934,1.83384,-0.00256655,1.03179
153.667,16.5443,-0.0113844,1.84072,-0.002332571,1.03149
154.367,16.56697,-0.01140205,1.84216,-0.002173834,1.03119
155.067,16.58959,-0.0114015,1.8457,-0.00212247,1.03088
155.767,16.61226,-0.01000285,1.84643,-0.002166273,1.03057
156.467,16.63489,-0.01032881,1.85025,-0.002244098,1.03026
157.167,16.65749,-0.01142586,1.85036,-0.002264453,1.02995
157.867,16.67999,-0.01140001,1.85393,-0.002147337,1.02963
158.567,16.70245,-0.01139995,1.87052,-0.001867642,1.02932
159.267,16.7249,-0.01140026,1.86221,-0.00145108,1.029
159.967,16.7472,-0.01140753,1.86658,-0.0009541119,1.02868
160.667,16.76959,-0.01140998,1.87835,-0.000472759,1.02836
161.367,16.79177,-0.01141011,1.87964,-0.0001292852,1.02804
162.067,16.81404,-0.01141353,1.88641,2.358314e-07,1.02771
162.767,16.83622,-0.01147205,1.89141,-0.0001020273,1.02739
163.467,16.8583,-0.01057111,1.89535,-0.0003885511,1.02706
164.167,16.8806,-0.01128433,1.90448,-0.0007897208,1.02673
164.867,16.90266,-0.01128875,1.90961,-0.001245854,1.0264
165.567,16.9248,-0.01128991,1.91396,-0.00173695,1.02607
166.267,16.94685,-0.01129,1.92554,-0.00224913,1.02573
166.967,16.96881,-0.01151589,1.93495,-0.00278814,1.02539
167.667,16.99072,-0.01155364,1.93363,-0.003371071,1.02505
168.367,17.01259,-0.01129973,1.94335,-0.003996111,1.02471
169.067,17.03444,-0.01130084,1.94023,-0.00462149,1.02437
169.767,17.05624,-0.01131402,1.94765,-0.00516253,1.02403
170.467,17.07801,-0.01179532,1.95763,-0.005540371,1.02368
171.167,17.0997,-0.01261206,1.9542,-0.005721001,1.02334
171.867,17.12141,-0.0126268,1.96012,-0.005711975,1.02299
172.567,17.14305,-0.01183765,1.96209,-0.00554846,1.02264
173.267,17.16473,-0.01267334,1.96467,-0.005266945,1.02228
173.967,17.18636,-0.01261348,1.96334,-0.004873875,1.02193
174.667,17.20799,-0.01261011,1.96187,-0.004325355,1.02157
175.367,17.2296,-0.01260989,1.9719,-0.003552633,1.02122
176.067,17.25106,-0.01261508,1.97129,-0.00250585,1.02086
176.767,17.27246,-0.01280236,1.96554,-0.00118506,1.0205
177.467,17.29384,-0.01394212,1.96938,0.00033702,1.02014
178.167,17.3152,-0.01402195,1.96155,0.001890577,1.01977
178.867,17.33645,-0.01264417,1.9782,0.00324482,1.01941
179.567,17.35775,-0.01261099,1.9684,0.004162092,1.01904
180.267,17.37896,-0.01261098,1.96805,0.004452108,1.01867
180.967,17.4002,-0.01260726,1.97201,0.004010698,1.0183
181.667,17.42138,-0.01194427,1.971,0.00281331,1.01793
182.367,17.4426,-0.01195966,1.97058,0.0009282193,1.01755
183.067,17.46371,-0.01198612,1.97576,-0.00146045,1.01718
183.767,17.48473,-0.01159677,1.97051,-0.00412191,1.0168
184.467,17.50575,-0.01164167,1.96407,-0.006803452,1.01642
185.167,17.52675,-0.01202426,1.96709,-0.00924509,1.01604
185.867,17.5477,-0.01296318,1.97125,-0.01122085,1.01566
186.567,17.56868,-0.012942,1.96169,-0.01257857,1.01527
187.267,17.58955,-0.01323348,1.94921,-0.01320855,1.01489
187.967,17.61044,-0.01425371,1.95351,-0.0130707,1.0145
188.667,17.63136,-0.01425908,1.95283,-0.01218499,1.01411
189.367,17.65211,-0.01426571,1.94844,-0.01064977,1.01372
190.067,17.67291,-0.01439016,1.95135,-0.008574683,1.01333
190.767,17.69367,-0.01563214,1.94639,-0.00613859,1.01294
191.467,17.71433,-0.01558584,1.95095,-0.00357906,1.01254
192.167,17.73499,-0.01561307,1.94577,-0.00115982,1.01215
192.867,17.7557,-0.01521806,1.9357,0.0008493392,1.01175
193.567,17.77626,-0.01522218,1.93871,0.002224255,1.01135
194.267,17.79683,-0.01457995,1.93103,0.00287194,1.01095
194.967,17.81739,-0.01392646,1.92266,0.0028354,1.01055
195.667,17.83793,-0.01392977,1.93002,0.002300065,1.01014
196.367,17.85849,-0.01392966,1.92419,0.001537404,1.00974
197.067,17.87902,-0.0139267,1.92571,0.000829218,1.00933
197.767,17.89954,-0.01390618,1.92688,0.000383402,1.00892
198.467,17.92,-0.01524,1.9162,0.000269522,1.00851
199.167,17.9404,-0.01524015,1.91529,0.0003885163,1.0081
199.867,17.96086,-0.01524111,1.91216,0.0005231831,1.00769
200.567,17.9812,-0.01480104,1.91014,0.0004299708,1.00727
201.267,18.00149,-0.01393733,1.9107,-8.96043e-05,1.00686
201.967,18.02182,-0.01392141,1.91229,-0.001153734,1.00644
202.667,18.04211,-0.01391998,1.90878,-0.00276136,1.00602
203.367,18.06247,-0.01391785,1.91089,-0.00480909,1.0056
204.067,18.08279,-0.01388549,1.91469,-0.00708202,1.00518
204.767,18.1031,-0.01474126,1.91239,-0.0093284,1.00475
205.467,18.12336,-0.0149039,1.91242,-0.01127794,1.00433
206.167,18.1436,-0.01488397,1.91759,-0.01268281,1.0039
206.867,18.16379,-0.01527782,1.91876,-0.01333401,1.00347
207.567,18.184,-0.01527412,1.92448,-0.01312441,1.00304
208.267,18.20416,-0.01581393,1.92302,-0.0120519,1.00261
208.967,18.22431,-0.01792772,1.92815,-0.01024618,1.00218
209.667,18.24437,-0.01787254,1.92241,-0.007962461,1.00175
210.367,18.2645,-0.01784772,1.92123,-0.00551033,1.00131
211.067,18.2846,-0.01745259,1.92797,-0.003256989,1.00088
211.767,18.3047,-0.01654321,1.92504,-0.00150975,1.00044
212.467,18.3248,-0.01654952,1.92105,-0.0004587908,1.0
213.167,18.34486,-0.01654997,1.92505,-0.0001539907,0.99956
213.867,18.36484,-0.01655,1.92519,-0.0005202777,0.99911
214.567,18.3848,-0.01655,1.93171,-0.00138836,0.99867
215.267,18.40476,-0.01654998,1.93195,-0.002523255,0.99823
215.967,18.42474,-0.01654976,1.93347,-0.003677401,0.99778
216.667,18.44472,-0.01654666,1.9299,-0.004638446,0.99733
217.367,18.4647,-0.01650362,1.92906,-0.0052648,0.99688
218.067,18.48461,-0.01757761,1.93828,-0.00550908,0.99643
218.767,18.50449,-0.01785632,1.93683,-0.005409798,0.99598
219.467,18.52439,-0.01786901,1.94092,-0.005068269,0.99553
220.167,18.54413,-0.01787,1.94162,-0.004627056,0.99507
220.867,18.564,-0.01787094,1.9395,-0.004214454,0.99462
221.567,18.58393,-0.01788276,1.93958,-0.003941297,0.99416
222.267,18.60379,-0.01726964,1.92225,-0.003869529,0.9937
222.967,18.6237,-0.01693377,1.93136,-0.00399958,0.99324
223.667,18.64356,-0.0182974,1.92674,-0.004272791,0.99278
224.367,18.6634,-0.01820702,1.94074,-0.004593075,0.99232
225.067,18.68316,-0.01820049,1.93252,-0.00485383,0.99185
225.767,18.7029,-0.01820003,1.93332,-0.004959433,0.99139
226.467,18.7226,-0.01819998,1.92301,-0.004834755,0.99092
227.167,18.74235,-0.01819977,1.91872,-0.004435721,0.99045
227.867,18.76205,-0.01819724,1.92762,-0.003766937,0.98998
228.567,18.78173,-0.01869404,1.92264,-0.002896592,0.98951
229.267,18.8015,-0.01950204,1.92434,-0.00195462,0.98904
229.967,18.82124,-0.01951292,1.91788,-0.001131896,0.98857
230.667,18.841,-0.01945414,1.9152,-0.0006308278,0.98809
231.367,18.8607,-0.01819751,1.9113,-0.000629508,0.98762
232.067,18.88032,-0.01819991,1.90816,-0.00122309,0.98714
232.767,18.8999,-0.0182,1.9022,-0.00241473,0.98666
233.467,18.91949,-0.01820002,1.90728,-0.004118955,0.98618
234.167,18.93906,-0.01820047,1.89523,-0.00616634,0.9857
234.867,18.95865,-0.01820868,1.89094,-0.008343005,0.98522
235.567,18.9783,-0.01871777,1.89826,-0.01043002,0.98474
236.267,18.99791,-0.01954127,1.89002,-0.01222423,0.98425
236.967,19.01746,-0.01952359,1.89778,-0.01356339,0.98377
237.667,19.037,-0.01954522,1.88627,-0.01433679,0.98328
238.367,19.0565,-0.02015478,1.88778,-0.01447437,0.98279
239.067,19.07605,-0.0208473,1.88397,-0.01395583,0.9823
239.767,19.09551,-0.02086593,1.87988,-0.01281384,0.98181
240.467,19.11505,-0.02130824,1.87329,-0.01111969,0.98132
241.167,19.1346,-0.02216683,1.88396,-0.009024809,0.98083
241.867,19.15411,-0.02216053,1.87775,-0.006764655,0.98033
242.567,19.1736,-0.02216043,1.87409,-0.004611403,0.97984
243.267,19.19304,-0.02216468,1.87279,-0.00283043,0.97934
243.967,19.21247,-0.02221239,1.86179,-0.001648423,0.97885
244.667,19.23188,-0.02108752,1.86786,-0.00120925,0.97835
245.367,19.25132,-0.02116533,1.86079,-0.00158069,0.97785
246.067,19.2708,-0.02116978,1.86725,-0.002736759,0.97735
246.767,19.2902,-0.02116999,1.85893,-0.004543859,0.97684
247.467,19.30958,-0.02117003,1.85934,-0.00681088,0.97634
248.167,19.32904,-0.0211709,1.84424,-0.009329629,0.97584
248.867,19.34842,-0.02138514,1.84768,-0.01185807,0.97533
249.567,19.36775,-0.02253317,1.85209,-0.01420209,0.97482
250.267,19.38711,-0.02249369,1.84261,-0.01620976,0.97432
250.967,19.40645,-0.02248528,1.85305,-0.01776404,0.97381
251.667,19.42576,-0.02241974,1.84286,-0.01882008,0.9733
252.367,19.4451,-0.02420648,1.84525,-0.0194036,0.97278
253.067,19.46443,-0.02511534,1.84487,-0.01959034,0.97227
253.767,19.48372,-0.0251104,1.83537,-0.01949606,0.97176
254.467,19.50304,-0.02511011,1.83569,-0.01924997,0.97124
255.167,19.52233,-0.02511085,1.82924,-0.01897448,0.97073
255.867,19.54164,-0.02511942,1.81979,-0.0187604,0.97021
256.567,19.56101,-0.02647829,1.81053,-0.01866432,0.96969
257.267,19.58031,-0.02643104,1.79932,-0.01871608,0.96918
257.967,19.59959,-0.02643265,1.78902,-0.01893238,0.96866
258.667,19.61885,-0.02698159,1.76877,-0.01934377,0.96813
259.367,19.6381,-0.0279879,1.7379,-0.02000637,0.96761
260.067,19.65725,-0.02796247,1.68289,-0.02099307,0.96709
260.767,19.67651,-0.02795332,1.60939,-0.02239939,0.96657
261.467,19.6957,-0.02786422,1.51199,-0.02434035,0.96604
262.167,19.71495,-0.02921459,1.4442,-0.0269907,0.96551
262.867,19.73416,-0.02929929,1.41538,-0.03051562,0.96499
263.567,19.7534,-0.02956644,1.42169,-0.03508263,0.96446
264.267,19.77262,-0.03060578,1.43743,-0.04078565,0.96393
264.967,19.79184,-0.03111588,1.47389,-0.04767702,0.9634
265.667,19.811,-0.03075911,1.52892,-0.05565957,0.96287
266.367,19.8302,-0.03225996,1.59178,-0.06453912,0.96233
267.067,19.84916,-0.03248696,1.66174,-0.07393954,0.9618
267.767,19.86818,-0.03394688,1.71864,-0.08358432,0.96127
268.467,19.8873,-0.03576349,1.77931,-0.09314446,0.96073
269.167,19.90651,-0.0391943,1.8464,-0.10226,0.9602
269.867,19.9257,-0.04224795,1.90348,-0.11068,0.95966
270.567,19.94502,-0.04426231,1.97857,-0.11838,0.95912
271.267,19.96425,-0.04629417,2.02599,-0.12533,0.95858
271.967,19.98339,-0.04840919,2.07907,-0.13167,0.95804
272.667,20.00251,-0.05081754,2.13373,-0.13761,0.9575
273.367,20.0216,-0.05337872,2.19151,-0.14328,0.95696
274.067,20.0408,-0.05692958,2.22671,-0.14882,0.95641
274.767,20.0599,-0.06085305,2.28805,-0.15427,0.95587
275.467,20.07902,-0.0627207,2.33594,-0.15966,0.95533
276.167,20.09814,-0.06495655,2.39441,-0.16498,0.95478
276.867,20.11723,-0.06763494,2.44391,-0.17019,0.95423
277.567,20.13636,-0.07248556,2.4882,-0.17528,0.95368
278.267,20.15542,-0.07649431,2.54018,-0.18019,0.95314
278.967,20.1745,-0.07977079,2.60354,-0.18502,0.95259
279.667,20.19363,-0.08226369,2.65595,-0.18989,0.95204
280.367,20.2127,-0.0860762,2.71517,-0.19494,0.95148
281.067,20.23179,-0.09107294,2.77712,-0.20036,0.95093
281.767,20.25089,-0.09476042,2.82609,-0.20629,0.95038
282.467,20.27,-0.097945,2.8853,-0.21279,0.94983
283.167,20.28912,-0.10136,2.94218,-0.21972,0.94927
283.867,20.30825,-0.10517,3.00861,-0.22688,0.94872
284.567,20.32744,-0.10939,3.06419,-0.23397,0.94816
285.267,20.34654,-0.1134,3.12581,-0.24057,0.9476
285.967,20.36569,-0.11964,3.19075,-0.2465,0.94704
286.667,20.38477,-0.12609,3.24643,-0.2516,0.94648
287.367,20.40384,-0.1321,3.31678,-0.25598,0.94592
288.067,20.42289,-0.1359,3.36688,-0.25991,0.94536
288.767,20.44194,-0.14053,3.43496,-0.26375,0.9448
289.467,20.46107,-0.14432,3.49762,-0.26786,0.94424
290.167,20.4802,-0.14888,3.56526,-0.27255,0.94368
290.867,20.4993,-0.15429,3.62942,-0.27801,0.94311
291.567,20.5184,-0.16019,3.68837,-0.28435,0.94255
292.267,20.5375,-0.16582,3.75012,-0.29152,0.94198
292.967,20.5566,-0.17194,3.81819,-0.29949,0.94141
293.667,20.57574,-0.17633,3.87279,-0.30809,0.94085
294.367,20.59485,-0.1818,3.93687,-0.31719,0.94028
295.067,20.61392,-0.18738,3.99514,-0.32661,0.93971
295.767,20.633,-0.19566,4.07257,-0.33627,0.93914
296.467,20.6521,-0.20186,4.13585,-0.34605,0.93857
297.167,20.6712,-0.20879,4.19856,-0.35588,0.938
297.867,20.69035,-0.21467,4.26075,-0.36572,0.93743
298.567,20.70949,-0.22279,4.33346,-0.37557,0.93685
299.267,20.72857,-0.22916,4.40022,-0.38549,0.93628
299.967,20.74766,-0.23749,4.47556,-0.39563,0.93571
300.667,20.7668,-0.24443,4.55901,-0.40614,0.93513
301.367,20.7859,-0.25277,4.62761,-0.41712,0.93455
302.067,20.80493,-0.26002,4.70004,-0.42869,0.93398
302.767,20.8241,-0.26866,4.78385,-0.44099,0.9334
303.467,20.8431,-0.27657,4.87529,-0.4539,0.93282
304.167,20.86216,-0.28486,4.95237,-0.46742,0.93224
304.867,20.88121,-0.29324,5.03824,-0.48143,0.93167
305.567,20.90029,-0.30303,5.12233,-0.49585,0.93109
306.267,20.91936,-0.31365,5.20735,-0.51057,0.9305
306.967,20.93844,-0.32341,5.31311,-0.52559,0.92992
307.667,20.9575,-0.33323,5.39572,-0.54093,0.92934
308.367,20.97662,-0.34284,5.50347,-0.55673,0.92876
309.067,20.99571,-0.35521,5.59507,-0.57311,0.92817
309.767,21.0148,-0.36548,5.68207,-0.59017,0.92759
310.467,21.03386,-0.3775,5.78432,-0.60807,0.92701
311.167,21.05294,-0.3861,5.88479,-0.62675,0.92642
311.867,21.072,-0.39996,5.99997,-0.64614,0.92583
312.567,21.09105,-0.41135,6.09376,-0.66611,0.92525
313.267,21.11008,-0.42662,6.21166,-0.68648,0.92466
313.967,21.1292,-0.43853,6.30469,-0.70723,0.92407
314.667,21.1482,-0.45318,6.41787,-0.72814,0.92348
315.367,21.1673,-0.46569,6.53477,-0.74921,0.92289
316.067,21.1864,-0.48152,6.6426,-0.77049,0.9223
316.767,21.2055,-0.49486,6.74475,-0.79187,0.92171
317.467,21.22458,-0.51117,6.86638,-0.81343,0.92112
318.167,21.2437,-0.52602,6.97133,-0.83506,0.92053
318.867,21.26275,-0.54302,7.09842,-0.85676,0.91994
319.567,21.28185,-0.55869,7.21341,-0.87849,0.91934
320.267,21.30096,-0.57602,7.32863,-0.90023,0.91875
320.967,21.32001,-0.59396,7.44454,-0.92186,0.91816
321.667,21.3391,-0.61123,7.55861,-0.94358,0.91756
322.367,21.35823,-0.62976,7.67558,-0.96537,0.91697
323.067,21.37732,-0.64757,7.78573,-0.98728,0.91637
323.767,21.39641,-0.66879,7.90653,-1.00939,0.91577
324.467,21.41554,-0.686,8.01471,-1.03169,0.91518
325.167,21.43458,-0.70709,8.10708,-1.05394,0.91458
325.867,21.4537,-0.72521,8.22204,-1.07615,0.91398
326.567,21.47275,-0.74889,8.32209,-1.09803,0.91338
327.267,21.49191,-0.76803,8.4046,-1.11943,0.91278
327.967,21.511,-0.79251,8.4779,-1.14001,0.91218
328.667,21.53021,-0.81257,8.54727,-1.15971,0.91158
329.367,21.54932,-0.83738,8.5963,-1.17826,0.91098
330.067,21.56847,-0.8579,8.63875,-1.19574,0.91038
330.767,21.58752,-0.88361,8.67774,-1.21196,0.90978
331.467,21.60664,-0.90436,8.71126,-1.22704,0.90917
332.167,21.62572,-0.92968,8.76069,-1.24088,0.90857
332.867,21.64483,-0.95187,8.79448,-1.25357,0.90797
333.567,21.66396,-0.97839,8.82529,-1.26524,0.90736
334.267,21.6831,-1.00157,8.85161,-1.27603,0.90676
334.967,21.70222,-1.02735,8.84112,-1.28617,0.90615
335.667,21.72135,-1.05211,8.87201,-1.29594,0.90555
336.367,21.74043,-1.07621,8.89668,-1.30552,0.90494
337.067,21.7595,-1.10084,8.89245,-1.315,0.90434
337.767,21.7786,-1.12448,8.89585,-1.32427,0.90373
338.467,21.79765,-1.15035,8.90449,-1.33308,0.90312
339.167,21.81682,-1.17458,8.89229,-1.34108,0.90251
339.867,21.836,-1.20461,8.88562,-1.34779,0.90191
340.567,21.8552,-1.22979,8.87354,-1.35283,0.9013
341.267,21.87441,-1.25858,8.83806,-1.35596,0.90069
341.967,21.89358,-1.28141,8.80534,-1.3571,0.90008
342.667,21.9127,-1.31085,8.77161,-1.35635,0.89947
343.367,21.9318,-1.33424,8.73407,-1.35389,0.89886
344.067,21.95097,-1.36315,8.68094,-1.34997,0.89825
344.767,21.97012,-1.38604,8.62232,-1.34481,0.89764
345.467,21.98925,-1.41553,8.56812,-1.33861,0.89702
346.167,22.00851,-1.43815,8.50013,-1.33144,0.89641
346.867,22.02776,-1.46594,8.41756,-1.32342,0.8958
347.567,22.04694,-1.48862,8.34064,-1.31467,0.89519
348.267,22.06616,-1.51657,8.25559,-1.30517,0.89457
348.967,22.08537,-1.53993,8.17054,-1.295,0.89396
349.667,22.10454,-1.56656,8.06729,-1.2842,0.89334
350.367,22.1237,-1.58958,7.97706,-1.27276,0.89273
351.067,22.14295,-1.61459,7.86188,-1.26058,0.89211
351.767,22.16214,-1.63745,7.73894,-1.24763,0.8915
352.467,22.18136,-1.6617,7.6045,-1.23372,0.89088
353.167,22.20052,-1.68553,7.47075,-1.21876,0.89027
353.867,22.2197,-1.709,7.33623,-1.20262,0.88965
354.567,22.2389,-1.73411,7.17517,-1.18529,0.88904
355.267,22.25808,-1.75576,7.02613,-1.16684,0.88842
355.967,22.2773,-1.77875,6.86129,-1.14745,0.8878
356.667,22.2965,-1.79919,6.69714,-1.12732,0.88718
357.367,22.31566,-1.82258,6.53327,-1.10661,0.88656
358.067,22.33485,-1.84201,6.34506,-1.08543,0.88595
358.767,22.35406,-1.8646,6.15318,-1.06375,0.88533
359.467,22.3733,-1.8814,5.95286,-1.0414,0.88471
360.167,22.39255,-1.90406,5.75256,-1.01821,0.88409
360.867,22.4118,-1.92216,5.53457,-0.9939,0.88347
361.567,22.4311,-1.94448,5.3108,-0.96824,0.88285
362.267,22.45034,-1.96042,5.07102,-0.94131,0.88223
362.967,22.46961,-1.98135,4.88345,-0.91302,0.88161
363.667,22.4889,-1.9963,4.63047,-0.88365,0.88099
364.367,22.5082,-2.01523,4.3595,-0.85337,0.88037
365.067,22.52749,-2.02958,4.0755,-0.82254,0.87975
365.767,22.54682,-2.04684,3.79237,-0.79123,0.87912
366.467,22.56614,-2.05981,3.48876,-0.75957,0.8785
367.167,22.58545,-2.07458,3.18437,-0.72757,0.87788
367.867,22.60473,-2.08704,2.87775,-0.69515,0.87726
368.567,22.62398,-2.10198,2.57796,-0.66227,0.87663
369.267,22.64327,-2.11481,2.27943,-0.62875,0.87601
369.967,22.6626,-2.12774,1.95246,-0.5948,0.87539
370.667,22.68187,-2.13843,1.65262,-0.56066,0.87477
371.367,22.70116,-2.14852,1.373,-0.52674,0.87414
372.067,22.7205,-2.15738,1.0837,-0.49331,0.87352
372.767,22.73984,-2.16622,0.80549,-0.46081,0.87289
373.467,22.7591,-2.17482,0.55027,-0.42978,0.87227
374.167,22.77844,-2.18314,0.29828,-0.40019,0.87164
374.867,22.7977,-2.19069,0.06725678,-0.37243,0.87102
375.567,22.81703,-2.19658,-0.1462,-0.34649,0.8704
376.267,22.83636,-2.20227,-0.34635,-0.32233,0.86977
376.967,22.8557,-2.20749,-0.52599,-0.29995,0.86914
377.667,22.87508,-2.21337,-0.69233,-0.27918,0.86852
378.367,22.8944,-2.21827,-0.84635,-0.26001,0.86789
379.067,22.91376,-2.22349,-0.98327,-0.2422,0.86727
379.767,22.9331,-2.22759,-1.10627,-0.22572,0.86664
380.467,22.95243,-2.2324,-1.20391,-0.21049,0.86601
381.167,22.9719,-2.23553,-1.29723,-0.19639,0.86539
381.867,22.99126,-2.23817,-1.36691,-0.18356,0.86476
382.567,23.01063,-2.24129,-1.43279,-0.17197,0.86414
383.267,23.0301,-2.24528,-1.4845,-0.16157,0.86351
383.967,23.04948,-2.24848,-1.52429,-0.15239,0.86288
384.667,23.06891,-2.25038,-1.56351,-0.14436,0.86225
385.367,23.08835,-2.25261,-1.5592,-0.13742,0.86163
386.067,23.10783,-2.25538,-1.58484,-0.13148,0.861
386.767,23.12732,-2.25771,-1.59482,-0.12643,0.86037
387.467,23.14678,-2.25991,-1.60477,-0.12213,0.85974
388.167,23.16626,-2.26233,-1.61595,-0.11837,0.85912
388.867,23.18571,-2.26472,-1.60403,-0.11493,0.85849
389.567,23.20512,-2.26608,-1.60087,-0.1116,0.85786
390.267,23.22466,-2.26815,-1.60414,-0.10817,0.85723
390.967,23.24419,-2.2713,-1.60453,-0.10459,0.8566
391.667,23.2637,-2.27412,-1.59804,-0.10084,0.85597
392.367,23.28327,-2.27615,-1.59201,-0.09701448,0.85535
393.067,23.30282,-2.27743,-1.59064,-0.09331423,0.85472
393.767,23.32232,-2.27901,-1.58438,-0.08995512,0.85409
394.467,23.34185,-2.2802,-1.59252,-0.08710656,0.85346
395.167,23.36143,-2.28099,-1.58121,-0.08490703,0.85283
395.867,23.38094,-2.28268,-1.57545,-0.08345903,0.8522
396.567,23.40053,-2.28461,-1.57432,-0.08278437,0.85157
397.267,23.42013,-2.28685,-1.57352,-0.0828677,0.85094
397.967,23.43971,-2.28838,-1.57459,-0.08362482,0.85031
398.667,23.45935,-2.28882,-1.58699,-0.08490046,0.84969
399.367,23.479,-2.29038,-1.57706,-0.086467,0.84906
400.067,23.49859,-2.29226,-1.59166,-0.08805183,0.84843
400.767,23.51813,-2.29456,-1.5832,-0.08942114,0.8478
401.467,23.53781,-2.29682,-1.59381,-0.09038741,0.84717
402.167,23.55744,-2.29878,-1.59053,-0.09081798,0.84654
402.867,23.57706,-2.30103,-1.59302,-0.090706,0.84591
403.567,23.5969,-2.30312,-1.60238,-0.09014302,0.84528
404.267,23.61656,-2.30398,-1.59947,-0.08929957,0.84465
404.967,23.63625,-2.30576,-1.6118,-0.08833292,0.84402
405.667,23.65596,-2.30652,-1.60139,-0.08736249,0.84339
406.367,23.6756,-2.30821,-1.60246,-0.08645429,0.84276
407.067,23.69535,-2.31084,-1.60749,-0.085623,0.84213
407.767,23.71508,-2.31287,-1.6058,-0.08488267,0.8415
408.467,23.73475,-2.31477,-1.61072,-0.08428579,0.84087
409.167,23.75446,-2.31597,-1.60928,-0.08393408,0.84024
409.867,23.77421,-2.31681,-1.62182,-0.08396317,0.83961
410.567,23.7939,-2.31933,-1.62182,-0.08448576,0.83898
411.267,23.8137,-2.32054,-1.6218,-0.08554917,0.83835
411.967,23.83345,-2.32166,-1.63263,-0.0870851,0.83773
412.667,23.85318,-2.32272,-1.65117,-0.08890237,0.8371
413.367,23.87298,-2.3247,-1.65513,-0.09074776,0.83647
414.067,23.89272,-2.32659,-1.6542,-0.09233423,0.83584
414.767,23.9125,-2.32939,-1.66546,-0.09346631,0.83521
415.467,23.93223,-2.33199,-1.67697,-0.09407748,0.83458
416.167,23.952,-2.33385,-1.68871,-0.09426408,0.83395
416.867,23.97175,-2.33535,-1.69045,-0.09426221,0.83332
417.567,23.99157,-2.33716,-1.705,-0.09437612,0.83269
418.267,24.01139,-2.3392,-1.71327,-0.09489102,0.83206
418.967,24.03124,-2.34049,-1.73063,-0.09600261,0.83143
419.667,24.05115,-2.34128,-1.73764,-0.09778465,0.8308
420.367,24.07102,-2.34303,-1.74911,-0.10016,0.83018
421.067,24.0909,-2.34585,-1.75983,-0.10294,0.82955
421.767,24.11073,-2.34826,-1.77708,-0.10587,0.82892
422.467,24.13063,-2.34987,-1.77424,-0.10872,0.82829
423.167,24.15045,-2.35195,-1.79317,-0.11128,0.82766
423.867,24.17033,-2.35466,-1.8074,-0.11347,0.82703
424.567,24.19024,-2.3575,-1.82711,-0.11525,0.8264
425.267,24.21014,-2.36012,-1.83493,-0.11672,0.82578
425.967,24.23004,-2.36253,-1.85112,-0.11804,0.82515
426.667,24.24995,-2.36493,-1.86913,-0.11939,0.82452
427.367,24.26986,-2.367,-1.87965,-0.12097,0.82389
428.067,24.2898,-2.36898,-1.90142,-0.12297,0.82326
428.767,24.30977,-2.37106,-1.91773,-0.12544,0.82264
429.467,24.3297,-2.37303,-1.93421,-0.12834,0.82201
430.167,24.34969,-2.37575,-1.94838,-0.1315,0.82138
430.867,24.36964,-2.3784,-1.98075,-0.1347,0.82075
431.567,24.38961,-2.38134,-1.98479,-0.13773,0.82013
432.267,24.40963,-2.38537,-2.01079,-0.14042,0.8195
432.967,24.4296,-2.388,-2.01421,-0.14268,0.81887
433.667,24.44963,-2.39066,-2.03577,-0.14457,0.81825
434.367,24.46965,-2.39375,-2.05168,-0.14624,0.81762
435.067,24.48963,-2.39704,-2.07233,-0.14787,0.81699
435.767,24.50966,-2.39968,-2.08991,-0.14965,0.81637
436.467,24.5297,-2.40186,-2.1096,-0.15174,0.81574
437.167,24.54973,-2.40437,-2.13284,-0.15422,0.81512
437.867,24.5698,-2.40821,-2.14227,-0.15713,0.81449
438.567,24.58986,-2.41199,-2.1597,-0.16051,0.81386
439.267,24.60991,-2.41517,-2.16145,-0.16435,0.81324
439.967,24.63,-2.41748,-2.17818,-0.16867,0.81261
440.667,24.65009,-2.42134,-2.20345,-0.17343,0.81199
441.367,24.67024,-2.42489,-2.20594,-0.17855,0.81136
442.067,24.6904,-2.42818,-2.21655,-0.18386,0.81074
442.767,24.71044,-2.43102,-2.23306,-0.1892,0.81012
443.467,24.7306,-2.4354,-2.23447,-0.19443,0.80949
444.167,24.75076,-2.44078,-2.24589,-0.19937,0.80887
444.867,24.77081,-2.44435,-2.25243,-0.20401,0.80824
445.567,24.79089,-2.44845,-2.24827,-0.20845,0.80762
446.267,24.81097,-2.45295,-2.25344,-0.21285,0.807
446.967,24.831,-2.45735,-2.23968,-0.21743,0.80637
447.667,24.8511,-2.46144,-2.23762,-0.22236,0.80575
448.367,24.87132,-2.46465,-2.23357,-0.22774,0.80513
449.067,24.89152,-2.46948,-2.22856,-0.23353,0.80451
449.767,24.9117,-2.47544,-2.20559,-0.23973,0.80388
450.467,24.9319,-2.47934,-2.18977,-0.2463,0.80326
451.167,24.95211,-2.48498,-2.16669,-0.25325,0.80264
451.867,24.97232,-2.49043,-2.14605,-0.26065,0.80202
452.567,24.99256,-2.49648,-2.11723,-0.26856,0.8014
453.267,25.0128,-2.50048,-2.1011,-0.27703,0.80078
453.967,25.03306,-2.50549,-2.049,-0.28595,0.80016
454.667,25.05334,-2.51044,-2.0264,-0.29518,0.79954
455.367,25.0736,-2.51751,-1.98028,-0.30446,0.79892
456.067,25.09391,-2.52383,-1.94349,-0.3136,0.7983
456.767,25.11413,-2.53264,-1.89672,-0.32242,0.79768
457.467,25.13443,-2.53798,-1.84984,-0.33092,0.79706
458.167,25.15471,-2.54477,-1.79223,-0.33908,0.79644
458.867,25.17499,-2.55158,-1.73738,-0.34697,0.79582
459.567,25.19529,-2.55893,-1.68038,-0.35475,0.7952
460.267,25.21562,-2.56478,-1.62261,-0.36243,0.79458
460.967,25.236,-2.57271,-1.5598,-0.36987,0.79396
461.667,25.25635,-2.58044,-1.48361,-0.37668,0.79335
462.367,25.27671,-2.58954,-1.41979,-0.38244,0.79273
463.067,25.2971,-2.59692,-1.35866,-0.38672,0.79211
463.767,25.31741,-2.60466,-1.26017,-0.38935,0.7915
464.467,25.33778,-2.61174,-1.2078,-0.39055,0.79088
465.167,25.35819,-2.62133,-1.11415,-0.3909,0.79026
465.867,25.37864,-2.63331,-1.036,-0.39135,0.78965
466.567,25.3991,-2.64403,-0.97319,-0.39292,0.78903
467.267,25.4195,-2.64715,-0.89676,-0.39645,0.78842
467.967,25.44006,-2.64783,-0.82685,-0.4023,0.7878
468.667,25.46055,-2.6548,-0.75546,-0.41012,0.78719
469.367,25.481,-2.66597,-0.68011,-0.41895,0.78657
470.067,25.50143,-2.67742,-0.60916,-0.42765,0.78596
470.767,25.52185,-2.68824,-0.52841,-0.43505,0.78535
471.467,25.54226,-2.69906,-0.46119,-0.44045,0.78473
472.167,25.56279,-2.70688,-0.3827,-0.44363,0.78412
472.867,25.5833,-2.71537,-0.33276,-0.44476,0.78351
473.567,25.60383,-2.72407,-0.26493,-0.44443,0.7829
474.267,25.62434,-2.73407,-0.21954,-0.44329,0.78229
474.967,25.64489,-2.74286,-0.18104,-0.442,0.78167
475.667,25.66549,-2.75217,-0.14696,-0.44104,0.78106
476.367,25.686,-2.76036,-0.1043,-0.44064,0.78045
477.067,25.7066,-2.77062,-0.0550225,-0.44087,0.77984
477.767,25.72719,-2.77845,-0.003928745,-0.44168,0.77923
478.467,25.74782,-2.78756,0.06552579,-0.44303,0.77862
479.167,25.7684,-2.79562,0.13224,-0.44489,0.77801
479.867,25.7891,-2.80682,0.1864,-0.44717,0.77741
480.567,25.80966,-2.81559,0.23144,-0.44957,0.7768
481.267,25.83024,-2.82539,0.27076,-0.45159,0.77619
481.967,25.85085,-2.83309,0.31448,-0.45256,0.77558
482.667,25.87145,-2.84258,0.35088,-0.45181,0.77498
483.367,25.8921,-2.85103,0.37393,-0.44878,0.77437
484.067,25.91275,-2.86218,0.38741,-0.44326,0.77376
484.767,25.9334,-2.87227,0.41196,-0.43555,0.77316
485.467,25.95411,-2.8858,0.40213,-0.42657,0.77255
486.167,25.97476,-2.89806,0.3867,-0.41767,0.77195
486.867,25.99531,-2.90193,0.36036,-0.41023,0.77134
487.567,26.01601,-2.90151,0.33559,-0.40515,0.77074
488.267,26.03673,-2.90811,0.29093,-0.40285,0.77013
488.967,26.05753,-2.92,0.24137,-0.40293,0.76953
489.667,26.07841,-2.93094,0.20606,-0.40443,0.76893
490.367,26.09914,-2.9391,0.18769,-0.40615,0.76833
491.067,26.11988,-2.94788,0.16509,-0.40706,0.76772
491.767,26.14058,-2.95699,0.14512,-0.40654,0.76712
492.467,26.16132,-2.96512,0.11088,-0.40442,0.76652
493.167,26.18212,-2.97365,0.08085966,-0.40088,0.76592
493.867,26.20295,-2.98238,0.08524665,-0.39634,0.76532
494.567,26.22372,-2.99102,0.06369574,-0.39126,0.76472
495.267,26.24451,-2.99792,0.01480625,-0.38597,0.76412
495.967,26.2653,-3.00592,-0.0300672,-0.3806,0.76352
496.667,26.2861,-3.01365,-0.05302212,-0.37511,0.76292
497.367,26.307,-3.02259,-0.05989247,-0.36945,0.76232
498.067,26.32791,-3.02935,-0.08267897,-0.36362,0.76173
498.767,26.3487,-3.03765,-0.12047,-0.35762,0.76113
499.467,26.3696,-3.04452,-0.13761,-0.35135,0.76053
500.167,26.39044,-3.05272,-0.17698,-0.34486,0.75994
500.867,26.4113,-3.05913,-0.19885,-0.33817,0.75934
501.567,26.4322,-3.06636,-0.22841,-0.33137,0.75875
502.267,26.45308,-3.07229,-0.24485,-0.32453,0.75815
502.967,26.474,-3.08012,-0.28564,-0.31771,0.75756
503.667,26.4948,-3.08631,-0.30995,-0.31097,0.75696
504.367,26.5157,-3.09301,-0.35406,-0.30433,0.75637
505.067,26.53665,-3.09861,-0.42321,-0.29776,0.75578
505.767,26.55759,-3.1051,-0.50983,-0.29128,0.75518
506.467,26.57848,-3.11066,-0.53876,-0.28485,0.75459
507.167,26.59944,-3.11681,-0.58172,-0.27838,0.754
507.867,26.6203,-3.12276,-0.62454,-0.27186,0.75341
508.567,26.64125,-3.12829,-0.65228,-0.26523,0.75282
509.267,26.6623,-3.13391,-0.68785,-0.25843,0.75223
509.967,26.6832,-3.13944,-0.72048,-0.25154,0.75164
510.667,26.7042,-3.14486,-0.75433,-0.24459,0.75105
511.367,26.72522,-3.14925,-0.80089,-0.23769,0.75046
512.067,26.7462,-3.15453,-0.84232,-0.231,0.74988
512.767,26.7672,-3.1589,-0.88966,-0.22471,0.74929
513.467,26.78821,-3.16429,-0.9327,-0.21899,0.7487
514.167,26.8092,-3.16885,-0.99148,-0.21397,0.74812
514.867,26.83023,-3.17301,-1.0313,-0.20973,0.74753
515.567,26.85124,-3.17577,-1.0881,-0.20622,0.74695
516.267,26.87225,-3.17959,-1.1176,-0.20326,0.74636
516.967,26.8933,-3.1844,-1.17046,-0.20053,0.74578
517.667,26.9143,-3.18916,-1.20589,-0.19764,0.74519
518.367,26.93533,-3.194,-1.24562,-0.19415,0.74461
519.067,26.95638,-3.19762,-1.27287,-0.18978,0.74403
519.767,26.97751,-3.20228,-1.32218,-0.18435,0.74345
520.467,26.99861,-3.20603,-1.36979,-0.17795,0.74287
521.167,27.0197,-3.20955,-1.41284,-0.17082,0.74228
521.867,27.04082,-3.21412,-1.45704,-0.1634,0.7417
522.567,27.0619,-3.21796,-1.49662,-0.15622,0.74112
523.267,27.08302,-3.22018,-1.53664,-0.14974,0.74055
523.967,27.1041,-3.22148,-1.57632,-0.14427,0.73997
524.667,27.12521,-3.22427,-1.60166,-0.13979,0.73939
525.367,27.1464,-3.22792,-1.63814,-0.13611,0.73881
526.067,27.16753,-3.23099,-1.68436,-0.13298,0.73823
526.767,27.1887,-3.2338,-1.71278,-0.1301,0.73766
527.467,27.2098,-3.23636,-1.7551,-0.12709,0.73708
528.167,27.2309,-3.23919,-1.78906,-0.12348,0.73651
528.867,27.2521,-3.24214,-1.82564,-0.11884,0.73593
529.567,27.2732,-3.24444,-1.85408,-0.11281,0.73536
530.267,27.29438,-3.24614,-1.88727,-0.10521,0.73478
530.967,27.3156,-3.24755,-1.91379,-0.09621886,0.73421
531.667,27.33683,-3.25111,-1.93984,-0.08656436,0.73364
532.367,27.35807,-3.25816,-1.96996,-0.0773038,0.73307
533.067,27.37926,-3.26222,-1.9976,-0.06975572,0.7325
533.767,27.40043,-3.25671,-2.0412,-0.06500011,0.73193
534.467,27.42162,-3.25021,-2.06836,-0.06352562,0.73136
535.167,27.44275,-3.2509,-2.09645,-0.06500481,0.73079
535.867,27.464,-3.25562,-2.1133,-0.06841743,0.73022
536.567,27.48525,-3.25961,-2.13039,-0.07236668,0.72965
537.267,27.5064,-3.26274,-2.15944,-0.07556861,0.72908
537.967,27.52768,-3.26565,-2.18389,-0.07722909,0.72852
538.667,27.54888,-3.26664,-2.21046,-0.07710443,0.72795
539.367,27.5701,-3.26721,-2.23109,-0.07545694,0.72738
540.067,27.5914,-3.26923,-2.2512,-0.0727925,0.72682
540.767,27.6127,-3.27014,-2.27343,-0.0696362,0.72625
541.467,27.634,-3.27091,-2.2944,-0.06637926,0.72569
542.167,27.65537,-3.27261,-2.3237,-0.0631174,0.72513
542.867,27.67666,-3.27487,-2.32562,-0.0597731,0.72456
543.567,27.6979,-3.27649,-2.35655,-0.05628752,0.724
544.267,27.7192,-3.27769,-2.37374,-0.05276594,0.72344
544.967,27.74052,-3.27774,-2.37924,-0.04937595,0.72288
545.667,27.76186,-3.27948,-2.38015,-0.0463045,0.72232
546.367,27.78316,-3.28035,-2.39953,-0.04368597,0.72176
547.067,27.80453,-3.2808,-2.41037,-0.04155885,0.7212
547.767,27.8258,-3.28073,-2.43245,-0.03987795,0.72064
548.467,27.84713,-3.28219,-2.4452,-0.03847196,0.72009
549.167,27.86846,-3.28244,-2.44796,-0.03714537,0.71953
549.867,27.8898,-3.28378,-2.47984,-0.03572532,0.71897
550.567,27.9112,-3.28536,-2.49113,-0.03412249,0.71842
551.267,27.93255,-3.28609,-2.50935,-0.03238295,0.71786
551.967,27.95393,-3.28611,-2.56487,-0.03064097,0.71731
552.667,27.97532,-3.28745,-2.6631,-0.02907351,0.71675
553.367,27.9967,-3.28751,-2.74273,-0.02783804,0.7162
554.067,28.0182,-3.28751,-2.8075,-0.02700749,0.71565
554.767,28.0396,-3.28751,-2.85365,-0.02654247,0.7151
555.467,28.061,-3.28827,-2.89855,-0.02627262,0.71455
556.167,28.0824,-3.28923,-2.95055,-0.02597951,0.71399
556.867,28.10383,-3.2906,-2.96232,-0.02547961,0.71344
557.567,28.12528,-3.29061,-2.99143,-0.02469062,0.7129
558.267,28.1467,-3.29123,-3.00539,-0.02365833,0.71235
558.967,28.16821,-3.2919,-3.01223,-0.02256152,0.7118
559.667,28.18967,-3.29252,-3.03857,-0.02166824,0.71125
560.367,28.21108,-3.29321,-3.05784,-0.02122455,0.71071
561.067,28.23252,-3.29278,-3.08147,-0.02138818,0.71016
561.767,28.25403,-3.29257,-3.08447,-0.02218332,0.70961
562.467,28.2755,-3.29285,-3.09941,-0.02344936,0.70907
563.167,28.2971,-3.29389,-3.1072,-0.02485713,0.70853
563.867,28.3186,-3.29409,-3.12235,-0.0259708,0.70798
564.567,28.3401,-3.29518,-3.12008,-0.02639488,0.70744
565.267,28.3616,-3.29598,-3.14033,-0.02586574,0.7069
565.967,28.3831,-3.2979,-3.1472,-0.02430217,0.70636
566.667,28.4044,-3.29784,-3.1673,-0.02185567,0.70582
567.367,28.4258,-3.29815,-3.17901,-0.01880353,0.70528
568.067,28.44738,-3.29916,-3.17204,-0.01556781,0.70474
568.767,28.4689,-3.29913,-3.18573,-0.01259816,0.7042
569.467,28.4907,-3.29909,-3.19539,-0.01021119,0.70366
570.167,28.51227,-3.2978,-3.1986,-0.008655329,0.70312
570.867,28.5338,-3.29853,-3.21853,-0.00797527,0.70259
571.567,28.55535,-3.29911,-3.20996,-0.008109678,0.70205
572.267,28.5769,-3.29913,-3.22787,-0.00891344,0.70152
572.967,28.5984,-3.29913,-3.23257,-0.01020756,0.70098
573.667,28.62002,-3.29913,-3.24915,-0.01180162,0.70045
574.367,28.6416,-3.29913,-3.24642,-0.01348781,0.69992
575.067,28.6632,-3.29978,-3.25936,-0.01507685,0.69938
575.767,28.68485,-3.30042,-3.26596,-0.01640487,0.69885
576.467,28.7065,-3.30035,-3.28537,-0.01736219,0.69832
577.167,28.72813,-3.30175,-3.28997,-0.01790876,0.69779
577.867,28.7497,-3.30176,-3.29334,-0.01805649,0.69726
578.567,28.7713,-3.30177,-3.29905,-0.01788152,0.69673
579.267,28.79291,-3.30317,-3.31093,-0.01750145,0.69621
579.967,28.81458,-3.30309,-3.31958,-0.01703509,0.69568
580.667,28.83626,-3.30308,-3.32801,-0.01656672,0.69515
581.367,28.85793,-3.30304,-3.32668,-0.01614355,0.69463
582.067,28.8796,-3.30438,-3.33702,-0.0157858,0.6941
582.767,28.9012,-3.30439,-3.33891,-0.01548645,0.69358
583.467,28.92281,-3.30439,-3.33662,-0.01522061,0.69305
584.167,28.94438,-3.30444,-3.34766,-0.01497762,0.69253
584.867,28.96602,-3.30579,-3.34822,-0.01475466,0.69201
585.567,28.98767,-3.30571,-3.35202,-0.0145596,0.69149
586.267,29.00934,-3.30571,-3.35839,-0.01439228,0.69097
586.967,29.0311,-3.30569,-3.35332,-0.01423419,0.69045
587.667,29.05273,-3.30688,-3.36469,-0.01407377,0.68993
588.367,29.0745,-3.30703,-3.2902,-0.01390177,0.68941
589.067,29.0962,-3.30703,-3.1771,-0.01369308,0.68889
589.767,29.1179,-3.30704,-3.10839,-0.01340956,0.68837
590.467,29.1397,-3.30767,-3.05203,-0.01302238,0.68786
591.167,29.1614,-3.30833,-3.03145,-0.01252505,0.68734
591.867,29.18314,-3.30834,-2.99902,-0.01191599,0.68683
592.567,29.20492,-3.30834,-2.97035,-0.01121669,0.68631
593.267,29.2267,-3.30829,-2.95195,-0.01047403,0.6858
593.967,29.2485,-3.3096,-2.93891,-0.009740055,0.68529
594.667,29.27025,-3.30966,-2.91202,-0.009077695,0.68477
595.367,29.292,-3.30956,-2.91324,-0.008531587,0.68426
596.067,29.31377,-3.30903,-2.91058,-0.00810289,0.68375
596.767,29.3355,-3.30896,-2.89263,-0.00775798,0.68324
597.467,29.35728,-3.3102,-2.8966,-0.00745931,0.68273
598.167,29.37906,-3.31032,-2.89334,-0.00720239,0.68222
598.867,29.4008,-3.31032,-2.88013,-0.007054952,0.68172
599.567,29.42268,-3.31032,-2.87283,-0.007157163,0.68121
600.267,29.44452,-3.31026,-2.87253,-0.00765542,0.6807
600.967,29.46637,-3.31104,-2.86402,-0.00863528,0.6802
601.667,29.48827,-3.31105,-2.85418,-0.01007278,0.67969
602.367,29.51013,-3.30967,-2.84632,-0.01178414,0.67919
603.067,29.532,-3.30963,-2.83894,-0.01345488,0.67869
603.767,29.55385,-3.3116,-2.8272,-0.01471041,0.67818
604.467,29.5757,-3.31227,-2.81935,-0.0152547,0.67768
605.167,29.5976,-3.31246,-2.81676,-0.01496823,0.67718
605.867,29.6195,-3.31362,-2.82325,-0.01394748,0.67668
606.567,29.6413,-3.31357,-2.82125,-0.0124598,0.67618
607.267,29.66317,-3.31365,-2.82955,-0.01082822,0.67568
607.967,29.68501,-3.31361,-2.84599,-0.009367975,0.67518
608.667,29.7068,-3.3136,-2.86946,-0.008300649,0.67469
609.367,29.7287,-3.31335,-2.90256,-0.00770756,0.67419
610.067,29.7506,-3.31367,-2.92204,-0.007556883,0.6737
610.767,29.77255,-3.31426,-2.9836,-0.007697555,0.6732
611.467,29.7945,-3.31427,-3.02815,-0.007892906,0.67271
612.167,29.81642,-3.31427,-3.08707,-0.008149977,0.67221
612.867,29.8383,-3.31427,-3.14623,-0.008444366,0.67172
613.567,29.86022,-3.31428,-3.21737,-0.008619111,0.67123
614.267,29.88219,-3.31562,-3.27724,-0.008043372,0.67074
614.967,29.9042,-3.31558,-3.34553,-0.007364292,0.67025
615.667,29.9262,-3.31558,-3.39634,-0.00663731,0.66976
616.367,29.9482,-3.31559,-3.43845,-0.00197029,0.66927
617.067,29.97017,-3.31559,-3.46147,-8.04847e-05,0.66878
617.767,29.9921,-3.31559,-3.51729,3.435282e-05,0.66829
617.967,29.9983,-3.31559,-3.52821,5.78906e-05,0.66815