File: 01_Data/PVC/STA/N2/30K_min/PVC_STA_N2_30KData_210810_R3.csv
##Temp./Â°C,Time/min,Mass loss(subtr.2)/mg,DSC(subtr.2)/mW,DTG(subtr.2)/(mg/min),Sensit./(uV/mW)
49.379,10.01,0.00669,-0.01230537,-0.07641981,1.05401
50.079,11.0625,0.00632284,0.0881669,0.0002547851,1.05402
50.779,11.29882,0.004149959,0.17092,-0.00314638,1.05404
51.479,11.4588,0.006745745,0.24629,0.002097009,1.05405
52.179,11.584,0.006413694,0.31871,-0.001111903,1.05405
52.879,11.69179,0.006312024,0.38764,-0.006111184,1.05406
53.579,11.78534,0.005544328,0.45787,0.0035761,1.05406
54.279,11.86961,0.006658529,0.5223,0.01008578,1.05406
54.979,11.94903,0.00777836,0.57109,0.004613838,1.05406
55.679,12.02164,0.0079705,0.62245,-0.00275685,1.05406
56.379,12.09061,0.006443014,0.6735,-0.004391642,1.05405
57.079,12.15598,0.007578943,0.72229,-0.001408463,1.05404
57.779,12.21796,0.005508076,0.76747,0.003744055,1.05403
58.479,12.27697,0.00729901,0.80314,0.00689997,1.05402
59.179,12.33389,0.008236239,0.85122,0.00459136,1.054
59.879,12.3896,0.007919035,0.89937,0.0001237782,1.05398
60.579,12.44323,0.007852889,0.94146,-0.0013315,1.05396
61.279,12.49597,0.00696384,0.98245,-5.479783e-05,1.05394
61.979,12.54701,0.007572102,1.03121,0.0001574788,1.05391
62.679,12.5967,0.009125612,1.07266,-0.001180058,1.05388
63.379,12.6457,0.0073817,1.11152,-0.0005644128,1.05385
64.079,12.69389,0.00501074,1.12687,0.00266758,1.05382
64.779,12.74138,0.008992456,1.13784,0.003444703,1.05378
65.479,12.78755,0.00992848,1.1262,-0.0008465897,1.05375
66.179,12.8332,0.00774701,1.11698,-0.00591139,1.05371
66.879,12.87829,0.00668713,1.11312,-0.006475785,1.05366
67.579,12.92297,0.006359008,1.114,-0.002113629,1.05362
68.279,12.96685,0.00767647,1.12573,0.003643987,1.05357
68.979,13.01,0.005810002,1.13769,0.007479085,1.05352
69.679,13.05309,0.009416223,1.15852,0.008521239,1.05347
70.379,13.09532,0.00931288,1.18138,0.007900332,1.05342
71.079,13.1369,0.007164335,1.19899,0.006934012,1.05336
71.779,13.1783,0.008491107,1.22221,0.00528824,1.0533
72.479,13.21946,0.01106986,1.24413,0.001953875,1.05324
73.179,13.2602,0.009645186,1.26784,-0.00236403,1.05318
73.879,13.3001,0.008231311,1.30555,-0.005515115,1.05311
74.579,13.3399,0.009004604,1.31926,-0.00578095,1.05305
75.279,13.37977,0.007232953,1.35552,-0.0033555,1.05298
75.979,13.41898,0.008346904,1.38221,-0.00020992,1.0529
76.679,13.4576,0.00771361,1.39992,0.001763871,1.05283
77.379,13.496,0.009625381,1.42978,0.002001321,1.05275
78.079,13.53426,0.009244693,1.46641,0.001085289,1.05267
78.779,13.57191,0.007487149,1.51468,0.000193735,1.05259
79.479,13.60926,0.00871638,1.55011,9.71731e-05,1.05251
80.179,13.6465,0.009436541,1.58028,0.000903281,1.05242
80.879,13.6835,0.007960228,1.61834,0.002200541,1.05233
81.579,13.72021,0.00812337,1.6467,0.003147172,1.05224
82.279,13.7564,0.00922938,1.68292,0.003005077,1.05215
82.979,13.79219,0.00871419,1.70346,0.001752324,1.05205
83.679,13.8277,0.009449159,1.7304,2.319633e-05,1.05196
84.379,13.8629,0.008472314,1.76535,-0.001322714,1.05186
85.079,13.8978,0.009007147,1.77748,-0.00170992,1.05176
85.779,13.93227,0.00922214,1.79239,-0.001106677,1.05165
86.479,13.96674,0.00844521,1.80928,9.45454e-06,1.05155
87.179,14.00087,0.00825084,1.82797,0.0009165439,1.05144
87.879,14.03456,0.008838592,1.83511,0.00107198,1.05133
88.579,14.068,0.008530635,1.85215,0.0003108967,1.05121
89.279,14.10125,0.008777451,1.87206,-0.0009551138,1.0511
89.979,14.1342,0.007935635,1.88119,-0.001912514,1.05098
90.679,14.1663,0.008420266,1.89527,-0.001808701,1.05086
91.379,14.19851,0.008563954,1.91867,-0.000261357,1.05074
92.079,14.23068,0.008111464,1.93998,0.0025837,1.05061
92.779,14.263,0.006735494,1.96433,0.00589363,1.05049
93.479,14.29478,0.008464362,1.98034,0.008275046,1.05036
94.179,14.3262,0.009642946,2.003,0.008686239,1.05023
94.879,14.3575,0.009505596,2.02989,0.00693688,1.05009
95.579,14.3887,0.00988282,2.06448,0.003723785,1.04996
96.279,14.41965,0.01088555,2.092,0.0001511126,1.04982
96.979,14.4508,0.009854524,2.1276,-0.002802469,1.04968
97.679,14.48151,0.009298971,2.16213,-0.004571766,1.04954
98.379,14.5121,0.01020816,2.18123,-0.00523199,1.0494
99.079,14.5422,0.00959911,2.21525,-0.00506646,1.04925
99.779,14.5722,0.008815709,2.25485,-0.004347071,1.0491
100.479,14.602,0.00784271,2.28139,-0.00332723,1.04895
101.179,14.6317,0.009378146,2.31559,-0.002175945,1.0488
101.879,14.6611,0.00932931,2.33893,-0.0009428871,1.04864
102.579,14.69035,0.00770107,2.37269,0.0003415708,1.04849
103.279,14.71941,0.00758078,2.40675,0.00150345,1.04833
103.979,14.7484,0.008452344,2.43401,0.002320426,1.04817
104.679,14.77721,0.009465197,2.46891,0.002688056,1.048
105.379,14.80579,0.009654918,2.50706,0.002735608,1.04784
106.079,14.83433,0.01005733,2.5353,0.002754795,1.04767
106.779,14.86275,0.009120867,2.56597,0.002975505,1.0475
107.479,14.8911,0.009183553,2.59096,0.00336053,1.04733
108.179,14.91924,0.008861251,2.62271,0.003626112,1.04715
108.879,14.947,0.009681905,2.65853,0.003417388,1.04698
109.579,14.9747,0.009506409,2.68729,0.002610988,1.0468
110.279,15.00211,0.01088272,2.70912,0.00145262,1.04662
110.979,15.0297,0.00933315,2.74044,0.0003478325,1.04644
111.679,15.0572,0.009307383,2.76667,-0.0003525164,1.04625
112.379,15.0847,0.00911726,2.78846,-0.0006027331,1.04606
113.079,15.11188,0.01021348,2.81092,-0.0005996616,1.04588
113.779,15.1391,0.009435725,2.84554,-0.0006103104,1.04568
114.479,15.1661,0.009895702,2.87614,-0.0007794261,1.04549
115.179,15.1931,0.01074568,2.90288,-0.001107551,1.0453
115.879,15.21996,0.01064878,2.9244,-0.001521421,1.0451
116.579,15.24664,0.008956385,2.9499,-0.002015063,1.0449
117.279,15.27325,0.008996397,2.97757,-0.002661153,1.0447
117.979,15.29979,0.00898784,3.00344,-0.003514246,1.0445
118.679,15.32632,0.009767261,3.02785,-0.004497407,1.04429
119.379,15.3529,0.01049499,3.05688,-0.005318581,1.04408
120.079,15.37936,0.009099404,3.07995,-0.00554002,1.04387
120.779,15.40557,0.007950754,3.10682,-0.004874101,1.04366
121.479,15.43167,0.007885776,3.13301,-0.003324135,1.04345
122.179,15.4576,0.00759289,3.1492,-0.001143659,1.04323
122.879,15.48342,0.00907372,3.17244,0.001237473,1.04301
123.579,15.5091,0.007939346,3.18822,0.0032901,1.04279
124.279,15.53466,0.00816792,3.21684,0.004601522,1.04257
124.979,15.56015,0.009320848,3.23823,0.004945993,1.04235
125.679,15.58569,0.009327271,3.26877,0.00430337,1.04212
126.379,15.611,0.009321249,3.28034,0.002894339,1.04189
127.079,15.63645,0.01060891,3.30712,0.00107029,1.04166
127.779,15.66156,0.01006108,3.32936,-0.00069076,1.04143
128.479,15.6867,0.00949495,3.35854,-0.001982326,1.0412
129.179,15.71166,0.008053874,3.36719,-0.00252508,1.04096
129.879,15.7365,0.009503859,3.39729,-0.002233164,1.04073
130.579,15.7611,0.00887792,3.41767,-0.001202398,1.04049
131.279,15.7858,0.008942136,3.43383,0.0003511618,1.04024
131.979,15.8106,0.009253207,3.45118,0.00215689,1.04
132.679,15.8353,0.008157612,3.4845,0.00388754,1.03975
133.379,15.8601,0.008996963,3.50386,0.005216048,1.03951
134.079,15.8846,0.00941867,3.52041,0.005856985,1.03926
134.779,15.9089,0.00937826,3.53898,0.00570974,1.039
135.479,15.93324,0.01074627,3.56528,0.004824579,1.03875
136.179,15.95735,0.01042357,3.57375,0.003439453,1.0385
136.879,15.9815,0.00937201,3.60406,0.00189138,1.03824
137.579,16.0057,0.01091851,3.61554,0.0005475495,1.03798
138.279,16.02965,0.009561331,3.62564,-0.0003469529,1.03772
138.979,16.0536,0.00954635,3.6546,-0.000774069,1.03745
139.679,16.07755,0.00955059,3.66708,-0.0008737092,1.03719
140.379,16.10148,0.009538297,3.69606,-0.0008872386,1.03692
141.079,16.1253,0.009790596,3.70423,-0.001028838,1.03665
141.779,16.1491,0.00991081,3.73572,-0.00139785,1.03638
142.479,16.17266,0.01083023,3.74994,-0.001984235,1.03611
143.179,16.19621,0.009609352,3.76728,-0.002689033,1.03583
143.879,16.21959,0.00965132,3.78935,-0.003390943,1.03556
144.579,16.24311,0.009392604,3.79611,-0.004018473,1.03528
145.279,16.2665,0.009356126,3.82021,-0.004495125,1.035
145.979,16.2898,0.009659187,3.83639,-0.00477466,1.03472
146.679,16.31321,0.009665004,3.85413,-0.00481991,1.03443
147.379,16.33643,0.009757357,3.86575,-0.00459275,1.03414
148.079,16.35967,0.00834144,3.88277,-0.004074448,1.03386
148.779,16.38276,0.008335693,3.89806,-0.003305169,1.03357
149.479,16.40579,0.008243959,3.91682,-0.002396494,1.03327
150.179,16.42877,0.00862889,3.92909,-0.00149393,1.03298
150.879,16.45168,0.008561311,3.9493,-0.0007213385,1.03269
151.579,16.47458,0.00973822,3.96164,-0.0001477389,1.03239
152.279,16.49745,0.008537085,3.97535,0.000214569,1.03209
152.979,16.52026,0.008560208,3.99578,0.000362487,1.03179
153.679,16.54307,0.008576315,4.0164,0.000272097,1.03148
154.379,16.56577,0.009117412,4.03139,-8.521982e-05,1.03118
155.079,16.58843,0.008664224,4.03888,-0.0007235039,1.03087
155.779,16.611,0.008549035,4.05134,-0.00159452,1.03057
156.479,16.63351,0.008714878,4.0678,-0.002544926,1.03026
157.179,16.65604,0.00991075,4.09526,-0.00329828,1.02994
157.879,16.67853,0.009663648,4.09734,-0.003564366,1.02963
158.579,16.70099,0.008364933,4.11662,-0.00316593,1.02931
159.279,16.72332,0.007411179,4.13559,-0.00212627,1.029
159.979,16.74566,0.007045684,4.14032,-0.0006757098,1.02868
160.679,16.76793,0.007508321,4.16578,0.0007864714,1.02836
161.379,16.79022,0.008338365,4.17843,0.00185643,1.02803
162.079,16.8125,0.00835768,4.18879,0.00226647,1.02771
162.779,16.83473,0.009739751,4.20246,0.001992741,1.02738
163.479,16.85695,0.009628838,4.20746,0.001221342,1.02705
164.179,16.87904,0.00874662,4.22157,0.0002536819,1.02672
164.879,16.9011,0.008340874,4.24643,-0.0006209811,1.02639
165.579,16.92323,0.00834219,4.25251,-0.001212386,1.02606
166.279,16.94521,0.00838249,4.26016,-0.001501317,1.02572
166.979,16.9672,0.00823771,4.27539,-0.001632143,1.02539
167.679,16.98891,0.008338605,4.28994,-0.001806203,1.02505
168.379,17.01078,0.008326476,4.30452,-0.002203269,1.02471
169.079,17.0326,0.009484746,4.3173,-0.002911082,1.02437
169.779,17.0545,0.00824374,4.32083,-0.003909328,1.02402
170.479,17.07648,0.008335,4.33551,-0.005083824,1.02368
171.179,17.09826,0.008339781,4.34298,-0.006210966,1.02333
171.879,17.12,0.00834,4.35471,-0.00707373,1.02298
172.579,17.14165,0.008354428,4.36167,-0.00748895,1.02263
173.279,17.16323,0.00735399,4.37195,-0.00733606,1.02228
173.979,17.18477,0.00682907,4.38696,-0.00656507,1.02192
174.679,17.2063,0.00681105,4.38554,-0.0052141,1.02157
175.379,17.22776,0.006809853,4.40359,-0.003413965,1.02121
176.079,17.24918,0.00680869,4.41906,-0.001348494,1.02085
176.779,17.27058,0.006826446,4.43327,0.0007660711,1.02049
177.479,17.29199,0.006764172,4.4368,0.002711261,1.02013
178.179,17.31338,0.006798017,4.44311,0.004279585,1.01976
178.879,17.3348,0.006822341,4.44987,0.00529688,1.0194
179.579,17.3562,0.00738467,4.45779,0.005643604,1.01903
180.279,17.3775,0.00823954,4.47442,0.00528458,1.01866
180.979,17.3987,0.00823034,4.48725,0.004275446,1.01829
181.679,17.41985,0.008230002,4.4888,0.002746502,1.01792
182.379,17.44097,0.008229999,4.49291,0.0009057628,1.01755
183.079,17.46204,0.008230006,4.50481,-0.0009871768,1.01717
183.779,17.48309,0.00823015,4.51971,-0.00267968,1.01679
184.479,17.5042,0.008232694,4.52535,-0.003983171,1.01641
185.179,17.52514,0.00827363,4.5392,-0.004795165,1.01603
185.879,17.54608,0.006969265,4.53292,-0.005144463,1.01565
186.579,17.56697,0.006712049,4.54045,-0.005171325,1.01527
187.279,17.58786,0.006699602,4.55193,-0.005101612,1.01488
187.979,17.60874,0.006690242,4.55216,-0.005177237,1.0145
188.679,17.62955,0.00766291,4.55759,-0.00558744,1.01411
189.379,17.65042,0.00768147,4.56963,-0.0064223,1.01372
190.079,17.67115,0.00770016,4.57741,-0.00762337,1.01333
190.779,17.69193,0.006540381,4.57532,-0.009010168,1.01293
191.479,17.71264,0.00672471,4.59281,-0.01029785,1.01254
192.179,17.73334,0.006697319,4.60577,-0.01119302,1.01214
192.879,17.754,0.006766266,4.59783,-0.01144068,1.01174
193.579,17.77458,0.005433845,4.60687,-0.01087907,1.01134
194.279,17.79515,0.005067906,4.62006,-0.009477165,1.01094
194.979,17.81575,0.004369254,4.62314,-0.007352153,1.01054
195.679,17.83635,0.004209551,4.63172,-0.004747541,1.01014
196.379,17.8569,0.003850444,4.64699,-0.001985166,1.00973
197.079,17.87745,0.0050878,4.65633,0.0005896552,1.00932
197.779,17.89797,0.005042735,4.66228,0.002700166,1.00891
198.479,17.91848,0.005040811,4.66928,0.004146722,1.0085
199.179,17.9389,0.005047581,4.67201,0.004849488,1.00809
199.879,17.95927,0.0056386,4.67869,0.004860303,1.00768
200.579,17.97963,0.00636317,4.69334,0.004320643,1.00726
201.279,17.99994,0.00635981,4.69354,0.00343992,1.00685
201.979,18.0203,0.00602776,4.71237,0.002439189,1.00643
202.679,18.0406,0.005712186,4.72184,0.001511516,1.00601
203.379,18.06092,0.005710231,4.72732,0.0007680805,1.00559
204.079,18.08124,0.005710021,4.72973,0.0002465317,1.00517
204.779,18.1015,0.005710002,4.75297,-8.91896e-05,1.00475
205.479,18.1218,0.005710001,4.75861,-0.0003243875,1.00432
206.179,18.14195,0.005710014,4.76736,-0.0005540953,1.00389
206.879,18.16212,0.00571021,4.77546,-0.0008558159,1.00347
207.579,18.1823,0.00571312,4.78375,-0.001256669,1.00304
208.279,18.2024,0.005760435,4.7935,-0.001717762,1.00261
208.979,18.2225,0.006396905,4.79904,-0.00214104,1.00217
209.679,18.24265,0.006423285,4.80533,-0.002400699,1.00174
210.379,18.2628,0.00519722,4.81476,-0.002392299,1.0013
211.079,18.28296,0.005051768,4.83422,-0.002072515,1.00087
211.779,18.30305,0.00505015,4.83815,-0.001475526,1.00043
212.479,18.3231,0.00505032,4.83602,-0.000705226,0.99999
213.179,18.3429,0.005054078,4.84536,8.52665e-05,0.99955
213.879,18.36272,0.00510957,4.86067,0.0007589257,0.99911
214.579,18.3826,0.005733521,4.87052,0.001191304,0.99866
215.279,18.40263,0.005711686,4.88339,0.001297904,0.99822
215.979,18.42284,0.005710123,4.88841,0.001038005,0.99777
216.679,18.4431,0.005710009,4.89773,0.0004304017,0.99732
217.379,18.4632,0.005710001,4.90459,-0.000449314,0.99687
218.079,18.48333,0.00571,4.91225,-0.001505952,0.99642
218.779,18.50327,0.00571,4.91928,-0.002614314,0.99597
219.479,18.52325,0.005709994,4.92442,-0.0036711,0.99552
220.179,18.5431,0.005709915,4.9192,-0.00454651,0.99506
220.879,18.563,0.005708854,4.93539,-0.005128493,0.99461
221.579,18.58285,0.005687202,4.94945,-0.00533836,0.99415
222.279,18.60265,0.004300481,4.95847,-0.005175896,0.99369
222.979,18.62245,0.004383807,4.97085,-0.004738653,0.99323
223.679,18.6423,0.004389569,4.9648,-0.004221275,0.99277
224.379,18.6621,0.004389999,4.96961,-0.003888521,0.99231
225.079,18.6819,0.004390362,4.97832,-0.004003014,0.99184
225.779,18.70178,0.004394623,4.9997,-0.00475724,0.99138
226.479,18.7216,0.00445031,5.00254,-0.006193543,0.99091
227.179,18.74132,0.005731285,5.00025,-0.008172729,0.99044
227.879,18.76109,0.00569699,5.01234,-0.01041639,0.98998
228.579,18.7808,0.005647445,5.01097,-0.0125198,0.9895
229.279,18.8005,0.00427572,5.01499,-0.01406028,0.98903
229.979,18.82027,0.003925478,5.03057,-0.0147117,0.98856
230.679,18.83996,0.001651713,5.02977,-0.01429551,0.98809
231.379,18.8596,0.001651295,5.0328,-0.01286904,0.98761
232.079,18.87921,0.001650191,5.0405,-0.01067957,0.98713
232.779,18.8989,0.001650021,5.0459,-0.008093046,0.98665
233.479,18.91846,0.001650009,5.05127,-0.005543279,0.98618
234.179,18.93806,0.00165011,5.05904,-0.00340131,0.98569
234.879,18.95769,0.001651661,5.05985,-0.00194173,0.98521
235.579,18.9773,0.00180398,5.07214,-0.001304284,0.98473
236.279,18.99687,0.003030809,5.06706,-0.00146148,0.98425
236.979,19.01644,0.00297543,5.07547,-0.0022526,0.98376
237.679,19.03605,0.00297732,5.07098,-0.00344671,0.98327
238.379,19.05558,0.002046402,5.07461,-0.00478442,0.98278
239.079,19.0751,0.001673875,5.08436,-0.0060407,0.9823
239.779,19.09465,0.00165183,5.09687,-0.007024056,0.9818
240.479,19.11414,0.001650545,5.09558,-0.007596821,0.98131
241.179,19.13364,0.001655064,5.10004,-0.00768351,0.98082
241.879,19.1531,0.001711206,5.10906,-0.007279059,0.98033
242.579,19.1726,0.000487538,5.10991,-0.00645375,0.97983
243.279,19.19205,0.000331507,5.11402,-0.005342146,0.97933
243.979,19.2116,0.000330081,5.12676,-0.00411815,0.97884
244.679,19.23094,0.0003299197,5.12564,-0.002994396,0.97834
245.379,19.25036,0.0003295843,5.12786,-0.002148125,0.97784
246.079,19.26979,0.00033309,5.1436,-0.001721737,0.97734
246.779,19.28921,0.001250066,5.14057,-0.001784137,0.97684
247.479,19.3087,0.001652071,5.14644,-0.002312758,0.97633
248.179,19.32808,0.001655851,5.15262,-0.00320317,0.97583
248.879,19.34741,0.0005339075,5.15666,-0.0043133,0.97532
249.579,19.36675,0.000346832,5.16071,-0.005519628,0.97481
250.279,19.3861,0.0003315739,5.18151,-0.00673741,0.97431
250.979,19.40547,0.0003319557,5.16296,-0.007930036,0.9738
251.679,19.4249,0.000354229,5.18258,-0.00911876,0.97329
252.379,19.4444,-0.000175532,5.18298,-0.01037169,0.97278
253.079,19.46371,-0.0003228806,5.17369,-0.01174045,0.97226
253.779,19.48299,-0.0003293025,5.18476,-0.01327437,0.97175
254.479,19.5023,-0.000327737,5.18672,-0.01499288,0.97124
255.179,19.5215,-0.0003097576,5.18805,-0.01687919,0.97072
255.879,19.54081,-0.001023087,5.18614,-0.01889339,0.9702
256.579,19.56018,-0.002310548,5.18949,-0.02098997,0.96969
257.279,19.57945,-0.00229743,5.18392,-0.02308768,0.96917
257.979,19.5988,-0.00229926,5.18215,-0.02515128,0.96865
258.679,19.6181,-0.00229401,5.16879,-0.02711522,0.96813
259.379,19.63739,-0.00340713,5.13909,-0.02893374,0.9676
260.079,19.65665,-0.004635274,5.09617,-0.03057733,0.96708
260.779,19.67589,-0.004921405,5.03879,-0.03206654,0.96656
261.479,19.69507,-0.005196631,4.95533,-0.03347045,0.96603
262.179,19.71426,-0.006298495,4.87271,-0.03493107,0.9655
262.879,19.73348,-0.00695758,4.80665,-0.03665342,0.96498
263.579,19.7527,-0.007591528,4.8195,-0.03888906,0.96445
264.279,19.77188,-0.008791361,4.84843,-0.04191969,0.96392
264.979,19.7911,-0.008988189,4.86541,-0.0459858,0.96339
265.679,19.81034,-0.008987299,4.92904,-0.05123683,0.96286
266.379,19.82953,-0.009605933,5.00785,-0.05770974,0.96233
267.079,19.8488,-0.01036089,5.06998,-0.06534046,0.96179
267.779,19.86794,-0.01188489,5.13765,-0.07388656,0.96126
268.479,19.8871,-0.01329538,5.20144,-0.08305522,0.96072
269.179,19.9063,-0.01444489,5.26535,-0.09254932,0.96019
269.879,19.9254,-0.01638835,5.34418,-0.10204,0.95965
270.579,19.94451,-0.02001614,5.41606,-0.11128,0.95911
271.279,19.96365,-0.02220883,5.4632,-0.12012,0.95857
271.979,19.98275,-0.02449525,5.52638,-0.12845,0.95803
272.679,20.00185,-0.02641693,5.58996,-0.13624,0.95749
273.379,20.02091,-0.0291278,5.65283,-0.14348,0.95695
274.079,20.04,-0.03192397,5.7173,-0.15022,0.9564
274.779,20.0591,-0.03554655,5.7643,-0.15643,0.95586
275.479,20.0782,-0.03884999,5.82918,-0.16215,0.95532
276.179,20.09735,-0.0418373,5.88451,-0.16745,0.95477
276.879,20.11652,-0.04459392,5.94502,-0.1724,0.95422
277.579,20.13567,-0.04846578,6.01423,-0.17711,0.95368
278.279,20.1548,-0.05274513,6.0677,-0.18169,0.95313
278.979,20.17386,-0.05587154,6.13716,-0.18631,0.95258
279.679,20.19295,-0.05890042,6.20445,-0.1911,0.95203
280.379,20.21207,-0.06193913,6.26675,-0.19625,0.95148
281.079,20.23116,-0.06612063,6.33233,-0.20183,0.95092
281.779,20.25025,-0.07058319,6.39879,-0.2079,0.95037
282.479,20.2694,-0.07387628,6.46751,-0.21442,0.94982
283.179,20.28845,-0.0779436,6.54693,-0.22129,0.94926
283.879,20.3075,-0.08263882,6.62218,-0.22839,0.94871
284.579,20.32659,-0.08648629,6.69224,-0.2356,0.94815
285.279,20.34563,-0.09025477,6.76407,-0.24261,0.94759
285.979,20.3646,-0.09514011,6.83495,-0.24923,0.94703
286.679,20.38371,-0.10118,6.90732,-0.25532,0.94647
287.379,20.4028,-0.10698,6.983,-0.26082,0.94591
288.079,20.42183,-0.11285,7.05543,-0.26576,0.94535
288.779,20.4409,-0.11597,7.12606,-0.27031,0.94479
289.479,20.46007,-0.12099,7.20279,-0.27472,0.94423
290.179,20.4792,-0.1268,7.27948,-0.27925,0.94367
290.879,20.49836,-0.13333,7.34471,-0.28424,0.9431
291.579,20.5175,-0.13823,7.41859,-0.28993,0.94254
292.279,20.5366,-0.14302,7.47704,-0.29652,0.94197
292.979,20.55576,-0.14711,7.54945,-0.30408,0.9414
293.679,20.57487,-0.15403,7.62133,-0.31256,0.94084
294.379,20.59394,-0.15989,7.68729,-0.32181,0.94027
295.079,20.613,-0.16686,7.76598,-0.33167,0.9397
295.779,20.63215,-0.17223,7.83711,-0.34188,0.93913
296.479,20.65126,-0.17919,7.90307,-0.35224,0.93856
297.179,20.67034,-0.18528,7.96682,-0.36256,0.93799
297.879,20.6895,-0.19424,8.0487,-0.37277,0.93742
298.579,20.70863,-0.2008,8.12144,-0.3828,0.93684
299.279,20.72772,-0.20854,8.2007,-0.39274,0.93627
299.979,20.7467,-0.21505,8.27949,-0.40274,0.9357
300.679,20.76577,-0.22416,8.35951,-0.41322,0.93512
301.379,20.78484,-0.23116,8.43939,-0.4243,0.93455
302.079,20.80395,-0.23951,8.52245,-0.43622,0.93397
302.779,20.82314,-0.24709,8.60449,-0.44911,0.93339
303.479,20.84241,-0.25592,8.69423,-0.463,0.93281
304.179,20.86161,-0.26368,8.78797,-0.47765,0.93223
304.879,20.8808,-0.27312,8.88113,-0.49281,0.93166
305.579,20.89992,-0.28285,8.97312,-0.50821,0.93108
306.279,20.91899,-0.29315,9.05873,-0.52352,0.93049
306.979,20.93806,-0.30455,9.14816,-0.53862,0.92991
307.679,20.95712,-0.31417,9.2589,-0.55348,0.92933
308.379,20.97624,-0.32508,9.36531,-0.56824,0.92875
309.079,20.99535,-0.33529,9.45944,-0.58302,0.92816
309.779,21.01444,-0.34883,9.55854,-0.59808,0.92758
310.479,21.03354,-0.35916,9.66722,-0.61372,0.927
311.179,21.05268,-0.37089,9.76509,-0.63023,0.92641
311.879,21.07173,-0.38067,9.87597,-0.64769,0.92582
312.579,21.09082,-0.39487,9.98489,-0.66631,0.92524
313.279,21.10989,-0.40664,10.10114,-0.686,0.92465
313.979,21.12898,-0.42173,10.21384,-0.7067,0.92406
314.679,21.14811,-0.4341,10.3317,-0.72826,0.92347
315.379,21.16723,-0.44859,10.43452,-0.75042,0.92288
316.079,21.18636,-0.46055,10.5528,-0.77296,0.92229
316.779,21.2055,-0.47692,10.66887,-0.79567,0.9217
317.479,21.22464,-0.49239,10.78432,-0.81833,0.92111
318.179,21.2438,-0.51055,10.89485,-0.84079,0.92052
318.879,21.26292,-0.52584,11.01085,-0.863,0.91993
319.579,21.282,-0.54212,11.1332,-0.88494,0.91933
320.279,21.30111,-0.55838,11.25517,-0.90668,0.91874
320.979,21.32024,-0.57557,11.3631,-0.92833,0.91815
321.679,21.33933,-0.59451,11.47005,-0.94989,0.91755
322.379,21.3584,-0.6129,11.6095,-0.97149,0.91696
323.079,21.3776,-0.6328,11.71537,-0.99319,0.91636
323.779,21.39669,-0.65,11.83441,-1.01498,0.91576
324.479,21.4158,-0.67122,11.94272,-1.03683,0.91517
325.179,21.4349,-0.68928,12.04774,-1.05883,0.91457
325.879,21.45404,-0.71175,12.14293,-1.08083,0.91397
326.579,21.47322,-0.73087,12.23846,-1.10278,0.91337
327.279,21.4924,-0.75501,12.31494,-1.12444,0.91277
327.979,21.51156,-0.77413,12.40449,-1.14568,0.91217
328.679,21.5307,-0.79891,12.4925,-1.16622,0.91157
329.379,21.54982,-0.81925,12.56945,-1.18587,0.91097
330.079,21.56887,-0.8445,12.64338,-1.20434,0.91037
330.779,21.588,-0.86469,12.7054,-1.22157,0.90977
331.479,21.60708,-0.89128,12.77246,-1.2373,0.90916
332.179,21.6262,-0.91417,12.80681,-1.25148,0.90856
332.879,21.64529,-0.94063,12.86,-1.26416,0.90796
333.579,21.66444,-0.96248,12.9016,-1.27541,0.90735
334.279,21.6836,-0.98776,12.94538,-1.28541,0.90675
334.979,21.70271,-1.01241,12.98131,-1.29445,0.90614
335.679,21.7219,-1.0393,13.0123,-1.30291,0.90554
336.379,21.74106,-1.0637,13.0368,-1.31105,0.90493
337.079,21.7602,-1.08772,13.05556,-1.31911,0.90433
337.779,21.77936,-1.11229,13.06513,-1.32718,0.90372
338.479,21.79851,-1.13721,13.06819,-1.33511,0.90311
339.179,21.81764,-1.16446,13.05821,-1.34258,0.9025
339.879,21.8368,-1.18909,13.03302,-1.34916,0.9019
340.579,21.85595,-1.21692,13.01315,-1.35436,0.90129
341.279,21.87508,-1.24083,12.99175,-1.35778,0.90068
341.979,21.89426,-1.27054,12.95556,-1.35925,0.90007
342.679,21.91338,-1.29602,12.9077,-1.35879,0.89946
343.379,21.93254,-1.32591,12.86321,-1.35664,0.89885
344.079,21.9517,-1.34866,12.80596,-1.35317,0.89824
344.779,21.97089,-1.37747,12.75619,-1.34877,0.89762
345.479,21.99,-1.39843,12.68041,-1.34375,0.89701
346.179,22.0092,-1.42638,12.58334,-1.33821,0.8964
346.879,22.02835,-1.44897,12.47603,-1.33208,0.89579
347.579,22.04756,-1.47811,12.37818,-1.32508,0.89518
348.279,22.06675,-1.50194,12.27576,-1.31696,0.89456
348.979,22.08598,-1.53074,12.15865,-1.30746,0.89395
349.679,22.10515,-1.55386,12.0345,-1.29653,0.89333
350.379,22.12444,-1.58028,11.91693,-1.28402,0.89272
351.079,22.14358,-1.60246,11.7893,-1.27018,0.8921
351.779,22.16275,-1.62752,11.66628,-1.25504,0.89149
352.479,22.18187,-1.65084,11.5054,-1.23878,0.89087
353.179,22.20102,-1.67591,11.3529,-1.22146,0.89026
353.879,22.2202,-1.69979,11.20791,-1.20317,0.88964
354.579,22.23939,-1.72193,11.04245,-1.18403,0.88902
355.279,22.25858,-1.74444,10.90671,-1.16412,0.88841
355.979,22.27779,-1.76611,10.74423,-1.14351,0.88779
356.679,22.29702,-1.79049,10.5644,-1.12227,0.88717
357.379,22.31622,-1.81003,10.37829,-1.10046,0.88655
358.079,22.3354,-1.83161,10.17215,-1.07811,0.88594
358.779,22.3546,-1.84985,9.97711,-1.05514,0.88532
359.479,22.3738,-1.87334,9.7478,-1.0315,0.8847
360.179,22.39305,-1.89164,9.53711,-1.0073,0.88408
360.879,22.41229,-1.91329,9.2847,-0.98244,0.88346
361.579,22.43159,-1.92976,9.03833,-0.95692,0.88284
362.279,22.45081,-1.94974,8.7951,-0.93095,0.88222
362.979,22.46999,-1.9648,8.55454,-0.90443,0.8816
363.679,22.48926,-1.98366,8.28392,-0.8771,0.88098
364.379,22.50843,-1.99813,8.0221,-0.84903,0.88036
365.079,22.52763,-2.01653,7.74031,-0.81983,0.87974
365.779,22.5469,-2.03216,7.45212,-0.78933,0.87911
366.479,22.56621,-2.04881,7.14556,-0.75746,0.87849
367.179,22.58543,-2.06118,6.8517,-0.72457,0.87787
367.879,22.6048,-2.07576,6.54288,-0.6905,0.87725
368.579,22.62407,-2.08812,6.23425,-0.65592,0.87662
369.279,22.6433,-2.10185,5.92273,-0.62128,0.876
369.979,22.66254,-2.11288,5.62297,-0.58702,0.87538
370.679,22.6818,-2.12371,5.32377,-0.55341,0.87475
371.379,22.70107,-2.13346,5.02411,-0.52093,0.87413
372.079,22.72034,-2.14158,4.74846,-0.48964,0.87351
372.779,22.73961,-2.15059,4.47534,-0.45962,0.87288
373.479,22.75889,-2.15881,4.20919,-0.43079,0.87226
374.179,22.7782,-2.16806,3.94953,-0.40311,0.87163
374.879,22.79743,-2.17579,3.72287,-0.37651,0.87101
375.579,22.8168,-2.18224,3.50282,-0.35092,0.87038
376.279,22.83609,-2.18824,3.30058,-0.3265,0.86976
376.979,22.85545,-2.19502,3.10319,-0.30331,0.86913
377.679,22.8748,-2.1998,2.94455,-0.28151,0.86851
378.379,22.8942,-2.20458,2.793,-0.26116,0.86788
379.079,22.91355,-2.20835,2.64241,-0.24229,0.86726
379.779,22.93298,-2.21228,2.53219,-0.22485,0.86663
380.479,22.95235,-2.21748,2.42418,-0.2089,0.866
381.179,22.97175,-2.22165,2.33131,-0.19435,0.86538
381.879,22.9911,-2.22497,2.2571,-0.18119,0.86475
382.579,23.0104,-2.22777,2.19471,-0.16952,0.86412
383.279,23.0297,-2.23066,2.14915,-0.15914,0.8635
383.979,23.04918,-2.23324,2.11847,-0.15006,0.86287
384.679,23.06863,-2.23509,2.08436,-0.14226,0.86224
385.379,23.0881,-2.23743,2.06092,-0.13559,0.86162
386.079,23.10763,-2.24073,2.04936,-0.12988,0.86099
386.779,23.127,-2.24392,2.02597,-0.12504,0.86036
387.479,23.1464,-2.24622,2.02674,-0.12095,0.85973
388.179,23.1658,-2.24771,2.03007,-0.11751,0.8591
388.879,23.18519,-2.24923,2.0308,-0.11464,0.85848
389.579,23.20466,-2.2511,2.03486,-0.11226,0.85785
390.279,23.22418,-2.25394,2.04317,-0.11022,0.85722
390.979,23.24372,-2.25642,2.0493,-0.10837,0.85659
391.679,23.26321,-2.25846,2.05771,-0.10652,0.85596
392.379,23.28274,-2.2602,2.05639,-0.10447,0.85534
393.079,23.30224,-2.26218,2.06389,-0.10213,0.85471
393.779,23.3217,-2.26447,2.06609,-0.09948269,0.85408
394.479,23.34124,-2.26701,2.07361,-0.09656256,0.85345
395.179,23.3608,-2.26916,2.07625,-0.0935242,0.85282
395.879,23.3804,-2.27064,2.08162,-0.09055854,0.85219
396.579,23.39978,-2.27158,2.08398,-0.08787069,0.85156
397.279,23.41937,-2.27313,2.09055,-0.0855483,0.85093
397.979,23.43897,-2.27469,2.08796,-0.08367323,0.8503
398.679,23.45843,-2.27645,2.09359,-0.08223254,0.84967
399.379,23.47808,-2.27809,2.092,-0.08113001,0.84905
400.079,23.49786,-2.27997,2.09138,-0.08029627,0.84842
400.779,23.51749,-2.28179,2.08484,-0.07967187,0.84779
401.479,23.53717,-2.28257,2.08431,-0.07919037,0.84716
402.179,23.55685,-2.28401,2.08993,-0.07880862,0.84653
402.879,23.57646,-2.28561,2.09076,-0.07848858,0.8459
403.579,23.5961,-2.28736,2.09082,-0.07817468,0.84527
404.279,23.61577,-2.28901,2.09641,-0.0777985,0.84464
404.979,23.63544,-2.28997,2.09697,-0.07731192,0.84401
405.679,23.65511,-2.29163,2.09629,-0.07672705,0.84338
406.379,23.67481,-2.29308,2.09496,-0.0761442,0.84275
407.079,23.6945,-2.29592,2.08639,-0.07575595,0.84212
407.779,23.71419,-2.29778,2.08824,-0.07580667,0.84149
408.479,23.73386,-2.29854,2.09546,-0.07652713,0.84086
409.179,23.7536,-2.29851,2.07388,-0.07806,0.84023
409.879,23.7733,-2.29983,2.083,-0.08038498,0.8396
410.579,23.793,-2.3003,2.08053,-0.08331162,0.83897
411.279,23.81279,-2.30203,2.07766,-0.08653064,0.83834
411.979,23.8325,-2.30487,2.06931,-0.08967418,0.83771
412.679,23.85228,-2.30865,2.06795,-0.09242926,0.83709
413.379,23.87206,-2.3101,2.05097,-0.0945816,0.83646
414.079,23.8918,-2.31113,2.05232,-0.09604363,0.83583
414.779,23.9116,-2.31301,2.04581,-0.09685262,0.8352
415.479,23.93139,-2.31513,2.03325,-0.09711257,0.83457
416.179,23.95119,-2.31761,2.03579,-0.09698517,0.83394
416.879,23.97097,-2.31957,2.03584,-0.09668187,0.83331
417.579,23.99083,-2.32148,2.01892,-0.09643126,0.83268
418.279,24.01067,-2.32332,2.00858,-0.09645554,0.83205
418.979,24.03046,-2.32503,1.99394,-0.09695337,0.83142
419.679,24.0503,-2.32668,1.98032,-0.09808258,0.83079
420.379,24.07009,-2.3283,1.97596,-0.09992547,0.83016
421.079,24.08991,-2.33027,1.9582,-0.10249,0.82954
421.779,24.10975,-2.33222,1.9506,-0.10569,0.82891
422.479,24.12963,-2.33407,1.9366,-0.1094,0.82828
423.179,24.14949,-2.33612,1.92919,-0.11343,0.82765
423.879,24.1694,-2.33894,1.9155,-0.11764,0.82702
424.579,24.1893,-2.34161,1.91627,-0.12187,0.82639
425.279,24.20903,-2.34341,1.8934,-0.12601,0.82576
425.979,24.2288,-2.34518,1.87618,-0.12999,0.82514
426.679,24.24853,-2.34816,1.86671,-0.13369,0.82451
427.379,24.26824,-2.3509,1.84341,-0.13698,0.82388
428.079,24.2881,-2.35497,1.83288,-0.13975,0.82325
428.779,24.30823,-2.35784,1.81832,-0.14189,0.82263
429.479,24.32832,-2.36017,1.80833,-0.14329,0.822
430.179,24.3485,-2.36328,1.80076,-0.14402,0.82137
430.879,24.36871,-2.36695,1.77858,-0.14423,0.82074
431.579,24.38881,-2.36952,1.76652,-0.14415,0.82012
432.279,24.4088,-2.37272,1.75418,-0.14407,0.81949
432.979,24.4289,-2.37549,1.73879,-0.1442,0.81886
433.679,24.44896,-2.37817,1.7218,-0.14473,0.81824
434.379,24.469,-2.38009,1.6953,-0.1457,0.81761
435.079,24.48901,-2.38272,1.69463,-0.14707,0.81698
435.779,24.5089,-2.38554,1.67562,-0.14867,0.81636
436.479,24.5289,-2.38913,1.67217,-0.1504,0.81573
437.179,24.54889,-2.39289,1.65539,-0.15214,0.8151
437.879,24.56899,-2.39626,1.6381,-0.15384,0.81448
438.579,24.58914,-2.3992,1.61729,-0.15559,0.81385
439.279,24.60933,-2.40229,1.60335,-0.15756,0.81323
439.979,24.62942,-2.40476,1.59672,-0.15996,0.8126
440.679,24.64955,-2.40784,1.58743,-0.16303,0.81198
441.379,24.6696,-2.41127,1.57707,-0.1669,0.81135
442.079,24.6897,-2.41449,1.57888,-0.17167,0.81073
442.779,24.70978,-2.41812,1.572,-0.17729,0.8101
443.479,24.72989,-2.42119,1.57206,-0.18361,0.80948
444.179,24.74999,-2.42439,1.56671,-0.19032,0.80886
444.879,24.77009,-2.42792,1.56607,-0.19712,0.80823
445.579,24.7902,-2.43233,1.5729,-0.20373,0.80761
446.279,24.8104,-2.43752,1.56754,-0.20986,0.80699
446.979,24.83057,-2.44272,1.5747,-0.21522,0.80636
447.679,24.85078,-2.44542,1.57906,-0.21966,0.80574
448.379,24.87095,-2.45048,1.58227,-0.22333,0.80512
449.079,24.89115,-2.45587,1.59617,-0.22677,0.8045
449.779,24.9113,-2.46122,1.61967,-0.23077,0.80387
450.479,24.9314,-2.46579,1.63124,-0.2362,0.80325
451.179,24.95159,-2.47103,1.64465,-0.24385,0.80263
451.879,24.97178,-2.47433,1.67287,-0.25401,0.80201
452.579,24.99203,-2.47903,1.7019,-0.26644,0.80139
453.279,25.01229,-2.4789,1.72044,-0.28025,0.80077
453.979,25.03259,-2.48038,1.76042,-0.29419,0.80015
454.679,25.05281,-2.49194,1.81541,-0.30684,0.79952
455.379,25.07302,-2.50636,1.85248,-0.31728,0.7989
456.079,25.0932,-2.51811,1.89116,-0.32518,0.79829
456.779,25.11347,-2.52051,1.94103,-0.33083,0.79767
457.479,25.13383,-2.5229,1.9971,-0.33506,0.79705
458.179,25.15421,-2.52758,2.04578,-0.33877,0.79643
458.879,25.17463,-2.53556,2.09842,-0.34277,0.79581
459.579,25.19497,-2.54259,2.16275,-0.34746,0.79519
460.279,25.2152,-2.55216,2.22653,-0.35285,0.79457
460.979,25.23555,-2.55934,2.29182,-0.35878,0.79395
461.679,25.25585,-2.56598,2.35691,-0.3649,0.79334
462.379,25.27621,-2.57182,2.4356,-0.37092,0.79272
463.079,25.29661,-2.57948,2.51101,-0.37665,0.7921
463.779,25.317,-2.58838,2.5934,-0.38208,0.79149
464.479,25.33737,-2.59739,2.66546,-0.38739,0.79087
465.179,25.35776,-2.60526,2.7356,-0.39278,0.79025
465.879,25.37813,-2.61336,2.81703,-0.39831,0.78964
466.579,25.39858,-2.61978,2.89334,-0.40406,0.78902
467.279,25.41902,-2.62754,2.98599,-0.41001,0.78841
467.979,25.43945,-2.6359,3.05146,-0.4161,0.78779
468.679,25.45992,-2.64549,3.13121,-0.42217,0.78718
469.379,25.48041,-2.65497,3.21426,-0.42797,0.78656
470.079,25.50092,-2.66392,3.29755,-0.43323,0.78595
470.779,25.52148,-2.6726,3.37043,-0.43776,0.78534
471.479,25.54202,-2.68136,3.44785,-0.44139,0.78472
472.179,25.56256,-2.69032,3.5221,-0.44406,0.78411
472.879,25.58308,-2.69954,3.61134,-0.44574,0.7835
473.579,25.60367,-2.71075,3.65592,-0.44641,0.78289
474.279,25.62417,-2.7196,3.74902,-0.44611,0.78228
474.979,25.6447,-2.72841,3.79694,-0.44491,0.78166
475.679,25.66527,-2.73646,3.82758,-0.44306,0.78105
476.379,25.6858,-2.74689,3.88585,-0.4409,0.78044
477.079,25.7064,-2.7562,3.9336,-0.43881,0.77983
477.779,25.72702,-2.767,3.99593,-0.43718,0.77922
478.479,25.74761,-2.77431,4.04776,-0.43633,0.77861
479.179,25.76819,-2.78198,4.11866,-0.43634,0.778
479.879,25.78875,-2.78851,4.17003,-0.43702,0.7774
480.579,25.80937,-2.79864,4.21345,-0.43797,0.77679
481.279,25.83,-2.80796,4.27093,-0.43866,0.77618
481.979,25.85071,-2.82052,4.32498,-0.43871,0.77557
482.679,25.8714,-2.82942,4.36359,-0.43794,0.77497
483.379,25.8921,-2.83807,4.37402,-0.43628,0.77436
484.079,25.9128,-2.84422,4.40816,-0.43375,0.77375
484.779,25.93346,-2.85521,4.41891,-0.43059,0.77315
485.479,25.95415,-2.86457,4.43725,-0.42725,0.77254
486.179,25.9748,-2.87329,4.44818,-0.42431,0.77194
486.879,25.99556,-2.8805,4.46897,-0.42231,0.77133
487.579,26.0163,-2.89086,4.46929,-0.42169,0.77073
488.279,26.037,-2.89995,4.45383,-0.42264,0.77012
488.979,26.0578,-2.9096,4.45289,-0.42487,0.76952
489.679,26.07856,-2.91313,4.4275,-0.42756,0.76892
490.379,26.09936,-2.91675,4.39263,-0.42953,0.76831
491.079,26.12013,-2.92818,4.38662,-0.42952,0.76771
491.779,26.14091,-2.94547,4.38353,-0.42661,0.76711
492.479,26.16163,-2.96187,4.38159,-0.4205,0.76651
493.179,26.1824,-2.96601,4.37824,-0.41165,0.76591
493.879,26.20316,-2.97049,4.3678,-0.40114,0.76531
494.579,26.22393,-2.97842,4.353,-0.39021,0.76471
495.279,26.2447,-2.98515,4.34303,-0.37991,0.76411
495.979,26.2655,-2.99174,4.32314,-0.37082,0.76351
496.679,26.2863,-2.9999,4.26138,-0.36323,0.76291
497.379,26.3071,-3.01047,4.24722,-0.35702,0.76231
498.079,26.3278,-3.01752,4.24655,-0.35197,0.76172
498.779,26.3486,-3.02431,4.23724,-0.34765,0.76112
499.479,26.36952,-3.02949,4.21593,-0.34374,0.76052
500.179,26.3903,-3.03654,4.1981,-0.34002,0.75993
500.879,26.41136,-3.04237,4.17747,-0.33622,0.75933
501.579,26.4323,-3.05115,4.15421,-0.33211,0.75874
502.279,26.45317,-3.05918,4.12616,-0.32742,0.75814
502.979,26.4741,-3.06783,4.09562,-0.32201,0.75755
503.679,26.49503,-3.07321,4.03652,-0.31607,0.75695
504.379,26.516,-3.07897,3.99311,-0.30991,0.75636
505.079,26.53687,-3.08456,3.98263,-0.30382,0.75577
505.779,26.5578,-3.09084,3.95603,-0.29797,0.75517
506.479,26.57872,-3.09697,3.92346,-0.29243,0.75458
507.179,26.59967,-3.10359,3.89129,-0.2871,0.75399
507.879,26.62065,-3.10949,3.85375,-0.28177,0.7534
508.579,26.64159,-3.11558,3.8291,-0.27625,0.75281
509.279,26.6626,-3.1213,3.797,-0.27037,0.75222
509.979,26.6836,-3.12669,3.71952,-0.26412,0.75163
510.679,26.70451,-3.13291,3.69818,-0.25751,0.75104
511.379,26.72555,-3.13806,3.67159,-0.25061,0.75045
512.079,26.7466,-3.14312,3.63925,-0.24363,0.74987
512.779,26.7676,-3.14757,3.60359,-0.23673,0.74928
513.479,26.78867,-3.15408,3.56673,-0.2301,0.74869
514.179,26.80968,-3.15811,3.53217,-0.2239,0.74811
514.879,26.83069,-3.16186,3.49769,-0.21819,0.74752
515.579,26.85172,-3.16582,3.47258,-0.21291,0.74694
516.279,26.8728,-3.17072,3.43141,-0.20784,0.74635
516.979,26.89382,-3.17488,3.39769,-0.20263,0.74577
517.679,26.91491,-3.17879,3.36147,-0.19684,0.74518
518.379,26.936,-3.1843,3.32505,-0.19016,0.7446
519.079,26.957,-3.18889,3.28372,-0.18251,0.74402
519.779,26.9781,-3.19224,3.24548,-0.17396,0.74344
520.479,26.9992,-3.19556,3.20381,-0.16493,0.74286
521.179,27.02024,-3.20057,3.16099,-0.15588,0.74227
521.879,27.04141,-3.20313,3.12155,-0.14734,0.74169
522.579,27.0625,-3.20497,3.08908,-0.13983,0.74111
523.279,27.0836,-3.2064,3.06517,-0.13353,0.74054
523.979,27.10466,-3.20805,3.02781,-0.12828,0.73996
524.679,27.1258,-3.21167,3.00968,-0.12369,0.73938
525.379,27.14688,-3.21654,2.97747,-0.11949,0.7388
526.079,27.1681,-3.21894,2.94276,-0.11564,0.73822
526.779,27.1892,-3.22018,2.90637,-0.11243,0.73765
527.479,27.2104,-3.22307,2.88557,-0.11038,0.73707
528.179,27.2316,-3.22626,2.8615,-0.10998,0.7365
528.879,27.25277,-3.22832,2.83046,-0.11139,0.73592
529.579,27.27393,-3.22804,2.80114,-0.11422,0.73535
530.279,27.2951,-3.22534,2.77962,-0.11749,0.73478
530.979,27.3163,-3.22675,2.74649,-0.11978,0.7342
531.679,27.3374,-3.23473,2.74385,-0.11976,0.73363
532.379,27.3586,-3.24478,2.71682,-0.11658,0.73306
533.079,27.3798,-3.24768,2.70312,-0.11024,0.73249
533.779,27.40097,-3.24769,2.68359,-0.10147,0.73192
534.479,27.4222,-3.24768,2.66972,-0.09161364,0.73135
535.179,27.44339,-3.24807,2.6448,-0.0819424,0.73078
535.879,27.46466,-3.24939,2.62219,-0.07347161,0.73021
536.579,27.48593,-3.25039,2.61199,-0.06675608,0.72964
537.279,27.5072,-3.25198,2.60517,-0.06186386,0.72907
537.979,27.52853,-3.25372,2.59051,-0.05855378,0.72851
538.679,27.5498,-3.2558,2.58471,-0.05643494,0.72794
539.379,27.57112,-3.25688,2.56211,-0.05517103,0.72737
540.079,27.59239,-3.25615,2.55015,-0.05455533,0.72681
540.779,27.61365,-3.25748,2.5389,-0.05446558,0.72624
541.479,27.6349,-3.25924,2.53916,-0.05471332,0.72568
542.179,27.65617,-3.25945,2.5299,-0.05498986,0.72512
542.879,27.67744,-3.26112,2.51808,-0.05496565,0.72455
543.579,27.69874,-3.2634,2.51576,-0.05439707,0.72399
544.279,27.72014,-3.26384,2.50147,-0.0531814,0.72343
544.979,27.74147,-3.26532,2.49259,-0.05139736,0.72287
545.679,27.76285,-3.26685,2.48599,-0.04923817,0.72231
546.379,27.78417,-3.26829,2.47178,-0.04699639,0.72175
547.079,27.8055,-3.26844,2.46322,-0.04496474,0.72119
547.779,27.82678,-3.2688,2.4552,-0.04333647,0.72063
548.479,27.8481,-3.26983,2.44637,-0.04213798,0.72008
549.179,27.86952,-3.27007,2.45591,-0.04122721,0.71952
549.879,27.8909,-3.27164,2.45178,-0.04036199,0.71896
550.579,27.9123,-3.27172,2.46185,-0.03927328,0.71841
551.279,27.9337,-3.2744,2.44873,-0.0377494,0.71785
551.979,27.9551,-3.27451,2.44194,-0.03572947,0.7173
552.679,27.97648,-3.27565,2.44374,-0.03329007,0.71674
553.379,27.9979,-3.27681,2.44379,-0.03062202,0.71619
554.079,28.01929,-3.27687,2.44338,-0.02798822,0.71564
554.779,28.0407,-3.27687,2.45083,-0.02562057,0.71509
555.479,28.06205,-3.27683,2.45796,-0.0236857,0.71454
556.179,28.0835,-3.27777,2.45835,-0.02225707,0.71399
556.879,28.1049,-3.2788,2.45205,-0.02134645,0.71344
557.579,28.1263,-3.27916,2.45883,-0.02091479,0.71289
558.279,28.1477,-3.27917,2.45686,-0.02088147,0.71234
558.979,28.1692,-3.27917,2.46647,-0.02113303,0.71179
559.679,28.1906,-3.27917,2.47804,-0.02152341,0.71124
560.379,28.2121,-3.28058,2.47828,-0.02187518,0.7107
561.079,28.23357,-3.28067,2.48039,-0.02200767,0.71015
561.779,28.25504,-3.28185,2.48118,-0.0218047,0.70961
562.479,28.2765,-3.28171,2.48306,-0.021264,0.70906
563.179,28.298,-3.28311,2.48381,-0.02048988,0.70852
563.879,28.3195,-3.28329,2.48523,-0.01966915,0.70797
564.579,28.34099,-3.28378,2.49052,-0.01904715,0.70743
565.279,28.36249,-3.28378,2.49483,-0.01885009,0.70689
565.979,28.38399,-3.28378,2.50508,-0.01920419,0.70635
566.679,28.4055,-3.28377,2.50775,-0.02006929,0.70581
567.379,28.42698,-3.28369,2.507,-0.02124525,0.70527
568.079,28.44847,-3.28508,2.51493,-0.02241673,0.70473
568.779,28.47,-3.28542,2.52006,-0.02323263,0.70419
569.479,28.4915,-3.2865,2.52881,-0.02338926,0.70365
570.179,28.51312,-3.28655,2.52713,-0.02270128,0.70312
570.879,28.53466,-3.28737,2.53215,-0.02114975,0.70258
571.579,28.5562,-3.28917,2.53051,-0.01887946,0.70204
572.279,28.5777,-3.28912,2.53351,-0.01621731,0.70151
572.979,28.5993,-3.28907,2.54675,-0.01359173,0.70097
573.679,28.62088,-3.28904,2.54437,-0.01141188,0.70044
574.379,28.6425,-3.28904,2.55184,-0.009979129,0.69991
575.079,28.6641,-3.28904,2.56068,-0.009423976,0.69938
575.779,28.68566,-3.28904,2.55337,-0.00968078,0.69884
576.479,28.7072,-3.28904,2.55625,-0.01053529,0.69831
577.179,28.72883,-3.28904,2.56715,-0.01169783,0.69778
577.879,28.7505,-3.28904,2.56814,-0.01287081,0.69725
578.579,28.77208,-3.29044,2.58329,-0.01382639,0.69673
579.279,28.7937,-3.29184,2.59054,-0.01444918,0.6962
579.979,28.81526,-3.29164,2.59553,-0.01474451,0.69567
580.679,28.8369,-3.29031,2.60485,-0.01478828,0.69514
581.379,28.85853,-3.29158,2.63038,-0.01466327,0.69462
582.079,28.8802,-3.29168,2.64352,-0.01443347,0.69409
582.779,28.9018,-3.29281,2.64222,-0.01415136,0.69357
583.479,28.9235,-3.29309,2.65578,-0.01388437,0.69304
584.179,28.94517,-3.2931,2.65691,-0.0137121,0.69252
584.879,28.96681,-3.2931,2.68057,-0.01368363,0.692
585.579,28.9885,-3.2931,2.68757,-0.01377925,0.69148
586.279,29.01012,-3.2931,2.69089,-0.01388885,0.69096
586.979,29.03175,-3.29409,2.7049,-0.01384163,0.69044
587.679,29.0534,-3.29446,2.71771,-0.01344268,0.68992
588.379,29.07511,-3.29442,2.74028,-0.01250837,0.6894
589.079,29.09678,-3.29435,2.75066,-0.0109343,0.68888
589.779,29.1185,-3.29659,2.75856,-0.008785451,0.68836
590.479,29.1402,-3.29672,2.76631,-0.006326558,0.68785
591.179,29.16191,-3.29658,2.79322,-0.00396477,0.68733
591.879,29.1836,-3.29539,2.80013,-0.002156456,0.68682
592.579,29.20543,-3.2954,2.81355,-0.001308221,0.6863
593.279,29.2271,-3.29537,2.84287,-0.001669921,0.68579
593.979,29.2489,-3.29577,2.85578,-0.003264593,0.68528
594.679,29.2707,-3.2944,2.84907,-0.00587933,0.68476
595.379,29.2925,-3.29442,2.8856,-0.009068365,0.68425
596.079,29.31428,-3.29445,2.90729,-0.01228773,0.68374
596.779,29.33612,-3.29535,2.91502,-0.01499898,0.68323
597.479,29.35789,-3.29709,2.924,-0.01681766,0.68272
598.179,29.37963,-3.29768,2.94189,-0.01764597,0.68222
598.879,29.40142,-3.29836,2.97797,-0.01760493,0.68171
599.579,29.4231,-3.29837,2.98971,-0.01690352,0.6812
600.279,29.4449,-3.29837,3.01581,-0.01572334,0.68069
600.979,29.46674,-3.29837,3.03113,-0.01418724,0.68019
601.679,29.4883,-3.29837,3.05658,-0.01233174,0.67968
602.379,29.5101,-3.29837,3.07795,-0.009978188,0.67918
603.079,29.5319,-3.2997,3.10082,-0.00695697,0.67868
603.779,29.5537,-3.30069,3.1211,-0.003341587,0.67818
604.479,29.5758,-3.3011,3.15148,0.000393579,0.67767
605.179,29.59771,-3.30112,3.14943,0.003274553,0.67717
605.879,29.61955,-3.29982,3.16591,0.004306756,0.67667
606.579,29.64142,-3.29977,3.18646,0.00267382,0.67617
607.279,29.6633,-3.29874,3.18462,-0.00192726,0.67567
607.979,29.68518,-3.29748,3.17824,-0.008988418,0.67518
608.679,29.70703,-3.2937,3.18472,-0.01725928,0.67468
609.379,29.7289,-3.29233,3.19676,-0.02501875,0.67418
610.079,29.7506,-3.29824,3.19659,-0.03055703,0.67369
610.779,29.77249,-3.30636,3.1708,-0.03287534,0.67319
611.479,29.79437,-3.30726,3.13022,-0.03169941,0.6727
612.179,29.8163,-3.3046,3.0883,-0.02781365,0.6722
612.879,29.8382,-3.30336,3.03958,-0.02246836,0.67171
613.579,29.86014,-3.30451,2.98341,-0.01710821,0.67122
614.279,29.88202,-3.30451,2.93021,-0.00166987,0.67073
614.979,29.904,-3.30451,2.8811,0.009984036,0.67024
615.679,29.926,-3.30451,2.83095,0.009431054,0.66975
616.379,29.94799,-3.30451,2.78032,0.01624208,0.66926
617.079,29.97007,-3.30451,2.75272,0.02703815,0.66877
617.779,29.99209,-3.30315,2.72635,0.04646426,0.66829
617.979,29.9983,-3.30317,2.71616,0.05262662,0.66815