File: 01_Data/PVC/STA/N2/30K_min/PVC_STA_N2_30KData_210810_R2.csv
##Temp./Â°C,Time/min,Mass loss(subtr.2)/mg,DSC(subtr.2)/mW,DTG(subtr.2)/(mg/min),Sensit./(uV/mW)
49.364,10.00917,-0.00701,-0.04487844,0.0,1.05401
50.064,11.06173,-0.006062491,0.10015,0.0002575139,1.05402
50.764,11.29652,-0.00684875,0.21835,-0.006640427,1.05404
51.464,11.45684,-0.00746904,0.32759,-0.00189185,1.05405
52.164,11.58123,-0.00690032,0.42249,1.453128e-05,1.05405
52.864,11.69026,-0.008454583,0.51384,0.0039043,1.05406
53.564,11.78495,-0.00655189,0.59512,0.00267473,1.05406
54.264,11.87009,-0.00704008,0.67586,0.000797613,1.05406
54.964,11.9486,-0.007423646,0.75049,-0.0009421261,1.05406
55.664,12.02178,-0.0074062,0.8128,-0.0007622322,1.05406
56.364,12.09041,-0.005980651,0.88081,-0.001418276,1.05405
57.064,12.15511,-0.007457536,0.94329,-0.001540312,1.05404
57.764,12.21658,-0.008433443,0.99449,0.0005691916,1.05403
58.464,12.27491,-0.0065663,1.05949,0.00108906,1.05402
59.164,12.3329,-0.00688939,1.1111,-0.00159098,1.054
59.864,12.3889,-0.006793856,1.1718,-0.004021415,1.05398
60.564,12.44241,-0.008511161,1.22546,-0.003584124,1.05396
61.264,12.49473,-0.007246231,1.27785,-0.001927812,1.05394
61.964,12.546,-0.00734755,1.33342,-0.0009573864,1.05391
62.664,12.59631,-0.00804324,1.38485,-0.00010294,1.05388
63.364,12.64545,-0.00893572,1.43618,0.0009119147,1.05385
64.064,12.69367,-0.00647973,1.47759,0.0007756739,1.05382
64.764,12.74085,-0.00754991,1.4958,-0.0004282168,1.05378
65.464,12.7873,-0.007421171,1.51315,-0.0008807501,1.05375
66.164,12.833,-0.008688997,1.50693,-0.0002725426,1.05371
66.864,12.87807,-0.007224058,1.50831,-0.000418252,1.05367
67.564,12.92232,-0.007916639,1.5176,-0.00263895,1.05362
68.264,12.96578,-0.00714331,1.53567,-0.005821591,1.05357
68.964,13.00902,-0.008873999,1.54971,-0.007805513,1.05352
69.664,13.05193,-0.009156528,1.5837,-0.00730813,1.05347
70.364,13.09448,-0.009632392,1.60618,-0.00472737,1.05342
71.064,13.1362,-0.008927256,1.63181,-0.00183372,1.05336
71.764,13.1776,-0.01039226,1.66602,-0.0004428829,1.0533
72.464,13.21865,-0.008984425,1.69042,-0.001361901,1.05324
73.164,13.25866,-0.00710869,1.7259,-0.003581049,1.05318
73.864,13.299,-0.01008727,1.75672,-0.005098291,1.05312
74.564,13.33968,-0.01028702,1.78478,-0.004410702,1.05305
75.264,13.3791,-0.009530258,1.81643,-0.002003711,1.05298
75.964,13.41831,-0.01041543,1.85432,0.0004855881,1.05291
76.664,13.4571,-0.01000378,1.89483,0.00172136,1.05283
77.364,13.4954,-0.00896629,1.93036,0.001481337,1.05275
78.064,13.53326,-0.009713546,1.97566,0.0004617897,1.05267
78.764,13.57086,-0.01019575,2.00459,-0.0003870392,1.05259
79.464,13.6083,-0.009230023,2.05567,-0.000393033,1.05251
80.164,13.6454,-0.01014285,2.09419,0.0003278382,1.05242
80.864,13.6822,-0.01025543,2.1337,0.000752674,1.05234
81.564,13.71834,-0.008987283,2.1749,3.57542e-05,1.05224
82.264,13.75426,-0.008177147,2.21079,-0.00138621,1.05215
82.964,13.7901,-0.00947835,2.24956,-0.001888184,1.05206
83.664,13.82585,-0.01090117,2.2749,3.703884e-05,1.05196
84.364,13.86121,-0.01127742,2.30821,0.004072897,1.05186
85.064,13.8962,-0.009414158,2.33914,0.00805501,1.05176
85.764,13.93074,-0.009010327,2.36428,0.009410995,1.05165
86.464,13.9651,-0.00863225,2.38013,0.006975541,1.05155
87.164,13.9992,-0.007128624,2.40761,0.001609151,1.05144
87.864,14.03292,-0.007150846,2.41947,-0.00433892,1.05133
88.564,14.0663,-0.008528841,2.43516,-0.008364444,1.05121
89.264,14.09944,-0.009959884,2.45488,-0.008949955,1.0511
89.964,14.13241,-0.01001975,2.48458,-0.006041227,1.05098
90.664,14.1653,-0.01011248,2.50217,-0.0008136204,1.05086
91.364,14.1978,-0.0101668,2.51595,0.004781782,1.05074
92.064,14.22995,-0.009845123,2.5439,0.00899389,1.05062
92.764,14.26179,-0.008724753,2.57053,0.01073876,1.05049
93.464,14.2935,-0.008116148,2.58876,0.009862443,1.05036
94.164,14.32516,-0.0076255,2.6312,0.00696945,1.05023
94.864,14.3565,-0.007725224,2.66451,0.003105497,1.0501
95.564,14.38744,-0.00776025,2.6939,-0.000676784,1.04996
96.264,14.4183,-0.008686222,2.72162,-0.003633581,1.04982
96.964,14.44895,-0.008303928,2.7624,-0.0053317,1.04968
97.664,14.47955,-0.008191602,2.80066,-0.00567916,1.04954
98.364,14.5098,-0.00889393,2.8264,-0.004891101,1.0494
99.064,14.54005,-0.009443606,2.864,-0.00348823,1.04925
99.764,14.5701,-0.009797169,2.90419,-0.002132173,1.0491
100.464,14.6,-0.008304765,2.94079,-0.001273375,1.04895
101.164,14.62955,-0.00887764,2.97424,-0.0009761644,1.0488
101.864,14.6591,-0.00899055,3.01122,-0.00103663,1.04865
102.564,14.6883,-0.009026147,3.05033,-0.001212739,1.04849
103.264,14.71746,-0.008946624,3.08349,-0.001426173,1.04833
103.964,14.74629,-0.01009908,3.11761,-0.00171465,1.04817
104.664,14.7751,-0.008887417,3.15552,-0.002110781,1.04801
105.364,14.8037,-0.008385027,3.19318,-0.002560233,1.04784
106.064,14.83215,-0.00998529,3.23209,-0.00292905,1.04767
106.764,14.8604,-0.01087084,3.26168,-0.003155245,1.0475
107.464,14.8887,-0.009857804,3.30583,-0.003278961,1.04733
108.164,14.9168,-0.00922875,3.33756,-0.00329947,1.04716
108.864,14.94493,-0.009449347,3.37944,-0.0030343,1.04698
109.564,14.97287,-0.01043257,3.39196,-0.002232779,1.0468
110.264,15.0007,-0.01033535,3.43239,-0.0008042064,1.04662
110.964,15.0283,-0.01013514,3.46732,0.0009922769,1.04644
111.664,15.0557,-0.01111176,3.50695,0.00260217,1.04626
112.364,15.08301,-0.009519868,3.53159,0.00341381,1.04607
113.064,15.11031,-0.0085687,3.56704,0.00305139,1.04588
113.764,15.13751,-0.009057113,3.60073,0.001600579,1.04569
114.464,15.1645,-0.009325813,3.62649,-0.0004481673,1.0455
115.164,15.19149,-0.009665925,3.66344,-0.002477401,1.0453
115.864,15.2184,-0.009416538,3.70066,-0.00398409,1.0451
116.564,15.24514,-0.01050826,3.71781,-0.004704828,1.0449
117.264,15.27181,-0.00946215,3.7593,-0.004590142,1.0447
117.964,15.2983,-0.01082166,3.79608,-0.003735079,1.0445
118.664,15.3247,-0.01033042,3.81283,-0.00232737,1.04429
119.364,15.35106,-0.01091982,3.84749,-0.0006059034,1.04409
120.064,15.3772,-0.01031086,3.87946,0.001182145,1.04388
120.764,15.40335,-0.01092303,3.91487,0.00280456,1.04367
121.464,15.4292,-0.00953798,3.9381,0.004027633,1.04345
122.164,15.455,-0.01061989,3.963,0.004658193,1.04324
122.864,15.4809,-0.009497376,3.99642,0.004551126,1.04302
123.564,15.5068,-0.009357996,4.02677,0.003646804,1.0428
124.264,15.53251,-0.01022827,4.04857,0.002006534,1.04258
124.964,15.558,-0.009314635,4.08057,-0.0001354022,1.04235
125.664,15.58332,-0.008022898,4.10608,-0.00237945,1.04213
126.364,15.60861,-0.00909026,4.12343,-0.00424086,1.0419
127.064,15.6339,-0.009957395,4.14942,-0.00528165,1.04167
127.764,15.65911,-0.01018939,4.18006,-0.00528242,1.04144
128.464,15.68416,-0.01062751,4.20292,-0.004323012,1.0412
129.164,15.7089,-0.01064424,4.22992,-0.00276827,1.04097
129.864,15.73381,-0.0116417,4.25435,-0.001084422,1.04073
130.564,15.75867,-0.01050756,4.27903,0.0002508259,1.04049
131.264,15.78365,-0.00923667,4.30932,0.000947852,1.04025
131.964,15.80841,-0.0104843,4.33455,0.0009537856,1.04001
132.664,15.833,-0.009315656,4.36856,0.000480583,1.03976
133.364,15.8576,-0.01042163,4.38204,-0.0001702137,1.03951
134.064,15.88207,-0.00928511,4.41028,-0.0007497605,1.03926
134.764,15.9064,-0.01060705,4.4315,-0.001106038,1.03901
135.464,15.93065,-0.01036739,4.45352,-0.001217641,1.03876
136.164,15.9549,-0.01097888,4.48607,-0.001147016,1.0385
136.864,15.97906,-0.01030913,4.49778,-0.001015702,1.03824
137.564,16.00319,-0.01005691,4.53051,-0.000948057,1.03798
138.264,16.02727,-0.0100764,4.55023,-0.001015548,1.03772
138.964,16.05128,-0.01016973,4.57473,-0.00125076,1.03746
139.664,16.07519,-0.01153758,4.60085,-0.00165233,1.03719
140.364,16.09895,-0.01008106,4.62484,-0.002142503,1.03693
141.064,16.12274,-0.01007908,4.6465,-0.002590181,1.03666
141.764,16.14636,-0.01007365,4.66266,-0.002843584,1.03639
142.464,16.16994,-0.01012813,4.68244,-0.00278187,1.03611
143.164,16.19344,-0.01152155,4.70774,-0.002400953,1.03584
143.864,16.2168,-0.01126395,4.72992,-0.00181676,1.03556
144.564,16.2403,-0.01152247,4.75398,-0.00121893,1.03528
145.264,16.2637,-0.01110394,4.77259,-0.0008237212,1.035
145.964,16.28708,-0.01018796,4.79821,-0.000795196,1.03472
146.664,16.31031,-0.01017943,4.81829,-0.001205449,1.03444
147.364,16.33353,-0.0112067,4.82404,-0.002047194,1.03415
148.064,16.35669,-0.01158374,4.86171,-0.003245235,1.03386
148.764,16.37979,-0.01023741,4.88349,-0.004674731,1.03357
149.464,16.4029,-0.0115902,4.90213,-0.006186899,1.03328
150.164,16.42595,-0.010232,4.92195,-0.00757757,1.03299
150.864,16.4489,-0.01083013,4.94888,-0.008628001,1.03269
151.564,16.47186,-0.01146937,4.96725,-0.009127062,1.03239
152.264,16.4947,-0.01260254,4.99238,-0.00893658,1.0321
152.964,16.51751,-0.01282553,4.99956,-0.008033202,1.03179
153.664,16.54028,-0.01283033,5.03092,-0.00652994,1.03149
154.364,16.56298,-0.01283987,5.04763,-0.004655561,1.03119
155.064,16.58558,-0.01270072,5.08042,-0.002712162,1.03088
155.764,16.6082,-0.0127098,5.09079,-0.00101986,1.03057
156.464,16.63074,-0.01321817,5.10691,0.000119094,1.03026
157.164,16.65322,-0.01262639,5.12072,0.000489785,1.02995
157.864,16.67569,-0.01250867,5.14274,-3.902885e-06,1.02964
158.564,16.69807,-0.01255164,5.16261,-0.001289744,1.02932
159.264,16.72054,-0.0111738,5.18766,-0.00317186,1.029
159.964,16.74289,-0.01189208,5.1945,-0.00531303,1.02868
160.664,16.76527,-0.01247285,5.21708,-0.007328154,1.02836
161.364,16.78763,-0.01243459,5.23211,-0.008847515,1.02804
162.064,16.80981,-0.0138124,5.25293,-0.009627259,1.02772
162.764,16.83204,-0.01381053,5.26919,-0.009586127,1.02739
163.464,16.8542,-0.01381096,5.29124,-0.008768837,1.02706
164.164,16.87631,-0.0138232,5.30804,-0.00734334,1.02673
164.864,16.8984,-0.01440631,5.31942,-0.005547287,1.0264
165.564,16.92042,-0.01512144,5.34341,-0.00364378,1.02607
166.264,16.94238,-0.01510079,5.35087,-0.00186658,1.02573
166.964,16.96419,-0.01372865,5.37017,-0.000444952,1.0254
167.664,16.98616,-0.01377191,5.38993,0.0004703775,1.02506
168.364,17.00816,-0.01514212,5.40694,0.0007819253,1.02472
169.064,17.03,-0.01380873,5.42295,0.0005083045,1.02437
169.764,17.0519,-0.01380979,5.43782,-0.00024016,1.02403
170.464,17.0736,-0.01380998,5.45659,-0.001267108,1.02368
171.164,17.0953,-0.01380998,5.47229,-0.002366496,1.02334
171.864,17.117,-0.01380977,5.48704,-0.0033469,1.02299
172.564,17.13873,-0.01380908,5.50256,-0.004045705,1.02264
173.264,17.16038,-0.01530148,5.51648,-0.004372667,1.02229
173.964,17.18207,-0.01523214,5.53789,-0.004335832,1.02193
174.664,17.20359,-0.01484061,5.54535,-0.00400323,1.02158
175.364,17.22506,-0.01386248,5.55533,-0.00347014,1.02122
176.064,17.24654,-0.01512564,5.57184,-0.00285035,1.02086
176.764,17.268,-0.01523691,5.58511,-0.002268791,1.0205
177.464,17.2895,-0.01524,5.59652,-0.001827024,1.02014
178.164,17.31081,-0.01523567,5.61136,-0.001592869,1.01977
178.864,17.3322,-0.0151053,5.61815,-0.001584385,1.01941
179.564,17.35343,-0.01387464,5.63574,-0.001770551,1.01904
180.264,17.37461,-0.0148249,5.64872,-0.002068964,1.01867
180.964,17.39586,-0.01522251,5.66987,-0.002384958,1.0183
181.664,17.4171,-0.01523923,5.68222,-0.00265288,1.01793
182.364,17.43821,-0.01524005,5.68108,-0.00286553,1.01755
183.064,17.4593,-0.01523983,5.69677,-0.00306527,1.01718
183.764,17.4803,-0.01521641,5.70809,-0.003318019,1.0168
184.464,17.5013,-0.0162933,5.72134,-0.003696643,1.01642
185.164,17.5223,-0.01506593,5.73526,-0.004258042,1.01604
185.864,17.54328,-0.0151257,5.73111,-0.00499609,1.01566
186.564,17.56428,-0.0151359,5.74961,-0.005850955,1.01528
187.264,17.58519,-0.01529385,5.7579,-0.00670894,1.01489
187.964,17.60603,-0.01573808,5.77904,-0.00742103,1.0145
188.664,17.62689,-0.01647258,5.77925,-0.007853964,1.01412
189.364,17.6477,-0.01644146,5.7884,-0.007929168,1.01373
190.064,17.66849,-0.01644003,5.79168,-0.007608231,1.01333
190.764,17.68923,-0.01644002,5.80707,-0.006885641,1.01294
191.464,17.70995,-0.0164438,5.81619,-0.005807412,1.01255
192.164,17.7306,-0.01782416,5.83349,-0.004473907,1.01215
192.864,17.7513,-0.01776733,5.8415,-0.003020596,1.01175
193.564,17.7719,-0.01778907,5.8425,-0.001603716,1.01135
194.264,17.79253,-0.01682636,5.84848,-0.0003842011,1.01095
194.964,17.81308,-0.01647422,5.85273,0.0005012726,1.01055
195.664,17.83357,-0.01683869,5.87201,0.000958337,1.01014
196.364,17.85399,-0.01781375,5.87856,0.0009487043,1.00974
197.064,17.8745,-0.01668307,5.88432,0.0004866135,1.00933
197.764,17.89495,-0.01645165,5.89615,-0.0003408235,1.00892
198.464,17.91538,-0.01644077,5.90566,-0.001367498,1.00851
199.164,17.93581,-0.01644019,5.93287,-0.0023893,1.0081
199.864,17.95624,-0.01644186,5.91633,-0.00320325,1.00769
200.564,17.97662,-0.01660084,5.928,-0.003646102,1.00727
201.264,17.99697,-0.01780194,5.95147,-0.003633818,1.00686
201.964,18.01732,-0.01776248,5.95906,-0.003162147,1.00644
202.664,18.0377,-0.01776016,5.97429,-0.002317981,1.00602
203.364,18.058,-0.01776027,5.98177,-0.001267062,1.0056
204.064,18.07829,-0.017763,5.99474,-0.0001809253,1.00518
204.764,18.0986,-0.01778967,6.00838,0.000840787,1.00475
205.464,18.11879,-0.01644819,6.01778,0.00174784,1.00433
206.164,18.13897,-0.01742277,6.02202,0.00250444,1.0039
206.864,18.15915,-0.01742996,6.03221,0.003031539,1.00348
207.564,18.1793,-0.01743002,6.04549,0.00318328,1.00305
208.264,18.19942,-0.01743,6.0558,0.002766898,1.00261
208.964,18.2196,-0.01743003,6.06981,0.001580759,1.00218
209.664,18.2397,-0.01743048,6.07972,-0.000478935,1.00175
210.364,18.2598,-0.0174375,6.08586,-0.003333182,1.00131
211.064,18.27996,-0.01501183,6.09499,-0.006692245,1.00088
211.764,18.30001,-0.01308579,6.11765,-0.01001019,1.00044
212.464,18.32004,-0.01438876,6.12422,-0.01270684,1.0
213.164,18.34008,-0.01867519,6.13353,-0.01429838,0.99956
213.864,18.3601,-0.02078586,6.12866,-0.01453864,0.99912
214.564,18.38007,-0.02063742,6.14082,-0.01350825,0.99867
215.264,18.40006,-0.01974146,6.14837,-0.01157116,0.99823
215.964,18.42001,-0.01973061,6.1684,-0.009267997,0.99778
216.664,18.43995,-0.01972756,6.17495,-0.007121107,0.99733
217.364,18.45993,-0.01839988,6.18213,-0.00549885,0.99688
218.064,18.47984,-0.01874421,6.18085,-0.004561304,0.99643
218.764,18.49981,-0.01874919,6.1958,-0.00423575,0.99598
219.464,18.5197,-0.01874521,6.20438,-0.004310113,0.99553
220.164,18.53957,-0.01944394,6.2219,-0.004503919,0.99507
220.864,18.5594,-0.0200682,6.22627,-0.004567132,0.99462
221.564,18.57925,-0.02006995,6.21995,-0.004363888,0.99416
222.264,18.59913,-0.02007,6.23277,-0.003892976,0.9937
222.964,18.61898,-0.02007,6.24484,-0.003230962,0.99324
223.664,18.63884,-0.02007,6.25307,-0.00245539,0.99278
224.364,18.6586,-0.02007,6.25297,-0.00163784,0.99232
225.064,18.67843,-0.02007,6.25301,-0.0008457075,0.99185
225.764,18.69819,-0.02007,6.26735,-0.000139399,0.99139
226.464,18.71794,-0.02007,6.26777,0.0004564044,0.99092
227.164,18.73771,-0.02006997,6.27496,0.0009252938,0.99045
227.864,18.75744,-0.0200695,6.27369,0.001239818,0.98999
228.564,18.7772,-0.02006229,6.28066,0.001375891,0.98951
229.264,18.79691,-0.01980306,6.29541,0.00130928,0.98904
229.964,18.8166,-0.0197449,6.30807,0.001009304,0.98857
230.664,18.8363,-0.01974039,6.30952,0.0004484907,0.9881
231.364,18.856,-0.01973995,6.30701,-0.000385988,0.98762
232.064,18.87562,-0.01973879,6.31347,-0.001491,0.98714
232.764,18.89527,-0.01972309,6.31767,-0.00283579,0.98666
233.464,18.91486,-0.01938419,6.32417,-0.004358598,0.98619
234.164,18.93446,-0.01962665,6.31677,-0.005998695,0.9857
234.864,18.9541,-0.02004432,6.32925,-0.007687027,0.98522
235.564,18.97363,-0.02006969,6.33761,-0.009355499,0.98474
236.264,18.99319,-0.02009058,6.3407,-0.01094791,0.98426
236.964,19.01279,-0.02037983,6.34458,-0.01241968,0.98377
237.664,19.0323,-0.02139669,6.34528,-0.01371447,0.98328
238.364,19.05186,-0.02139047,6.35662,-0.01477771,0.9828
239.064,19.07144,-0.02139015,6.33876,-0.01553824,0.98231
239.764,19.09095,-0.02139125,6.36434,-0.01590546,0.98182
240.464,19.11041,-0.02140222,6.35698,-0.01580548,0.98132
241.164,19.12988,-0.02278666,6.36273,-0.01519641,0.98083
241.864,19.1494,-0.02368204,6.36759,-0.01409318,0.98034
242.564,19.1688,-0.02401258,6.36405,-0.01258701,0.97984
243.264,19.1882,-0.0240105,6.37711,-0.01081526,0.97935
243.964,19.20767,-0.02401006,6.38459,-0.008979932,0.97885
244.664,19.22709,-0.02401001,6.38531,-0.00729551,0.97835
245.364,19.2466,-0.02401,6.3743,-0.00593158,0.97785
246.064,19.26604,-0.02401,6.38416,-0.005019465,0.97735
246.764,19.28545,-0.02401,6.38314,-0.004622208,0.97685
247.464,19.30487,-0.02401,6.38309,-0.004726323,0.97634
248.164,19.3243,-0.02401001,6.39023,-0.005243435,0.97584
248.864,19.34367,-0.02401006,6.3831,-0.00601376,0.97533
249.564,19.36303,-0.02401076,6.38678,-0.006839874,0.97483
250.264,19.38233,-0.02401882,6.39695,-0.00754162,0.97432
250.964,19.40161,-0.02411383,6.39383,-0.007987634,0.97381
251.664,19.42088,-0.02536824,6.40193,-0.008064129,0.9733
252.364,19.4402,-0.02533091,6.39276,-0.00767848,0.97279
253.064,19.45949,-0.0253262,6.4005,-0.00682884,0.97227
253.764,19.47885,-0.02597588,6.39642,-0.005662889,0.97176
254.464,19.49823,-0.02598679,6.39265,-0.004460487,0.97125
255.164,19.5176,-0.02598959,6.39121,-0.003592601,0.97073
255.864,19.53695,-0.02598997,6.38035,-0.003460123,0.97021
256.564,19.5563,-0.02599027,6.37655,-0.004412984,0.9697
257.264,19.57559,-0.02599397,6.37037,-0.00664283,0.96918
257.964,19.59485,-0.02604496,6.35723,-0.01011165,0.96866
258.664,19.61407,-0.02463115,6.33139,-0.01452152,0.96814
259.364,19.63334,-0.02196467,6.30935,-0.01938245,0.96761
260.064,19.65259,-0.02211858,6.29027,-0.02407954,0.96709
260.764,19.67185,-0.02627663,6.23509,-0.02809823,0.96657
261.464,19.6911,-0.03062859,6.1461,-0.03112895,0.96604
262.164,19.71035,-0.0304876,6.06375,-0.03318477,0.96552
262.864,19.7296,-0.03048021,5.99903,-0.03458964,0.96499
263.564,19.74878,-0.03047998,5.94493,-0.03591304,0.96446
264.264,19.7681,-0.03047986,5.94425,-0.03782338,0.96393
264.964,19.78735,-0.03047735,5.98247,-0.04089289,0.9634
265.664,19.80659,-0.0304356,6.01425,-0.04549747,0.96287
266.364,19.82584,-0.03172382,6.06747,-0.05175301,0.96234
267.064,19.84504,-0.03198512,6.1242,-0.05949386,0.9618
267.764,19.86424,-0.03360161,6.19258,-0.06838862,0.96127
268.464,19.88345,-0.03445747,6.25438,-0.07794952,0.96073
269.164,19.90258,-0.03571468,6.33217,-0.087593,0.9602
269.864,19.92159,-0.03774289,6.39934,-0.09684407,0.95966
270.564,19.9407,-0.04041389,6.46254,-0.10555,0.95912
271.264,19.95986,-0.04312873,6.53376,-0.11352,0.95858
271.964,19.97895,-0.04603915,6.59954,-0.1208,0.95804
272.664,19.99813,-0.04882021,6.64571,-0.12759,0.9575
273.364,20.01741,-0.05067599,6.72564,-0.13418,0.95696
274.064,20.03659,-0.05330203,6.7694,-0.14074,0.95642
274.764,20.05576,-0.05549113,6.82393,-0.14751,0.95587
275.464,20.07497,-0.05768117,6.88103,-0.15452,0.95533
276.164,20.0941,-0.06016723,6.93864,-0.16163,0.95478
276.864,20.11315,-0.06336354,6.98898,-0.16868,0.95423
277.564,20.13225,-0.06779885,7.04208,-0.17549,0.95369
278.264,20.15135,-0.07195554,7.09687,-0.18187,0.95314
278.964,20.17042,-0.07643422,7.15652,-0.18772,0.95259
279.664,20.18954,-0.07933879,7.20302,-0.19304,0.95204
280.364,20.2087,-0.08210248,7.2697,-0.19793,0.95149
281.064,20.22778,-0.0861218,7.32614,-0.20249,0.95094
281.764,20.24694,-0.09013773,7.38332,-0.20692,0.95038
282.464,20.26604,-0.09432765,7.43998,-0.21138,0.94983
283.164,20.28509,-0.09874304,7.49934,-0.21605,0.94927
283.864,20.30418,-0.10325,7.55637,-0.22113,0.94872
284.564,20.32323,-0.10725,7.61317,-0.22672,0.94816
285.264,20.3423,-0.11121,7.6823,-0.23291,0.9476
285.964,20.36145,-0.11449,7.73798,-0.23975,0.94705
286.664,20.3806,-0.11868,7.80658,-0.24709,0.94649
287.364,20.3997,-0.12407,7.88449,-0.25477,0.94593
288.064,20.41884,-0.12921,7.95077,-0.26259,0.94537
288.764,20.43796,-0.13481,8.02721,-0.27037,0.9448
289.464,20.45703,-0.14006,8.09873,-0.27792,0.94424
290.164,20.47617,-0.14597,8.17115,-0.28521,0.94368
290.864,20.49527,-0.15095,8.22524,-0.29218,0.94311
291.564,20.51436,-0.15648,8.29323,-0.29896,0.94255
292.264,20.53345,-0.16183,8.36697,-0.30571,0.94198
292.964,20.5525,-0.16928,8.4336,-0.3126,0.94142
293.664,20.57157,-0.1747,8.5047,-0.31981,0.94085
294.364,20.59065,-0.18083,8.56968,-0.3275,0.94028
295.064,20.60977,-0.18611,8.64123,-0.33577,0.93971
295.764,20.6288,-0.19336,8.70135,-0.34461,0.93914
296.464,20.64783,-0.19875,8.75593,-0.354,0.93857
297.164,20.6669,-0.20587,8.82707,-0.36394,0.938
297.864,20.686,-0.21231,8.89641,-0.37425,0.93743
298.564,20.70508,-0.22115,8.96992,-0.38486,0.93686
299.264,20.72428,-0.22834,9.03672,-0.39576,0.93628
299.964,20.74342,-0.23614,9.10482,-0.40678,0.93571
300.664,20.76249,-0.24281,9.16926,-0.4179,0.93513
301.364,20.7816,-0.25077,9.23227,-0.42915,0.93456
302.064,20.8007,-0.25913,9.31653,-0.44056,0.93398
302.764,20.8198,-0.26832,9.38657,-0.45215,0.9334
303.464,20.8389,-0.2774,9.4677,-0.46399,0.93283
304.164,20.85805,-0.28592,9.5411,-0.47612,0.93225
304.864,20.87718,-0.29474,9.61783,-0.4886,0.93167
305.564,20.89623,-0.30428,9.71056,-0.50148,0.93109
306.264,20.91529,-0.3145,9.78396,-0.51485,0.93051
306.964,20.9343,-0.32303,9.87553,-0.52873,0.92993
307.664,20.95339,-0.33428,9.9636,-0.5432,0.92934
308.364,20.9724,-0.34315,10.0441,-0.55815,0.92876
309.064,20.99146,-0.3561,10.1264,-0.57373,0.92818
309.764,21.01052,-0.366,10.2262,-0.58988,0.92759
310.464,21.0296,-0.3781,10.31846,-0.60649,0.92701
311.164,21.04867,-0.38767,10.41515,-0.62347,0.92642
311.864,21.06777,-0.40111,10.51728,-0.64089,0.92584
312.564,21.08687,-0.41261,10.62022,-0.65895,0.92525
313.264,21.10594,-0.42733,10.71368,-0.67796,0.92466
313.964,21.125,-0.43943,10.80723,-0.69827,0.92407
314.664,21.144,-0.45355,10.91479,-0.72011,0.92349
315.364,21.1631,-0.46592,11.0065,-0.74378,0.9229
316.064,21.18219,-0.4806,11.1103,-0.7689,0.92231
316.764,21.20125,-0.49296,11.21676,-0.79487,0.92172
317.464,21.22033,-0.50451,11.31944,-0.82085,0.92112
318.164,21.23951,-0.51832,11.42596,-0.84592,0.92053
318.864,21.25855,-0.54052,11.5328,-0.86896,0.91994
319.564,21.2776,-0.56616,11.6479,-0.88983,0.91935
320.264,21.29671,-0.58424,11.7616,-0.9086,0.91875
320.964,21.31578,-0.59845,11.86781,-0.92591,0.91816
321.664,21.33483,-0.61205,11.97475,-0.94265,0.91756
322.364,21.35395,-0.63071,12.08462,-0.95984,0.91697
323.064,21.37304,-0.647,12.202,-0.9781,0.91637
323.764,21.3921,-0.66825,12.30073,-0.99779,0.91578
324.464,21.41124,-0.68528,12.40399,-1.01883,0.91518
325.164,21.4303,-0.70744,12.49287,-1.04084,0.91458
325.864,21.4494,-0.72522,12.57273,-1.06336,0.91398
326.564,21.46847,-0.74888,12.66607,-1.08593,0.91338
327.264,21.4876,-0.76748,12.74911,-1.10809,0.91278
327.964,21.50672,-0.79122,12.83349,-1.12957,0.91218
328.664,21.52587,-0.81072,12.90615,-1.15026,0.91158
329.364,21.54495,-0.83461,12.97072,-1.17005,0.91098
330.064,21.56408,-0.85555,13.02121,-1.18895,0.91038
330.764,21.58321,-0.88076,13.0832,-1.20679,0.90978
331.464,21.60233,-0.90291,13.145,-1.22345,0.90918
332.164,21.62145,-0.92698,13.19319,-1.23891,0.90857
332.864,21.64056,-0.94984,13.23262,-1.25316,0.90797
333.564,21.6597,-0.97471,13.2731,-1.26626,0.90737
334.264,21.67882,-1.00062,13.31529,-1.27826,0.90676
334.964,21.69792,-1.02503,13.34796,-1.28915,0.90616
335.664,21.71708,-1.05032,13.38173,-1.29901,0.90555
336.364,21.73621,-1.07314,13.40748,-1.30778,0.90495
337.064,21.75531,-1.09948,13.4202,-1.31542,0.90434
337.764,21.77447,-1.12318,13.42496,-1.32189,0.90373
338.464,21.79365,-1.15254,13.43666,-1.32716,0.90312
339.164,21.8128,-1.1768,13.41774,-1.33125,0.90252
339.864,21.832,-1.20536,13.4154,-1.33431,0.90191
340.564,21.8511,-1.22788,13.39766,-1.33655,0.9013
341.264,21.87023,-1.25604,13.36987,-1.33818,0.90069
341.964,21.8894,-1.27806,13.34726,-1.33932,0.90008
342.664,21.9086,-1.30624,13.30211,-1.33995,0.89947
343.364,21.9278,-1.32905,13.25419,-1.33997,0.89886
344.064,21.94698,-1.3587,13.19457,-1.3392,0.89825
344.764,21.96621,-1.38188,13.1361,-1.33739,0.89764
345.464,21.98539,-1.41,13.06243,-1.33437,0.89703
346.164,22.00457,-1.43393,12.99952,-1.33003,0.89641
346.864,22.0238,-1.46173,12.9205,-1.32442,0.8958
347.564,22.04305,-1.48639,12.83803,-1.31771,0.89519
348.264,22.06223,-1.51259,12.73203,-1.31016,0.89457
348.964,22.08144,-1.5357,12.63064,-1.30192,0.89396
349.664,22.10069,-1.56031,12.531,-1.29304,0.89335
350.364,22.1199,-1.58577,12.42085,-1.28351,0.89273
351.064,22.13907,-1.61058,12.2942,-1.27317,0.89212
351.764,22.15824,-1.63547,12.17249,-1.2618,0.8915
352.464,22.17742,-1.65835,12.04443,-1.2492,0.89089
353.164,22.19664,-1.68431,11.91339,-1.23522,0.89027
353.864,22.21591,-1.70787,11.77007,-1.21982,0.88965
354.564,22.23517,-1.73371,11.62778,-1.20314,0.88904
355.264,22.2544,-1.75463,11.45368,-1.18532,0.88842
355.964,22.27369,-1.7785,11.2871,-1.16642,0.8878
356.664,22.2929,-1.79812,11.12565,-1.14669,0.88719
357.364,22.31213,-1.82261,10.93373,-1.12602,0.88657
358.064,22.33132,-1.84209,10.74249,-1.10443,0.88595
358.764,22.3506,-1.86673,10.54945,-1.08168,0.88533
359.464,22.36982,-1.88498,10.336,-1.05778,0.88471
360.164,22.38909,-1.90757,10.1251,-1.03262,0.88409
360.864,22.40835,-1.92514,9.89248,-1.00629,0.88347
361.564,22.42759,-1.94681,9.64147,-0.97883,0.88285
362.264,22.44681,-1.96323,9.38646,-0.95039,0.88223
362.964,22.4661,-1.98316,9.13327,-0.92099,0.88161
363.664,22.48532,-1.99873,8.84179,-0.89087,0.88099
364.364,22.5046,-2.01703,8.5607,-0.86009,0.88037
365.064,22.5239,-2.03263,8.27558,-0.82872,0.87975
365.764,22.54317,-2.04925,7.95601,-0.797,0.87913
366.464,22.56236,-2.06346,7.63447,-0.7651,0.8785
367.164,22.58165,-2.07853,7.31058,-0.73282,0.87788
367.864,22.6009,-2.09162,6.97634,-0.70041,0.87726
368.564,22.62025,-2.10497,6.64534,-0.66774,0.87664
369.264,22.63958,-2.1177,6.30168,-0.63489,0.87601
369.964,22.65887,-2.12934,5.96126,-0.60183,0.87539
370.664,22.6782,-2.1407,5.63408,-0.56845,0.87477
371.364,22.6975,-2.1513,5.31629,-0.53469,0.87414
372.064,22.71673,-2.16271,5.01527,-0.50075,0.87352
372.764,22.73599,-2.17182,4.71518,-0.46673,0.8729
373.464,22.7553,-2.18064,4.43216,-0.43286,0.87227
374.164,22.77463,-2.18778,4.16829,-0.39966,0.87165
374.864,22.79393,-2.1959,3.91965,-0.36774,0.87102
375.564,22.81324,-2.20201,3.69159,-0.33754,0.8704
376.264,22.8326,-2.20797,3.47858,-0.30934,0.86977
376.964,22.8519,-2.21197,3.28763,-0.28376,0.86915
377.664,22.8712,-2.21702,3.12278,-0.26056,0.86852
378.364,22.89055,-2.22109,2.96601,-0.2398,0.8679
379.064,22.90991,-2.22521,2.84447,-0.2212,0.86727
379.764,22.92933,-2.22906,2.72462,-0.20451,0.86664
380.464,22.9487,-2.23285,2.62241,-0.18954,0.86602
381.164,22.96809,-2.23694,2.55032,-0.17606,0.86539
381.864,22.9875,-2.2401,2.48617,-0.16399,0.86476
382.564,23.0069,-2.24272,2.43637,-0.15337,0.86414
383.264,23.0262,-2.24522,2.40609,-0.14422,0.86351
383.964,23.04565,-2.24723,2.3733,-0.13652,0.86288
384.664,23.06489,-2.24921,2.37599,-0.13031,0.86226
385.364,23.0842,-2.25177,2.34827,-0.12534,0.86163
386.064,23.1037,-2.25378,2.3422,-0.12136,0.861
386.764,23.12314,-2.25604,2.35473,-0.11805,0.86037
387.464,23.1427,-2.25794,2.35588,-0.11506,0.85975
388.164,23.16231,-2.26058,2.36259,-0.11209,0.85912
388.864,23.1818,-2.26306,2.36102,-0.10899,0.85849
389.564,23.2013,-2.26641,2.37548,-0.10569,0.85786
390.264,23.2208,-2.26805,2.38363,-0.10226,0.85723
390.964,23.2402,-2.26989,2.38971,-0.09881508,0.85661
391.664,23.25968,-2.27151,2.38774,-0.09546132,0.85598
392.364,23.27923,-2.27226,2.38873,-0.09228244,0.85535
393.064,23.29877,-2.27342,2.3895,-0.0893337,0.85472
393.764,23.31831,-2.27545,2.40004,-0.08662934,0.85409
394.464,23.33793,-2.27819,2.40193,-0.08417133,0.85346
395.164,23.3573,-2.28027,2.40681,-0.08201473,0.85283
395.864,23.3769,-2.2818,2.40979,-0.08014727,0.8522
396.564,23.3965,-2.28317,2.40332,-0.07861202,0.85158
397.264,23.4162,-2.28328,2.39584,-0.07739954,0.85095
397.964,23.43586,-2.28473,2.38843,-0.07645229,0.85032
398.664,23.45555,-2.28634,2.38329,-0.07567356,0.84969
399.364,23.47512,-2.28818,2.37476,-0.07494704,0.84906
400.064,23.4947,-2.29037,2.3667,-0.07416441,0.84843
400.764,23.5143,-2.29234,2.35577,-0.07329249,0.8478
401.464,23.534,-2.2933,2.34604,-0.07239227,0.84717
402.164,23.55366,-2.29446,2.34666,-0.0715839,0.84654
402.864,23.57329,-2.29527,2.34315,-0.07100863,0.84591
403.564,23.59292,-2.2963,2.3432,-0.07079752,0.84528
404.264,23.61262,-2.29789,2.3356,-0.07105311,0.84465
404.964,23.63229,-2.29952,2.32675,-0.07184247,0.84402
405.664,23.65195,-2.30141,2.31454,-0.07319858,0.84339
406.364,23.6717,-2.30278,2.30392,-0.0751264,0.84276
407.064,23.69139,-2.30328,2.29717,-0.07756038,0.84213
407.764,23.71105,-2.3048,2.28056,-0.08039101,0.84151
408.464,23.73072,-2.30664,2.28203,-0.08344997,0.84088
409.164,23.75044,-2.30843,2.27292,-0.08651021,0.84025
409.864,23.7701,-2.30875,2.26307,-0.08928563,0.83962
410.564,23.7898,-2.31131,2.24249,-0.09153707,0.83899
411.264,23.80953,-2.31396,2.24199,-0.09311697,0.83836
411.964,23.82931,-2.31691,2.22759,-0.09402455,0.83773
412.664,23.84907,-2.31963,2.2203,-0.09441427,0.8371
413.364,23.8689,-2.32081,2.20003,-0.09455729,0.83647
414.064,23.88869,-2.32125,2.18909,-0.09476058,0.83584
414.764,23.9085,-2.32298,2.18219,-0.09529099,0.83521
415.464,23.92829,-2.32494,2.16626,-0.0962962,0.83458
416.164,23.9481,-2.32672,2.15048,-0.09777341,0.83395
416.864,23.96789,-2.32861,2.14129,-0.09959767,0.83332
417.564,23.98762,-2.33054,2.11917,-0.10157,0.83269
418.264,24.00737,-2.3329,2.11542,-0.10351,0.83206
418.964,24.02713,-2.33594,2.10794,-0.10528,0.83144
419.664,24.047,-2.3379,2.07864,-0.10683,0.83081
420.364,24.06681,-2.33962,2.06348,-0.10818,0.83018
421.064,24.08675,-2.34188,2.04542,-0.1094,0.82955
421.764,24.10663,-2.34394,2.02669,-0.11056,0.82892
422.464,24.12655,-2.34609,2.02118,-0.11168,0.82829
423.164,24.1464,-2.34777,1.99296,-0.11273,0.82766
423.864,24.16623,-2.35032,1.97174,-0.11366,0.82703
424.564,24.18609,-2.35284,1.95888,-0.1144,0.82641
425.264,24.20595,-2.35528,1.95175,-0.1149,0.82578
425.964,24.22586,-2.35782,1.93071,-0.11517,0.82515
426.664,24.2457,-2.36021,1.91529,-0.11528,0.82452
427.364,24.2657,-2.36208,1.89296,-0.11531,0.82389
428.064,24.2856,-2.36401,1.87605,-0.11539,0.82327
428.764,24.30552,-2.36647,1.85911,-0.11565,0.82264
429.464,24.32544,-2.36943,1.8308,-0.1162,0.82201
430.164,24.34543,-2.37106,1.81256,-0.11719,0.82138
430.864,24.36538,-2.37368,1.79011,-0.11875,0.82076
431.564,24.3854,-2.37584,1.77445,-0.12095,0.82013
432.264,24.40534,-2.37809,1.75289,-0.12381,0.8195
432.964,24.42533,-2.38049,1.72915,-0.12724,0.81888
433.664,24.4453,-2.38264,1.70369,-0.13108,0.81825
434.364,24.46528,-2.38463,1.69124,-0.13513,0.81762
435.064,24.48529,-2.38707,1.66695,-0.13913,0.817
435.764,24.50529,-2.39114,1.65559,-0.14286,0.81637
436.464,24.52533,-2.39518,1.63366,-0.14622,0.81574
437.164,24.5454,-2.39879,1.62342,-0.14922,0.81512
437.864,24.56539,-2.40066,1.60934,-0.15202,0.81449
438.564,24.58544,-2.40308,1.58906,-0.15488,0.81387
439.264,24.60551,-2.40554,1.56463,-0.15802,0.81324
439.964,24.62558,-2.4094,1.55209,-0.16165,0.81262
440.664,24.64571,-2.41354,1.54485,-0.16587,0.81199
441.364,24.6658,-2.41642,1.53327,-0.17065,0.81137
442.064,24.6858,-2.41892,1.51598,-0.1759,0.81074
442.764,24.70587,-2.42194,1.50302,-0.18154,0.81012
443.464,24.7259,-2.42606,1.48739,-0.18739,0.80949
444.164,24.746,-2.43101,1.49433,-0.1934,0.80887
444.864,24.76615,-2.43471,1.49056,-0.19947,0.80825
445.564,24.78622,-2.43866,1.48308,-0.20553,0.80762
446.264,24.8064,-2.44269,1.48622,-0.21161,0.807
446.964,24.8265,-2.44691,1.47962,-0.21758,0.80638
447.664,24.8467,-2.45102,1.47793,-0.22344,0.80575
448.364,24.86684,-2.45497,1.48543,-0.22911,0.80513
449.064,24.88706,-2.46076,1.49314,-0.23471,0.80451
449.764,24.90727,-2.46682,1.50662,-0.24031,0.80389
450.464,24.9275,-2.47162,1.51433,-0.2461,0.80326
451.164,24.94766,-2.47618,1.5332,-0.25219,0.80264
451.864,24.96794,-2.48027,1.55769,-0.25871,0.80202
452.564,24.98811,-2.48449,1.56841,-0.26558,0.8014
453.264,25.0083,-2.48987,1.60224,-0.27272,0.80078
453.964,25.02863,-2.49603,1.62702,-0.27998,0.80016
454.664,25.04887,-2.50284,1.65399,-0.2871,0.79954
455.364,25.06909,-2.50914,1.68447,-0.29402,0.79892
456.064,25.0894,-2.51504,1.73606,-0.30078,0.7983
456.764,25.10969,-2.5212,1.76953,-0.30746,0.79768
457.464,25.12999,-2.5268,1.82182,-0.31417,0.79706
458.164,25.15031,-2.53249,1.86703,-0.32104,0.79644
458.864,25.1706,-2.53899,1.92957,-0.32809,0.79582
459.564,25.1909,-2.5468,1.98515,-0.3353,0.7952
460.264,25.21124,-2.55339,2.04865,-0.3426,0.79459
460.964,25.23161,-2.56046,2.11805,-0.34996,0.79397
461.664,25.2519,-2.568,2.18922,-0.35732,0.79335
462.364,25.2723,-2.57608,2.25483,-0.36475,0.79273
463.064,25.29261,-2.58213,2.3327,-0.37219,0.79212
463.764,25.313,-2.58931,2.40011,-0.37962,0.7915
464.464,25.33335,-2.59721,2.47277,-0.3869,0.79088
465.164,25.35374,-2.60652,2.55417,-0.39386,0.79027
465.864,25.37416,-2.614,2.64016,-0.4003,0.78965
466.564,25.39454,-2.62246,2.70559,-0.40608,0.78904
467.264,25.41497,-2.6309,2.78821,-0.41122,0.78842
467.964,25.43544,-2.64127,2.86759,-0.41581,0.78781
468.664,25.45587,-2.64859,2.95128,-0.41996,0.78719
469.364,25.4764,-2.65696,3.02307,-0.42383,0.78658
470.064,25.4969,-2.66501,3.1033,-0.42746,0.78596
470.764,25.51742,-2.67532,3.19097,-0.4308,0.78535
471.464,25.53791,-2.68242,3.26078,-0.43369,0.78474
472.164,25.55842,-2.69201,3.33346,-0.43596,0.78412
472.864,25.57895,-2.70133,3.40738,-0.43744,0.78351
473.564,25.59948,-2.71268,3.47792,-0.43805,0.7829
474.264,25.61996,-2.72042,3.54988,-0.43785,0.78229
474.964,25.64056,-2.72987,3.60392,-0.43701,0.78168
475.664,25.6611,-2.73721,3.61851,-0.4358,0.78107
476.364,25.68166,-2.74716,3.65928,-0.43452,0.78046
477.064,25.7023,-2.75563,3.72459,-0.43352,0.77985
477.764,25.72289,-2.76577,3.79136,-0.43304,0.77924
478.464,25.74354,-2.77379,3.85958,-0.43328,0.77863
479.164,25.76415,-2.78271,3.93382,-0.43431,0.77802
479.864,25.7848,-2.79007,3.9957,-0.43614,0.77741
480.564,25.80545,-2.7991,4.07152,-0.43856,0.7768
481.264,25.8261,-2.80823,4.12264,-0.44128,0.77619
481.964,25.84667,-2.81868,4.16593,-0.44396,0.77559
482.664,25.86729,-2.82745,4.20121,-0.44628,0.77498
483.364,25.88799,-2.8366,4.22375,-0.44794,0.77437
484.064,25.90866,-2.84575,4.22961,-0.44868,0.77377
484.764,25.92935,-2.85552,4.2532,-0.44838,0.77316
485.464,25.95007,-2.86552,4.27563,-0.44702,0.77255
486.164,25.97071,-2.87522,4.28009,-0.44466,0.77195
486.864,25.99139,-2.88403,4.27415,-0.44135,0.77134
487.564,26.01211,-2.89208,4.27753,-0.43721,0.77074
488.264,26.03284,-2.90225,4.26529,-0.43242,0.77014
488.964,26.05366,-2.91176,4.2389,-0.42718,0.76953
489.664,26.0744,-2.9211,4.21359,-0.42181,0.76893
490.364,26.0952,-2.92851,4.19786,-0.41653,0.76833
491.064,26.11596,-2.93804,4.15009,-0.41154,0.76773
491.764,26.13671,-2.94567,4.12096,-0.40692,0.76712
492.464,26.1575,-2.9538,4.08444,-0.40264,0.76652
493.164,26.17829,-2.96074,4.05675,-0.39862,0.76592
493.864,26.1991,-2.97069,4.05339,-0.39471,0.76532
494.564,26.21994,-2.97919,4.02926,-0.39074,0.76472
495.264,26.2408,-2.98867,4.01372,-0.38662,0.76412
495.964,26.2616,-2.99551,3.99166,-0.38223,0.76352
496.664,26.28245,-3.00281,3.99077,-0.37746,0.76293
497.364,26.30325,-3.00882,3.96359,-0.37223,0.76233
498.064,26.32405,-3.01757,3.94549,-0.36643,0.76173
498.764,26.3449,-3.02692,3.91205,-0.35998,0.76113
499.464,26.3658,-3.03543,3.84984,-0.35289,0.76054
500.164,26.3867,-3.0423,3.84398,-0.34538,0.75994
500.864,26.40757,-3.04809,3.82354,-0.33776,0.75934
501.564,26.4285,-3.05479,3.79161,-0.33034,0.75875
502.264,26.4493,-3.06225,3.76954,-0.32341,0.75815
502.964,26.4702,-3.06836,3.74693,-0.3171,0.75756
503.664,26.4911,-3.07478,3.70415,-0.31145,0.75697
504.364,26.5121,-3.08131,3.67544,-0.30633,0.75637
505.064,26.533,-3.0867,3.64572,-0.30152,0.75578
505.764,26.554,-3.09344,3.61334,-0.2968,0.75519
506.464,26.5749,-3.10057,3.58844,-0.29206,0.7546
507.164,26.59586,-3.10773,3.57761,-0.28725,0.754
507.864,26.6168,-3.11299,3.54192,-0.28248,0.75341
508.564,26.63771,-3.11781,3.50736,-0.27781,0.75282
509.264,26.6587,-3.12316,3.46135,-0.27325,0.75223
509.964,26.67969,-3.12992,3.42673,-0.26872,0.75164
510.664,26.7007,-3.13476,3.38739,-0.26406,0.75106
511.364,26.7218,-3.14038,3.35216,-0.25905,0.75047
512.064,26.7428,-3.14533,3.3254,-0.25345,0.74988
512.764,26.7638,-3.15271,3.28857,-0.24711,0.74929
513.464,26.78487,-3.15704,3.24966,-0.23998,0.74871
514.164,26.80589,-3.16243,3.21866,-0.23213,0.74812
514.864,26.82687,-3.16709,3.1981,-0.22378,0.74753
515.564,26.8479,-3.17143,3.16409,-0.21513,0.74695
516.264,26.8689,-3.17548,3.12934,-0.20647,0.74636
516.964,26.88995,-3.1801,3.0904,-0.19796,0.74578
517.664,26.91102,-3.1845,3.06394,-0.18977,0.7452
518.364,26.93207,-3.18814,3.0298,-0.18196,0.74461
519.064,26.95322,-3.1909,2.99623,-0.17454,0.74403
519.764,26.9743,-3.19487,2.97039,-0.16757,0.74345
520.464,26.9954,-3.19927,2.93842,-0.16109,0.74287
521.164,27.0166,-3.20197,2.89661,-0.1552,0.74229
521.864,27.03773,-3.20518,2.85068,-0.15007,0.74171
522.564,27.0589,-3.20881,2.84093,-0.14582,0.74113
523.264,27.08002,-3.21133,2.81079,-0.14252,0.74055
523.964,27.10114,-3.21317,2.78899,-0.14013,0.73997
524.664,27.1223,-3.21494,2.76352,-0.13842,0.73939
525.364,27.1434,-3.21804,2.73872,-0.13699,0.73881
526.064,27.1646,-3.2218,2.70037,-0.13538,0.73824
526.764,27.1857,-3.22567,2.67179,-0.13319,0.73766
527.464,27.2068,-3.22843,2.65838,-0.13016,0.73708
528.164,27.228,-3.23061,2.63505,-0.12617,0.73651
528.864,27.2492,-3.23399,2.62282,-0.12137,0.73593
529.564,27.2704,-3.23679,2.59008,-0.116,0.73536
530.264,27.2916,-3.23923,2.56689,-0.11037,0.73479
530.964,27.31287,-3.24078,2.54086,-0.10475,0.73421
531.664,27.3341,-3.24246,2.52104,-0.09932664,0.73364
532.364,27.35531,-3.24446,2.51071,-0.09412638,0.73307
533.064,27.37655,-3.24764,2.49347,-0.08915052,0.7325
533.764,27.3978,-3.24961,2.47389,-0.08435137,0.73193
534.464,27.419,-3.25031,2.45676,-0.07975789,0.73136
535.164,27.44023,-3.2519,2.44655,-0.07548698,0.73079
535.864,27.46145,-3.25401,2.42988,-0.07177022,0.73022
536.564,27.4827,-3.25592,2.42249,-0.06886113,0.72965
537.264,27.504,-3.2576,2.40878,-0.06699533,0.72909
537.964,27.5253,-3.2568,2.394,-0.06628536,0.72852
538.664,27.5465,-3.25783,2.38144,-0.06661236,0.72795
539.364,27.56744,-3.25941,2.37548,-0.06760513,0.72739
540.064,27.58863,-3.26085,2.36292,-0.06875314,0.72682
540.764,27.60988,-3.26168,2.3667,-0.06945132,0.72626
541.464,27.6312,-3.26488,2.35516,-0.06919155,0.72569
542.164,27.6527,-3.26773,2.3459,-0.0676698,0.72513
542.864,27.67408,-3.26898,2.33737,-0.06489737,0.72457
543.564,27.6954,-3.26998,2.32633,-0.06114259,0.72401
544.264,27.71668,-3.27145,2.31697,-0.05682989,0.72344
544.964,27.738,-3.27172,2.31152,-0.05243,0.72288
545.664,27.7594,-3.27291,2.30687,-0.04835676,0.72232
546.364,27.7808,-3.27453,2.30462,-0.04486928,0.72176
547.064,27.80214,-3.27443,2.30273,-0.0420847,0.7212
547.764,27.82351,-3.27546,2.29246,-0.04001973,0.72065
548.464,27.84485,-3.27605,2.29296,-0.03864905,0.72009
549.164,27.86615,-3.27725,2.29241,-0.03787737,0.71953
549.864,27.8875,-3.27802,2.28771,-0.03758134,0.71898
550.564,27.90878,-3.27851,2.28634,-0.03763505,0.71842
551.264,27.93013,-3.27857,2.2849,-0.03787858,0.71786
551.964,27.9515,-3.27982,2.27883,-0.03810829,0.71731
552.664,27.9729,-3.28058,2.27712,-0.03812158,0.71676
553.364,27.99427,-3.28146,2.28492,-0.03776945,0.7162
554.064,28.0156,-3.28304,2.28321,-0.03697799,0.71565
554.764,28.037,-3.28449,2.28241,-0.03576093,0.7151
555.464,28.0583,-3.28443,2.27851,-0.0342078,0.71455
556.164,28.0797,-3.28443,2.27791,-0.03243771,0.714
556.864,28.1011,-3.28592,2.2865,-0.03058235,0.71345
557.564,28.1225,-3.28683,2.29127,-0.02873086,0.7129
558.264,28.144,-3.28727,2.2945,-0.02693529,0.71235
558.964,28.16548,-3.28729,2.29962,-0.02523553,0.7118
559.664,28.187,-3.28776,2.29503,-0.02366046,0.71125
560.364,28.2085,-3.2886,2.29848,-0.02225036,0.71071
561.064,28.22995,-3.28865,2.3089,-0.02108578,0.71016
561.764,28.25143,-3.28992,2.31338,-0.02022445,0.70962
562.464,28.2729,-3.28991,2.31252,-0.01971443,0.70907
563.164,28.2944,-3.28991,2.31662,-0.01956287,0.70853
563.864,28.31598,-3.2899,2.31626,-0.01970793,0.70799
564.564,28.33747,-3.28985,2.32119,-0.0200148,0.70744
565.264,28.35898,-3.29188,2.31498,-0.02032914,0.7069
565.964,28.38048,-3.2919,2.3202,-0.02053035,0.70636
566.664,28.40199,-3.29202,2.32653,-0.02056818,0.70582
567.364,28.4235,-3.29325,2.33267,-0.02046388,0.70528
568.064,28.44505,-3.2932,2.33378,-0.02029611,0.70474
568.764,28.46661,-3.29315,2.32567,-0.02017951,0.7042
569.464,28.4882,-3.29449,2.33322,-0.02021423,0.70366
570.164,28.5098,-3.29452,2.3414,-0.02043999,0.70313
570.864,28.53142,-3.29452,2.34339,-0.02080594,0.70259
571.564,28.55299,-3.29452,2.34687,-0.02117088,0.70206
572.264,28.57455,-3.29554,2.35255,-0.02136034,0.70152
572.964,28.59607,-3.29618,2.35804,-0.02122126,0.70099
573.664,28.6176,-3.2974,2.35297,-0.02067302,0.70045
574.364,28.6392,-3.29737,2.36756,-0.01970897,0.69992
575.064,28.6608,-3.29738,2.37399,-0.01837039,0.69939
575.764,28.68242,-3.29879,2.36925,-0.01672805,0.69886
576.464,28.70402,-3.2987,2.37322,-0.01487017,0.69832
577.164,28.72567,-3.29869,2.37392,-0.01286378,0.69779
577.864,28.7473,-3.29869,2.37667,-0.01081232,0.69727
578.564,28.7689,-3.29899,2.38682,-0.008823164,0.69674
579.264,28.7905,-3.3001,2.3955,-0.007045504,0.69621
579.964,28.81206,-3.30012,2.39265,-0.005664056,0.69568
580.664,28.83365,-3.30017,2.38534,-0.00484784,0.69515
581.364,28.85525,-3.299,2.3984,-0.004699432,0.69463
582.064,28.87684,-3.29882,2.40698,-0.005162764,0.6941
582.764,28.89848,-3.29882,2.40637,-0.00601446,0.69358
583.464,28.92015,-3.29954,2.40965,-0.006942099,0.69306
584.164,28.94182,-3.30011,2.41203,-0.007656855,0.69253
584.864,28.96351,-3.30013,2.42274,-0.007985469,0.69201
585.564,28.98521,-3.30046,2.43471,-0.00791704,0.69149
586.264,29.0069,-3.30146,2.43209,-0.007628694,0.69097
586.964,29.02856,-3.30144,2.44592,-0.007450219,0.69045
587.664,29.0502,-3.30146,2.45004,-0.007761015,0.68993
588.364,29.07193,-3.30027,2.44126,-0.008851065,0.68941
589.064,29.0937,-3.30014,2.45735,-0.01080843,0.68889
589.764,29.1154,-3.30072,2.45237,-0.01347549,0.68838
590.464,29.137,-3.30144,2.45625,-0.01648558,0.68786
591.164,29.1586,-3.30144,2.47169,-0.01938808,0.68734
591.864,29.1803,-3.30144,2.46957,-0.02175625,0.68683
592.564,29.20182,-3.30296,2.48191,-0.02319222,0.68631
593.264,29.22369,-3.30389,2.48273,-0.0235075,0.6858
593.964,29.24564,-3.30563,2.48327,-0.02266935,0.68529
594.664,29.26724,-3.3056,2.49721,-0.02093046,0.68478
595.364,29.2891,-3.3056,2.51424,-0.01859592,0.68426
596.064,29.31093,-3.30561,2.52216,-0.01608013,0.68375
596.764,29.33271,-3.3059,2.52003,-0.01369489,0.68324
597.464,29.35465,-3.30692,2.53939,-0.01165464,0.68273
598.164,29.3765,-3.3069,2.54413,-0.0101211,0.68223
598.864,29.3983,-3.30602,2.5695,-0.00914452,0.68172
599.564,29.42005,-3.30601,2.56234,-0.008674354,0.68121
600.264,29.4419,-3.3069,2.58246,-0.00861425,0.68071
600.964,29.4637,-3.30698,2.58853,-0.008855938,0.6802
601.664,29.4856,-3.3084,2.5949,-0.009294053,0.6797
602.364,29.50739,-3.30693,2.60405,-0.009817098,0.67919
603.064,29.5292,-3.30692,2.62938,-0.01029165,0.67869
603.764,29.551,-3.30731,2.64651,-0.01059367,0.67819
604.464,29.5729,-3.30885,2.64525,-0.01065767,0.67768
605.164,29.59475,-3.30901,2.66865,-0.01049889,0.67718
605.864,29.61657,-3.30901,2.66429,-0.01021631,0.67668
606.564,29.63843,-3.30901,2.66436,-0.00994886,0.67618
607.264,29.6603,-3.309,2.65508,-0.00981748,0.67568
607.964,29.6822,-3.30937,2.65307,-0.009900164,0.67519
608.664,29.70413,-3.30934,2.65388,-0.01023694,0.67469
609.364,29.726,-3.30933,2.63301,-0.01081808,0.67419
610.064,29.74793,-3.30929,2.59789,-0.01160535,0.6737
610.764,29.76991,-3.31077,2.55702,-0.01256266,0.6732
611.464,29.79182,-3.31076,2.51205,-0.01355189,0.67271
612.164,29.8137,-3.31076,2.48146,-0.01470922,0.67222
612.864,29.83553,-3.31076,2.42827,-0.01590593,0.67172
613.564,29.85738,-3.31076,2.36557,-0.01698321,0.67123
614.264,29.8793,-3.3111,2.3212,-0.01737969,0.67074
614.964,29.9013,-3.31224,2.26566,-0.01751465,0.67025
615.664,29.9233,-3.31379,2.24313,-0.01900018,0.66976
616.364,29.9453,-3.31372,2.18282,-0.01564099,0.66927
617.064,29.9672,-3.31372,2.16655,-0.003884063,0.66878
617.764,29.98907,-3.31372,2.13149,0.0005504451,0.6683
618.064,29.9985,-3.31372,2.12354,0.00105423,0.66809