File: 01_Data/Vinyl_Chair_Vinyl_Covering/MCC/Vinyl_Chair_Vinyl_Covering_MCC_30K_min_220302_R2.txt
Sample ID:	C:\MCC\MCC Cal\Test\Vinyl_Covering_81A_MCC_30K_min_220302_R2.txt
Sample Weight (mg):	4.79
Heating Rate (C/s):	0.5
Combustor Temp (C):	900
N2 Flow Rate (cc/min):	80
O2 Flow Rate (cc/min):	20
Calibration File:	C:\MCC\MCC Cal\Coeff1 JN10440_30_210304.txt.txt
T Correction Coefficients:	0	1.024463	0
Time Shift (s):	14
*
Time (s)	Temperature (C)	N2 flow rate (cc/min)	O2 flow rate (cc/min)	Flow Rate (cc/min)	Oxygen (%)	HRR (W/g)	Heating rate (C/s)
0.000	115.783	80.008	19.992	103.742	19.968	-0.127	0.022
1.500	115.767	80.007	19.993	103.740	19.968	-0.146	0.004
3.000	115.736	80.007	19.993	103.741	19.968	-0.139	-0.006
4.500	115.787	80.006	19.993	103.733	19.967	-0.096	0.035
6.000	115.807	80.008	19.994	103.724	19.964	0.124	-0.009
7.500	115.832	80.007	19.994	103.721	19.963	0.178	0.013
9.000	115.784	80.008	19.992	103.739	19.960	0.392	-0.007
10.500	115.792	80.009	19.992	103.750	19.962	0.248	0.014
12.001	115.778	80.007	19.994	103.763	19.960	0.376	-0.024
13.500	115.817	80.007	19.993	103.788	19.957	0.595	0.037
15.000	115.859	80.008	19.992	103.809	19.952	0.903	0.023
16.500	115.896	80.008	19.992	103.845	19.947	1.298	0.040
18.000	115.992	80.008	19.993	103.864	19.944	1.505	0.066
19.500	116.019	80.009	19.992	103.893	19.945	1.392	0.012
21.000	116.070	80.009	19.993	103.906	19.940	1.771	0.045
22.500	116.229	80.009	19.993	103.917	19.935	2.081	0.117
24.000	116.372	80.008	19.994	103.903	19.931	2.359	0.104
25.500	116.494	80.010	19.993	103.862	19.931	2.378	0.072
27.000	116.690	80.006	19.994	103.954	19.929	2.525	0.142
28.500	116.945	80.008	19.993	103.998	19.925	2.780	0.166
30.000	117.165	80.007	19.993	103.943	19.927	2.609	0.138
31.500	117.377	80.007	19.995	103.942	19.926	2.664	0.129
33.001	117.685	80.009	19.994	103.947	19.924	2.859	0.216
34.500	117.983	80.008	19.992	103.954	19.920	3.109	0.203
36.000	118.238	80.006	19.993	103.972	19.920	3.111	0.181
37.500	118.583	80.009	19.994	103.979	19.917	3.295	0.204
39.000	118.863	80.008	19.994	103.980	19.917	3.301	0.192
40.500	119.209	80.009	19.993	103.967	19.915	3.447	0.228
42.000	119.600	80.008	19.993	103.977	19.911	3.682	0.244
43.500	119.958	80.008	19.993	103.983	19.911	3.688	0.238
45.000	120.433	80.009	19.994	103.983	19.911	3.728	0.291
46.500	120.769	80.008	19.992	103.986	19.916	3.354	0.221
48.000	121.213	80.010	19.992	103.972	19.915	3.412	0.302
49.500	121.649	80.009	19.993	103.969	19.913	3.585	0.303
51.000	122.052	80.009	19.994	103.979	19.917	3.284	0.287
52.500	122.512	80.009	19.995	103.973	19.913	3.598	0.318
54.000	123.025	80.008	19.993	103.976	19.915	3.410	0.337
55.500	123.495	80.009	19.994	103.981	19.911	3.682	0.325
57.000	123.974	80.008	19.994	103.984	19.910	3.752	0.317
58.500	124.505	80.007	19.994	103.984	19.910	3.769	0.351
60.000	124.995	80.006	19.994	103.982	19.909	3.835	0.317
61.500	125.564	80.007	19.994	103.981	19.911	3.688	0.386
63.000	126.101	80.006	19.994	103.988	19.910	3.793	0.339
64.500	126.634	80.007	19.993	103.983	19.907	3.981	0.358
66.000	127.188	80.007	19.994	103.979	19.909	3.880	0.371
67.501	127.793	80.008	19.995	103.982	19.909	3.825	0.394
69.000	128.316	80.007	19.993	103.984	19.911	3.737	0.368
70.500	128.922	80.007	19.994	103.985	19.910	3.793	0.409
72.000	129.492	80.007	19.994	103.986	19.913	3.568	0.361
73.500	130.124	80.008	19.993	103.983	19.910	3.763	0.431
75.001	130.720	80.008	19.993	103.982	19.912	3.635	0.379
76.500	131.313	80.009	19.994	103.983	19.912	3.662	0.393
78.000	131.948	80.008	19.993	103.985	19.912	3.677	0.431
79.500	132.592	80.008	19.992	103.985	19.910	3.801	0.445
81.000	133.206	80.008	19.993	103.981	19.905	4.147	0.393
82.500	133.853	80.008	19.992	103.980	19.905	4.128	0.436
84.000	134.494	80.008	19.993	103.984	19.906	4.079	0.418
85.501	135.149	80.009	19.993	103.983	19.905	4.122	0.460
87.001	135.825	80.009	19.994	103.982	19.906	4.066	0.428
88.500	136.515	80.007	19.993	103.981	19.903	4.286	0.458
90.000	137.175	80.007	19.994	103.979	19.905	4.145	0.453
91.501	137.878	80.009	19.994	103.985	19.902	4.316	0.483
93.001	138.547	80.007	19.993	103.985	19.904	4.206	0.446
94.500	139.207	80.007	19.992	103.979	19.901	4.398	0.466
96.001	139.887	80.005	19.993	103.981	19.904	4.199	0.446
97.500	140.594	80.008	19.995	103.985	19.901	4.377	0.481
99.000	141.257	80.008	19.995	103.985	19.913	3.562	0.468
100.500	142.034	80.007	19.995	103.985	19.912	3.635	0.510
102.001	142.693	80.009	19.994	103.984	19.894	4.856	0.424
103.500	143.404	80.009	19.994	103.975	19.898	4.615	0.469
105.000	144.143	80.009	19.992	103.976	19.895	4.789	0.466
106.500	144.894	80.009	19.994	103.976	19.892	5.022	0.514
108.000	145.589	80.009	19.993	103.964	19.891	5.040	0.466
109.501	146.335	80.009	19.992	103.973	19.891	5.084	0.515
111.000	147.018	80.010	19.992	103.982	19.891	5.073	0.465
112.500	147.792	80.009	19.992	103.979	19.892	5.014	0.483
114.001	148.507	80.008	19.992	103.967	19.887	5.333	0.466
115.500	149.290	80.009	19.992	103.967	19.888	5.272	0.515
117.000	150.025	80.009	19.993	103.985	19.884	5.567	0.479
118.501	150.756	80.010	19.993	103.973	19.887	5.312	0.482
120.000	151.538	80.007	19.992	103.974	19.886	5.372	0.487
121.500	152.248	80.009	19.994	103.985	19.881	5.746	0.518
123.000	152.978	80.008	19.994	103.971	19.880	5.800	0.467
124.500	153.745	80.007	19.993	103.958	19.876	6.085	0.528
126.000	154.464	80.008	19.992	103.954	19.876	6.087	0.464
127.500	155.168	80.008	19.993	103.959	19.876	6.080	0.466
129.000	155.961	80.008	19.993	103.954	19.877	6.002	0.538
130.500	156.691	80.008	19.993	103.953	19.878	5.963	0.480
132.000	157.450	80.009	19.992	103.958	19.875	6.160	0.496
133.500	158.214	80.010	19.993	103.956	19.871	6.410	0.510
135.000	158.949	80.011	19.994	103.952	19.872	6.378	0.485
136.500	159.681	80.009	19.994	103.953	19.869	6.570	0.482
138.000	160.467	80.008	19.994	103.954	19.868	6.637	0.510
139.500	161.194	80.010	19.993	103.947	19.868	6.603	0.472
141.000	161.974	80.010	19.993	103.946	19.864	6.868	0.521
142.500	162.703	80.008	19.993	103.946	19.866	6.746	0.500
144.000	163.484	80.008	19.994	103.949	19.863	6.945	0.535
145.500	164.207	80.007	19.995	103.944	19.861	7.079	0.475
147.000	165.021	80.008	19.993	103.945	19.859	7.223	0.532
148.500	165.765	80.008	19.993	103.949	19.859	7.206	0.498
150.000	166.537	80.007	19.992	103.946	19.859	7.238	0.534
151.500	167.267	80.008	19.994	103.945	19.853	7.659	0.494
153.000	168.038	80.008	19.993	103.944	19.852	7.680	0.525
154.500	168.783	80.007	19.993	103.945	19.853	7.629	0.500
156.000	169.558	80.007	19.994	103.950	19.851	7.785	0.521
157.500	170.321	80.008	19.995	103.953	19.849	7.924	0.505
159.000	171.072	80.009	19.995	103.950	19.849	7.939	0.506
160.500	171.826	80.008	19.994	103.946	19.851	7.792	0.519
162.000	172.576	80.007	19.994	103.944	19.845	8.196	0.512
163.500	173.366	80.009	19.995	103.945	19.848	8.002	0.518
165.000	174.056	80.008	19.995	103.945	19.843	8.337	0.457
166.500	174.827	80.008	19.993	103.944	19.844	8.273	0.517
168.000	175.556	80.008	19.994	103.944	19.841	8.473	0.481
169.500	176.301	80.008	19.993	103.945	19.841	8.473	0.499
171.000	177.070	80.009	19.995	103.944	19.841	8.472	0.507
172.500	177.833	80.007	19.993	103.943	19.838	8.675	0.520
174.000	178.561	80.009	19.994	103.941	19.834	8.913	0.488
175.500	179.310	80.008	19.993	103.941	19.836	8.806	0.485
177.000	180.071	80.008	19.993	103.945	19.832	9.037	0.532
178.500	180.818	80.007	19.994	103.943	19.827	9.384	0.514
180.000	181.563	80.007	19.993	103.936	19.826	9.495	0.484
181.500	182.326	80.007	19.993	103.945	19.827	9.406	0.494
183.000	183.069	80.007	19.992	103.948	19.827	9.422	0.488
184.500	183.803	80.008	19.994	103.944	19.823	9.682	0.477
186.000	184.541	80.007	19.993	103.941	19.819	9.962	0.486
187.500	185.268	80.008	19.994	103.939	19.814	10.250	0.460
189.000	185.999	80.007	19.994	103.941	19.815	10.197	0.489
190.500	186.820	80.009	19.994	103.937	19.809	10.604	0.528
192.000	187.520	80.009	19.994	103.905	19.811	10.513	0.460
193.500	188.254	80.009	19.992	103.869	19.805	10.856	0.472
195.000	189.000	80.009	19.992	103.975	19.804	10.971	0.492
196.500	189.727	80.010	19.993	103.994	19.800	11.209	0.496
198.000	190.473	80.009	19.994	103.940	19.794	11.606	0.499
199.500	191.198	80.008	19.993	103.937	19.791	11.835	0.485
201.000	191.895	80.008	19.994	103.936	19.789	11.954	0.468
202.500	192.693	80.009	19.993	103.938	19.784	12.318	0.549
204.000	193.391	80.008	19.993	103.937	19.783	12.372	0.464
205.500	194.083	80.008	19.994	103.923	19.783	12.352	0.463
207.000	194.797	80.009	19.994	103.925	19.780	12.600	0.476
208.500	195.593	80.009	19.994	103.930	19.774	13.006	0.510
210.000	196.312	80.010	19.994	103.911	19.769	13.334	0.480
211.500	196.988	80.008	19.992	103.908	19.770	13.273	0.468
213.000	197.740	80.008	19.992	103.907	19.763	13.696	0.497
214.500	198.444	80.011	19.993	103.906	19.759	13.976	0.459
216.000	199.189	80.010	19.991	103.908	19.760	13.914	0.477
217.500	199.929	80.010	19.994	103.914	19.757	14.139	0.485
219.000	200.691	80.011	19.993	103.917	19.751	14.527	0.515
220.500	201.431	80.010	19.992	103.914	19.750	14.602	0.469
222.000	202.150	80.012	19.992	103.909	19.743	15.062	0.464
223.500	202.868	80.011	19.993	103.912	19.742	15.168	0.468
225.001	203.581	80.011	19.994	103.912	19.737	15.461	0.478
226.500	204.266	80.010	19.993	103.909	19.733	15.785	0.473
228.000	205.014	80.009	19.994	103.912	19.728	16.116	0.489
229.500	205.783	80.008	19.993	103.905	19.723	16.407	0.510
231.001	206.516	80.009	19.994	103.906	19.716	16.891	0.500
232.500	207.247	80.007	19.995	103.906	19.712	17.151	0.489
234.000	207.963	80.008	19.994	103.905	19.707	17.500	0.481
235.500	208.699	80.008	19.994	103.909	19.700	17.989	0.492
237.001	209.461	80.008	19.994	103.907	19.695	18.326	0.496
238.500	210.162	80.009	19.994	103.907	19.693	18.486	0.458
240.001	210.953	80.007	19.994	103.905	19.687	18.898	0.519
241.500	211.653	80.008	19.993	103.907	19.680	19.343	0.465
243.000	212.389	80.008	19.993	103.908	19.672	19.915	0.479
244.501	213.086	80.008	19.993	103.908	19.670	19.998	0.446
246.000	213.813	80.009	19.992	103.907	19.664	20.400	0.484
247.500	214.527	80.008	19.994	103.908	19.661	20.629	0.491
249.000	215.231	80.008	19.994	103.912	19.656	20.967	0.466
250.500	215.982	80.007	19.994	103.912	19.650	21.361	0.489
252.000	216.767	80.008	19.993	103.909	19.648	21.517	0.504
253.500	217.457	80.008	19.995	103.907	19.641	22.001	0.469
255.000	218.210	80.007	19.994	103.906	19.634	22.453	0.477
256.500	218.945	80.006	19.994	103.909	19.626	23.026	0.469
258.000	219.639	80.007	19.994	103.907	19.623	23.186	0.484
259.500	220.420	80.006	19.993	103.907	19.619	23.445	0.533
261.000	221.144	80.008	19.995	103.908	19.611	23.999	0.487
262.500	221.871	80.008	19.995	103.908	19.608	24.234	0.507
264.000	222.595	80.007	19.995	103.907	19.596	25.039	0.470
265.500	223.351	80.006	19.994	103.904	19.590	25.467	0.493
267.000	224.110	80.006	19.994	103.905	19.581	26.013	0.523
268.500	224.841	80.008	19.994	103.907	19.577	26.338	0.500
270.000	225.587	80.007	19.993	103.908	19.568	26.944	0.507
271.500	226.319	80.008	19.992	103.909	19.560	27.460	0.479
273.000	227.048	80.008	19.993	103.908	19.553	27.944	0.478
274.500	227.825	80.007	19.995	103.908	19.547	28.376	0.518
276.000	228.555	80.008	19.992	103.906	19.540	28.842	0.467
277.500	229.345	80.009	19.994	103.906	19.531	29.424	0.528
279.000	230.049	80.011	19.994	103.906	19.524	29.908	0.460
280.500	230.813	80.009	19.994	103.906	19.514	30.610	0.502
282.000	231.552	80.010	19.992	103.904	19.509	30.918	0.496
283.500	232.282	80.010	19.993	103.903	19.502	31.376	0.499
285.000	233.031	80.011	19.992	103.904	19.491	32.118	0.493
286.500	233.782	80.010	19.995	103.905	19.487	32.430	0.484
288.000	234.523	80.010	19.992	103.904	19.479	32.966	0.492
289.500	235.264	80.010	19.994	103.904	19.464	33.990	0.486
291.000	235.971	80.010	19.992	103.904	19.455	34.558	0.474
292.500	236.703	80.009	19.994	103.904	19.444	35.302	0.498
294.000	237.445	80.009	19.994	103.904	19.443	35.406	0.497
295.500	238.242	80.008	19.993	103.905	19.428	36.423	0.513
297.000	238.994	80.007	19.994	103.911	19.422	36.844	0.528
298.500	239.672	80.008	19.993	103.905	19.410	37.624	0.457
300.000	240.419	80.010	19.993	103.908	19.396	38.594	0.495
301.500	241.196	80.010	19.993	103.919	19.386	39.229	0.494
303.000	241.897	80.010	19.995	103.934	19.375	39.989	0.488
304.500	242.617	80.011	19.994	103.934	19.361	40.943	0.487
306.000	243.366	80.010	19.993	103.928	19.351	41.613	0.514
307.500	244.137	80.010	19.994	103.924	19.339	42.428	0.521
309.000	244.935	80.009	19.995	103.932	19.335	42.763	0.532
310.500	245.636	80.010	19.993	103.921	19.327	43.272	0.471
312.000	246.419	80.011	19.994	103.912	19.315	44.081	0.516
313.500	247.123	80.008	19.992	103.937	19.308	44.557	0.471
315.000	247.879	80.009	19.993	103.958	19.295	45.429	0.515
316.500	248.625	80.010	19.993	103.937	19.282	46.335	0.475
318.000	249.388	80.009	19.993	103.895	19.268	47.292	0.518
319.500	250.206	80.009	19.994	103.954	19.253	48.291	0.538
321.000	250.945	80.008	19.993	104.033	19.237	49.336	0.495
322.500	251.701	80.007	19.993	103.939	19.225	50.202	0.509
324.000	252.446	80.007	19.993	103.906	19.208	51.319	0.493
325.500	253.182	80.008	19.994	104.026	19.191	52.508	0.495
327.000	253.917	80.008	19.994	104.043	19.174	53.670	0.501
328.500	254.695	80.007	19.993	103.974	19.156	54.897	0.519
330.000	255.429	80.008	19.994	103.981	19.144	55.691	0.485
331.500	256.204	80.008	19.994	103.986	19.131	56.574	0.512
333.000	256.942	80.006	19.994	103.985	19.115	57.603	0.479
334.500	257.720	80.007	19.995	103.989	19.104	58.367	0.504
336.000	258.514	80.006	19.993	103.991	19.091	59.286	0.510
337.500	259.245	80.007	19.995	104.000	19.078	60.100	0.494
339.000	260.023	80.008	19.994	104.009	19.065	60.991	0.523
340.500	260.726	80.007	19.995	104.009	19.052	61.862	0.448
342.000	261.483	80.007	19.994	103.995	19.040	62.724	0.523
343.500	262.223	80.007	19.994	103.997	19.026	63.687	0.512
345.001	263.029	80.007	19.993	103.986	19.016	64.353	0.533
346.500	263.762	80.008	19.994	103.988	19.003	65.238	0.497
348.000	264.497	80.007	19.993	103.987	18.990	66.087	0.500
349.500	265.247	80.007	19.994	103.984	18.974	67.152	0.502
351.000	266.066	80.007	19.993	103.985	18.959	68.156	0.550
352.500	266.800	80.008	19.994	103.983	18.949	68.948	0.472
354.000	267.541	80.007	19.995	103.986	18.938	69.644	0.513
355.500	268.266	80.008	19.994	103.988	18.925	70.496	0.480
357.000	269.047	80.006	19.994	104.001	18.913	71.344	0.510
358.500	269.825	80.008	19.995	104.014	18.900	72.209	0.509
360.000	270.600	80.007	19.995	103.975	18.887	73.090	0.505
361.500	271.356	80.007	19.995	103.942	18.879	73.633	0.498
363.000	272.136	80.008	19.995	104.047	18.865	74.550	0.533
364.500	272.901	80.008	19.995	104.080	18.853	75.343	0.512
366.000	273.629	80.009	19.995	104.020	18.843	76.041	0.490
367.500	274.371	80.009	19.995	104.014	18.828	77.099	0.504
369.000	275.141	80.008	19.996	104.018	18.815	77.978	0.511
370.500	275.888	80.009	19.994	104.020	18.799	79.080	0.467
372.000	276.662	80.009	19.994	104.020	18.788	79.787	0.507
373.500	277.371	80.009	19.994	104.017	18.775	80.666	0.487
375.000	278.155	80.009	19.993	103.996	18.762	81.555	0.501
376.500	278.859	80.010	19.994	103.987	18.754	82.119	0.464
378.000	279.614	80.009	19.994	103.986	18.744	82.764	0.494
379.501	280.363	80.009	19.994	103.987	18.734	83.439	0.495
381.000	281.119	80.009	19.993	104.002	18.727	83.895	0.503
382.500	281.834	80.008	19.994	104.015	18.718	84.493	0.467
384.000	282.627	80.008	19.994	104.016	18.708	85.186	0.550
385.500	283.372	80.011	19.992	104.021	18.707	85.256	0.495
387.000	284.152	80.009	19.993	104.012	18.703	85.563	0.506
388.500	284.854	80.009	19.993	103.994	18.700	85.716	0.483
390.000	285.593	80.011	19.993	103.986	18.698	85.862	0.488
391.500	286.340	80.008	19.994	103.988	18.698	85.844	0.493
393.000	287.127	80.010	19.993	103.993	18.696	86.039	0.525
394.501	287.861	80.013	19.993	103.996	18.697	86.032	0.491
396.000	288.612	80.009	19.993	104.009	18.705	85.466	0.504
397.500	289.320	80.010	19.996	103.994	18.713	84.893	0.498
399.000	290.052	80.009	19.994	103.969	18.714	84.729	0.516
400.501	290.859	80.009	19.994	103.950	18.721	84.248	0.504
402.000	291.598	80.008	19.991	103.973	18.706	85.192	0.490
403.500	292.318	80.008	19.993	104.020	18.704	85.340	0.485
405.000	293.055	80.006	19.993	104.058	18.695	85.978	0.484
406.500	293.861	80.007	19.992	104.053	18.695	86.014	0.521
408.000	294.576	80.007	19.994	104.015	18.710	84.975	0.446
409.500	295.443	80.008	19.994	103.954	18.728	83.750	0.528
411.000	295.961	80.008	19.993	103.890	18.765	81.276	0.354
412.500	296.824	80.008	19.994	103.851	18.814	77.992	0.430
414.000	297.521	80.007	19.993	103.841	18.863	74.651	0.446
415.500	298.120	80.008	19.992	103.859	18.922	70.652	0.177
417.000	299.047	80.009	19.994	103.886	18.977	66.953	0.607
418.500	300.037	80.008	19.993	103.906	19.029	63.381	0.662
420.000	300.427	80.009	19.997	103.907	19.087	59.474	0.359
421.500	301.403	80.008	19.995	103.922	19.137	56.088	0.595
423.000	302.032	80.009	19.992	103.935	19.183	52.986	0.450
424.500	302.770	80.008	19.992	103.926	19.228	49.899	0.496
426.000	303.567	80.009	19.994	103.913	19.271	47.040	0.480
427.500	304.314	80.009	19.994	103.912	19.308	44.550	0.500
429.000	305.050	80.009	19.994	103.910	19.345	42.037	0.537
430.500	305.848	80.008	19.994	103.908	19.381	39.602	0.506
432.000	306.561	80.008	19.993	103.905	19.413	37.415	0.464
433.500	307.336	80.008	19.993	103.905	19.443	35.358	0.493
435.000	308.136	80.008	19.994	103.902	19.478	33.010	0.534
436.500	308.854	80.009	19.994	103.903	19.503	31.351	0.465
438.000	309.617	80.007	19.995	103.902	19.530	29.518	0.526
439.500	310.363	80.007	19.994	103.901	19.556	27.743	0.489
441.000	311.072	80.007	19.994	103.902	19.582	25.999	0.470
442.500	311.819	80.008	19.993	103.846	19.604	24.465	0.504
444.000	312.666	80.008	19.994	103.842	19.630	22.740	0.550
445.500	313.347	80.008	19.995	103.934	19.648	21.499	0.461
447.000	314.123	80.009	19.994	103.951	19.664	20.396	0.505
448.500	314.890	80.009	19.993	103.885	19.681	19.256	0.506
450.000	315.620	80.009	19.994	103.894	19.698	18.113	0.479
451.500	316.308	80.009	19.994	103.887	19.710	17.311	0.464
453.000	317.070	80.011	19.993	103.885	19.719	16.670	0.508
454.500	317.836	80.010	19.993	103.883	19.731	15.868	0.525
456.000	318.560	80.009	19.993	103.873	19.745	14.942	0.485
457.500	319.362	80.009	19.994	103.880	19.755	14.288	0.517
459.000	320.076	80.008	19.994	103.879	19.761	13.828	0.503
460.500	320.847	80.008	19.994	103.873	19.768	13.376	0.518
462.000	321.598	80.009	19.994	103.871	19.777	12.745	0.505
463.500	322.347	80.009	19.994	103.872	19.779	12.625	0.495
465.000	323.076	80.007	19.995	103.873	19.785	12.223	0.476
466.500	323.818	80.007	19.993	103.868	19.794	11.623	0.493
468.000	324.590	80.008	19.994	103.871	19.796	11.495	0.524
469.500	325.311	80.009	19.993	103.872	19.801	11.140	0.496
471.000	326.057	80.009	19.993	103.869	19.805	10.900	0.501
472.500	326.814	80.009	19.993	103.871	19.812	10.436	0.497
474.000	327.535	80.010	19.994	103.873	19.815	10.181	0.510
475.500	328.294	80.011	19.994	103.873	19.816	10.145	0.482
477.000	329.012	80.011	19.993	103.870	19.823	9.674	0.474
478.501	329.753	80.011	19.992	103.870	19.821	9.785	0.491
480.000	330.541	80.010	19.993	103.868	19.826	9.432	0.517
481.500	331.261	80.011	19.993	103.868	19.825	9.520	0.472
483.000	332.011	80.011	19.994	103.865	19.828	9.312	0.495
484.500	332.746	80.012	19.992	103.865	19.828	9.346	0.501
486.000	333.570	80.010	19.993	103.866	19.835	8.877	0.556
487.500	334.323	80.009	19.993	103.869	19.836	8.790	0.505
489.000	335.077	80.009	19.993	103.868	19.836	8.789	0.502
490.500	335.833	80.008	19.994	103.866	19.836	8.775	0.510
492.000	336.641	80.009	19.992	103.867	19.839	8.591	0.512
493.500	337.367	80.008	19.993	103.868	19.836	8.815	0.465
495.000	338.110	80.009	19.993	103.868	19.837	8.730	0.495
496.500	338.875	80.009	19.993	103.867	19.839	8.588	0.524
498.000	339.607	80.009	19.993	103.867	19.839	8.569	0.497
499.500	340.405	80.008	19.994	103.867	19.843	8.331	0.518
501.000	341.160	80.009	19.993	103.867	19.843	8.299	0.494
502.500	341.931	80.009	19.993	103.867	19.841	8.412	0.504
504.000	342.653	80.008	19.993	103.866	19.843	8.340	0.485
505.500	343.422	80.008	19.993	103.866	19.842	8.363	0.507
507.000	344.110	80.009	19.992	103.870	19.844	8.273	0.459
508.500	344.915	80.009	19.991	103.869	19.841	8.422	0.548
510.000	345.667	80.008	19.992	103.866	19.842	8.386	0.505
511.500	346.445	80.009	19.993	103.868	19.841	8.468	0.534
513.000	347.207	80.009	19.992	103.871	19.842	8.351	0.532
514.500	347.975	80.010	19.993	103.869	19.840	8.522	0.516
516.000	348.722	80.009	19.992	103.868	19.843	8.305	0.489
517.500	349.552	80.008	19.995	103.871	19.840	8.481	0.548
519.000	350.296	80.008	19.993	103.875	19.842	8.404	0.508
520.500	351.047	80.008	19.995	103.885	19.843	8.295	0.503
522.000	351.769	80.008	19.993	103.874	19.845	8.185	0.497
523.500	352.585	80.009	19.993	103.868	19.839	8.588	0.537
525.000	353.370	80.009	19.993	103.871	19.837	8.697	0.547
526.500	354.106	80.008	19.994	103.871	19.837	8.738	0.492
528.000	354.896	80.008	19.994	103.867	19.840	8.545	0.562
529.500	355.627	80.009	19.994	103.869	19.839	8.588	0.513
531.000	356.386	80.007	19.993	103.870	19.840	8.502	0.523
532.500	357.191	80.008	19.993	103.872	19.840	8.543	0.528
534.000	357.972	80.009	19.994	103.869	19.838	8.631	0.513
535.500	358.776	80.008	19.995	103.869	19.840	8.533	0.534
537.000	359.488	80.009	19.995	103.870	19.840	8.539	0.464
538.500	360.197	80.010	19.993	103.873	19.837	8.700	0.487
540.000	361.001	80.009	19.993	103.869	19.832	9.027	0.534
541.500	361.782	80.010	19.994	103.869	19.836	8.777	0.524
543.000	362.559	80.011	19.992	103.869	19.831	9.092	0.517
544.500	363.301	80.010	19.994	103.867	19.829	9.240	0.484
546.001	364.047	80.010	19.993	103.866	19.828	9.353	0.480
547.500	364.838	80.010	19.993	103.866	19.824	9.597	0.538
549.000	365.612	80.008	19.993	103.866	19.827	9.364	0.509
550.500	366.404	80.009	19.994	103.866	19.824	9.590	0.533
552.000	367.124	80.009	19.994	103.866	19.825	9.511	0.478
553.500	367.892	80.009	19.993	103.864	19.824	9.571	0.504
555.000	368.648	80.009	19.994	103.862	19.827	9.387	0.493
556.500	369.413	80.010	19.995	103.864	19.823	9.666	0.498
558.000	370.154	80.010	19.993	103.864	19.820	9.848	0.493
559.500	370.865	80.008	19.994	103.864	19.818	9.976	0.481
561.000	371.658	80.009	19.994	103.865	19.818	10.008	0.517
562.500	372.416	80.011	19.993	103.865	19.818	10.023	0.498
564.000	373.225	80.010	19.994	103.864	19.817	10.055	0.527
565.500	374.005	80.011	19.994	103.863	19.818	10.023	0.549
567.001	374.729	80.010	19.993	103.862	19.810	10.523	0.480
568.500	375.495	80.010	19.994	103.861	19.807	10.743	0.492
570.000	376.304	80.012	19.995	103.863	19.807	10.729	0.538
571.500	377.068	80.007	19.994	103.862	19.807	10.778	0.519
573.000	377.832	80.010	19.993	103.862	19.800	11.204	0.499
574.500	378.542	80.009	19.993	103.864	19.798	11.372	0.497
576.000	379.328	80.008	19.992	103.864	19.796	11.475	0.532
577.500	380.138	80.009	19.995	103.865	19.797	11.434	0.541
579.000	380.884	80.009	19.993	103.873	19.794	11.634	0.490
580.500	381.661	80.008	19.993	103.873	19.793	11.717	0.499
582.000	382.405	80.008	19.993	103.870	19.791	11.856	0.484
583.500	383.153	80.008	19.993	103.870	19.785	12.220	0.508
585.000	383.906	80.008	19.993	103.873	19.780	12.566	0.485
586.500	384.703	80.008	19.993	103.874	19.782	12.434	0.535
588.000	385.422	80.008	19.992	103.876	19.775	12.918	0.483
589.500	386.186	80.009	19.993	103.873	19.772	13.090	0.507
591.000	386.953	80.008	19.994	103.869	19.770	13.258	0.516
592.500	387.769	80.011	19.994	103.873	19.770	13.269	0.531
594.000	388.506	80.009	19.993	103.871	19.766	13.513	0.487
595.500	389.289	80.008	19.992	103.868	19.766	13.550	0.539
597.000	390.072	80.009	19.993	103.871	19.759	14.006	0.523
598.500	390.784	80.009	19.993	103.876	19.757	14.107	0.500
600.000	391.585	80.009	19.993	103.880	19.757	14.144	0.526
601.500	392.360	80.008	19.993	103.878	19.755	14.250	0.529
603.000	393.091	80.008	19.993	103.871	19.751	14.540	0.498
604.500	393.911	80.009	19.993	103.871	19.751	14.551	0.542
606.000	394.720	80.008	19.994	103.872	19.748	14.759	0.549
607.500	395.488	80.008	19.993	103.883	19.741	15.211	0.513
609.000	396.280	80.008	19.994	103.883	19.739	15.325	0.522
610.500	397.051	80.008	19.993	103.877	19.738	15.437	0.501
612.000	397.839	80.010	19.993	103.883	19.734	15.681	0.533
613.500	398.627	80.008	19.993	103.876	19.731	15.872	0.523
615.000	399.371	80.007	19.993	103.874	19.729	16.029	0.512
616.500	400.185	80.010	19.994	103.869	19.725	16.282	0.516
618.000	400.958	80.010	19.993	103.871	19.725	16.276	0.512
619.500	401.746	80.009	19.992	103.870	19.721	16.573	0.525
621.000	402.487	80.009	19.992	103.877	19.719	16.687	0.487
622.500	403.277	80.010	19.992	103.879	19.719	16.705	0.527
624.000	404.050	80.010	19.992	103.871	19.708	17.418	0.516
625.500	404.813	80.010	19.993	103.872	19.708	17.452	0.508
627.000	405.608	80.011	19.993	103.869	19.705	17.672	0.533
628.500	406.382	80.010	19.994	103.866	19.701	17.893	0.529
630.000	407.113	80.010	19.993	103.874	19.698	18.146	0.490
631.500	407.926	80.009	19.993	103.877	19.697	18.202	0.521
633.000	408.690	80.009	19.993	103.871	19.693	18.467	0.519
634.500	409.488	80.008	19.994	103.871	19.688	18.812	0.530
636.000	410.199	80.008	19.992	103.868	19.688	18.813	0.482
637.500	411.012	80.008	19.996	103.881	19.688	18.828	0.513
639.000	411.779	80.007	19.994	103.886	19.682	19.219	0.518
640.500	412.506	80.010	19.995	103.872	19.679	19.385	0.484
642.000	413.315	80.008	19.994	103.885	19.679	19.394	0.536
643.500	414.014	80.010	19.994	103.874	19.678	19.503	0.464
645.001	414.758	80.010	19.994	103.874	19.673	19.844	0.492
646.500	415.529	80.011	19.994	103.872	19.665	20.359	0.503
648.000	416.277	80.010	19.993	103.869	19.665	20.357	0.472
649.500	417.036	80.010	19.993	103.873	19.662	20.570	0.496
651.000	417.786	80.011	19.993	103.872	19.660	20.668	0.503
652.500	418.577	80.012	19.993	103.870	19.664	20.428	0.524
654.000	419.346	80.010	19.993	103.869	19.659	20.761	0.524
655.500	420.094	80.011	19.994	103.874	19.655	20.995	0.524
657.000	420.860	80.010	19.993	103.871	19.656	20.959	0.511
658.500	421.660	80.007	19.994	103.868	19.648	21.492	0.539
660.000	422.358	80.008	19.995	103.868	19.647	21.563	0.478
661.500	423.157	80.006	19.995	103.867	19.645	21.736	0.516
663.000	423.850	80.008	19.994	103.872	19.639	22.101	0.472
664.500	424.665	80.008	19.995	103.882	19.637	22.252	0.525
666.000	425.465	80.008	19.995	103.875	19.632	22.590	0.534
667.500	426.217	80.009	19.994	103.868	19.630	22.734	0.499
669.000	426.976	80.008	19.994	103.875	19.628	22.876	0.504
670.500	427.726	80.009	19.995	103.878	19.619	23.447	0.488
672.000	428.486	80.009	19.993	103.870	19.616	23.646	0.483
673.500	429.234	80.007	19.994	103.869	19.610	24.063	0.499
675.000	430.006	80.009	19.993	103.819	19.612	23.932	0.500
676.500	430.725	80.009	19.993	103.817	19.606	24.355	0.466
678.000	431.471	80.008	19.993	103.922	19.605	24.380	0.514
679.500	432.239	80.007	19.993	103.916	19.605	24.442	0.525
681.000	433.021	80.008	19.993	103.868	19.601	24.706	0.516
682.500	433.797	80.008	19.993	103.867	19.596	24.988	0.517
684.000	434.523	80.007	19.995	103.866	19.595	25.113	0.489
685.500	435.254	80.008	19.994	103.869	19.593	25.201	0.485
687.000	436.035	80.010	19.993	103.867	19.591	25.355	0.519
688.500	436.779	80.011	19.994	103.866	19.584	25.811	0.493
690.000	437.524	80.008	19.992	103.866	19.581	26.003	0.503
691.500	438.279	80.007	19.994	103.865	19.580	26.132	0.517
693.000	439.060	80.009	19.992	103.865	19.575	26.444	0.541
694.500	439.806	80.008	19.993	103.865	19.574	26.507	0.491
696.000	440.534	80.006	19.992	103.866	19.568	26.915	0.486
697.500	441.305	80.008	19.995	103.863	19.569	26.846	0.507
699.000	442.058	80.009	19.993	103.862	19.566	27.025	0.498
700.500	442.836	80.009	19.994	103.864	19.565	27.096	0.527
702.000	443.545	80.009	19.994	103.860	19.561	27.411	0.462
703.500	444.290	80.009	19.994	103.856	19.562	27.301	0.514
705.000	445.022	80.010	19.994	103.857	19.559	27.549	0.468
706.500	445.780	80.012	19.993	103.852	19.557	27.649	0.511
708.000	446.545	80.011	19.992	103.859	19.555	27.764	0.518
709.500	447.253	80.010	19.992	103.856	19.557	27.671	0.470
711.000	448.027	80.009	19.993	103.854	19.558	27.601	0.524
712.500	448.739	80.010	19.993	103.858	19.560	27.446	0.478
714.000	449.525	80.011	19.993	103.855	19.562	27.328	0.503
715.500	450.266	80.012	19.993	103.855	19.559	27.482	0.485
717.000	451.020	80.009	19.992	103.864	19.558	27.582	0.523
718.500	451.788	80.010	19.992	103.847	19.557	27.674	0.505
720.000	452.528	80.008	19.992	103.852	19.561	27.406	0.485
721.500	453.278	80.009	19.993	103.861	19.559	27.547	0.500
723.000	454.072	80.009	19.993	103.853	19.560	27.454	0.524
724.500	454.805	80.009	19.994	103.846	19.561	27.384	0.479
726.000	455.595	80.007	19.993	103.839	19.562	27.341	0.532
727.500	456.382	80.011	19.993	103.787	19.562	27.307	0.515
729.000	457.118	80.010	19.993	103.811	19.564	27.152	0.499
730.500	457.846	80.010	19.994	103.906	19.568	26.911	0.480
732.000	458.623	80.009	19.994	103.907	19.566	27.011	0.519
733.500	459.432	80.010	19.993	103.851	19.568	26.886	0.557
735.000	460.196	80.009	19.993	103.832	19.572	26.644	0.517
736.500	460.980	80.010	19.994	103.831	19.576	26.333	0.509
738.000	461.743	80.010	19.993	103.839	19.575	26.419	0.508
739.501	462.566	80.010	19.994	103.844	19.576	26.384	0.539
741.000	463.321	80.009	19.993	103.836	19.583	25.915	0.492
742.500	464.026	80.008	19.994	103.832	19.585	25.772	0.493
744.000	464.822	80.008	19.994	103.831	19.593	25.216	0.533
745.500	465.565	80.009	19.993	103.833	19.596	25.037	0.529
747.000	466.344	80.008	19.993	103.841	19.600	24.725	0.506
748.500	467.115	80.008	19.993	103.833	19.601	24.661	0.514
750.000	467.851	80.009	19.994	103.834	19.603	24.562	0.512
751.500	468.638	80.008	19.993	103.830	19.610	24.056	0.517
753.000	469.381	80.010	19.993	103.828	19.613	23.891	0.493
754.500	470.168	80.008	19.993	103.829	19.620	23.379	0.506
756.000	470.929	80.007	19.993	103.837	19.624	23.100	0.528
757.500	471.741	80.008	19.994	103.837	19.636	22.318	0.530
759.000	472.435	80.008	19.995	103.841	19.642	21.919	0.474
760.500	473.256	80.009	19.994	103.838	19.645	21.682	0.541
762.000	474.047	80.008	19.994	103.830	19.652	21.223	0.528
763.500	474.754	80.011	19.995	103.828	19.660	20.712	0.465
765.000	475.569	80.009	19.995	103.830	19.664	20.388	0.525
766.500	476.298	80.008	19.995	103.828	19.673	19.835	0.496
768.000	477.059	80.010	19.994	103.834	19.677	19.511	0.505
769.500	477.821	80.009	19.994	103.831	19.685	19.025	0.520
771.000	478.649	80.009	19.994	103.826	19.691	18.605	0.554
772.500	479.381	80.009	19.994	103.833	19.693	18.427	0.479
774.000	480.201	80.010	19.994	103.837	19.704	17.678	0.531
775.500	480.931	80.009	19.994	103.828	19.708	17.469	0.514
777.000	481.742	80.009	19.992	103.831	19.711	17.222	0.558
778.500	482.473	80.008	19.994	103.831	19.719	16.699	0.511
780.000	483.268	80.008	19.992	103.829	19.726	16.205	0.535
781.500	483.997	80.007	19.992	103.829	19.732	15.785	0.474
783.000	484.764	80.007	19.993	103.833	19.734	15.653	0.518
784.500	485.500	80.008	19.994	103.831	19.741	15.173	0.499
786.000	486.207	80.008	19.993	103.829	19.747	14.777	0.484
787.500	486.996	80.009	19.993	103.832	19.754	14.292	0.528
789.000	487.740	80.010	19.994	103.834	19.757	14.131	0.483
790.500	488.489	80.009	19.992	103.832	19.762	13.797	0.510
792.000	489.242	80.010	19.992	103.830	19.766	13.538	0.484
793.500	490.000	80.009	19.993	103.830	19.771	13.158	0.496
795.000	490.798	80.010	19.993	103.827	19.774	12.963	0.518
796.500	491.535	80.009	19.993	103.829	19.781	12.519	0.479
798.000	492.314	80.009	19.993	103.831	19.784	12.305	0.527
799.500	493.068	80.009	19.993	103.825	19.784	12.320	0.499
801.000	493.813	80.009	19.993	103.823	19.792	11.737	0.501
802.500	494.605	80.010	19.994	103.831	19.794	11.605	0.526
804.000	495.359	80.009	19.993	103.832	19.798	11.350	0.497
805.500	496.107	80.009	19.992	103.831	19.803	11.038	0.490
807.000	496.888	80.010	19.994	103.834	19.801	11.159	0.522
808.500	497.643	80.010	19.992	103.836	19.803	10.995	0.515
810.000	498.392	80.010	19.993	103.831	19.808	10.682	0.523
811.500	499.137	80.010	19.993	103.831	19.815	10.194	0.525
813.000	499.892	80.010	19.993	103.832	19.818	9.976	0.496
814.500	500.665	80.012	19.994	103.830	19.820	9.856	0.538
816.000	501.450	80.010	19.992	103.827	19.825	9.511	0.520
817.500	502.181	80.011	19.993	103.831	19.825	9.515	0.471
819.000	502.927	80.012	19.993	103.831	19.829	9.250	0.522
820.500	503.695	80.013	19.994	103.825	19.826	9.459	0.494
822.000	504.428	80.012	19.992	103.827	19.827	9.376	0.491
823.500	505.213	80.012	19.992	103.827	19.830	9.203	0.534
825.000	505.995	80.011	19.993	103.826	19.832	9.055	0.527
826.500	506.785	80.012	19.994	103.825	19.835	8.817	0.524
828.000	507.577	80.010	19.992	103.825	19.834	8.892	0.528
829.500	508.289	80.008	19.994	103.825	19.840	8.532	0.474
831.000	509.073	80.010	19.994	103.827	19.839	8.590	0.488
832.500	509.832	80.009	19.995	103.827	19.843	8.305	0.512
834.000	510.618	80.010	19.994	103.827	19.847	8.059	0.513
835.500	511.371	80.010	19.993	103.826	19.844	8.205	0.504
837.000	512.092	80.010	19.994	103.826	19.850	7.836	0.499
838.500	512.880	80.009	19.994	103.826	19.850	7.804	0.520
840.000	513.633	80.008	19.993	103.826	19.851	7.757	0.524
841.500	514.414	80.009	19.994	103.831	19.853	7.643	0.523
843.000	515.233	80.008	19.992	103.829	19.853	7.626	0.544
844.500	515.981	80.009	19.992	103.827	19.853	7.596	0.534
846.000	516.787	80.008	19.993	103.827	19.858	7.292	0.527
847.500	517.596	80.009	19.993	103.827	19.858	7.294	0.520
849.000	518.372	80.008	19.994	103.826	19.862	6.994	0.511
850.500	519.160	80.009	19.994	103.825	19.866	6.782	0.496
852.000	519.907	80.010	19.994	103.829	19.865	6.847	0.492
853.500	520.700	80.008	19.994	103.831	19.861	7.076	0.525
855.000	521.465	80.010	19.994	103.830	19.862	7.050	0.519
856.500	522.243	80.008	19.994	103.832	19.864	6.870	0.522
858.000	523.028	80.009	19.993	103.830	19.864	6.866	0.514
859.500	523.788	80.008	19.994	103.826	19.864	6.885	0.515
861.000	524.595	80.008	19.993	103.830	19.865	6.846	0.542
862.500	525.405	80.008	19.994	103.825	19.866	6.724	0.547
864.000	526.163	80.008	19.994	103.826	19.872	6.343	0.509
865.500	526.938	80.008	19.995	103.831	19.872	6.352	0.521
867.000	527.656	80.008	19.995	103.832	19.872	6.373	0.473
868.500	528.468	80.009	19.995	103.829	19.872	6.311	0.546
870.000	529.246	80.009	19.994	103.827	19.873	6.266	0.493
871.500	529.988	80.009	19.993	103.830	19.873	6.243	0.506
873.000	530.777	80.011	19.993	103.832	19.872	6.316	0.529
874.500	531.584	80.009	19.992	103.835	19.875	6.110	0.546
876.000	532.342	80.008	19.992	103.831	19.876	6.048	0.510
877.500	533.148	80.012	19.994	103.833	19.873	6.262	0.520
879.000	533.898	80.011	19.992	103.832	19.872	6.363	0.485
880.500	534.700	80.012	19.993	103.829	19.875	6.123	0.539
882.000	535.461	80.011	19.992	103.828	19.874	6.241	0.506
883.500	536.242	80.011	19.993	103.829	19.877	6.007	0.506
885.000	537.032	80.009	19.994	103.828	19.879	5.889	0.528
886.500	537.804	80.010	19.993	103.827	19.875	6.108	0.512
888.000	538.564	80.010	19.993	103.827	19.873	6.285	0.505
889.500	539.340	80.010	19.992	103.827	19.873	6.305	0.513
891.000	540.127	80.010	19.993	103.827	19.878	5.932	0.540
892.500	540.869	80.010	19.993	103.827	19.877	5.996	0.485
894.000	541.619	80.009	19.993	103.827	19.878	5.906	0.516
895.500	542.419	80.011	19.993	103.826	19.881	5.744	0.510
897.000	543.217	80.011	19.993	103.829	19.879	5.887	0.508
898.500	544.021	80.012	19.992	103.828	19.879	5.870	0.523
900.000	544.728	80.010	19.992	103.827	19.880	5.774	0.474
901.500	545.492	80.013	19.992	103.827	19.881	5.754	0.492
903.000	546.282	80.011	19.994	103.827	19.879	5.851	0.534
904.500	547.021	80.012	19.993	103.825	19.880	5.801	0.501
906.000	547.839	80.013	19.993	103.827	19.878	5.949	0.545
907.500	548.612	80.013	19.993	103.826	19.879	5.893	0.521
909.000	549.372	80.012	19.993	103.828	19.880	5.820	0.513
910.500	550.142	80.010	19.993	103.828	19.879	5.883	0.524
912.000	550.945	80.010	19.994	103.827	19.880	5.812	0.554
913.500	551.732	80.009	19.994	103.827	19.879	5.875	0.514
915.000	552.453	80.010	19.991	103.827	19.879	5.849	0.480
916.500	553.235	80.010	19.993	103.828	19.877	5.981	0.528
918.000	554.038	80.009	19.993	103.829	19.875	6.144	0.518
919.500	554.810	80.009	19.994	103.830	19.874	6.228	0.500
921.000	555.559	80.010	19.992	103.810	19.873	6.253	0.501
922.500	556.323	80.009	19.992	103.773	19.871	6.407	0.493
924.000	557.147	80.010	19.994	103.854	19.875	6.116	0.567
925.500	557.888	80.010	19.994	103.891	19.872	6.349	0.470
927.000	558.649	80.008	19.992	103.835	19.870	6.497	0.528
928.500	559.427	80.009	19.993	103.832	19.866	6.758	0.495
930.000	560.188	80.010	19.993	103.831	19.867	6.657	0.526
931.500	560.897	80.009	19.995	103.833	19.867	6.678	0.481
933.000	561.708	80.009	19.993	103.837	19.864	6.886	0.524
934.500	562.461	80.010	19.993	103.835	19.868	6.640	0.503
936.000	563.263	80.009	19.992	103.832	19.864	6.914	0.537
937.500	563.980	80.008	19.995	103.836	19.866	6.740	0.474
939.000	564.735	80.008	19.993	103.833	19.863	6.924	0.511
940.500	565.460	80.008	19.994	103.845	19.864	6.909	0.448
942.000	566.210	80.009	19.992	103.845	19.862	7.037	0.528
943.500	566.972	80.008	19.994	103.842	19.864	6.920	0.501
945.000	567.710	80.009	19.994	103.843	19.863	6.934	0.492
946.500	568.466	80.009	19.993	103.837	19.864	6.884	0.507
948.001	569.277	80.009	19.995	103.847	19.861	7.089	0.547
949.500	570.038	80.009	19.997	103.857	19.861	7.100	0.502
951.000	570.767	80.010	19.994	103.851	19.860	7.142	0.479
952.500	571.556	80.010	19.994	103.850	19.861	7.114	0.522
954.000	572.314	80.010	19.993	103.852	19.859	7.196	0.525
955.500	573.068	80.009	19.992	103.841	19.858	7.291	0.507
957.000	573.855	80.009	19.993	103.840	19.857	7.382	0.506
958.500	574.643	80.009	19.995	103.852	19.856	7.448	0.519
960.000	575.408	80.011	19.994	103.847	19.853	7.647	0.522
961.500	576.181	80.009	19.993	103.854	19.854	7.568	0.511
963.000	576.924	80.010	19.997	103.863	19.855	7.494	0.492
964.500	577.688	80.010	19.994	103.860	19.856	7.451	0.535
966.000	578.465	80.011	19.994	103.847	19.855	7.516	0.522
967.500	579.218	80.010	19.994	103.843	19.854	7.530	0.510
969.000	579.981	80.011	19.994	103.857	19.857	7.367	0.527
970.500	580.771	80.010	19.994	103.862	19.860	7.154	0.542
972.000	581.552	80.011	19.994	103.853	19.855	7.507	0.531
973.500	582.282	80.010	19.993	103.842	19.860	7.151	0.504
975.000	583.067	80.011	19.993	103.848	19.856	7.429	0.515
976.500	583.800	80.009	19.994	103.860	19.861	7.084	0.498
978.000	584.617	80.011	19.993	103.855	19.864	6.872	0.545
979.500	585.357	80.011	19.993	103.838	19.865	6.825	0.499
981.000	586.111	80.011	19.993	103.836	19.864	6.891	0.503
982.500	586.874	80.011	19.993	103.838	19.867	6.688	0.506
984.000	587.651	80.011	19.992	103.843	19.865	6.825	0.528
985.500	588.426	80.013	19.993	103.855	19.869	6.582	0.528
987.000	589.196	80.012	19.993	103.861	19.867	6.683	0.534
988.500	589.956	80.013	19.993	103.858	19.872	6.337	0.505
990.000	590.761	80.011	19.992	103.858	19.873	6.299	0.540
991.500	591.502	80.012	19.993	103.858	19.876	6.090	0.536
993.000	592.270	80.012	19.993	103.855	19.876	6.051	0.515
994.500	593.056	80.011	19.993	103.852	19.878	5.934	0.521
996.000	593.799	80.010	19.992	103.847	19.885	5.480	0.505
997.500	594.547	80.010	19.994	103.845	19.884	5.543	0.472
999.000	595.353	80.010	19.993	103.849	19.885	5.436	0.548
1000.500	596.107	80.009	19.994	103.848	19.887	5.323	0.501
1002.000	596.931	80.009	19.993	103.844	19.885	5.440	0.543
1003.500	597.655	80.010	19.993	103.835	19.890	5.105	0.480
1005.000	598.455	80.010	19.993	103.840	19.889	5.193	0.524
1006.500	599.180	80.010	19.993	103.838	19.893	4.942	0.463
1008.000	599.918	80.010	19.992	103.845	19.894	4.855	0.503
1009.500	600.722	80.009	19.992	103.845	19.895	4.782	0.539
1011.000	601.494	80.009	19.994	103.839	19.893	4.944	0.517
1012.500	602.252	80.009	19.991	103.833	19.896	4.752	0.530
1014.000	603.037	80.010	19.993	103.830	19.893	4.939	0.520
1015.500	603.772	80.011	19.992	103.829	19.899	4.549	0.502
1017.000	604.553	80.010	19.994	103.831	19.900	4.474	0.539
1018.500	605.305	80.011	19.993	103.832	19.898	4.559	0.489
1020.000	606.062	80.009	19.993	103.835	19.898	4.553	0.505
1021.500	606.850	80.009	19.994	103.839	19.901	4.377	0.499
1023.000	607.604	80.010	19.994	103.829	19.903	4.257	0.508
1024.500	608.343	80.010	19.993	103.828	19.900	4.437	0.492
1026.000	609.165	80.009	19.993	103.829	19.900	4.427	0.540
1027.501	609.909	80.010	19.993	103.830	19.903	4.259	0.511
1029.001	610.719	80.008	19.994	103.833	19.904	4.165	0.508
1030.501	611.497	80.009	19.994	103.839	19.907	3.964	0.507
1032.001	612.261	80.009	19.994	103.833	19.904	4.210	0.514
1033.500	613.049	80.008	19.995	103.829	19.903	4.272	0.512
1035.000	613.850	80.010	19.994	103.832	19.903	4.215	0.530
1036.500	614.601	80.009	19.994	103.832	19.902	4.285	0.472
1038.000	615.405	80.009	19.993	103.832	19.903	4.218	0.541
1039.500	616.166	80.009	19.993	103.834	19.907	3.961	0.500
1041.001	616.952	80.010	19.994	103.841	19.902	4.322	0.512
1042.500	617.724	80.010	19.994	103.839	19.904	4.182	0.504
1044.001	618.499	80.011	19.993	103.828	19.908	3.881	0.526
1045.500	619.270	80.011	19.993	103.827	19.910	3.769	0.501
1047.000	620.056	80.010	19.993	103.831	19.908	3.942	0.508
1048.500	620.844	80.012	19.995	103.836	19.905	4.080	0.517
1050.000	621.561	80.010	19.994	103.837	19.906	4.062	0.491
1051.501	622.367	80.010	19.993	103.833	19.906	4.058	0.542
1053.000	623.151	80.010	19.994	103.829	19.906	4.036	0.506
1054.500	623.923	80.011	19.994	103.831	19.906	4.041	0.511
1056.001	624.688	80.009	19.993	103.831	19.907	3.990	0.513
1057.500	625.514	80.010	19.996	103.833	19.906	4.024	0.543
1059.000	626.336	80.009	19.995	103.834	19.906	4.020	0.538
1060.500	627.083	80.010	19.995	103.832	19.907	3.973	0.497
1062.000	627.858	80.009	19.995	103.831	19.905	4.116	0.516
1063.500	628.607	80.010	19.995	103.835	19.908	3.934	0.511
1065.000	629.357	80.010	19.994	103.825	19.907	3.987	0.504
1066.500	630.164	80.011	19.994	103.772	19.907	4.011	0.535
1068.000	630.930	80.011	19.995	103.808	19.910	3.777	0.511
1069.500	631.708	80.012	19.994	103.904	19.911	3.713	0.533
1071.000	632.511	80.011	19.993	103.898	19.906	4.036	0.531
1072.500	633.311	80.012	19.993	103.839	19.909	3.846	0.539
1074.001	634.137	80.011	19.993	103.838	19.907	4.006	0.557
1075.500	634.939	80.011	19.992	103.841	19.906	4.064	0.519
1077.001	635.733	80.010	19.993	103.834	19.907	4.004	0.559
1078.500	636.495	80.013	19.993	103.836	19.906	4.015	0.521
1080.001	637.261	80.011	19.992	103.838	19.908	3.910	0.522
1081.500	638.107	80.009	19.993	103.841	19.908	3.936	0.558
1083.000	638.858	80.010	19.994	103.842	19.905	4.125	0.511
1084.500	639.664	80.010	19.993	103.845	19.908	3.941	0.561
1086.001	640.466	80.009	19.993	103.841	19.908	3.936	0.543
1087.500	641.212	80.009	19.993	103.837	19.910	3.754	0.509
1089.000	642.005	80.009	19.994	103.829	19.909	3.814	0.524
1090.501	642.784	80.010	19.993	103.828	19.909	3.833	0.525
1092.001	643.529	80.009	19.994	103.832	19.912	3.639	0.510
1093.500	644.333	80.009	19.994	103.805	19.907	3.960	0.554
1095.001	645.044	80.010	19.994	103.776	19.910	3.776	0.480
1096.500	645.832	80.010	19.993	103.863	19.911	3.720	0.522
1098.001	646.651	80.008	19.994	103.890	19.914	3.518	0.539
1099.500	647.402	80.011	19.992	103.840	19.916	3.377	0.521
1101.000	648.218	80.010	19.994	103.835	19.911	3.683	0.536
1102.501	648.980	80.010	19.993	103.828	19.912	3.628	0.514
1104.000	649.745	80.011	19.993	103.829	19.913	3.578	0.520
1105.500	650.558	80.010	19.994	103.829	19.912	3.647	0.555
1107.000	651.325	80.012	19.993	103.831	19.911	3.673	0.496
1108.500	652.099	80.011	19.993	103.832	19.913	3.551	0.515
1110.000	652.912	80.011	19.993	103.828	19.912	3.660	0.520
1111.501	653.674	80.010	19.992	103.828	19.913	3.587	0.510
1113.000	654.474	80.011	19.992	103.832	19.906	4.032	0.539
1114.500	655.220	80.009	19.993	103.835	19.909	3.852	0.515
1116.000	656.026	80.007	19.991	103.835	19.908	3.897	0.551
1117.500	656.805	80.009	19.993	103.832	19.906	4.065	0.516
1119.001	657.556	80.009	19.993	103.834	19.906	4.077	0.520
1120.501	658.375	80.009	19.993	103.833	19.907	4.011	0.560
1122.000	659.096	80.009	19.992	103.833	19.905	4.088	0.480
1123.501	659.895	80.010	19.993	103.833	19.905	4.133	0.505
1125.000	660.652	80.009	19.993	103.838	19.908	3.915	0.514
1126.501	661.389	80.011	19.993	103.839	19.908	3.915	0.486
1128.001	662.199	80.011	19.993	103.832	19.912	3.653	0.538
1129.501	662.998	80.010	19.993	103.830	19.908	3.889	0.539
1131.000	663.737	80.012	19.993	103.830	19.910	3.779	0.487
1132.500	664.514	80.012	19.992	103.834	19.910	3.771	0.515
1134.000	665.269	80.011	19.993	103.834	19.910	3.793	0.536
1135.501	666.042	80.010	19.992	103.831	19.910	3.767	0.520
1137.001	666.818	80.011	19.992	103.831	19.912	3.642	0.521
1138.500	667.589	80.011	19.993	103.833	19.914	3.514	0.494
1140.000	668.385	80.012	19.993	103.834	19.911	3.694	0.520
1141.500	669.139	80.011	19.992	103.835	19.911	3.724	0.507
1143.001	669.928	80.009	19.993	103.837	19.917	3.305	0.534
1144.500	670.696	80.010	19.992	103.834	19.913	3.553	0.517
1146.000	671.450	80.009	19.994	103.831	19.914	3.525	0.504
1147.500	672.176	80.010	19.994	103.842	19.912	3.621	0.484
1149.001	673.005	80.011	19.994	103.847	19.912	3.664	0.565
1150.501	673.774	80.011	19.994	103.832	19.911	3.685	0.502
1152.000	674.573	80.011	19.993	103.829	19.912	3.624	0.527
1153.500	675.331	80.012	19.993	103.827	19.912	3.664	0.492
1155.000	676.112	80.013	19.994	103.826	19.914	3.471	0.529
1156.500	676.920	80.012	19.995	103.828	19.915	3.431	0.531
1158.000	677.684	80.012	19.994	103.828	19.918	3.234	0.505
1159.501	678.432	80.012	19.994	103.827	19.918	3.262	0.528
1161.000	679.128	80.012	19.994	103.832	19.917	3.276	0.499
1162.501	679.930	80.013	19.994	103.828	19.920	3.125	0.513
1164.001	680.681	80.011	19.993	103.828	19.917	3.302	0.509
1165.500	681.432	80.011	19.993	103.827	19.917	3.281	0.513
1167.000	682.203	80.012	19.993	103.827	19.917	3.324	0.516
1168.500	682.968	80.012	19.993	103.831	19.918	3.233	0.507
1170.000	683.724	80.011	19.993	103.830	19.910	3.782	0.503
1171.501	684.489	80.010	19.992	103.832	19.913	3.564	0.488
1173.000	685.270	80.012	19.993	103.830	19.912	3.640	0.529
1174.500	686.018	80.011	19.993	103.828	19.912	3.655	0.488
1176.000	686.792	80.008	19.993	103.828	19.916	3.396	0.530
1177.500	687.520	80.011	19.994	103.832	19.919	3.195	0.469
1179.000	688.288	80.010	19.995	103.840	19.917	3.308	0.512
1180.500	688.990	80.012	19.994	103.836	19.917	3.268	0.471
1182.000	689.698	80.010	19.993	103.828	19.917	3.321	0.488
1183.500	690.424	80.011	19.994	103.834	19.917	3.321	0.463
1185.001	691.204	80.010	19.993	103.837	19.915	3.454	0.518
1186.500	691.923	80.010	19.993	103.837	19.915	3.429	0.499
1188.000	692.675	80.011	19.995	103.836	19.911	3.696	0.494
1189.500	693.462	80.012	19.995	103.851	19.916	3.384	0.503
1191.000	694.206	80.009	19.994	103.839	19.915	3.418	0.484
1192.500	694.986	80.009	19.993	103.831	19.918	3.217	0.523
1194.000	695.772	80.010	19.992	103.831	19.916	3.351	0.502
1195.501	696.511	80.010	19.992	103.830	19.915	3.443	0.503
1197.000	697.254	80.010	19.993	103.828	19.914	3.489	0.477
1198.501	697.996	80.008	19.994	103.832	19.914	3.535	0.483
1200.000	698.739	80.012	19.993	103.830	19.915	3.441	0.502
1201.500	699.516	80.009	19.994	103.831	19.914	3.501	0.508
1203.001	700.220	80.011	19.992	103.834	19.914	3.517	0.466
1204.500	700.986	80.008	19.992	103.833	19.912	3.632	0.501
1206.000	701.740	80.008	19.992	103.833	19.913	3.559	0.519
1207.500	702.515	80.008	19.993	103.833	19.912	3.621	0.539
1209.000	703.307	80.015	19.993	103.832	19.915	3.448	0.540
1210.501	704.024	80.009	19.993	103.832	19.913	3.562	0.465
1212.000	704.760	80.013	19.992	103.831	19.917	3.334	0.484
1213.500	705.524	80.012	19.992	103.830	19.912	3.628	0.501
1215.000	706.221	80.010	19.993	103.827	19.916	3.339	0.478
1216.500	707.015	80.012	19.993	103.827	19.916	3.347	0.529
1218.000	707.749	80.012	19.994	103.827	19.915	3.457	0.489
1219.500	708.515	80.010	19.993	103.827	19.919	3.195	0.526
1221.001	709.263	80.010	19.994	103.827	19.915	3.439	0.510
1222.500	710.020	80.011	19.994	103.826	19.916	3.364	0.473
1224.001	710.805	80.010	19.993	103.825	19.916	3.335	0.517
1225.500	711.532	80.010	19.993	103.825	19.915	3.405	0.483
1227.001	712.335	80.012	19.993	103.827	19.917	3.289	0.513
1228.500	713.076	80.010	19.994	103.828	19.919	3.168	0.515
1230.000	713.831	80.012	19.993	103.826	19.916	3.365	0.518
1231.501	714.566	80.011	19.993	103.826	19.916	3.358	0.505
1233.000	715.399	80.011	19.992	103.825	19.916	3.373	0.551
1234.500	716.183	80.011	19.993	103.826	19.918	3.260	0.514
1236.000	716.935	80.013	19.992	103.829	19.919	3.140	0.492
1237.500	717.704	80.013	19.994	103.829	19.919	3.133	0.515
1239.000	718.478	80.015	19.993	103.824	19.921	3.022	0.521
1240.501	719.246	80.012	19.993	103.824	19.923	2.868	0.495
1242.001	719.995	80.012	19.993	103.825	19.923	2.923	0.525
1243.500	720.786	80.011	19.993	103.827	19.923	2.900	0.535
1245.001	721.575	80.011	19.994	103.825	19.925	2.748	0.542
1246.500	722.311	80.012	19.993	103.825	19.921	3.035	0.469
1248.000	723.086	80.010	19.994	103.826	19.919	3.157	0.515
1249.500	723.859	80.010	19.994	103.825	19.924	2.833	0.514
1251.000	724.630	80.011	19.995	103.825	19.922	2.953	0.519
1252.501	725.397	80.010	19.993	103.827	19.924	2.814	0.519
1254.000	726.203	80.012	19.994	103.824	19.920	3.073	0.518
1255.500	726.989	80.009	19.994	103.827	19.924	2.820	0.506
1257.001	727.789	80.009	19.995	103.828	19.923	2.880	0.537
1258.500	728.536	80.008	19.995	103.824	19.919	3.152	0.497
1260.000	729.298	80.007	19.995	103.824	19.927	2.600	0.520
1261.500	730.073	80.009	19.995	103.823	19.926	2.701	0.527
1263.000	730.839	80.008	19.994	103.823	19.920	3.071	0.529
1264.500	731.543	80.012	19.994	103.826	19.919	3.189	0.473
1266.000	732.350	80.010	19.993	103.829	19.918	3.200	0.522
1267.501	733.095	80.007	19.995	103.826	19.917	3.281	0.511
1269.000	733.909	80.007	19.993	103.829	19.922	2.964	0.549
1270.500	734.649	80.009	19.993	103.829	19.923	2.923	0.473
1272.000	735.391	80.010	19.993	103.826	19.923	2.911	0.503
1273.500	736.181	80.009	19.993	103.826	19.922	2.930	0.549
1275.000	736.900	80.007	19.994	103.827	19.924	2.829	0.496
1276.500	737.687	80.007	19.994	103.827	19.923	2.926	0.502
1278.001	738.397	80.009	19.993	103.829	19.918	3.240	0.490
1279.500	739.206	80.008	19.992	103.824	19.919	3.159	0.527
1281.000	739.950	80.010	19.994	103.822	19.917	3.302	0.474
1282.501	740.687	80.008	19.994	103.821	19.920	3.125	0.485
1284.000	741.471	80.011	19.994	103.823	19.921	3.052	0.513
1285.500	742.228	80.010	19.994	103.824	19.918	3.232	0.522
1287.000	743.009	80.008	19.993	103.821	19.920	3.084	0.520
1288.500	743.752	80.008	19.995	103.821	19.921	3.003	0.487
1290.000	744.458	80.009	19.994	103.821	19.920	3.080	0.479
1291.501	745.268	80.010	19.994	103.820	19.918	3.211	0.520