File: 01_Data/Vinyl_Chair_Vinyl_Covering/MCC/Vinyl_Chair_Vinyl_Covering_MCC_30K_min_220304_R3.txt
Sample ID:	C:\MCC\MCC Cal\Test\Vinyl_Covering_81A_MCC_30K_min_220304_R3.txt
Sample Weight (mg):	4.67
Heating Rate (C/s):	0.5
Combustor Temp (C):	900
N2 Flow Rate (cc/min):	80
O2 Flow Rate (cc/min):	20
Calibration File:	C:\MCC\MCC Cal\Coeff1 JN10440_30_210304.txt.txt
T Correction Coefficients:	0	1.024463	0
Time Shift (s):	14
*
Time (s)	Temperature (C)	N2 flow rate (cc/min)	O2 flow rate (cc/min)	Flow Rate (cc/min)	Oxygen (%)	HRR (W/g)	Heating rate (C/s)
0.000	113.730	80.012	19.995	103.735	20.030	0.231	0.005
1.500	113.737	80.012	19.993	103.736	20.030	0.236	-0.006
3.000	113.749	80.012	19.993	103.738	20.030	0.261	-0.010
4.500	113.768	80.013	19.993	103.724	20.030	0.255	-0.009
6.000	113.721	80.013	19.993	103.726	20.032	0.090	-0.033
7.500	113.745	80.013	19.992	103.740	20.028	0.355	0.028
9.000	113.767	80.013	19.992	103.745	20.025	0.606	-0.000
10.500	113.771	80.014	19.993	103.765	20.025	0.598	-0.001
12.001	113.785	80.014	19.993	103.800	20.018	1.073	0.019
13.500	113.783	80.014	19.993	103.817	20.014	1.347	0.006
15.000	113.820	80.013	19.993	103.841	20.014	1.377	0.016
16.500	113.908	80.013	19.992	103.864	20.012	1.492	0.053
18.000	113.983	80.013	19.993	103.867	20.012	1.503	0.049
19.500	114.126	80.011	19.994	103.862	20.007	1.832	0.101
21.000	114.186	80.011	19.991	103.868	20.008	1.748	0.048
22.501	114.307	80.011	19.992	103.857	20.003	2.080	0.079
24.000	114.447	80.012	19.992	103.877	20.006	1.930	0.088
25.500	114.587	80.011	19.995	103.895	20.004	2.046	0.088
27.000	114.723	80.010	19.992	103.886	19.998	2.463	0.082
28.501	114.886	80.009	19.993	103.889	19.997	2.503	0.104
30.000	115.120	80.010	19.991	103.898	19.992	2.846	0.156
31.500	115.301	80.012	19.994	103.912	19.990	2.981	0.148
33.000	115.470	80.010	19.994	103.932	19.991	2.927	0.101
34.500	115.732	80.010	19.994	103.935	19.989	3.077	0.150
36.000	115.953	80.010	19.993	103.936	19.989	3.098	0.152
37.501	116.242	80.010	19.993	103.934	19.989	3.083	0.183
39.000	116.473	80.009	19.991	103.938	19.987	3.194	0.148
40.500	116.768	80.012	19.994	103.939	19.988	3.138	0.201
42.001	117.027	80.010	19.993	103.945	19.987	3.236	0.168
43.500	117.316	80.010	19.993	103.943	19.986	3.277	0.200
45.000	117.654	80.010	19.993	103.939	19.988	3.116	0.210
46.500	118.001	80.009	19.992	103.939	19.990	2.982	0.238
48.001	118.327	80.010	19.993	103.948	19.988	3.161	0.220
49.500	118.699	80.009	19.993	103.963	19.989	3.076	0.253
51.001	119.106	80.010	19.993	103.974	19.984	3.454	0.251
52.500	119.455	80.009	19.993	103.976	19.983	3.503	0.262
54.000	119.857	80.009	19.996	103.975	19.978	3.815	0.275
55.501	120.292	80.009	19.993	103.974	19.977	3.909	0.288
57.000	120.704	80.010	19.993	103.976	19.975	4.021	0.256
58.501	121.148	80.010	19.995	103.979	19.977	3.910	0.295
60.000	121.644	80.011	19.995	103.975	19.976	3.982	0.323
61.500	122.095	80.010	19.995	103.973	19.977	3.928	0.311
63.000	122.557	80.011	19.994	103.975	19.976	3.952	0.320
64.501	123.040	80.012	19.993	103.985	19.976	4.016	0.294
66.001	123.508	80.012	19.995	103.993	19.977	3.920	0.304
67.500	123.999	80.012	19.992	103.983	19.975	4.061	0.325
69.000	124.518	80.012	19.994	103.979	19.973	4.166	0.335
70.500	125.081	80.012	19.992	103.984	19.976	3.992	0.372
72.000	125.581	80.013	19.992	103.995	19.975	4.058	0.346
73.501	126.134	80.011	19.995	103.995	19.976	4.005	0.379
75.001	126.720	80.012	19.994	104.000	19.971	4.300	0.396
76.501	127.265	80.011	19.993	103.994	19.974	4.103	0.362
78.001	127.806	80.011	19.993	103.988	19.973	4.180	0.371
79.500	128.400	80.011	19.992	103.985	19.972	4.287	0.362
81.000	129.023	80.012	19.994	103.993	19.972	4.268	0.401
82.500	129.577	80.011	19.993	104.004	19.970	4.430	0.376
84.000	130.192	80.012	19.993	104.002	19.969	4.493	0.399
85.500	130.805	80.013	19.995	104.000	19.968	4.523	0.426
87.001	131.393	80.011	19.991	103.995	19.967	4.610	0.402
88.500	132.023	80.012	19.994	104.002	19.967	4.638	0.413
90.000	132.636	80.011	19.994	104.010	19.964	4.822	0.407
91.500	133.284	80.012	19.992	103.997	19.968	4.559	0.427
93.001	133.920	80.013	19.989	104.004	19.966	4.706	0.402
94.500	134.521	80.012	19.992	104.003	19.967	4.603	0.405
96.000	135.167	80.013	19.992	103.998	19.964	4.785	0.415
97.500	135.844	80.013	19.990	104.002	19.963	4.887	0.437
99.000	136.499	80.013	19.992	104.011	19.964	4.846	0.433
100.500	137.211	80.012	19.995	104.004	19.965	4.729	0.456
102.001	137.868	80.012	19.992	103.996	19.963	4.894	0.447
103.501	138.519	80.011	19.991	104.003	19.960	5.121	0.448
105.000	139.234	80.010	19.995	104.009	19.957	5.285	0.472
106.500	139.946	80.010	19.993	104.006	19.961	5.024	0.485
108.000	140.613	80.010	19.991	104.014	19.960	5.087	0.439
109.500	141.306	80.010	19.992	104.017	19.959	5.187	0.441
111.001	141.984	80.010	19.993	104.016	19.954	5.514	0.437
112.500	142.717	80.008	19.995	104.009	19.961	5.016	0.476
114.000	143.427	80.009	19.993	104.009	19.955	5.438	0.487
115.500	144.178	80.010	19.993	104.012	19.955	5.458	0.495
117.001	144.886	80.010	19.993	104.011	19.953	5.578	0.475
118.501	145.594	80.011	19.994	104.006	19.953	5.549	0.463
120.000	146.342	80.011	19.994	104.002	19.949	5.880	0.484
121.500	147.083	80.010	19.992	104.002	19.949	5.840	0.488
123.000	147.784	80.010	19.995	104.003	19.949	5.885	0.477
124.501	148.508	80.012	19.993	104.005	19.945	6.118	0.462
126.001	149.270	80.011	19.992	103.993	19.945	6.123	0.512
127.501	149.977	80.010	19.996	103.982	19.943	6.260	0.447
129.000	150.721	80.011	19.993	103.990	19.943	6.306	0.494
130.500	151.457	80.012	19.992	103.995	19.941	6.415	0.472
132.000	152.201	80.011	19.991	103.995	19.940	6.499	0.488
133.500	152.991	80.010	19.992	103.990	19.939	6.589	0.555
135.000	153.679	80.010	19.995	103.995	19.937	6.669	0.461
136.500	154.388	80.010	19.995	103.994	19.937	6.671	0.493
138.000	155.121	80.010	19.994	103.978	19.933	6.970	0.491
139.500	155.870	80.011	19.996	103.984	19.933	6.944	0.510
141.000	156.639	80.010	19.992	103.997	19.936	6.731	0.509
142.500	157.366	80.010	19.995	103.988	19.931	7.122	0.484
144.000	158.153	80.009	19.993	103.986	19.931	7.112	0.521
145.500	158.895	80.009	19.994	103.976	19.930	7.148	0.501
147.001	159.657	80.011	19.993	103.974	19.928	7.353	0.506
148.500	160.373	80.010	19.994	103.978	19.924	7.593	0.502
150.001	161.140	80.010	19.995	103.978	19.922	7.749	0.520
151.501	161.882	80.010	19.995	103.977	19.920	7.879	0.485
153.000	162.655	80.011	19.991	103.974	19.916	8.125	0.496
154.500	163.396	80.011	19.995	103.977	19.912	8.403	0.503
156.000	164.199	80.011	19.993	103.980	19.913	8.331	0.505
157.500	164.924	80.011	19.992	103.978	19.913	8.356	0.485
159.000	165.682	80.010	19.992	103.974	19.909	8.658	0.511
160.500	166.417	80.010	19.992	103.975	19.906	8.853	0.490
162.000	167.180	80.012	19.994	103.974	19.908	8.679	0.500
163.500	167.913	80.011	19.993	103.975	19.909	8.647	0.494
165.000	168.634	80.011	19.991	103.977	19.906	8.872	0.489
166.500	169.394	80.012	19.992	103.978	19.900	9.241	0.492
168.000	170.135	80.011	19.993	103.977	19.904	8.979	0.505
169.500	170.859	80.011	19.992	103.976	19.899	9.314	0.472
171.001	171.621	80.011	19.992	103.977	19.894	9.689	0.488
172.501	172.330	80.011	19.993	103.976	19.891	9.875	0.495
174.000	173.151	80.011	19.991	103.975	19.891	9.892	0.559
175.500	173.911	80.011	19.994	103.976	19.886	10.237	0.519
177.000	174.687	80.013	19.993	103.970	19.885	10.314	0.526
178.500	175.424	80.012	19.993	103.968	19.882	10.547	0.501
180.001	176.154	80.012	19.992	103.977	19.880	10.677	0.503
181.501	176.925	80.013	19.990	103.975	19.878	10.788	0.512
183.000	177.680	80.012	19.994	103.973	19.877	10.882	0.507
184.500	178.382	80.011	19.991	103.972	19.870	11.381	0.480
186.000	179.128	80.010	19.991	103.976	19.867	11.535	0.479
187.501	179.908	80.011	19.994	103.975	19.864	11.730	0.515
189.000	180.619	80.011	19.992	103.974	19.864	11.796	0.474
190.500	181.404	80.011	19.991	103.974	19.855	12.374	0.530
192.000	182.160	80.011	19.993	103.973	19.851	12.686	0.503
193.500	182.851	80.010	19.993	103.975	19.850	12.707	0.446
195.000	183.596	80.012	19.992	103.975	19.849	12.823	0.508
196.500	184.366	80.012	19.994	103.974	19.849	12.818	0.508
198.001	185.129	80.011	19.994	103.973	19.840	13.450	0.489
199.500	185.864	80.011	19.992	103.971	19.838	13.551	0.485
201.000	186.639	80.010	19.993	103.971	19.836	13.732	0.517
202.501	187.347	80.011	19.993	103.975	19.831	14.041	0.466
204.001	188.129	80.012	19.994	103.973	19.830	14.115	0.508
205.500	188.815	80.011	19.992	103.973	19.828	14.260	0.447
207.000	189.564	80.012	19.994	103.971	19.823	14.642	0.477
208.500	190.349	80.011	19.992	103.956	19.823	14.602	0.523
210.000	191.114	80.011	19.994	103.963	19.815	15.176	0.518
211.500	191.831	80.012	19.993	103.960	19.812	15.344	0.461
213.001	192.508	80.011	19.994	103.953	19.807	15.686	0.443
214.500	193.292	80.011	19.992	103.957	19.804	15.901	0.513
216.000	193.997	80.011	19.993	103.957	19.803	15.996	0.471
217.500	194.795	80.011	19.994	103.965	19.796	16.466	0.536
219.000	195.505	80.009	19.993	103.966	19.798	16.372	0.479
220.501	196.189	80.009	19.994	103.950	19.798	16.345	0.437
222.000	196.996	80.010	19.994	103.943	19.789	16.976	0.539
223.500	197.681	80.009	19.993	103.954	19.787	17.123	0.480
225.001	198.424	80.011	19.992	103.947	19.783	17.354	0.488
226.500	199.154	80.010	19.994	103.941	19.785	17.220	0.504
228.000	199.867	80.009	19.993	103.944	19.778	17.766	0.461
229.500	200.645	80.011	19.991	103.943	19.778	17.759	0.498
231.000	201.387	80.010	19.993	103.946	19.772	18.136	0.492
232.500	202.112	80.010	19.993	103.950	19.769	18.331	0.486
234.000	202.883	80.011	19.992	103.948	19.766	18.579	0.505
235.500	203.591	80.011	19.993	103.943	19.760	19.013	0.461
237.000	204.284	80.011	19.993	103.942	19.758	19.099	0.454
238.500	205.054	80.011	19.992	103.939	19.752	19.566	0.514
240.000	205.818	80.011	19.992	103.940	19.750	19.694	0.521
241.500	206.530	80.011	19.994	103.939	19.750	19.694	0.479
243.000	207.285	80.011	19.993	103.944	19.743	20.179	0.519
244.500	208.053	80.009	19.993	103.951	19.739	20.421	0.515
246.001	208.771	80.010	19.993	103.942	19.734	20.772	0.473
247.500	209.494	80.010	19.994	103.939	19.728	21.214	0.492
249.000	210.264	80.011	19.994	103.939	19.724	21.498	0.527
250.500	210.983	80.010	19.994	103.947	19.719	21.839	0.466
252.000	211.741	80.011	19.994	103.939	19.715	22.080	0.485
253.500	212.458	80.010	19.995	103.935	19.711	22.381	0.470
255.000	213.175	80.011	19.994	103.948	19.706	22.756	0.474
256.500	213.985	80.011	19.993	103.941	19.704	22.875	0.541
258.000	214.681	80.013	19.994	103.943	19.701	23.097	0.466
259.500	215.422	80.012	19.994	103.941	19.698	23.296	0.516
261.000	216.120	80.014	19.991	103.936	19.693	23.644	0.477
262.500	216.872	80.013	19.993	103.936	19.689	23.891	0.486
264.000	217.637	80.013	19.993	103.940	19.685	24.213	0.514
265.501	218.375	80.011	19.993	103.937	19.683	24.340	0.495
267.000	219.105	80.011	19.992	103.935	19.674	24.931	0.485
268.500	219.810	80.010	19.993	103.935	19.670	25.216	0.478
270.000	220.574	80.011	19.992	103.942	19.667	25.416	0.526
271.500	221.319	80.010	19.993	103.941	19.659	25.971	0.494
273.000	222.063	80.010	19.992	103.942	19.654	26.375	0.496
274.500	222.796	80.011	19.992	103.942	19.647	26.807	0.468
276.000	223.512	80.011	19.993	103.941	19.643	27.140	0.472
277.500	224.304	80.011	19.993	103.941	19.641	27.262	0.525
279.000	225.063	80.010	19.993	103.941	19.630	27.983	0.512
280.500	225.816	80.010	19.993	103.937	19.621	28.624	0.493
282.000	226.504	80.010	19.993	103.939	19.618	28.851	0.462
283.500	227.301	80.009	19.993	103.939	19.613	29.192	0.526
285.000	228.051	80.010	19.992	103.944	19.606	29.710	0.493
286.500	228.821	80.009	19.993	103.951	19.597	30.317	0.507
288.000	229.543	80.010	19.993	103.938	19.592	30.660	0.488
289.500	230.259	80.009	19.993	103.938	19.586	31.063	0.492
291.000	231.063	80.009	19.993	103.941	19.579	31.557	0.512
292.500	231.786	80.009	19.993	103.941	19.570	32.151	0.475
294.000	232.486	80.009	19.990	103.946	19.565	32.498	0.465
295.500	233.256	80.012	19.993	103.949	19.554	33.281	0.516
297.000	234.035	80.010	19.992	103.958	19.546	33.819	0.525
298.500	234.770	80.010	19.993	103.957	19.538	34.441	0.507
300.000	235.526	80.009	19.991	103.942	19.526	35.256	0.528
301.500	236.240	80.010	19.993	103.944	19.515	35.981	0.501
303.000	237.043	80.009	19.993	103.948	19.505	36.682	0.525
304.500	237.800	80.009	19.993	103.955	19.490	37.747	0.505
306.000	238.558	80.008	19.993	103.962	19.480	38.415	0.499
307.500	239.349	80.009	19.993	103.970	19.467	39.329	0.545
309.000	240.024	80.011	19.993	103.976	19.456	40.105	0.480
310.500	240.799	80.010	19.993	103.969	19.445	40.877	0.500
312.000	241.507	80.010	19.993	103.968	19.434	41.613	0.480
313.500	242.269	80.012	19.995	103.970	19.418	42.741	0.536
315.000	243.029	80.011	19.996	103.979	19.403	43.791	0.509
316.500	243.774	80.012	19.994	103.985	19.388	44.852	0.500
318.000	244.485	80.011	19.995	103.989	19.376	45.639	0.484
319.500	245.250	80.013	19.994	103.976	19.365	46.405	0.506
321.000	245.960	80.012	19.993	103.973	19.353	47.249	0.495
322.500	246.695	80.013	19.993	103.972	19.340	48.179	0.499
324.000	247.461	80.011	19.994	103.978	19.328	49.035	0.511
325.500	248.208	80.011	19.993	103.988	19.318	49.736	0.520
327.000	248.971	80.010	19.993	103.988	19.304	50.656	0.509
328.500	249.807	80.012	19.993	103.988	19.296	51.232	0.542
330.000	250.540	80.011	19.992	103.993	19.286	51.926	0.510
331.500	251.294	80.010	19.994	103.999	19.276	52.641	0.504
333.000	252.086	80.012	19.993	103.996	19.266	53.315	0.520
334.500	252.829	80.010	19.993	104.006	19.255	54.105	0.508
336.000	253.583	80.012	19.992	104.010	19.244	54.861	0.485
337.500	254.329	80.012	19.993	104.006	19.231	55.727	0.502
339.000	255.076	80.012	19.993	104.008	19.219	56.582	0.508
340.500	255.828	80.012	19.994	104.011	19.207	57.420	0.493
342.000	256.586	80.014	19.994	104.011	19.193	58.424	0.506
343.500	257.329	80.013	19.993	104.020	19.181	59.204	0.487
345.000	258.121	80.013	19.993	104.015	19.165	60.337	0.501
346.500	258.837	80.013	19.993	104.015	19.148	61.523	0.479
348.000	259.565	80.011	19.994	104.014	19.132	62.634	0.495
349.500	260.345	80.012	19.994	104.014	19.120	63.439	0.536
351.000	261.100	80.010	19.993	104.014	19.112	64.043	0.498
352.500	261.809	80.010	19.993	104.012	19.081	66.176	0.474
354.000	262.561	80.011	19.992	104.013	19.074	66.698	0.491
355.500	263.311	80.011	19.992	104.016	19.054	68.034	0.515
357.000	264.070	80.010	19.992	104.015	19.039	69.116	0.490
358.500	264.849	80.011	19.992	104.015	19.028	69.883	0.527
360.000	265.563	80.009	19.992	104.016	19.018	70.552	0.499
361.500	266.351	80.010	19.994	104.017	19.006	71.376	0.510
363.000	267.081	80.009	19.993	104.013	18.998	71.921	0.485
364.500	267.782	80.010	19.993	104.015	18.985	72.825	0.487
366.000	268.562	80.010	19.993	104.015	18.982	73.080	0.517
367.500	269.330	80.010	19.994	104.015	18.973	73.696	0.546
369.000	270.321	80.009	19.993	104.016	18.965	74.256	0.601
370.500	270.954	80.009	19.992	104.016	18.960	74.583	0.440
372.000	271.711	80.010	19.993	104.013	18.951	75.190	0.516
373.500	272.474	80.011	19.992	104.013	18.949	75.335	0.540
375.000	273.211	80.012	19.994	104.017	18.950	75.307	0.498
376.500	274.000	80.011	19.992	104.019	18.946	75.568	0.504
378.000	274.690	80.009	19.993	104.016	18.941	75.890	0.450
379.500	275.417	80.011	19.993	104.011	18.945	75.643	0.482
381.000	276.254	80.009	19.992	104.011	18.948	75.457	0.523
382.500	276.902	80.010	19.993	104.018	18.944	75.691	0.404
384.000	277.671	80.009	19.993	104.022	18.947	75.505	0.499
385.500	278.448	80.011	19.993	104.017	18.947	75.495	0.551
387.000	279.155	80.009	19.993	104.015	18.949	75.385	0.493
388.500	279.905	80.011	19.993	104.014	18.948	75.459	0.487
390.000	280.606	80.010	19.992	104.014	18.954	74.989	0.488
391.500	281.371	80.013	19.993	104.016	18.954	75.029	0.500
393.000	282.116	80.010	19.992	104.015	18.956	74.858	0.507
394.500	282.877	80.012	19.993	104.018	18.960	74.570	0.575
396.000	283.680	80.013	19.993	104.020	18.964	74.262	0.509
397.500	284.357	80.013	19.992	104.016	18.968	74.014	0.508
399.000	285.149	80.013	19.993	104.018	18.976	73.457	0.527
400.500	285.848	80.013	19.992	104.018	18.983	73.021	0.487
402.000	286.593	80.011	19.993	104.013	18.996	72.143	0.486
403.500	287.340	80.012	19.992	104.002	19.013	70.922	0.494
405.000	288.075	80.012	19.993	103.978	19.033	69.505	0.465
406.500	288.838	80.012	19.993	103.974	19.050	68.300	0.512
408.000	289.532	80.013	19.993	103.981	19.059	67.629	0.475
409.500	290.342	80.011	19.991	104.014	19.057	67.771	0.535
411.000	291.038	80.012	19.994	104.068	19.048	68.384	0.487
412.500	291.792	80.010	19.993	104.094	19.040	68.959	0.523
414.000	292.544	80.012	19.994	104.069	19.039	69.018	0.505
415.500	293.274	80.012	19.994	104.026	19.041	68.908	0.499
417.000	294.028	80.012	19.992	103.974	19.050	68.308	0.482
418.500	294.723	80.011	19.993	103.943	19.069	66.987	0.464
420.000	295.487	80.010	19.993	103.936	19.087	65.732	0.510
421.500	296.236	80.013	19.992	103.887	19.113	63.938	0.482
423.000	296.980	80.012	19.994	103.869	19.142	61.910	0.493
424.500	297.698	80.013	19.992	103.922	19.177	59.430	0.470
426.000	298.395	80.013	19.993	103.933	19.215	56.865	0.477
427.500	299.189	80.013	19.993	103.931	19.252	54.291	0.522
429.000	299.866	80.012	19.992	103.932	19.292	51.502	0.486
430.500	300.606	80.012	19.992	103.936	19.330	48.833	0.474
432.000	301.369	80.011	19.992	103.936	19.366	46.355	0.515
433.500	302.087	80.011	19.993	103.937	19.402	43.812	0.477
435.000	302.858	80.009	19.994	103.937	19.435	41.576	0.507
436.500	303.583	80.009	19.994	103.937	19.467	39.297	0.483
438.000	304.318	80.011	19.994	104.002	19.500	37.016	0.499
439.500	305.058	80.011	19.994	103.969	19.537	34.423	0.504
441.000	305.829	80.009	19.993	103.935	19.566	32.456	0.513
442.500	306.599	80.009	19.993	103.933	19.593	30.587	0.511
444.000	307.373	80.009	19.994	103.931	19.620	28.691	0.509
445.500	308.101	80.010	19.993	103.935	19.643	27.068	0.503
447.000	308.870	80.010	19.993	103.930	19.668	25.383	0.502
448.500	309.652	80.011	19.993	103.917	19.689	23.903	0.512
450.000	310.350	80.009	19.993	103.912	19.711	22.374	0.466
451.500	311.146	80.010	19.993	103.917	19.728	21.216	0.542
453.000	311.908	80.010	19.992	103.921	19.746	19.966	0.494
454.500	312.704	80.010	19.993	103.914	19.765	18.614	0.510
456.000	313.430	80.010	19.994	103.907	19.774	18.029	0.509
457.500	314.162	80.010	19.992	103.909	19.788	17.060	0.489
459.000	314.949	80.012	19.992	103.901	19.801	16.098	0.492
460.500	315.742	80.011	19.993	103.897	19.811	15.460	0.517
462.000	316.515	80.010	19.993	103.898	19.820	14.833	0.535
463.500	317.212	80.011	19.992	103.900	19.828	14.272	0.457
465.000	317.990	80.010	19.993	103.899	19.835	13.777	0.512
466.500	318.758	80.011	19.992	103.905	19.842	13.298	0.514
468.000	319.535	80.010	19.993	103.904	19.847	12.964	0.514
469.500	320.288	80.012	19.992	103.897	19.855	12.356	0.499
471.000	321.098	80.010	19.993	103.897	19.859	12.076	0.539
472.500	321.833	80.009	19.992	103.898	19.865	11.675	0.490
474.000	322.544	80.011	19.993	103.898	19.870	11.365	0.477
475.500	323.348	80.010	19.994	103.898	19.877	10.836	0.529
477.000	324.085	80.011	19.993	103.898	19.876	10.952	0.496
478.500	324.790	80.011	19.992	103.896	19.880	10.613	0.483
480.000	325.540	80.012	19.991	103.897	19.885	10.292	0.518
481.500	326.357	80.012	19.992	103.897	19.886	10.231	0.532
483.000	327.069	80.015	19.993	103.897	19.892	9.826	0.490
484.500	327.823	80.011	19.992	103.897	19.891	9.911	0.476
486.000	328.637	80.012	19.992	103.898	19.895	9.629	0.541
487.500	329.363	80.012	19.992	103.898	19.899	9.338	0.473
489.000	330.137	80.010	19.992	103.898	19.897	9.464	0.507
490.500	330.889	80.011	19.992	103.899	19.897	9.451	0.511
492.000	331.696	80.010	19.992	103.895	19.899	9.304	0.514
493.500	332.411	80.013	19.992	103.898	19.901	9.164	0.478
495.000	333.144	80.011	19.992	103.898	19.906	8.862	0.486
496.500	333.878	80.010	19.992	103.898	19.902	9.138	0.499
498.000	334.671	80.012	19.992	103.898	19.905	8.920	0.509
499.500	335.407	80.010	19.993	103.898	19.902	9.085	0.492
501.000	336.194	80.011	19.993	103.897	19.908	8.679	0.514
502.500	336.965	80.011	19.992	103.897	19.907	8.770	0.527
504.000	337.703	80.011	19.993	103.894	19.906	8.869	0.508
505.500	338.476	80.012	19.992	103.898	19.904	8.964	0.526
507.000	339.185	80.012	19.993	103.899	19.909	8.621	0.495
508.500	339.928	80.013	19.993	103.897	19.909	8.601	0.500
510.000	340.656	80.012	19.993	103.896	19.914	8.317	0.510
511.500	341.440	80.012	19.993	103.893	19.911	8.475	0.509
513.000	342.161	80.016	19.993	103.887	19.912	8.394	0.467
514.500	342.930	80.014	19.992	103.879	19.912	8.435	0.521
516.000	343.644	80.012	19.992	103.886	19.909	8.646	0.490
517.500	344.395	80.011	19.993	103.894	19.912	8.456	0.497
519.000	345.153	80.010	19.992	103.894	19.912	8.437	0.513
520.500	345.936	80.011	19.992	103.895	19.908	8.728	0.505
522.000	346.701	80.009	19.994	103.895	19.910	8.577	0.494
523.500	347.422	80.009	19.993	103.896	19.909	8.609	0.490
525.000	348.166	80.010	19.993	103.895	19.909	8.644	0.505
526.500	348.942	80.009	19.993	103.895	19.910	8.565	0.516
528.000	349.683	80.009	19.994	103.895	19.910	8.531	0.497
529.500	350.415	80.007	19.992	103.896	19.911	8.517	0.489
531.000	351.211	80.010	19.994	103.894	19.915	8.202	0.533
532.500	351.930	80.009	19.994	103.888	19.907	8.783	0.488
534.000	352.695	80.010	19.993	103.885	19.908	8.719	0.501
535.500	353.487	80.010	19.993	103.893	19.907	8.745	0.539
537.000	354.232	80.011	19.993	103.894	19.910	8.576	0.478
538.501	354.946	80.011	19.995	103.892	19.906	8.814	0.481
540.000	355.737	80.011	19.994	103.888	19.907	8.749	0.517
541.500	356.465	80.010	19.994	103.886	19.905	8.878	0.505
543.000	357.250	80.011	19.994	103.894	19.905	8.914	0.538
544.500	358.029	80.010	19.993	103.895	19.904	8.946	0.486
546.001	358.744	80.010	19.992	103.893	19.903	9.025	0.487
547.500	359.483	80.010	19.994	103.893	19.901	9.203	0.496
549.000	360.271	80.010	19.993	103.895	19.898	9.376	0.516
550.500	361.043	80.010	19.993	103.895	19.898	9.404	0.528
552.000	361.797	80.011	19.992	103.899	19.895	9.593	0.515
553.500	362.547	80.009	19.992	103.894	19.894	9.650	0.500
555.000	363.283	80.011	19.992	103.897	19.893	9.753	0.492
556.500	364.029	80.008	19.993	103.898	19.896	9.522	0.494
558.000	364.799	80.010	19.993	103.898	19.890	9.955	0.509
559.500	365.534	80.010	19.993	103.900	19.888	10.071	0.479
561.000	366.302	80.008	19.992	103.892	19.890	9.948	0.507
562.500	367.023	80.009	19.992	103.892	19.889	10.003	0.476
564.000	367.754	80.010	19.992	103.900	19.885	10.310	0.487
565.500	368.547	80.012	19.993	103.898	19.883	10.444	0.539
567.000	369.288	80.011	19.992	103.893	19.884	10.394	0.507
568.500	370.037	80.012	19.992	103.890	19.878	10.782	0.502
570.000	370.841	80.011	19.992	103.853	19.877	10.854	0.514
571.500	371.572	80.010	19.992	103.837	19.877	10.869	0.499
573.000	372.345	80.010	19.992	103.902	19.874	11.070	0.513
574.500	373.034	80.010	19.992	103.929	19.873	11.155	0.452
576.000	373.853	80.012	19.993	103.869	19.872	11.171	0.527
577.500	374.669	80.011	19.992	103.876	19.870	11.327	0.545
579.000	375.388	80.013	19.992	103.896	19.865	11.672	0.480
580.500	376.145	80.011	19.993	103.896	19.863	11.826	0.505
582.001	376.916	80.011	19.993	103.892	19.862	11.879	0.510
583.500	377.666	80.012	19.992	103.892	19.862	11.868	0.487
585.000	378.450	80.012	19.992	103.942	19.862	11.879	0.527
586.500	379.202	80.012	19.992	103.952	19.858	12.172	0.487
588.000	379.977	80.011	19.993	103.897	19.854	12.464	0.508
589.500	380.725	80.014	19.992	103.892	19.855	12.408	0.501
591.000	381.504	80.014	19.992	103.891	19.852	12.590	0.505
592.500	382.274	80.014	19.992	103.900	19.845	13.058	0.525
594.000	383.026	80.015	19.991	103.894	19.841	13.317	0.531
595.500	383.805	80.012	19.992	103.896	19.842	13.300	0.525
597.000	384.554	80.013	19.993	103.897	19.834	13.823	0.486
598.500	385.371	80.014	19.992	103.895	19.831	14.062	0.551
600.000	386.129	80.011	19.993	103.891	19.829	14.199	0.523
601.500	386.910	80.011	19.993	103.893	19.822	14.662	0.547
603.000	387.663	80.011	19.993	103.895	19.821	14.761	0.509
604.500	388.485	80.011	19.994	103.895	19.822	14.681	0.541
606.000	389.192	80.009	19.993	103.897	19.819	14.854	0.472
607.500	390.009	80.009	19.994	103.897	19.812	15.338	0.531
609.000	390.757	80.010	19.994	103.896	19.812	15.390	0.498
610.500	391.549	80.010	19.994	103.896	19.808	15.649	0.543
612.000	392.297	80.010	19.994	103.896	19.803	15.968	0.515
613.500	393.083	80.010	19.994	103.900	19.798	16.357	0.516
615.000	393.869	80.010	19.994	103.917	19.796	16.474	0.541
616.500	394.663	80.009	19.994	103.913	19.789	16.977	0.515
618.000	395.434	80.011	19.994	103.900	19.789	16.962	0.532
619.500	396.223	80.010	19.993	103.899	19.781	17.535	0.524
621.000	397.021	80.010	19.993	103.912	19.783	17.375	0.512
622.501	397.764	80.010	19.995	103.917	19.780	17.618	0.532
624.000	398.534	80.010	19.993	103.913	19.774	18.022	0.498
625.500	399.304	80.009	19.993	103.906	19.772	18.139	0.518
627.000	400.077	80.009	19.993	103.914	19.770	18.257	0.532
628.500	400.842	80.009	19.994	103.908	19.766	18.589	0.509
630.000	401.624	80.009	19.994	103.903	19.761	18.909	0.517
631.500	402.422	80.009	19.994	103.904	19.756	19.262	0.542
633.000	403.185	80.009	19.993	103.914	19.756	19.251	0.502
634.500	403.971	80.007	19.995	103.924	19.751	19.567	0.523
636.000	404.756	80.008	19.994	103.908	19.749	19.714	0.509
637.500	405.517	80.007	19.994	103.905	19.748	19.838	0.519
639.000	406.289	80.010	19.995	103.911	19.741	20.289	0.528
640.500	407.050	80.009	19.995	103.908	19.736	20.640	0.533
642.000	407.852	80.009	19.994	103.910	19.732	20.923	0.527
643.500	408.579	80.010	19.993	103.920	19.730	21.061	0.488
645.000	409.353	80.010	19.994	103.910	19.726	21.333	0.533
646.500	410.125	80.011	19.993	103.910	19.723	21.565	0.516
648.000	410.899	80.011	19.993	103.918	19.723	21.572	0.513
649.500	411.679	80.013	19.993	103.903	19.722	21.647	0.513
651.000	412.399	80.013	19.992	103.899	19.717	21.929	0.481
652.500	413.191	80.013	19.993	103.898	19.714	22.177	0.527
654.000	413.959	80.012	19.993	103.899	19.711	22.346	0.514
655.500	414.677	80.011	19.993	103.902	19.710	22.424	0.487
657.000	415.415	80.012	19.994	103.898	19.705	22.774	0.511
658.500	416.161	80.010	19.992	103.904	19.703	22.950	0.486
660.000	416.933	80.012	19.993	103.907	19.699	23.208	0.483
661.500	417.710	80.010	19.994	103.901	19.699	23.183	0.523
663.000	418.453	80.011	19.993	103.900	19.695	23.459	0.500
664.500	419.226	80.012	19.993	103.917	19.695	23.524	0.489
666.000	419.985	80.011	19.994	103.910	19.694	23.542	0.502
667.500	420.748	80.011	19.994	103.899	19.694	23.577	0.501
669.001	421.531	80.011	19.992	103.899	19.692	23.708	0.522
670.500	422.278	80.012	19.993	103.899	19.689	23.924	0.481
672.000	423.048	80.012	19.994	103.900	19.683	24.334	0.520
673.500	423.802	80.012	19.993	103.905	19.688	23.962	0.483
675.000	424.530	80.014	19.994	103.916	19.679	24.577	0.471
676.500	425.383	80.013	19.991	103.912	19.677	24.756	0.491
678.000	426.006	80.013	19.993	103.908	19.674	24.910	0.431
679.500	426.854	80.012	19.992	103.902	19.673	25.037	0.486
681.000	427.616	80.013	19.994	103.905	19.665	25.544	0.490
682.500	428.492	80.011	19.992	103.905	19.664	25.612	0.594
684.000	429.137	80.011	19.992	103.899	19.663	25.696	0.379
685.500	429.894	80.011	19.993	103.898	19.658	26.079	0.493
687.000	430.944	80.010	19.993	103.899	19.659	26.010	0.749
688.500	431.502	80.010	19.995	103.900	19.655	26.286	0.360
690.000	432.226	80.009	19.992	103.901	19.654	26.306	0.236
691.500	432.957	80.010	19.992	103.900	19.652	26.497	0.388
693.000	433.669	80.010	19.993	103.900	19.646	26.871	0.452
694.500	434.495	80.010	19.993	103.899	19.644	26.993	0.545
696.000	435.238	80.009	19.993	103.898	19.641	27.252	0.532
697.500	436.042	80.010	19.992	103.899	19.647	26.851	0.533
699.000	436.824	80.011	19.993	103.895	19.642	27.183	0.536
700.500	437.532	80.010	19.994	103.898	19.636	27.591	0.520
702.000	438.310	80.011	19.994	103.899	19.634	27.700	0.505
703.500	439.131	80.009	19.994	103.900	19.638	27.472	0.535
705.000	439.891	80.011	19.993	103.899	19.634	27.721	0.527
706.500	440.671	80.010	19.994	103.899	19.632	27.890	0.504
708.000	441.458	80.009	19.992	103.896	19.632	27.882	0.502
709.500	442.199	80.011	19.993	103.895	19.633	27.817	0.496
711.000	442.968	80.010	19.993	103.894	19.632	27.872	0.543
712.500	443.762	80.011	19.993	103.892	19.629	28.082	0.513
714.000	444.504	80.010	19.994	103.895	19.626	28.238	0.512
715.500	445.273	80.010	19.993	103.893	19.631	27.891	0.516
717.000	446.097	80.011	19.993	103.893	19.628	28.097	0.547
718.500	446.823	80.009	19.993	103.891	19.628	28.137	0.493
720.000	447.564	80.011	19.994	103.890	19.627	28.172	0.528
721.500	448.394	80.010	19.994	103.895	19.630	27.956	0.529
723.000	449.162	80.010	19.995	103.896	19.627	28.207	0.520
724.500	449.936	80.010	19.994	103.888	19.628	28.125	0.502
726.000	450.739	80.009	19.994	103.878	19.627	28.171	0.552
727.500	451.467	80.012	19.994	103.876	19.629	28.049	0.481
729.000	452.258	80.012	19.994	103.883	19.633	27.781	0.507
730.500	453.042	80.012	19.994	103.877	19.628	28.126	0.517
732.000	453.816	80.010	19.994	103.868	19.632	27.869	0.511
733.500	454.581	80.012	19.994	103.864	19.630	27.998	0.521
735.000	455.378	80.013	19.994	103.873	19.634	27.691	0.491
736.500	456.104	80.012	19.993	103.876	19.638	27.430	0.508
738.000	456.887	80.012	19.995	103.875	19.634	27.733	0.501
739.500	457.677	80.010	19.994	103.864	19.635	27.611	0.525
741.000	458.431	80.012	19.993	103.858	19.635	27.622	0.521
742.500	459.229	80.011	19.993	103.861	19.640	27.316	0.532
744.000	459.965	80.012	19.992	103.869	19.645	26.929	0.488
745.500	460.760	80.013	19.992	103.865	19.643	27.109	0.519
747.000	461.481	80.013	19.993	103.864	19.646	26.851	0.468
748.500	462.207	80.012	19.993	103.865	19.650	26.579	0.487
750.000	463.029	80.013	19.991	103.865	19.654	26.349	0.557
751.500	463.797	80.013	19.993	103.870	19.659	26.001	0.506
753.000	464.530	80.013	19.991	103.869	19.658	26.071	0.489
754.500	465.273	80.013	19.991	103.861	19.659	25.968	0.507
756.000	466.024	80.013	19.992	103.863	19.666	25.482	0.510
757.500	466.820	80.012	19.992	103.861	19.669	25.276	0.511
759.000	467.595	80.012	19.993	103.861	19.671	25.164	0.551
760.500	468.273	80.014	19.991	103.863	19.675	24.877	0.475
762.000	469.065	80.013	19.992	103.866	19.677	24.725	0.521
763.500	469.831	80.013	19.993	103.863	19.684	24.258	0.517
765.000	470.585	80.014	19.993	103.861	19.688	23.962	0.507
766.500	471.341	80.012	19.991	103.861	19.688	23.940	0.505
768.000	472.063	80.010	19.992	103.870	19.692	23.694	0.488
769.500	472.850	80.011	19.991	103.869	19.697	23.331	0.511
771.000	473.641	80.010	19.992	103.864	19.700	23.155	0.528
772.500	474.403	80.011	19.992	103.863	19.707	22.667	0.503
774.000	475.148	80.012	19.993	103.863	19.712	22.312	0.505
775.500	475.937	80.012	19.992	103.869	19.718	21.887	0.521
777.000	476.690	80.013	19.992	103.865	19.723	21.546	0.510
778.500	477.413	80.012	19.993	103.862	19.727	21.289	0.484
780.000	478.193	80.012	19.992	103.863	19.732	20.898	0.520
781.500	478.975	80.011	19.992	103.862	19.737	20.581	0.543
783.000	479.714	80.012	19.991	103.856	19.742	20.220	0.485
784.500	480.442	80.010	19.993	103.861	19.745	20.002	0.488
786.000	481.264	80.011	19.992	103.862	19.747	19.885	0.533
787.500	482.015	80.012	19.991	103.859	19.756	19.210	0.515
789.000	482.754	80.012	19.993	103.863	19.761	18.921	0.489
790.500	483.559	80.012	19.993	103.861	19.767	18.470	0.541
792.000	484.288	80.010	19.994	103.857	19.772	18.144	0.484
793.500	485.072	80.010	19.995	103.858	19.775	17.927	0.517
795.000	485.860	80.011	19.995	103.862	19.784	17.315	0.511
796.500	486.585	80.010	19.995	103.859	19.787	17.098	0.485
798.000	487.368	80.010	19.993	103.861	19.793	16.673	0.494
799.500	488.082	80.010	19.994	103.860	19.797	16.370	0.504
801.000	488.876	80.008	19.993	103.856	19.800	16.216	0.520
802.500	489.636	80.011	19.994	103.857	19.805	15.842	0.497
804.000	490.394	80.011	19.994	103.856	19.810	15.522	0.509
805.500	491.182	80.011	19.993	103.859	19.812	15.363	0.546
807.000	491.913	80.011	19.993	103.858	19.817	15.010	0.505
808.500	492.714	80.011	19.993	103.857	19.822	14.685	0.520
810.000	493.496	80.011	19.993	103.859	19.823	14.599	0.516
811.500	494.283	80.011	19.994	103.860	19.828	14.222	0.547
813.000	495.067	80.012	19.993	103.858	19.834	13.834	0.518
814.500	495.871	80.012	19.993	103.858	19.837	13.640	0.523
816.000	496.582	80.011	19.992	103.861	19.840	13.447	0.506
817.500	497.333	80.011	19.993	103.863	19.843	13.206	0.488
819.000	498.141	80.012	19.992	103.860	19.846	13.022	0.512
820.500	498.907	80.011	19.992	103.859	19.844	13.106	0.527
822.000	499.642	80.011	19.993	103.860	19.849	12.759	0.482
823.500	500.406	80.011	19.993	103.862	19.850	12.708	0.494
825.000	501.174	80.011	19.993	103.860	19.854	12.440	0.502
826.500	501.919	80.010	19.994	103.859	19.857	12.224	0.497
828.000	502.744	80.011	19.993	103.865	19.861	11.986	0.547
829.500	503.496	80.011	19.993	103.868	19.860	12.027	0.531
831.000	504.227	80.010	19.994	103.860	19.863	11.792	0.502
832.500	504.954	80.011	19.993	103.860	19.868	11.482	0.490
834.000	505.773	80.013	19.993	103.861	19.869	11.427	0.517
835.500	506.547	80.012	19.993	103.863	19.870	11.327	0.513
837.000	507.308	80.015	19.992	103.860	19.876	10.942	0.508
838.500	508.019	80.013	19.992	103.862	19.877	10.832	0.480
840.000	508.839	80.013	19.991	103.863	19.876	10.890	0.541
841.500	509.564	80.013	19.991	103.858	19.876	10.905	0.475
843.000	510.357	80.014	19.993	103.860	19.880	10.668	0.522
844.500	511.055	80.013	19.992	103.862	19.882	10.501	0.468
846.000	511.867	80.013	19.991	103.855	19.880	10.611	0.527
847.500	512.630	80.013	19.993	103.855	19.884	10.365	0.502
849.000	513.386	80.012	19.993	103.857	19.885	10.293	0.503
850.500	514.172	80.010	19.992	103.859	19.883	10.457	0.554
852.000	514.962	80.011	19.993	103.862	19.888	10.074	0.544
853.500	515.719	80.010	19.992	103.856	19.887	10.153	0.497
855.000	516.489	80.011	19.994	103.863	19.889	10.008	0.499
856.500	517.259	80.011	19.993	103.865	19.890	9.946	0.522
858.000	518.016	80.011	19.993	103.858	19.891	9.875	0.518
859.500	518.795	80.010	19.993	103.857	19.896	9.541	0.524
861.000	519.603	80.012	19.993	103.859	19.895	9.601	0.548
862.500	520.326	80.011	19.992	103.858	19.895	9.583	0.497
864.000	521.076	80.012	19.993	103.857	19.900	9.238	0.511
865.500	521.856	80.012	19.992	103.856	19.900	9.239	0.530
867.001	522.610	80.010	19.993	103.858	19.901	9.183	0.517
868.500	523.369	80.011	19.992	103.858	19.899	9.352	0.521
870.000	524.122	80.011	19.993	103.858	19.899	9.323	0.500
871.500	524.953	80.011	19.993	103.858	19.904	8.992	0.558
873.000	525.729	80.012	19.992	103.860	19.905	8.883	0.502
874.500	526.455	80.010	19.992	103.863	19.907	8.755	0.475
876.000	527.235	80.011	19.992	103.857	19.905	8.886	0.518
877.500	528.002	80.011	19.992	103.857	19.910	8.544	0.515
879.000	528.754	80.010	19.992	103.859	19.907	8.765	0.511
880.500	529.579	80.010	19.992	103.861	19.906	8.829	0.531
882.000	530.297	80.009	19.992	103.869	19.907	8.757	0.490
883.500	531.067	80.010	19.992	103.863	19.908	8.689	0.512
885.000	531.884	80.009	19.992	103.862	19.910	8.569	0.504
886.500	532.631	80.011	19.993	103.866	19.911	8.517	0.501
888.000	533.421	80.010	19.993	103.877	19.913	8.358	0.519
889.500	534.216	80.011	19.993	103.867	19.910	8.585	0.517
891.000	534.991	80.012	19.993	103.861	19.909	8.617	0.534
892.501	535.809	80.011	19.994	103.861	19.911	8.476	0.530
894.000	536.604	80.010	19.993	103.866	19.909	8.613	0.519
895.500	537.334	80.011	19.993	103.874	19.912	8.434	0.491
897.000	538.083	80.011	19.993	103.864	19.909	8.618	0.502
898.500	538.870	80.011	19.992	103.861	19.908	8.683	0.538
900.000	539.676	80.013	19.992	103.861	19.911	8.512	0.547
901.500	540.487	80.011	19.992	103.861	19.910	8.552	0.528
903.000	541.214	80.012	19.992	103.861	19.910	8.528	0.486
904.500	541.966	80.011	19.994	103.864	19.908	8.681	0.476
906.000	542.772	80.010	19.992	103.861	19.911	8.503	0.529
907.500	543.586	80.012	19.992	103.858	19.909	8.657	0.518
909.000	544.327	80.011	19.992	103.867	19.910	8.524	0.493
910.500	545.122	80.012	19.992	103.868	19.908	8.710	0.496
912.000	545.896	80.010	19.993	103.856	19.905	8.873	0.533
913.500	546.622	80.011	19.993	103.856	19.904	8.969	0.481
915.000	547.427	80.012	19.994	103.869	19.904	8.963	0.511
916.500	548.203	80.012	19.993	103.873	19.904	8.995	0.511
918.000	549.009	80.013	19.994	103.857	19.903	9.054	0.543
919.500	549.759	80.012	19.993	103.855	19.904	8.980	0.515
921.000	550.544	80.013	19.994	103.862	19.902	9.083	0.501
922.500	551.313	80.012	19.994	103.857	19.906	8.832	0.530
924.000	552.043	80.014	19.994	103.855	19.903	9.052	0.503
925.500	552.795	80.013	19.993	103.855	19.904	8.982	0.492
927.000	553.585	80.013	19.993	103.856	19.903	9.027	0.542
928.501	554.330	80.013	19.995	103.860	19.900	9.252	0.479
930.000	555.157	80.012	19.993	103.861	19.902	9.145	0.563
931.500	555.834	80.011	19.992	103.855	19.901	9.199	0.472
933.000	556.589	80.011	19.993	103.855	19.898	9.405	0.481
934.500	557.327	80.012	19.993	103.861	19.897	9.427	0.493
936.000	558.125	80.012	19.993	103.862	19.897	9.449	0.531
937.500	558.869	80.011	19.992	103.859	19.897	9.428	0.475
939.000	559.645	80.012	19.993	103.860	19.896	9.499	0.509
940.500	560.369	80.011	19.993	103.859	19.891	9.846	0.512
942.000	561.125	80.012	19.992	103.864	19.894	9.637	0.497
943.500	561.875	80.011	19.992	103.872	19.890	9.915	0.488
945.000	562.632	80.010	19.992	103.865	19.894	9.687	0.513
946.500	563.391	80.010	19.993	103.868	19.891	9.863	0.499
948.000	564.106	80.010	19.994	103.873	19.889	10.037	0.483
949.500	564.862	80.011	19.993	103.866	19.889	10.022	0.509
951.000	565.637	80.011	19.993	103.866	19.889	10.050	0.516
952.500	566.407	80.011	19.993	103.859	19.890	9.962	0.504
954.000	567.141	80.011	19.993	103.860	19.890	9.922	0.511
955.500	567.918	80.011	19.993	103.866	19.889	9.984	0.504
957.000	568.666	80.012	19.993	103.875	19.886	10.217	0.486
958.500	569.439	80.012	19.992	103.864	19.885	10.266	0.519
960.000	570.207	80.010	19.993	103.859	19.884	10.339	0.508
961.500	570.967	80.010	19.992	103.865	19.883	10.410	0.513
963.000	571.750	80.010	19.993	103.866	19.883	10.446	0.510
964.500	572.511	80.009	19.993	103.859	19.879	10.709	0.517
966.000	573.298	80.010	19.992	103.861	19.880	10.628	0.537
967.500	574.092	80.010	19.991	103.862	19.880	10.642	0.530
969.000	574.930	80.011	19.992	103.862	19.880	10.631	0.552
970.500	575.692	80.011	19.993	103.860	19.879	10.740	0.515
972.000	576.414	80.012	19.992	103.860	19.880	10.670	0.495
973.500	577.239	80.011	19.994	103.862	19.879	10.683	0.563
975.000	577.960	80.011	19.993	103.872	19.881	10.605	0.493
976.500	578.761	80.011	19.994	103.867	19.880	10.636	0.529
978.000	579.506	80.012	19.992	103.858	19.882	10.496	0.481
979.500	580.265	80.013	19.993	103.857	19.882	10.509	0.503
981.000	581.034	80.013	19.992	103.857	19.884	10.336	0.506
982.500	581.823	80.012	19.992	103.857	19.886	10.209	0.536
984.000	582.556	80.013	19.992	103.856	19.883	10.438	0.494
985.500	583.361	80.014	19.993	103.856	19.881	10.537	0.516
987.000	584.123	80.012	19.994	103.856	19.885	10.316	0.507
988.500	584.870	80.012	19.993	103.856	19.885	10.298	0.494
990.000	585.688	80.012	19.994	103.857	19.888	10.108	0.540
991.500	586.447	80.011	19.994	103.855	19.886	10.241	0.506
993.000	587.207	80.011	19.994	103.855	19.891	9.892	0.509
994.500	588.003	80.011	19.994	103.858	19.892	9.789	0.536
996.000	588.738	80.011	19.993	103.858	19.891	9.901	0.491
997.500	589.562	80.012	19.993	103.857	19.894	9.640	0.536
999.000	590.347	80.012	19.993	103.863	19.896	9.547	0.523
1000.500	591.139	80.013	19.993	103.862	19.896	9.523	0.530
1002.000	591.958	80.012	19.993	103.856	19.899	9.288	0.539
1003.500	592.715	80.013	19.993	103.859	19.901	9.202	0.506
1005.000	593.546	80.014	19.993	103.858	19.901	9.151	0.553
1006.500	594.354	80.013	19.993	103.859	19.901	9.175	0.559
1008.000	595.184	80.014	19.992	103.858	19.899	9.353	0.557
1009.500	595.977	80.013	19.993	103.857	19.904	8.976	0.536
1011.000	596.772	80.012	19.992	103.864	19.905	8.877	0.527
1012.500	597.590	80.012	19.993	103.864	19.904	8.989	0.532
1014.000	598.344	80.011	19.993	103.858	19.909	8.659	0.505
1015.500	599.169	80.011	19.993	103.859	19.911	8.459	0.525
1017.000	599.940	80.011	19.994	103.876	19.914	8.247	0.506
1018.500	600.783	80.010	19.993	103.958	19.913	8.317	0.543
1020.000	601.527	80.010	19.994	103.968	19.916	8.118	0.510
1021.500	602.326	80.011	19.994	103.866	19.917	8.095	0.540
1023.000	603.099	80.010	19.994	103.852	19.915	8.237	0.507
1024.500	603.880	80.010	19.994	103.853	19.913	8.355	0.522
1026.001	604.618	80.010	19.993	103.848	19.913	8.337	0.489
1027.500	605.412	80.011	19.993	103.838	19.915	8.218	0.552
1029.000	606.193	80.010	19.994	103.836	19.914	8.289	0.526
1030.501	606.962	80.010	19.994	103.843	19.915	8.189	0.519
1032.000	607.708	80.011	19.993	103.838	19.917	8.039	0.497
1033.501	608.496	80.010	19.993	103.845	19.918	8.026	0.510
1035.001	609.247	80.012	19.993	103.855	19.921	7.794	0.519
1036.500	609.999	80.011	19.992	103.843	19.918	8.022	0.519
1038.000	610.785	80.012	19.993	103.843	19.920	7.828	0.503
1039.500	611.587	80.012	19.993	103.842	19.924	7.568	0.543
1041.000	612.293	80.012	19.991	103.839	19.919	7.942	0.492
1042.500	613.066	80.011	19.993	103.835	19.919	7.947	0.543
1044.000	613.862	80.011	19.992	103.841	19.923	7.642	0.524
1045.501	614.652	80.011	19.994	103.846	19.923	7.672	0.531
1047.001	615.440	80.012	19.993	103.839	19.926	7.436	0.522
1048.500	616.197	80.010	19.992	103.832	19.924	7.616	0.511
1050.001	617.005	80.011	19.993	103.800	19.920	7.873	0.539
1051.501	617.761	80.010	19.994	103.768	19.921	7.777	0.515
1053.000	618.549	80.010	19.993	103.810	19.918	7.997	0.534
1054.500	619.273	80.010	19.994	103.826	19.922	7.731	0.495
1056.000	620.050	80.011	19.994	103.826	19.921	7.821	0.515
1057.501	620.827	80.011	19.992	103.829	19.924	7.595	0.516
1059.000	621.621	80.012	19.993	103.831	19.923	7.682	0.524
1060.500	622.372	80.013	19.993	103.831	19.923	7.685	0.495
1062.001	623.163	80.013	19.992	103.827	19.923	7.679	0.538
1063.500	623.930	80.013	19.992	103.834	19.922	7.729	0.511
1065.000	624.684	80.014	19.992	103.838	19.923	7.631	0.494
1066.500	625.368	80.012	19.992	103.838	19.923	7.632	0.455
1068.000	626.155	80.013	19.993	103.827	19.920	7.828	0.518
1069.501	626.900	80.012	19.992	103.829	19.924	7.584	0.494
1071.000	627.635	80.012	19.992	103.828	19.925	7.541	0.480
1072.500	628.449	80.012	19.993	103.835	19.926	7.441	0.544
1074.000	629.192	80.012	19.993	103.841	19.930	7.179	0.496
1075.500	629.938	80.012	19.992	103.829	19.921	7.760	0.493
1077.000	630.733	80.013	19.992	103.821	19.926	7.473	0.529
1078.500	631.503	80.012	19.993	103.821	19.920	7.841	0.527
1080.000	632.259	80.011	19.993	103.823	19.924	7.611	0.491
1081.500	633.040	80.011	19.992	103.821	19.922	7.712	0.529
1083.000	633.860	80.013	19.993	103.820	19.920	7.878	0.534
1084.501	634.656	80.014	19.994	103.821	19.921	7.767	0.536
1086.000	635.462	80.012	19.993	103.821	19.922	7.746	0.524
1087.501	636.204	80.012	19.993	103.824	19.926	7.461	0.495
1089.000	636.962	80.012	19.992	103.825	19.925	7.527	0.520
1090.501	637.750	80.011	19.993	103.830	19.921	7.788	0.537
1092.000	638.527	80.013	19.992	103.837	19.925	7.498	0.491
1093.500	639.330	80.011	19.993	103.845	19.923	7.625	0.535
1095.000	640.031	80.010	19.993	103.845	19.920	7.848	0.491
1096.500	640.815	80.010	19.993	103.832	19.923	7.675	0.539
1098.001	641.608	80.010	19.992	103.831	19.922	7.721	0.502
1099.501	642.368	80.009	19.994	103.834	19.922	7.698	0.514
1101.000	643.147	80.010	19.993	103.840	19.927	7.348	0.530
1102.500	643.928	80.009	19.992	103.847	19.928	7.317	0.518
1104.000	644.706	80.010	19.993	103.849	19.926	7.428	0.505
1105.500	645.512	80.009	19.993	103.844	19.929	7.236	0.535
1107.001	646.274	80.009	19.993	103.837	19.927	7.358	0.504
1108.501	647.044	80.009	19.993	103.830	19.930	7.178	0.519
1110.000	647.814	80.010	19.994	103.835	19.931	7.086	0.524
1111.500	648.562	80.010	19.993	103.836	19.924	7.596	0.504
1113.000	649.348	80.009	19.994	103.818	19.928	7.332	0.510
1114.500	650.143	80.009	19.993	103.814	19.926	7.433	0.533
1116.000	650.912	80.009	19.993	103.806	19.926	7.435	0.528
1117.501	651.662	80.011	19.994	103.806	19.929	7.223	0.508
1119.000	652.423	80.010	19.993	103.813	19.924	7.564	0.507
1120.500	653.215	80.011	19.994	103.816	19.931	7.111	0.535
1122.000	653.936	80.010	19.994	103.807	19.932	7.062	0.486
1123.501	654.696	80.011	19.993	103.812	19.932	7.019	0.504
1125.000	655.465	80.009	19.992	103.811	19.932	7.058	0.502
1126.501	656.220	80.010	19.993	103.813	19.930	7.137	0.504
1128.000	656.964	80.011	19.993	103.808	19.931	7.076	0.512
1129.501	657.714	80.010	19.992	103.806	19.930	7.157	0.503
1131.000	658.456	80.011	19.993	103.814	19.928	7.307	0.502
1132.500	659.282	80.010	19.993	103.817	19.927	7.370	0.591
1134.000	659.927	80.010	19.993	103.800	19.928	7.338	0.492
1135.501	660.698	80.010	19.993	103.783	19.927	7.366	0.506
1137.000	661.470	80.009	19.994	103.783	19.925	7.511	0.498
1138.500	662.206	80.010	19.993	103.780	19.925	7.505	0.497
1140.000	662.934	80.011	19.993	103.780	19.927	7.404	0.514
1141.500	663.697	80.011	19.992	103.793	19.924	7.554	0.491
1143.000	664.430	80.011	19.994	103.813	19.930	7.201	0.469
1144.500	665.145	80.011	19.992	103.820	19.925	7.502	0.481
1146.000	665.884	80.013	19.993	103.820	19.927	7.378	0.497
1147.501	666.617	80.012	19.992	103.821	19.927	7.347	0.485
1149.000	667.379	80.013	19.993	103.821	19.929	7.241	0.525
1150.500	668.131	80.008	19.993	103.822	19.926	7.479	0.483
1152.000	668.887	80.011	19.993	103.822	19.927	7.383	0.507
1153.500	669.608	80.010	19.993	103.820	19.928	7.297	0.508
1155.000	670.323	80.013	19.993	103.826	19.932	7.046	0.479
1156.500	671.054	80.012	19.992	103.827	19.930	7.175	0.508
1158.000	671.842	80.010	19.992	103.822	19.928	7.325	0.498
1159.500	672.552	80.010	19.992	103.822	19.931	7.109	0.483
1161.000	673.311	80.012	19.992	103.821	19.934	6.867	0.500
1162.500	674.085	80.012	19.992	103.823	19.932	7.062	0.505
1164.000	674.859	80.011	19.992	103.824	19.931	7.083	0.515
1165.500	675.606	80.012	19.991	103.830	19.929	7.235	0.511
1167.000	676.401	80.012	19.992	103.830	19.931	7.113	0.519
1168.500	677.168	80.011	19.992	103.823	19.930	7.184	0.499
1170.001	677.919	80.013	19.992	103.822	19.932	7.062	0.509
1171.500	678.713	80.013	19.992	103.820	19.928	7.282	0.522
1173.000	679.454	80.014	19.992	103.818	19.934	6.897	0.474
1174.501	680.233	80.013	19.992	103.817	19.931	7.130	0.497
1176.000	680.977	80.012	19.993	103.817	19.932	7.060	0.497
1177.500	681.746	80.011	19.993	103.817	19.931	7.083	0.497
1179.001	682.679	80.012	19.993	103.816	19.935	6.846	0.566
1180.500	683.292	80.009	19.993	103.818	19.935	6.824	0.559
1182.000	684.074	80.010	19.994	103.820	19.936	6.743	0.537
1183.500	684.857	80.011	19.993	103.819	19.932	7.036	0.517
1185.000	685.638	80.011	19.993	103.819	19.932	7.002	0.515
1186.500	686.363	80.009	19.993	103.819	19.932	7.058	0.477
1188.001	687.182	80.010	19.993	103.819	19.931	7.116	0.533
1189.500	687.925	80.009	19.993	103.818	19.934	6.905	0.489
1191.000	688.699	80.010	19.993	103.817	19.933	6.972	0.529
1192.501	689.471	80.011	19.992	103.817	19.931	7.113	0.518
1194.000	690.239	80.010	19.993	103.818	19.932	7.040	0.521
1195.501	691.003	80.011	19.993	103.814	19.934	6.862	0.497
1197.001	691.739	80.011	19.993	103.813	19.936	6.751	0.486
1198.500	692.503	80.010	19.993	103.817	19.933	6.953	0.518
1200.000	693.301	80.010	19.993	103.818	19.935	6.798	0.533
1201.500	694.020	80.011	19.993	103.818	19.936	6.781	0.474
1203.000	694.797	80.010	19.993	103.817	19.931	7.068	0.529
1204.500	695.604	80.010	19.993	103.818	19.938	6.590	0.531
1206.000	696.365	80.010	19.993	103.820	19.935	6.798	0.510
1207.500	697.142	80.010	19.994	103.821	19.936	6.747	0.517
1209.000	697.887	80.010	19.994	103.819	19.935	6.830	0.485
1210.501	698.703	80.009	19.994	103.819	19.935	6.854	0.550
1212.000	699.425	80.009	19.993	103.819	19.934	6.914	0.515
1213.500	700.233	80.010	19.994	103.819	19.935	6.850	0.530
1215.001	701.035	80.010	19.994	103.821	19.934	6.878	0.514
1216.500	701.816	80.011	19.994	103.821	19.936	6.747	0.544
1218.000	702.596	80.009	19.993	103.821	19.937	6.678	0.521
1219.500	703.422	80.011	19.992	103.821	19.934	6.884	0.535
1221.000	704.159	80.010	19.993	103.821	19.938	6.648	0.491
1222.500	704.902	80.010	19.992	103.821	19.938	6.590	0.504
1224.000	705.665	80.012	19.992	103.821	19.940	6.492	0.498
1225.500	706.441	80.012	19.992	103.817	19.943	6.276	0.521
1227.000	707.238	80.010	19.992	103.818	19.935	6.811	0.536
1228.500	708.026	80.010	19.993	103.821	19.939	6.559	0.538
1230.000	708.778	80.010	19.992	103.820	19.938	6.589	0.491
1231.500	709.550	80.013	19.991	103.820	19.939	6.513	0.514
1233.000	710.299	80.011	19.991	103.820	19.938	6.580	0.500
1234.500	711.060	80.012	19.993	103.819	19.941	6.428	0.518
1236.000	711.830	80.011	19.992	103.818	19.939	6.514	0.509
1237.500	712.603	80.012	19.993	103.815	19.940	6.453	0.526
1239.001	713.405	80.011	19.993	103.811	19.939	6.522	0.531
1240.501	714.114	80.011	19.993	103.802	19.940	6.499	0.470
1242.000	714.874	80.013	19.993	103.810	19.940	6.471	0.507
1243.500	715.653	80.013	19.993	103.815	19.939	6.576	0.489
1245.000	716.431	80.011	19.993	103.814	19.939	6.517	0.536
1246.501	717.165	80.012	19.992	103.813	19.941	6.420	0.483
1248.000	717.934	80.013	19.993	103.815	19.938	6.635	0.493
1249.501	718.694	80.013	19.993	103.815	19.941	6.383	0.510
1251.000	719.433	80.014	19.993	103.816	19.945	6.102	0.496
1252.500	720.197	80.013	19.993	103.806	19.946	6.062	0.516
1254.000	720.938	80.014	19.992	103.808	19.941	6.424	0.517
1255.501	721.653	80.014	19.992	103.805	19.941	6.407	0.488
1257.000	722.418	80.013	19.993	103.807	19.941	6.431	0.517
1258.501	723.108	80.012	19.992	103.801	19.944	6.225	0.467
1260.000	723.867	80.013	19.992	103.806	19.943	6.276	0.497
1261.500	724.611	80.012	19.992	103.810	19.944	6.220	0.472
1263.000	725.364	80.013	19.993	103.814	19.946	6.059	0.500
1264.500	726.094	80.011	19.993	103.807	19.945	6.145	0.513
1266.001	726.874	80.011	19.992	103.806	19.943	6.288	0.512
1267.500	727.595	80.011	19.993	103.807	19.943	6.295	0.501
1269.000	728.347	80.012	19.993	103.808	19.944	6.169	0.505
1270.500	729.067	80.010	19.993	103.813	19.947	6.013	0.490
1272.000	729.836	80.010	19.994	103.815	19.946	6.067	0.535
1273.500	730.589	80.010	19.993	103.811	19.948	5.888	0.494
1275.000	731.326	80.010	19.993	103.817	19.947	6.015	0.470
1276.500	732.068	80.010	19.994	103.818	19.949	5.843	0.496
1278.000	732.865	80.011	19.993	103.814	19.949	5.836	0.512
1279.500	733.594	80.010	19.993	103.805	19.948	5.927	0.493
1281.000	734.363	80.011	19.994	103.800	19.953	5.591	0.511
1282.501	735.069	80.010	19.992	103.787	19.950	5.815	0.466
1284.000	735.832	80.010	19.993	103.797	19.949	5.825	0.517
1285.501	736.585	80.010	19.993	103.814	19.951	5.682	0.478
1287.001	737.342	80.009	19.993	103.809	19.950	5.814	0.515
1288.500	738.142	80.010	19.993	103.811	19.950	5.781	0.513
1290.000	738.847	80.009	19.993	103.812	19.951	5.745	0.464
1291.500	739.660	80.009	19.993	103.808	19.951	5.731	0.514
1293.000	740.416	80.009	19.992	103.815	19.952	5.632	0.515
1294.501	741.227	80.010	19.993	103.804	19.951	5.684	0.529
1296.000	741.961	80.009	19.993	103.791	19.949	5.824	0.512
1297.501	742.735	80.010	19.993	103.789	19.951	5.688	0.499
1299.000	743.495	80.009	19.994	103.804	19.954	5.489	0.488