File: 01_Data/Hemp_Sheets/STA/N2/3K_min/Hemp_Sheet_STA_N2_3KData_22274_R1.csv
##Temp./Â°C,Time/min,Mass loss(subtr.2)/mg,DSC(subtr.2)/(mW/mg),Sensit./(uV/mW)
50.302,10.01667,-0.02479,0.01816016,1.0503
50.902,11.08291,-0.02775724,0.03735657,1.05019
51.502,11.4488,-0.02965538,0.04836893,1.05009
52.102,11.73908,-0.02818127,0.0553049,1.04998
52.702,11.99982,-0.02962297,0.06127747,1.04987
53.302,12.2455,-0.02828619,0.06488726,1.04976
53.902,12.4818,-0.03088357,0.06673467,1.04965
54.502,12.71239,-0.03047025,0.06639517,1.04955
55.102,12.93931,-0.02798818,0.0717833,1.04944
55.702,13.164,-0.03041008,0.07261551,1.04932
56.302,13.38626,-0.03160482,0.07362586,1.04921
56.902,13.6065,-0.03129967,0.07425117,1.0491
57.502,13.82514,-0.03202931,0.07694693,1.04899
58.102,14.0412,-0.0347049,0.07591842,1.04888
58.702,14.2553,-0.03182657,0.07855181,1.04876
59.302,14.46831,-0.02981792,0.08051465,1.04865
59.902,14.6789,-0.03054167,0.0793197,1.04853
60.502,14.8886,-0.03577691,0.08044997,1.04842
61.102,15.0964,-0.03321144,0.08260058,1.0483
61.702,15.3033,-0.03072135,0.0832516,1.04819
62.302,15.5081,-0.03320425,0.08408289,1.04807
62.902,15.7133,-0.0345568,0.08760471,1.04795
63.502,15.9181,-0.03718464,0.08782351,1.04783
64.102,16.1233,-0.03587784,0.08516859,1.04772
64.702,16.32742,-0.03721621,0.08757382,1.0476
65.302,16.53088,-0.03938512,0.08854082,1.04748
65.902,16.73463,-0.03948659,0.08956476,1.04736
66.502,16.93804,-0.03590623,0.08999246,1.04724
67.102,17.14166,-0.03858506,0.08871262,1.04711
67.702,17.3449,-0.03861066,0.09016639,1.04699
68.302,17.5475,-0.04089614,0.09001099,1.04687
68.902,17.74925,-0.0373107,0.0893492,1.04675
69.502,17.94993,-0.03991628,0.09201245,1.04662
70.102,18.1513,-0.04120798,0.09136152,1.0465
70.702,18.3526,-0.04113121,0.09131823,1.04637
71.302,18.55484,-0.04080518,0.09080721,1.04625
71.902,18.75595,-0.04376274,0.09370115,1.04612
72.502,18.95682,-0.04517423,0.09211444,1.046
73.102,19.15839,-0.04252077,0.09132649,1.04587
73.702,19.36094,-0.04522879,0.09257729,1.04574
74.302,19.5622,-0.04377412,0.09294706,1.04561
74.902,19.76435,-0.04379373,0.09208517,1.04548
75.502,19.9648,-0.04508,0.0905874,1.04535
76.102,20.16635,-0.04376765,0.0912279,1.04522
76.702,20.36665,-0.04509,0.090894,1.04509
77.302,20.56612,-0.04411832,0.09291988,1.04496
77.902,20.7672,-0.04639228,0.09518035,1.04483
78.502,20.96904,-0.04905303,0.09246763,1.0447
79.102,21.17074,-0.04771991,0.09275814,1.04456
79.702,21.3708,-0.04764407,0.09179972,1.04443
80.302,21.5704,-0.04894797,0.09124997,1.0443
80.902,21.77008,-0.04291595,0.09046804,1.04416
81.502,21.96966,-0.04464987,0.08939117,1.04403
82.102,22.17,-0.04481359,0.08848759,1.04389
82.702,22.3697,-0.05034039,0.09111857,1.04375
83.302,22.5698,-0.04757979,0.09059594,1.04362
83.902,22.76986,-0.05031625,0.08880131,1.04348
84.502,22.97041,-0.05155979,0.08900613,1.04334
85.102,23.1706,-0.05201391,0.08861217,1.0432
85.702,23.3702,-0.04892226,0.08740289,1.04306
86.302,23.5705,-0.04892001,0.0874726,1.04292
86.902,23.7702,-0.04952825,0.0839955,1.04278
87.502,23.96921,-0.04958134,0.08570587,1.04264
88.102,24.16856,-0.05220879,0.0868179,1.0425
88.702,24.3671,-0.05221547,0.08662619,1.04236
89.302,24.56596,-0.04894079,0.0850042,1.04222
89.902,24.76521,-0.04882592,0.08478987,1.04207
90.502,24.9639,-0.05123019,0.08496375,1.04193
91.102,25.16319,-0.04717433,0.08184255,1.04179
91.702,25.3631,-0.05233908,0.07974683,1.04164
92.302,25.56288,-0.05244718,0.08319172,1.0415
92.902,25.7634,-0.05122379,0.08446014,1.04135
93.502,25.96276,-0.0504609,0.08061748,1.0412
94.102,26.16219,-0.04986445,0.08060207,1.04106
94.702,26.35998,-0.05031821,0.07950546,1.04091
95.302,26.55827,-0.05082307,0.08130859,1.04076
95.902,26.75678,-0.05173226,0.08156603,1.04061
96.502,26.95523,-0.05177009,0.08088527,1.04046
97.102,27.1539,-0.0530907,0.08011612,1.04031
97.702,27.3525,-0.05397549,0.08026455,1.04016
98.302,27.55097,-0.05144218,0.07978025,1.04001
98.902,27.74989,-0.05210435,0.08019783,1.03986
99.502,27.94864,-0.05235849,0.08088154,1.0397
100.102,28.14759,-0.05275889,0.07967752,1.03955
100.702,28.34644,-0.05243319,0.08102866,1.0394
101.302,28.5453,-0.05243346,0.0795962,1.03924
101.902,28.74407,-0.05239702,0.08002663,1.03909
102.502,28.9428,-0.05374111,0.0812978,1.03893
103.102,29.1409,-0.05314942,0.08153914,1.03878
103.702,29.33908,-0.0525997,0.0811908,1.03862
104.302,29.53593,-0.04975657,0.0828886,1.03847
104.902,29.7335,-0.05386293,0.08265539,1.03831
105.502,29.929,-0.05785746,0.08396866,1.03815
106.102,30.12639,-0.05633162,0.08390237,1.03799
106.702,30.32372,-0.05406228,0.08477861,1.03783
107.302,30.52112,-0.05501539,0.08138408,1.03767
107.902,30.7204,-0.05407998,0.08327626,1.03751
108.502,30.91845,-0.05408184,0.08483921,1.03735
109.102,31.11566,-0.05272595,0.08511506,1.03719
109.702,31.31261,-0.05174833,0.08588822,1.03703
110.302,31.509,-0.05215311,0.08563367,1.03687
110.902,31.70615,-0.05209338,0.08514826,1.0367
111.502,31.90298,-0.05736593,0.08583528,1.03654
112.102,32.10156,-0.05669846,0.08491284,1.03637
112.702,32.30035,-0.05386093,0.08537238,1.03621
113.302,32.49924,-0.05649097,0.08541526,1.03604
113.902,32.69834,-0.05008733,0.08435315,1.03588
114.502,32.89716,-0.05275414,0.08525179,1.03571
115.102,33.09545,-0.05650157,0.08630204,1.03554
115.702,33.29376,-0.05503683,0.08610913,1.03538
116.302,33.49177,-0.05934333,0.08645831,1.03521
116.902,33.68987,-0.05512249,0.08573086,1.03504
117.502,33.88838,-0.05352429,0.0856082,1.03487
118.102,34.0867,-0.0517192,0.08686057,1.0347
118.702,34.28497,-0.05452156,0.08611432,1.03453
119.302,34.48148,-0.05845434,0.08726746,1.03436
119.902,34.6787,-0.06254929,0.08674735,1.03419
120.502,34.87525,-0.05856844,0.08528601,1.03401
121.102,35.07156,-0.05139349,0.08757819,1.03384
121.702,35.26737,-0.05477642,0.08952662,1.03367
122.302,35.46188,-0.05886366,0.0903056,1.03349
122.902,35.65838,-0.05597086,0.08937291,1.03332
123.502,35.8555,-0.05615814,0.08814874,1.03314
124.102,36.053,-0.05692402,0.08847276,1.03297
124.702,36.25033,-0.05550128,0.08781997,1.03279
125.302,36.44834,-0.05649012,0.08812757,1.03261
125.902,36.64642,-0.0564896,0.08761095,1.03244
126.502,36.84522,-0.05912959,0.08939782,1.03226
127.102,37.0436,-0.0551717,0.08973051,1.03208
127.702,37.24088,-0.05551064,0.08777517,1.0319
128.302,37.4377,-0.05861042,0.08807587,1.03172
128.902,37.63582,-0.0590157,0.08876006,1.03154
129.502,37.8324,-0.05845606,0.08842863,1.03136
130.102,38.02928,-0.05451025,0.08879583,1.03118
130.702,38.2253,-0.05816571,0.08921872,1.031
131.302,38.42089,-0.05672738,0.08976905,1.03082
131.902,38.61687,-0.05671,0.08925994,1.03063
132.502,38.81308,-0.0588092,0.08978423,1.03045
133.102,39.00977,-0.05685697,0.08758625,1.03026
133.702,39.2076,-0.05932044,0.09056944,1.03008
134.302,39.40435,-0.05600837,0.09030898,1.02989
134.902,39.602,-0.05625049,0.09024177,1.02971
135.502,39.79875,-0.06114635,0.09106609,1.02952
136.102,39.99503,-0.06314301,0.09167653,1.02933
136.702,40.19165,-0.05551643,0.08881863,1.02915
137.302,40.38875,-0.05534895,0.08958356,1.02896
137.902,40.5861,-0.05840438,0.09107088,1.02877
138.502,40.78414,-0.06463489,0.09316326,1.02858
139.102,40.9807,-0.05821318,0.09175554,1.02839
139.702,41.1775,-0.05863683,0.09093524,1.0282
140.302,41.37357,-0.0573271,0.09233864,1.02801
140.902,41.56917,-0.06349577,0.09362409,1.02782
141.502,41.7647,-0.06684842,0.09286301,1.02763
142.102,41.9606,-0.06052925,0.09428093,1.02743
142.702,42.15667,-0.06011021,0.09336597,1.02724
143.302,42.3532,-0.06253995,0.09279593,1.02705
143.902,42.5495,-0.06163896,0.09432542,1.02685
144.502,42.74593,-0.05882946,0.0906973,1.02666
145.102,42.9422,-0.05828314,0.09302413,1.02646
145.702,43.13912,-0.06075576,0.09510211,1.02626
146.302,43.33566,-0.06156827,0.09606506,1.02607
146.902,43.5319,-0.05992288,0.09311204,1.02587
147.502,43.72768,-0.06167995,0.09392633,1.02567
148.102,43.92322,-0.0599205,0.09422209,1.02547
148.702,44.119,-0.06003135,0.09116478,1.02528
149.302,44.31434,-0.06121,0.09272485,1.02508
149.902,44.51038,-0.065209,0.09287517,1.02488
150.502,44.7072,-0.06207211,0.09442813,1.02468
151.102,44.9033,-0.0626406,0.09561097,1.02447
151.702,45.10052,-0.06229348,0.09511612,1.02427
152.302,45.29653,-0.06629506,0.09573701,1.02407
152.902,45.4932,-0.0632293,0.09598556,1.02387
153.502,45.68979,-0.06224375,0.09557423,1.02366
154.102,45.8857,-0.05955069,0.09324755,1.02346
154.702,46.08169,-0.06086966,0.09587679,1.02325
155.302,46.27738,-0.06384815,0.09619053,1.02305
155.902,46.47293,-0.06396331,0.09915859,1.02284
156.502,46.66891,-0.06422557,0.09758768,1.02264
157.102,46.86419,-0.06219023,0.09926941,1.02243
157.702,47.05975,-0.05924441,0.09852551,1.02222
158.302,47.25499,-0.06064504,0.09882644,1.02202
158.902,47.45046,-0.06353708,0.09913487,1.02181
159.502,47.6462,-0.06847226,0.09971303,1.0216
160.102,47.84211,-0.06250683,0.10062,1.02139
160.702,48.0383,-0.06414311,0.09688419,1.02118
161.302,48.23434,-0.06510177,0.1002,1.02097
161.902,48.43,-0.06768125,0.09793012,1.02076
162.502,48.62519,-0.0630952,0.09943492,1.02054
163.102,48.82034,-0.05961165,0.09761357,1.02033
163.702,49.01546,-0.06745082,0.10204,1.02012
164.302,49.21007,-0.0643925,0.10091,1.0199
164.902,49.40529,-0.06841754,0.0999436,1.01969
165.502,49.60065,-0.06732172,0.10017,1.01948
166.102,49.79741,-0.06199855,0.10255,1.01926
166.702,49.994,-0.06429673,0.10088,1.01904
167.302,50.18983,-0.06542596,0.10365,1.01883
167.902,50.38514,-0.06567384,0.10201,1.01861
168.502,50.5801,-0.06855998,0.10336,1.01839
169.102,50.7755,-0.06787206,0.1055,1.01818
169.702,50.97064,-0.06524777,0.1015,1.01796
170.302,51.16604,-0.06392385,0.10272,1.01774
170.902,51.3617,-0.0659467,0.10488,1.01752
171.502,51.55728,-0.06553642,0.10446,1.0173
172.102,51.75314,-0.07116215,0.10501,1.01708
172.702,51.94851,-0.06688278,0.10408,1.01685
173.302,52.1435,-0.06624204,0.10551,1.01663
173.902,52.33878,-0.06958892,0.10581,1.01641
174.502,52.53355,-0.06700046,0.10618,1.01619
175.102,52.72869,-0.06817538,0.10753,1.01596
175.702,52.92346,-0.06628065,0.10729,1.01574
176.302,53.1179,-0.06681367,0.10601,1.01551
176.902,53.3133,-0.07127191,0.10486,1.01529
177.502,53.5086,-0.07173696,0.10782,1.01506
178.102,53.7044,-0.06739848,0.10279,1.01484
178.702,53.89985,-0.06625534,0.10561,1.01461
179.302,54.0954,-0.06592735,0.10476,1.01438
179.902,54.29068,-0.06995695,0.10504,1.01415
180.502,54.48593,-0.06899936,0.10657,1.01392
181.102,54.68161,-0.07294228,0.10612,1.01369
181.702,54.87669,-0.06933308,0.10521,1.01346
182.302,55.072,-0.06790486,0.10691,1.01323
182.902,55.2669,-0.07063385,0.10689,1.013
183.502,55.46165,-0.06969132,0.10904,1.01277
184.102,55.6562,-0.07302171,0.10727,1.01254
184.702,55.8499,-0.0705294,0.10733,1.01231
185.302,56.04478,-0.07607909,0.11039,1.01207
185.902,56.23895,-0.07331867,0.10895,1.01184
186.502,56.4341,-0.07195433,0.10795,1.01161
187.102,56.6289,-0.07053712,0.10748,1.01137
187.702,56.8241,-0.06931997,0.10781,1.01114
188.302,57.01883,-0.06803192,0.10705,1.0109
188.902,57.2133,-0.07053642,0.10514,1.01066
189.502,57.40785,-0.07239954,0.10734,1.01043
190.102,57.60349,-0.06976184,0.10893,1.01019
190.702,57.7975,-0.06842424,0.1084,1.00995
191.302,57.99284,-0.06954448,0.10978,1.00971
191.902,58.1868,-0.0725651,0.11115,1.00947
192.502,58.38131,-0.06892617,0.11051,1.00923
193.102,58.57549,-0.07204735,0.11246,1.00899
193.702,58.7706,-0.07245306,0.11014,1.00875
194.302,58.9656,-0.07085771,0.11318,1.00851
194.902,59.1603,-0.07117102,0.11205,1.00827
195.502,59.355,-0.06963691,0.11349,1.00802
196.102,59.54995,-0.07250011,0.11114,1.00778
196.702,59.74431,-0.07104978,0.11142,1.00754
197.302,59.939,-0.07403318,0.10907,1.00729
197.902,60.13299,-0.07326402,0.11255,1.00705
198.502,60.32809,-0.07010853,0.11097,1.0068
199.102,60.52333,-0.07291601,0.11008,1.00656
199.702,60.7203,-0.07161901,0.11129,1.00631
200.302,60.91653,-0.07294,0.10873,1.00606
200.902,61.1127,-0.07164175,0.10948,1.00581
201.502,61.3084,-0.07114464,0.11139,1.00557
202.102,61.50368,-0.0714212,0.10947,1.00532
202.702,61.6988,-0.07425568,0.11068,1.00507
203.302,61.89271,-0.07591606,0.11073,1.00482
203.902,62.08745,-0.07346993,0.11121,1.00457
204.502,62.2819,-0.0706529,0.11049,1.00432
205.102,62.47775,-0.07311218,0.11405,1.00406
205.702,62.6722,-0.07708327,0.11075,1.00381
206.302,62.8672,-0.07721993,0.11232,1.00356
206.902,63.06149,-0.07593248,0.1107,1.00331
207.502,63.2556,-0.07394246,0.11094,1.00305
208.102,63.44874,-0.07387392,0.11165,1.0028
208.702,63.6428,-0.07754266,0.11315,1.00254
209.302,63.837,-0.07731131,0.11277,1.00229
209.902,64.03242,-0.07590016,0.11154,1.00203
210.502,64.2272,-0.0759611,0.11595,1.00178
211.102,64.42217,-0.0799674,0.11405,1.00152
211.702,64.6168,-0.0769981,0.11504,1.00126
212.302,64.81103,-0.07790944,0.11502,1.001
212.902,65.0046,-0.07738562,0.11492,1.00074
213.502,65.19877,-0.07700125,0.11344,1.00048
214.102,65.39291,-0.07698246,0.11276,1.00022
214.702,65.5875,-0.0777306,0.11221,0.99996
215.302,65.78285,-0.07776038,0.11488,0.9997
215.902,65.9778,-0.08049509,0.11289,0.99944
216.502,66.17331,-0.08040161,0.11549,0.99918
217.102,66.3676,-0.08041987,0.11287,0.99892
217.702,66.5625,-0.08237843,0.1147,0.99865
218.302,66.75676,-0.08091126,0.11175,0.99839
218.902,66.9508,-0.07895002,0.11323,0.99813
219.502,67.14539,-0.07999048,0.11524,0.99786
220.102,67.34,-0.08493716,0.11566,0.9976
220.702,67.5341,-0.08674517,0.11777,0.99733
221.302,67.72867,-0.08407465,0.11693,0.99706
221.902,67.92272,-0.08500021,0.11611,0.9968
222.502,68.11755,-0.08282114,0.1146,0.99653
223.102,68.31181,-0.08544089,0.11451,0.99626
223.702,68.50625,-0.08497757,0.11732,0.99599
224.302,68.70076,-0.08544847,0.1201,0.99572
224.902,68.89559,-0.08675057,0.11856,0.99545
225.502,69.09053,-0.08807969,0.11764,0.99518
226.102,69.28571,-0.09014107,0.11701,0.99491
226.702,69.48144,-0.08643033,0.11536,0.99464
227.302,69.67599,-0.09018584,0.11708,0.99437
227.902,69.87074,-0.08886841,0.11567,0.9941
228.502,70.06456,-0.08754878,0.1159,0.99382
229.102,70.25883,-0.08753992,0.11686,0.99355
229.702,70.45382,-0.08998579,0.11688,0.99328
230.302,70.6483,-0.08763827,0.11444,0.993
230.902,70.84302,-0.09094618,0.11773,0.99273
231.502,71.03701,-0.09442562,0.11693,0.99245
232.102,71.23042,-0.09704902,0.12157,0.99217
232.702,71.42425,-0.09521213,0.12109,0.9919
233.302,71.61886,-0.09431647,0.11977,0.99162
233.902,71.8135,-0.09808313,0.11901,0.99134
234.502,72.00907,-0.0970152,0.12048,0.99106
235.102,72.20352,-0.09833757,0.1195,0.99078
235.702,72.39891,-0.09822889,0.1211,0.99051
236.302,72.59397,-0.0995902,0.12232,0.99023
236.902,72.7897,-0.10092,0.12307,0.98994
237.502,72.98455,-0.09876915,0.12222,0.98966
238.102,73.17949,-0.10098,0.12218,0.98938
238.702,73.37416,-0.10475,0.12408,0.9891
239.302,73.56886,-0.10466,0.12309,0.98882
239.902,73.76207,-0.10646,0.12348,0.98853
240.502,73.95483,-0.10057,0.12295,0.98825
241.102,74.1483,-0.10455,0.12424,0.98797
241.702,74.342,-0.10716,0.12435,0.98768
242.302,74.53698,-0.10592,0.12485,0.98739
242.902,74.73082,-0.11135,0.12557,0.98711
243.502,74.92411,-0.11091,0.12456,0.98682
244.102,75.11791,-0.10685,0.12594,0.98654
244.702,75.31211,-0.10951,0.12521,0.98625
245.302,75.50803,-0.11073,0.12575,0.98596
245.902,75.70402,-0.10814,0.1229,0.98567
246.502,75.89966,-0.10946,0.12279,0.98538
247.102,76.09444,-0.11484,0.12366,0.98509
247.702,76.2894,-0.11878,0.12509,0.9848
248.302,76.4841,-0.11934,0.12607,0.98451
248.902,76.67941,-0.11934,0.12341,0.98422
249.502,76.87443,-0.12235,0.12388,0.98393
250.102,77.0687,-0.12491,0.12591,0.98363
250.702,77.26284,-0.12363,0.12668,0.98334
251.302,77.4569,-0.12322,0.12878,0.98305
251.902,77.65141,-0.12361,0.12695,0.98275
252.502,77.84527,-0.12626,0.12761,0.98246
253.102,78.03924,-0.1259,0.12893,0.98216
253.702,78.2332,-0.1313,0.12836,0.98187
254.302,78.4272,-0.12725,0.12844,0.98157
254.902,78.6215,-0.13274,0.12814,0.98128
255.502,78.81567,-0.13384,0.1298,0.98098
256.102,79.0101,-0.135,0.1302,0.98068
256.702,79.20362,-0.1345,0.12844,0.98038
257.302,79.3981,-0.13569,0.13123,0.98008
257.902,79.59221,-0.14395,0.13279,0.97978
258.502,79.78702,-0.14336,0.13445,0.97948
259.102,79.98192,-0.14352,0.13074,0.97918
259.702,80.17657,-0.13918,0.13011,0.97888
260.302,80.37129,-0.14009,0.13164,0.97858
260.902,80.56577,-0.14445,0.13027,0.97828
261.502,80.7599,-0.14765,0.13297,0.97798
262.102,80.95442,-0.14833,0.13338,0.97767
262.702,81.14944,-0.15102,0.1366,0.97737
263.302,81.3443,-0.15246,0.13468,0.97706
263.902,81.53956,-0.15498,0.13446,0.97676
264.502,81.73286,-0.15631,0.13393,0.97645
265.102,81.92667,-0.16003,0.13443,0.97615
265.702,82.12047,-0.16149,0.13472,0.97584
266.302,82.31426,-0.1619,0.1342,0.97554
266.902,82.5085,-0.16453,0.13878,0.97523
267.502,82.70289,-0.16716,0.13719,0.97492
268.102,82.89707,-0.16871,0.13617,0.97461
268.702,83.09224,-0.16938,0.13438,0.9743
269.302,83.28771,-0.17102,0.13601,0.97399
269.902,83.4834,-0.17111,0.13692,0.97368
270.502,83.67909,-0.17777,0.13594,0.97337
271.102,83.87455,-0.18066,0.13658,0.97306
271.702,84.06971,-0.18147,0.1363,0.97275
272.302,84.26597,-0.18132,0.13773,0.97244
272.902,84.46104,-0.18521,0.13707,0.97213
273.502,84.65624,-0.18632,0.13578,0.97181
274.102,84.85199,-0.1868,0.1342,0.9715
274.702,85.0483,-0.19812,0.13401,0.97118
275.302,85.24404,-0.2002,0.13617,0.97087
275.902,85.44065,-0.19648,0.13514,0.97055
276.502,85.6358,-0.20346,0.13353,0.97024
277.102,85.83113,-0.20249,0.13493,0.96992
277.702,86.02611,-0.20651,0.13448,0.9696
278.302,86.22021,-0.21042,0.13597,0.96929
278.902,86.41479,-0.21491,0.13639,0.96897
279.502,86.60885,-0.21775,0.13968,0.96865
280.102,86.80329,-0.21902,0.13733,0.96833
280.702,86.99752,-0.22376,0.14079,0.96801
281.302,87.19188,-0.22691,0.1402,0.96769
281.902,87.38486,-0.23018,0.14307,0.96737
282.502,87.57964,-0.23448,0.14231,0.96705
283.102,87.77405,-0.23399,0.14084,0.96673
283.702,87.96829,-0.23922,0.1404,0.96641
284.302,88.16481,-0.24535,0.14056,0.96608
284.902,88.3599,-0.24469,0.14105,0.96576
285.502,88.55527,-0.24845,0.14241,0.96544
286.102,88.75095,-0.26099,0.14498,0.96511
286.702,88.94621,-0.25957,0.14412,0.96479
287.302,89.14185,-0.26497,0.14719,0.96446
287.902,89.33599,-0.2639,0.14726,0.96414
288.502,89.52994,-0.26979,0.14972,0.96381
289.102,89.72325,-0.27692,0.14925,0.96348
289.702,89.91727,-0.28168,0.14914,0.96316
290.302,90.112,-0.2867,0.15297,0.96283
290.902,90.30662,-0.29099,0.151,0.9625
291.502,90.50115,-0.29242,0.15354,0.96217
292.102,90.69665,-0.29749,0.15367,0.96184
292.702,90.89226,-0.30591,0.1527,0.96151
293.302,91.08837,-0.31181,0.15539,0.96118
293.902,91.28466,-0.31577,0.1527,0.96085
294.502,91.47978,-0.32085,0.15406,0.96052
295.102,91.67474,-0.3259,0.15781,0.96019
295.702,91.8694,-0.33546,0.15702,0.95985
296.302,92.06456,-0.3408,0.16027,0.95952
296.902,92.26004,-0.345,0.16229,0.95919
297.502,92.4546,-0.35091,0.15958,0.95885
298.102,92.64944,-0.35672,0.16344,0.95852
298.702,92.84441,-0.36454,0.16534,0.95818
299.302,93.0398,-0.37096,0.16621,0.95785
299.902,93.2354,-0.37938,0.16787,0.95751
300.502,93.43065,-0.38439,0.17045,0.95718
301.102,93.6255,-0.39332,0.17055,0.95684
301.702,93.8206,-0.40114,0.17431,0.9565
302.302,94.0155,-0.40547,0.17409,0.95616
302.902,94.21083,-0.41473,0.1749,0.95582
303.502,94.4066,-0.42347,0.17503,0.95549
304.102,94.60217,-0.43136,0.17803,0.95515
304.702,94.79762,-0.4401,0.18205,0.95481
305.302,94.99287,-0.44605,0.18105,0.95446
305.902,95.18767,-0.45677,0.18412,0.95412
306.502,95.38279,-0.46648,0.18964,0.95378
307.102,95.5779,-0.47539,0.18778,0.95344
307.702,95.7743,-0.48287,0.18994,0.9531
308.302,95.97033,-0.49167,0.19199,0.95275
308.902,96.16683,-0.50567,0.19809,0.95241
309.502,96.36309,-0.517,0.19913,0.95207
310.102,96.559,-0.52677,0.20137,0.95172
310.702,96.7548,-0.53903,0.20282,0.95138
311.302,96.95052,-0.5477,0.20343,0.95103
311.902,97.14538,-0.55639,0.20764,0.95068
312.502,97.34103,-0.57069,0.20949,0.95034
313.102,97.5361,-0.586,0.21331,0.94999
313.702,97.73164,-0.59686,0.21669,0.94964
314.302,97.92681,-0.61316,0.21995,0.94929
314.902,98.12182,-0.62411,0.22324,0.94894
315.502,98.31716,-0.63821,0.22644,0.94859
316.102,98.5124,-0.65226,0.23108,0.94825
316.702,98.7077,-0.66484,0.23407,0.94789
317.302,98.90356,-0.68378,0.23841,0.94754
317.902,99.1002,-0.6963,0.24246,0.94719
318.502,99.29619,-0.7096,0.24604,0.94684
319.102,99.4924,-0.72431,0.25113,0.94649
319.702,99.6876,-0.73945,0.25612,0.94614
320.302,99.8824,-0.76208,0.26122,0.94578
320.902,100.0773,-0.77798,0.26694,0.94543
321.502,100.272,-0.793,0.26979,0.94507
322.102,100.467,-0.8117,0.27437,0.94472
322.702,100.663,-0.83517,0.27888,0.94436
323.302,100.858,-0.8541,0.28539,0.94401
323.902,101.053,-0.8765,0.29437,0.94365
324.502,101.249,-0.89562,0.29773,0.94329
325.102,101.445,-0.91825,0.30513,0.94294
325.702,101.642,-0.9395,0.31114,0.94258
326.302,101.839,-0.96154,0.3204,0.94222
326.902,102.035,-0.98477,0.32663,0.94186
327.502,102.2309,-1.01245,0.3355,0.9415
328.102,102.427,-1.04206,0.3439,0.94114
328.702,102.623,-1.06733,0.35148,0.94078
329.302,102.821,-1.09068,0.35954,0.94042
329.902,103.016,-1.11765,0.36882,0.94006
330.502,103.212,-1.14869,0.37856,0.9397
331.102,103.4084,-1.18182,0.38886,0.93934
331.702,103.604,-1.21177,0.39753,0.93897
332.302,103.801,-1.24515,0.40792,0.93861
332.902,103.9967,-1.27447,0.41981,0.93825
333.502,104.193,-1.31177,0.43161,0.93788
334.102,104.3887,-1.35013,0.44472,0.93752
334.702,104.585,-1.38643,0.45292,0.93715
335.302,104.7804,-1.42465,0.4616,0.93679
335.902,104.976,-1.46234,0.47475,0.93642
336.502,105.172,-1.50627,0.48509,0.93605
337.102,105.369,-1.54601,0.49956,0.93569
337.702,105.565,-1.58764,0.51104,0.93532
338.302,105.761,-1.63409,0.52256,0.93495
338.902,105.958,-1.67972,0.53827,0.93458
339.502,106.154,-1.72665,0.54957,0.93421
340.102,106.349,-1.77494,0.5607,0.93384
340.702,106.546,-1.82237,0.57223,0.93347
341.302,106.742,-1.87398,0.58481,0.9331
341.902,106.939,-1.92687,0.59678,0.93273
342.502,107.135,-1.97954,0.60712,0.93236
343.102,107.3316,-2.03343,0.61634,0.93199
343.702,107.528,-2.08523,0.62513,0.93161
344.302,107.724,-2.14135,0.63224,0.93124
344.902,107.92,-2.19768,0.6373,0.93087
345.502,108.116,-2.25506,0.64528,0.93049
346.102,108.312,-2.30913,0.6481,0.93012
346.702,108.5092,-2.3684,0.64806,0.92974
347.302,108.706,-2.42259,0.65,0.92937
347.902,108.904,-2.48035,0.64484,0.92899
348.502,109.101,-2.54164,0.64386,0.92862
349.102,109.298,-2.59968,0.64062,0.92824
349.702,109.494,-2.65503,0.63436,0.92786
350.302,109.6898,-2.70705,0.62187,0.92748
350.902,109.885,-2.7589,0.61242,0.92711
351.502,110.08,-2.8151,0.5989,0.92673
352.102,110.276,-2.86667,0.5839,0.92635
352.702,110.471,-2.91793,0.56448,0.92597
353.302,110.668,-2.96983,0.54765,0.92559
353.902,110.864,-3.01257,0.52212,0.92521
354.502,111.061,-3.05322,0.49516,0.92482
355.102,111.257,-3.09608,0.4692,0.92444
355.702,111.452,-3.13281,0.44162,0.92406
356.302,111.646,-3.1715,0.41157,0.92368
356.902,111.841,-3.20749,0.38468,0.92329
357.502,112.0354,-3.23766,0.35311,0.92291
358.102,112.23,-3.26859,0.32465,0.92253
358.702,112.4244,-3.29207,0.29531,0.92214
359.302,112.618,-3.3132,0.26713,0.92176
359.902,112.813,-3.3306,0.23676,0.92137
360.502,113.008,-3.35048,0.21055,0.92099
361.102,113.203,-3.36755,0.18868,0.9206
361.702,113.398,-3.37983,0.16642,0.92021
362.302,113.593,-3.38868,0.14382,0.91982
362.902,113.789,-3.39872,0.12515,0.91944
363.502,113.985,-3.41053,0.10943,0.91905
364.102,114.18,-3.41701,0.0951002,0.91866
364.702,114.375,-3.42002,0.08307803,0.91827
365.302,114.57,-3.4261,0.07711863,0.91788
365.902,114.765,-3.43131,0.07139462,0.91749
366.502,114.96,-3.43404,0.06170354,0.9171
367.102,115.154,-3.43544,0.06008289,0.91671
367.702,115.35,-3.4391,0.05593278,0.91632
368.302,115.546,-3.44083,0.05309468,0.91592
368.902,115.743,-3.44369,0.04934378,0.91553
369.502,115.94,-3.44271,0.04847874,0.91514
370.102,116.137,-3.44404,0.0440947,0.91474
370.702,116.334,-3.44667,0.04356429,0.91435
371.302,116.531,-3.44931,0.04203371,0.91396
371.902,116.727,-3.45204,0.0434166,0.91356
372.502,116.924,-3.45292,0.04146295,0.91317
373.102,117.121,-3.45593,0.04471048,0.91277
373.702,117.317,-3.45589,0.04304812,0.91237
374.302,117.515,-3.45515,0.04248604,0.91198
374.902,117.712,-3.45676,0.04280479,0.91158
375.502,117.908,-3.45722,0.04147741,0.91118
376.102,118.1034,-3.45981,0.04366073,0.91078
376.702,118.2988,-3.45972,0.04166348,0.91038
377.302,118.495,-3.45692,0.04252277,0.90999
377.902,118.692,-3.46087,0.04173329,0.90959
378.502,118.888,-3.45951,0.04049222,0.90919
379.102,119.085,-3.46159,0.04139337,0.90878
379.702,119.282,-3.46311,0.03949501,0.90838
380.302,119.48,-3.46448,0.03882512,0.90798
380.902,119.677,-3.46716,0.04046146,0.90758
381.502,119.8764,-3.46971,0.0380718,0.90718
382.102,120.076,-3.46783,0.04032781,0.90678
382.702,120.276,-3.47003,0.03499138,0.90637
383.302,120.475,-3.47131,0.03813385,0.90597
383.902,120.674,-3.47138,0.03744056,0.90556
384.502,120.872,-3.47139,0.03902803,0.90516
385.102,121.069,-3.47234,0.03802403,0.90475
385.702,121.266,-3.47461,0.03546414,0.90435
386.302,121.463,-3.4759,0.03901517,0.90394
386.902,121.659,-3.47727,0.03965586,0.90354
387.502,121.855,-3.47954,0.04048767,0.90313
388.102,122.052,-3.47487,0.03841576,0.90272
388.702,122.247,-3.47552,0.04016477,0.90231
389.302,122.444,-3.47941,0.03975595,0.90191
389.902,122.641,-3.47978,0.03788947,0.9015
390.502,122.838,-3.47718,0.03785297,0.90109
391.102,123.036,-3.48026,0.03969116,0.90068
391.702,123.233,-3.48407,0.04013021,0.90027
392.302,123.43,-3.48242,0.03931913,0.89986
392.902,123.627,-3.48096,0.03974163,0.89945
393.502,123.825,-3.48408,0.03826252,0.89904
394.102,124.021,-3.48561,0.03931684,0.89862
394.702,124.2177,-3.48559,0.0383012,0.89821
395.302,124.414,-3.48634,0.03858008,0.8978
395.902,124.612,-3.48348,0.03854029,0.89738
396.502,124.809,-3.48821,0.03918372,0.89697
397.102,125.007,-3.48631,0.03929263,0.89656
397.702,125.205,-3.48743,0.0387464,0.89614
398.302,125.403,-3.49023,0.03793762,0.89573
398.902,125.6,-3.4889,0.03822219,0.89531
399.502,125.797,-3.49146,0.03765876,0.8949
400.102,125.995,-3.49153,0.03920577,0.89448
400.702,126.193,-3.49184,0.03688276,0.89406
401.302,126.391,-3.4948,0.0425486,0.89365
401.902,126.5892,-3.49778,0.04106738,0.89323
402.502,126.786,-3.49646,0.04204928,0.89281
403.102,126.9826,-3.49909,0.04235139,0.89239
403.702,127.18,-3.50093,0.04332316,0.89197
404.302,127.3776,-3.49711,0.04334117,0.89155
404.902,127.575,-3.49867,0.04099371,0.89113
405.502,127.773,-3.49716,0.04354631,0.89071
406.102,127.97,-3.50034,0.04399573,0.89029
406.702,128.166,-3.49863,0.04266971,0.88987
407.302,128.363,-3.50053,0.03954098,0.88945
407.902,128.559,-3.50021,0.04431058,0.88903
408.502,128.7558,-3.50555,0.04329915,0.8886
409.102,128.952,-3.50482,0.04363379,0.88818
409.702,129.149,-3.50083,0.0430302,0.88776
410.302,129.346,-3.50497,0.04229683,0.88733
410.902,129.544,-3.50843,0.04427694,0.88691
411.502,129.7417,-3.5071,0.03966156,0.88649
412.102,129.94,-3.5071,0.0437884,0.88606
412.702,130.139,-3.50767,0.04116048,0.88564
413.302,130.337,-3.50701,0.04092221,0.88521
413.902,130.535,-3.50721,0.04137597,0.88478
414.502,130.733,-3.50854,0.04171036,0.88436
415.102,130.931,-3.51444,0.04416572,0.88393
415.702,131.129,-3.51366,0.04312688,0.8835
416.302,131.327,-3.5127,0.04184182,0.88307
416.902,131.524,-3.51238,0.04183278,0.88264
417.502,131.722,-3.515,0.04268294,0.88222
418.102,131.921,-3.51781,0.04423306,0.88179
418.702,132.119,-3.51865,0.04320539,0.88136
419.302,132.318,-3.51832,0.04526956,0.88093
419.902,132.516,-3.51439,0.04449216,0.8805
420.502,132.713,-3.51087,0.04244769,0.88006
421.102,132.911,-3.51859,0.04819787,0.87963
421.702,133.109,-3.52105,0.0465398,0.8792
422.302,133.308,-3.5223,0.04811687,0.87877
422.902,133.505,-3.52155,0.04730329,0.87834
423.502,133.703,-3.52081,0.04697358,0.8779
424.102,133.901,-3.52147,0.04446673,0.87747
424.702,134.099,-3.52378,0.04516519,0.87703
425.302,134.297,-3.52378,0.0477954,0.8766
425.902,134.4954,-3.5241,0.04746497,0.87617
426.502,134.694,-3.52446,0.04983431,0.87573
427.102,134.891,-3.52624,0.0469667,0.87529
427.702,135.089,-3.52483,0.04555243,0.87486
428.302,135.288,-3.528,0.04772532,0.87442
428.902,135.486,-3.52685,0.04709986,0.87398
429.502,135.684,-3.52619,0.04682715,0.87355
430.102,135.882,-3.52881,0.0472429,0.87311
430.702,136.0802,-3.52884,0.0481245,0.87267
431.302,136.278,-3.52883,0.05134621,0.87223
431.902,136.475,-3.53029,0.0481139,0.87179
432.502,136.672,-3.53197,0.04915982,0.87135
433.102,136.87,-3.53031,0.04731871,0.87091
433.702,137.066,-3.53296,0.05042669,0.87047
434.302,137.264,-3.5343,0.05105469,0.87003
434.902,137.463,-3.53598,0.04777663,0.86959
435.502,137.662,-3.53899,0.04940148,0.86915
436.102,137.862,-3.54013,0.04904179,0.86871
436.702,138.06,-3.53669,0.04913545,0.86827
437.302,138.258,-3.53235,0.04669694,0.86782
437.902,138.456,-3.53466,0.05078833,0.86738
438.502,138.6533,-3.53866,0.05125746,0.86694
439.102,138.851,-3.54002,0.04920236,0.86649
439.702,139.049,-3.53743,0.04914766,0.86605
440.302,139.247,-3.5387,0.05014384,0.8656
440.902,139.445,-3.54134,0.05037056,0.86516
441.502,139.643,-3.54132,0.05015006,0.86471
442.102,139.841,-3.54308,0.05158173,0.86427
442.702,140.04,-3.54176,0.04997203,0.86382
443.302,140.239,-3.54297,0.0531684,0.86337
443.902,140.438,-3.54176,0.05161314,0.86293
444.502,140.636,-3.54316,0.05367014,0.86248
445.102,140.835,-3.54951,0.05414266,0.86203
445.702,141.034,-3.54462,0.05429247,0.86158
446.302,141.233,-3.54462,0.05258137,0.86113
446.902,141.431,-3.54586,0.05465919,0.86068
447.502,141.63,-3.54856,0.05280365,0.86023
448.102,141.828,-3.54585,0.05467685,0.85978
448.702,142.027,-3.55286,0.0543965,0.85933
449.302,142.226,-3.55153,0.05433047,0.85888
449.902,142.425,-3.54972,0.05342822,0.85843
450.502,142.624,-3.55142,0.05344333,0.85798
451.102,142.822,-3.55009,0.053245,0.85753
451.702,143.021,-3.55141,0.05299821,0.85708
452.302,143.2202,-3.5501,0.04959222,0.85662
452.902,143.4186,-3.55212,0.05131198,0.85617
453.502,143.617,-3.55241,0.05091828,0.85572
454.102,143.814,-3.55242,0.05211598,0.85526
454.702,144.013,-3.55483,0.05171183,0.85481
455.302,144.212,-3.5524,0.05154824,0.85435
455.902,144.411,-3.55028,0.05231865,0.8539
456.502,144.61,-3.55688,0.05414718,0.85344
457.102,144.808,-3.55822,0.05355131,0.85299
457.702,145.007,-3.55581,0.05309256,0.85253
458.302,145.205,-3.56197,0.05399072,0.85207
458.902,145.403,-3.55877,0.05271603,0.85162
459.502,145.601,-3.55544,0.05239264,0.85116
460.102,145.799,-3.55647,0.05082079,0.8507
460.702,145.998,-3.5591,0.04921571,0.85024
461.302,146.196,-3.56182,0.04949547,0.84978
461.902,146.3941,-3.55971,0.0519893,0.84932
462.502,146.593,-3.55909,0.05090101,0.84887
463.102,146.792,-3.56324,0.05108008,0.84841
463.702,146.991,-3.56312,0.04908946,0.84795
464.302,147.19,-3.56371,0.0520025,0.84748
464.902,147.389,-3.56287,0.0493204,0.84702
465.502,147.5868,-3.56534,0.05312751,0.84656
466.102,147.785,-3.56346,0.05222264,0.8461
466.702,147.984,-3.56448,0.05219753,0.84564
467.302,148.183,-3.56711,0.04955716,0.84518
467.902,148.383,-3.56403,0.04737144,0.84471
468.502,148.583,-3.56405,0.05098322,0.84425
469.102,148.782,-3.56567,0.04978539,0.84379
469.702,148.981,-3.56457,0.05019244,0.84332
470.302,149.18,-3.56734,0.04629297,0.84286
470.902,149.379,-3.56507,0.04630225,0.84239
471.502,149.578,-3.56691,0.04435309,0.84193
472.102,149.7765,-3.56953,0.04803324,0.84146
472.702,149.974,-3.56824,0.04683323,0.841
473.302,150.172,-3.56785,0.04833676,0.84053
473.902,150.37,-3.56931,0.04952136,0.84006
474.502,150.569,-3.57204,0.04925556,0.8396
475.102,150.768,-3.57172,0.04782591,0.83913
475.702,150.967,-3.56797,0.0470621,0.83866
476.302,151.166,-3.57062,0.04746987,0.83819
476.902,151.364,-3.56762,0.0459566,0.83772
477.502,151.563,-3.57327,0.04687155,0.83726
478.102,151.761,-3.57468,0.04902279,0.83679
478.702,151.96,-3.57204,0.04793314,0.83632
479.302,152.16,-3.57337,0.04818142,0.83585
479.902,152.36,-3.56985,0.04529148,0.83538
480.502,152.559,-3.57323,0.04597417,0.83491
481.102,152.759,-3.57522,0.04565882,0.83444
481.702,152.959,-3.5739,0.04592916,0.83396
482.302,153.159,-3.57521,0.0459359,0.83349
482.902,153.358,-3.57651,0.04429562,0.83302
483.502,153.557,-3.57652,0.04591189,0.83255
484.102,153.757,-3.57686,0.04828302,0.83207
484.702,153.956,-3.57653,0.04682618,0.8316
485.302,154.156,-3.57779,0.04485944,0.83113
485.902,154.355,-3.5771,0.04537603,0.83065
486.502,154.554,-3.57786,0.04522271,0.83018
487.102,154.753,-3.57686,0.0403685,0.82971
487.702,154.953,-3.5809,0.04165486,0.82923
488.302,155.154,-3.5808,0.04489978,0.82875
488.902,155.354,-3.57923,0.04373164,0.82828
489.502,155.554,-3.57892,0.04153229,0.8278
490.102,155.753,-3.58248,0.04663699,0.82733
490.702,155.952,-3.58246,0.04503787,0.82685
491.302,156.15,-3.58279,0.04389865,0.82637
491.902,156.3492,-3.5818,0.04620915,0.82589
492.502,156.548,-3.58259,0.04492237,0.82542
493.102,156.7467,-3.58181,0.04595527,0.82494
493.702,156.945,-3.58302,0.04685238,0.82446
494.302,157.145,-3.58115,0.04586026,0.82398
494.902,157.344,-3.58042,0.04623816,0.8235
495.502,157.5425,-3.58249,0.04590727,0.82302
496.102,157.741,-3.58444,0.04341116,0.82254
496.702,157.939,-3.58153,0.04174584,0.82206
497.302,158.1391,-3.58388,0.04129553,0.82158
497.902,158.339,-3.58555,0.04348165,0.8211
498.502,158.54,-3.58852,0.04396157,0.82062
499.102,158.741,-3.58617,0.04426625,0.82014
499.702,158.942,-3.58481,0.04499222,0.81966
500.302,159.142,-3.58641,0.04491371,0.81917
500.902,159.343,-3.5874,0.04315402,0.81869
501.502,159.544,-3.58599,0.04516956,0.81821
502.102,159.745,-3.58773,0.0456729,0.81772
502.702,159.945,-3.58828,0.04622746,0.81724
503.302,160.146,-3.58905,0.04874702,0.81676
503.902,160.346,-3.59036,0.04802397,0.81627
504.502,160.5462,-3.59036,0.0452267,0.81579
505.102,160.746,-3.5918,0.04548755,0.8153
505.702,160.9455,-3.59021,0.0457553,0.81482
506.302,161.146,-3.59299,0.04639349,0.81433
506.902,161.345,-3.59158,0.04607225,0.81384
507.502,161.545,-3.59071,0.04604253,0.81336
508.102,161.7448,-3.59201,0.04784077,0.81287
508.702,161.944,-3.59343,0.04655051,0.81238
509.302,162.143,-3.59496,0.05017148,0.8119
509.902,162.342,-3.59499,0.0495408,0.81141
510.502,162.5412,-3.5956,0.04796818,0.81092
511.102,162.74,-3.59426,0.04709981,0.81043
511.702,162.939,-3.59694,0.04665779,0.80994
512.302,163.138,-3.5943,0.044982,0.80945
512.902,163.338,-3.59667,0.0410716,0.80897
513.502,163.538,-3.59661,0.04526519,0.80848
514.102,163.739,-3.60031,0.04663575,0.80799
514.702,163.939,-3.60056,0.04864126,0.80749
515.302,164.139,-3.59538,0.04615423,0.807
515.902,164.3388,-3.59296,0.04686826,0.80651
516.502,164.539,-3.59316,0.04676719,0.80602
517.102,164.738,-3.59835,0.04674969,0.80553
517.702,164.938,-3.60119,0.04677889,0.80504
518.302,165.138,-3.59703,0.04795618,0.80455
518.902,165.337,-3.59666,0.04557726,0.80405
519.502,165.537,-3.59863,0.0439278,0.80356
520.102,165.7368,-3.60012,0.04275717,0.80307
520.702,165.936,-3.59686,0.04301381,0.80257
521.302,166.135,-3.59668,0.04242884,0.80208
521.902,166.334,-3.60199,0.04483496,0.80158
522.502,166.5341,-3.60398,0.04278233,0.80109
523.102,166.735,-3.60402,0.04517865,0.8006
523.702,166.935,-3.60525,0.04417451,0.8001
524.302,167.135,-3.60132,0.04115725,0.7996
524.902,167.336,-3.59826,0.03975022,0.79911
525.502,167.536,-3.6031,0.03985628,0.79861
526.102,167.736,-3.60205,0.04088488,0.79812
526.702,167.936,-3.60425,0.04198426,0.79762
527.302,168.137,-3.60479,0.04385806,0.79712
527.902,168.337,-3.60343,0.04188244,0.79662
528.502,168.537,-3.60319,0.04183298,0.79613
529.102,168.737,-3.60564,0.04266279,0.79563
529.702,168.938,-3.60179,0.03930314,0.79513
530.302,169.139,-3.60308,0.04097172,0.79463
530.902,169.34,-3.60246,0.04359456,0.79413
531.502,169.541,-3.60415,0.04167839,0.79363
532.102,169.74,-3.60426,0.04273783,0.79313
532.702,169.9401,-3.60309,0.04177831,0.79263
533.302,170.14,-3.6044,0.04012976,0.79213
533.902,170.341,-3.6044,0.0412799,0.79163
534.502,170.5408,-3.60514,0.03913084,0.79113
535.102,170.74,-3.6044,0.04036271,0.79063
535.702,170.939,-3.60574,0.04062863,0.79013
536.302,171.138,-3.60573,0.04294979,0.78963
536.902,171.338,-3.60574,0.04156849,0.78913
537.502,171.539,-3.61049,0.04695625,0.78862
538.102,171.741,-3.60417,0.04357379,0.78812
538.702,171.942,-3.60142,0.04148179,0.78762
539.302,172.1432,-3.60615,0.04180874,0.78711
539.902,172.3436,-3.60808,0.04202756,0.78661
540.502,172.544,-3.60681,0.04202782,0.78611
541.102,172.744,-3.60682,0.04166711,0.7856
541.702,172.945,-3.60518,0.04003781,0.7851
542.302,173.1456,-3.60648,0.03974965,0.78459
542.902,173.347,-3.60467,0.03915817,0.78409
543.502,173.548,-3.60606,0.03637459,0.78358
544.102,173.749,-3.60872,0.03706793,0.78308
544.702,173.9495,-3.61008,0.0396528,0.78257
545.302,174.15,-3.60879,0.03730053,0.78207
545.902,174.351,-3.60745,0.03662948,0.78156
546.502,174.551,-3.60748,0.03623636,0.78105
547.102,174.751,-3.6108,0.0364529,0.78055
547.702,174.952,-3.6101,0.04058377,0.78004
548.302,175.151,-3.6101,0.04212357,0.77953
548.902,175.351,-3.61011,0.04193916,0.77902
549.502,175.552,-3.61142,0.04014162,0.77851
550.102,175.753,-3.60742,0.03970923,0.77801
550.702,175.9541,-3.61012,0.0423252,0.7775
551.302,176.154,-3.61284,0.0430921,0.77699
551.902,176.355,-3.61196,0.04328037,0.77648
552.502,176.555,-3.61367,0.04230091,0.77597
553.102,176.756,-3.61341,0.04491805,0.77546
553.702,176.957,-3.606,0.0394576,0.77495
554.302,177.16,-3.60755,0.03893675,0.77444
554.902,177.361,-3.61019,0.04038474,0.77393
555.502,177.562,-3.61109,0.04312813,0.77342
556.102,177.762,-3.61166,0.0432738,0.77291
556.702,177.963,-3.60994,0.04451996,0.77239
557.302,178.162,-3.6103,0.04196277,0.77188
557.902,178.363,-3.61147,0.04505111,0.77137
558.502,178.563,-3.61142,0.04376943,0.77086
559.102,178.763,-3.60882,0.04545553,0.77035
559.702,178.964,-3.61524,0.04810925,0.76983
560.302,179.1653,-3.6138,0.04744562,0.76932
560.902,179.367,-3.61406,0.04816214,0.76881
561.502,179.569,-3.61196,0.0441008,0.76829
562.102,179.77,-3.61288,0.04336134,0.76778
562.702,179.97,-3.61242,0.04513493,0.76726
563.302,180.171,-3.61123,0.04504581,0.76675
563.902,180.371,-3.61188,0.04587202,0.76623
564.502,180.571,-3.61448,0.04597557,0.76572
565.102,180.771,-3.6172,0.04732368,0.7652
565.702,180.972,-3.61186,0.04618928,0.76469
566.302,181.173,-3.61722,0.04897723,0.76417
566.902,181.373,-3.6125,0.04387969,0.76366
567.502,181.574,-3.61524,0.04642502,0.76314
568.102,181.7755,-3.61254,0.0451951,0.76262
568.702,181.977,-3.61379,0.04292413,0.76211
569.302,182.179,-3.61278,0.04567431,0.76159
569.902,182.38,-3.61383,0.043065,0.76107
570.502,182.582,-3.61474,0.04633432,0.76055
571.102,182.7829,-3.61548,0.04431619,0.76004
571.702,182.983,-3.61274,0.04377971,0.75952
572.302,183.183,-3.61569,0.04334435,0.759
572.902,183.383,-3.61738,0.04581851,0.75848
573.502,183.583,-3.61459,0.04735984,0.75796
574.102,183.783,-3.61548,0.04772073,0.75744
574.702,183.984,-3.6189,0.04280868,0.75692
575.302,184.186,-3.61668,0.04479743,0.7564
575.902,184.387,-3.61823,0.04542836,0.75588
576.502,184.588,-3.6169,0.04958149,0.75536
577.102,184.789,-3.6169,0.04535799,0.75484
577.702,184.99,-3.61682,0.04689699,0.75432
578.302,185.1911,-3.61698,0.0478603,0.7538
578.902,185.393,-3.6169,0.04914012,0.75328
579.502,185.595,-3.61957,0.04756361,0.75276
580.102,185.797,-3.6152,0.0453482,0.75224
580.702,185.998,-3.61517,0.04629262,0.75171
581.302,186.198,-3.61643,0.04638226,0.75119
581.902,186.399,-3.61909,0.04755973,0.75067
582.502,186.6,-3.61909,0.04790613,0.75015
583.102,186.802,-3.6191,0.04712459,0.74962
583.702,187.004,-3.6178,0.04640321,0.7491
584.302,187.206,-3.61547,0.04719779,0.74858
584.902,187.408,-3.61811,0.04773861,0.74805
585.502,187.6095,-3.61811,0.05006537,0.74753
586.102,187.812,-3.61942,0.04823013,0.747
586.702,188.013,-3.62005,0.05055844,0.74648
587.302,188.214,-3.61745,0.04881951,0.74596
587.902,188.414,-3.61617,0.05095135,0.74543
588.502,188.615,-3.61997,0.04739583,0.74491
589.102,188.816,-3.61831,0.05095942,0.74438
589.702,189.019,-3.61863,0.04893998,0.74385
590.302,189.22,-3.61939,0.05149176,0.74333
590.902,189.422,-3.62167,0.0494145,0.7428
591.502,189.623,-3.62,0.05151408,0.74228
592.102,189.824,-3.61737,0.0490628,0.74175
592.702,190.025,-3.62041,0.05199315,0.74122
593.302,190.226,-3.61997,0.04852341,0.7407
593.902,190.427,-3.62091,0.0499322,0.74017
594.502,190.628,-3.61995,0.05120471,0.73964
595.102,190.8303,-3.61894,0.05300056,0.73911
595.702,191.032,-3.62129,0.05553587,0.73859
596.302,191.235,-3.6226,0.05284024,0.73806
596.902,191.437,-3.62101,0.04808725,0.73753
597.502,191.639,-3.61932,0.05182283,0.737
598.102,191.839,-3.62033,0.05137862,0.73647
598.702,192.0384,-3.6212,0.05020561,0.73594
599.302,192.238,-3.62159,0.05113635,0.73541
599.902,192.438,-3.61995,0.04791388,0.73488
600.502,192.639,-3.61791,0.04883379,0.73435
601.102,192.84,-3.62162,0.04749694,0.73382
601.702,193.042,-3.62358,0.0513159,0.73329
602.302,193.244,-3.62325,0.0496289,0.73276
602.902,193.445,-3.62186,0.04682377,0.73223
603.502,193.647,-3.62147,0.04749543,0.7317
604.102,193.849,-3.62096,0.04899915,0.73117
604.702,194.051,-3.62096,0.04406316,0.73064
605.302,194.253,-3.62241,0.04772167,0.73011
605.902,194.454,-3.6249,0.04908564,0.72958
606.502,194.6539,-3.62359,0.04765503,0.72905
607.102,194.854,-3.62294,0.04799863,0.72851
607.702,195.054,-3.62425,0.04930908,0.72798
608.302,195.256,-3.62438,0.04847056,0.72745
608.902,195.457,-3.61935,0.04675464,0.72692
609.502,195.658,-3.62315,0.04596105,0.72638
610.102,195.861,-3.63002,0.04932451,0.72585
610.702,196.063,-3.62283,0.04797751,0.72532
611.302,196.265,-3.62151,0.04708701,0.72478
611.902,196.467,-3.62424,0.04802596,0.72425
612.502,196.669,-3.62677,0.04801839,0.72372
613.102,196.871,-3.62325,0.04989131,0.72318
613.702,197.073,-3.62444,0.05057518,0.72265
614.302,197.274,-3.62753,0.05075421,0.72211
614.902,197.476,-3.62337,0.04471109,0.72158
615.502,197.6781,-3.62273,0.04563596,0.72104
616.102,197.88,-3.62797,0.05037015,0.72051
616.702,198.081,-3.62731,0.04895061,0.71997
617.302,198.283,-3.62469,0.05070421,0.71944
617.902,198.484,-3.62568,0.04956665,0.7189
618.502,198.686,-3.62304,0.05414907,0.71836
619.102,198.888,-3.62832,0.05149656,0.71783
619.702,199.0889,-3.62824,0.05203547,0.71729
620.302,199.29,-3.62964,0.05283024,0.71676
620.902,199.49,-3.62961,0.05615745,0.71622
621.502,199.691,-3.62349,0.05158421,0.71568
622.102,199.892,-3.62379,0.05272563,0.71514
622.702,200.093,-3.62444,0.05140428,0.71461
623.302,200.295,-3.62715,0.04816985,0.71407
623.902,200.497,-3.62871,0.05098248,0.71353
624.502,200.699,-3.62715,0.05113116,0.71299
625.102,200.9008,-3.62985,0.05284447,0.71246
625.702,201.103,-3.63111,0.05424513,0.71192
626.302,201.304,-3.63001,0.05067596,0.71138
626.902,201.505,-3.63306,0.05434477,0.71084
627.502,201.707,-3.62952,0.05248228,0.7103
628.102,201.908,-3.63022,0.05400172,0.70976
628.702,202.11,-3.63447,0.05315954,0.70922
629.302,202.312,-3.62246,0.05329024,0.70868
629.902,202.514,-3.62847,0.05287478,0.70815
630.502,202.714,-3.63001,0.05047627,0.70761
631.102,202.9147,-3.62887,0.05427264,0.70707
631.702,203.115,-3.6338,0.05374424,0.70653
632.302,203.317,-3.63115,0.05614901,0.70599
632.902,203.518,-3.63112,0.0523239,0.70544
633.502,203.72,-3.62989,0.05254128,0.7049
634.102,203.923,-3.63037,0.0529575,0.70436
634.702,204.126,-3.63237,0.05157034,0.70382
635.302,204.329,-3.63149,0.05812715,0.70328
635.902,204.532,-3.63182,0.05807128,0.70274
636.502,204.735,-3.63187,0.05392676,0.7022
637.102,204.937,-3.62786,0.05506823,0.70166
637.702,205.139,-3.63095,0.05659828,0.70112
638.302,205.341,-3.63325,0.05546036,0.70057
638.902,205.543,-3.63295,0.05427815,0.70003
639.502,205.7447,-3.63701,0.05738074,0.69949
640.102,205.9452,-3.63195,0.05586396,0.69895
640.702,206.146,-3.63325,0.05545773,0.6984
641.302,206.347,-3.63063,0.05316656,0.69786
641.902,206.5498,-3.6306,0.05443728,0.69732
642.502,206.752,-3.63423,0.05267221,0.69677
643.102,206.954,-3.63292,0.05492871,0.69623
643.702,207.156,-3.63365,0.05671274,0.69569
644.302,207.358,-3.63492,0.05367245,0.69514
644.902,207.56,-3.63495,0.05655495,0.6946
645.502,207.762,-3.63206,0.05677381,0.69406
646.102,207.964,-3.63336,0.05420606,0.69351
646.702,208.166,-3.63467,0.05667039,0.69297
647.302,208.368,-3.63343,0.0588948,0.69242
647.902,208.57,-3.63848,0.05888576,0.69188
648.502,208.772,-3.63568,0.05616933,0.69133
649.102,208.975,-3.63077,0.05701936,0.69079
649.702,209.176,-3.63468,0.05664052,0.69024
650.302,209.378,-3.63599,0.05250513,0.6897
650.902,209.58,-3.63589,0.05502068,0.68915
651.502,209.782,-3.63723,0.05478207,0.68861
652.102,209.984,-3.63666,0.05649211,0.68806
652.702,210.1861,-3.63533,0.05457359,0.68752
653.302,210.388,-3.63761,0.05542267,0.68697
653.902,210.59,-3.63632,0.05821471,0.68643
654.502,210.793,-3.64,0.05591773,0.68588
655.102,210.996,-3.63738,0.05552981,0.68533
655.702,211.1978,-3.6381,0.05574248,0.68479
656.302,211.3996,-3.63676,0.05805669,0.68424
656.902,211.601,-3.63807,0.05575902,0.68369
657.502,211.804,-3.63672,0.05899556,0.68315
658.102,212.0067,-3.63833,0.05562131,0.6826
658.702,212.209,-3.6362,0.05630098,0.68205
659.302,212.411,-3.63637,0.05788754,0.6815
659.902,212.613,-3.63589,0.05619115,0.68096
660.502,212.815,-3.63719,0.05827233,0.68041
661.102,213.017,-3.63851,0.05775068,0.67986
661.702,213.219,-3.6379,0.05648387,0.67931
662.302,213.42,-3.63917,0.05816008,0.67876
662.902,213.624,-3.64158,0.06197114,0.67822
663.502,213.826,-3.63924,0.05720396,0.67767
664.102,214.029,-3.63786,0.05814823,0.67712
664.702,214.2315,-3.63785,0.05768389,0.67657
665.302,214.433,-3.63917,0.05670481,0.67602
665.902,214.635,-3.6383,0.05565538,0.67547
666.502,214.838,-3.64078,0.05849121,0.67492
667.102,215.039,-3.63949,0.05962943,0.67438
667.702,215.241,-3.63882,0.05792043,0.67383
668.302,215.444,-3.63982,0.06064249,0.67328
668.902,215.646,-3.6417,0.05884889,0.67273
669.502,215.849,-3.63982,0.05856969,0.67218
670.102,216.052,-3.64114,0.06322933,0.67163
670.702,216.255,-3.6398,0.05931585,0.67108
671.302,216.458,-3.64242,0.06109155,0.67053
671.902,216.66,-3.63957,0.06152239,0.66998
672.502,216.8635,-3.63969,0.06150969,0.66943
673.102,217.067,-3.64387,0.06152886,0.66888
673.702,217.269,-3.63988,0.0574686,0.66833
674.302,217.472,-3.64076,0.0581521,0.66778
674.902,217.6742,-3.64024,0.05950445,0.66722
675.502,217.876,-3.63983,0.05855029,0.66667
676.102,218.079,-3.64246,0.05882672,0.66612
676.702,218.281,-3.64398,0.06209994,0.66557
677.302,218.483,-3.64169,0.05647266,0.66502
677.902,218.686,-3.64181,0.05666126,0.66447
678.502,218.888,-3.64137,0.06111001,0.66392
679.102,219.09,-3.63873,0.05998032,0.66337
679.702,219.293,-3.64294,0.05599909,0.66281
680.302,219.496,-3.64399,0.0563104,0.66226
680.902,219.699,-3.63041,0.05532279,0.66171
681.502,219.902,-3.63621,0.05493726,0.66116
682.102,220.105,-3.64565,0.05992536,0.66061
682.702,220.309,-3.64667,0.05934793,0.66005
683.302,220.511,-3.64328,0.0601018,0.6595
683.902,220.714,-3.64334,0.05979083,0.65895
684.502,220.916,-3.64334,0.05979289,0.6584
685.102,221.1168,-3.64114,0.05629152,0.65784
685.702,221.3181,-3.64154,0.05769022,0.65729
686.302,221.519,-3.64753,0.05818145,0.65674
686.902,221.7214,-3.65217,0.06106271,0.65619
687.502,221.924,-3.65527,0.06551835,0.65563
688.102,222.127,-3.64949,0.06590553,0.65508
688.702,222.33,-3.64553,0.05673112,0.65453
689.302,222.535,-3.64411,0.06128145,0.65397
689.902,222.738,-3.64358,0.05796599,0.65342
690.502,222.942,-3.64754,0.05662758,0.65287
691.102,223.144,-3.64777,0.05903016,0.65231
691.702,223.347,-3.64477,0.05769162,0.65176
692.302,223.549,-3.6421,0.0580965,0.6512
692.902,223.752,-3.64615,0.05555735,0.65065
693.502,223.955,-3.64827,0.05581271,0.6501
694.102,224.157,-3.64738,0.05238066,0.64954
694.702,224.36,-3.64772,0.0565757,0.64899
695.302,224.563,-3.6487,0.05549211,0.64843
695.902,224.766,-3.6474,0.05767649,0.64788
696.502,224.968,-3.65003,0.05775358,0.64732
697.102,225.171,-3.64871,0.05817199,0.64677
697.702,225.373,-3.64624,0.05568858,0.64622
698.302,225.576,-3.64476,0.05440672,0.64566
698.902,225.779,-3.64622,0.0573568,0.64511
699.502,225.982,-3.6481,0.05541292,0.64455
700.102,226.184,-3.64936,0.05594855,0.644
700.702,226.388,-3.65301,0.0582548,0.64344
701.302,226.592,-3.64954,0.0545199,0.64289
701.502,226.659,-3.648,0.05909186,0.6427