File: 01_Data/Rayon_Bamboo_Pillowcase/MCC/Rayon_Bamboo_Pillowcase_MCC_30K_min_220112_R2.txt
Sample ID:	C:\MCC\MCC Cal\Test\Rayon_Bamboo_Pillowcase_MCC_30K_min_220112_R2.txt
Sample Weight (mg):	4.39
Heating Rate (C/s):	0.5
Combustor Temp (C):	900
N2 Flow Rate (cc/min):	80
O2 Flow Rate (cc/min):	20
Calibration File:	C:\MCC\MCC Cal\Coeff1 JN10440_30_210304.txt.txt
T Correction Coefficients:	0	1.024463	0
Time Shift (s):	14
*
Time (s)	Temperature (C)	N2 flow rate (cc/min)	O2 flow rate (cc/min)	Flow Rate (cc/min)	Oxygen (%)	HRR (W/g)	Heating rate (C/s)
0.000	113.940	80.009	19.995	104.058	20.048	-0.140	0.025
2.000	113.904	80.008	19.995	104.057	20.047	-0.073	-0.013
4.000	113.884	80.011	19.992	104.056	20.043	0.220	-0.024
6.000	113.889	80.011	19.994	104.057	20.046	-0.045	0.025
8.000	113.883	80.011	19.994	104.079	20.044	0.151	-0.005
10.001	113.884	80.012	19.994	104.077	20.045	0.079	-0.016
12.000	113.914	80.011	19.994	104.077	20.040	0.387	0.016
14.000	113.955	80.012	19.995	104.092	20.039	0.470	0.022
16.001	113.952	80.011	19.994	104.095	20.039	0.501	0.027
18.001	113.970	80.011	19.995	104.097	20.035	0.786	0.014
20.001	114.010	80.011	19.994	104.093	20.037	0.678	0.049
22.001	114.064	80.008	19.997	104.109	20.035	0.772	0.056
24.001	114.115	80.008	19.995	104.138	20.030	1.149	0.019
26.000	114.181	80.006	19.995	104.161	20.025	1.538	0.034
28.000	114.267	80.007	19.995	104.215	20.022	1.729	0.036
30.001	114.405	80.008	19.994	104.214	20.022	1.784	0.060
32.000	114.587	80.009	19.995	104.220	20.018	2.084	0.118
34.000	114.817	80.007	19.995	104.222	20.019	1.964	0.102
36.000	114.999	80.008	19.995	104.215	20.018	2.021	0.115
38.001	115.235	80.007	19.995	104.211	20.018	2.041	0.135
40.001	115.458	80.008	19.995	104.216	20.019	1.948	0.119
42.001	115.776	80.009	19.993	104.220	20.017	2.125	0.174
44.000	116.008	80.009	19.994	104.241	20.016	2.229	0.134
46.000	116.360	80.007	19.994	104.250	20.014	2.374	0.172
48.001	116.682	80.008	19.993	104.246	20.013	2.399	0.160
50.001	117.044	80.009	19.994	104.247	20.013	2.448	0.192
52.000	117.411	80.008	19.994	104.257	20.014	2.387	0.198
54.000	117.846	80.009	19.994	104.279	20.007	2.848	0.169
56.000	118.272	80.007	19.996	104.280	20.012	2.487	0.233
58.000	118.701	80.007	19.994	104.292	20.004	3.070	0.204
60.000	119.159	80.008	19.994	104.298	20.004	3.058	0.250
62.000	119.703	80.008	19.996	104.299	20.006	2.928	0.243
64.000	120.232	80.009	19.996	104.306	20.001	3.282	0.302
66.000	120.761	80.010	19.995	104.312	19.998	3.504	0.251
67.999	121.366	80.010	19.995	104.323	19.999	3.429	0.299
69.999	121.977	80.012	19.993	104.315	20.000	3.380	0.328
72.000	122.584	80.012	19.993	104.318	19.995	3.753	0.330
73.999	123.221	80.011	19.994	104.323	19.995	3.741	0.311
76.000	123.940	80.011	19.995	104.322	19.995	3.761	0.315
78.000	124.528	80.009	19.994	104.322	19.997	3.592	0.345
80.000	125.242	80.010	19.995	104.325	19.994	3.796	0.312
82.000	125.975	80.009	19.994	104.326	19.993	3.933	0.384
84.000	126.691	80.010	19.996	104.322	19.997	3.641	0.373
86.000	127.439	80.009	19.994	104.319	19.996	3.674	0.358
88.000	128.203	80.011	19.994	104.311	19.997	3.576	0.380
90.000	129.000	80.009	19.995	104.326	19.996	3.664	0.408
92.000	129.763	80.010	19.993	104.331	19.998	3.545	0.409
94.000	130.578	80.012	19.994	104.327	19.999	3.464	0.395
96.000	131.344	80.012	19.995	104.329	19.996	3.678	0.389
98.000	132.205	80.010	19.994	104.341	19.995	3.792	0.464
100.000	133.044	80.010	19.995	104.331	19.997	3.625	0.441
102.000	133.887	80.009	19.994	104.329	19.992	4.006	0.409
104.001	134.755	80.008	19.996	104.327	19.996	3.668	0.422
106.000	135.637	80.007	19.994	104.329	19.994	3.800	0.438
108.000	136.525	80.008	19.993	104.334	19.996	3.692	0.431
110.001	137.440	80.009	19.994	104.334	19.996	3.690	0.433
112.000	138.328	80.010	19.994	104.334	19.997	3.623	0.464
114.000	139.292	80.009	19.994	104.335	20.000	3.376	0.458
116.000	140.224	80.009	19.995	104.333	19.998	3.568	0.468
117.999	141.137	80.010	19.994	104.330	20.000	3.425	0.466
119.999	142.092	80.008	19.995	104.331	19.999	3.444	0.449
122.001	143.066	80.009	19.995	104.330	19.999	3.484	0.480
124.000	144.044	80.010	19.995	104.331	19.995	3.743	0.474
126.000	145.045	80.009	19.995	104.323	19.997	3.578	0.437
128.000	146.032	80.008	19.997	104.325	19.998	3.572	0.496
130.000	147.004	80.007	19.995	104.324	19.997	3.592	0.466
132.000	148.005	80.009	19.995	104.328	19.997	3.590	0.521
134.000	149.001	80.008	19.993	104.329	19.999	3.435	0.484
135.999	149.992	80.007	19.994	104.329	19.996	3.700	0.495
138.000	150.994	80.008	19.994	104.329	19.997	3.582	0.522
140.000	152.009	80.009	19.994	104.322	19.995	3.735	0.514
142.000	152.991	80.009	19.995	104.324	19.997	3.647	0.476
144.000	154.012	80.009	19.994	104.331	19.996	3.670	0.499
146.000	155.028	80.010	19.994	104.321	19.995	3.730	0.522
147.999	156.041	80.009	19.994	104.318	19.998	3.516	0.504
150.000	157.055	80.010	19.993	104.310	20.000	3.394	0.521
152.000	158.099	80.010	19.994	104.316	19.999	3.448	0.511
154.000	159.105	80.010	19.994	104.313	19.999	3.473	0.484
155.999	160.119	80.011	19.994	104.320	20.000	3.424	0.492
157.999	161.203	80.008	19.995	104.304	20.001	3.294	0.545
159.999	162.220	80.010	19.995	104.299	19.998	3.506	0.505
162.000	163.237	80.010	19.994	104.293	20.000	3.353	0.531
163.999	164.247	80.009	19.993	104.294	20.004	3.092	0.539
166.000	165.309	80.009	19.994	104.293	20.003	3.202	0.506
168.000	166.333	80.009	19.993	104.293	20.002	3.204	0.518
170.000	167.371	80.010	19.993	104.305	20.007	2.880	0.484
172.000	168.364	80.010	19.992	104.295	20.008	2.817	0.513
174.000	169.385	80.012	19.992	104.293	20.010	2.680	0.503
176.000	170.453	80.011	19.993	104.294	20.007	2.839	0.513
177.999	171.452	80.012	19.992	104.296	20.006	2.963	0.538
180.000	172.446	80.011	19.992	104.293	20.008	2.796	0.515
181.999	173.493	80.010	19.993	104.289	20.011	2.590	0.512
184.000	174.511	80.011	19.995	104.291	20.010	2.610	0.515
185.999	175.579	80.011	19.994	104.289	20.011	2.600	0.548
188.000	176.556	80.010	19.994	104.288	20.010	2.615	0.502
190.000	177.561	80.009	19.995	104.288	20.010	2.645	0.532
192.000	178.581	80.009	19.995	104.285	20.011	2.608	0.493
193.999	179.579	80.008	19.995	104.285	20.012	2.488	0.494
196.000	180.612	80.010	19.995	104.275	20.008	2.761	0.519
198.000	181.569	80.010	19.994	104.275	20.009	2.712	0.496
200.000	182.579	80.009	19.994	104.272	20.009	2.714	0.506
202.000	183.586	80.010	19.996	104.270	20.010	2.675	0.505
204.000	184.615	80.011	19.995	104.280	20.011	2.539	0.475
205.999	185.555	80.009	19.995	104.271	20.014	2.356	0.491
208.000	186.596	80.010	19.995	104.270	20.013	2.396	0.495
210.000	187.609	80.009	19.994	104.266	20.014	2.358	0.498
212.000	188.580	80.010	19.994	104.274	20.011	2.575	0.463
214.000	189.574	80.008	19.995	104.268	20.012	2.526	0.502
215.999	190.537	80.007	19.994	104.277	20.011	2.551	0.476
218.000	191.533	80.007	19.995	104.268	20.011	2.541	0.491
219.999	192.469	80.008	19.994	104.262	20.014	2.364	0.452
222.000	193.483	80.009	19.994	104.269	20.013	2.439	0.494
224.001	194.454	80.008	19.995	104.260	20.015	2.309	0.485
226.000	195.421	80.008	19.995	104.263	20.015	2.252	0.481
228.000	196.404	80.009	19.995	104.273	20.012	2.482	0.494
230.001	197.379	80.009	19.996	104.273	20.012	2.513	0.516
232.000	198.342	80.010	19.995	104.272	20.016	2.179	0.473
234.000	199.333	80.012	19.994	104.268	20.012	2.493	0.470
236.000	200.289	80.010	19.995	104.259	20.012	2.531	0.456
238.000	201.258	80.009	19.993	104.277	20.010	2.637	0.487
240.000	202.265	80.012	19.993	104.293	20.006	2.931	0.481
242.000	203.247	80.011	19.993	104.290	20.012	2.484	0.458
244.000	204.193	80.010	19.994	104.288	20.010	2.670	0.454
246.000	205.266	80.010	19.994	104.281	20.010	2.619	0.515
248.000	206.239	80.011	19.993	104.268	20.005	2.983	0.504
250.000	207.259	80.010	19.993	104.282	20.009	2.694	0.541
252.000	208.243	80.011	19.993	104.284	20.011	2.580	0.507
254.000	209.235	80.010	19.995	104.273	20.011	2.547	0.493
256.000	210.294	80.010	19.994	104.284	20.007	2.897	0.495
258.000	211.293	80.011	19.995	104.274	20.009	2.710	0.494
260.000	212.335	80.012	19.995	104.284	20.008	2.763	0.491
262.000	213.347	80.011	19.995	104.279	20.011	2.555	0.528
264.000	214.369	80.011	19.993	104.269	20.011	2.563	0.516
265.999	215.370	80.009	19.993	104.264	20.008	2.822	0.501
267.999	216.401	80.011	19.993	104.260	20.009	2.728	0.495
270.001	217.457	80.009	19.994	104.265	20.009	2.755	0.550
272.000	218.474	80.010	19.994	104.268	20.007	2.869	0.489
274.000	219.471	80.009	19.994	104.266	20.008	2.777	0.519
276.000	220.538	80.009	19.994	104.258	20.009	2.716	0.511
278.000	221.533	80.009	19.994	104.267	20.009	2.683	0.508
280.000	222.596	80.010	19.994	104.263	20.007	2.887	0.523
282.000	223.626	80.008	19.994	104.260	20.006	2.971	0.520
284.000	224.669	80.007	19.994	104.263	20.006	2.952	0.501
286.000	225.733	80.009	19.995	104.259	20.004	3.066	0.544
288.000	226.725	80.009	19.994	104.258	20.001	3.285	0.486
290.000	227.746	80.008	19.994	104.255	20.002	3.221	0.508
292.000	228.842	80.009	19.994	104.259	19.999	3.437	0.541
293.999	229.820	80.008	19.994	104.255	19.998	3.541	0.489
296.000	230.829	80.008	19.994	104.255	19.996	3.658	0.515
298.000	231.832	80.009	19.994	104.257	19.998	3.531	0.479
300.000	232.836	80.008	19.994	104.266	19.994	3.794	0.475
302.000	233.859	80.007	19.995	104.260	19.993	3.914	0.507
304.000	234.860	80.008	19.994	104.265	19.992	3.979	0.512
306.000	235.852	80.008	19.995	104.268	19.991	4.040	0.505
308.000	236.873	80.008	19.994	104.270	19.990	4.153	0.514
310.000	237.853	80.008	19.994	104.261	19.985	4.466	0.498
312.000	238.805	80.008	19.995	104.259	19.985	4.467	0.489
314.000	239.792	80.009	19.995	104.257	19.981	4.816	0.483
316.000	240.763	80.009	19.994	104.256	19.978	5.050	0.473
318.000	241.741	80.011	19.994	104.267	19.974	5.311	0.515
320.000	242.730	80.008	19.996	104.259	19.973	5.377	0.511
322.000	243.718	80.008	19.995	104.270	19.972	5.466	0.499
324.000	244.633	80.009	19.995	104.283	19.962	6.184	0.437
326.000	245.627	80.010	19.995	104.284	19.958	6.483	0.430
328.000	246.587	80.009	19.995	104.279	19.956	6.624	0.485
329.999	247.548	80.008	19.993	104.269	19.947	7.346	0.464
332.000	248.516	80.008	19.994	104.279	19.948	7.235	0.501
334.000	249.487	80.010	19.994	104.290	19.941	7.761	0.516
336.000	250.559	80.011	19.993	104.289	19.935	8.237	0.539
337.999	251.465	80.011	19.993	104.290	19.924	8.991	0.493
340.000	252.420	80.011	19.993	104.293	19.918	9.491	0.492
342.000	253.383	80.012	19.993	104.294	19.910	10.063	0.483
344.000	254.359	80.013	19.994	104.302	19.902	10.637	0.503
346.000	255.347	80.012	19.993	104.323	19.891	11.493	0.512
348.000	256.298	80.011	19.994	104.329	19.880	12.276	0.498
350.000	257.269	80.010	19.994	104.331	19.868	13.215	0.513
352.000	258.188	80.007	19.993	104.335	19.858	13.960	0.475
354.000	259.175	80.009	19.994	104.344	19.840	15.261	0.487
355.999	260.137	80.010	19.993	104.337	19.829	16.057	0.465
357.999	261.120	80.008	19.995	104.363	19.814	17.214	0.494
360.001	262.044	80.009	19.993	104.370	19.800	18.247	0.478
362.000	263.025	80.010	19.994	104.373	19.783	19.513	0.480
364.000	263.996	80.009	19.993	104.386	19.765	20.843	0.444
365.999	264.983	80.008	19.994	104.378	19.748	22.088	0.494
367.999	265.953	80.009	19.993	104.374	19.729	23.507	0.504
369.999	266.953	80.010	19.993	104.386	19.711	24.846	0.508
372.000	267.890	80.010	19.995	104.396	19.696	25.959	0.458
373.999	268.888	80.010	19.995	104.407	19.678	27.286	0.481
376.000	269.892	80.010	19.994	104.411	19.661	28.515	0.526
378.000	270.891	80.011	19.995	104.408	19.643	29.908	0.478
380.000	271.928	80.011	19.995	104.406	19.630	30.876	0.509
382.000	272.936	80.008	19.996	104.409	19.616	31.910	0.515
383.999	273.935	80.009	19.995	104.413	19.599	33.121	0.511
386.000	274.930	80.008	19.995	104.418	19.587	34.009	0.537
388.000	275.916	80.008	19.995	104.417	19.569	35.374	0.506
390.000	276.911	80.009	19.995	104.416	19.554	36.483	0.494
392.000	277.890	80.010	19.994	104.426	19.545	37.163	0.516
394.000	278.906	80.009	19.994	104.437	19.534	37.985	0.546
396.000	279.893	80.011	19.995	104.427	19.528	38.450	0.523
397.999	280.855	80.011	19.995	104.434	19.514	39.454	0.456
400.000	281.911	80.011	19.995	104.440	19.500	40.492	0.518
402.000	282.930	80.010	19.994	104.446	19.492	41.095	0.523
404.000	283.879	80.011	19.994	104.449	19.477	42.244	0.473
406.000	284.914	80.009	19.994	104.450	19.473	42.485	0.509
408.000	285.905	80.011	19.995	104.452	19.467	42.978	0.534
410.000	286.925	80.009	19.995	104.460	19.458	43.624	0.491
412.001	287.973	80.010	19.994	104.467	19.445	44.589	0.519
413.999	288.910	80.009	19.996	104.449	19.437	45.227	0.494
416.000	289.944	80.010	19.995	104.466	19.426	46.003	0.514
418.000	290.953	80.010	19.994	104.479	19.416	46.748	0.493
420.000	291.988	80.010	19.995	104.487	19.405	47.617	0.507
422.000	293.017	80.013	19.994	104.491	19.396	48.249	0.508
424.000	294.032	80.011	19.994	104.490	19.382	49.327	0.504
426.000	295.029	80.011	19.993	104.497	19.369	50.267	0.494
428.000	296.078	80.011	19.994	104.513	19.361	50.869	0.533
429.999	297.039	80.010	19.994	104.519	19.347	51.945	0.459
432.000	298.094	80.010	19.993	104.523	19.337	52.670	0.491
434.000	299.092	80.009	19.994	104.529	19.318	54.081	0.475
435.999	300.123	80.008	19.993	104.533	19.304	55.096	0.512
438.001	301.116	80.009	19.993	104.530	19.293	55.904	0.506
440.000	302.142	80.008	19.994	104.546	19.278	57.028	0.518
442.000	303.183	80.009	19.995	104.552	19.261	58.335	0.504
444.000	304.141	80.010	19.994	104.559	19.247	59.393	0.486
446.000	305.170	80.010	19.993	104.560	19.232	60.484	0.510
448.000	306.165	80.010	19.993	104.566	19.216	61.683	0.499
449.999	307.177	80.011	19.993	104.573	19.202	62.742	0.512
452.000	308.183	80.010	19.994	104.570	19.187	63.848	0.523
454.000	309.206	80.010	19.993	104.575	19.170	65.116	0.509
456.000	310.197	80.010	19.993	104.581	19.157	66.040	0.503
458.000	311.234	80.011	19.994	104.602	19.143	67.112	0.497
460.000	312.257	80.010	19.993	104.596	19.128	68.246	0.526
462.000	313.275	80.009	19.994	104.594	19.113	69.341	0.502
464.000	314.295	80.008	19.993	104.599	19.102	70.191	0.513
466.000	315.311	80.009	19.994	104.605	19.090	71.077	0.485
468.000	316.315	80.010	19.994	104.605	19.078	71.975	0.500
470.000	317.337	80.009	19.994	104.609	19.067	72.796	0.494
472.000	318.328	80.007	19.994	104.608	19.053	73.771	0.484
474.000	319.292	80.010	19.994	104.608	19.041	74.697	0.473
476.000	320.323	80.009	19.995	104.607	19.034	75.258	0.514
478.000	321.304	80.009	19.994	104.611	19.025	75.888	0.521
480.000	322.313	80.010	19.993	104.609	19.013	76.748	0.481
482.000	323.345	80.010	19.994	104.611	19.009	77.080	0.493
484.000	324.288	80.011	19.994	104.617	19.005	77.344	0.479
485.999	325.300	80.010	19.995	104.619	18.997	77.968	0.503
488.000	326.292	80.010	19.995	104.610	18.994	78.195	0.479
489.999	327.304	80.010	19.992	104.605	18.994	78.139	0.504
491.999	328.283	80.010	19.994	104.604	18.994	78.179	0.472
494.000	329.270	80.010	19.994	104.594	18.994	78.173	0.475
496.001	330.280	80.009	19.994	104.586	18.998	77.853	0.518
497.999	331.231	80.010	19.994	104.588	19.008	77.104	0.505
500.000	332.209	80.009	19.994	104.573	19.016	76.436	0.486
501.999	333.214	80.010	19.995	104.569	19.026	75.704	0.491
504.000	334.194	80.011	19.995	104.556	19.046	74.195	0.487
506.000	335.201	80.011	19.994	104.537	19.063	72.964	0.489
508.000	336.164	80.012	19.995	104.525	19.085	71.281	0.501
510.000	337.176	80.012	19.994	104.506	19.109	69.492	0.528
512.000	338.089	80.010	19.994	104.488	19.140	67.211	0.490
514.000	339.089	80.010	19.994	104.469	19.172	64.837	0.469
516.000	340.074	80.009	19.995	104.460	19.208	62.152	0.489
518.000	341.020	80.009	19.994	104.443	19.238	59.928	0.511
520.000	341.973	80.009	19.994	104.423	19.274	57.250	0.481
522.000	342.944	80.010	19.994	104.410	19.310	54.558	0.483
523.999	343.893	80.010	19.994	104.393	19.351	51.509	0.450
526.000	344.849	80.010	19.993	104.375	19.395	48.215	0.452
528.000	345.854	80.009	19.994	104.374	19.439	44.970	0.480
530.000	346.846	80.011	19.993	104.363	19.480	41.963	0.499
531.999	347.841	80.009	19.994	104.345	19.522	38.817	0.481
534.000	348.857	80.009	19.994	104.325	19.562	35.828	0.504
536.000	349.854	80.009	19.995	104.301	19.600	33.004	0.502
538.000	350.833	80.008	19.994	104.299	19.640	30.089	0.498
540.000	351.839	80.007	19.994	104.291	19.675	27.501	0.501
541.999	352.914	80.009	19.995	104.273	19.711	24.779	0.532
544.000	353.942	80.009	19.994	104.259	19.743	22.437	0.542
546.000	354.950	80.008	19.996	104.261	19.772	20.252	0.485
548.000	355.973	80.008	19.994	104.257	19.803	17.969	0.512
550.000	356.968	80.009	19.994	104.258	19.828	16.132	0.504
552.000	357.971	80.009	19.994	104.257	19.850	14.533	0.502
554.000	358.997	80.009	19.993	104.253	19.866	13.286	0.480
555.999	360.050	80.010	19.993	104.254	19.886	11.860	0.526
558.000	361.088	80.011	19.993	104.254	19.899	10.873	0.516
560.000	362.162	80.011	19.993	104.247	19.912	9.938	0.501
562.000	363.197	80.010	19.995	104.238	19.921	9.265	0.522
564.000	364.221	80.010	19.994	104.245	19.935	8.210	0.519
566.000	365.264	80.011	19.992	104.239	19.938	7.983	0.507
568.000	366.297	80.011	19.994	104.249	19.944	7.506	0.502
570.000	367.375	80.010	19.994	104.236	19.950	7.116	0.543
572.000	368.387	80.009	19.995	104.233	19.955	6.698	0.513
574.000	369.432	80.011	19.994	104.249	19.959	6.422	0.495
576.000	370.463	80.009	19.994	104.238	19.961	6.257	0.524
578.000	371.488	80.010	19.994	104.235	19.965	5.980	0.489
580.000	372.513	80.010	19.994	104.227	19.970	5.640	0.514
582.000	373.610	80.011	19.994	104.233	19.968	5.782	0.524
584.000	374.639	80.012	19.994	104.232	19.974	5.339	0.512
586.000	375.675	80.012	19.994	104.231	19.974	5.281	0.524
588.000	376.707	80.012	19.993	104.223	19.975	5.261	0.500
590.000	377.793	80.011	19.993	104.224	19.976	5.131	0.540
592.000	378.801	80.013	19.993	104.224	19.978	5.034	0.524
594.000	379.807	80.010	19.994	104.230	19.978	5.043	0.523
596.000	380.851	80.009	19.994	104.227	19.982	4.707	0.505
598.000	381.883	80.009	19.995	104.219	19.982	4.701	0.521
599.999	382.919	80.009	19.995	104.228	19.985	4.500	0.516
602.000	383.891	80.008	19.995	104.218	19.988	4.277	0.487
604.000	384.910	80.008	19.994	104.221	19.987	4.332	0.470
606.000	385.950	80.009	19.995	104.223	19.989	4.196	0.515
608.000	386.975	80.009	19.995	104.218	19.988	4.300	0.531
610.000	388.004	80.010	19.995	104.230	19.990	4.141	0.508
612.000	389.042	80.009	19.993	104.233	19.991	4.061	0.500
614.000	390.007	80.009	19.993	104.213	19.991	4.019	0.503
616.000	391.054	80.010	19.994	104.223	19.989	4.184	0.487
618.000	392.087	80.010	19.994	104.228	19.993	3.906	0.525
619.999	393.138	80.010	19.994	104.219	19.994	3.815	0.502
622.000	394.148	80.009	19.995	104.219	19.994	3.821	0.513
623.999	395.181	80.010	19.994	104.225	19.993	3.868	0.519
625.999	396.255	80.009	19.994	104.225	19.995	3.729	0.543
627.999	397.247	80.008	19.994	104.220	19.993	3.929	0.500
630.001	398.262	80.008	19.993	104.218	19.990	4.100	0.518
631.999	399.293	80.008	19.994	104.226	19.994	3.794	0.496
634.000	400.321	80.007	19.994	104.225	19.995	3.739	0.521
636.000	401.328	80.008	19.995	104.230	19.994	3.794	0.499
638.000	402.357	80.010	19.994	104.218	19.997	3.591	0.500
640.001	403.384	80.010	19.994	104.217	19.997	3.621	0.525
642.000	404.376	80.011	19.994	104.224	19.998	3.507	0.487
643.999	405.388	80.011	19.992	104.212	19.999	3.485	0.479
646.000	406.431	80.013	19.993	104.203	19.997	3.641	0.514
647.999	407.451	80.010	19.994	104.220	20.000	3.403	0.515
650.000	408.466	80.010	19.993	104.213	19.999	3.491	0.522
652.000	409.482	80.012	19.993	104.212	19.998	3.535	0.494
654.001	410.524	80.011	19.995	104.211	19.997	3.617	0.501
656.000	411.597	80.009	19.993	104.165	19.999	3.480	0.544
658.000	412.571	80.011	19.994	104.253	20.001	3.281	0.463
660.000	413.568	80.011	19.993	104.258	19.997	3.619	0.487
662.000	414.569	80.009	19.995	104.214	19.999	3.495	0.478
664.000	415.598	80.011	19.994	104.214	19.998	3.515	0.530
666.000	416.631	80.012	19.993	104.213	20.002	3.265	0.529
667.999	417.618	80.013	19.994	104.210	19.998	3.525	0.509
670.000	418.625	80.011	19.994	104.212	19.997	3.570	0.487
672.000	419.667	80.011	19.995	104.211	19.998	3.520	0.511
674.000	420.666	80.011	19.995	104.213	19.999	3.474	0.511
675.999	421.649	80.010	19.994	104.215	20.000	3.405	0.488
677.999	422.690	80.009	19.994	104.215	20.001	3.326	0.466
680.001	423.736	80.010	19.995	104.215	19.998	3.513	0.525
682.000	424.713	80.010	19.995	104.216	19.996	3.704	0.493
684.000	425.733	80.009	19.995	104.223	19.997	3.609	0.496
685.999	426.753	80.009	19.995	104.201	19.997	3.607	0.510
688.000	427.765	80.009	19.995	104.212	19.999	3.426	0.520
690.000	428.754	80.008	19.996	104.217	20.000	3.417	0.482
692.000	429.795	80.008	19.996	104.215	19.995	3.727	0.499
694.000	430.803	80.010	19.995	104.209	19.997	3.598	0.522
696.000	431.785	80.009	19.994	104.215	20.000	3.388	0.473
698.000	432.812	80.009	19.994	104.214	20.000	3.407	0.503
699.999	433.844	80.008	19.994	104.215	19.998	3.500	0.494
702.000	434.862	80.010	19.995	104.211	19.998	3.561	0.544
704.000	435.890	80.011	19.996	104.212	19.999	3.431	0.513
706.000	436.887	80.009	19.995	104.200	19.999	3.460	0.459
707.999	437.901	80.009	19.995	104.193	20.000	3.378	0.517
710.000	438.910	80.010	19.994	104.199	19.999	3.449	0.493
711.999	439.916	80.009	19.994	104.191	20.004	3.114	0.503
714.000	440.873	80.008	19.995	104.202	19.999	3.480	0.467
716.000	441.882	80.008	19.994	104.196	20.004	3.107	0.474
718.000	442.831	80.009	19.994	104.201	20.001	3.309	0.477
720.000	443.840	80.009	19.995	104.192	20.000	3.376	0.479
721.999	444.840	80.008	19.994	104.199	20.002	3.240	0.495
724.000	445.783	80.010	19.994	104.201	20.001	3.276	0.492
725.999	446.742	80.011	19.994	104.196	20.002	3.256	0.479
728.001	447.738	80.011	19.994	104.193	20.003	3.199	0.517
730.000	448.709	80.011	19.994	104.184	20.005	3.028	0.467
732.000	449.671	80.010	19.994	104.193	20.006	2.938	0.504
734.000	450.638	80.011	19.994	104.192	20.005	3.010	0.455
736.001	451.620	80.011	19.994	104.188	20.005	3.014	0.515
737.999	452.577	80.009	19.993	104.189	20.003	3.189	0.475
740.000	453.555	80.009	19.993	104.204	20.003	3.165	0.493
741.999	454.573	80.011	19.995	104.189	20.005	3.009	0.512
744.000	455.556	80.010	19.994	104.198	20.003	3.185	0.481
746.000	456.576	80.011	19.993	104.206	20.004	3.067	0.523
747.999	457.574	80.012	19.993	104.206	20.005	2.987	0.504
750.000	458.542	80.013	19.993	104.207	20.002	3.200	0.514
752.000	459.535	80.011	19.994	104.198	20.004	3.081	0.475
754.000	460.533	80.011	19.994	104.186	20.009	2.751	0.485
756.000	461.562	80.011	19.994	104.209	20.008	2.772	0.517
757.999	462.560	80.010	19.995	104.195	20.005	3.006	0.496
760.000	463.537	80.008	19.994	104.181	20.005	3.038	0.476
762.000	464.573	80.008	19.995	104.190	20.015	2.256	0.534
764.000	465.535	80.008	19.994	104.206	20.013	2.444	0.516
765.999	466.589	80.008	19.995	104.206	20.005	3.016	0.579
768.000	467.583	80.009	19.995	104.207	20.009	2.716	0.548
770.000	468.702	80.009	19.994	104.199	20.013	2.389	0.531
772.000	469.724	80.010	19.995	104.201	20.014	2.345	0.624
774.000	470.555	80.009	19.995	104.199	20.016	2.233	0.472
776.000	471.772	80.008	19.996	104.207	20.018	2.086	0.505
778.000	472.955	80.010	19.993	104.195	20.013	2.440	0.632
780.000	473.357	80.009	19.996	104.200	20.014	2.352	0.471
782.000	474.895	80.011	19.994	104.195	20.016	2.220	0.320
784.000	475.930	80.010	19.995	104.150	20.016	2.165	0.722
786.000	476.983	80.009	19.996	104.185	20.021	1.845	0.521
788.000	478.148	80.008	19.996	104.258	20.016	2.177	0.614
790.000	479.073	80.009	19.994	104.195	20.020	1.879	0.490
792.000	480.089	80.009	19.996	104.200	20.022	1.747	0.488
794.000	481.133	80.011	19.995	104.200	20.023	1.712	0.453
796.000	482.236	80.008	19.994	104.196	20.024	1.602	0.528
798.000	483.254	80.009	19.996	104.194	20.023	1.680	0.539
800.000	484.313	80.011	19.996	104.191	20.022	1.722	0.520
802.000	485.395	80.010	19.996	104.183	20.022	1.737	0.506
804.000	486.403	80.010	19.994	104.195	20.022	1.742	0.571
805.999	487.471	80.010	19.994	104.190	20.024	1.578	0.566
808.000	488.503	80.011	19.994	104.193	20.023	1.651	0.504
810.000	489.527	80.011	19.994	104.166	20.023	1.674	0.531
812.000	490.598	80.010	19.994	104.157	20.026	1.492	0.542
814.000	491.570	80.010	19.994	104.242	20.027	1.380	0.506
815.999	492.608	80.010	19.994	104.197	20.024	1.590	0.518
817.999	493.658	80.010	19.996	104.194	20.025	1.498	0.468
820.000	494.750	80.010	19.995	104.185	20.027	1.348	0.545
822.000	495.720	80.010	19.994	104.178	20.025	1.547	0.493
824.001	496.800	80.011	19.994	104.182	20.024	1.609	0.499
825.999	497.830	80.010	19.995	104.181	20.027	1.415	0.527
827.999	498.827	80.011	19.995	104.184	20.032	1.049	0.538
829.999	499.837	80.012	19.995	104.190	20.030	1.175	0.507
832.000	500.827	80.013	19.994	104.194	20.027	1.415	0.509
834.000	501.834	80.014	19.993	104.190	20.029	1.228	0.512
836.000	502.781	80.013	19.993	104.187	20.030	1.140	0.501
838.000	503.835	80.012	19.994	104.184	20.028	1.285	0.519
840.000	504.820	80.012	19.995	104.190	20.031	1.079	0.505
841.999	505.822	80.010	19.993	104.185	20.029	1.232	0.487
844.000	506.895	80.010	19.994	104.177	20.027	1.370	0.505
846.000	507.858	80.012	19.994	104.183	20.031	1.057	0.489
848.000	508.850	80.010	19.996	104.185	20.031	1.075	0.493
850.000	509.847	80.009	19.994	104.200	20.033	0.957	0.510
852.000	510.853	80.010	19.995	104.190	20.032	1.014	0.508
854.000	511.871	80.008	19.996	104.190	20.033	0.965	0.527
856.000	512.839	80.010	19.994	104.179	20.032	0.996	0.500
858.000	513.843	80.009	19.995	104.175	20.033	0.918	0.506
859.999	514.889	80.010	19.995	104.179	20.034	0.898	0.542
862.000	515.891	80.011	19.997	104.185	20.031	1.081	0.502
864.000	516.906	80.009	19.995	104.179	20.033	0.937	0.493
866.000	517.899	80.009	19.995	104.189	20.035	0.790	0.499
868.000	518.961	80.010	19.995	104.179	20.034	0.900	0.514
870.000	519.983	80.010	19.995	104.186	20.034	0.871	0.518
871.999	521.004	80.009	19.995	104.194	20.037	0.633	0.530
873.999	521.984	80.010	19.995	104.190	20.038	0.544	0.508
876.000	523.037	80.010	19.994	104.187	20.036	0.696	0.522
878.000	524.047	80.010	19.996	104.181	20.037	0.658	0.515
880.000	525.058	80.008	19.996	104.188	20.036	0.749	0.481
882.000	526.051	80.008	19.995	104.186	20.032	1.018	0.498
884.000	527.130	80.010	19.995	104.181	20.039	0.507	0.528
886.000	528.175	80.009	19.994	104.190	20.034	0.898	0.544
888.000	529.156	80.011	19.996	104.183	20.034	0.849	0.519
890.000	530.188	80.011	19.995	104.188	20.038	0.570	0.508
892.000	531.190	80.011	19.996	104.180	20.033	0.904	0.520
894.000	532.216	80.011	19.993	104.186	20.035	0.792	0.498
896.000	533.239	80.011	19.994	104.187	20.036	0.733	0.520
898.000	534.278	80.009	19.994	104.190	20.036	0.692	0.551
900.000	535.304	80.012	19.994	104.199	20.034	0.871	0.510
902.000	536.319	80.011	19.995	104.177	20.035	0.802	0.483
903.999	537.339	80.011	19.995	104.184	20.036	0.692	0.509
906.000	538.375	80.011	19.994	104.203	20.036	0.717	0.509
908.000	539.388	80.013	19.994	104.191	20.037	0.652	0.520
910.000	540.403	80.013	19.993	104.175	20.038	0.607	0.525
912.000	541.405	80.012	19.993	104.175	20.037	0.633	0.475
914.000	542.403	80.013	19.994	104.182	20.034	0.871	0.509
915.999	543.428	80.013	19.993	104.179	20.043	0.236	0.487
918.000	544.419	80.013	19.994	104.179	20.039	0.519	0.505
920.000	545.407	80.011	19.994	104.201	20.037	0.629	0.504
922.000	546.399	80.011	19.996	104.196	20.039	0.501	0.495
924.000	547.407	80.011	19.996	104.197	20.040	0.397	0.480
926.000	548.497	80.009	19.996	104.195	20.038	0.540	0.496
928.000	549.517	80.011	19.994	104.185	20.038	0.548	0.503
929.999	550.559	80.011	19.994	104.191	20.037	0.637	0.517
932.000	551.571	80.009	19.995	104.181	20.039	0.503	0.518
934.000	552.551	80.009	19.997	104.192	20.038	0.540	0.494
936.000	553.639	80.010	19.995	104.183	20.037	0.615	0.540
938.000	554.674	80.010	19.995	104.192	20.034	0.896	0.543
940.000	555.705	80.010	19.995	104.192	20.038	0.605	0.517
942.000	556.667	80.009	19.995	104.180	20.039	0.499	0.487
944.000	557.686	80.009	19.994	104.188	20.037	0.637	0.514
946.000	558.655	80.009	19.994	104.184	20.039	0.493	0.485
948.000	559.654	80.010	19.995	104.185	20.038	0.597	0.478
950.000	560.678	80.008	19.996	104.186	20.040	0.452	0.502
952.000	561.653	80.008	19.995	104.184	20.043	0.200	0.480
954.000	562.596	80.009	19.994	104.202	20.042	0.265	0.471
956.000	563.611	80.009	19.994	104.197	20.042	0.269	0.478
958.000	564.601	80.009	19.996	104.200	20.041	0.364	0.504
960.000	565.545	80.009	19.995	104.202	20.040	0.405	0.511
962.000	566.528	80.011	19.997	104.187	20.041	0.322	0.487
964.000	567.532	80.009	19.996	104.190	20.040	0.413	0.467
966.000	568.461	80.010	19.996	104.179	20.042	0.248	0.458
967.999	569.495	80.009	19.996	104.187	20.040	0.413	0.473
969.999	570.412	80.011	19.994	104.181	20.041	0.365	0.461
972.000	571.454	80.012	19.995	104.195	20.042	0.255	0.507
973.999	572.475	80.012	19.993	104.194	20.042	0.305	0.547
976.000	573.463	80.009	19.997	104.185	20.040	0.391	0.470
978.000	574.486	80.010	19.996	104.192	20.039	0.491	0.524
980.000	575.514	80.010	19.996	104.195	20.038	0.566	0.521
982.000	576.557	80.010	19.996	104.205	20.040	0.428	0.523
984.000	577.546	80.009	19.996	104.200	20.039	0.501	0.535
985.999	578.596	80.010	19.996	104.177	20.040	0.432	0.535
987.999	579.639	80.010	19.996	104.195	20.044	0.104	0.527
990.000	580.628	80.011	19.995	104.192	20.041	0.381	0.503
991.999	581.671	80.012	19.993	104.187	20.039	0.529	0.533
993.999	582.704	80.011	19.994	104.187	20.036	0.731	0.496
996.000	583.748	80.012	19.995	104.189	20.040	0.407	0.507
998.000	584.792	80.012	19.993	104.192	20.039	0.497	0.509
999.999	585.781	80.013	19.993	104.178	20.041	0.385	0.489
1002.000	586.864	80.012	19.993	104.179	20.043	0.224	0.532
1004.000	587.850	80.010	19.993	104.178	20.043	0.232	0.497
1006.000	588.883	80.010	19.993	104.178	20.043	0.191	0.511
1008.000	589.912	80.009	19.993	104.179	20.042	0.305	0.480
1010.000	590.969	80.008	19.995	104.179	20.041	0.358	0.519
1012.000	592.014	80.008	19.994	104.179	20.042	0.265	0.489
1014.000	593.067	80.010	19.995	104.183	20.041	0.381	0.558
1016.000	594.111	80.010	19.994	104.179	20.045	0.065	0.512
1018.001	595.166	80.009	19.995	104.181	20.046	-0.018	0.547
1020.000	596.209	80.010	19.993	104.192	20.043	0.236	0.553
1022.000	597.235	80.010	19.994	104.179	20.040	0.428	0.499
1024.000	598.265	80.009	19.993	104.186	20.040	0.399	0.510
1026.000	599.338	80.009	19.994	104.183	20.045	0.039	0.547
1028.000	600.330	80.010	19.993	104.178	20.043	0.214	0.554
1029.999	601.415	80.009	19.994	104.179	20.043	0.208	0.515
1032.000	602.412	80.010	19.994	104.182	20.044	0.104	0.493
1034.000	603.424	80.010	19.994	104.185	20.045	0.075	0.506
1036.000	604.463	80.008	19.995	104.185	20.046	-0.022	0.517
1038.000	605.480	80.009	19.994	104.182	20.042	0.297	0.517
1040.000	606.507	80.009	19.996	104.184	20.044	0.110	0.526
1042.000	607.558	80.009	19.997	104.175	20.045	0.088	0.515
1044.000	608.582	80.009	19.994	104.187	20.044	0.092	0.529
1046.000	609.623	80.010	19.995	104.183	20.043	0.189	0.528
1048.000	610.631	80.010	19.994	104.179	20.045	0.061	0.521
1050.000	611.669	80.011	19.995	104.181	20.046	0.000	0.477
1052.001	612.661	80.011	19.996	104.175	20.046	-0.002	0.518
1054.000	613.731	80.011	19.995	104.175	20.045	0.029	0.506
1056.000	614.727	80.012	19.994	104.175	20.046	0.006	0.487
1058.000	615.795	80.010	19.993	104.176	20.046	-0.012	0.539
1060.000	616.783	80.010	19.995	104.178	20.045	0.039	0.495
1062.000	617.806	80.010	19.996	104.180	20.045	0.071	0.496
1064.000	618.852	80.010	19.995	104.176	20.044	0.096	0.547
1066.000	619.870	80.010	19.994	104.175	20.041	0.375	0.515
1068.001	620.835	80.011	19.995	104.176	20.045	0.059	0.481
1070.001	621.885	80.009	19.995	104.175	20.045	0.016	0.520
1071.999	622.870	80.009	19.995	104.179	20.045	0.067	0.490
1074.000	623.888	80.010	19.995	104.180	20.044	0.138	0.474
1076.000	624.893	80.010	19.993	104.177	20.041	0.350	0.503
1078.001	625.873	80.012	19.994	104.176	20.042	0.254	0.480
1080.000	626.894	80.012	19.994	104.178	20.040	0.411	0.492
1081.999	627.929	80.010	19.993	104.175	20.043	0.187	0.510
1084.000	628.948	80.010	19.994	104.175	20.043	0.187	0.516
1086.000	629.957	80.012	19.994	104.177	20.047	-0.069	0.483
1087.999	630.936	80.009	19.994	104.178	20.043	0.228	0.510
1089.999	631.910	80.009	19.994	104.178	20.049	-0.220	0.485
1091.999	632.947	80.009	19.993	104.179	20.045	0.031	0.471
1094.001	633.929	80.008	19.994	104.179	20.042	0.240	0.490
1096.000	635.007	80.008	19.994	104.178	20.045	0.079	0.532
1098.000	636.034	80.009	19.994	104.177	20.044	0.096	0.494
1100.000	637.033	80.009	19.995	104.170	20.045	0.022	0.506
1102.000	638.047	80.009	19.995	104.168	20.047	-0.104	0.495
1104.000	639.061	80.010	19.996	104.174	20.046	0.014	0.499
1106.000	640.085	80.011	19.994	104.174	20.043	0.165	0.550
1108.000	641.061	80.010	19.994	104.173	20.046	0.014	0.485
1110.000	642.041	80.008	19.994	104.171	20.045	0.088	0.503
1111.999	643.089	80.009	19.993	104.175	20.045	0.029	0.520
1114.000	644.110	80.008	19.994	104.172	20.042	0.246	0.513
1116.000	645.116	80.010	19.994	104.176	20.041	0.332	0.527
1118.000	646.168	80.010	19.994	104.176	20.045	0.069	0.578
1120.000	647.143	80.009	19.994	104.179	20.045	0.039	0.529
1121.999	648.183	80.010	19.994	104.186	20.046	0.004	0.505
1123.999	649.224	80.009	19.994	104.183	20.046	-0.055	0.557
1126.000	650.288	80.010	19.994	104.176	20.048	-0.193	0.528
1128.000	651.308	80.012	19.994	104.177	20.044	0.106	0.499
1130.000	652.329	80.010	19.993	104.176	20.046	-0.002	0.529
1132.000	653.361	80.010	19.994	104.174	20.045	0.026	0.498
1134.000	654.489	80.011	19.992	104.174	20.045	0.083	0.525
1136.000	655.528	80.011	19.994	104.181	20.043	0.216	0.539
1138.000	656.542	80.010	19.993	104.175	20.047	-0.102	0.536
1140.000	657.616	80.011	19.994	104.174	20.046	-0.041	0.542
1141.999	658.624	80.010	19.994	104.174	20.045	0.020	0.482
1143.999	659.675	80.010	19.994	104.173	20.048	-0.157	0.530
1146.000	660.713	80.009	19.995	104.182	20.047	-0.130	0.510
1148.000	661.732	80.009	19.994	104.177	20.046	-0.049	0.510
1150.000	662.770	80.010	19.994	104.185	20.048	-0.191	0.500
1152.000	663.841	80.010	19.995	104.177	20.049	-0.234	0.518
1154.000	664.889	80.010	19.994	104.178	20.049	-0.250	0.544
1156.000	665.900	80.010	19.993	104.177	20.050	-0.285	0.505
1158.000	666.938	80.012	19.994	104.177	20.049	-0.208	0.507
1159.999	667.972	80.013	19.994	104.174	20.052	-0.438	0.522
1162.000	669.004	80.012	19.995	104.173	20.052	-0.476	0.514
1164.000	670.046	80.010	19.995	104.176	20.050	-0.297	0.517
1166.000	671.096	80.010	19.995	104.175	20.050	-0.295	0.557
1168.000	672.140	80.008	19.994	104.172	20.047	-0.061	0.535
1170.000	673.180	80.009	19.996	104.174	20.049	-0.267	0.536
1171.999	674.237	80.009	19.995	104.173	20.048	-0.159	0.527
1174.000	675.345	80.010	19.994	104.185	20.048	-0.149	0.580
1175.999	676.436	80.009	19.995	104.169	20.045	0.045	0.547
1178.000	677.490	80.010	19.995	104.180	20.044	0.102	0.539
1180.000	678.509	80.011	19.993	104.177	20.045	0.071	0.516
1181.999	679.583	80.010	19.994	104.170	20.046	-0.029	0.493
1184.000	680.652	80.010	19.993	104.172	20.049	-0.261	0.526
1186.000	681.726	80.011	19.994	104.174	20.044	0.145	0.550
1188.000	682.723	80.011	19.994	104.174	20.046	0.000	0.525
1190.000	683.757	80.011	19.995	104.173	20.045	0.055	0.554
1192.001	684.807	80.010	19.993	104.172	20.041	0.334	0.497
1194.000	685.808	80.010	19.994	104.173	20.044	0.114	0.520
1196.001	686.845	80.011	19.993	104.176	20.043	0.222	0.532
1198.000	687.899	80.009	19.994	104.176	20.046	-0.037	0.493
1199.999	688.851	80.007	19.993	104.177	20.049	-0.279	0.477
1202.001	689.848	80.008	19.995	104.176	20.048	-0.195	0.492
1204.000	690.863	80.009	19.994	104.177	20.046	-0.041	0.473
1206.000	691.825	80.010	19.994	104.178	20.046	-0.053	0.477
1208.000	692.783	80.009	19.995	104.179	20.044	0.118	0.461
1209.999	693.801	80.009	19.995	104.177	20.045	0.037	0.471
1212.001	694.861	80.010	19.993	104.169	20.045	0.049	0.519
1214.000	695.835	80.010	19.993	104.176	20.044	0.114	0.520
1215.999	696.809	80.011	19.994	104.171	20.044	0.130	0.500
1218.000	697.744	80.010	19.994	104.171	20.045	0.020	0.453
1220.001	698.703	80.010	19.992	104.174	20.043	0.232	0.475
1222.001	699.692	80.010	19.994	104.174	20.048	-0.157	0.514
1224.001	700.635	80.010	19.994	104.169	20.048	-0.183	0.476
1226.001	701.594	80.010	19.994	104.164	20.049	-0.220	0.489
1228.001	702.547	80.011	19.994	104.170	20.049	-0.244	0.478
1230.000	703.481	80.009	19.995	104.171	20.048	-0.200	0.476
1232.001	704.427	80.009	19.995	104.174	20.046	-0.033	0.494
1234.001	705.420	80.010	19.994	104.174	20.046	-0.049	0.489
1236.000	706.354	80.011	19.995	104.173	20.047	-0.126	0.488
1238.000	707.300	80.012	19.994	104.174	20.046	-0.014	0.484
1240.001	708.270	80.011	19.994	104.172	20.047	-0.073	0.476
1242.000	709.235	80.012	19.994	104.182	20.044	0.098	0.478
1244.000	710.217	80.011	19.995	104.172	20.045	0.053	0.477
1246.000	711.164	80.012	19.994	104.174	20.046	-0.035	0.466
1248.001	712.182	80.010	19.994	104.174	20.046	-0.016	0.490
1250.000	713.197	80.009	19.994	104.170	20.046	-0.020	0.513
1252.000	714.168	80.009	19.994	104.172	20.044	0.128	0.509
1254.001	715.152	80.010	19.994	104.175	20.048	-0.195	0.507
1256.000	716.182	80.009	19.996	104.175	20.047	-0.071	0.515
1258.000	717.205	80.008	19.995	104.174	20.047	-0.090	0.504
1260.000	718.283	80.008	19.995	104.176	20.048	-0.173	0.530
1262.001	719.256	80.008	19.995	104.176	20.049	-0.230	0.515
1264.000	720.284	80.008	19.995	104.163	20.049	-0.275	0.524
1266.000	721.317	80.008	19.996	104.174	20.047	-0.090	0.525
1268.001	722.373	80.009	19.994	104.178	20.050	-0.307	0.562
1270.001	723.407	80.009	19.995	104.180	20.045	0.033	0.525
1272.000	724.477	80.009	19.995	104.175	20.045	0.049	0.552
1274.001	725.536	80.009	19.996	104.176	20.045	0.016	0.532
1276.001	726.611	80.009	19.994	104.177	20.044	0.104	0.526
1278.001	727.712	80.010	19.994	104.178	20.044	0.116	0.565
1280.000	728.780	80.010	19.993	104.186	20.042	0.273	0.547
1282.001	729.831	80.008	19.995	104.173	20.047	-0.098	0.545
1284.000	730.882	80.008	19.996	104.181	20.046	-0.006	0.534
1286.001	731.949	80.007	19.994	104.177	20.047	-0.081	0.536
1288.000	733.025	80.008	19.994	104.179	20.046	0.004	0.520
1290.000	734.140	80.010	19.994	104.177	20.044	0.092	0.555
1292.000	735.171	80.009	19.993	104.176	20.048	-0.140	0.539
1294.001	736.218	80.009	19.996	104.177	20.049	-0.230	0.513
1296.000	737.328	80.011	19.995	104.177	20.049	-0.214	0.545
1298.000	738.360	80.011	19.994	104.177	20.048	-0.136	0.509
1300.001	739.465	80.011	19.993	104.175	20.047	-0.122	0.547
1302.000	740.518	80.009	19.994	104.174	20.048	-0.163	0.518
1304.000	741.609	80.010	19.993	104.178	20.045	0.037	0.560
1306.000	742.690	80.010	19.995	104.175	20.049	-0.254	0.543
1307.500	743.455	80.010	19.994	104.175	20.048	-0.204	0.525