File: 01_Data/Rayon_Bamboo_Pillowcase/MCC/Rayon_Bamboo_Pillowcase_MCC_30K_min_220110_R1.txt
Sample ID:	C:\MCC\MCC Cal\Test\Rayon_Bamboo_Pillowcase_MCC_30K_min_220110_R1.txt
Sample Weight (mg):	4.93
Heating Rate (C/s):	0.5
Combustor Temp (C):	900
N2 Flow Rate (cc/min):	80
O2 Flow Rate (cc/min):	20
Calibration File:	C:\MCC\MCC Cal\Coeff1 JN10440_30_210304.txt.txt
T Correction Coefficients:	0	1.024463	0
Time Shift (s):	14
*
Time (s)	Temperature (C)	N2 flow rate (cc/min)	O2 flow rate (cc/min)	Flow Rate (cc/min)	Oxygen (%)	HRR (W/g)	Heating rate (C/s)
0.000	111.446	80.001	19.993	103.990	20.213	-0.096	0.006
2.001	111.420	80.001	19.992	103.985	20.212	-0.043	0.013
4.000	111.432	80.003	19.995	104.006	20.212	-0.032	-0.025
6.001	111.436	80.002	19.992	103.998	20.214	-0.141	-0.000
8.000	111.422	80.004	19.992	104.001	20.214	-0.141	-0.010
10.000	111.434	80.003	19.994	103.998	20.212	-0.032	0.022
12.001	111.464	80.005	19.994	103.989	20.211	0.074	0.038
14.000	111.458	80.004	19.994	103.991	20.209	0.202	-0.006
16.000	111.444	80.002	19.993	103.993	20.211	0.058	-0.014
18.000	111.484	80.002	19.993	104.003	20.202	0.607	0.012
20.000	111.495	80.001	19.994	104.049	20.201	0.694	0.004
22.001	111.548	80.000	19.994	104.094	20.194	1.144	0.016
24.000	111.591	80.001	19.995	104.132	20.188	1.584	0.053
26.001	111.676	80.002	19.994	104.179	20.182	1.954	0.041
28.000	111.744	80.001	19.994	104.186	20.181	2.034	0.037
30.000	111.999	80.003	19.994	104.202	20.179	2.175	0.093
32.000	112.163	80.002	19.993	104.214	20.174	2.487	0.099
34.001	112.408	80.003	19.994	104.223	20.171	2.652	0.114
36.000	112.705	80.001	19.994	104.221	20.170	2.762	0.138
38.000	113.024	80.002	19.994	104.224	20.168	2.869	0.163
40.000	113.348	80.003	19.994	104.223	20.166	3.024	0.169
42.000	113.749	80.002	19.994	104.223	20.166	3.002	0.180
44.000	114.199	80.003	19.996	104.222	20.168	2.897	0.211
46.000	114.560	80.003	19.995	104.225	20.166	2.983	0.200
48.000	115.049	80.001	19.995	104.224	20.165	3.052	0.206
50.000	115.537	80.001	19.995	104.227	20.165	3.081	0.239
52.000	116.059	79.999	19.995	104.240	20.164	3.176	0.243
54.000	116.545	80.001	19.995	104.255	20.167	2.962	0.251
56.000	117.113	80.001	19.995	104.244	20.166	3.018	0.273
58.000	117.694	80.001	19.995	104.252	20.163	3.237	0.297
60.000	118.274	80.003	19.995	104.260	20.162	3.280	0.317
62.000	118.878	80.002	19.993	104.262	20.160	3.425	0.280
64.001	119.502	80.003	19.993	104.265	20.160	3.428	0.332
66.001	120.143	80.003	19.993	104.263	20.161	3.329	0.322
68.001	120.819	80.003	19.993	104.262	20.164	3.143	0.315
70.001	121.553	80.002	19.995	104.260	20.163	3.233	0.324
72.001	122.246	80.003	19.994	104.258	20.161	3.371	0.321
74.001	122.966	80.003	19.993	104.250	20.159	3.452	0.364
76.000	123.668	80.001	19.994	104.252	20.161	3.371	0.342
78.001	124.383	80.002	19.994	104.257	20.159	3.450	0.369
80.001	125.205	80.001	19.993	104.260	20.157	3.597	0.377
82.001	125.962	80.001	19.994	104.254	20.154	3.783	0.377
84.000	126.751	80.001	19.993	104.257	20.156	3.673	0.379
86.001	127.548	80.002	19.993	104.261	20.156	3.677	0.404
88.001	128.389	80.002	19.993	104.263	20.157	3.640	0.411
90.000	129.201	80.004	19.994	104.263	20.156	3.704	0.429
92.000	130.057	80.004	19.993	104.265	20.158	3.574	0.432
94.001	130.860	80.004	19.994	104.261	20.157	3.637	0.410
96.001	131.734	80.003	19.994	104.263	20.157	3.606	0.434
98.001	132.603	80.004	19.993	104.263	20.158	3.555	0.461
100.001	133.475	80.004	19.993	104.270	20.158	3.517	0.459
102.001	134.350	80.002	19.994	104.274	20.156	3.656	0.411
104.001	135.228	80.002	19.994	104.263	20.157	3.617	0.448
106.001	136.136	80.001	19.994	104.255	20.154	3.786	0.453
108.001	137.080	80.001	19.993	104.251	20.153	3.863	0.460
110.001	138.010	80.001	19.994	104.258	20.156	3.680	0.447
112.001	138.889	80.002	19.994	104.250	20.155	3.752	0.447
114.001	139.856	80.002	19.994	104.257	20.154	3.813	0.502
116.000	140.769	80.001	19.993	104.257	20.158	3.538	0.470
118.001	141.739	80.001	19.994	104.251	20.156	3.691	0.480
120.001	142.645	80.002	19.993	104.260	20.157	3.608	0.442
122.001	143.653	80.002	19.994	104.260	20.158	3.571	0.506
124.001	144.616	80.002	19.994	104.263	20.155	3.727	0.482
126.001	145.593	80.002	19.994	104.284	20.157	3.606	0.469
128.000	146.587	80.000	19.993	104.263	20.155	3.747	0.498
130.000	147.556	80.001	19.995	104.264	20.155	3.756	0.489
132.000	148.528	80.001	19.994	104.259	20.153	3.881	0.464
134.000	149.522	80.001	19.994	104.246	20.154	3.834	0.484
136.000	150.527	80.000	19.995	104.266	20.153	3.904	0.458
138.001	151.524	80.001	19.996	104.275	20.156	3.665	0.502
140.000	152.538	80.000	19.995	104.270	20.155	3.738	0.486
142.000	153.508	80.001	19.993	104.263	20.151	4.000	0.517
144.000	154.462	80.003	19.995	104.255	20.156	3.691	0.459
146.000	155.472	80.001	19.994	104.260	20.157	3.638	0.523
148.001	156.470	80.002	19.994	104.241	20.157	3.602	0.496
150.000	157.450	80.003	19.994	104.256	20.153	3.904	0.478
152.000	158.487	80.003	19.994	104.261	20.157	3.632	0.500
154.000	159.525	80.004	19.994	104.261	20.156	3.705	0.527
156.001	160.496	80.002	19.993	104.250	20.156	3.688	0.498
158.000	161.528	80.002	19.994	104.250	20.158	3.556	0.536
160.000	162.518	80.002	19.995	104.254	20.158	3.527	0.488
162.000	163.515	80.003	19.994	104.233	20.159	3.458	0.488
164.001	164.543	80.003	19.994	104.244	20.157	3.623	0.504
166.001	165.593	80.003	19.994	104.229	20.157	3.583	0.512
168.000	166.595	80.005	19.994	104.226	20.154	3.831	0.488
170.000	167.600	80.004	19.994	104.225	20.160	3.403	0.501
172.000	168.599	80.004	19.994	104.231	20.156	3.705	0.505
174.000	169.644	80.005	19.994	104.225	20.155	3.761	0.535
176.001	170.661	80.005	19.993	104.225	20.157	3.582	0.498
178.000	171.656	80.003	19.993	104.243	20.159	3.478	0.521
180.000	172.659	80.003	19.993	104.229	20.160	3.389	0.490
182.000	173.713	80.001	19.994	104.251	20.160	3.423	0.520
184.000	174.693	80.003	19.993	104.253	20.159	3.479	0.547
186.000	175.673	80.003	19.994	104.234	20.161	3.370	0.476
188.000	176.657	80.002	19.994	104.205	20.163	3.230	0.486
190.000	177.653	80.002	19.993	104.218	20.161	3.366	0.518
192.000	178.686	80.002	19.994	104.225	20.163	3.180	0.505
194.000	179.711	80.001	19.994	104.261	20.162	3.306	0.514
196.000	180.696	80.001	19.995	104.240	20.159	3.491	0.478
198.000	181.672	80.002	19.993	104.212	20.161	3.339	0.490
200.001	182.697	80.001	19.995	104.203	20.160	3.427	0.503
202.000	183.706	80.002	19.994	104.222	20.161	3.323	0.509
204.000	184.627	80.000	19.994	104.218	20.159	3.475	0.490
206.000	185.700	80.001	19.993	104.224	20.161	3.335	0.535
208.000	186.688	80.000	19.994	104.228	20.157	3.573	0.504
210.000	187.684	80.001	19.994	104.219	20.162	3.282	0.501
212.000	188.676	80.001	19.994	104.223	20.160	3.378	0.510
214.000	189.652	80.001	19.994	104.225	20.162	3.291	0.495
216.000	190.633	80.001	19.993	104.233	20.160	3.393	0.490
218.000	191.632	80.002	19.994	104.190	20.158	3.525	0.491
220.000	192.566	80.001	19.994	104.203	20.160	3.407	0.476
222.000	193.604	80.002	19.994	104.208	20.161	3.315	0.496
224.000	194.627	80.002	19.994	104.200	20.160	3.418	0.508
226.000	195.565	80.003	19.994	104.217	20.162	3.244	0.481
228.000	196.533	80.003	19.994	104.218	20.162	3.275	0.469
230.000	197.490	80.002	19.995	104.218	20.160	3.420	0.479
232.000	198.506	80.003	19.994	104.210	20.159	3.474	0.496
234.000	199.484	80.003	19.994	104.204	20.163	3.239	0.483
236.000	200.437	80.003	19.995	104.207	20.163	3.208	0.461
238.001	201.441	80.003	19.995	104.192	20.162	3.302	0.501
240.000	202.446	80.002	19.994	104.200	20.160	3.411	0.478
242.000	203.435	80.003	19.994	104.213	20.160	3.393	0.492
244.000	204.404	80.002	19.995	104.202	20.160	3.380	0.488
246.000	205.371	80.002	19.995	104.193	20.161	3.333	0.482
248.000	206.402	80.003	19.993	104.211	20.158	3.572	0.489
250.000	207.425	80.005	19.995	104.212	20.159	3.467	0.521
252.000	208.361	80.004	19.994	104.209	20.160	3.418	0.438
254.001	209.333	80.004	19.994	104.213	20.159	3.459	0.479
256.000	210.313	80.004	19.993	104.208	20.160	3.412	0.482
258.000	211.313	80.004	19.994	104.219	20.157	3.629	0.495
260.000	212.313	80.004	19.993	104.220	20.155	3.732	0.499
262.000	213.285	80.002	19.994	104.206	20.157	3.628	0.479
264.000	214.302	80.001	19.994	104.201	20.157	3.628	0.478
266.000	215.275	80.001	19.994	104.191	20.157	3.591	0.506
268.000	216.275	80.002	19.993	104.200	20.153	3.844	0.495
270.000	217.288	80.003	19.993	104.207	20.153	3.859	0.518
272.000	218.290	80.002	19.994	104.216	20.155	3.767	0.515
274.000	219.246	80.001	19.993	104.222	20.153	3.855	0.492
276.000	220.233	80.003	19.993	104.194	20.152	3.939	0.499
278.000	221.224	80.002	19.993	104.194	20.155	3.716	0.513
280.000	222.228	80.003	19.993	104.217	20.154	3.776	0.492
282.000	223.206	80.002	19.994	104.216	20.149	4.159	0.482
284.000	224.216	80.004	19.994	104.203	20.152	3.961	0.481
286.000	225.202	80.002	19.994	104.203	20.150	4.087	0.489
288.000	226.226	80.001	19.993	104.222	20.147	4.253	0.495
290.000	227.172	80.002	19.993	104.210	20.145	4.367	0.490
292.000	228.226	80.001	19.995	104.218	20.145	4.365	0.515
294.000	229.240	80.001	19.995	104.222	20.145	4.407	0.519
296.001	230.221	80.001	19.996	104.213	20.142	4.625	0.490
298.000	231.223	80.001	19.994	104.211	20.144	4.484	0.485
300.001	232.265	80.001	19.995	104.216	20.139	4.806	0.493
302.000	233.185	80.001	19.995	104.216	20.139	4.821	0.462
304.000	234.249	80.001	19.995	104.215	20.132	5.258	0.516
306.000	235.232	80.002	19.995	104.206	20.134	5.139	0.508
308.000	236.215	80.002	19.994	104.202	20.135	5.069	0.461
310.000	237.267	80.002	19.996	104.194	20.129	5.443	0.488
312.000	238.294	80.002	19.994	104.213	20.126	5.640	0.521
314.001	239.252	80.002	19.994	104.213	20.123	5.846	0.509
316.000	240.266	80.002	19.994	104.216	20.117	6.215	0.519
318.000	241.219	80.001	19.994	104.219	20.117	6.234	0.486
320.000	242.264	80.001	19.995	104.223	20.113	6.529	0.496
322.000	243.323	80.001	19.995	104.225	20.112	6.593	0.525
324.001	244.295	80.002	19.995	104.216	20.105	7.047	0.512
326.000	245.305	80.002	19.995	104.221	20.101	7.326	0.504
328.001	246.325	80.002	19.994	104.237	20.097	7.540	0.505
330.001	247.325	80.002	19.994	104.243	20.090	8.060	0.475
332.000	248.321	80.003	19.995	104.250	20.080	8.671	0.516
334.001	249.358	80.002	19.993	104.222	20.073	9.134	0.485
336.000	250.409	80.003	19.994	104.237	20.072	9.207	0.522
338.000	251.442	80.003	19.994	104.236	20.062	9.856	0.521
340.001	252.450	80.002	19.993	104.223	20.054	10.378	0.499
342.000	253.454	80.003	19.994	104.254	20.043	11.113	0.483
344.000	254.460	80.001	19.995	104.261	20.035	11.668	0.507
346.000	255.466	80.001	19.995	104.262	20.023	12.426	0.487
348.001	256.442	80.003	19.993	104.285	20.014	13.040	0.500
350.000	257.453	80.002	19.994	104.283	20.001	13.899	0.487
352.000	258.450	80.001	19.994	104.279	19.987	14.800	0.462
354.000	259.500	80.001	19.995	104.291	19.975	15.620	0.510
356.000	260.432	80.002	19.996	104.300	19.959	16.655	0.494
358.000	261.453	80.000	19.994	104.288	19.940	17.931	0.469
360.001	262.421	80.003	19.995	104.291	19.921	19.196	0.475
362.000	263.429	80.002	19.995	104.296	19.901	20.487	0.505
364.000	264.413	80.003	19.995	104.302	19.883	21.725	0.486
366.000	265.404	80.002	19.993	104.311	19.864	22.935	0.473
368.000	266.414	80.003	19.992	104.339	19.840	24.555	0.492
370.000	267.440	80.001	19.995	104.338	19.823	25.701	0.502
372.000	268.415	80.003	19.994	104.343	19.801	27.115	0.497
374.000	269.385	80.001	19.994	104.358	19.780	28.513	0.491
376.000	270.390	80.002	19.995	104.341	19.760	29.852	0.508
378.000	271.404	80.000	19.995	104.342	19.743	30.991	0.478
380.000	272.428	80.001	19.996	104.353	19.725	32.165	0.494
382.000	273.364	80.000	19.993	104.371	19.706	33.376	0.449
384.000	274.385	80.002	19.994	104.362	19.692	34.324	0.473
386.000	275.364	80.001	19.995	104.392	19.675	35.471	0.472
388.001	276.357	80.003	19.993	104.415	19.662	36.280	0.486
390.001	277.396	80.002	19.995	104.399	19.653	36.891	0.492
392.001	278.357	80.002	19.995	104.379	19.636	38.016	0.492
394.000	279.392	80.002	19.994	104.381	19.620	39.097	0.500
396.000	280.321	80.002	19.995	104.386	19.607	39.951	0.468
398.000	281.365	80.000	19.995	104.375	19.595	40.747	0.533
400.000	282.358	80.002	19.996	104.392	19.586	41.374	0.524
402.000	283.353	80.001	19.994	104.389	19.576	42.007	0.508
404.000	284.404	80.000	19.995	104.398	19.568	42.515	0.532
406.000	285.354	80.002	19.993	104.422	19.558	43.186	0.485
408.000	286.341	80.002	19.994	104.428	19.545	44.069	0.474
410.000	287.359	80.003	19.995	104.415	19.535	44.748	0.502
412.000	288.370	80.003	19.994	104.400	19.526	45.357	0.485
414.000	289.352	80.005	19.995	104.408	19.512	46.257	0.487
416.000	290.398	80.004	19.996	104.414	19.502	46.940	0.517
418.000	291.427	80.004	19.996	104.444	19.490	47.733	0.535
420.000	292.456	80.002	19.995	104.451	19.484	48.113	0.502
422.001	293.437	80.002	19.995	104.457	19.467	49.241	0.496
424.000	294.441	80.001	19.996	104.464	19.456	49.973	0.504
426.000	295.466	80.001	19.994	104.474	19.445	50.675	0.509
428.000	296.417	80.002	19.995	104.449	19.431	51.639	0.471
430.000	297.457	80.001	19.996	104.465	19.417	52.567	0.501
432.000	298.508	80.001	19.995	104.462	19.403	53.465	0.529
434.000	299.511	80.001	19.995	104.469	19.388	54.483	0.518
436.000	300.496	80.002	19.995	104.476	19.374	55.407	0.507
438.000	301.541	80.002	19.994	104.483	19.358	56.448	0.562
440.000	302.496	80.003	19.993	104.484	19.340	57.637	0.498
442.000	303.516	80.000	19.995	104.486	19.324	58.682	0.511
444.000	304.510	80.001	19.996	104.499	19.312	59.544	0.475
446.000	305.535	80.002	19.994	104.513	19.295	60.610	0.507
448.000	306.501	80.002	19.993	104.517	19.278	61.748	0.504
450.000	307.493	80.001	19.994	104.504	19.266	62.568	0.472
452.001	308.480	80.002	19.993	104.504	19.247	63.809	0.511
454.000	309.504	80.000	19.995	104.507	19.230	64.936	0.522
456.001	310.476	80.001	19.993	104.524	19.217	65.846	0.477
458.000	311.483	80.001	19.995	104.525	19.199	66.994	0.493
460.001	312.518	80.000	19.994	104.529	19.185	67.972	0.529
462.000	313.493	80.000	19.995	104.542	19.172	68.828	0.484
464.001	314.511	80.000	19.994	104.557	19.164	69.361	0.462
466.000	315.516	80.002	19.993	104.568	19.149	70.305	0.529
468.001	316.493	80.002	19.993	104.564	19.136	71.205	0.471
470.000	317.488	80.003	19.994	104.576	19.125	71.915	0.485
472.001	318.492	80.002	19.993	104.587	19.115	72.593	0.490
474.000	319.477	80.003	19.994	104.589	19.101	73.481	0.505
476.000	320.454	80.003	19.994	104.562	19.092	74.100	0.485
478.000	321.488	80.003	19.996	104.573	19.083	74.695	0.528
480.001	322.495	80.002	19.994	104.573	19.071	75.499	0.505
482.000	323.500	80.001	19.994	104.561	19.064	75.936	0.501
484.000	324.477	80.002	19.994	104.568	19.053	76.686	0.498
486.000	325.488	80.002	19.995	104.575	19.046	77.149	0.504
488.001	326.516	80.004	19.993	104.572	19.043	77.286	0.507
490.000	327.513	80.004	19.997	104.577	19.035	77.853	0.499
492.000	328.536	80.005	19.995	104.566	19.033	77.945	0.497
494.001	329.543	80.004	19.995	104.561	19.034	77.932	0.492
496.000	330.505	80.004	19.996	104.552	19.035	77.867	0.470
498.000	331.505	80.004	19.994	104.535	19.039	77.581	0.491
500.000	332.523	80.007	19.996	104.530	19.044	77.222	0.503
502.000	333.516	80.003	19.996	104.531	19.050	76.786	0.505
504.000	334.543	80.001	19.995	104.525	19.065	75.776	0.502
506.000	335.581	80.000	19.996	104.528	19.080	74.762	0.518
508.001	336.568	80.001	19.996	104.520	19.099	73.520	0.502
510.000	337.580	80.001	19.995	104.495	19.120	72.141	0.518
512.001	338.560	80.001	19.996	104.470	19.143	70.556	0.497
514.001	339.610	79.999	19.995	104.457	19.173	68.619	0.547
516.001	340.559	80.001	19.996	104.446	19.204	66.566	0.478
518.001	341.567	80.001	19.994	104.419	19.237	64.339	0.505
520.001	342.611	80.003	19.994	104.396	19.274	61.913	0.537
522.001	343.598	80.001	19.993	104.378	19.313	59.268	0.502
524.001	344.593	80.002	19.994	104.356	19.354	56.572	0.482
526.000	345.603	80.002	19.994	104.344	19.397	53.732	0.519
528.000	346.641	80.003	19.994	104.326	19.445	50.600	0.494
530.000	347.638	80.002	19.994	104.301	19.495	47.273	0.493
532.000	348.666	80.003	19.995	104.271	19.537	44.488	0.510
534.000	349.687	80.001	19.994	104.246	19.588	41.106	0.516
536.001	350.681	80.001	19.995	104.244	19.634	38.104	0.502
538.000	351.677	80.003	19.994	104.230	19.678	35.214	0.498
540.000	352.673	80.001	19.995	104.214	19.721	32.355	0.489
542.000	353.701	80.002	19.994	104.202	19.759	29.870	0.476
544.000	354.781	80.002	19.993	104.202	19.800	27.110	0.547
546.000	355.773	80.002	19.994	104.195	19.838	24.654	0.504
548.000	356.811	80.003	19.994	104.185	19.874	22.275	0.516
550.000	357.796	80.003	19.996	104.188	19.903	20.331	0.500
552.001	358.846	80.005	19.994	104.198	19.930	18.593	0.476
554.000	359.827	80.004	19.994	104.181	19.953	17.053	0.485
556.000	360.849	80.004	19.993	104.181	19.971	15.884	0.513
558.000	361.849	80.002	19.993	104.180	19.990	14.602	0.480
560.000	362.894	80.003	19.993	104.155	20.009	13.369	0.512
562.000	363.932	80.004	19.994	104.145	20.023	12.421	0.516
564.000	364.941	80.003	19.994	104.156	20.037	11.512	0.485
566.000	365.991	80.003	19.994	104.181	20.046	10.945	0.524
568.001	366.962	80.002	19.993	104.171	20.053	10.486	0.508
570.000	367.967	80.002	19.994	104.146	20.060	10.024	0.526
572.000	368.962	80.002	19.992	104.145	20.067	9.510	0.491
574.000	370.008	80.002	19.994	104.166	20.070	9.365	0.506
576.000	371.016	80.003	19.995	104.160	20.078	8.781	0.510
578.000	372.009	80.004	19.993	104.143	20.083	8.502	0.497
580.000	373.029	80.002	19.994	104.151	20.087	8.238	0.504
582.000	374.058	80.003	19.994	104.154	20.093	7.839	0.502
584.000	375.045	80.002	19.994	104.157	20.092	7.899	0.488
586.000	376.083	80.002	19.994	104.147	20.093	7.817	0.548
588.000	377.065	80.001	19.993	104.163	20.093	7.848	0.494
590.001	378.075	80.000	19.993	104.155	20.096	7.654	0.492
592.001	379.093	80.000	19.995	104.156	20.094	7.731	0.498
594.001	380.094	80.000	19.995	104.139	20.094	7.764	0.518
596.000	381.105	80.002	19.994	104.141	20.100	7.349	0.494
598.000	382.055	80.002	19.995	104.155	20.099	7.403	0.481
600.000	383.081	80.002	19.994	104.164	20.101	7.300	0.509
602.000	384.087	80.000	19.996	104.148	20.101	7.276	0.493
604.000	385.092	80.000	19.995	104.142	20.100	7.377	0.513
606.000	386.095	80.000	19.994	104.150	20.104	7.099	0.494
608.001	387.061	80.000	19.994	104.155	20.104	7.123	0.465
610.001	388.084	80.000	19.995	104.165	20.105	7.048	0.531
612.000	389.086	80.001	19.994	104.149	20.109	6.744	0.504
614.000	390.107	80.002	19.995	104.150	20.107	6.878	0.529
616.000	391.128	80.001	19.994	104.147	20.111	6.654	0.511
618.000	392.078	80.000	19.994	104.152	20.109	6.757	0.512
620.000	393.116	80.000	19.994	104.143	20.107	6.888	0.528
622.000	394.178	80.001	19.993	104.121	20.108	6.853	0.549
624.000	395.139	80.002	19.993	104.126	20.110	6.683	0.467
626.000	396.181	80.003	19.995	104.126	20.109	6.741	0.542
628.000	397.128	80.002	19.994	104.137	20.111	6.667	0.496
630.000	398.182	80.004	19.994	104.145	20.112	6.573	0.517
632.000	399.154	80.003	19.994	104.146	20.115	6.346	0.502
634.000	400.168	80.003	19.994	104.145	20.112	6.539	0.480
636.000	401.139	80.003	19.993	104.145	20.114	6.448	0.491
638.000	402.188	80.003	19.994	104.146	20.117	6.253	0.468
640.001	403.155	80.001	19.994	104.146	20.116	6.297	0.496
642.000	404.158	80.002	19.994	104.147	20.118	6.144	0.498
644.000	405.116	80.001	19.993	104.148	20.120	6.071	0.471
646.000	406.147	80.002	19.993	104.147	20.115	6.346	0.509
648.000	407.125	80.002	19.993	104.135	20.118	6.143	0.507
650.000	408.149	80.004	19.993	104.138	20.118	6.141	0.518
652.000	409.166	80.002	19.993	104.147	20.117	6.246	0.506
654.000	410.164	80.004	19.994	104.149	20.118	6.179	0.491
656.000	411.174	80.005	19.993	104.146	20.119	6.138	0.518
658.000	412.226	80.002	19.993	104.146	20.121	5.954	0.526
660.001	413.232	80.003	19.993	104.144	20.122	5.911	0.488
662.000	414.193	80.004	19.994	104.142	20.120	6.014	0.478
664.000	415.181	80.002	19.995	104.143	20.121	5.975	0.506
666.000	416.221	80.001	19.994	104.144	20.121	6.008	0.529
668.001	417.249	80.001	19.994	104.145	20.120	6.012	0.549
670.000	418.250	80.002	19.993	104.149	20.122	5.910	0.504
672.000	419.270	80.000	19.995	104.148	20.123	5.862	0.487
674.000	420.297	79.999	19.993	104.147	20.122	5.888	0.493
676.000	421.317	80.001	19.993	104.146	20.127	5.596	0.499
678.000	422.301	80.000	19.993	104.149	20.125	5.692	0.488
680.001	423.332	80.002	19.992	104.144	20.122	5.913	0.488
682.000	424.349	80.002	19.994	104.139	20.122	5.927	0.499
684.001	425.383	80.002	19.994	104.110	20.121	5.968	0.495
686.000	426.404	80.004	19.995	104.115	20.116	6.276	0.500
688.000	427.403	80.001	19.995	104.116	20.116	6.284	0.480
690.000	428.469	80.002	19.995	104.120	20.119	6.084	0.532
692.000	429.483	80.003	19.994	104.139	20.122	5.894	0.526
694.000	430.515	80.002	19.995	104.144	20.123	5.863	0.514
696.000	431.509	80.002	19.996	104.153	20.125	5.742	0.518
698.000	432.551	80.001	19.994	104.154	20.122	5.902	0.487
700.000	433.562	80.001	19.995	104.141	20.124	5.760	0.501
702.001	434.642	80.001	19.995	104.150	20.120	6.068	0.544
704.000	435.644	80.002	19.995	104.141	20.118	6.176	0.532
706.000	436.681	80.003	19.994	104.144	20.121	5.944	0.495
708.001	437.681	80.002	19.994	104.123	20.126	5.617	0.509
710.000	438.743	80.005	19.993	104.134	20.125	5.741	0.531
712.000	439.719	80.004	19.993	104.126	20.123	5.844	0.487
714.000	440.744	80.004	19.993	104.118	20.120	6.028	0.539
716.001	441.748	80.001	19.994	104.129	20.125	5.715	0.489
718.000	442.744	80.002	19.993	104.133	20.128	5.491	0.490
720.000	443.794	80.003	19.993	104.139	20.125	5.705	0.515
722.001	444.786	80.002	19.994	104.120	20.125	5.701	0.493
724.000	445.838	80.003	19.994	104.117	20.125	5.717	0.518
726.000	446.836	80.003	19.993	104.112	20.125	5.729	0.534
728.000	447.785	80.003	19.994	104.124	20.125	5.745	0.486
730.000	448.811	80.003	19.995	104.141	20.123	5.835	0.522
732.000	449.837	80.003	19.994	104.126	20.126	5.637	0.520
734.001	450.812	80.004	19.994	104.122	20.125	5.708	0.507
736.000	451.826	80.005	19.994	104.113	20.124	5.778	0.512
738.000	452.828	80.005	19.993	104.116	20.128	5.511	0.494
740.000	453.771	80.004	19.994	104.128	20.125	5.686	0.479
742.000	454.782	80.005	19.993	104.131	20.127	5.548	0.501
744.001	455.774	80.002	19.993	104.128	20.125	5.681	0.512
746.000	456.808	80.001	19.994	104.105	20.124	5.800	0.509
748.001	457.767	80.001	19.993	104.102	20.125	5.721	0.515
750.001	458.778	80.004	19.994	104.106	20.129	5.480	0.492
752.000	459.804	80.002	19.994	104.112	20.128	5.493	0.512
754.000	460.797	80.001	19.994	104.131	20.126	5.627	0.506
756.000	461.797	80.002	19.994	104.143	20.131	5.299	0.479
758.000	462.825	80.001	19.994	104.144	20.129	5.480	0.520
760.000	463.768	80.002	19.993	104.150	20.131	5.320	0.502
762.000	464.792	80.002	19.992	104.118	20.129	5.421	0.491
764.000	465.769	80.001	19.993	104.099	20.128	5.492	0.504
766.000	466.837	80.002	19.993	104.129	20.131	5.326	0.528
768.000	467.825	80.001	19.995	104.115	20.137	4.921	0.514
770.000	468.801	80.002	19.994	104.108	20.133	5.186	0.507
772.000	469.813	80.001	19.995	104.106	20.131	5.284	0.509
774.001	470.863	79.999	19.993	104.117	20.135	5.078	0.504
776.000	471.837	80.002	19.996	104.130	20.135	5.025	0.473
778.001	472.865	80.000	19.994	104.116	20.137	4.933	0.488
780.000	473.900	79.999	19.995	104.109	20.138	4.886	0.501
782.000	474.962	80.000	19.994	104.112	20.139	4.769	0.559
784.000	475.964	80.000	19.994	104.144	20.140	4.743	0.487
786.000	476.957	80.002	19.995	104.112	20.139	4.819	0.500
788.001	477.953	80.001	19.994	104.107	20.141	4.648	0.520
790.001	478.986	80.004	19.997	104.149	20.143	4.531	0.521
792.000	479.988	80.004	19.995	104.134	20.143	4.540	0.528
794.001	480.973	80.004	19.994	104.106	20.139	4.814	0.505
796.000	482.003	80.003	19.994	104.105	20.141	4.632	0.514
798.000	483.028	80.005	19.993	104.108	20.137	4.926	0.499
800.000	484.006	80.002	19.993	104.127	20.139	4.797	0.495
802.001	485.033	80.002	19.994	104.117	20.141	4.626	0.535
804.000	486.012	80.005	19.994	104.106	20.138	4.875	0.500
806.000	487.040	80.004	19.995	104.110	20.140	4.749	0.472
808.000	488.044	80.003	19.994	104.110	20.141	4.646	0.503
810.000	489.003	80.004	19.994	104.114	20.138	4.848	0.470
812.000	490.026	80.004	19.994	104.128	20.142	4.623	0.501
814.000	491.027	80.004	19.994	104.103	20.146	4.332	0.481
816.001	492.037	80.006	19.994	104.106	20.143	4.556	0.484
818.000	493.014	80.004	19.994	104.103	20.143	4.542	0.504
820.000	494.073	80.004	19.993	104.106	20.144	4.442	0.546
822.000	495.080	80.002	19.993	104.107	20.140	4.744	0.533
824.000	496.112	80.002	19.995	104.124	20.141	4.666	0.497
826.000	497.131	80.002	19.993	104.114	20.142	4.592	0.522
828.001	498.135	80.002	19.994	104.125	20.142	4.614	0.497
830.001	499.170	80.002	19.993	104.115	20.145	4.365	0.523
832.000	500.185	80.002	19.993	104.108	20.148	4.211	0.516
834.000	501.165	80.001	19.994	104.115	20.147	4.285	0.494
836.001	502.178	80.001	19.993	104.115	20.148	4.213	0.493
838.000	503.202	80.001	19.994	104.114	20.147	4.233	0.503
840.001	504.216	80.001	19.993	104.116	20.146	4.343	0.507
842.001	505.242	80.002	19.993	104.110	20.150	4.094	0.498
844.000	506.259	80.002	19.994	104.115	20.147	4.258	0.514
846.000	507.294	80.002	19.994	104.116	20.150	4.061	0.529
848.000	508.330	80.000	19.994	104.114	20.146	4.327	0.527
850.001	509.336	80.001	19.995	104.108	20.147	4.229	0.500
852.000	510.378	80.002	19.995	104.109	20.150	4.086	0.513
854.000	511.376	80.001	19.995	104.106	20.152	3.955	0.521
856.000	512.370	80.002	19.995	104.113	20.150	4.077	0.493
858.000	513.403	80.000	19.994	104.122	20.153	3.843	0.520
860.000	514.459	80.001	19.995	104.115	20.153	3.857	0.545
862.001	515.502	80.000	19.995	104.113	20.154	3.806	0.518
864.000	516.538	80.001	19.996	104.116	20.154	3.772	0.541
866.001	517.551	80.001	19.993	104.111	20.151	4.003	0.509
868.000	518.608	80.004	19.995	104.111	20.152	3.905	0.550
870.000	519.636	80.001	19.993	104.106	20.153	3.850	0.500
872.000	520.637	80.003	19.995	104.103	20.152	3.913	0.523
874.001	521.675	80.006	19.996	104.094	20.148	4.223	0.520
876.000	522.672	80.005	19.995	104.098	20.149	4.146	0.478
878.001	523.737	80.003	19.994	104.102	20.154	3.828	0.482
880.000	524.721	80.003	19.994	104.101	20.151	4.014	0.505
882.000	525.775	80.003	19.995	104.103	20.150	4.043	0.501
884.000	526.765	80.001	19.994	104.101	20.150	4.094	0.501
886.000	527.790	80.002	19.993	104.102	20.152	3.963	0.488
888.000	528.810	80.003	19.994	104.105	20.151	3.972	0.513
890.001	529.845	80.001	19.993	104.106	20.152	3.904	0.510
892.000	530.849	80.003	19.993	104.107	20.155	3.761	0.512
894.000	531.884	80.006	19.993	104.109	20.151	4.030	0.507
896.000	532.884	80.004	19.993	104.107	20.152	3.916	0.468
898.000	533.904	80.002	19.993	104.105	20.154	3.816	0.488
900.001	534.901	80.003	19.993	104.102	20.150	4.049	0.502
902.000	535.943	80.003	19.993	104.097	20.149	4.130	0.541
904.000	536.978	80.003	19.994	104.099	20.149	4.099	0.513
906.000	538.005	80.003	19.994	104.085	20.148	4.174	0.507
908.000	538.985	79.999	19.993	104.101	20.152	3.957	0.500
910.000	539.971	80.001	19.995	104.118	20.154	3.832	0.482
912.000	540.956	80.001	19.995	104.110	20.152	3.920	0.495
914.000	541.956	80.001	19.997	104.114	20.150	4.044	0.506
916.000	542.935	80.002	19.994	104.124	20.152	3.914	0.497
918.000	543.943	80.001	19.994	104.143	20.153	3.856	0.509
920.000	544.896	80.003	19.995	104.122	20.155	3.707	0.499
922.000	545.889	80.001	19.994	104.104	20.152	3.960	0.501
924.001	546.943	80.002	19.993	104.093	20.151	4.019	0.528
926.000	547.902	80.004	19.993	104.090	20.150	4.061	0.494
928.000	548.921	80.003	19.995	104.092	20.151	4.028	0.480
930.000	549.921	80.003	19.993	104.143	20.153	3.842	0.524
932.000	550.928	80.002	19.995	104.130	20.154	3.813	0.517
934.000	551.897	80.001	19.994	104.108	20.155	3.763	0.511
936.000	552.904	80.004	19.995	104.102	20.155	3.718	0.472
938.000	553.903	80.000	19.995	104.094	20.154	3.794	0.514
940.001	554.894	80.002	19.996	104.085	20.153	3.888	0.524
942.000	555.882	80.002	19.995	104.094	20.151	3.969	0.498
944.000	556.892	80.003	19.994	104.099	20.151	3.985	0.514
946.000	557.859	80.002	19.995	104.108	20.152	3.925	0.511
948.001	558.874	80.003	19.995	104.117	20.153	3.870	0.459
950.000	559.883	80.004	19.995	104.121	20.153	3.889	0.481
952.000	560.887	80.004	19.994	104.087	20.152	3.940	0.502
954.001	561.849	80.002	19.993	104.081	20.152	3.938	0.506
956.000	562.872	80.004	19.993	104.103	20.154	3.783	0.486
958.000	563.873	80.003	19.994	104.105	20.154	3.815	0.514
960.000	564.818	80.004	19.994	104.104	20.153	3.850	0.500
962.000	565.815	80.001	19.993	104.101	20.150	4.045	0.489
964.000	566.847	80.001	19.994	104.111	20.150	4.055	0.515
966.000	567.856	80.001	19.995	104.105	20.149	4.161	0.520
968.000	568.905	79.999	19.995	104.102	20.149	4.103	0.537
970.000	569.943	80.003	19.996	104.108	20.147	4.243	0.545
972.001	570.933	80.002	19.995	104.113	20.152	3.958	0.521
974.000	571.985	80.004	19.994	104.125	20.150	4.066	0.533
976.001	573.049	80.003	19.994	104.128	20.149	4.149	0.501
978.000	574.097	80.004	19.993	104.114	20.150	4.061	0.550
980.001	575.231	80.005	19.995	104.102	20.148	4.188	0.561
982.000	576.246	80.004	19.994	104.099	20.150	4.051	0.534
984.000	577.287	80.005	19.994	104.090	20.149	4.135	0.524
986.000	578.384	80.002	19.994	104.098	20.146	4.338	0.574
988.001	579.443	80.003	19.994	104.103	20.147	4.280	0.540
990.000	580.517	80.002	19.994	104.113	20.146	4.338	0.520
992.000	581.553	80.003	19.995	104.125	20.152	3.958	0.544
994.000	582.658	80.003	19.994	104.129	20.151	3.985	0.499
996.000	583.722	80.003	19.995	104.126	20.147	4.231	0.522
998.000	584.772	80.003	19.994	104.122	20.149	4.144	0.496
1000.000	585.841	80.002	19.994	104.127	20.152	3.908	0.541
1002.001	586.881	80.003	19.994	104.103	20.151	3.965	0.527
1004.000	587.971	80.004	19.993	104.108	20.152	3.951	0.529
1006.000	589.035	80.004	19.993	104.105	20.149	4.140	0.543
1008.000	590.062	80.003	19.994	104.105	20.152	3.927	0.521
1010.001	591.160	80.001	19.994	104.109	20.151	3.998	0.574
1012.000	592.211	80.003	19.994	104.105	20.149	4.131	0.550
1014.000	593.278	80.005	19.993	104.102	20.149	4.111	0.517
1016.000	594.340	80.000	19.994	104.101	20.150	4.071	0.540
1018.000	595.461	79.999	19.993	104.106	20.152	3.956	0.548
1020.001	596.514	80.003	19.992	104.105	20.147	4.286	0.548
1022.000	597.564	80.001	19.993	104.106	20.150	4.089	0.535
1024.001	598.625	80.002	19.994	104.094	20.150	4.043	0.518
1026.000	599.685	80.002	19.994	104.091	20.150	4.054	0.547
1028.000	600.735	80.002	19.993	104.085	20.150	4.086	0.523
1030.000	601.774	80.001	19.996	104.101	20.149	4.106	0.517
1032.000	602.774	80.001	19.995	104.084	20.146	4.332	0.478
1034.001	603.837	80.005	19.993	104.088	20.148	4.193	0.510
1036.000	604.889	80.003	19.992	104.106	20.145	4.361	0.505
1038.001	605.913	80.003	19.993	104.107	20.148	4.209	0.494
1040.000	606.981	80.005	19.994	104.105	20.150	4.084	0.488
1042.001	608.038	80.002	19.994	104.105	20.146	4.310	0.500
1044.000	609.094	80.000	19.993	104.103	20.143	4.503	0.529
1046.000	610.159	80.003	19.994	104.104	20.146	4.301	0.522
1048.000	611.251	80.003	19.994	104.102	20.146	4.348	0.547
1050.001	612.270	80.003	19.995	104.103	20.146	4.299	0.527
1052.001	613.359	80.003	19.995	104.095	20.146	4.359	0.531
1054.001	614.472	80.004	19.995	104.098	20.148	4.202	0.539
1056.001	615.550	80.003	19.994	104.102	20.147	4.234	0.549
1058.000	616.601	80.003	19.995	104.101	20.147	4.241	0.550
1060.000	617.688	80.003	19.996	104.099	20.148	4.205	0.557
1062.000	618.756	80.004	19.994	104.097	20.147	4.270	0.554
1064.001	619.792	80.004	19.995	104.099	20.151	3.981	0.551
1066.000	620.897	80.003	19.993	104.099	20.149	4.134	0.540
1068.000	621.886	80.001	19.995	104.101	20.149	4.149	0.489
1070.000	622.932	80.004	19.994	104.101	20.150	4.087	0.501
1072.001	624.011	80.003	19.994	104.098	20.148	4.188	0.538
1074.000	625.029	80.002	19.994	104.083	20.148	4.222	0.510
1076.000	626.048	80.002	19.994	104.094	20.148	4.166	0.514
1078.000	627.086	80.002	19.994	104.093	20.149	4.125	0.511
1080.000	628.082	80.002	19.993	104.091	20.153	3.853	0.505
1082.001	629.074	80.003	19.994	104.084	20.149	4.138	0.492
1084.000	630.149	80.003	19.993	104.073	20.144	4.441	0.501
1086.000	631.132	80.002	19.993	104.070	20.142	4.581	0.502
1088.001	632.158	80.003	19.993	104.071	20.149	4.129	0.492
1090.000	633.191	80.002	19.996	104.084	20.146	4.328	0.547
1092.000	634.216	80.002	19.993	104.088	20.144	4.464	0.539
1094.001	635.249	80.003	19.996	104.081	20.143	4.530	0.534
1096.000	636.226	80.001	19.994	104.091	20.146	4.355	0.498
1098.000	637.199	80.002	19.993	104.090	20.147	4.286	0.498
1100.001	638.233	80.001	19.992	104.094	20.146	4.340	0.502
1102.000	639.215	80.003	19.994	104.098	20.150	4.069	0.503
1104.001	640.203	80.001	19.995	104.101	20.150	4.047	0.521
1106.001	641.252	80.003	19.992	104.103	20.146	4.355	0.502
1108.000	642.233	80.004	19.995	104.103	20.150	4.068	0.553
1110.001	643.227	80.003	19.993	104.081	20.146	4.304	0.483
1112.001	644.232	80.003	19.995	104.078	20.147	4.239	0.506
1114.001	645.242	80.005	19.992	104.083	20.145	4.419	0.511
1116.000	646.259	80.004	19.995	104.091	20.146	4.348	0.489
1118.000	647.280	80.004	19.994	104.103	20.148	4.207	0.507
1120.000	648.340	80.002	19.994	104.095	20.150	4.091	0.528
1122.000	649.347	80.004	19.995	104.089	20.147	4.283	0.540
1124.000	650.389	80.003	19.993	104.072	20.149	4.119	0.550
1126.000	651.363	80.004	19.995	104.090	20.146	4.329	0.466
1128.000	652.421	80.005	19.994	104.099	20.149	4.135	0.500
1130.000	653.413	80.002	19.993	104.099	20.150	4.090	0.516
1132.000	654.451	80.006	19.993	104.068	20.149	4.157	0.514
1134.000	655.462	80.004	19.994	104.067	20.148	4.219	0.528
1136.000	656.492	80.004	19.994	104.071	20.148	4.201	0.497
1138.001	657.506	80.005	19.995	104.098	20.147	4.240	0.507
1140.001	658.465	80.004	19.991	104.102	20.146	4.332	0.489
1142.001	659.489	80.004	19.995	104.084	20.144	4.450	0.500
1144.001	660.506	80.005	19.994	104.078	20.147	4.286	0.508
1146.001	661.525	80.003	19.994	104.086	20.144	4.451	0.512
1148.000	662.521	80.000	19.994	104.090	20.148	4.204	0.506
1150.000	663.531	80.002	19.996	104.122	20.145	4.390	0.485
1152.001	664.533	80.003	19.995	104.091	20.145	4.376	0.522
1154.001	665.488	80.001	19.994	104.081	20.144	4.484	0.499
1156.000	666.510	80.002	19.995	104.072	20.149	4.142	0.499
1158.001	667.473	80.001	19.995	104.069	20.143	4.503	0.537
1160.000	668.477	80.002	19.994	104.085	20.141	4.672	0.504
1162.000	669.432	80.003	19.993	104.076	20.144	4.470	0.430
1164.001	670.455	80.002	19.994	104.092	20.145	4.365	0.543
1166.000	671.416	80.003	19.993	104.111	20.140	4.737	0.501
1168.000	672.350	80.003	19.993	104.100	20.147	4.229	0.498
1170.001	673.382	80.002	19.995	104.091	20.144	4.485	0.486
1172.001	674.342	80.002	19.993	104.085	20.141	4.627	0.508
1174.001	675.321	80.002	19.994	104.091	20.143	4.519	0.476
1176.001	676.314	80.001	19.994	104.065	20.146	4.319	0.500
1178.001	677.288	80.001	19.995	104.101	20.148	4.193	0.478
1180.000	678.219	80.001	19.995	104.099	20.145	4.397	0.520
1182.001	679.217	80.003	19.995	104.079	20.143	4.493	0.474
1184.001	680.220	80.001	19.993	104.092	20.148	4.186	0.497
1186.001	681.188	80.002	19.993	104.102	20.143	4.513	0.481
1188.001	682.154	80.003	19.994	104.085	20.146	4.348	0.493
1190.000	683.173	80.002	19.993	104.075	20.149	4.142	0.479
1192.001	684.169	80.004	19.993	104.063	20.137	4.903	0.496
1194.001	685.207	80.003	19.995	104.075	20.147	4.240	0.522
1196.001	686.160	80.005	19.992	104.077	20.146	4.308	0.508
1198.000	687.338	80.003	19.993	104.099	20.144	4.490	0.124
1200.001	688.407	80.003	19.993	104.104	20.151	4.030	0.573
1202.001	689.412	80.003	19.993	104.091	20.141	4.627	0.566
1204.001	690.471	80.005	19.995	104.075	20.145	4.407	0.564
1206.001	691.519	80.002	19.992	104.074	20.138	4.863	0.535
1208.001	692.591	80.004	19.994	104.098	20.143	4.542	0.539
1210.000	693.619	80.003	19.994	104.101	20.141	4.640	0.512
1212.000	694.701	80.003	19.996	104.090	20.139	4.755	0.504
1214.001	695.782	80.005	19.995	104.080	20.143	4.539	0.532
1216.001	696.859	80.004	19.994	104.101	20.142	4.568	0.554
1218.001	697.892	80.005	19.993	104.099	20.142	4.598	0.522
1220.001	698.947	80.004	19.992	104.073	20.140	4.723	0.499
1222.001	699.981	80.004	19.993	104.091	20.139	4.761	0.507
1224.001	701.036	80.005	19.993	104.079	20.138	4.855	0.530
1226.000	702.074	80.003	19.994	104.099	20.141	4.639	0.476
1228.000	703.159	80.002	19.994	104.096	20.141	4.625	0.525
1230.001	704.204	80.003	19.993	104.075	20.143	4.516	0.539
1232.001	705.203	80.003	19.995	104.095	20.141	4.624	0.510
1234.001	706.256	80.003	19.995	104.078	20.142	4.574	0.526
1236.000	707.282	80.002	19.995	104.084	20.148	4.218	0.510
1238.000	708.228	79.999	19.993	104.073	20.145	4.419	0.480
1240.001	709.295	80.001	19.996	104.063	20.149	4.101	0.498
1242.000	710.289	80.002	19.996	104.066	20.149	4.126	0.505
1244.001	711.275	80.001	19.995	104.061	20.143	4.518	0.484
1246.000	712.276	80.001	19.994	104.068	20.142	4.598	0.490
1248.001	713.237	80.003	19.994	104.066	20.145	4.392	0.489
1250.000	714.255	80.005	19.996	104.069	20.149	4.147	0.488
1252.001	715.287	80.004	19.994	104.077	20.140	4.733	0.533
1254.000	716.272	80.002	19.995	104.063	20.145	4.421	0.514
1256.000	717.254	80.004	19.994	104.071	20.144	4.457	0.482
1258.000	718.216	80.003	19.994	104.083	20.145	4.379	0.494
1260.000	719.256	80.002	19.992	104.083	20.146	4.349	0.505
1262.000	720.217	80.003	19.994	104.080	20.148	4.195	0.509
1264.000	721.199	80.004	19.996	104.085	20.148	4.219	0.496
1266.001	722.158	80.004	19.995	104.084	20.148	4.163	0.513
1268.000	723.086	80.002	19.996	104.069	20.143	4.493	0.468
1270.001	724.059	80.003	19.996	104.076	20.143	4.508	0.481
1272.000	725.031	80.004	19.996	104.077	20.149	4.137	0.496
1274.001	726.023	80.004	19.995	104.079	20.143	4.520	0.489
1276.001	726.999	80.006	19.995	104.077	20.147	4.258	0.474
1278.000	727.974	80.005	19.994	104.083	20.142	4.600	0.496
1280.001	728.940	80.003	19.996	104.078	20.147	4.285	0.498
1282.000	729.928	80.003	19.994	104.077	20.146	4.335	0.492
1284.000	730.902	80.004	19.994	104.068	20.143	4.511	0.486
1286.001	731.914	80.004	19.995	104.068	20.146	4.306	0.526
1288.001	732.887	80.002	19.994	104.078	20.145	4.410	0.489
1290.001	733.846	80.004	19.994	104.074	20.146	4.345	0.475
1292.001	734.779	80.004	19.995	104.084	20.144	4.489	0.448
1294.001	735.769	80.005	19.995	104.081	20.144	4.466	0.491
1296.000	736.776	80.005	19.994	104.080	20.139	4.784	0.504
1298.001	737.727	80.007	19.994	104.076	20.141	4.666	0.499
1300.001	738.712	80.006	19.995	104.072	20.136	4.963	0.498
1302.001	739.706	80.006	19.994	104.072	20.141	4.687	0.501
1304.001	740.742	80.004	19.994	104.072	20.137	4.952	0.492
1306.001	741.804	80.003	19.994	104.086	20.140	4.725	0.521
1308.001	742.809	80.003	19.995	104.074	20.137	4.936	0.501
1309.001	743.338	80.001	19.994	104.076	20.143	4.511	0.515