File: 01_Data/Rayon_Bamboo_Pillowcase/MCC/Rayon_Bamboo_Pillowcase_MCC_30K_min_220112_R3.txt
Sample ID:	C:\MCC\MCC Cal\Test\Rayon_Bamboo_Pillowcase_MCC_30K_min_220112_R3.txt
Sample Weight (mg):	4.59
Heating Rate (C/s):	0.5
Combustor Temp (C):	900
N2 Flow Rate (cc/min):	80
O2 Flow Rate (cc/min):	20
Calibration File:	C:\MCC\MCC Cal\Coeff1 JN10440_30_210304.txt.txt
T Correction Coefficients:	0	1.024463	0
Time Shift (s):	14
*
Time (s)	Temperature (C)	N2 flow rate (cc/min)	O2 flow rate (cc/min)	Flow Rate (cc/min)	Oxygen (%)	HRR (W/g)	Heating rate (C/s)
0.000	110.967	80.011	19.995	104.094	19.961	0.403	0.006
2.000	110.958	80.010	19.996	104.053	19.960	0.449	0.021
4.000	110.963	80.012	19.994	104.064	19.960	0.451	0.012
6.000	110.934	80.011	19.995	104.064	19.955	0.804	-0.038
8.000	110.927	80.011	19.994	104.085	19.960	0.496	-0.007
10.000	110.922	80.011	19.994	104.094	19.957	0.728	0.006
12.000	110.971	80.012	19.993	104.088	19.960	0.469	0.015
14.000	110.952	80.012	19.994	104.090	19.957	0.670	-0.022
16.000	110.945	80.012	19.994	104.097	19.957	0.689	0.007
18.000	111.021	80.013	19.993	104.101	19.958	0.629	0.047
20.000	111.023	80.012	19.993	104.111	19.954	0.933	-0.009
22.000	111.074	80.012	19.993	104.134	19.951	1.099	0.046
24.000	111.163	80.012	19.993	104.187	19.949	1.256	0.049
26.001	111.250	80.013	19.994	104.190	19.946	1.451	0.054
28.000	111.326	80.012	19.993	104.198	19.942	1.724	0.053
30.000	111.506	80.011	19.994	104.210	19.942	1.756	0.086
32.001	111.639	80.011	19.994	104.208	19.943	1.656	0.056
33.999	111.841	80.011	19.993	104.215	19.942	1.793	0.092
35.999	112.028	80.010	19.995	104.213	19.938	2.042	0.099
38.000	112.228	80.011	19.994	104.229	19.935	2.253	0.106
40.001	112.508	80.011	19.994	104.244	19.931	2.528	0.133
42.001	112.744	80.011	19.994	104.252	19.932	2.503	0.145
43.999	113.067	80.014	19.993	104.253	19.926	2.873	0.168
45.999	113.330	80.013	19.994	104.255	19.926	2.893	0.129
47.999	113.676	80.014	19.993	104.264	19.924	3.041	0.123
50.000	114.068	80.014	19.994	104.289	19.924	3.021	0.176
52.001	114.444	80.014	19.994	104.297	19.920	3.347	0.207
54.000	114.882	80.014	19.993	104.298	19.922	3.174	0.216
55.999	115.300	80.013	19.993	104.296	19.922	3.201	0.220
58.000	115.773	80.014	19.992	104.291	19.921	3.219	0.226
59.999	116.265	80.012	19.993	104.298	19.918	3.425	0.255
62.000	116.771	80.012	19.993	104.297	19.919	3.355	0.266
64.001	117.307	80.013	19.993	104.311	19.920	3.326	0.279
66.000	117.835	80.013	19.994	104.307	19.919	3.365	0.241
68.000	118.421	80.014	19.994	104.306	19.921	3.275	0.289
70.001	119.029	80.014	19.995	104.302	19.918	3.453	0.286
72.000	119.639	80.014	19.994	104.298	19.920	3.315	0.322
74.000	120.249	80.014	19.994	104.296	19.918	3.487	0.299
76.001	120.880	80.015	19.993	104.309	19.920	3.338	0.345
78.000	121.585	80.016	19.995	104.302	19.918	3.451	0.341
80.000	122.183	80.014	19.994	104.302	19.921	3.250	0.309
82.001	122.891	80.014	19.996	104.316	19.919	3.392	0.303
84.000	123.569	80.013	19.994	104.329	19.915	3.659	0.344
86.001	124.292	80.012	19.995	104.327	19.918	3.450	0.381
88.001	124.957	80.012	19.994	104.324	19.920	3.300	0.322
89.999	125.729	80.011	19.994	104.326	19.914	3.759	0.390
91.999	126.471	80.012	19.994	104.308	19.916	3.630	0.374
94.001	127.215	80.011	19.995	104.313	19.915	3.687	0.377
96.000	127.983	80.010	19.994	104.265	19.913	3.839	0.377
97.999	128.748	80.011	19.994	104.357	19.912	3.908	0.371
100.001	129.546	80.010	19.995	104.334	19.915	3.644	0.407
102.001	130.331	80.012	19.994	104.319	19.915	3.691	0.378
103.999	131.101	80.011	19.994	104.305	19.915	3.689	0.379
106.000	131.872	80.012	19.995	104.321	19.915	3.644	0.353
108.001	132.742	80.014	19.994	104.327	19.914	3.746	0.444
110.001	133.529	80.012	19.995	104.326	19.910	4.005	0.393
112.001	134.383	80.012	19.995	104.317	19.914	3.758	0.412
114.001	135.261	80.012	19.995	104.326	19.916	3.621	0.398
115.999	136.093	80.012	19.994	104.326	19.914	3.775	0.392
118.001	136.978	80.011	19.993	104.325	19.916	3.592	0.460
120.001	137.816	80.012	19.993	104.324	19.917	3.526	0.421
121.999	138.692	80.012	19.993	104.324	19.915	3.656	0.435
124.000	139.603	80.012	19.993	104.327	19.915	3.703	0.469
126.000	140.533	80.014	19.994	104.335	19.919	3.397	0.454
128.000	141.477	80.013	19.994	104.331	19.917	3.547	0.496
130.000	142.352	80.013	19.994	104.332	19.917	3.502	0.450
132.001	143.340	80.013	19.993	104.328	19.915	3.678	0.490
134.000	144.267	80.015	19.995	104.327	19.917	3.561	0.466
136.000	145.229	80.015	19.994	104.322	19.916	3.607	0.476
138.000	146.143	80.014	19.993	104.325	19.914	3.752	0.464
140.000	147.115	80.014	19.994	104.326	19.919	3.389	0.491
142.000	148.104	80.014	19.994	104.329	19.917	3.498	0.498
144.001	149.085	80.013	19.994	104.331	19.920	3.326	0.491
146.001	150.036	80.013	19.993	104.327	19.921	3.266	0.492
148.001	151.015	80.012	19.992	104.326	19.918	3.459	0.487
150.001	152.005	80.014	19.993	104.325	19.923	3.123	0.461
152.000	152.963	80.014	19.994	104.310	19.925	2.979	0.487
154.000	153.952	80.014	19.993	104.316	19.925	2.940	0.474
156.001	154.944	80.015	19.992	104.314	19.926	2.897	0.490
158.000	155.936	80.015	19.993	104.323	19.929	2.706	0.530
160.001	156.964	80.016	19.994	104.314	19.928	2.754	0.520
162.001	157.924	80.016	19.993	104.310	19.924	3.002	0.489
164.000	158.893	80.013	19.993	104.311	19.927	2.799	0.483
166.001	159.897	80.014	19.993	104.309	19.924	3.012	0.498
168.001	160.920	80.012	19.995	104.314	19.928	2.756	0.510
170.000	161.946	80.011	19.994	104.301	19.929	2.681	0.514
172.000	162.898	80.012	19.994	104.293	19.931	2.567	0.492
174.000	163.926	80.011	19.994	104.298	19.932	2.476	0.482
176.001	164.899	80.012	19.994	104.298	19.931	2.507	0.505
178.000	165.954	80.011	19.994	104.289	19.932	2.454	0.495
180.001	166.876	80.012	19.994	104.303	19.927	2.852	0.480
182.001	167.834	80.011	19.993	104.295	19.929	2.678	0.452
184.001	168.900	80.012	19.993	104.301	19.927	2.842	0.472
186.000	169.896	80.011	19.995	104.291	19.928	2.746	0.499
188.000	170.881	80.012	19.994	104.293	19.925	2.955	0.478
190.000	171.877	80.012	19.994	104.296	19.924	3.019	0.484
192.000	172.810	80.011	19.994	104.290	19.926	2.893	0.492
194.000	173.815	80.012	19.995	104.295	19.927	2.811	0.478
196.000	174.781	80.012	19.994	104.288	19.927	2.854	0.442
198.000	175.757	80.011	19.994	104.288	19.927	2.789	0.494
200.000	176.738	80.010	19.995	104.287	19.928	2.737	0.516
202.000	177.722	80.012	19.995	104.287	19.928	2.729	0.498
204.000	178.705	80.010	19.994	104.287	19.929	2.684	0.505
206.000	179.687	80.011	19.995	104.290	19.927	2.828	0.484
208.000	180.604	80.011	19.994	104.287	19.930	2.639	0.448
210.000	181.576	80.012	19.993	104.289	19.931	2.546	0.473
212.000	182.580	80.011	19.993	104.289	19.930	2.590	0.452
214.000	183.575	80.012	19.993	104.287	19.928	2.758	0.510
216.000	184.557	80.013	19.993	104.285	19.929	2.655	0.487
218.000	185.564	80.013	19.993	104.290	19.928	2.762	0.471
220.000	186.543	80.013	19.994	104.286	19.933	2.405	0.495
222.001	187.547	80.012	19.992	104.290	19.929	2.682	0.518
224.000	188.566	80.012	19.993	104.287	19.929	2.680	0.519
226.000	189.481	80.012	19.993	104.290	19.927	2.793	0.465
228.000	190.467	80.013	19.993	104.290	19.931	2.555	0.476
230.000	191.443	80.012	19.993	104.286	19.930	2.621	0.456
232.000	192.451	80.012	19.992	104.275	19.928	2.742	0.523
234.000	193.489	80.012	19.994	104.284	19.927	2.804	0.510
236.000	194.421	80.013	19.993	104.279	19.931	2.551	0.455
238.000	195.395	80.013	19.995	104.266	19.931	2.557	0.474
240.000	196.331	80.014	19.993	104.271	19.932	2.452	0.488
242.000	197.334	80.015	19.993	104.275	19.930	2.579	0.487
244.000	198.272	80.015	19.993	104.273	19.931	2.534	0.474
246.000	199.270	80.015	19.992	104.282	19.929	2.647	0.473
248.000	200.248	80.015	19.993	104.288	19.930	2.639	0.487
250.000	201.232	80.015	19.992	104.289	19.929	2.676	0.457
252.000	202.267	80.014	19.993	104.274	19.927	2.805	0.553
254.000	203.257	80.012	19.993	104.284	19.925	2.990	0.508
256.000	204.229	80.013	19.994	104.283	19.928	2.752	0.514
258.000	205.198	80.012	19.993	104.285	19.928	2.772	0.490
260.000	206.220	80.011	19.994	104.266	19.928	2.727	0.493
262.000	207.239	80.012	19.995	104.280	19.927	2.847	0.512
264.000	208.227	80.012	19.994	104.283	19.928	2.728	0.483
266.000	209.205	80.013	19.994	104.277	19.931	2.571	0.465
268.000	210.198	80.011	19.995	104.282	19.928	2.719	0.488
270.000	211.224	80.012	19.996	104.283	19.931	2.553	0.491
272.000	212.244	80.011	19.995	104.271	19.930	2.635	0.518
274.000	213.240	80.013	19.995	104.268	19.928	2.754	0.493
276.000	214.252	80.013	19.995	104.267	19.927	2.797	0.505
278.000	215.227	80.012	19.994	104.270	19.925	2.997	0.516
280.000	216.217	80.012	19.994	104.260	19.923	3.138	0.500
282.000	217.283	80.012	19.994	104.273	19.923	3.128	0.500
284.001	218.273	80.011	19.994	104.259	19.923	3.071	0.494
286.000	219.279	80.010	19.994	104.273	19.923	3.138	0.466
288.000	220.234	80.010	19.995	104.269	19.919	3.362	0.479
290.000	221.258	80.010	19.994	104.272	19.921	3.221	0.483
292.000	222.204	80.010	19.995	104.260	19.917	3.529	0.484
294.000	223.215	80.011	19.996	104.261	19.919	3.387	0.520
296.000	224.177	80.010	19.994	104.261	19.918	3.481	0.478
298.000	225.183	80.011	19.994	104.268	19.919	3.376	0.505
300.000	226.134	80.012	19.995	104.264	19.913	3.828	0.491
302.000	227.106	80.011	19.994	104.259	19.913	3.838	0.486
304.000	228.134	80.011	19.994	104.262	19.914	3.767	0.508
306.000	229.155	80.012	19.996	104.267	19.911	3.924	0.524
308.000	230.136	80.012	19.994	104.272	19.909	4.078	0.519
310.000	231.111	80.012	19.994	104.270	19.907	4.263	0.473
312.000	232.100	80.013	19.993	104.273	19.903	4.547	0.491
314.001	233.086	80.013	19.993	104.277	19.905	4.378	0.524
316.000	234.083	80.012	19.994	104.282	19.902	4.622	0.503
318.000	235.092	80.014	19.994	104.288	19.902	4.577	0.525
320.000	236.092	80.014	19.993	104.283	19.899	4.795	0.501
322.000	237.091	80.014	19.994	104.285	19.890	5.429	0.522
324.000	238.111	80.013	19.995	104.286	19.892	5.306	0.537
326.000	239.025	80.015	19.993	104.287	19.884	5.838	0.469
328.000	240.066	80.015	19.994	104.288	19.884	5.895	0.536
330.000	241.032	80.015	19.993	104.287	19.878	6.269	0.463
332.000	242.023	80.015	19.994	104.288	19.875	6.495	0.496
334.000	243.000	80.015	19.993	104.293	19.868	7.016	0.495
336.001	244.010	80.015	19.994	104.292	19.862	7.465	0.468
338.000	244.967	80.013	19.993	104.296	19.857	7.802	0.496
340.001	245.981	80.013	19.993	104.312	19.851	8.206	0.504
342.000	246.960	80.011	19.993	104.319	19.842	8.841	0.523
344.000	247.971	80.013	19.994	104.321	19.832	9.535	0.498
346.000	248.998	80.013	19.993	104.330	19.825	10.028	0.521
348.000	249.992	80.013	19.994	104.332	19.814	10.832	0.513
350.000	251.028	80.013	19.993	104.333	19.802	11.661	0.499
352.000	252.040	80.013	19.995	104.341	19.793	12.355	0.488
354.000	253.091	80.013	19.994	104.345	19.777	13.471	0.473
356.000	254.096	80.013	19.994	104.352	19.767	14.177	0.511
358.000	255.141	80.013	19.994	104.365	19.749	15.428	0.519
360.000	256.170	80.013	19.994	104.360	19.736	16.389	0.526
362.000	257.131	80.012	19.994	104.369	19.723	17.271	0.498
364.000	258.165	80.013	19.994	104.378	19.707	18.441	0.522
366.000	259.163	80.012	19.995	104.380	19.690	19.641	0.479
368.000	260.127	80.011	19.995	104.388	19.672	20.931	0.480
370.000	261.121	80.011	19.994	104.401	19.655	22.098	0.484
372.000	262.113	80.011	19.994	104.395	19.637	23.433	0.486
374.000	263.121	80.011	19.994	104.406	19.619	24.694	0.503
376.000	264.113	80.012	19.995	104.407	19.598	26.155	0.488
378.000	265.106	80.011	19.995	104.407	19.582	27.307	0.492
380.000	266.115	80.012	19.994	104.408	19.568	28.305	0.540
382.000	267.106	80.014	19.995	104.409	19.551	29.499	0.495
384.000	268.068	80.013	19.993	104.412	19.535	30.677	0.480
386.000	269.084	80.014	19.994	104.413	19.525	31.388	0.480
388.000	270.060	80.014	19.995	104.417	19.510	32.415	0.477
390.000	271.067	80.014	19.993	104.410	19.492	33.716	0.517
392.000	272.037	80.013	19.995	104.418	19.478	34.714	0.427
394.000	273.028	80.013	19.995	104.428	19.466	35.587	0.488
396.000	274.028	80.013	19.994	104.430	19.457	36.214	0.496
398.000	275.011	80.012	19.994	104.439	19.443	37.219	0.497
400.000	275.990	80.013	19.995	104.438	19.431	38.020	0.510
402.000	276.957	80.013	19.995	104.442	19.422	38.659	0.484
404.000	277.938	80.013	19.994	104.442	19.410	39.555	0.469
406.000	278.907	80.014	19.994	104.448	19.404	39.944	0.456
408.000	279.887	80.013	19.994	104.449	19.394	40.686	0.474
410.000	280.835	80.015	19.993	104.450	19.384	41.425	0.479
412.001	281.805	80.014	19.994	104.463	19.379	41.746	0.461
414.000	282.591	80.015	19.993	104.468	19.371	42.348	0.117
416.000	283.798	80.014	19.993	104.467	19.357	43.340	0.699
418.000	284.656	80.013	19.992	104.484	19.348	43.978	0.420
420.001	285.874	80.012	19.993	104.485	19.340	44.562	0.352
422.000	286.771	80.011	19.994	104.486	19.331	45.140	0.543
424.000	287.699	80.013	19.993	104.489	19.320	45.963	0.444
426.000	288.733	80.012	19.995	104.496	19.310	46.681	0.527
428.000	289.752	80.012	19.994	104.497	19.303	47.189	0.501
430.000	290.672	80.012	19.994	104.514	19.291	48.035	0.513
432.000	291.689	80.013	19.994	104.514	19.277	48.998	0.515
434.000	292.648	80.011	19.994	104.523	19.266	49.818	0.445
436.000	293.701	80.012	19.994	104.526	19.253	50.740	0.505
438.000	294.736	80.012	19.995	104.527	19.240	51.645	0.520
440.000	295.666	80.014	19.992	104.528	19.231	52.303	0.495
442.000	296.637	80.013	19.994	104.539	19.216	53.365	0.474
444.000	297.664	80.013	19.993	104.560	19.202	54.385	0.471
446.000	298.648	80.013	19.993	104.553	19.190	55.236	0.510
448.000	299.652	80.013	19.993	104.562	19.178	56.076	0.500
450.000	300.652	80.012	19.994	104.563	19.161	57.278	0.520
452.000	301.670	80.012	19.994	104.565	19.148	58.236	0.534
454.000	302.661	80.012	19.995	104.569	19.130	59.519	0.499
456.000	303.649	80.011	19.994	104.574	19.116	60.483	0.487
458.000	304.625	80.010	19.993	104.581	19.107	61.155	0.468
460.000	305.602	80.011	19.995	104.587	19.090	62.341	0.510
462.000	306.633	80.011	19.995	104.600	19.077	63.302	0.555
464.000	307.653	80.012	19.994	104.599	19.062	64.301	0.513
466.000	308.595	80.013	19.994	104.602	19.052	65.041	0.474
468.000	309.602	80.014	19.995	104.601	19.036	66.168	0.504
470.000	310.607	80.014	19.993	104.601	19.025	67.006	0.527
472.000	311.615	80.014	19.994	104.603	19.013	67.817	0.514
474.000	312.682	80.013	19.994	104.609	19.003	68.511	0.523
476.000	313.651	80.013	19.994	104.606	18.991	69.389	0.506
478.000	314.685	80.013	19.994	104.610	18.976	70.449	0.523
480.000	315.703	80.012	19.994	104.616	18.968	70.991	0.501
482.000	316.673	80.012	19.993	104.634	18.959	71.657	0.494
484.000	317.711	80.011	19.994	104.635	18.947	72.535	0.508
486.000	318.710	80.011	19.993	104.614	18.941	72.953	0.507
488.000	319.692	80.011	19.994	104.625	18.934	73.433	0.488
490.000	320.750	80.012	19.994	104.617	18.930	73.715	0.527
492.000	321.708	80.013	19.994	104.613	18.924	74.123	0.502
494.000	322.716	80.012	19.993	104.612	18.923	74.209	0.477
496.000	323.738	80.013	19.994	104.609	18.921	74.339	0.531
498.000	324.746	80.013	19.993	104.600	18.922	74.274	0.490
500.000	325.704	80.012	19.994	104.601	18.926	73.961	0.499
502.000	326.706	80.011	19.994	104.601	18.932	73.573	0.476
504.000	327.722	80.010	19.994	104.600	18.940	72.971	0.462
506.000	328.706	80.011	19.993	104.595	18.942	72.835	0.474
508.000	329.689	80.010	19.994	104.585	18.953	72.046	0.517
510.000	330.697	80.011	19.994	104.565	18.971	70.756	0.467
512.000	331.686	80.011	19.993	104.558	18.982	69.967	0.470
514.000	332.715	80.011	19.994	104.544	19.002	68.528	0.532
516.000	333.708	80.011	19.994	104.528	19.025	66.856	0.512
518.000	334.711	80.012	19.994	104.513	19.049	65.178	0.497
520.000	335.682	80.011	19.993	104.499	19.077	63.135	0.486
522.000	336.687	80.010	19.993	104.490	19.107	60.998	0.531
524.000	337.709	80.012	19.994	104.477	19.140	58.683	0.520
526.000	338.715	80.014	19.994	104.462	19.176	56.119	0.504
528.000	339.722	80.012	19.993	104.434	19.210	53.666	0.515
530.000	340.724	80.012	19.994	104.421	19.250	50.851	0.486
532.000	341.721	80.012	19.993	104.406	19.286	48.271	0.493
534.000	342.749	80.011	19.994	104.401	19.332	45.013	0.486
536.000	343.727	80.011	19.995	104.375	19.367	42.511	0.505
538.000	344.764	80.010	19.994	104.363	19.411	39.371	0.535
540.000	345.826	80.011	19.993	104.355	19.450	36.604	0.524
542.000	346.854	80.011	19.994	104.333	19.495	33.468	0.533
544.001	347.871	80.012	19.994	104.323	19.531	30.919	0.498
546.000	348.854	80.012	19.993	104.313	19.567	28.348	0.505
548.000	349.944	80.013	19.994	104.306	19.599	26.072	0.509
550.000	350.970	80.012	19.995	104.283	19.634	23.597	0.483
552.000	352.053	80.014	19.995	104.290	19.663	21.526	0.516
554.000	353.095	80.013	19.995	104.282	19.693	19.421	0.493
556.000	354.169	80.012	19.995	104.270	19.718	17.597	0.536
558.000	355.155	80.012	19.995	104.258	19.741	15.990	0.511
560.000	356.246	80.012	19.993	104.256	19.768	14.100	0.533
562.000	357.260	80.011	19.994	104.253	19.782	13.107	0.515
564.000	358.332	80.012	19.995	104.254	19.797	12.016	0.536
566.000	359.353	80.011	19.995	104.248	19.817	10.613	0.515
568.000	360.423	80.011	19.995	104.251	19.830	9.670	0.538
570.000	361.443	80.012	19.994	104.254	19.843	8.756	0.523
572.000	362.520	80.014	19.994	104.249	19.850	8.306	0.508
574.000	363.516	80.013	19.995	104.248	19.864	7.318	0.501
576.000	364.569	80.014	19.994	104.248	19.867	7.098	0.528
578.000	365.588	80.014	19.994	104.243	19.872	6.722	0.514
580.000	366.613	80.013	19.994	104.239	19.877	6.364	0.500
582.000	367.639	80.013	19.995	104.240	19.882	6.023	0.525
584.000	368.697	80.012	19.995	104.242	19.889	5.533	0.545
586.000	369.739	80.010	19.994	104.245	19.885	5.767	0.531
588.000	370.797	80.011	19.995	104.247	19.890	5.416	0.531
590.000	371.803	80.009	19.995	104.248	19.893	5.247	0.530
592.000	372.869	80.011	19.994	104.250	19.896	5.026	0.518
594.000	373.923	80.010	19.994	104.244	19.898	4.847	0.519
596.000	374.963	80.010	19.995	104.246	19.903	4.545	0.538
598.000	375.994	80.011	19.995	104.243	19.904	4.443	0.532
600.000	377.064	80.011	19.993	104.244	19.904	4.485	0.559
602.000	378.059	80.011	19.994	104.245	19.902	4.559	0.529
604.000	379.070	80.010	19.994	104.234	19.901	4.643	0.511
606.000	380.140	80.012	19.994	104.236	19.905	4.398	0.540
608.000	381.112	80.012	19.994	104.228	19.906	4.318	0.497
610.000	382.136	80.012	19.993	104.226	19.905	4.407	0.498
612.000	383.176	80.011	19.993	104.236	19.909	4.084	0.505
614.000	384.208	80.011	19.993	104.244	19.912	3.866	0.518
616.000	385.168	80.011	19.993	104.254	19.913	3.828	0.487
618.000	386.183	80.011	19.994	104.247	19.913	3.813	0.518
620.000	387.248	80.011	19.993	104.245	19.914	3.768	0.530
622.000	388.250	80.010	19.995	104.228	19.916	3.610	0.546
624.000	389.277	80.010	19.994	104.253	19.911	3.928	0.512
626.000	390.266	80.011	19.993	104.239	19.915	3.668	0.510
628.000	391.324	80.012	19.994	104.242	19.920	3.324	0.531
630.000	392.340	80.012	19.994	104.243	19.919	3.421	0.520
632.000	393.329	80.012	19.994	104.235	19.921	3.265	0.511
634.000	394.352	80.013	19.993	104.232	19.920	3.339	0.502
636.000	395.393	80.013	19.994	104.222	19.924	3.025	0.527
638.000	396.399	80.015	19.993	104.222	19.920	3.316	0.484
640.000	397.386	80.012	19.993	104.237	19.923	3.072	0.492
642.000	398.421	80.012	19.993	104.214	19.918	3.464	0.506
644.000	399.453	80.012	19.993	104.220	19.922	3.150	0.494
646.000	400.460	80.012	19.993	104.221	19.924	3.053	0.517
648.000	401.467	80.013	19.995	104.229	19.927	2.793	0.500
650.000	402.444	80.012	19.994	104.219	19.921	3.265	0.491
652.000	403.435	80.012	19.995	104.230	19.922	3.181	0.489
654.000	404.440	80.013	19.995	104.227	19.925	2.944	0.489
656.000	405.460	80.013	19.994	104.233	19.922	3.150	0.479
658.000	406.458	80.014	19.995	104.215	19.927	2.852	0.529
660.000	407.472	80.013	19.994	104.238	19.924	3.056	0.520
662.000	408.519	80.014	19.994	104.223	19.925	2.997	0.534
664.000	409.489	80.015	19.993	104.232	19.928	2.755	0.489
666.000	410.514	80.014	19.993	104.236	19.927	2.834	0.525
668.000	411.562	80.013	19.994	104.224	19.927	2.789	0.513
670.000	412.550	80.011	19.993	104.228	19.925	2.961	0.508
672.000	413.540	80.011	19.994	104.234	19.927	2.802	0.489
674.000	414.512	80.012	19.994	104.241	19.928	2.716	0.468
676.000	415.521	80.010	19.994	104.223	19.928	2.766	0.489
678.000	416.551	80.011	19.995	104.224	19.925	2.938	0.541
680.000	417.574	80.011	19.995	104.222	19.926	2.895	0.539
682.000	418.552	80.012	19.997	104.236	19.927	2.850	0.483
684.000	419.553	80.011	19.995	104.228	19.927	2.794	0.486
686.000	420.516	80.011	19.995	104.224	19.926	2.897	0.469
688.000	421.585	80.010	19.995	104.224	19.926	2.895	0.529
690.000	422.566	80.011	19.994	104.223	19.924	3.041	0.490
692.000	423.572	80.012	19.994	104.234	19.925	2.989	0.485
694.001	424.573	80.011	19.994	104.227	19.926	2.883	0.485
696.000	425.580	80.012	19.993	104.238	19.930	2.642	0.517
698.000	426.597	80.011	19.994	104.230	19.926	2.858	0.488
700.000	427.594	80.010	19.993	104.225	19.926	2.871	0.489
702.000	428.599	80.011	19.994	104.236	19.924	3.051	0.500
704.000	429.601	80.011	19.993	104.239	19.927	2.827	0.473
706.000	430.631	80.011	19.994	104.230	19.930	2.593	0.505
708.000	431.664	80.010	19.994	104.227	19.934	2.359	0.503
710.000	432.616	80.012	19.994	104.218	19.932	2.493	0.472
712.000	433.686	80.013	19.994	104.225	19.931	2.541	0.524
714.000	434.697	80.013	19.994	104.226	19.933	2.395	0.523
716.000	435.639	80.012	19.994	104.224	19.932	2.495	0.498
718.000	436.673	80.014	19.995	104.223	19.932	2.443	0.501
720.000	437.702	80.013	19.994	104.227	19.933	2.392	0.485
722.000	438.721	80.013	19.994	104.180	19.932	2.476	0.489
724.000	439.713	80.012	19.995	104.259	19.932	2.433	0.503
726.000	440.736	80.012	19.994	104.232	19.939	1.966	0.507
728.000	441.712	80.013	19.994	104.216	19.938	2.071	0.476
730.000	442.711	80.012	19.994	104.246	19.937	2.102	0.505
732.000	443.721	80.012	19.994	104.232	19.936	2.151	0.495
734.000	444.687	80.013	19.994	104.228	19.937	2.110	0.465
736.000	445.752	80.013	19.993	104.225	19.935	2.260	0.517
738.000	446.725	80.013	19.992	104.239	19.937	2.117	0.498
740.000	447.741	80.015	19.994	104.222	19.938	2.018	0.492
742.000	448.736	80.014	19.993	104.233	19.940	1.870	0.502
744.000	449.750	80.013	19.994	104.214	19.940	1.901	0.501
746.000	450.727	80.013	19.994	104.221	19.940	1.899	0.482
748.000	451.733	80.012	19.994	104.221	19.939	1.942	0.487
750.000	452.746	80.010	19.995	104.222	19.941	1.823	0.506
752.000	453.756	80.010	19.995	104.214	19.940	1.872	0.508
754.001	454.776	80.011	19.994	104.220	19.944	1.648	0.515
756.000	455.787	80.012	19.995	104.214	19.942	1.745	0.529
758.000	456.802	80.010	19.994	104.212	19.942	1.747	0.494
760.000	457.816	80.010	19.995	104.217	19.942	1.751	0.521
762.000	458.872	80.011	19.994	104.218	19.939	1.961	0.533
764.000	459.857	80.011	19.994	104.214	19.940	1.897	0.495
766.000	460.869	80.011	19.993	104.214	19.941	1.841	0.501
768.000	461.898	80.011	19.995	104.214	19.944	1.613	0.519
770.000	462.898	80.012	19.994	104.215	19.946	1.496	0.483
772.000	463.944	80.011	19.994	104.213	19.945	1.564	0.556
774.000	464.947	80.012	19.995	104.211	19.946	1.480	0.522
776.000	465.965	80.012	19.995	104.210	19.946	1.486	0.469
778.000	466.937	80.009	19.996	104.214	19.951	1.153	0.495
780.000	467.986	80.010	19.995	104.212	19.950	1.194	0.492
782.000	468.964	80.011	19.995	104.205	19.947	1.416	0.493
784.000	470.045	80.011	19.995	104.205	19.946	1.445	0.524
786.000	471.067	80.010	19.995	104.209	19.950	1.186	0.500
788.000	472.081	80.011	19.995	104.209	19.953	0.995	0.518
790.000	473.119	80.012	19.994	104.210	19.953	0.976	0.527
792.000	474.178	80.012	19.993	104.209	19.955	0.818	0.565
794.000	475.154	80.014	19.994	104.204	19.956	0.785	0.495
796.000	476.172	80.013	19.993	104.212	19.956	0.756	0.475
798.000	477.167	80.014	19.994	104.211	19.959	0.580	0.516
800.000	478.190	80.013	19.993	104.210	19.956	0.738	0.519
802.000	479.214	80.013	19.994	104.208	19.959	0.522	0.533
804.000	480.196	80.013	19.994	104.210	19.960	0.481	0.487
806.000	481.224	80.012	19.994	104.207	19.961	0.430	0.491
808.000	482.245	80.012	19.994	104.213	19.963	0.288	0.517
810.000	483.261	80.011	19.992	104.216	19.957	0.689	0.517
812.000	484.296	80.012	19.995	104.212	19.962	0.349	0.529
814.000	485.305	80.011	19.994	104.211	19.967	-0.019	0.509
816.000	486.322	80.014	19.993	104.212	19.965	0.123	0.513
818.000	487.361	80.013	19.993	104.208	19.966	0.023	0.543
820.000	488.369	80.013	19.993	104.209	19.965	0.099	0.530
822.000	489.363	80.012	19.993	104.202	19.966	0.037	0.518
824.000	490.354	80.012	19.993	104.212	19.968	-0.109	0.484
826.000	491.382	80.013	19.993	104.213	19.972	-0.397	0.495
828.000	492.440	80.013	19.992	104.213	19.970	-0.212	0.522
830.000	493.466	80.012	19.993	104.209	19.973	-0.430	0.529
832.000	494.482	80.011	19.992	104.215	19.972	-0.374	0.498
834.000	495.500	80.012	19.993	104.213	19.971	-0.298	0.532
836.000	496.539	80.011	19.992	104.214	19.972	-0.358	0.517
838.000	497.555	80.012	19.993	104.212	19.973	-0.436	0.507
840.000	498.570	80.012	19.995	104.210	19.971	-0.310	0.495
842.000	499.589	80.012	19.994	104.208	19.976	-0.662	0.502
844.000	500.624	80.012	19.995	104.209	19.975	-0.615	0.523
846.000	501.665	80.013	19.994	104.204	19.976	-0.682	0.534
848.000	502.619	80.011	19.994	104.207	19.974	-0.479	0.494
850.000	503.632	80.011	19.996	104.205	19.978	-0.771	0.476
852.000	504.689	80.012	19.994	104.203	19.982	-1.063	0.518
854.000	505.729	80.012	19.993	104.207	19.979	-0.863	0.514
856.000	506.782	80.011	19.994	104.200	19.980	-0.950	0.523
858.000	507.784	80.012	19.994	104.197	19.984	-1.205	0.516
860.000	508.773	80.011	19.994	104.192	19.983	-1.116	0.482
862.000	509.838	80.012	19.994	104.208	19.986	-1.332	0.513
864.000	510.878	80.011	19.994	104.202	19.985	-1.313	0.510
866.000	511.909	80.010	19.995	104.201	19.984	-1.223	0.542
868.000	512.953	80.009	19.994	104.198	19.984	-1.204	0.536
870.000	513.965	80.011	19.995	104.190	19.983	-1.165	0.528
872.000	515.079	80.011	19.996	104.191	19.985	-1.320	0.552
874.000	516.102	80.011	19.996	104.195	19.990	-1.624	0.521
876.000	517.174	80.012	19.994	104.206	19.985	-1.281	0.529
878.000	518.217	80.011	19.995	104.196	19.988	-1.474	0.527
880.000	519.246	80.012	19.994	104.203	19.986	-1.338	0.520
882.000	520.263	80.013	19.995	104.198	19.988	-1.478	0.467
884.000	521.337	80.012	19.993	104.196	19.987	-1.406	0.524
886.000	522.362	80.012	19.994	104.200	19.989	-1.568	0.521
888.000	523.440	80.013	19.994	104.197	19.994	-1.940	0.525
890.000	524.452	80.011	19.993	104.184	19.991	-1.739	0.522
892.000	525.492	80.012	19.994	104.189	19.989	-1.599	0.507
894.000	526.500	80.012	19.993	104.211	19.990	-1.657	0.470
896.000	527.514	80.012	19.994	104.204	19.993	-1.871	0.480
898.000	528.605	80.012	19.993	104.198	19.991	-1.722	0.512
900.000	529.628	80.014	19.993	104.195	19.995	-1.984	0.501
902.000	530.654	80.013	19.994	104.197	19.995	-1.977	0.503
904.000	531.701	80.014	19.994	104.196	19.994	-1.955	0.526
906.000	532.730	80.014	19.993	104.186	19.994	-1.939	0.501
908.000	533.788	80.015	19.995	104.195	19.994	-1.928	0.534
910.000	534.838	80.014	19.994	104.199	19.996	-2.062	0.522
912.000	535.805	80.012	19.993	104.196	19.998	-2.191	0.520
914.000	536.851	80.012	19.994	104.197	19.998	-2.237	0.522
916.000	537.872	80.013	19.994	104.184	19.997	-2.121	0.515
918.000	538.905	80.011	19.994	104.176	19.995	-1.979	0.530
920.000	539.943	80.012	19.994	104.177	19.997	-2.148	0.515
922.000	540.935	80.012	19.995	104.186	19.995	-1.990	0.486
924.000	541.962	80.012	19.993	104.180	20.000	-2.372	0.527
926.000	542.987	80.012	19.993	104.178	19.997	-2.173	0.483
928.000	544.020	80.012	19.993	104.192	19.995	-1.967	0.498
930.000	545.015	80.012	19.994	104.190	20.005	-2.707	0.522
932.000	546.042	80.012	19.993	104.174	20.002	-2.498	0.516
934.000	547.066	80.012	19.995	104.190	20.000	-2.386	0.515
936.000	548.172	80.012	19.993	104.186	20.005	-2.691	0.544
938.000	549.230	80.011	19.995	104.184	20.000	-2.358	0.577
940.000	550.261	80.010	19.994	104.181	20.000	-2.353	0.528
942.000	551.368	80.011	19.993	104.180	20.004	-2.645	0.533
944.000	552.406	80.011	19.994	104.185	20.003	-2.598	0.548
946.000	553.511	80.011	19.995	104.190	20.004	-2.644	0.559
948.001	554.629	80.011	19.994	104.183	20.005	-2.713	0.558
950.000	555.746	80.011	19.994	104.191	20.005	-2.687	0.563
952.000	556.811	80.011	19.993	104.196	20.008	-2.892	0.540
954.000	557.950	80.011	19.994	104.190	20.008	-2.890	0.576
956.000	559.058	80.013	19.994	104.181	20.008	-2.902	0.594
958.000	560.128	80.012	19.994	104.186	20.005	-2.676	0.551
960.001	561.299	80.012	19.992	104.195	20.009	-2.981	0.572
962.000	562.379	80.012	19.993	104.187	20.010	-3.046	0.562
964.000	563.515	80.012	19.994	104.194	20.011	-3.157	0.555
966.000	564.646	80.011	19.995	104.180	20.011	-3.124	0.597
968.000	565.719	80.010	19.994	104.193	20.012	-3.205	0.553
970.000	566.867	80.011	19.995	104.184	20.008	-2.913	0.562
972.000	567.957	80.011	19.995	104.186	20.010	-3.042	0.557
974.000	569.090	80.011	19.995	104.193	20.016	-3.454	0.549
976.000	570.242	80.011	19.994	104.203	20.014	-3.353	0.624
978.001	571.299	80.011	19.994	104.182	20.014	-3.351	0.532
980.000	572.409	80.013	19.994	104.179	20.016	-3.470	0.548
982.000	573.533	80.014	19.994	104.180	20.019	-3.672	0.562
984.000	574.630	80.014	19.993	104.186	20.015	-3.397	0.550
986.000	575.692	80.014	19.994	104.174	20.019	-3.711	0.509
988.000	576.777	80.015	19.994	104.174	20.020	-3.754	0.522
990.000	577.782	80.014	19.992	104.173	20.023	-3.978	0.476
992.000	578.815	80.012	19.993	104.171	20.019	-3.670	0.507
994.000	579.829	80.012	19.993	104.166	20.021	-3.834	0.509
996.000	580.812	80.011	19.994	104.168	20.025	-4.141	0.491
998.000	581.757	80.011	19.993	104.173	20.028	-4.309	0.470
1000.000	582.709	80.011	19.993	104.172	20.024	-4.083	0.491
1002.000	583.666	80.011	19.993	104.170	20.022	-3.916	0.471
1004.000	584.607	80.011	19.994	104.173	20.030	-4.462	0.468
1006.000	585.520	80.012	19.992	104.166	20.030	-4.447	0.447
1008.000	586.458	80.012	19.994	104.170	20.032	-4.637	0.476
1010.000	587.388	80.011	19.993	104.172	20.036	-4.893	0.480
1012.000	588.318	80.011	19.993	104.173	20.029	-4.386	0.436
1014.000	589.234	80.011	19.993	104.174	20.031	-4.521	0.437
1016.000	590.148	80.010	19.993	104.158	20.028	-4.306	0.441
1018.000	591.065	80.012	19.993	104.166	20.031	-4.534	0.444
1020.000	592.034	80.010	19.994	104.153	20.026	-4.162	0.473
1022.000	592.956	80.010	19.993	104.118	20.029	-4.396	0.466
1024.000	593.905	80.011	19.994	104.198	20.035	-4.852	0.475
1026.001	594.808	80.010	19.994	104.182	20.033	-4.694	0.464
1028.000	595.738	80.010	19.993	104.156	20.029	-4.400	0.438
1030.000	596.649	80.011	19.993	104.165	20.033	-4.698	0.472
1032.000	597.572	80.011	19.995	104.159	20.033	-4.673	0.462
1034.001	598.493	80.011	19.995	104.171	20.029	-4.380	0.461
1036.001	599.447	80.013	19.994	104.168	20.031	-4.573	0.465
1038.000	600.376	80.012	19.994	104.168	20.036	-4.922	0.456
1040.001	601.313	80.013	19.994	104.172	20.040	-5.195	0.462
1041.999	602.288	80.012	19.994	104.166	20.037	-4.957	0.476
1044.000	603.239	80.013	19.994	104.162	20.041	-5.222	0.465
1046.000	604.229	80.012	19.994	104.163	20.041	-5.244	0.498
1048.000	605.166	80.012	19.994	104.171	20.041	-5.228	0.483
1050.000	606.167	80.012	19.994	104.169	20.039	-5.084	0.494
1052.000	607.223	80.012	19.994	104.170	20.039	-5.118	0.492
1054.000	608.293	80.012	19.994	104.117	20.042	-5.311	0.509
1056.000	609.324	80.012	19.994	104.189	20.041	-5.259	0.526
1058.000	610.436	80.013	19.994	104.218	20.041	-5.241	0.538
1059.999	611.469	80.012	19.994	104.165	20.038	-5.062	0.528
1062.000	612.556	80.013	19.995	104.118	20.035	-4.824	0.527
1064.000	613.585	80.014	19.995	104.159	20.041	-5.272	0.484
1066.000	614.679	80.014	19.995	104.213	20.044	-5.467	0.544
1068.000	615.769	80.014	19.995	104.169	20.041	-5.243	0.564
1069.999	616.808	80.014	19.994	104.160	20.043	-5.412	0.509
1072.000	617.854	80.012	19.994	104.161	20.043	-5.366	0.525
1074.001	618.931	80.012	19.994	104.157	20.048	-5.737	0.514
1076.000	619.938	80.012	19.993	104.162	20.044	-5.496	0.511
1078.000	620.985	80.013	19.994	104.162	20.047	-5.706	0.554
1080.000	622.034	80.013	19.993	104.160	20.046	-5.617	0.533
1082.000	623.081	80.012	19.994	104.166	20.046	-5.627	0.515
1084.000	624.097	80.012	19.994	104.167	20.043	-5.385	0.522
1085.999	625.146	80.011	19.994	104.163	20.043	-5.374	0.526
1088.000	626.171	80.010	19.993	104.166	20.044	-5.470	0.522
1090.000	627.226	80.011	19.993	104.164	20.047	-5.700	0.527
1092.000	628.237	80.011	19.994	104.165	20.049	-5.833	0.501
1094.000	629.258	80.010	19.992	104.165	20.051	-5.990	0.512
1096.001	630.260	80.013	19.994	104.144	20.047	-5.657	0.499
1098.000	631.253	80.012	19.994	104.140	20.046	-5.596	0.499
1099.999	632.292	80.011	19.993	104.141	20.048	-5.728	0.486
1101.999	633.287	80.011	19.994	104.156	20.046	-5.596	0.475
1104.001	634.313	80.012	19.994	104.160	20.046	-5.600	0.480
1106.001	635.354	80.011	19.994	104.146	20.044	-5.433	0.515
1108.000	636.380	80.012	19.995	104.149	20.054	-6.148	0.499
1110.000	637.339	80.011	19.993	104.144	20.053	-6.093	0.461
1112.000	638.320	80.013	19.995	104.139	20.048	-5.741	0.491
1114.000	639.286	80.012	19.994	104.146	20.049	-5.815	0.507
1116.000	640.212	80.013	19.994	104.140	20.053	-6.110	0.464
1118.000	641.185	80.014	19.994	104.154	20.052	-6.013	0.490
1120.000	642.100	80.013	19.993	104.153	20.048	-5.776	0.478
1121.999	643.071	80.015	19.995	104.146	20.049	-5.796	0.499
1124.000	644.017	80.015	19.994	104.167	20.054	-6.184	0.476
1126.001	644.920	80.012	19.993	104.160	20.055	-6.220	0.484
1127.999	645.829	80.013	19.994	104.145	20.056	-6.338	0.466
1130.000	646.760	80.013	19.994	104.149	20.053	-6.129	0.480
1131.999	647.705	80.014	19.994	104.154	20.056	-6.321	0.476
1134.000	648.708	80.014	19.994	104.152	20.057	-6.393	0.491
1136.000	649.662	80.012	19.993	104.155	20.058	-6.467	0.509
1138.001	650.589	80.013	19.994	104.146	20.057	-6.366	0.480
1140.001	651.568	80.013	19.994	104.145	20.059	-6.525	0.481
1142.001	652.549	80.015	19.993	104.149	20.063	-6.833	0.481
1143.999	653.472	80.014	19.994	104.138	20.062	-6.711	0.462
1146.000	654.497	80.014	19.993	104.128	20.059	-6.552	0.494
1148.001	655.479	80.014	19.994	104.169	20.056	-6.317	0.479
1150.000	656.468	80.012	19.994	104.149	20.056	-6.317	0.483
1152.000	657.481	80.014	19.994	104.155	20.059	-6.495	0.472
1154.000	658.499	80.013	19.994	104.165	20.059	-6.492	0.499
1156.000	659.544	80.012	19.995	104.150	20.058	-6.484	0.525
1157.999	660.528	80.011	19.995	104.152	20.056	-6.306	0.493
1160.000	661.536	80.011	19.995	104.158	20.053	-6.120	0.525
1162.000	662.569	80.012	19.996	104.162	20.055	-6.215	0.505
1164.000	663.568	80.010	19.994	104.154	20.057	-6.358	0.511
1166.000	664.583	80.012	19.995	104.163	20.057	-6.411	0.509
1168.000	665.637	80.012	19.994	104.174	20.061	-6.641	0.554
1170.001	666.665	80.012	19.993	104.172	20.061	-6.637	0.500
1172.000	667.672	80.011	19.993	104.171	20.061	-6.685	0.473
1174.000	668.694	80.012	19.993	104.161	20.063	-6.791	0.496
1176.000	669.797	80.012	19.994	104.148	20.062	-6.745	0.510
1178.000	670.847	80.012	19.994	104.150	20.061	-6.699	0.493
1180.000	671.915	80.012	19.994	104.140	20.059	-6.536	0.519
1182.000	672.946	80.013	19.994	104.146	20.056	-6.301	0.532
1184.000	673.958	80.013	19.996	104.148	20.056	-6.337	0.523
1185.999	675.081	80.012	19.995	104.141	20.057	-6.405	0.538
1188.000	676.113	80.012	19.994	104.157	20.060	-6.571	0.501
1190.000	677.152	80.011	19.995	104.152	20.057	-6.387	0.515
1192.000	678.203	80.010	19.994	104.140	20.060	-6.632	0.541
1194.000	679.245	80.013	19.994	104.165	20.062	-6.738	0.540
1196.000	680.259	80.012	19.993	104.159	20.064	-6.913	0.528
1197.999	681.240	80.011	19.993	104.162	20.065	-6.953	0.504
1200.000	682.346	80.012	19.993	104.160	20.064	-6.907	0.579
1202.000	683.373	80.013	19.993	104.148	20.062	-6.728	0.518
1204.000	684.354	80.013	19.993	104.162	20.064	-6.890	0.489
1206.001	685.406	80.013	19.992	104.161	20.064	-6.912	0.533
1208.000	686.437	80.014	19.994	104.149	20.065	-6.982	0.520
1210.000	687.433	80.014	19.993	104.146	20.065	-6.974	0.483
1212.000	688.512	80.013	19.993	104.152	20.065	-6.928	0.528
1213.999	689.520	80.012	19.993	104.156	20.066	-7.017	0.524
1216.000	690.546	80.013	19.995	104.155	20.068	-7.129	0.489
1217.999	691.580	80.012	19.994	104.168	20.066	-6.991	0.511
1219.999	692.622	80.014	19.994	104.162	20.062	-6.754	0.489
1222.000	693.675	80.014	19.995	104.158	20.069	-7.231	0.528
1223.999	694.647	80.014	19.994	104.148	20.068	-7.183	0.519
1226.000	695.651	80.015	19.993	104.140	20.066	-7.051	0.495
1227.999	696.707	80.015	19.994	104.158	20.063	-6.792	0.505
1229.999	697.730	80.014	19.993	104.146	20.066	-6.989	0.522
1232.000	698.735	80.014	19.993	104.143	20.067	-7.084	0.522
1234.000	699.699	80.012	19.993	104.145	20.066	-7.048	0.485
1236.000	700.716	80.011	19.995	104.151	20.068	-7.128	0.504
1238.000	701.739	80.012	19.994	104.158	20.070	-7.299	0.502
1240.000	702.770	80.010	19.993	104.151	20.070	-7.277	0.525
1242.000	703.771	80.011	19.994	104.164	20.067	-7.084	0.520
1244.000	704.775	80.010	19.995	104.148	20.069	-7.260	0.501
1246.000	705.767	80.011	19.996	104.140	20.070	-7.323	0.531
1248.000	706.781	80.010	19.995	104.145	20.067	-7.063	0.513
1249.999	707.774	80.011	19.995	104.153	20.065	-6.932	0.515
1251.999	708.783	80.011	19.996	104.154	20.071	-7.385	0.513
1254.000	709.812	80.012	19.996	104.144	20.071	-7.375	0.476
1255.999	710.813	80.010	19.995	104.147	20.067	-7.115	0.518
1258.000	711.826	80.012	19.996	104.147	20.069	-7.224	0.503
1260.000	712.853	80.010	19.995	104.159	20.066	-7.057	0.506
1262.000	713.806	80.011	19.994	104.147	20.071	-7.411	0.463
1263.999	714.867	80.013	19.994	104.142	20.066	-6.998	0.491
1265.999	715.889	80.011	19.995	104.139	20.066	-7.049	0.505
1268.000	716.900	80.010	19.994	104.153	20.068	-7.163	0.486
1270.000	717.879	80.011	19.995	104.156	20.067	-7.114	0.497
1272.000	718.901	80.011	19.994	104.158	20.068	-7.161	0.528
1274.000	719.855	80.011	19.995	104.152	20.070	-7.307	0.506
1276.000	720.883	80.012	19.994	104.147	20.072	-7.464	0.512
1278.000	721.883	80.013	19.993	104.161	20.063	-6.791	0.494
1280.000	722.871	80.012	19.994	104.161	20.072	-7.427	0.498
1281.999	723.890	80.013	19.996	104.166	20.070	-7.335	0.486
1284.000	724.899	80.012	19.993	104.171	20.070	-7.294	0.480
1285.999	725.886	80.011	19.993	104.156	20.068	-7.155	0.523
1288.000	726.872	80.013	19.993	104.166	20.069	-7.232	0.499
1289.999	727.946	80.015	19.994	104.160	20.069	-7.228	0.522
1292.000	728.886	80.011	19.993	104.154	20.067	-7.113	0.501
1293.999	729.906	80.014	19.994	104.144	20.067	-7.082	0.519
1296.000	730.940	80.012	19.994	104.166	20.070	-7.315	0.535
1297.999	731.989	80.013	19.993	104.154	20.074	-7.586	0.534
1300.000	733.013	80.013	19.993	104.150	20.077	-7.813	0.516
1302.001	734.013	80.012	19.992	104.151	20.076	-7.744	0.520
1304.000	735.030	80.013	19.992	104.153	20.073	-7.495	0.520
1306.001	736.044	80.013	19.993	104.143	20.070	-7.321	0.492
1308.000	737.086	80.014	19.994	104.148	20.070	-7.334	0.520
1310.000	738.128	80.013	19.993	104.136	20.072	-7.450	0.536
1312.000	739.148	80.014	19.994	104.150	20.067	-7.082	0.515
1314.000	740.171	80.014	19.994	104.140	20.065	-6.947	0.503
1316.000	741.153	80.013	19.995	104.137	20.067	-7.124	0.488
1318.000	742.162	80.012	19.995	104.145	20.069	-7.265	0.504
1320.000	743.206	80.011	19.994	104.145	20.068	-7.135	0.530
1320.500	743.457	80.012	19.996	104.151	20.074	-7.616	0.528