File: 01_Data/Cotton_Shirt/STA/N2/3K_min/Cotton_Shirt_STA_N2_3KData_21267_R1.csv
##Temp./Â°C,Time/min,Mass loss(subtr.2)/mg,DSC(subtr.2)/(mW/mg),Sensit./(uV/mW)
48.873,10.01667,-0.06482,0.03180125,0.58408
49.473,12.10138,-0.07207602,0.04119269,0.58436
50.073,12.70337,-0.07527384,0.04669609,0.58465
50.673,13.17162,-0.07545825,0.05252069,0.58493
51.273,13.579,-0.07757081,0.0560158,0.58521
51.873,13.9494,-0.0778381,0.05629149,0.58549
52.473,14.2935,-0.07920643,0.05702299,0.58577
53.073,14.61979,-0.08014723,0.05915405,0.58605
53.673,14.9333,-0.0805081,0.05995951,0.58633
54.273,15.23376,-0.08182817,0.06337004,0.5866
54.873,15.5245,-0.08292654,0.06583524,0.58688
55.473,15.80654,-0.08395407,0.06493589,0.58716
56.073,16.08204,-0.08702454,0.06893962,0.58743
56.673,16.34873,-0.08737028,0.07270703,0.5877
57.273,16.60935,-0.08610262,0.07026395,0.58797
57.873,16.86458,-0.08873162,0.07516081,0.58825
58.473,17.11538,-0.08999156,0.076651,0.58852
59.073,17.36214,-0.08970714,0.07679102,0.58879
59.673,17.6064,-0.09152877,0.07630874,0.58905
60.273,17.84689,-0.09263408,0.07594236,0.58932
60.873,18.08359,-0.09094315,0.07783526,0.58959
61.473,18.3181,-0.09602365,0.07941968,0.58985
62.073,18.5509,-0.09344072,0.08406819,0.59012
62.673,18.7823,-0.09607763,0.08552832,0.59038
63.273,19.0105,-0.099988,0.08555411,0.59064
63.873,19.23688,-0.09868817,0.08649648,0.59091
64.473,19.46053,-0.09997841,0.08726432,0.59117
65.073,19.68305,-0.10135,0.08824516,0.59143
65.673,19.90429,-0.10166,0.08712792,0.59169
66.273,20.12507,-0.10442,0.08768773,0.59194
66.873,20.34467,-0.10666,0.09321913,0.5922
67.473,20.5621,-0.10719,0.09316255,0.59246
68.073,20.77893,-0.10609,0.09153377,0.59271
68.673,20.9939,-0.10837,0.09289538,0.59297
69.273,21.20828,-0.10935,0.09133233,0.59322
69.873,21.4224,-0.10935,0.09308758,0.59347
70.473,21.63579,-0.11133,0.09556634,0.59372
71.073,21.84798,-0.11131,0.09392799,0.59398
71.673,22.05904,-0.11539,0.09440691,0.59422
72.273,22.26858,-0.1156,0.0953258,0.59447
72.873,22.47935,-0.11478,0.09083836,0.59472
73.473,22.68919,-0.1168,0.09489926,0.59497
74.073,22.8997,-0.11757,0.09334405,0.59521
74.673,23.1083,-0.12001,0.092419,0.59546
75.273,23.31652,-0.11856,0.09225894,0.5957
75.873,23.5246,-0.12153,0.09360896,0.59595
76.473,23.7324,-0.12153,0.0908372,0.59619
77.073,23.94003,-0.12269,0.09105677,0.59643
77.673,24.14649,-0.12255,0.0919154,0.59667
78.273,24.3526,-0.12272,0.09003774,0.59691
78.873,24.5578,-0.12599,0.08925648,0.59715
79.473,24.7625,-0.12548,0.08939274,0.59738
80.073,24.96722,-0.12745,0.08607097,0.59762
80.673,25.1716,-0.12808,0.08601813,0.59785
81.273,25.37707,-0.12886,0.08674081,0.59809
81.873,25.582,-0.13139,0.08582662,0.59832
82.473,25.78616,-0.1293,0.08472928,0.59855
83.073,25.98969,-0.13041,0.08525214,0.59879
83.673,26.19246,-0.1321,0.0841643,0.59902
84.273,26.3956,-0.13173,0.08563145,0.59925
84.873,26.59807,-0.13278,0.07954846,0.59948
85.473,26.79989,-0.13436,0.08215784,0.5997
86.073,27.00217,-0.13499,0.07959265,0.59993
86.673,27.20468,-0.137,0.07743685,0.60016
87.273,27.40751,-0.13699,0.07806839,0.60038
87.873,27.6089,-0.13632,0.07684488,0.6006
88.473,27.80937,-0.13878,0.0746511,0.60083
89.073,28.00905,-0.13863,0.07317875,0.60105
89.673,28.20865,-0.13963,0.07267555,0.60127
90.273,28.408,-0.13962,0.07507464,0.60149
90.873,28.6062,-0.13964,0.07390524,0.60171
91.473,28.80472,-0.14094,0.07097076,0.60193
92.073,29.00276,-0.14126,0.07248807,0.60215
92.673,29.20148,-0.14101,0.07116113,0.60236
93.273,29.39971,-0.14193,0.06983199,0.60258
93.873,29.597,-0.14127,0.06814621,0.60279
94.473,29.7947,-0.14249,0.06561173,0.603
95.073,29.99113,-0.1446,0.06516143,0.60322
95.673,30.1884,-0.14391,0.06206543,0.60343
96.273,30.38562,-0.14255,0.06250311,0.60364
96.873,30.582,-0.14391,0.06415108,0.60385
97.473,30.7789,-0.1439,0.06090793,0.60406
98.073,30.97468,-0.1439,0.06114089,0.60426
98.673,31.17,-0.14522,0.06225128,0.60447
99.273,31.3658,-0.14521,0.06103498,0.60468
99.873,31.5617,-0.14653,0.06046647,0.60488
100.473,31.7577,-0.1455,0.05964535,0.60509
101.073,31.9525,-0.14554,0.06171567,0.60529
101.673,32.14777,-0.14413,0.05783769,0.60549
102.273,32.34278,-0.14522,0.05875542,0.60569
102.873,32.53734,-0.14761,0.05750988,0.60589
103.473,32.73236,-0.14468,0.05870699,0.60609
104.073,32.9266,-0.14599,0.05663286,0.60629
104.673,33.1212,-0.14743,0.0567994,0.60649
105.273,33.31588,-0.14632,0.05793922,0.60668
105.873,33.51044,-0.14631,0.05565629,0.60688
106.473,33.70446,-0.14495,0.05633871,0.60707
107.073,33.89862,-0.14632,0.05582987,0.60727
107.673,34.0929,-0.14759,0.05434482,0.60746
108.273,34.28696,-0.14877,0.05289361,0.60765
108.873,34.48128,-0.14624,0.05321826,0.60784
109.473,34.67499,-0.14694,0.05404347,0.60803
110.073,34.86847,-0.14776,0.05181602,0.60822
110.673,35.06241,-0.14642,0.05195431,0.60841
111.273,35.25675,-0.14579,0.05099288,0.60859
111.873,35.45118,-0.14681,0.05195172,0.60878
112.473,35.6452,-0.14515,0.05251356,0.60896
113.073,35.83944,-0.14669,0.05068662,0.60915
113.673,36.03315,-0.14654,0.04909413,0.60933
114.273,36.22674,-0.14686,0.05357749,0.60951
114.873,36.42099,-0.14653,0.05011239,0.60969
115.473,36.61411,-0.14784,0.05055067,0.60987
116.073,36.80721,-0.14648,0.04964139,0.61005
116.673,36.9999,-0.14785,0.05256689,0.61023
117.273,37.19287,-0.14653,0.05421362,0.61041
117.873,37.38606,-0.14785,0.05292085,0.61058
118.473,37.58,-0.14785,0.05751655,0.61076
119.073,37.77377,-0.14919,0.05574768,0.61093
119.673,37.9672,-0.14643,0.05549462,0.6111
120.273,38.16041,-0.14773,0.05211041,0.61128
120.873,38.35329,-0.14774,0.05486559,0.61145
121.473,38.54614,-0.14875,0.0550706,0.61162
122.073,38.7396,-0.14731,0.05342183,0.61179
122.673,38.93244,-0.14741,0.05249689,0.61196
123.273,39.12539,-0.15055,0.0531815,0.61212
123.873,39.31811,-0.14865,0.05220073,0.61229
124.473,39.51063,-0.14771,0.05205817,0.61246
125.073,39.70335,-0.14876,0.05437726,0.61262
125.673,39.8962,-0.14883,0.05273645,0.61278
126.273,40.08825,-0.14741,0.05358583,0.61295
126.873,40.2804,-0.14741,0.05226364,0.61311
127.473,40.47255,-0.14907,0.05019044,0.61327
128.073,40.66516,-0.14775,0.05111815,0.61343
128.673,40.8575,-0.14774,0.05388777,0.61359
129.273,41.04909,-0.14774,0.05454399,0.61375
129.873,41.2414,-0.14751,0.04858517,0.6139
130.473,41.4328,-0.14744,0.05148346,0.61406
131.073,41.62485,-0.14741,0.05259053,0.61421
131.673,41.817,-0.14741,0.05149184,0.61437
132.273,42.00808,-0.14926,0.05254749,0.61452
132.873,42.19979,-0.14741,0.05371036,0.61467
133.473,42.3908,-0.14708,0.05444416,0.61482
134.073,42.58256,-0.14708,0.05334486,0.61497
134.673,42.77342,-0.14708,0.05619247,0.61512
135.273,42.96516,-0.14708,0.05430719,0.61527
135.873,43.1571,-0.14808,0.054887,0.61542
136.473,43.34818,-0.14707,0.05333457,0.61557
137.073,43.53905,-0.14611,0.05541461,0.61571
137.673,43.72974,-0.14676,0.05587663,0.61586
138.273,43.92041,-0.14674,0.05373452,0.616
138.873,44.11088,-0.14642,0.05416194,0.61614
139.473,44.30164,-0.14611,0.05530742,0.61628
140.073,44.4919,-0.14741,0.05533095,0.61642
140.673,44.6825,-0.14478,0.05351118,0.61656
141.273,44.87298,-0.14595,0.05294916,0.6167
141.873,45.06389,-0.14609,0.05482686,0.61684
142.473,45.25506,-0.14609,0.05660405,0.61698
143.073,45.44575,-0.14739,0.05493512,0.61711
143.673,45.63633,-0.14755,0.05525407,0.61725
144.273,45.8264,-0.14741,0.05794027,0.61738
144.873,46.01648,-0.14741,0.05917179,0.61751
145.473,46.2065,-0.1461,0.05912802,0.61765
146.073,46.3962,-0.14611,0.05972531,0.61778
146.673,46.5865,-0.14643,0.0585344,0.61791
147.273,46.7765,-0.14501,0.0599656,0.61804
147.873,46.96625,-0.14609,0.06184575,0.61817
148.473,47.1563,-0.14643,0.06234657,0.61829
149.073,47.34578,-0.14763,0.06394726,0.61842
149.673,47.53545,-0.1463,0.06366144,0.61854
150.273,47.72489,-0.14642,0.06233001,0.61867
150.873,47.91433,-0.14774,0.06230695,0.61879
151.473,48.1034,-0.14645,0.06373924,0.61891
152.073,48.29356,-0.14929,0.06841662,0.61904
152.673,48.484,-0.1451,0.0664429,0.61916
153.273,48.6744,-0.14708,0.06845601,0.61928
153.873,48.86408,-0.14703,0.06690737,0.6194
154.473,49.0533,-0.14774,0.06782681,0.61951
155.073,49.24214,-0.14642,0.06874107,0.61963
155.673,49.43136,-0.14754,0.06904889,0.61975
156.273,49.62065,-0.1461,0.06836129,0.61986
156.873,49.8097,-0.14743,0.06797827,0.61997
157.473,49.99902,-0.14742,0.06728897,0.62009
158.073,50.18845,-0.14728,0.06522497,0.6202
158.673,50.37703,-0.14708,0.06734781,0.62031
159.273,50.56593,-0.14578,0.06539893,0.62042
159.873,50.75448,-0.14741,0.06502166,0.62053
160.473,50.9428,-0.14628,0.06368916,0.62064
161.073,51.13151,-0.14609,0.0661735,0.62075
161.673,51.3201,-0.14718,0.06466073,0.62085
162.273,51.50796,-0.14709,0.06440459,0.62096
162.873,51.69634,-0.14578,0.06419032,0.62106
163.473,51.88495,-0.14708,0.06774118,0.62117
164.073,52.07307,-0.14708,0.06380688,0.62127
164.673,52.26194,-0.14707,0.06427135,0.62137
165.273,52.4497,-0.14774,0.06544646,0.62147
165.873,52.63791,-0.14633,0.06595571,0.62157
166.473,52.82589,-0.14788,0.06686167,0.62167
167.073,53.01446,-0.14642,0.06494186,0.62177
167.673,53.20267,-0.14763,0.06599564,0.62186
168.273,53.39115,-0.14774,0.06506625,0.62196
168.873,53.57934,-0.1467,0.06633461,0.62205
169.473,53.76707,-0.14679,0.06837245,0.62215
170.073,53.95559,-0.14643,0.06688029,0.62224
170.673,54.1444,-0.14643,0.06980837,0.62233
171.273,54.3318,-0.14772,0.07107921,0.62242
171.873,54.52027,-0.14511,0.06873635,0.62251
172.473,54.70851,-0.14643,0.07023489,0.6226
173.073,54.8971,-0.14543,0.0676059,0.62269
173.673,55.0861,-0.14592,0.06728205,0.62278
174.273,55.2744,-0.14676,0.06682514,0.62287
174.873,55.46184,-0.14781,0.06807568,0.62295
175.473,55.6496,-0.14774,0.06603393,0.62304
176.073,55.8376,-0.14745,0.06657348,0.62312
176.673,56.0251,-0.14774,0.06727584,0.6232
177.273,56.21335,-0.1478,0.06745448,0.62328
177.873,56.40185,-0.14702,0.06747328,0.62337
178.473,56.59012,-0.14642,0.06523449,0.62345
179.073,56.7789,-0.14642,0.06672309,0.62352
179.673,56.96696,-0.14677,0.06303896,0.6236
180.273,57.15461,-0.147,0.0646598,0.62368
180.873,57.34251,-0.14642,0.0617391,0.62376
181.473,57.5304,-0.14642,0.06377629,0.62383
182.073,57.71869,-0.14642,0.06271705,0.62391
182.673,57.90727,-0.14709,0.06230258,0.62398
183.273,58.095,-0.1484,0.06291155,0.62405
183.873,58.2831,-0.14708,0.06198068,0.62412
184.473,58.4709,-0.14657,0.06322236,0.62419
185.073,58.65961,-0.14739,0.06134486,0.62426
185.673,58.84794,-0.14545,0.06272572,0.62433
186.273,59.03609,-0.14604,0.06108391,0.6244
186.873,59.22351,-0.14642,0.06240705,0.62447
187.473,59.4109,-0.14742,0.06169978,0.62453
188.073,59.59856,-0.14675,0.06410901,0.6246
188.673,59.7859,-0.14606,0.06233933,0.62466
189.273,59.9744,-0.14577,0.06343389,0.62472
189.873,60.16205,-0.14577,0.05905264,0.62478
190.473,60.34935,-0.14511,0.06216615,0.62485
191.073,60.5372,-0.14577,0.06484069,0.62491
191.673,60.7244,-0.14642,0.06331269,0.62497
192.273,60.9125,-0.14644,0.06482609,0.62502
192.873,61.1006,-0.14576,0.06437399,0.62508
193.473,61.28836,-0.14708,0.06390197,0.62514
194.073,61.47529,-0.1471,0.06116047,0.62519
194.673,61.66265,-0.14544,0.06117029,0.62525
195.273,61.8506,-0.14622,0.06238013,0.6253
195.873,62.0391,-0.14705,0.06057921,0.62535
196.473,62.2272,-0.14588,0.05991537,0.62541
197.073,62.4149,-0.14588,0.05948393,0.62546
197.673,62.6026,-0.14594,0.05866,0.62551
198.273,62.79005,-0.14708,0.05773388,0.62556
198.873,62.97705,-0.14611,0.0613001,0.6256
199.473,63.1647,-0.14826,0.0589401,0.62565
200.073,63.35184,-0.14578,0.06133078,0.6257
200.673,63.53954,-0.14851,0.0621232,0.62574
201.273,63.7283,-0.14588,0.05904537,0.62579
201.873,63.916,-0.14588,0.06148127,0.62583
202.473,64.10466,-0.14589,0.06163975,0.62587
203.073,64.29297,-0.14712,0.0628128,0.62591
203.673,64.4813,-0.14785,0.06166472,0.62596
204.273,64.66839,-0.14914,0.06122116,0.62599
204.873,64.85531,-0.14721,0.0606456,0.62603
205.473,65.04245,-0.1467,0.05925999,0.62607
206.073,65.2299,-0.14869,0.06245695,0.62611
206.673,65.417,-0.14981,0.05909027,0.62614
207.273,65.60379,-0.14956,0.06205377,0.62618
207.873,65.79029,-0.1481,0.06207868,0.62621
208.473,65.9772,-0.14939,0.05889189,0.62625
209.073,66.16404,-0.1507,0.06012612,0.62628
209.673,66.35079,-0.14971,0.06143025,0.62631
210.273,66.53769,-0.14984,0.05790145,0.62634
210.873,66.72528,-0.14975,0.05870122,0.62637
211.473,66.91225,-0.14971,0.05869731,0.6264
212.073,67.09989,-0.14841,0.05930412,0.62643
212.673,67.28689,-0.15103,0.06045232,0.62645
213.273,67.47355,-0.15103,0.06105957,0.62648
213.873,67.66096,-0.15241,0.06170271,0.62651
214.473,67.84826,-0.15033,0.06240331,0.62653
215.073,68.03576,-0.15343,0.06266741,0.62655
215.673,68.223,-0.15267,0.05927933,0.62658
216.273,68.4101,-0.15399,0.06338619,0.6266
216.873,68.59736,-0.15433,0.06271459,0.62662
217.473,68.7855,-0.15336,0.06543503,0.62664
218.073,68.97331,-0.15451,0.06563479,0.62666
218.673,69.16062,-0.1544,0.06399688,0.62667
219.273,69.34796,-0.15593,0.06517601,0.62669
219.873,69.5358,-0.15498,0.06533924,0.62671
220.473,69.7233,-0.15635,0.06757623,0.62672
221.073,69.91099,-0.15621,0.06773715,0.62673
221.673,70.0984,-0.15696,0.06770027,0.62675
222.273,70.28605,-0.15663,0.06628145,0.62676
222.873,70.47349,-0.15758,0.06487041,0.62677
223.473,70.66111,-0.1594,0.06572931,0.62678
224.073,70.84836,-0.15935,0.0669715,0.62679
224.673,71.0359,-0.1588,0.06497633,0.6268
225.273,71.22354,-0.16068,0.06381766,0.62681
225.873,71.41133,-0.1616,0.06341662,0.62681
226.473,71.599,-0.16233,0.06358889,0.62682
227.073,71.7867,-0.16231,0.0631701,0.62683
227.673,71.9746,-0.16364,0.06248514,0.62683
228.273,72.16171,-0.16406,0.06199021,0.62683
228.873,72.34881,-0.16529,0.06152931,0.62684
229.473,72.53618,-0.16643,0.06150903,0.62684
230.073,72.72373,-0.1676,0.0600273,0.62684
230.673,72.9114,-0.16925,0.06204526,0.62684
231.273,73.09891,-0.16925,0.06139034,0.62684
231.873,73.2859,-0.17023,0.06121434,0.62683
232.473,73.4731,-0.17244,0.0616803,0.62683
233.073,73.66009,-0.17425,0.06160467,0.62683
233.673,73.8471,-0.17549,0.05876533,0.62682
234.273,74.03447,-0.17549,0.06122201,0.62682
234.873,74.2225,-0.17812,0.06140676,0.62681
235.473,74.41001,-0.17813,0.06167238,0.6268
236.073,74.5971,-0.17946,0.06245841,0.62679
236.673,74.78441,-0.18218,0.06431979,0.62678
237.273,74.9718,-0.18089,0.06242804,0.62677
237.873,75.1593,-0.18443,0.06432253,0.62676
238.473,75.34725,-0.18609,0.06437013,0.62675
239.073,75.53478,-0.18743,0.0632382,0.62674
239.673,75.72231,-0.19011,0.06612814,0.62672
240.273,75.9094,-0.19085,0.06502682,0.62671
240.873,76.0963,-0.19203,0.06534429,0.62669
241.473,76.2835,-0.19491,0.0663898,0.62668
242.073,76.47104,-0.19681,0.06802294,0.62666
242.673,76.6588,-0.19885,0.06856494,0.62664
243.273,76.84625,-0.19903,0.06698566,0.62662
243.873,77.03376,-0.20148,0.06935405,0.6266
244.473,77.2207,-0.2028,0.06786305,0.62658
245.073,77.4081,-0.20531,0.06751244,0.62656
245.673,77.59586,-0.2091,0.06818741,0.62654
246.273,77.7834,-0.20938,0.06713516,0.62651
246.873,77.9713,-0.21206,0.06713384,0.62649
247.473,78.1593,-0.21421,0.06947445,0.62646
248.073,78.3479,-0.21575,0.07210445,0.62644
248.673,78.53645,-0.21898,0.07012232,0.62641
249.273,78.72475,-0.22031,0.07324596,0.62638
249.873,78.91264,-0.22329,0.07154651,0.62635
250.473,79.1006,-0.22463,0.0728282,0.62632
251.073,79.28902,-0.22899,0.07260283,0.62629
251.673,79.47743,-0.23251,0.0696499,0.62626
252.273,79.66582,-0.23528,0.07507015,0.62623
252.873,79.85409,-0.23787,0.0717418,0.6262
253.473,80.0425,-0.23989,0.07239574,0.62616
254.073,80.2307,-0.24317,0.06872911,0.62613
254.673,80.4185,-0.24686,0.06924439,0.62609
255.273,80.606,-0.25031,0.07219124,0.62605
255.873,80.79358,-0.25275,0.06997678,0.62602
256.473,80.9811,-0.25438,0.07102304,0.62598
257.073,81.16936,-0.25951,0.07238457,0.62594
257.673,81.35736,-0.26244,0.07220524,0.6259
258.273,81.5449,-0.26762,0.07352026,0.62586
258.873,81.73271,-0.27012,0.07432149,0.62581
259.473,81.92062,-0.27438,0.07781422,0.62577
260.073,82.10853,-0.27774,0.07710924,0.62573
260.673,82.29665,-0.28106,0.07737117,0.62568
261.273,82.48442,-0.2864,0.07767423,0.62564
261.873,82.67214,-0.28815,0.07813294,0.62559
262.473,82.86013,-0.29441,0.07654104,0.62554
263.073,83.048,-0.29767,0.07813777,0.6255
263.673,83.23668,-0.30127,0.0807701,0.62545
264.273,83.42491,-0.30568,0.08086922,0.6254
264.873,83.6136,-0.30964,0.0829656,0.62535
265.473,83.80161,-0.31611,0.0818074,0.6253
266.073,83.98917,-0.3204,0.07980463,0.62524
266.673,84.1767,-0.32394,0.083099,0.62519
267.273,84.3644,-0.32924,0.08234609,0.62514
267.873,84.55163,-0.33339,0.082277,0.62508
268.473,84.73991,-0.33944,0.08493113,0.62503
269.073,84.92743,-0.34428,0.08521186,0.62497
269.673,85.1154,-0.3498,0.08597144,0.62491
270.273,85.30373,-0.35548,0.08670435,0.62485
270.873,85.49205,-0.36085,0.08682081,0.62479
271.473,85.68048,-0.36511,0.08627513,0.62473
272.073,85.8686,-0.37089,0.08601515,0.62467
272.673,86.05632,-0.37818,0.08853403,0.62461
273.273,86.2445,-0.38288,0.09110589,0.62455
273.873,86.4323,-0.38929,0.09046011,0.62449
274.473,86.62034,-0.39712,0.08999257,0.62442
275.073,86.8078,-0.40372,0.09116536,0.62436
275.673,86.99413,-0.40826,0.09056005,0.62429
276.273,87.18093,-0.41609,0.09220078,0.62422
276.873,87.3679,-0.42286,0.09235443,0.62416
277.473,87.55509,-0.42906,0.09477691,0.62409
278.073,87.7428,-0.43809,0.09512509,0.62402
278.673,87.93036,-0.44228,0.0959472,0.62395
279.273,88.11873,-0.44894,0.09783942,0.62388
279.873,88.30771,-0.45622,0.09728991,0.6238
280.473,88.49642,-0.46401,0.09980488,0.62373
281.073,88.68571,-0.47404,0.09955362,0.62366
281.673,88.8736,-0.48181,0.10038,0.62358
282.273,89.0624,-0.48842,0.10157,0.62351
282.873,89.25049,-0.49701,0.10342,0.62343
283.473,89.43876,-0.50694,0.1051,0.62336
284.073,89.62701,-0.51461,0.1054,0.62328
284.673,89.81515,-0.52171,0.10484,0.6232
285.273,90.00319,-0.53286,0.10521,0.62312
285.873,90.19158,-0.54311,0.10489,0.62304
286.473,90.37994,-0.55034,0.10768,0.62296
287.073,90.56835,-0.56023,0.10984,0.62288
287.673,90.75717,-0.57025,0.11105,0.62279
288.273,90.94637,-0.57926,0.11104,0.62271
288.873,91.13518,-0.5902,0.11134,0.62263
289.473,91.3242,-0.60047,0.11457,0.62254
290.073,91.51309,-0.61062,0.11773,0.62245
290.673,91.70135,-0.62112,0.1169,0.62237
291.273,91.8904,-0.6347,0.11972,0.62228
291.873,92.07944,-0.64478,0.12147,0.62219
292.473,92.26822,-0.65483,0.1225,0.6221
293.073,92.45696,-0.66482,0.12167,0.62201
293.673,92.64562,-0.68053,0.12699,0.62192
294.273,92.83449,-0.69172,0.12864,0.62183
294.873,93.0232,-0.70339,0.1306,0.62174
295.473,93.2119,-0.71463,0.13306,0.62164
296.073,93.39975,-0.72743,0.13512,0.62155
296.673,93.58815,-0.74325,0.13439,0.62145
297.273,93.77677,-0.7571,0.13916,0.62136
297.873,93.96522,-0.76909,0.14167,0.62126
298.473,94.1545,-0.78447,0.1442,0.62116
299.073,94.3432,-0.79943,0.14429,0.62106
299.673,94.53227,-0.81258,0.14851,0.62096
300.273,94.72151,-0.82779,0.14779,0.62086
300.873,94.91075,-0.84398,0.15248,0.62076
301.473,95.09975,-0.86124,0.15903,0.62066
302.073,95.28926,-0.87712,0.15956,0.62056
302.673,95.47822,-0.8939,0.16356,0.62046
303.273,95.66709,-0.91252,0.16876,0.62035
303.873,95.8558,-0.93007,0.17053,0.62025
304.473,96.0429,-0.94982,0.17458,0.62014
305.073,96.23128,-0.96591,0.17528,0.62004
305.673,96.42,-0.98625,0.18023,0.61993
306.273,96.60874,-1.00676,0.18516,0.61982
306.873,96.79894,-1.02714,0.1922,0.61971
307.473,96.988,-1.04837,0.1971,0.6196
308.073,97.17653,-1.07025,0.20074,0.61949
308.673,97.36556,-1.09368,0.20689,0.61938
309.273,97.55459,-1.11734,0.21422,0.61927
309.873,97.74335,-1.14094,0.21704,0.61915
310.473,97.93271,-1.16564,0.22126,0.61904
311.073,98.12193,-1.19212,0.22594,0.61893
311.673,98.31116,-1.2192,0.23156,0.61881
312.273,98.50098,-1.24472,0.23819,0.61869
312.873,98.6907,-1.27191,0.24548,0.61858
313.473,98.8802,-1.29959,0.25158,0.61846
314.073,99.07005,-1.32893,0.25852,0.61834
314.673,99.25957,-1.36023,0.26586,0.61822
315.273,99.44893,-1.39205,0.27291,0.6181
315.873,99.6388,-1.42559,0.28085,0.61798
316.473,99.82823,-1.45832,0.2879,0.61786
317.073,100.0183,-1.4959,0.29903,0.61774
317.673,100.2088,-1.52884,0.30653,0.61761
318.273,100.399,-1.56528,0.31533,0.61749
318.873,100.589,-1.60634,0.3236,0.61737
319.473,100.779,-1.64483,0.33148,0.61724
320.073,100.969,-1.68566,0.34157,0.61711
320.673,101.16,-1.72673,0.3473,0.61699
321.273,101.35,-1.77035,0.35983,0.61686
321.873,101.541,-1.81532,0.36963,0.61673
322.473,101.731,-1.8612,0.37987,0.6166
323.073,101.921,-1.90894,0.38888,0.61647
323.673,102.112,-1.9559,0.39882,0.61634
324.273,102.303,-2.00724,0.41222,0.61621
324.873,102.493,-2.06136,0.41864,0.61608
325.473,102.684,-2.10954,0.42992,0.61594
326.073,102.875,-2.16438,0.43872,0.61581
326.673,103.066,-2.21927,0.44779,0.61567
327.273,103.257,-2.27682,0.45561,0.61554
327.873,103.448,-2.33227,0.46286,0.6154
328.473,103.638,-2.39139,0.46915,0.61526
329.073,103.828,-2.45018,0.47573,0.61513
329.673,104.0182,-2.51096,0.48547,0.61499
330.273,104.2082,-2.57233,0.48691,0.61485
330.873,104.399,-2.63335,0.48754,0.61471
331.473,104.589,-2.69627,0.49234,0.61457
332.073,104.779,-2.75709,0.49538,0.61443
332.673,104.969,-2.81816,0.49227,0.61428
333.273,105.159,-2.88236,0.49395,0.61414
333.873,105.349,-2.9454,0.48908,0.614
334.473,105.54,-3.00757,0.48299,0.61385
335.073,105.73,-3.06844,0.47711,0.61371
335.673,105.92,-3.12924,0.46568,0.61356
336.273,106.111,-3.1881,0.45382,0.61341
336.873,106.301,-3.24424,0.43906,0.61326
337.473,106.492,-3.30234,0.42805,0.61312
338.073,106.6818,-3.35752,0.41046,0.61297
338.673,106.872,-3.40874,0.39204,0.61282
339.273,107.061,-3.46023,0.37055,0.61267
339.873,107.252,-3.50983,0.35221,0.61251
340.473,107.4422,-3.55439,0.33078,0.61236
341.073,107.633,-3.5978,0.30678,0.61221
341.673,107.822,-3.63612,0.28255,0.61206
342.273,108.012,-3.67495,0.26006,0.6119
342.873,108.202,-3.71119,0.23728,0.61175
343.473,108.391,-3.74442,0.21628,0.61159
344.073,108.581,-3.77484,0.19297,0.61143
344.673,108.771,-3.80093,0.17333,0.61128
345.273,108.961,-3.82679,0.15557,0.61112
345.873,109.15,-3.85068,0.13859,0.61096
346.473,109.34,-3.87391,0.12223,0.6108
347.073,109.53,-3.89511,0.10748,0.61064
347.673,109.72,-3.91437,0.09433568,0.61048
348.273,109.91,-3.93152,0.07973684,0.61031
348.873,110.1,-3.9451,0.06840686,0.61015
349.473,110.291,-3.95977,0.0582573,0.60999
350.073,110.481,-3.97528,0.04524214,0.60982
350.673,110.672,-3.98758,0.03569032,0.60966
351.273,110.863,-3.9985,0.02677084,0.60949
351.873,111.055,-4.00819,0.01702215,0.60933
352.473,111.246,-4.01605,0.008669899,0.60916
353.073,111.437,-4.0257,0.0009585963,0.60899
353.673,111.6286,-4.03226,-0.004943947,0.60883
354.273,111.82,-4.03747,-0.01131896,0.60866
354.873,112.011,-4.04435,-0.01504161,0.60849
355.473,112.201,-4.05673,-0.02114035,0.60832
356.073,112.392,-4.05204,-0.02622486,0.60814
356.673,112.5818,-4.05774,-0.03155477,0.60797
357.273,112.7726,-4.06409,-0.03233829,0.6078
357.873,112.963,-4.06941,-0.03391068,0.60763
358.473,113.156,-4.07393,-0.03570896,0.60745
359.073,113.348,-4.06948,-0.03784789,0.60728
359.673,113.54,-4.06857,-0.03811484,0.6071
360.273,113.732,-4.07533,-0.03968025,0.60692
360.873,113.923,-4.08238,-0.0397868,0.60675
361.473,114.114,-4.08594,-0.04400392,0.60657
362.073,114.306,-4.08221,-0.04611659,0.60639
362.673,114.497,-4.07774,-0.04633522,0.60621
363.273,114.6897,-4.07904,-0.05009398,0.60603
363.873,114.881,-4.08,-0.05297617,0.60585
364.473,115.072,-4.08588,-0.04989026,0.60567
365.073,115.262,-4.09109,-0.05088735,0.60549
365.673,115.454,-4.09097,-0.05328061,0.60531
366.273,115.646,-4.09302,-0.05307692,0.60512
366.873,115.839,-4.09492,-0.05222259,0.60494
367.473,116.031,-4.0949,-0.05247873,0.60475
368.073,116.224,-4.09687,-0.05070433,0.60457
368.673,116.416,-4.09815,-0.0497896,0.60438
369.273,116.607,-4.09951,-0.05226028,0.60419
369.873,116.799,-4.10015,-0.05694553,0.60401
370.473,116.992,-4.10213,-0.05467891,0.60382
371.073,117.184,-4.10346,-0.05419211,0.60363
371.673,117.377,-4.10349,-0.05513032,0.60344
372.273,117.569,-4.10339,-0.05568221,0.60325
372.873,117.762,-4.10574,-0.05502532,0.60306
373.473,117.955,-4.10821,-0.05556041,0.60287
374.073,118.148,-4.10676,-0.05739985,0.60267
374.673,118.341,-4.10989,-0.05803473,0.60248
375.273,118.535,-4.11004,-0.05916641,0.60229
375.873,118.728,-4.11278,-0.06098007,0.60209
376.473,118.921,-4.11269,-0.06233718,0.6019
377.073,119.114,-4.11288,-0.0633977,0.6017
377.673,119.307,-4.1153,-0.06255225,0.60151
378.273,119.5,-4.11432,-0.06253774,0.60131
378.873,119.693,-4.11563,-0.06155234,0.60111
379.473,119.885,-4.11575,-0.0629271,0.60091
380.073,120.078,-4.11762,-0.06526751,0.60071
380.673,120.27,-4.11961,-0.06468796,0.60051
381.273,120.463,-4.11926,-0.06125631,0.60031
381.873,120.655,-4.12057,-0.06586554,0.60011
382.473,120.848,-4.12189,-0.06319013,0.59991
383.073,121.041,-4.12215,-0.06203631,0.59971
383.673,121.234,-4.12244,-0.06117003,0.5995
384.273,121.427,-4.12503,-0.0614658,0.5993
384.873,121.621,-4.12647,-0.06292384,0.5991
385.473,121.815,-4.12507,-0.06390367,0.59889
386.073,122.008,-4.12662,-0.06468906,0.59868
386.673,122.202,-4.12787,-0.06833387,0.59848
387.273,122.3956,-4.12988,-0.06920034,0.59827
387.873,122.589,-4.12887,-0.06736495,0.59806
388.473,122.782,-4.13055,-0.07085547,0.59785
389.073,122.976,-4.13192,-0.06928382,0.59765
389.673,123.17,-4.1322,-0.067788,0.59744
390.273,123.363,-4.132,-0.06997217,0.59722
390.873,123.556,-4.13334,-0.06757182,0.59701
391.473,123.748,-4.13363,-0.06886282,0.5968
392.073,123.941,-4.1345,-0.06766162,0.59659
392.673,124.133,-4.13582,-0.06796387,0.59638
393.273,124.326,-4.13442,-0.06733107,0.59616
393.873,124.52,-4.13711,-0.06670726,0.59595
394.473,124.714,-4.13771,-0.0660983,0.59573
395.073,124.908,-4.13779,-0.06715586,0.59552
395.673,125.103,-4.13975,-0.0663186,0.5953
396.273,125.297,-4.14106,-0.06745762,0.59508
396.873,125.49,-4.14029,-0.06534802,0.59487
397.473,125.684,-4.14372,-0.06613287,0.59465
398.073,125.878,-4.1424,-0.06655095,0.59443
398.673,126.073,-4.14238,-0.06585793,0.59421
399.273,126.268,-4.14245,-0.06888002,0.59399
399.873,126.462,-4.14397,-0.06740774,0.59377
400.473,126.657,-4.1436,-0.06460462,0.59355
401.073,126.851,-4.15065,-0.06714356,0.59332
401.673,127.046,-4.14499,-0.06674483,0.5931
402.273,127.24,-4.14597,-0.06626242,0.59288
402.873,127.4348,-4.14547,-0.06643904,0.59265
403.473,127.629,-4.15102,-0.06744653,0.59243
404.073,127.823,-4.14743,-0.06613725,0.5922
404.673,128.017,-4.15007,-0.06558911,0.59198
405.273,128.211,-4.15037,-0.06538048,0.59175
405.873,128.405,-4.1504,-0.06522834,0.59153
406.473,128.5998,-4.15139,-0.06127475,0.5913
407.073,128.794,-4.15048,-0.06343502,0.59107
407.673,128.989,-4.15108,-0.06139853,0.59084
408.273,129.183,-4.1515,-0.06134124,0.59061
408.873,129.378,-4.16175,-0.05971747,0.59038
409.473,129.572,-4.15279,-0.05828423,0.59015
410.073,129.767,-4.15304,-0.05646672,0.58992
410.673,129.962,-4.15291,-0.05001427,0.58969
411.273,130.156,-4.15447,-0.04276946,0.58945
411.873,130.351,-4.15446,-0.03250206,0.58922
412.473,130.545,-4.15433,-0.0281859,0.58899
413.073,130.74,-4.15889,-0.02476843,0.58875
413.673,130.934,-4.15588,-0.02160027,0.58852
414.273,131.129,-4.15621,-0.01752106,0.58828
414.873,131.324,-4.15753,-0.01676893,0.58804
415.473,131.519,-4.15883,-0.01706554,0.58781
416.073,131.714,-4.15754,-0.01367038,0.58757
416.673,131.909,-4.15753,-0.01357824,0.58733
417.273,132.103,-4.15885,-0.01279312,0.58709
417.873,132.298,-4.16017,-0.009656452,0.58685
418.473,132.493,-4.16145,-0.007835584,0.58661
419.073,132.688,-4.1605,-0.004223515,0.58637
419.673,132.8828,-4.16047,-0.00574068,0.58613
420.273,133.077,-4.16269,-0.007024625,0.58589
420.873,133.271,-4.16346,-0.004294667,0.58565
421.473,133.465,-4.16441,-0.002313012,0.5854
422.073,133.6596,-4.16444,-0.002126811,0.58516
422.673,133.854,-4.1634,0.00172495,0.58492
423.273,134.05,-4.16477,0.007089046,0.58467
423.873,134.246,-4.16609,0.006587997,0.58443
424.473,134.442,-4.16642,0.01068259,0.58418
425.073,134.6377,-4.16743,0.01237686,0.58393
425.673,134.833,-4.16675,0.0110582,0.58369
426.273,135.029,-4.1744,0.00592826,0.58344
426.873,135.224,-4.17005,0.008952476,0.58319
427.473,135.419,-4.17025,0.008568615,0.58294
428.073,135.614,-4.17179,0.009076068,0.58269
428.673,135.81,-4.17244,0.00971028,0.58244
429.273,136.005,-4.17656,0.009160811,0.58219
429.873,136.201,-4.17197,0.008416326,0.58194
430.473,136.397,-4.17276,0.008560595,0.58169
431.073,136.593,-4.17387,0.01012495,0.58144
431.673,136.789,-4.17386,0.009475178,0.58118
432.273,136.985,-4.17421,0.00928469,0.58093
432.873,137.181,-4.17487,0.00582039,0.58068
433.473,137.376,-4.1776,0.00172003,0.58042
434.073,137.572,-4.17683,0.0004276168,0.58017
434.673,137.7676,-4.17714,0.000934071,0.57991
435.273,137.963,-4.17979,0.00196999,0.57966
435.873,138.159,-4.18025,0.003281563,0.5794
436.473,138.355,-4.1798,0.003027955,0.57914
437.073,138.551,-4.18117,-0.001002253,0.57888
437.673,138.748,-4.18016,-0.001254922,0.57863
438.273,138.945,-4.18158,-0.004999735,0.57837
438.873,139.14,-4.18277,-0.00287209,0.57811
439.473,139.336,-4.18244,-0.0003839734,0.57785
440.073,139.532,-4.18111,-0.002059951,0.57759
440.673,139.729,-4.17959,-0.001665007,0.57732
441.273,139.926,-4.18247,0.0001361077,0.57706
441.873,140.122,-4.18474,0.00112039,0.5768
442.473,140.32,-4.18485,0.0007955261,0.57654
443.073,140.517,-4.18408,0.00717689,0.57627
443.673,140.715,-4.18487,0.00733318,0.57601
444.273,140.912,-4.18541,0.009161589,0.57575
444.873,141.109,-4.18671,0.00760551,0.57548
445.473,141.306,-4.18807,0.01172347,0.57521
446.073,141.502,-4.18803,0.01082149,0.57495
446.673,141.698,-4.18803,0.01195301,0.57468
447.273,141.895,-4.18813,0.01685617,0.57441
447.873,142.091,-4.18934,0.01793003,0.57415
448.473,142.287,-4.1907,0.02134658,0.57388
449.073,142.484,-4.19132,0.02141147,0.57361
449.673,142.6803,-4.19182,0.02177022,0.57334
450.273,142.877,-4.19195,0.02560564,0.57307
450.873,143.073,-4.19216,0.02498888,0.5728
451.473,143.27,-4.1923,0.02370332,0.57253
452.073,143.467,-4.19626,0.02683106,0.57226
452.673,143.664,-4.19362,0.02973765,0.57198
453.273,143.862,-4.19362,0.02946602,0.57171
453.873,144.059,-4.19626,0.03060304,0.57144
454.473,144.255,-4.19632,0.03313423,0.57116
455.073,144.452,-4.19629,0.03132997,0.57089
455.673,144.65,-4.19757,0.03391272,0.57062
456.273,144.847,-4.19621,0.03486766,0.57034
456.873,145.044,-4.19818,0.03551085,0.57007
457.473,145.2408,-4.19773,0.03727236,0.56979
458.073,145.438,-4.19944,0.03742759,0.56951
458.673,145.635,-4.20064,0.03699184,0.56923
459.273,145.831,-4.19932,0.03983816,0.56896
459.873,146.028,-4.20193,0.03798548,0.56868
460.473,146.226,-4.20154,0.03561547,0.5684
461.073,146.423,-4.20328,0.03725323,0.56812
461.673,146.62,-4.20196,0.03760179,0.56784
462.273,146.817,-4.20196,0.03570839,0.56756
462.873,147.014,-4.20461,0.03749516,0.56728
463.473,147.211,-4.2046,0.03963944,0.567
464.073,147.407,-4.20592,0.03695793,0.56672
464.673,147.603,-4.20728,0.03812889,0.56643
465.273,147.799,-4.20595,0.03960071,0.56615
465.873,147.996,-4.20591,0.04171715,0.56587
466.473,148.193,-4.20728,0.04411095,0.56558
467.073,148.39,-4.20766,0.04184714,0.5653
467.673,148.588,-4.2071,0.04418255,0.56501
468.273,148.785,-4.20893,0.04559671,0.56473
468.873,148.982,-4.20887,0.04394249,0.56444
469.473,149.179,-4.20889,0.04576969,0.56416
470.073,149.377,-4.20618,0.04805022,0.56387
470.673,149.575,-4.20899,0.04769682,0.56358
471.273,149.773,-4.21019,0.04635871,0.56329
471.873,149.971,-4.21004,0.04717827,0.56301
472.473,150.169,-4.21021,0.0475044,0.56272
473.073,150.367,-4.2115,0.04944413,0.56243
473.673,150.565,-4.21391,0.04917179,0.56214
474.273,150.7629,-4.2126,0.04612435,0.56185
474.873,150.9608,-4.21141,0.04785034,0.56156
475.473,151.1583,-4.2128,0.04846781,0.56127
476.073,151.356,-4.21326,0.05256552,0.56097
476.673,151.554,-4.21471,0.05312977,0.56068
477.273,151.752,-4.21314,0.05508707,0.56039
477.873,151.95,-4.21578,0.05453185,0.5601
478.473,152.147,-4.21446,0.05384546,0.5598
479.073,152.344,-4.21446,0.05303592,0.55951
479.673,152.542,-4.21446,0.05267039,0.55921
480.273,152.739,-4.21595,0.05326376,0.55892
480.873,152.938,-4.21446,0.05548798,0.55862
481.473,153.136,-4.21577,0.05439487,0.55833
482.073,153.334,-4.21807,0.05385158,0.55803
482.673,153.532,-4.21808,0.05118593,0.55773
483.273,153.73,-4.21676,0.05443242,0.55744
483.873,153.929,-4.21808,0.05636434,0.55714
484.473,154.128,-4.2178,0.05246631,0.55684
485.073,154.327,-4.21939,0.05470927,0.55654
485.673,154.526,-4.21939,0.05254311,0.55624
486.273,154.725,-4.21823,0.05379457,0.55594
486.873,154.923,-4.21846,0.05102405,0.55564
487.473,155.1199,-4.2194,0.05181719,0.55534
488.073,155.318,-4.21968,0.05345174,0.55504
488.673,155.515,-4.21834,0.05245714,0.55474
489.273,155.713,-4.21353,0.05638441,0.55444
489.873,155.91,-4.22137,0.05515829,0.55413
490.473,156.109,-4.22199,0.05501841,0.55383
491.073,156.307,-4.22203,0.05647817,0.55353
491.673,156.504,-4.22343,0.05543588,0.55322
492.273,156.702,-4.22267,0.05803113,0.55292
492.873,156.9,-4.22401,0.05555446,0.55262
493.473,157.098,-4.22525,0.05509884,0.55231
494.073,157.297,-4.22535,0.05373876,0.55201
494.673,157.4964,-4.22401,0.05637747,0.5517
495.273,157.696,-4.22466,0.05427225,0.55139
495.873,157.895,-4.22635,0.05789818,0.55109
496.473,158.0948,-4.22433,0.05708993,0.55078
497.073,158.294,-4.23156,0.05501469,0.55047
497.673,158.4935,-4.22749,0.05799508,0.55016
498.273,158.693,-4.22653,0.0599151,0.54985
498.873,158.892,-4.2278,0.05923162,0.54955
499.473,159.091,-4.22652,0.05742594,0.54924
500.073,159.29,-4.22719,0.0595496,0.54893
500.673,159.489,-4.22719,0.05819901,0.54862
501.273,159.687,-4.22818,0.05993408,0.54831
501.873,159.886,-4.22752,0.05889558,0.54799
502.473,160.084,-4.22883,0.06038659,0.54768
503.073,160.283,-4.22919,0.05880989,0.54737
503.673,160.4804,-4.23014,0.06251156,0.54706
504.273,160.678,-4.22949,0.06161781,0.54675
504.873,160.876,-4.23048,0.06401492,0.54643
505.473,161.075,-4.22982,0.06362622,0.54612
506.073,161.275,-4.23114,0.06546578,0.5458
506.673,161.475,-4.23251,0.06685108,0.54549
507.273,161.6741,-4.23113,0.0658497,0.54518
507.873,161.874,-4.23109,0.06644155,0.54486
508.473,162.073,-4.23274,0.06558725,0.54454
509.073,162.272,-4.23238,0.06813364,0.54423
509.673,162.471,-4.23212,0.06616763,0.54391
510.273,162.67,-4.23212,0.06856329,0.54359
510.873,162.87,-4.23456,0.06734656,0.54328
511.473,163.069,-4.23377,0.06998885,0.54296
512.073,163.2688,-4.23389,0.06902454,0.54264
512.673,163.469,-4.23481,0.07254822,0.54232
513.273,163.668,-4.23481,0.07006217,0.542
513.873,163.868,-4.23474,0.07055164,0.54168
514.473,164.068,-4.23529,0.07035329,0.54136
515.073,164.268,-4.23629,0.07455141,0.54104
515.673,164.468,-4.23429,0.07246444,0.54072
516.273,164.667,-4.2353,0.07076623,0.5404
516.873,164.867,-4.23563,0.07445503,0.54008
517.473,165.066,-4.2353,0.07108391,0.53976
518.073,165.265,-4.23795,0.07277962,0.53944
518.673,165.464,-4.23791,0.07077151,0.53912
519.273,165.665,-4.23727,0.06904931,0.53879
519.873,165.865,-4.23462,0.07260002,0.53847
520.473,166.0653,-4.23727,0.07305148,0.53815
521.073,166.265,-4.23826,0.07570149,0.53782
521.673,166.464,-4.23827,0.07692596,0.5375
522.273,166.663,-4.23773,0.07946795,0.53717
522.873,166.861,-4.23958,0.0790159,0.53685
523.473,167.06,-4.23892,0.07929474,0.53652
524.073,167.259,-4.23732,0.08184398,0.5362
524.673,167.459,-4.23991,0.08088576,0.53587
525.273,167.66,-4.23872,0.08217412,0.53554
525.873,167.86,-4.24096,0.08132922,0.53522
526.473,168.061,-4.24058,0.08498557,0.53489
527.073,168.261,-4.24057,0.08969594,0.53456
527.673,168.462,-4.23995,0.09031134,0.53423
528.273,168.662,-4.24089,0.08830968,0.5339
528.873,168.863,-4.24091,0.08625811,0.53357
529.473,169.0633,-4.24262,0.08767692,0.53325
530.073,169.264,-4.24255,0.08621809,0.53292
530.673,169.464,-4.24169,0.08489945,0.53259
531.273,169.665,-4.24124,0.08558826,0.53226
531.873,169.865,-4.24255,0.08587159,0.53192
532.473,170.0656,-4.2432,0.08965363,0.53159
533.073,170.266,-4.24287,0.09547985,0.53126
533.673,170.466,-4.24309,0.09016464,0.53093
534.273,170.666,-4.24176,0.08966361,0.5306
534.873,170.866,-4.24313,0.09172951,0.53027
535.473,171.067,-4.24441,0.0941668,0.52993
536.073,171.267,-4.24441,0.09423785,0.5296
536.673,171.4682,-4.24578,0.09412959,0.52927
537.273,171.669,-4.24407,0.09232425,0.52893
537.873,171.869,-4.24434,0.09486401,0.5286
538.473,172.07,-4.24572,0.09406127,0.52826
539.073,172.272,-4.24717,0.09258592,0.52793
539.673,172.473,-4.24704,0.09757424,0.52759
540.273,172.674,-4.24704,0.09722968,0.52726
540.873,172.874,-4.24704,0.0957092,0.52692
541.473,173.074,-4.24572,0.09549249,0.52659
542.073,173.274,-4.24691,0.09479317,0.52625
542.673,173.473,-4.24691,0.09477632,0.52591
543.273,173.674,-4.24809,0.09090595,0.52557
543.873,173.875,-4.24707,0.09292377,0.52524
544.473,174.076,-4.24704,0.0939732,0.5249
545.073,174.277,-4.24708,0.09475095,0.52456
545.673,174.478,-4.24634,0.09616599,0.52422
546.273,174.678,-4.24824,0.09627269,0.52388
546.873,174.879,-4.24779,0.09861288,0.52354
547.473,175.08,-4.24824,0.10259,0.5232
548.073,175.2819,-4.24824,0.09898123,0.52286
548.673,175.484,-4.24923,0.10074,0.52252
549.273,175.685,-4.24927,0.10309,0.52218
549.873,175.886,-4.24958,0.10234,0.52184
550.473,176.087,-4.25006,0.10332,0.5215
551.073,176.288,-4.24927,0.10103,0.52116
551.673,176.49,-4.25051,0.10177,0.52082
552.273,176.691,-4.24988,0.10464,0.52048
552.873,176.893,-4.24926,0.1028,0.52013
553.473,177.095,-4.25009,0.10413,0.51979
554.073,177.296,-4.24991,0.10238,0.51945
554.673,177.497,-4.24988,0.10501,0.5191
555.273,177.699,-4.2512,0.10743,0.51876
555.873,177.901,-4.2512,0.10698,0.51842
556.473,178.103,-4.25253,0.10739,0.51807
557.073,178.3042,-4.25252,0.10826,0.51773
557.673,178.506,-4.25351,0.10835,0.51738
558.273,178.708,-4.25351,0.10951,0.51704
558.873,178.91,-4.25285,0.10868,0.51669
559.473,179.111,-4.25156,0.1072,0.51634
560.073,179.312,-4.25752,0.10849,0.516
560.673,179.513,-4.25253,0.10907,0.51565
561.273,179.714,-4.25306,0.10792,0.5153
561.873,179.915,-4.25384,0.1051,0.51496
562.473,180.116,-4.25512,0.10968,0.51461
563.073,180.318,-4.25549,0.10774,0.51426
563.673,180.52,-4.25515,0.10995,0.51391
564.273,180.722,-4.25527,0.10939,0.51357
564.873,180.924,-4.25363,0.11033,0.51322
565.473,181.127,-4.25483,0.10831,0.51287
566.073,181.329,-4.25615,0.10868,0.51252
566.673,181.533,-4.25615,0.1115,0.51217
567.273,181.735,-4.2569,0.11364,0.51182
567.873,181.937,-4.25746,0.11466,0.51147
568.473,182.139,-4.25614,0.11584,0.51112
569.073,182.34,-4.25613,0.1155,0.51077
569.673,182.541,-4.25604,0.11935,0.51042
570.273,182.743,-4.25731,0.11624,0.51007
570.873,182.945,-4.25613,0.11692,0.50972
571.473,183.148,-4.25846,0.11726,0.50936
572.073,183.351,-4.25779,0.12051,0.50901
572.673,183.554,-4.25809,0.11669,0.50866
573.273,183.755,-4.25944,0.12165,0.50831
573.873,183.957,-4.25952,0.1195,0.50795
574.473,184.158,-4.25955,0.11873,0.5076
575.073,184.359,-4.25809,0.12335,0.50725
575.673,184.561,-4.25855,0.12069,0.50689
576.273,184.763,-4.25856,0.125,0.50654
576.873,184.9664,-4.25725,0.12589,0.50619
577.473,185.169,-4.25775,0.13042,0.50583
578.073,185.372,-4.2589,0.13185,0.50548
578.673,185.576,-4.25757,0.1322,0.50512
579.273,185.78,-4.25902,0.12993,0.50477
579.873,185.984,-4.25724,0.12937,0.50441
580.473,186.187,-4.25715,0.13055,0.50406
581.073,186.389,-4.25724,0.13238,0.5037
581.673,186.592,-4.25995,0.1339,0.50334
582.273,186.7932,-4.25998,0.13365,0.50299
582.873,186.996,-4.25723,0.13712,0.50263
583.473,187.198,-4.25921,0.13824,0.50227
584.073,187.402,-4.2579,0.14035,0.50192
584.673,187.605,-4.2597,0.14237,0.50156
585.273,187.807,-4.25951,0.14196,0.5012
585.873,188.011,-4.25882,0.14404,0.50084
586.473,188.2126,-4.2602,0.14753,0.50048
587.073,188.416,-4.25755,0.14634,0.50013
587.673,188.619,-4.25877,0.1471,0.49977
588.273,188.822,-4.25871,0.1482,0.49941
588.873,189.025,-4.26042,0.14963,0.49905
589.473,189.227,-4.26042,0.15115,0.49869
590.073,189.429,-4.26009,0.15023,0.49833
590.673,189.631,-4.26171,0.15274,0.49797
591.273,189.835,-4.26174,0.15339,0.49761
591.873,190.038,-4.26107,0.15587,0.49725
592.473,190.242,-4.26236,0.15834,0.49689
593.073,190.444,-4.2614,0.15779,0.49653
593.673,190.646,-4.26174,0.15735,0.49617
594.273,190.8482,-4.26174,0.16002,0.49581
594.873,191.0507,-4.26174,0.16121,0.49544
595.473,191.254,-4.26194,0.16161,0.49508
596.073,191.4577,-4.26177,0.16365,0.49472
596.673,191.663,-4.26204,0.16912,0.49436
597.273,191.868,-4.26271,0.17034,0.494
597.873,192.073,-4.26335,0.17246,0.49363
598.473,192.277,-4.26205,0.17714,0.49327
599.073,192.48,-4.26238,0.17577,0.49291
599.673,192.682,-4.26458,0.17537,0.49254
600.273,192.885,-4.26338,0.17797,0.49218
600.873,193.087,-4.26206,0.17915,0.49182
601.473,193.29,-4.26467,0.17918,0.49145
602.073,193.493,-4.26239,0.18238,0.49109
602.673,193.697,-4.26307,0.18164,0.49072
603.273,193.901,-4.26171,0.18487,0.49036
603.873,194.1057,-4.26173,0.18656,0.48999
604.473,194.31,-4.26173,0.1898,0.48963
605.073,194.515,-4.26303,0.19175,0.48926
605.673,194.718,-4.26263,0.19021,0.4889
606.273,194.921,-4.26135,0.19177,0.48853
606.873,195.124,-4.26123,0.19419,0.48817
607.473,195.327,-4.26239,0.19516,0.4878
608.073,195.53,-4.26107,0.19643,0.48743
608.673,195.734,-4.2614,0.19483,0.48707
609.273,195.939,-4.26368,0.19445,0.4867
609.873,196.143,-4.2628,0.20032,0.48633
610.473,196.348,-4.26404,0.20129,0.48597
611.073,196.552,-4.26272,0.2035,0.4856
611.673,196.7567,-4.26324,0.20531,0.48523
612.273,196.961,-4.26239,0.20458,0.48486
612.873,197.165,-4.26369,0.20539,0.4845
613.473,197.368,-4.26306,0.20638,0.48413
614.073,197.57,-4.26305,0.205,0.48376
614.673,197.772,-4.26434,0.20753,0.48339
615.273,197.975,-4.26308,0.20905,0.48302
615.873,198.179,-4.26437,0.20763,0.48265
616.473,198.385,-4.26501,0.20999,0.48228
617.073,198.59,-4.26237,0.21674,0.48192
617.673,198.796,-4.26617,0.21333,0.48155
618.273,199.001,-4.26274,0.21533,0.48118
618.873,199.206,-4.26485,0.21833,0.48081
619.473,199.41,-4.26523,0.21942,0.48044
620.073,199.615,-4.26481,0.21971,0.48007
620.673,199.819,-4.26619,0.21993,0.4797
621.273,200.023,-4.26612,0.22367,0.47933
621.873,200.225,-4.26408,0.22281,0.47896
622.473,200.428,-4.26547,0.22855,0.47858
623.073,200.63,-4.26678,0.22525,0.47821
623.673,200.835,-4.26547,0.22665,0.47784
624.273,201.039,-4.26545,0.22953,0.47747
624.873,201.243,-4.26613,0.2323,0.4771
625.473,201.448,-4.26612,0.22849,0.47673
626.073,201.653,-4.26612,0.23167,0.47636
626.673,201.858,-4.26616,0.23176,0.47598
627.273,202.063,-4.26654,0.23458,0.47561
627.873,202.268,-4.26681,0.23372,0.47524
628.473,202.4727,-4.2674,0.23598,0.47487
629.073,202.676,-4.26538,0.23762,0.47449
629.673,202.88,-4.26617,0.23683,0.47412
630.273,203.083,-4.26612,0.24244,0.47375
630.873,203.2864,-4.26778,0.23928,0.47338
631.473,203.491,-4.26592,0.23708,0.473
632.073,203.695,-4.26774,0.23799,0.47263
632.673,203.9,-4.26546,0.2383,0.47225
633.273,204.1045,-4.2655,0.23722,0.47188
633.873,204.3094,-4.26515,0.23781,0.47151
634.473,204.514,-4.26645,0.23922,0.47113
635.073,204.718,-4.26646,0.23692,0.47076
635.673,204.923,-4.26481,0.23833,0.47038
636.273,205.127,-4.26627,0.24036,0.47001
636.873,205.332,-4.26579,0.24392,0.46964
637.473,205.536,-4.26434,0.24359,0.46926
638.073,205.7395,-4.26688,0.2466,0.46889
638.673,205.944,-4.26753,0.24764,0.46851
639.273,206.149,-4.2665,0.24745,0.46813
639.873,206.3538,-4.2664,0.24613,0.46776
640.473,206.558,-4.26547,0.25137,0.46738
641.073,206.762,-4.26678,0.24762,0.46701
641.673,206.966,-4.26678,0.24836,0.46663
642.273,207.172,-4.26678,0.25211,0.46626
642.873,207.378,-4.26678,0.24994,0.46588
643.473,207.5842,-4.26744,0.25087,0.4655
644.073,207.79,-4.26612,0.25346,0.46513
644.673,207.996,-4.26546,0.25423,0.46475
645.273,208.2,-4.26612,0.25095,0.46437
645.873,208.405,-4.26612,0.25212,0.464
646.473,208.611,-4.26732,0.25233,0.46362
647.073,208.817,-4.26579,0.25085,0.46324
647.673,209.022,-4.26579,0.25021,0.46287
648.273,209.226,-4.26546,0.24936,0.46249
648.873,209.43,-4.26448,0.24706,0.46211
649.473,209.635,-4.26448,0.24931,0.46173
650.073,209.8394,-4.2648,0.24979,0.46136
650.473,209.976,-4.26538,0.24967,0.46111