File: 01_Data/Particleboard/STA/N2/10K_min/Particleboard_STA_N2_10KData_220419_R3.csv
##Temp./Â°C,Time/min,Mass loss(subtr.2)/mg,DSC(subtr.2)/(mW/mg),Sensit./(uV/mW)
49.731,10.01,-0.01075,0.01982046,1.06051
50.431,10.7681,-0.01055617,0.05365605,1.06037
51.131,10.97246,-0.01189298,0.07830696,1.06022
51.831,11.12466,-0.01150759,0.09986343,1.06008
52.531,11.25422,-0.01227791,0.11605,1.05993
53.231,11.3687,-0.01164135,0.13242,1.05978
53.931,11.47445,-0.0140067,0.14416,1.05963
54.631,11.57391,-0.01298166,0.15507,1.05949
55.331,11.66877,-0.01100162,0.16631,1.05934
56.031,11.76015,-0.01274036,0.17438,1.05918
56.731,11.84788,-0.01223409,0.18387,1.05903
57.431,11.9336,-0.01141598,0.1905,1.05888
58.131,12.01675,-0.009635118,0.19773,1.05873
58.831,12.09947,-0.01110509,0.20371,1.05857
59.531,12.18093,-0.01209791,0.20891,1.05841
60.231,12.26223,-0.01110231,0.21269,1.05826
60.931,12.34205,-0.01256439,0.22019,1.0581
61.631,12.42088,-0.01212448,0.22316,1.05794
62.331,12.49876,-0.0111583,0.22747,1.05778
63.031,12.5761,-0.0128545,0.23058,1.05762
63.731,12.6531,-0.01243352,0.2339,1.05746
64.431,12.72997,-0.01382081,0.23765,1.0573
65.131,12.80615,-0.01362361,0.23906,1.05714
65.831,12.88221,-0.01364368,0.24404,1.05697
66.531,12.9583,-0.0136953,0.24909,1.05681
67.231,13.03393,-0.01391602,0.24909,1.05664
67.931,13.10925,-0.01382566,0.25115,1.05647
68.631,13.18433,-0.01382218,0.25605,1.05631
69.331,13.2593,-0.01409357,0.25858,1.05614
70.031,13.33354,-0.0138559,0.26235,1.05597
70.731,13.4078,-0.01382999,0.26137,1.0558
71.431,13.48199,-0.0136775,0.26468,1.05563
72.131,13.5564,-0.01324962,0.26896,1.05546
72.831,13.6305,-0.01483685,0.27308,1.05528
73.531,13.70425,-0.01645015,0.27422,1.05511
74.231,13.7778,-0.0177728,0.27714,1.05494
74.931,13.85106,-0.01907355,0.28007,1.05476
75.631,13.9243,-0.01776935,0.28193,1.05458
76.331,13.9964,-0.01634512,0.28395,1.05441
77.031,14.06926,-0.01510331,0.28422,1.05423
77.731,14.14236,-0.01777028,0.28575,1.05405
78.431,14.21619,-0.01907995,0.28928,1.05387
79.131,14.28866,-0.01971218,0.29153,1.05369
79.831,14.36098,-0.01908109,0.29188,1.05351
80.531,14.43324,-0.0190631,0.29203,1.05332
81.231,14.50545,-0.01783838,0.29324,1.05314
81.931,14.57739,-0.02039055,0.29571,1.05296
82.631,14.64885,-0.02041117,0.29531,1.05277
83.331,14.71981,-0.0190924,0.29825,1.05258
84.031,14.79086,-0.02040007,0.2968,1.0524
84.731,14.86183,-0.02175699,0.29761,1.05221
85.431,14.9329,-0.02393655,0.29876,1.05202
86.131,15.00389,-0.02431137,0.29716,1.05183
86.831,15.0748,-0.02435468,0.29984,1.05164
87.531,15.14545,-0.02565768,0.29897,1.05145
88.231,15.21615,-0.02567,0.29799,1.05126
88.931,15.2867,-0.02572273,0.29994,1.05106
89.631,15.35692,-0.0257093,0.29944,1.05087
90.331,15.4268,-0.02434865,0.29922,1.05067
91.031,15.4964,-0.02475249,0.29959,1.05048
91.731,15.5662,-0.02432324,0.2987,1.05028
92.431,15.63589,-0.02537141,0.29774,1.05008
93.131,15.70548,-0.02657669,0.29526,1.04988
93.831,15.7751,-0.02576999,0.29286,1.04968
94.531,15.84464,-0.02600854,0.2921,1.04948
95.231,15.9143,-0.02708992,0.29188,1.04928
95.931,15.9833,-0.02724066,0.29101,1.04908
96.631,16.05258,-0.02856131,0.28861,1.04888
97.331,16.12162,-0.02756062,0.28675,1.04867
98.031,16.19106,-0.02478394,0.28302,1.04847
98.731,16.26015,-0.0221561,0.28573,1.04826
99.431,16.32921,-0.0222647,0.28171,1.04806
100.131,16.39798,-0.02357367,0.28321,1.04785
100.831,16.4665,-0.02526874,0.28132,1.04764
101.531,16.53518,-0.02620335,0.28036,1.04743
102.231,16.60408,-0.02753051,0.27936,1.04722
102.931,16.67312,-0.02749787,0.27881,1.04701
103.631,16.74231,-0.0287544,0.2771,1.0468
104.331,16.81104,-0.02653785,0.27697,1.04659
105.031,16.8799,-0.02786163,0.27509,1.04638
105.731,16.94803,-0.02785997,0.27471,1.04616
106.431,17.01654,-0.02849849,0.27224,1.04595
107.131,17.08484,-0.02920316,0.27375,1.04573
107.831,17.15343,-0.02975402,0.27253,1.04552
108.531,17.22204,-0.02876573,0.27139,1.0453
109.231,17.2907,-0.02852208,0.27372,1.04508
109.931,17.35921,-0.02753007,0.27158,1.04486
110.631,17.42792,-0.02885516,0.26868,1.04464
111.331,17.49629,-0.03011793,0.26941,1.04442
112.031,17.5651,-0.0315049,0.27142,1.0442
112.731,17.63326,-0.0327992,0.27162,1.04398
113.431,17.70165,-0.03148987,0.27186,1.04375
114.131,17.77006,-0.03148,0.27118,1.04353
114.831,17.83865,-0.03016705,0.27181,1.0433
115.531,17.90736,-0.03135428,0.27209,1.04308
116.231,17.9758,-0.03160727,0.27255,1.04285
116.931,18.04414,-0.03157874,0.27351,1.04262
117.631,18.11243,-0.03027083,0.27334,1.04239
118.331,18.18061,-0.02925204,0.272,1.04217
119.031,18.2489,-0.03084397,0.2721,1.04194
119.731,18.31693,-0.0315845,0.27383,1.0417
120.431,18.38486,-0.03159525,0.27626,1.04147
121.131,18.45291,-0.03161142,0.27588,1.04124
121.831,18.5209,-0.03257921,0.27822,1.04101
122.531,18.58907,-0.03258021,0.27339,1.04077
123.231,18.65695,-0.03114855,0.27456,1.04054
123.931,18.7252,-0.02983363,0.27543,1.0403
124.631,18.79314,-0.02984,0.27763,1.04006
125.331,18.86137,-0.02984,0.27653,1.03983
126.031,18.92905,-0.02983999,0.2752,1.03959
126.731,18.99699,-0.03024571,0.27796,1.03935
127.431,19.06491,-0.03114996,0.27766,1.03911
128.131,19.13304,-0.03354233,0.27863,1.03887
128.831,19.20101,-0.03663291,0.27885,1.03863
129.531,19.26878,-0.03762886,0.28075,1.03838
130.231,19.33659,-0.03528448,0.27899,1.03814
130.931,19.40427,-0.0339935,0.27917,1.0379
131.631,19.4714,-0.03399158,0.28145,1.03765
132.331,19.5393,-0.03268997,0.28391,1.0374
133.031,19.60709,-0.03166988,0.28383,1.03716
133.731,19.6753,-0.03153883,0.28415,1.03691
134.431,19.74299,-0.03172956,0.28342,1.03666
135.131,19.81072,-0.0310436,0.28422,1.03641
135.831,19.8785,-0.03202487,0.2849,1.03616
136.531,19.94612,-0.03201105,0.28578,1.03591
137.231,20.01351,-0.03071101,0.28531,1.03566
137.931,20.0808,-0.0307034,0.28619,1.03541
138.631,20.14818,-0.03376771,0.28576,1.03515
139.331,20.21555,-0.03160226,0.28668,1.0349
140.031,20.28313,-0.0299743,0.28671,1.03464
140.731,20.35075,-0.02983389,0.29016,1.03439
141.431,20.41848,-0.03187592,0.29001,1.03413
142.131,20.48604,-0.03052758,0.29048,1.03388
142.831,20.55349,-0.0336457,0.28999,1.03362
143.531,20.6207,-0.03422403,0.28977,1.03336
144.231,20.68809,-0.03488981,0.29347,1.0331
144.931,20.75498,-0.03489,0.29098,1.03284
145.631,20.82219,-0.03488957,0.29691,1.03258
146.331,20.88929,-0.03356337,0.29513,1.03231
147.031,20.95649,-0.03357,0.29698,1.03205
147.731,21.0239,-0.0335803,0.29732,1.03179
148.431,21.09114,-0.03643838,0.29952,1.03152
149.131,21.15895,-0.03793712,0.30075,1.03126
149.831,21.22606,-0.03525075,0.30135,1.03099
150.531,21.29328,-0.03521,0.30413,1.03072
151.231,21.36045,-0.03521,0.30299,1.03046
151.931,21.42765,-0.03407429,0.30546,1.03019
152.631,21.49505,-0.03256661,0.30718,1.02992
153.331,21.5623,-0.03396316,0.30738,1.02965
154.031,21.62955,-0.03583278,0.30637,1.02938
154.731,21.69657,-0.03525789,0.31136,1.02911
155.431,21.7635,-0.03302837,0.3114,1.02883
156.131,21.83069,-0.03331102,0.31464,1.02856
156.831,21.89774,-0.03745444,0.31492,1.02829
157.531,21.96481,-0.04035301,0.31658,1.02801
158.231,22.03182,-0.03749239,0.31954,1.02774
158.931,22.0987,-0.034512,0.32142,1.02746
159.631,22.16556,-0.03353482,0.32362,1.02718
160.331,22.23262,-0.03475809,0.32269,1.0269
161.031,22.29995,-0.03586715,0.32418,1.02662
161.731,22.36761,-0.03986609,0.32886,1.02635
162.431,22.43486,-0.03898178,0.33301,1.02606
163.131,22.50197,-0.03750903,0.33552,1.02578
163.831,22.56909,-0.03895615,0.33883,1.0255
164.531,22.6361,-0.04026288,0.34071,1.02522
165.231,22.70334,-0.04028908,0.34189,1.02494
165.931,22.77039,-0.04121605,0.34539,1.02465
166.631,22.8374,-0.04026171,0.34967,1.02437
167.331,22.9046,-0.04157864,0.35233,1.02408
168.031,22.97176,-0.0402573,0.35517,1.02379
168.731,23.039,-0.04029131,0.36064,1.02351
169.431,23.10606,-0.04179363,0.3616,1.02322
170.131,23.17325,-0.04244846,0.36633,1.02293
170.831,23.24012,-0.04344996,0.36866,1.02264
171.531,23.30719,-0.04512832,0.37275,1.02235
172.231,23.37349,-0.04706675,0.37524,1.02206
172.931,23.44053,-0.0483948,0.37727,1.02177
173.631,23.5075,-0.04838,0.38188,1.02147
174.331,23.575,-0.04752393,0.38278,1.02118
175.031,23.64207,-0.04836822,0.3887,1.02088
175.731,23.70906,-0.04968558,0.39297,1.02059
176.431,23.77618,-0.05067203,0.39499,1.02029
177.131,23.84319,-0.05096198,0.39835,1.02
177.831,23.9103,-0.05386025,0.40332,1.0197
178.531,23.97731,-0.05395712,0.40678,1.0194
179.231,24.04435,-0.05083106,0.41152,1.0191
179.931,24.11131,-0.0485856,0.41387,1.0188
180.631,24.17817,-0.04859,0.41651,1.0185
181.331,24.24509,-0.04859157,0.42347,1.0182
182.031,24.31191,-0.04991595,0.42564,1.0179
182.731,24.37903,-0.05264601,0.42888,1.0176
183.431,24.446,-0.05531378,0.43312,1.01729
184.131,24.51296,-0.05670017,0.43682,1.01699
184.831,24.5796,-0.0557449,0.44258,1.01668
185.531,24.64668,-0.05707845,0.44458,1.01638
186.231,24.7136,-0.05728966,0.4476,1.01607
186.931,24.78067,-0.05867922,0.45259,1.01576
187.631,24.8474,-0.06001037,0.4579,1.01546
188.331,24.91449,-0.06188779,0.4608,1.01515
189.031,24.9814,-0.06460776,0.4632,1.01484
189.731,25.04828,-0.06722651,0.46944,1.01453
190.431,25.11468,-0.06722754,0.47237,1.01422
191.131,25.18154,-0.06987073,0.47617,1.01391
191.831,25.24835,-0.07070569,0.47778,1.01359
192.531,25.31539,-0.07126506,0.48274,1.01328
193.231,25.3822,-0.07340151,0.48633,1.01297
193.931,25.44915,-0.07509779,0.49001,1.01265
194.631,25.51616,-0.07711264,0.49502,1.01234
195.331,25.58282,-0.07577436,0.49997,1.01202
196.031,25.64945,-0.07774189,0.50074,1.0117
196.731,25.71632,-0.07781846,0.50353,1.01139
197.431,25.78319,-0.07778663,0.50587,1.01107
198.131,25.84989,-0.07908962,0.50739,1.01075
198.831,25.91685,-0.08106759,0.5118,1.01043
199.531,25.9836,-0.0837543,0.51153,1.01011
200.231,26.05043,-0.08811528,0.51449,1.00979
200.931,26.1174,-0.0882938,0.51536,1.00947
201.631,26.18455,-0.08711678,0.51755,1.00914
202.331,26.2515,-0.08839875,0.51922,1.00882
203.031,26.3183,-0.08828828,0.52215,1.0085
203.731,26.385,-0.091053,0.5239,1.00817
204.431,26.4517,-0.09276251,0.52574,1.00784
205.131,26.5186,-0.09452716,0.5279,1.00752
205.831,26.58564,-0.0972969,0.52846,1.00719
206.531,26.6523,-0.09729591,0.5292,1.00686
207.231,26.71893,-0.10033,0.53013,1.00654
207.931,26.78565,-0.10354,0.53179,1.00621
208.631,26.8528,-0.10513,0.53192,1.00588
209.331,26.9197,-0.10703,0.53419,1.00555
210.031,26.98648,-0.10772,0.53416,1.00521
210.731,27.0531,-0.10875,0.53433,1.00488
211.431,27.1198,-0.11033,0.53219,1.00455
212.131,27.1865,-0.11458,0.53243,1.00422
212.831,27.25352,-0.11896,0.53444,1.00388
213.531,27.32027,-0.1212,0.53412,1.00355
214.231,27.3871,-0.12122,0.53536,1.00321
214.931,27.4537,-0.11918,0.53409,1.00288
215.631,27.52042,-0.12023,0.5333,1.00254
216.331,27.5869,-0.12125,0.53333,1.0022
217.031,27.65353,-0.12284,0.53132,1.00186
217.731,27.72028,-0.12681,0.5289,1.00152
218.431,27.7872,-0.13022,0.53097,1.00118
219.131,27.8538,-0.13198,0.52927,1.00084
219.831,27.92049,-0.13594,0.52829,1.0005
220.531,27.9872,-0.13765,0.52798,1.00016
221.231,28.05398,-0.14032,0.52802,0.99982
221.931,28.1205,-0.14026,0.5258,0.99947
222.631,28.18703,-0.14029,0.52622,0.99913
223.331,28.25357,-0.14159,0.52772,0.99878
224.031,28.3204,-0.14526,0.52575,0.99844
224.731,28.3873,-0.1472,0.52682,0.99809
225.431,28.45417,-0.14719,0.52375,0.99775
226.131,28.52105,-0.14826,0.52516,0.9974
226.831,28.588,-0.15269,0.52672,0.99705
227.531,28.6548,-0.15528,0.52702,0.9967
228.231,28.7215,-0.1604,0.52599,0.99635
228.931,28.788,-0.16311,0.52632,0.996
229.631,28.85448,-0.16468,0.52607,0.99565
230.331,28.9214,-0.16821,0.52725,0.9953
231.031,28.988,-0.1717,0.52807,0.99495
231.731,29.0549,-0.17411,0.52791,0.99459
232.431,29.1215,-0.1759,0.52994,0.99424
233.131,29.18828,-0.17845,0.52761,0.99389
233.831,29.25491,-0.17871,0.52906,0.99353
234.531,29.32165,-0.18097,0.52751,0.99317
235.231,29.38847,-0.18612,0.52769,0.99282
235.931,29.45519,-0.18961,0.52944,0.99246
236.631,29.52174,-0.19037,0.52861,0.9921
237.331,29.5883,-0.1958,0.52723,0.99174
238.031,29.65489,-0.19733,0.52733,0.99139
238.731,29.7217,-0.19891,0.52708,0.99103
239.431,29.78844,-0.20273,0.52728,0.99067
240.131,29.85517,-0.2073,0.52733,0.9903
240.831,29.9219,-0.20994,0.52504,0.98994
241.531,29.9886,-0.21294,0.5243,0.98958
242.231,30.0552,-0.21607,0.52085,0.98922
242.931,30.1217,-0.21691,0.52371,0.98885
243.631,30.1881,-0.21941,0.52444,0.98849
244.331,30.25473,-0.22431,0.52372,0.98812
245.031,30.3213,-0.22769,0.52278,0.98776
245.731,30.38803,-0.23082,0.52198,0.98739
246.431,30.45465,-0.23549,0.5224,0.98702
247.131,30.5213,-0.23868,0.52186,0.98666
247.831,30.5878,-0.24349,0.52288,0.98629
248.531,30.6543,-0.2468,0.52221,0.98592
249.231,30.72083,-0.24835,0.52184,0.98555
249.931,30.7874,-0.25176,0.52341,0.98518
250.631,30.85417,-0.25485,0.52172,0.98481
251.331,30.9204,-0.25912,0.52413,0.98444
252.031,30.98702,-0.26493,0.52258,0.98406
252.731,31.0535,-0.26676,0.52014,0.98369
253.431,31.1208,-0.26656,0.52127,0.98332
254.131,31.1875,-0.27441,0.5206,0.98294
254.831,31.2542,-0.28049,0.52327,0.98257
255.531,31.3208,-0.28599,0.52327,0.98219
256.231,31.38737,-0.29061,0.52051,0.98181
256.931,31.45403,-0.29225,0.52328,0.98144
257.631,31.5206,-0.29686,0.52182,0.98106
258.331,31.58725,-0.30028,0.52238,0.98068
259.031,31.65363,-0.30534,0.52098,0.9803
259.731,31.72035,-0.31077,0.52155,0.97992
260.431,31.78708,-0.31693,0.52205,0.97954
261.131,31.85411,-0.32367,0.52178,0.97916
261.831,31.92062,-0.32841,0.51964,0.97878
262.531,31.98722,-0.33201,0.52227,0.9784
263.231,32.05364,-0.33522,0.52054,0.97802
263.931,32.12018,-0.34069,0.51956,0.97763
264.631,32.1867,-0.34401,0.52001,0.97725
265.331,32.25349,-0.34932,0.5154,0.97686
266.031,32.32032,-0.35641,0.51661,0.97648
266.731,32.38715,-0.36378,0.51627,0.97609
267.431,32.4539,-0.36783,0.51297,0.97571
268.131,32.5207,-0.3741,0.51263,0.97532
268.831,32.5874,-0.38072,0.51059,0.97493
269.531,32.6541,-0.38762,0.50887,0.97454
270.231,32.72047,-0.39513,0.5076,0.97415
270.931,32.7871,-0.4037,0.50414,0.97376
271.631,32.85387,-0.4092,0.50258,0.97337
272.331,32.92099,-0.41363,0.49894,0.97298
273.031,32.98789,-0.41953,0.49648,0.97259
273.731,33.05444,-0.42616,0.49602,0.9722
274.431,33.1214,-0.43484,0.49372,0.97181
275.131,33.18784,-0.44402,0.49065,0.97141
275.831,33.25458,-0.45124,0.48627,0.97102
276.531,33.3213,-0.45844,0.48218,0.97062
277.231,33.38843,-0.46701,0.47941,0.97023
277.931,33.4557,-0.4729,0.47359,0.96983
278.631,33.5225,-0.48048,0.47,0.96944
279.331,33.58923,-0.48919,0.46567,0.96904
280.031,33.656,-0.4973,0.46186,0.96864
280.731,33.72289,-0.50658,0.45616,0.96824
281.431,33.78974,-0.51626,0.45148,0.96784
282.131,33.85625,-0.52111,0.44604,0.96744
282.831,33.92304,-0.52838,0.44281,0.96704
283.531,33.9899,-0.53559,0.43612,0.96664
284.231,34.05702,-0.54702,0.43237,0.96624
284.931,34.1239,-0.55617,0.42608,0.96584
285.631,34.1907,-0.56549,0.42274,0.96544
286.331,34.25704,-0.57604,0.41912,0.96503
287.031,34.3239,-0.58515,0.41387,0.96463
287.731,34.39069,-0.5938,0.40647,0.96422
288.431,34.45799,-0.60259,0.40404,0.96382
289.131,34.5248,-0.61166,0.40124,0.96341
289.831,34.59182,-0.62184,0.39499,0.96301
290.531,34.65867,-0.63285,0.39231,0.9626
291.231,34.72571,-0.64311,0.38885,0.96219
291.931,34.7922,-0.65243,0.3857,0.96178
292.631,34.8592,-0.66372,0.38389,0.96138
293.331,34.92587,-0.67525,0.37955,0.96097
294.031,34.9932,-0.68416,0.37721,0.96056
294.731,35.06013,-0.69488,0.37542,0.96015
295.431,35.1271,-0.70761,0.37259,0.95974
296.131,35.19415,-0.71809,0.37157,0.95932
296.831,35.2611,-0.73,0.36743,0.95891
297.531,35.32801,-0.74161,0.36786,0.9585
298.231,35.39493,-0.75229,0.36871,0.95809
298.931,35.4619,-0.76352,0.36542,0.95767
299.631,35.5289,-0.77522,0.36457,0.95726
300.331,35.59584,-0.79008,0.36136,0.95684
301.031,35.66291,-0.80236,0.36357,0.95643
301.731,35.7299,-0.81592,0.36278,0.95601
302.431,35.7969,-0.82887,0.3623,0.95559
303.131,35.86375,-0.84147,0.36141,0.95518
303.831,35.93079,-0.85364,0.36286,0.95476
304.531,35.99763,-0.86643,0.36425,0.95434
305.231,36.06471,-0.87953,0.36175,0.95392
305.931,36.1318,-0.89194,0.36124,0.9535
306.631,36.199,-0.9071,0.36362,0.95308
307.331,36.26613,-0.92175,0.36433,0.95266
308.031,36.33316,-0.93423,0.3646,0.95224
308.731,36.4001,-0.94891,0.36419,0.95182
309.431,36.46707,-0.96379,0.36603,0.95139
310.131,36.53407,-0.98029,0.36576,0.95097
310.831,36.60109,-0.99493,0.36525,0.95055
311.531,36.66822,-1.00996,0.36775,0.95012
312.231,36.73551,-1.02539,0.36568,0.9497
312.931,36.80288,-1.0412,0.36726,0.94927
313.631,36.87003,-1.05749,0.36716,0.94884
314.331,36.9372,-1.07256,0.36836,0.94842
315.031,37.00438,-1.08807,0.3687,0.94799
315.731,37.07158,-1.10383,0.36969,0.94756
316.431,37.13867,-1.12048,0.3721,0.94714
317.131,37.20592,-1.13897,0.37042,0.94671
317.831,37.27323,-1.15546,0.3705,0.94628
318.531,37.34063,-1.17346,0.37136,0.94585
319.231,37.40768,-1.19155,0.37373,0.94542
319.931,37.47497,-1.20739,0.37357,0.94499
320.631,37.54209,-1.22614,0.37507,0.94455
321.331,37.6093,-1.24553,0.37441,0.94412
322.031,37.67641,-1.26439,0.37583,0.94369
322.731,37.74366,-1.28315,0.37705,0.94326
323.431,37.8109,-1.30297,0.37919,0.94282
324.131,37.87833,-1.32124,0.37896,0.94239
324.831,37.94571,-1.34158,0.37995,0.94195
325.531,38.01315,-1.36372,0.38527,0.94152
326.231,38.08057,-1.38466,0.38318,0.94108
326.931,38.14793,-1.40496,0.38461,0.94064
327.631,38.2155,-1.42624,0.38753,0.94021
328.331,38.2827,-1.44634,0.38754,0.93977
329.031,38.35,-1.46694,0.38725,0.93933
329.731,38.41721,-1.4892,0.38965,0.93889
330.431,38.48466,-1.5108,0.38768,0.93845
331.131,38.55193,-1.53103,0.39069,0.93801
331.831,38.61937,-1.55574,0.39356,0.93757
332.531,38.68656,-1.57858,0.39179,0.93713
333.231,38.75418,-1.6012,0.38907,0.93669
333.931,38.82164,-1.62417,0.3925,0.93625
334.631,38.88945,-1.64955,0.38959,0.93581
335.331,38.95687,-1.67168,0.39244,0.93536
336.031,39.02432,-1.69486,0.38914,0.93492
336.731,39.09173,-1.71996,0.38987,0.93448
337.431,39.1588,-1.7428,0.38347,0.93403
338.131,39.22605,-1.76612,0.38275,0.93359
338.831,39.29332,-1.78999,0.37904,0.93314
339.531,39.36108,-1.81222,0.3752,0.93269
340.231,39.4287,-1.8384,0.37393,0.93225
340.931,39.49625,-1.86397,0.36957,0.9318
341.631,39.56349,-1.88791,0.36449,0.93135
342.331,39.63075,-1.91053,0.35923,0.9309
343.031,39.6982,-1.93496,0.35827,0.93046
343.731,39.7658,-1.95998,0.35472,0.93001
344.431,39.83336,-1.98187,0.34841,0.92956
345.131,39.9004,-2.00626,0.33802,0.92911
345.831,39.96783,-2.02885,0.33694,0.92866
346.531,40.0353,-2.04913,0.32863,0.9282
347.231,40.1031,-2.0709,0.31775,0.92775
347.931,40.17088,-2.09288,0.31327,0.9273
348.631,40.2383,-2.11294,0.30512,0.92685
349.331,40.3059,-2.1335,0.29659,0.92639
350.031,40.37337,-2.15507,0.28563,0.92594
350.731,40.44121,-2.17394,0.2793,0.92549
351.431,40.50882,-2.19283,0.26693,0.92503
352.131,40.57611,-2.21176,0.25767,0.92457
352.831,40.6436,-2.22947,0.24792,0.92412
353.531,40.71128,-2.24692,0.23842,0.92366
354.231,40.77926,-2.26433,0.22984,0.92321
354.931,40.8469,-2.28065,0.22271,0.92275
355.631,40.9146,-2.29718,0.21166,0.92229
356.331,40.98214,-2.31257,0.20216,0.92183
357.031,41.04973,-2.32594,0.19528,0.92137
357.731,41.11735,-2.33935,0.18152,0.92091
358.431,41.18503,-2.35339,0.17549,0.92045
359.131,41.2526,-2.36729,0.16808,0.91999
359.831,41.32045,-2.37881,0.1581,0.91953
360.531,41.38815,-2.39135,0.15364,0.91907
361.231,41.45592,-2.40146,0.14385,0.91861
361.931,41.5236,-2.41082,0.13571,0.91815
362.631,41.5912,-2.42198,0.1279,0.91768
363.331,41.65893,-2.43116,0.12134,0.91722
364.031,41.72661,-2.43777,0.11539,0.91676
364.731,41.79441,-2.44672,0.10653,0.91629
365.431,41.8622,-2.45546,0.10172,0.91583
366.131,41.93011,-2.46246,0.09419558,0.91536
366.831,41.99787,-2.47091,0.0928169,0.91489
367.531,42.06581,-2.47843,0.08478262,0.91443
368.231,42.13355,-2.48248,0.08114212,0.91396
368.931,42.2015,-2.48803,0.07781004,0.91349
369.631,42.26918,-2.49385,0.07187646,0.91303
370.331,42.33697,-2.49996,0.06689886,0.91256
371.031,42.40466,-2.50565,0.06274623,0.91209
371.731,42.47238,-2.50906,0.05561534,0.91162
372.431,42.54031,-2.51403,0.05764918,0.91115
373.131,42.60842,-2.51708,0.05406052,0.91068
373.831,42.67657,-2.52138,0.04566551,0.91021
374.531,42.7444,-2.52769,0.04476742,0.90974
375.231,42.81227,-2.53145,0.04330875,0.90927
375.931,42.87999,-2.53484,0.03962007,0.90879
376.631,42.94802,-2.53744,0.03785711,0.90832
377.331,43.01587,-2.53957,0.03453428,0.90785
378.031,43.0835,-2.54339,0.03074999,0.90738
378.731,43.15125,-2.54635,0.02889708,0.9069
379.431,43.21932,-2.54631,0.02603702,0.90643
380.131,43.2872,-2.54938,0.02426382,0.90595
380.831,43.35522,-2.55238,0.02199552,0.90548
381.531,43.42307,-2.55712,0.02100895,0.905
382.231,43.49132,-2.56051,0.02075962,0.90452
382.931,43.55921,-2.56332,0.01678761,0.90405
383.631,43.6269,-2.56673,0.01787617,0.90357
384.331,43.69461,-2.56824,0.01717619,0.90309
385.031,43.7626,-2.57113,0.01339237,0.90261
385.731,43.8306,-2.57516,0.01657808,0.90214
386.431,43.8985,-2.57773,0.01074253,0.90166
387.131,43.96648,-2.57989,0.01080029,0.90118
387.831,44.03458,-2.58174,0.006526331,0.9007
388.531,44.10282,-2.58229,0.00379815,0.90022
389.231,44.17074,-2.58581,0.00266458,0.89974
389.931,44.23873,-2.5899,-0.0001638176,0.89926
390.631,44.3065,-2.5916,0.00177686,0.89877
391.331,44.37457,-2.59335,-0.002315803,0.89829
392.031,44.4425,-2.59647,-0.002246325,0.89781
392.731,44.5107,-2.60011,-0.003021266,0.89733
393.431,44.57868,-2.60236,-0.00308052,0.89684
394.131,44.6467,-2.60297,-0.0067369,0.89636
394.831,44.71475,-2.6045,-0.00854146,0.89587
395.531,44.7828,-2.60731,-0.01061457,0.89539
396.231,44.85085,-2.60962,-0.01211999,0.8949
396.931,44.91887,-2.6136,-0.01512091,0.89442
397.631,44.98709,-2.61666,-0.01235143,0.89393
398.331,45.05553,-2.6208,-0.01427063,0.89344
399.031,45.12386,-2.62314,-0.01396213,0.89296
399.731,45.19208,-2.62534,-0.01798989,0.89247
400.431,45.26019,-2.62666,-0.01588847,0.89198
401.131,45.32845,-2.62695,-0.01696446,0.89149
401.831,45.39667,-2.62955,-0.01983087,0.891
402.531,45.46504,-2.6324,-0.01925978,0.89052
403.231,45.5333,-2.63636,-0.02147047,0.89003
403.931,45.60152,-2.64028,-0.02012151,0.88954
404.631,45.66957,-2.64233,-0.01755348,0.88904
405.331,45.73788,-2.64531,-0.02215771,0.88855
406.031,45.8063,-2.64646,-0.02168586,0.88806
406.731,45.87465,-2.64794,-0.02315035,0.88757
407.431,45.9428,-2.65079,-0.02400495,0.88708
408.131,46.01106,-2.6533,-0.02467222,0.88659
408.831,46.0794,-2.65614,-0.02509059,0.88609
409.531,46.14781,-2.65781,-0.02277442,0.8856
410.231,46.21614,-2.66054,-0.02172164,0.8851
410.931,46.28452,-2.66365,-0.02158665,0.88461
411.631,46.35285,-2.66796,-0.02077301,0.88412
412.331,46.4213,-2.66971,-0.01759817,0.88362
413.031,46.4897,-2.67061,-0.01805539,0.88312
413.731,46.55785,-2.6722,-0.02265195,0.88263
414.431,46.6259,-2.67363,-0.019787,0.88213
415.131,46.69393,-2.67526,-0.01833309,0.88163
415.831,46.7622,-2.67762,-0.01644721,0.88114
416.531,46.83048,-2.68042,-0.01794682,0.88064
417.231,46.89878,-2.68313,-0.01637803,0.88014
417.931,46.96689,-2.6844,-0.01482121,0.87964
418.631,47.03498,-2.68721,-0.01711425,0.87914
419.331,47.10301,-2.68876,-0.01532992,0.87864
420.031,47.17138,-2.69281,-0.01154315,0.87814
420.731,47.23984,-2.69443,-0.01311854,0.87764
421.431,47.30846,-2.69573,-0.009322997,0.87714
422.131,47.37693,-2.69838,-0.00774535,0.87664
422.831,47.4453,-2.70144,-0.008330515,0.87614
423.531,47.5135,-2.70142,-0.003715231,0.87564
424.231,47.5818,-2.70415,-0.003971031,0.87514
424.931,47.65013,-2.70827,-0.00379973,0.87464
425.631,47.7185,-2.71066,-0.001188631,0.87413
426.331,47.7869,-2.71104,-0.0001290446,0.87363
427.031,47.85524,-2.71397,0.00368282,0.87312
427.731,47.92351,-2.71626,0.003846352,0.87262
428.431,47.9918,-2.71767,0.008508604,0.87212
429.131,48.06022,-2.72055,0.008037902,0.87161
429.831,48.1289,-2.72254,0.01025097,0.87111
430.531,48.19744,-2.72455,0.01166208,0.8706
431.231,48.26582,-2.7276,0.01301329,0.87009
431.931,48.33428,-2.72926,0.01502644,0.86959
432.631,48.4028,-2.73153,0.01677914,0.86908
433.331,48.47132,-2.73281,0.01478451,0.86857
434.031,48.53949,-2.73294,0.01875391,0.86806
434.731,48.60805,-2.73421,0.01696546,0.86756
435.431,48.67685,-2.73565,0.02015109,0.86705
436.131,48.7459,-2.73832,0.02204877,0.86654
436.831,48.8144,-2.74223,0.02295908,0.86603
437.531,48.88296,-2.74281,0.02505674,0.86552
438.231,48.95152,-2.74306,0.02558065,0.86501
438.931,49.01992,-2.7451,0.02790973,0.8645
439.631,49.0884,-2.74799,0.02595137,0.86399
440.331,49.15695,-2.74892,0.0257345,0.86348
441.031,49.2254,-2.75044,0.02802729,0.86297
441.731,49.2941,-2.74886,0.03140128,0.86245
442.431,49.36251,-2.74888,0.02883512,0.86194
443.131,49.43138,-2.7448,0.03261763,0.86143
443.831,49.49973,-2.74674,0.03258328,0.86092
444.531,49.56798,-2.7529,0.03269672,0.8604
445.231,49.63633,-2.75649,0.0368304,0.85989
445.931,49.70453,-2.75973,0.03636686,0.85937
446.631,49.7734,-2.76181,0.03931533,0.85886
447.331,49.842,-2.76514,0.04056164,0.85835
448.031,49.9108,-2.77057,0.04303988,0.85783
448.731,49.97933,-2.77372,0.04562503,0.85731
449.431,50.04753,-2.77365,0.04423686,0.8568
450.131,50.11605,-2.77564,0.04648459,0.85628
450.831,50.18484,-2.77774,0.04701088,0.85576
451.531,50.25385,-2.77675,0.04768189,0.85525
452.231,50.3227,-2.77776,0.04631096,0.85473
452.931,50.39139,-2.77807,0.04658457,0.85421
453.631,50.46,-2.78076,0.05015789,0.85369
454.331,50.5291,-2.78209,0.04979136,0.85318
455.031,50.598,-2.78357,0.05185098,0.85266
455.731,50.6671,-2.78294,0.05116218,0.85214
456.431,50.73583,-2.78138,0.05292753,0.85162
457.131,50.80465,-2.78123,0.05127892,0.8511
457.831,50.87334,-2.78141,0.05411443,0.85058
458.531,50.94215,-2.78316,0.0526789,0.85006
459.231,51.0108,-2.78394,0.05366411,0.84954
459.931,51.0796,-2.78679,0.05309027,0.84901
460.631,51.1483,-2.7894,0.05462261,0.84849
461.331,51.21694,-2.79352,0.05896053,0.84797
462.031,51.28557,-2.79814,0.06061838,0.84745
462.731,51.3542,-2.80028,0.0604889,0.84693
463.431,51.42297,-2.80526,0.06145565,0.8464
464.131,51.4919,-2.81135,0.06329356,0.84588
464.831,51.5606,-2.81242,0.06432076,0.84535
465.531,51.6293,-2.81341,0.06535884,0.84483
466.231,51.698,-2.80971,0.06208146,0.84431
466.931,51.76684,-2.80905,0.06454065,0.84378
467.631,51.83578,-2.80774,0.06503126,0.84326
468.331,51.9044,-2.80809,0.06314337,0.84273
469.031,51.97322,-2.80941,0.06567368,0.8422
469.731,52.0419,-2.81229,0.06468665,0.84168
470.431,52.1108,-2.81497,0.06566174,0.84115
471.131,52.1796,-2.81519,0.06767152,0.84062
471.831,52.24844,-2.81613,0.07107542,0.8401
472.531,52.31728,-2.81576,0.06805317,0.83957
473.231,52.38622,-2.81618,0.06551613,0.83904
473.931,52.4551,-2.81619,0.06837422,0.83851
474.631,52.52395,-2.81486,0.0672121,0.83799
475.331,52.5927,-2.8162,0.06723568,0.83746
476.031,52.6616,-2.81753,0.06947333,0.83693
476.731,52.73016,-2.81938,0.06679952,0.8364
477.431,52.7991,-2.81937,0.06821361,0.83587
478.131,52.8679,-2.82052,0.06967634,0.83534
478.831,52.93705,-2.82203,0.06966974,0.83481
479.531,53.0061,-2.82341,0.06904126,0.83428
480.231,53.07552,-2.82614,0.07146954,0.83374
480.931,53.1449,-2.82739,0.06822025,0.83321
481.631,53.21402,-2.82944,0.07433446,0.83268
482.331,53.28295,-2.83284,0.0724207,0.83215
483.031,53.35199,-2.83154,0.07001316,0.83162
483.731,53.4211,-2.83212,0.06976608,0.83108
484.431,53.4902,-2.83155,0.06911122,0.83055
485.131,53.5592,-2.83156,0.06921627,0.83002
485.831,53.62816,-2.83513,0.0714635,0.82948
486.531,53.69729,-2.83588,0.06874861,0.82895
487.231,53.7665,-2.83648,0.07145511,0.82842
487.931,53.83574,-2.83782,0.07086337,0.82788
488.631,53.90498,-2.8378,0.07320109,0.82735
489.331,53.9743,-2.8378,0.07192323,0.82681
490.031,54.04342,-2.83876,0.06833786,0.82627
490.731,54.1125,-2.83966,0.07132351,0.82574
491.431,54.18164,-2.84008,0.06899151,0.8252
492.131,54.251,-2.84145,0.07081885,0.82467
492.831,54.32017,-2.84207,0.07223917,0.82413
493.531,54.3893,-2.84339,0.07230599,0.82359
494.231,54.4584,-2.84471,0.0754711,0.82305
494.931,54.5276,-2.84466,0.07869497,0.82252
495.631,54.5969,-2.84597,0.07747038,0.82198
496.331,54.6662,-2.84769,0.07764111,0.82144
497.031,54.7354,-2.84866,0.0780569,0.8209
497.731,54.80455,-2.84996,0.0771276,0.82036
498.431,54.8739,-2.85126,0.07725787,0.81982
499.131,54.94307,-2.85271,0.08104895,0.81928
499.831,55.01245,-2.85254,0.08227054,0.81874
500.531,55.0818,-2.85308,0.08039057,0.8182
501.231,55.15139,-2.85588,0.08538768,0.81766
501.931,55.2205,-2.85724,0.08599039,0.81712
502.631,55.2895,-2.8585,0.08613693,0.81658
503.331,55.35873,-2.85719,0.08529195,0.81604
504.031,55.4281,-2.85593,0.08942468,0.8155
504.731,55.4976,-2.85853,0.08904604,0.81496
505.431,55.56681,-2.85886,0.09026942,0.81442
506.131,55.636,-2.85896,0.09132713,0.81387
506.831,55.70514,-2.86027,0.09504179,0.81333
507.531,55.7742,-2.86286,0.09720704,0.81279
508.231,55.8432,-2.86449,0.10294,0.81224
508.931,55.91197,-2.86529,0.10589,0.8117
509.631,55.98081,-2.86413,0.10283,0.81116
510.331,56.04976,-2.86575,0.10539,0.81061
511.031,56.11866,-2.86642,0.10645,0.81007
511.731,56.18755,-2.86644,0.1106,0.80952
512.431,56.25648,-2.86643,0.10958,0.80898
513.131,56.3253,-2.8678,0.11241,0.80843
513.831,56.39419,-2.86767,0.11338,0.80789
514.531,56.46318,-2.87156,0.11293,0.80734
515.231,56.53219,-2.87153,0.11437,0.8068
515.931,56.60125,-2.87086,0.11428,0.80625
516.631,56.67034,-2.87059,0.1155,0.8057
517.331,56.73952,-2.87027,0.11585,0.80516
518.031,56.80871,-2.8716,0.11824,0.80461
518.731,56.87784,-2.87157,0.1158,0.80406
519.431,56.947,-2.87423,0.11805,0.80351
520.131,57.0163,-2.87834,0.11706,0.80296
520.831,57.0855,-2.87967,0.11817,0.80242
521.531,57.15485,-2.87986,0.12203,0.80187
522.231,57.2243,-2.88091,0.12072,0.80132
522.931,57.29401,-2.88091,0.11644,0.80077
523.631,57.3636,-2.88091,0.12194,0.80022
524.331,57.4332,-2.87959,0.11868,0.79967
525.031,57.50263,-2.87959,0.11883,0.79912
525.731,57.5721,-2.87959,0.12024,0.79857
526.431,57.6419,-2.88141,0.1194,0.79802
527.131,57.7118,-2.88358,0.11937,0.79747
527.831,57.7816,-2.88486,0.11941,0.79692
528.531,57.8514,-2.88487,0.11918,0.79637
529.231,57.921,-2.88493,0.11901,0.79582
529.931,57.99122,-2.88683,0.11434,0.79527
530.631,58.06134,-2.88683,0.11252,0.79471
531.331,58.1321,-2.88813,0.11274,0.79416
532.031,58.2024,-2.88815,0.1141,0.79361
532.731,58.27295,-2.88814,0.1129,0.79306
533.431,58.34335,-2.88881,0.10961,0.7925
534.131,58.41381,-2.88913,0.11049,0.79195
534.831,58.4842,-2.89108,0.11121,0.7914
535.531,58.55429,-2.89078,0.11196,0.79084
536.231,58.6242,-2.8921,0.11056,0.79029
536.931,58.6945,-2.89341,0.10711,0.78974
537.631,58.7648,-2.89341,0.10844,0.78918
538.331,58.8352,-2.89473,0.10922,0.78863
539.031,58.9053,-2.89553,0.10571,0.78807
539.731,58.97541,-2.89736,0.10826,0.78752
540.431,59.04554,-2.89731,0.10516,0.78696
541.131,59.11541,-2.89826,0.10051,0.78641
541.831,59.1853,-2.89858,0.09815865,0.78585
542.531,59.2549,-2.89856,0.0962777,0.78529
543.231,59.32495,-2.8968,0.0949761,0.78474
543.931,59.3948,-2.89459,0.09715164,0.78418
544.631,59.4645,-2.89563,0.09352283,0.78362
545.331,59.53394,-2.89746,0.09813009,0.78307
546.031,59.60323,-2.90222,0.0982316,0.78251
546.731,59.67281,-2.90394,0.09790262,0.78195
547.431,59.7423,-2.90658,0.09570376,0.78139
548.131,59.81195,-2.90786,0.09740228,0.78084
548.831,59.8817,-2.9079,0.09868211,0.78028
549.531,59.9515,-2.90638,0.09903339,0.77972
550.231,60.02126,-2.9056,0.09861881,0.77916
550.931,60.09091,-2.90351,0.09401133,0.7786
551.631,60.16046,-2.90351,0.09691768,0.77804
552.331,60.2302,-2.90353,0.09665186,0.77748
553.031,60.2999,-2.9058,0.09417864,0.77692
553.731,60.36975,-2.90579,0.09524557,0.77636
554.431,60.43934,-2.90878,0.09571147,0.7758
555.131,60.50915,-2.91005,0.09680862,0.77524
555.831,60.57872,-2.91271,0.09627319,0.77468
556.531,60.6486,-2.91407,0.09820302,0.77412
557.231,60.71821,-2.91248,0.09809218,0.77356
557.931,60.7881,-2.91386,0.09725248,0.773
558.631,60.8579,-2.91564,0.0974128,0.77244
559.331,60.9276,-2.9203,0.09837172,0.77188
560.031,60.99725,-2.9205,0.09715791,0.77132
560.731,61.0668,-2.91897,0.0963101,0.77076
561.431,61.1366,-2.91765,0.09601414,0.77019
562.131,61.20644,-2.91768,0.09552239,0.76963
562.831,61.2761,-2.91736,0.09433849,0.76907
563.531,61.34559,-2.91732,0.10121,0.76851
564.231,61.4149,-2.91874,0.09843016,0.76794
564.931,61.484,-2.91996,0.10229,0.76738
565.631,61.55333,-2.91999,0.10055,0.76682
566.331,61.62295,-2.91725,0.102,0.76625
567.031,61.69282,-2.91638,0.10139,0.76569
567.731,61.76257,-2.91754,0.10036,0.76512
568.431,61.83185,-2.91754,0.10373,0.76456
569.131,61.90155,-2.91889,0.10207,0.764
569.831,61.97119,-2.91886,0.10307,0.76343
570.531,62.04093,-2.91995,0.10573,0.76287
571.231,62.1105,-2.92422,0.1064,0.7623
571.931,62.1802,-2.92421,0.10628,0.76174
572.631,62.2498,-2.92565,0.10638,0.76117
573.331,62.3199,-2.92795,0.10798,0.76061
574.031,62.38995,-2.93016,0.10601,0.76004
574.731,62.4604,-2.93018,0.10726,0.75947
575.431,62.53034,-2.93158,0.10337,0.75891
576.131,62.60046,-2.93158,0.10633,0.75834
576.831,62.6704,-2.92716,0.10655,0.75777
577.531,62.74034,-2.92621,0.10312,0.75721
578.231,62.8102,-2.92654,0.1066,0.75664
578.931,62.8801,-2.92819,0.10755,0.75607
579.631,62.95,-2.93048,0.11001,0.75551
580.331,63.0202,-2.93048,0.11057,0.75494
581.031,63.09038,-2.93037,0.10915,0.75437
581.731,63.1607,-2.92895,0.11141,0.7538
582.431,63.23072,-2.92763,0.11424,0.75323
583.131,63.30092,-2.93029,0.11361,0.75267
583.831,63.37098,-2.93289,0.11227,0.7521
584.531,63.4413,-2.93422,0.1127,0.75153
585.231,63.5113,-2.93553,0.11513,0.75096
585.931,63.58149,-2.93553,0.1155,0.75039
586.631,63.65141,-2.93431,0.1154,0.74982
587.331,63.7214,-2.93552,0.11577,0.74925
588.031,63.7914,-2.9342,0.11538,0.74868
588.731,63.86101,-2.93153,0.11396,0.74811
589.431,63.93094,-2.93295,0.11621,0.74754
590.131,64.00076,-2.93431,0.11474,0.74697
590.831,64.0711,-2.9356,0.11666,0.7464
591.531,64.14121,-2.93684,0.11759,0.74583
592.231,64.21126,-2.93821,0.11417,0.74526
592.931,64.28147,-2.93947,0.11422,0.74469
593.631,64.35145,-2.93957,0.11535,0.74412
594.331,64.4217,-2.9421,0.11519,0.74355
595.031,64.49163,-2.94476,0.10744,0.74298
595.731,64.56197,-2.94343,0.11137,0.74241
596.431,64.63199,-2.94343,0.10988,0.74184
597.131,64.70196,-2.94343,0.11022,0.74126
597.831,64.77195,-2.94343,0.10841,0.74069
598.531,64.8422,-2.94475,0.10913,0.74012
599.231,64.91254,-2.94469,0.10564,0.73955
599.931,64.9826,-2.94606,0.10507,0.73898
600.631,65.0524,-2.94606,0.10249,0.7384
601.331,65.12168,-2.94726,0.10818,0.73783
602.031,65.19195,-2.94466,0.10462,0.73726
602.731,65.2624,-2.94459,0.10336,0.73668
603.431,65.33331,-2.94598,0.10405,0.73611
604.131,65.40349,-2.94595,0.10183,0.73554
604.831,65.47338,-2.94595,0.09979317,0.73496
605.531,65.54345,-2.94595,0.09724428,0.73439
606.231,65.61345,-2.94595,0.09867819,0.73382
606.931,65.6835,-2.94595,0.10056,0.73324
607.631,65.75363,-2.94594,0.09860077,0.73267
608.331,65.8237,-2.94588,0.10047,0.73209
609.031,65.89394,-2.94597,0.09858386,0.73152
609.731,65.964,-2.94728,0.09919036,0.73094
610.431,66.0341,-2.94881,0.09996393,0.73037
611.131,66.1037,-2.95104,0.10015,0.7298
611.831,66.1738,-2.95099,0.09621744,0.72922
612.531,66.24415,-2.95099,0.09607138,0.72864
613.231,66.31506,-2.95096,0.0978413,0.72807
613.931,66.3854,-2.95148,0.09728502,0.72749
614.631,66.45568,-2.95219,0.09937408,0.72692
615.331,66.526,-2.9537,0.0986733,0.72634
616.031,66.5964,-2.95259,0.09608435,0.72577
616.731,66.66656,-2.95242,0.09504053,0.72519
617.431,66.73654,-2.95242,0.09884327,0.72461
618.131,66.80667,-2.95243,0.09791018,0.72404
618.831,66.8771,-2.95284,0.0984137,0.72346
619.531,66.94723,-2.95509,0.09647699,0.72289
620.231,67.0176,-2.95642,0.09727241,0.72231
620.931,67.08782,-2.95638,0.10229,0.72173
621.631,67.15845,-2.9587,0.10147,0.72115
622.331,67.22877,-2.96033,0.09857432,0.72058
623.031,67.29901,-2.96131,0.09740681,0.72
623.731,67.36927,-2.95999,0.09569972,0.71942
624.431,67.4393,-2.95999,0.10067,0.71885
625.131,67.50936,-2.95867,0.10087,0.71827
625.831,67.57943,-2.95736,0.09883398,0.71769
626.531,67.64971,-2.95736,0.09750362,0.71711
627.231,67.72021,-2.95868,0.09964432,0.71653
627.931,67.79053,-2.95837,0.09740706,0.71596
628.631,67.8605,-2.95736,0.09819488,0.71538
629.331,67.93066,-2.95868,0.09579821,0.7148
630.031,68.00097,-2.96004,0.09779412,0.71422
630.731,68.07143,-2.95999,0.10138,0.71364
631.431,68.1417,-2.95999,0.09862003,0.71306
632.131,68.21185,-2.9613,0.09933407,0.71248
632.831,68.2821,-2.96243,0.09730458,0.71191
633.531,68.3522,-2.96279,0.09730131,0.71133
634.231,68.42235,-2.96305,0.09350238,0.71075
634.931,68.49269,-2.96241,0.09677099,0.71017
635.631,68.56288,-2.96314,0.09855607,0.70959
636.331,68.6332,-2.96438,0.09678498,0.70901
637.031,68.7033,-2.96438,0.09506346,0.70843
637.731,68.77365,-2.96442,0.09763868,0.70785
638.431,68.84395,-2.96307,0.10118,0.70727
639.131,68.91457,-2.96302,0.09621054,0.70669
639.831,68.98519,-2.96209,0.09847198,0.70611
640.531,69.05588,-2.965,0.0931571,0.70553
641.231,69.12623,-2.96485,0.09491373,0.70495
641.931,69.19649,-2.96767,0.09766099,0.70437
642.631,69.2669,-2.96783,0.0952996,0.70379
643.331,69.3374,-2.96865,0.09526509,0.70321
644.031,69.40788,-2.96766,0.09563784,0.70262
644.731,69.47788,-2.96899,0.09269027,0.70204
645.431,69.54821,-2.97033,0.09573911,0.70146
646.131,69.6185,-2.97295,0.09582616,0.70088
646.831,69.68897,-2.97293,0.09240197,0.7003
647.531,69.75919,-2.97293,0.09532308,0.69972
648.231,69.82946,-2.97019,0.09125017,0.69914
648.931,69.8999,-2.96515,0.09138351,0.69856
649.631,69.97028,-2.96196,0.08947732,0.69797
650.331,70.04069,-2.96504,0.09033857,0.69739
651.031,70.11098,-2.96882,0.0954736,0.69681
651.731,70.18104,-2.96942,0.0913704,0.69623
652.431,70.25059,-2.97074,0.09042166,0.69565
653.131,70.32061,-2.96945,0.09011576,0.69506
653.831,70.39071,-2.97074,0.08959732,0.69448
654.531,70.4616,-2.97008,0.09092655,0.6939
655.231,70.53184,-2.97149,0.09191044,0.69332
655.931,70.60236,-2.97282,0.0933233,0.69274
656.631,70.6725,-2.97284,0.0908364,0.69215
657.331,70.7423,-2.97186,0.0896268,0.69157
658.031,70.81191,-2.97282,0.08961444,0.69099
658.731,70.88209,-2.97184,0.0916153,0.6904
659.431,70.9528,-2.97184,0.08817811,0.68982
660.131,71.02386,-2.97185,0.08917031,0.68924
660.831,71.09415,-2.97128,0.08874828,0.68866
661.531,71.1644,-2.97264,0.08838183,0.68807
662.231,71.23454,-2.9749,0.08976869,0.68749
662.931,71.30495,-2.9785,0.08826332,0.68691
663.631,71.37521,-2.97701,0.08833751,0.68632
664.331,71.44553,-2.97707,0.08909247,0.68574
665.031,71.51607,-2.97578,0.08790086,0.68515
665.731,71.58669,-2.97842,0.08783822,0.68457
666.431,71.65741,-2.97833,0.0867668,0.68399
667.131,71.7278,-2.97521,0.08726433,0.6834
667.831,71.79828,-2.97523,0.08532187,0.68282
668.531,71.86872,-2.9752,0.09079481,0.68224
669.231,71.93941,-2.97915,0.090797,0.68165
669.931,72.00985,-2.98082,0.09485856,0.68107
670.631,72.08028,-2.98182,0.08553417,0.68048
671.331,72.15053,-2.97897,0.08712579,0.6799
672.031,72.22099,-2.97897,0.08922463,0.67931
672.731,72.29135,-2.97897,0.0902077,0.67873
673.431,72.3616,-2.97765,0.08790604,0.67815
674.131,72.4319,-2.97876,0.08630719,0.67756
674.831,72.5023,-2.97896,0.08815009,0.67698
675.531,72.57271,-2.97893,0.0882407,0.67639
676.231,72.64321,-2.98169,0.08931093,0.67581
676.931,72.7136,-2.98424,0.08856628,0.67522
677.631,72.7842,-2.98321,0.08896292,0.67464
678.331,72.8546,-2.98432,0.09085482,0.67405
679.031,72.92515,-2.98441,0.09020723,0.67347
679.731,72.99552,-2.98566,0.09105938,0.67288
680.431,73.0659,-2.98566,0.09350583,0.6723
681.131,73.13634,-2.98566,0.09143265,0.67171
681.831,73.20684,-2.98519,0.08835994,0.67113
682.531,73.2775,-2.98235,0.09048687,0.67054
683.231,73.34809,-2.9828,0.09222684,0.66996
683.931,73.41874,-2.9828,0.08964573,0.66937
684.631,73.48937,-2.98373,0.09344129,0.66878
685.331,73.5599,-2.98423,0.09233753,0.6682
686.031,73.6306,-2.98423,0.08988454,0.66761
686.731,73.70113,-2.98421,0.09319385,0.66703
687.431,73.77152,-2.98555,0.09112147,0.66644
688.131,73.84201,-2.98555,0.08908006,0.66586
688.831,73.91258,-2.98555,0.09003864,0.66527
689.531,73.9831,-2.98555,0.09012832,0.66468
690.231,74.0535,-2.98675,0.09050058,0.6641
690.931,74.12389,-2.98687,0.09207229,0.66351
691.631,74.19449,-2.98531,0.09133936,0.66293
692.331,74.2651,-2.98556,0.09148205,0.66234
693.031,74.3354,-2.98555,0.09064159,0.66175
693.731,74.40594,-2.98545,0.09342444,0.66117
694.431,74.47661,-2.98808,0.09208537,0.66058
695.131,74.54767,-2.99091,0.09441127,0.66
695.831,74.61854,-2.99092,0.09387073,0.65941
696.531,74.68933,-2.98961,0.09261895,0.65882
697.231,74.76008,-2.98961,0.09343867,0.65824
697.931,74.83073,-2.98961,0.09070722,0.65765
698.631,74.9014,-2.98959,0.09462047,0.65706
699.331,74.97195,-2.98848,0.09157849,0.65648
700.031,75.04263,-2.9873,0.09238468,0.65589
700.731,75.11313,-2.98878,0.09117576,0.6553
701.431,75.18401,-2.99001,0.09210638,0.65472
702.131,75.2549,-2.99004,0.09357015,0.65413
702.831,75.3258,-2.99004,0.09065966,0.65354
703.531,75.39639,-2.99036,0.0912206,0.65296
704.231,75.46698,-2.98864,0.09126053,0.65237
704.931,75.53787,-2.99151,0.09013657,0.65178
705.631,75.60892,-2.99016,0.0918208,0.6512
706.331,75.6797,-2.99145,0.09160493,0.65061
707.031,75.7504,-2.99015,0.0946326,0.65002
707.731,75.82092,-2.98883,0.0901817,0.64944
708.431,75.8917,-2.98883,0.09058997,0.64885
709.131,75.9626,-2.98878,0.0926187,0.64826
709.831,76.0337,-2.99151,0.09159244,0.64768
710.531,76.10469,-2.99171,0.09239397,0.64709
711.231,76.1755,-2.99429,0.09547138,0.6465
711.931,76.24627,-2.99421,0.09554658,0.64591
712.631,76.31705,-2.99527,0.0905174,0.64533
713.331,76.38797,-2.99421,0.09153281,0.64474
714.031,76.45878,-2.99421,0.08948828,0.64415
714.731,76.52956,-2.9926,0.08585483,0.64357
715.431,76.6002,-2.99324,0.08865755,0.64298
716.131,76.671,-2.99388,0.08729056,0.64239
716.831,76.7418,-2.9942,0.0855558,0.6418
717.531,76.81277,-2.99421,0.09061387,0.64122
718.231,76.88339,-2.99552,0.09409964,0.64063
718.931,76.95415,-2.99543,0.09155319,0.64004
719.631,77.0249,-2.99544,0.09433903,0.63946
720.331,77.09571,-2.99926,0.09314423,0.63887
721.031,77.16626,-2.99947,0.0928228,0.63828
721.731,77.23662,-2.99944,0.09168414,0.63769
722.431,77.30691,-2.99814,0.08986353,0.63711
723.131,77.3775,-2.99684,0.09073601,0.63652
723.831,77.44788,-2.99684,0.09235712,0.63593
724.531,77.51856,-2.99706,0.0908043,0.63534
725.231,77.589,-2.99816,0.09148302,0.63476
725.931,77.6597,-2.99684,0.08995587,0.63417
726.631,77.73049,-2.99684,0.08955473,0.63358
727.331,77.80124,-2.99683,0.08738858,0.633
728.031,77.87169,-2.99691,0.08688223,0.63241
728.731,77.9422,-2.99948,0.08632977,0.63182
729.431,78.01302,-3.00079,0.08468405,0.63123
730.131,78.08419,-3.00079,0.08779687,0.63065
730.831,78.15547,-3.00206,0.09027552,0.63006
731.531,78.22621,-3.00216,0.08675487,0.62947
732.231,78.29706,-2.99822,0.08119685,0.62888
732.931,78.36776,-2.99542,0.08403139,0.6283
733.631,78.43887,-2.99434,0.08151528,0.62771
734.331,78.5099,-2.99673,0.07850772,0.62712
735.031,78.58071,-2.99805,0.08004659,0.62653
735.731,78.6515,-2.99805,0.0779385,0.62595
736.431,78.72238,-2.99936,0.07266198,0.62536
737.131,78.7934,-2.99938,0.07540618,0.62477
737.831,78.86402,-2.99937,0.07617353,0.62418
738.531,78.93455,-2.99871,0.07373933,0.6236
739.231,79.00516,-2.99936,0.07190356,0.62301
739.931,79.07604,-2.99969,0.07452161,0.62242
740.631,79.147,-3.00347,0.07587651,0.62184
741.331,79.21791,-3.00639,0.07829881,0.62125
742.031,79.2888,-3.00904,0.07765419,0.62066
742.731,79.35959,-3.00769,0.07890448,0.62007
743.431,79.43039,-3.0077,0.07205243,0.61949
744.131,79.50112,-3.00635,0.07284909,0.6189
744.831,79.57216,-3.00408,0.07280417,0.61831
745.531,79.643,-3.00436,0.07264474,0.61772
746.231,79.714,-3.00441,0.07685276,0.61714
746.931,79.78486,-3.00446,0.07904747,0.61655
747.631,79.85625,-3.00309,0.07933583,0.61596
748.331,79.92758,-3.00173,0.07699204,0.61538
749.031,79.99889,-3.00235,0.07674246,0.61479
749.731,80.06988,-3.0031,0.07886255,0.6142
750.431,80.14065,-3.00441,0.07984353,0.61361
751.131,80.21165,-3.00441,0.08050452,0.61303
751.831,80.2826,-3.0031,0.07875999,0.61244
752.531,80.35384,-3.0031,0.08212477,0.61185
753.231,80.42488,-3.00443,0.08409508,0.61127
753.931,80.49595,-3.00442,0.08198801,0.61068
754.631,80.5669,-3.00428,0.08010842,0.61009
755.331,80.6374,-3.00441,0.08424265,0.60951
756.031,80.70804,-3.00442,0.08363928,0.60892
756.731,80.7792,-3.00573,0.08241111,0.60833
757.431,80.85086,-3.00573,0.08590404,0.60775
758.131,80.9224,-3.00721,0.08430495,0.60716
758.831,80.9936,-3.00836,0.0842695,0.60657
759.531,81.0645,-3.00925,0.08410509,0.60599
760.231,81.1355,-3.00844,0.08320745,0.6054
760.931,81.20651,-3.00792,0.07688334,0.60481
761.631,81.27755,-3.00693,0.07982925,0.60423
762.331,81.3485,-3.00567,0.07916732,0.60364
763.031,81.41931,-3.00561,0.08038245,0.60305
763.731,81.4901,-3.00561,0.07720874,0.60247
764.431,81.56116,-3.00697,0.07929595,0.60188
765.131,81.632,-3.00957,0.07985604,0.60129
765.831,81.703,-3.01099,0.08139149,0.60071
766.531,81.77375,-3.00996,0.07408295,0.60012
767.231,81.84469,-3.00666,0.07550828,0.59953
767.931,81.91545,-3.00637,0.07571972,0.59895
768.631,81.9862,-3.00946,0.07733939,0.59836
769.331,82.05674,-3.01041,0.07862503,0.59777
770.031,82.12733,-3.01207,0.07885289,0.59719
770.731,82.19799,-3.01132,0.07883394,0.5966
771.431,82.2687,-3.01165,0.08079754,0.59602
772.131,82.33941,-3.0114,0.08186723,0.59543
772.831,82.40989,-3.01275,0.08142381,0.59484
773.531,82.48075,-3.01143,0.08107369,0.59426
774.231,82.55159,-3.01143,0.07686533,0.59367
774.931,82.62266,-3.01274,0.07859809,0.59309
775.631,82.69354,-3.01143,0.08010967,0.5925
776.331,82.76427,-3.01154,0.08033589,0.59192
777.031,82.83503,-3.01143,0.07849494,0.59133
777.731,82.90587,-3.01143,0.07727995,0.59074
778.431,82.9766,-3.01143,0.07788261,0.59016
779.131,83.04731,-3.01143,0.07718136,0.58957
779.831,83.11799,-3.01143,0.07721923,0.58899
780.531,83.189,-3.01143,0.07244814,0.5884
781.231,83.25992,-3.01143,0.07417615,0.58782
781.931,83.33085,-3.01143,0.078986,0.58723
782.631,83.40175,-3.01247,0.07748648,0.58665
783.331,83.4729,-3.01242,0.07459555,0.58606
784.031,83.54417,-3.01242,0.07793376,0.58548
784.731,83.6156,-3.01116,0.07409677,0.58489
785.431,83.68686,-3.01143,0.07841749,0.58431
786.131,83.75814,-3.01263,0.07795893,0.58372
786.831,83.82937,-3.01401,0.08079976,0.58314
787.531,83.90075,-3.0161,0.07923161,0.58255
788.231,83.97206,-3.018,0.07807311,0.58197
788.931,84.04352,-3.01538,0.07431226,0.58138
789.631,84.1149,-3.01406,0.07762968,0.5808
790.331,84.1861,-3.01473,0.07539939,0.58021
791.031,84.25718,-3.01474,0.07302366,0.57963
791.731,84.32816,-3.01411,0.07179171,0.57904
792.431,84.39919,-3.01143,0.07350032,0.57846
793.131,84.4701,-3.01275,0.07309832,0.57788
793.831,84.5412,-3.01406,0.07328659,0.57729
794.531,84.61231,-3.01274,0.07099475,0.57671
795.231,84.68339,-3.01373,0.07882687,0.57612
795.931,84.75453,-3.01406,0.07561201,0.57554
796.631,84.82564,-3.01534,0.07926418,0.57496
797.331,84.897,-3.01785,0.07061276,0.57437
798.031,84.96815,-3.01813,0.0744471,0.57379
798.331,84.9987,-3.01777,0.07539356,0.57354