File: 01_Data/Particleboard/STA/N2/10K_min/Particleboard_STA_N2_10KData_220418_R1.csv
##Temp./Â°C,Time/min,Mass loss(subtr.2)/mg,DSC(subtr.2)/(mW/mg),Sensit./(uV/mW)
49.624,10.00917,-0.0204,0.0159866,1.06053
50.324,10.7675,-0.02000693,0.04799056,1.06039
51.024,10.9708,-0.02204134,0.07773302,1.06025
51.724,11.12335,-0.02351376,0.09581135,1.0601
52.424,11.25262,-0.02213473,0.11398,1.05995
53.124,11.36731,-0.01999414,0.13014,1.05981
53.824,11.47357,-0.02181112,0.14206,1.05966
54.524,11.5733,-0.02226544,0.15471,1.05951
55.224,11.66802,-0.02095476,0.16501,1.05936
55.924,11.75882,-0.02104082,0.17276,1.05921
56.624,11.84631,-0.02040625,0.18118,1.05906
57.324,11.9323,-0.02072466,0.18841,1.0589
58.024,12.01688,-0.02234728,0.19571,1.05875
58.724,12.1,-0.02286337,0.20181,1.05859
59.424,12.18121,-0.02226727,0.20582,1.05844
60.124,12.261,-0.02436444,0.21133,1.05828
60.824,12.34035,-0.02387964,0.2173,1.05812
61.524,12.4191,-0.02523004,0.21962,1.05797
62.224,12.49801,-0.02393964,0.22645,1.05781
62.924,12.5752,-0.02380974,0.22995,1.05765
63.624,12.65253,-0.02390799,0.23276,1.05749
64.324,12.72916,-0.02259005,0.23779,1.05732
65.024,12.80593,-0.02260541,0.23856,1.05716
65.724,12.88209,-0.02262004,0.24169,1.057
66.424,12.9581,-0.02161541,0.24757,1.05683
67.124,13.0337,-0.02066377,0.24811,1.05667
67.824,13.10934,-0.02237999,0.25107,1.0565
68.524,13.18454,-0.02383079,0.25785,1.05633
69.224,13.2592,-0.02610085,0.25958,1.05616
69.924,13.33399,-0.02510342,0.26078,1.056
70.624,13.40829,-0.02547034,0.26563,1.05583
71.324,13.4827,-0.02533955,0.26733,1.05565
72.024,13.5566,-0.02643636,0.2694,1.05548
72.724,13.6308,-0.02763005,0.27071,1.05531
73.424,13.705,-0.02777561,0.27508,1.05514
74.124,13.7786,-0.02906057,0.27614,1.05496
74.824,13.852,-0.03038436,0.28096,1.05479
75.524,13.9252,-0.02778993,0.2804,1.05461
76.224,13.9985,-0.02714388,0.28404,1.05443
76.924,14.07131,-0.02721444,0.28785,1.05425
77.624,14.14393,-0.02668645,0.28885,1.05408
78.324,14.21631,-0.02894309,0.29294,1.0539
79.024,14.2888,-0.03038868,0.29504,1.05372
79.724,14.36095,-0.03139548,0.29666,1.05353
80.424,14.433,-0.03137,0.29712,1.05335
81.124,14.50505,-0.03143482,0.29947,1.05317
81.824,14.57685,-0.03136838,0.30158,1.05298
82.524,14.6487,-0.03004827,0.30273,1.0528
83.224,14.7203,-0.03136993,0.306,1.05261
83.924,14.7919,-0.03136972,0.30342,1.05243
84.624,14.86309,-0.03268706,0.30529,1.05224
85.324,14.93431,-0.03268,0.30856,1.05205
86.024,15.00525,-0.032687,0.30616,1.05186
86.724,15.07629,-0.03136151,0.30886,1.05167
87.424,15.1469,-0.03270449,0.30833,1.05148
88.124,15.21766,-0.03269025,0.30716,1.05128
88.824,15.28798,-0.03399961,0.30817,1.05109
89.524,15.35794,-0.03394483,0.3081,1.0509
90.224,15.42811,-0.03531999,0.30805,1.0507
90.924,15.49802,-0.03620574,0.30807,1.05051
91.624,15.5679,-0.03664,0.30619,1.05031
92.324,15.63768,-0.03663998,0.3086,1.05011
93.024,15.7075,-0.0379814,0.3066,1.04991
93.724,15.7775,-0.03930148,0.30379,1.04972
94.424,15.84715,-0.03908172,0.30268,1.04952
95.124,15.91699,-0.03795006,0.29985,1.04931
95.824,15.98676,-0.03794988,0.30183,1.04911
96.524,16.05619,-0.03665517,0.29994,1.04891
97.224,16.1252,-0.03795156,0.29825,1.04871
97.924,16.19412,-0.03893585,0.29439,1.0485
98.624,16.2633,-0.03894,0.29586,1.0483
99.324,16.33251,-0.03894,0.29362,1.04809
100.024,16.40135,-0.03894189,0.29197,1.04788
100.724,16.47007,-0.03900925,0.28823,1.04768
101.424,16.53889,-0.03926991,0.29063,1.04747
102.124,16.60774,-0.04024237,0.28862,1.04726
102.824,16.67632,-0.04025046,0.28651,1.04705
103.524,16.74496,-0.03912128,0.28687,1.04684
104.224,16.81352,-0.0395158,0.28494,1.04662
104.924,16.8822,-0.04091988,0.28036,1.04641
105.624,16.951,-0.04092,0.28198,1.0462
106.324,17.01993,-0.04092,0.28254,1.04598
107.024,17.0887,-0.04092,0.27978,1.04577
107.724,17.15757,-0.04092069,0.27796,1.04555
108.424,17.22609,-0.04222052,0.2756,1.04533
109.124,17.2947,-0.04187219,0.27679,1.04511
109.824,17.36316,-0.04057974,0.27381,1.04489
110.524,17.4317,-0.04190678,0.27255,1.04467
111.224,17.49993,-0.04255058,0.27112,1.04445
111.924,17.5681,-0.04190352,0.27256,1.04423
112.624,17.6365,-0.04318388,0.27241,1.04401
113.324,17.7051,-0.04222958,0.27015,1.04379
114.024,17.7736,-0.04223002,0.27055,1.04356
114.724,17.8418,-0.04207526,0.27031,1.04334
115.424,17.90989,-0.04157012,0.27104,1.04311
116.124,17.97808,-0.04290038,0.27067,1.04289
116.824,18.0461,-0.04288995,0.27074,1.04266
117.524,18.1143,-0.04251577,0.2685,1.04243
118.224,18.1826,-0.03930828,0.27413,1.0422
118.924,18.25089,-0.04200066,0.2716,1.04197
119.624,18.31912,-0.04463831,0.27057,1.04174
120.324,18.38705,-0.04463693,0.27104,1.04151
121.024,18.45502,-0.04456453,0.27169,1.04128
121.724,18.52299,-0.04464038,0.26995,1.04104
122.424,18.59081,-0.04332456,0.27058,1.04081
123.124,18.6587,-0.04333,0.27161,1.04057
123.824,18.7266,-0.04335376,0.26988,1.04034
124.524,18.79487,-0.04353575,0.27185,1.0401
125.224,18.86274,-0.04331998,0.27139,1.03986
125.924,18.93072,-0.04332014,0.27377,1.03962
126.624,18.99846,-0.0419772,0.27437,1.03938
127.324,19.06639,-0.04265995,0.27511,1.03914
128.024,19.1343,-0.04265824,0.27438,1.0389
128.724,19.20233,-0.04332183,0.27555,1.03866
129.424,19.27036,-0.04332758,0.27397,1.03842
130.124,19.33844,-0.0433127,0.27644,1.03818
130.824,19.40624,-0.04332976,0.27579,1.03793
131.524,19.47382,-0.04469067,0.27773,1.03769
132.224,19.5412,-0.04464,0.27818,1.03744
132.924,19.60895,-0.04464019,0.27894,1.0372
133.624,19.67697,-0.04463103,0.27868,1.03695
134.324,19.74493,-0.04464,0.27905,1.0367
135.024,19.81286,-0.0446428,0.27914,1.03645
135.724,19.88008,-0.04332832,0.27853,1.0362
136.424,19.9476,-0.04334793,0.27989,1.03595
137.124,20.01509,-0.0446399,0.28067,1.0357
137.824,20.08298,-0.04464359,0.28091,1.03545
138.524,20.1506,-0.04595087,0.28219,1.03519
139.224,20.21779,-0.04595002,0.27944,1.03494
139.924,20.28531,-0.04536553,0.28421,1.03468
140.624,20.35284,-0.04459273,0.28165,1.03443
141.324,20.42063,-0.04431121,0.28404,1.03417
142.024,20.48817,-0.04562515,0.28318,1.03391
142.724,20.55574,-0.04693215,0.28444,1.03366
143.424,20.62332,-0.04572691,0.28439,1.0334
144.124,20.69109,-0.0443103,0.28615,1.03314
144.824,20.7585,-0.0456308,0.28632,1.03288
145.524,20.82565,-0.04444415,0.28842,1.03262
146.224,20.89303,-0.04561997,0.28988,1.03235
146.924,20.96035,-0.0466992,0.29034,1.03209
147.624,21.02808,-0.04694,0.29257,1.03183
148.324,21.0956,-0.04694,0.2948,1.03156
149.024,21.16309,-0.04694151,0.29602,1.0313
149.724,21.23024,-0.04781416,0.29725,1.03103
150.424,21.29759,-0.04672008,0.29781,1.03077
151.124,21.36476,-0.04619652,0.30035,1.0305
151.824,21.43197,-0.04541001,0.29976,1.03023
152.524,21.49895,-0.04541,0.30053,1.02996
153.224,21.56616,-0.04648443,0.30641,1.02969
153.924,21.63338,-0.04749409,0.30362,1.02942
154.624,21.7007,-0.0480403,0.30394,1.02915
155.324,21.76766,-0.04937488,0.30903,1.02888
156.024,21.83465,-0.04936,0.31021,1.0286
156.724,21.90161,-0.04935999,0.30978,1.02833
157.424,21.96898,-0.04904514,0.31313,1.02805
158.124,22.03641,-0.04804008,0.31388,1.02778
158.824,22.10359,-0.04795797,0.31837,1.0275
159.524,22.1707,-0.04936002,0.31911,1.02722
160.224,22.2378,-0.04936001,0.32307,1.02695
160.924,22.305,-0.05031163,0.3229,1.02667
161.624,22.37182,-0.05068003,0.32717,1.02639
162.324,22.4386,-0.05068,0.32709,1.02611
163.024,22.50548,-0.05067998,0.33198,1.02583
163.724,22.5728,-0.05084955,0.33645,1.02554
164.424,22.6404,-0.05190447,0.3392,1.02526
165.124,22.70779,-0.05068869,0.34076,1.02498
165.824,22.77509,-0.05353181,0.34507,1.02469
166.524,22.84236,-0.05209549,0.34896,1.02441
167.224,22.90955,-0.0521,0.35225,1.02412
167.924,22.97675,-0.05210454,0.35561,1.02384
168.624,23.04406,-0.05143492,0.35797,1.02355
169.324,23.11121,-0.05283882,0.35873,1.02326
170.024,23.17821,-0.05420206,0.3626,1.02297
170.724,23.24522,-0.05676881,0.3655,1.02268
171.424,23.31212,-0.05684006,0.37036,1.02239
172.124,23.37915,-0.05550008,0.37002,1.0221
172.824,23.4461,-0.05417969,0.37717,1.02181
173.524,23.51322,-0.05437981,0.3815,1.02152
174.224,23.5804,-0.05549996,0.38196,1.02122
174.924,23.6474,-0.0555,0.38582,1.02093
175.624,23.7144,-0.05550007,0.38856,1.02063
176.324,23.78125,-0.05691619,0.39083,1.02034
177.024,23.8482,-0.05830355,0.39578,1.02004
177.724,23.91515,-0.06106789,0.3991,1.01975
178.424,23.98171,-0.06119044,0.40331,1.01945
179.124,24.04857,-0.06358217,0.40549,1.01915
179.824,24.11554,-0.06362003,0.41182,1.01885
180.524,24.18327,-0.06362001,0.41351,1.01855
181.224,24.25054,-0.06407691,0.41665,1.01825
181.924,24.3174,-0.06493995,0.42325,1.01795
182.624,24.38429,-0.06494,0.42589,1.01764
183.324,24.4513,-0.06493717,0.4291,1.01734
184.024,24.5181,-0.06624962,0.43416,1.01704
184.724,24.58456,-0.06625018,0.43886,1.01673
185.424,24.65135,-0.0683789,0.44118,1.01643
186.124,24.7182,-0.06887975,0.44666,1.01612
186.824,24.7855,-0.07023114,0.45203,1.01581
187.524,24.8523,-0.07280409,0.45386,1.0155
188.224,24.91915,-0.07283002,0.45926,1.0152
188.924,24.98591,-0.07283212,0.46262,1.01489
189.624,25.05248,-0.07282525,0.46548,1.01458
190.324,25.1186,-0.07542436,0.46842,1.01427
191.024,25.18532,-0.07686518,0.47462,1.01395
191.724,25.25212,-0.07810571,0.47726,1.01364
192.424,25.31965,-0.07941011,0.4798,1.01333
193.124,25.38653,-0.08072382,0.48573,1.01301
193.824,25.4533,-0.08067733,0.48747,1.0127
194.524,25.52005,-0.08203903,0.48939,1.01239
195.224,25.5869,-0.08335839,0.4939,1.01207
195.924,25.65377,-0.08308099,0.49682,1.01175
196.624,25.72048,-0.08335898,0.50024,1.01143
197.324,25.7871,-0.08599538,0.5019,1.01112
198.024,25.85395,-0.0872531,0.50725,1.0108
198.724,25.92077,-0.08873485,0.51035,1.01048
199.424,25.98743,-0.08988782,0.51393,1.01016
200.124,26.05428,-0.09263777,0.51396,1.00984
200.824,26.12102,-0.09389921,0.51788,1.00951
201.524,26.18796,-0.09521117,0.51852,1.00919
202.224,26.2548,-0.09651806,0.52001,1.00887
202.924,26.32167,-0.09793483,0.52182,1.00854
203.624,26.3887,-0.09780207,0.52406,1.00822
204.324,26.45565,-0.099218,0.52358,1.00789
205.024,26.52277,-0.10036,0.52478,1.00757
205.724,26.58973,-0.1018,0.52533,1.00724
206.424,26.65653,-0.10321,0.52789,1.00691
207.124,26.7233,-0.10576,0.52855,1.00659
207.824,26.79,-0.10705,0.52979,1.00626
208.524,26.85678,-0.1097,0.53215,1.00593
209.224,26.92345,-0.11075,0.53044,1.0056
209.924,26.9902,-0.11316,0.53301,1.00526
210.624,27.05687,-0.11506,0.53357,1.00493
211.324,27.1237,-0.11717,0.53136,1.0046
212.024,27.1904,-0.11877,0.53165,1.00427
212.724,27.25702,-0.119,0.53227,1.00393
213.424,27.32367,-0.12037,0.53291,1.0036
214.124,27.3903,-0.12444,0.5321,1.00326
214.824,27.45722,-0.12562,0.53225,1.00293
215.524,27.52399,-0.12746,0.53177,1.00259
216.224,27.5908,-0.12963,0.52907,1.00225
216.924,27.6571,-0.13094,0.53023,1.00191
217.624,27.72362,-0.13228,0.52624,1.00157
218.324,27.7904,-0.13361,0.52783,1.00123
219.024,27.8575,-0.1336,0.52824,1.00089
219.724,27.9244,-0.1349,0.52499,1.00055
220.424,27.99128,-0.13895,0.52426,1.00021
221.124,28.0576,-0.14183,0.52413,0.99987
221.824,28.12404,-0.14326,0.52388,0.99953
222.524,28.19055,-0.1433,0.52599,0.99918
223.224,28.2569,-0.14857,0.52464,0.99884
223.924,28.3238,-0.15159,0.52437,0.99849
224.624,28.3902,-0.15462,0.52296,0.99815
225.324,28.45683,-0.1563,0.52582,0.9978
226.024,28.52352,-0.15778,0.52412,0.99745
226.724,28.5903,-0.16036,0.52597,0.9971
227.424,28.65713,-0.16153,0.52529,0.99675
228.124,28.7237,-0.16298,0.52672,0.99641
228.824,28.7901,-0.16505,0.52771,0.99606
229.524,28.8568,-0.16708,0.52762,0.9957
230.224,28.9232,-0.16827,0.52796,0.99535
230.924,28.98971,-0.1711,0.52645,0.995
231.624,29.05623,-0.17482,0.5268,0.99465
232.324,29.12299,-0.17692,0.52743,0.99429
233.024,29.1898,-0.18215,0.52686,0.99394
233.724,29.2563,-0.18546,0.52657,0.99358
234.424,29.3228,-0.18683,0.52468,0.99323
235.124,29.3895,-0.1884,0.52532,0.99287
235.824,29.45638,-0.19121,0.52349,0.99252
236.524,29.5229,-0.1939,0.52231,0.99216
237.224,29.5897,-0.19627,0.51871,0.9918
237.924,29.6562,-0.19885,0.51909,0.99144
238.624,29.72291,-0.20147,0.51943,0.99108
239.324,29.7894,-0.20602,0.51686,0.99072
240.024,29.8561,-0.20968,0.51729,0.99036
240.724,29.923,-0.21184,0.5155,0.99
241.424,29.98974,-0.21468,0.51323,0.98964
242.124,30.05645,-0.21748,0.51476,0.98927
242.824,30.12289,-0.22058,0.51491,0.98891
243.524,30.18961,-0.22475,0.51353,0.98854
244.224,30.2561,-0.22783,0.51464,0.98818
244.924,30.3229,-0.22945,0.51151,0.98781
245.624,30.3897,-0.23251,0.51611,0.98745
246.324,30.4565,-0.23677,0.51214,0.98708
247.024,30.5232,-0.23983,0.51151,0.98671
247.724,30.59,-0.24305,0.51197,0.98634
248.424,30.657,-0.24724,0.51164,0.98597
249.124,30.7238,-0.24868,0.51119,0.9856
249.824,30.7903,-0.25404,0.51003,0.98523
250.524,30.85697,-0.25736,0.51158,0.98486
251.224,30.9236,-0.2614,0.51274,0.98449
251.924,30.9905,-0.26323,0.51059,0.98412
252.624,31.0572,-0.26762,0.51154,0.98375
253.324,31.12388,-0.2729,0.50913,0.98337
254.024,31.1907,-0.27814,0.51031,0.983
254.724,31.2576,-0.28219,0.50963,0.98262
255.424,31.32449,-0.28379,0.50708,0.98225
256.124,31.3913,-0.28669,0.50676,0.98187
256.824,31.45815,-0.2917,0.5074,0.9815
257.524,31.52491,-0.29594,0.50729,0.98112
258.224,31.59165,-0.30055,0.50722,0.98074
258.924,31.6582,-0.304,0.5074,0.98036
259.624,31.7249,-0.30946,0.50284,0.97998
260.324,31.79165,-0.31585,0.5038,0.9796
261.024,31.8583,-0.3214,0.50281,0.97922
261.724,31.9251,-0.32516,0.50421,0.97884
262.424,31.9919,-0.33013,0.50307,0.97846
263.124,32.05879,-0.3343,0.50281,0.97807
263.824,32.12535,-0.33922,0.49887,0.97769
264.524,32.19205,-0.34366,0.4957,0.97731
265.224,32.25874,-0.35117,0.49702,0.97692
265.924,32.3258,-0.35632,0.49374,0.97654
266.624,32.39267,-0.36225,0.49272,0.97615
267.324,32.45965,-0.36696,0.49033,0.97576
268.024,32.52626,-0.37371,0.48789,0.97538
268.724,32.5931,-0.38165,0.48646,0.97499
269.424,32.66005,-0.38707,0.48212,0.9746
270.124,32.72712,-0.39396,0.48273,0.97421
270.824,32.7943,-0.39976,0.47906,0.97382
271.524,32.86099,-0.40647,0.47788,0.97343
272.224,32.92772,-0.41307,0.47589,0.97304
272.924,32.99423,-0.41918,0.47225,0.97265
273.624,33.061,-0.42671,0.46838,0.97226
274.324,33.12786,-0.43248,0.46546,0.97187
275.024,33.19485,-0.43922,0.46035,0.97147
275.724,33.26153,-0.44715,0.4574,0.97108
276.424,33.32833,-0.45584,0.4555,0.97068
277.124,33.39532,-0.46402,0.44888,0.97029
277.824,33.46223,-0.47201,0.4437,0.96989
278.524,33.5291,-0.47943,0.44038,0.9695
279.224,33.59563,-0.48786,0.43289,0.9691
279.924,33.66248,-0.49597,0.42767,0.9687
280.624,33.72945,-0.5028,0.42395,0.9683
281.324,33.79639,-0.51057,0.41634,0.9679
282.024,33.86334,-0.51882,0.41274,0.9675
282.724,33.93008,-0.5267,0.40468,0.9671
283.424,33.99707,-0.53458,0.40155,0.9667
284.124,34.064,-0.5425,0.39453,0.9663
284.824,34.13114,-0.55146,0.39058,0.9659
285.524,34.19791,-0.56026,0.38298,0.9655
286.224,34.26463,-0.56875,0.37786,0.96509
286.924,34.33148,-0.57726,0.37513,0.96469
287.624,34.39839,-0.58772,0.36748,0.96429
288.324,34.4657,-0.59749,0.364,0.96388
289.024,34.5324,-0.60831,0.35997,0.96348
289.724,34.5993,-0.61766,0.35289,0.96307
290.424,34.66617,-0.62775,0.34926,0.96266
291.124,34.73316,-0.63799,0.3448,0.96226
291.824,34.80002,-0.64602,0.34026,0.96185
292.524,34.86696,-0.65594,0.33835,0.96144
293.224,34.93392,-0.66708,0.33577,0.96103
293.924,35.001,-0.67905,0.33328,0.96062
294.624,35.06803,-0.68948,0.32834,0.96021
295.324,35.1351,-0.70093,0.32859,0.9598
296.024,35.20207,-0.71287,0.32176,0.95939
296.724,35.26892,-0.72467,0.32263,0.95897
297.424,35.33571,-0.73613,0.32007,0.95856
298.124,35.4026,-0.7467,0.31705,0.95815
298.824,35.4696,-0.75864,0.3154,0.95773
299.524,35.5366,-0.76979,0.31574,0.95732
300.224,35.60355,-0.78322,0.31313,0.95691
300.924,35.67052,-0.79408,0.31277,0.95649
301.624,35.73742,-0.80691,0.30998,0.95607
302.324,35.80422,-0.81823,0.31026,0.95566
303.024,35.8711,-0.83305,0.31086,0.95524
303.724,35.93804,-0.8455,0.31073,0.95482
304.424,36.0054,-0.85942,0.30817,0.9544
305.124,36.07267,-0.87152,0.30937,0.95398
305.824,36.1398,-0.88441,0.30811,0.95356
306.524,36.20685,-0.89807,0.30955,0.95314
307.224,36.2738,-0.90973,0.31036,0.95272
307.924,36.341,-0.92417,0.30613,0.9523
308.624,36.40797,-0.93874,0.30731,0.95188
309.324,36.47493,-0.95213,0.30607,0.95146
310.024,36.54189,-0.96774,0.307,0.95103
310.724,36.60904,-0.98419,0.30725,0.95061
311.424,36.67635,-0.99832,0.307,0.95019
312.124,36.74355,-1.01464,0.30636,0.94976
312.824,36.81086,-1.0298,0.30772,0.94934
313.524,36.87792,-1.04503,0.30628,0.94891
314.224,36.9452,-1.05957,0.30673,0.94848
314.924,37.01246,-1.07658,0.30719,0.94806
315.624,37.07993,-1.0939,0.30722,0.94763
316.324,37.1472,-1.11026,0.30731,0.9472
317.024,37.21437,-1.12748,0.308,0.94677
317.724,37.28156,-1.14384,0.30771,0.94634
318.424,37.3487,-1.16025,0.30728,0.94591
319.124,37.41605,-1.17931,0.30827,0.94548
319.824,37.4833,-1.19804,0.30674,0.94505
320.524,37.55053,-1.21535,0.30962,0.94462
321.224,37.61801,-1.23448,0.30702,0.94419
321.924,37.68531,-1.25394,0.30769,0.94376
322.624,37.75281,-1.27187,0.30955,0.94332
323.324,37.82014,-1.29158,0.30732,0.94289
324.024,37.8876,-1.31136,0.31133,0.94245
324.724,37.95493,-1.33034,0.30999,0.94202
325.424,38.02227,-1.35048,0.31204,0.94158
326.124,38.08975,-1.37125,0.31166,0.94115
326.824,38.15728,-1.39132,0.31194,0.94071
327.524,38.22477,-1.41165,0.31197,0.94027
328.224,38.29197,-1.43251,0.31244,0.93984
328.924,38.35913,-1.45388,0.31132,0.9394
329.624,38.42668,-1.47457,0.31242,0.93896
330.324,38.49445,-1.49676,0.31108,0.93852
331.024,38.5623,-1.51752,0.31184,0.93808
331.724,38.62985,-1.53918,0.3094,0.93764
332.424,38.6974,-1.5623,0.30948,0.9372
333.124,38.7649,-1.58544,0.30813,0.93676
333.824,38.83245,-1.60814,0.30705,0.93632
334.524,38.89985,-1.63154,0.30329,0.93587
335.224,38.9672,-1.65426,0.30639,0.93543
335.924,39.03452,-1.6763,0.30808,0.93499
336.624,39.1019,-1.70015,0.30419,0.93454
337.324,39.1695,-1.72526,0.30187,0.9341
338.024,39.237,-1.74817,0.29912,0.93365
338.724,39.30467,-1.77199,0.29699,0.93321
339.424,39.3724,-1.79656,0.29656,0.93276
340.124,39.44014,-1.81942,0.29215,0.93232
340.824,39.50788,-1.84282,0.29133,0.93187
341.524,39.5755,-1.86684,0.28477,0.93142
342.224,39.643,-1.88911,0.28213,0.93097
342.924,39.71045,-1.91324,0.27972,0.93052
343.624,39.77797,-1.93676,0.27475,0.93008
344.324,39.84557,-1.96187,0.26884,0.92963
345.024,39.9131,-1.98445,0.26289,0.92918
345.724,39.98057,-2.00513,0.25878,0.92872
346.424,40.04803,-2.02935,0.25465,0.92827
347.124,40.11561,-2.05018,0.2465,0.92782
347.824,40.18315,-2.07127,0.24202,0.92737
348.524,40.25078,-2.09342,0.23587,0.92692
349.224,40.31832,-2.11565,0.22824,0.92646
349.924,40.38597,-2.13614,0.22144,0.92601
350.624,40.45353,-2.15613,0.21388,0.92555
351.324,40.52111,-2.17721,0.20815,0.9251
352.024,40.58865,-2.19566,0.20047,0.92464
352.724,40.65623,-2.21835,0.19245,0.92419
353.424,40.72388,-2.23404,0.1819,0.92373
354.124,40.79165,-2.25124,0.17459,0.92328
354.824,40.85931,-2.26724,0.16803,0.92282
355.524,40.927,-2.28366,0.16127,0.92236
356.224,40.9946,-2.29948,0.15161,0.9219
356.924,41.0624,-2.31445,0.14332,0.92144
357.624,41.13008,-2.32993,0.13775,0.92098
358.324,41.19765,-2.34345,0.13018,0.92052
359.024,41.26531,-2.35898,0.12322,0.92006
359.724,41.3329,-2.37239,0.1168,0.9196
360.424,41.40068,-2.38368,0.10816,0.91914
361.124,41.46855,-2.39622,0.10014,0.91868
361.824,41.53654,-2.40725,0.09245976,0.91822
362.524,41.6043,-2.41976,0.09054954,0.91775
363.224,41.67191,-2.42764,0.08339062,0.91729
363.924,41.73965,-2.43584,0.07652129,0.91683
364.624,41.80745,-2.44503,0.06963614,0.91636
365.324,41.8752,-2.45313,0.06550545,0.9159
366.024,41.94296,-2.46099,0.05953898,0.91543
366.724,42.0107,-2.46848,0.05487284,0.91497
367.424,42.07809,-2.47673,0.05181137,0.9145
368.124,42.14583,-2.48433,0.04645685,0.91403
368.824,42.21347,-2.48956,0.04245809,0.91357
369.524,42.28163,-2.49611,0.03560733,0.9131
370.224,42.3495,-2.50208,0.03434414,0.91263
370.924,42.41738,-2.5092,0.03160744,0.91216
371.624,42.48527,-2.51412,0.02613706,0.91169
372.324,42.55305,-2.51913,0.02263319,0.91122
373.024,42.62102,-2.52312,0.01648512,0.91075
373.724,42.68895,-2.52813,0.01666491,0.91028
374.424,42.75673,-2.53287,0.01293189,0.90981
375.124,42.82438,-2.53463,0.008880421,0.90934
375.824,42.89209,-2.53865,0.009002325,0.90887
376.524,42.9601,-2.5439,0.00275373,0.90839
377.224,43.028,-2.54659,-2.315641e-05,0.90792
377.924,43.09592,-2.54979,-0.0009563009,0.90745
378.624,43.1639,-2.55254,-0.004308753,0.90697
379.324,43.23207,-2.55569,-0.008669328,0.9065
380.024,43.30003,-2.56044,-0.00848887,0.90602
380.724,43.36792,-2.56337,-0.01141287,0.90555
381.424,43.43582,-2.56598,-0.01470369,0.90507
382.124,43.50374,-2.56974,-0.01575696,0.9046
382.824,43.57185,-2.57277,-0.01735426,0.90412
383.524,43.6398,-2.57452,-0.02011503,0.90364
384.224,43.70762,-2.57609,-0.02532329,0.90317
384.924,43.77531,-2.57937,-0.02475465,0.90269
385.624,43.84326,-2.58161,-0.02776233,0.90221
386.324,43.91126,-2.5845,-0.02893915,0.90173
387.024,43.97922,-2.58619,-0.02907886,0.90125
387.724,44.0469,-2.59042,-0.03245811,0.90077
388.424,44.11455,-2.5931,-0.03189882,0.90029
389.124,44.1825,-2.59589,-0.03138443,0.89981
389.824,44.25039,-2.59916,-0.03244458,0.89933
390.524,44.31843,-2.60209,-0.03505284,0.89885
391.224,44.38645,-2.6041,-0.0368702,0.89836
391.924,44.45445,-2.60507,-0.03962715,0.89788
392.624,44.52265,-2.60816,-0.04218247,0.8974
393.324,44.59017,-2.61137,-0.04298027,0.89692
394.024,44.65798,-2.61265,-0.04366481,0.89643
394.724,44.72586,-2.61539,-0.04492646,0.89595
395.424,44.79423,-2.61896,-0.04829055,0.89546
396.124,44.86221,-2.62084,-0.04847511,0.89498
396.824,44.9305,-2.62476,-0.05075994,0.89449
397.524,44.99853,-2.62798,-0.05040686,0.89401
398.224,45.0668,-2.6293,-0.05569322,0.89352
398.924,45.13482,-2.63072,-0.0532117,0.89303
399.624,45.2029,-2.63318,-0.05474461,0.89254
400.324,45.27108,-2.63683,-0.05549553,0.89206
401.024,45.3392,-2.63806,-0.05618342,0.89157
401.724,45.40764,-2.64216,-0.05662878,0.89108
402.424,45.47605,-2.64394,-0.05728133,0.89059
403.124,45.54459,-2.64745,-0.05783091,0.8901
403.824,45.61292,-2.65006,-0.06043036,0.88961
404.524,45.68114,-2.65299,-0.05845403,0.88912
405.224,45.74942,-2.65584,-0.05852758,0.88863
405.924,45.81777,-2.65715,-0.06275287,0.88814
406.624,45.88613,-2.65996,-0.0610337,0.88765
407.324,45.95455,-2.66131,-0.0602879,0.88715
408.024,46.0229,-2.66411,-0.05929708,0.88666
408.724,46.09122,-2.66694,-0.05956941,0.88617
409.424,46.1595,-2.66989,-0.06113301,0.88567
410.124,46.22798,-2.67145,-0.060688,0.88518
410.824,46.29637,-2.67273,-0.0573085,0.88469
411.524,46.3648,-2.67684,-0.05880464,0.88419
412.224,46.43303,-2.6818,-0.0571016,0.8837
412.924,46.50141,-2.68304,-0.0545305,0.8832
413.624,46.56973,-2.6872,-0.05366446,0.8827
414.324,46.6381,-2.68745,-0.05452487,0.88221
415.024,46.7065,-2.68834,-0.05416288,0.88171
415.724,46.77496,-2.69126,-0.05408667,0.88121
416.424,46.8433,-2.69546,-0.05422607,0.88072
417.124,46.91172,-2.69768,-0.0525884,0.88022
417.824,46.98008,-2.69795,-0.05357617,0.87972
418.524,47.04866,-2.70089,-0.05121386,0.87922
419.224,47.11712,-2.70362,-0.04912383,0.87872
419.924,47.1858,-2.70635,-0.04827853,0.87822
420.624,47.2541,-2.70944,-0.04786445,0.87772
421.324,47.32267,-2.71064,-0.04568088,0.87722
422.024,47.391,-2.7134,-0.04502629,0.87672
422.724,47.45957,-2.71473,-0.0409907,0.87622
423.424,47.5281,-2.71661,-0.04402935,0.87572
424.124,47.59648,-2.71877,-0.03750004,0.87521
424.824,47.66476,-2.72178,-0.03958847,0.87471
425.524,47.7331,-2.72317,-0.03790735,0.87421
426.224,47.80145,-2.7245,-0.03547156,0.87371
426.924,47.86979,-2.7276,-0.03572819,0.8732
427.624,47.93806,-2.72898,-0.03107705,0.8727
428.324,48.00636,-2.73237,-0.03184638,0.87219
429.024,48.0747,-2.73462,-0.02943343,0.87169
429.724,48.143,-2.73748,-0.02611374,0.87118
430.424,48.21119,-2.73817,-0.02225078,0.87068
431.124,48.2794,-2.74039,-0.02260372,0.87017
431.824,48.34771,-2.74171,-0.02080208,0.86966
432.524,48.41598,-2.74315,-0.01865259,0.86916
433.224,48.48429,-2.74654,-0.01612115,0.86865
433.924,48.55249,-2.74828,-0.01465277,0.86814
434.624,48.62066,-2.75099,-0.01356401,0.86763
435.324,48.68895,-2.75313,-0.01104763,0.86713
436.024,48.75724,-2.75664,-0.01197801,0.86662
436.724,48.82569,-2.75831,-0.00885777,0.86611
437.424,48.89391,-2.75901,-0.005105649,0.8656
438.124,48.96233,-2.75992,-0.005519604,0.86509
438.824,49.03072,-2.76135,-0.004303365,0.86458
439.524,49.09912,-2.76266,-0.001566651,0.86407
440.224,49.16729,-2.76393,0.000213088,0.86356
440.924,49.23518,-2.76682,-0.0006782652,0.86304
441.624,49.30361,-2.76882,0.000543336,0.86253
442.324,49.372,-2.77178,0.00375091,0.86202
443.024,49.44097,-2.77308,0.0051246,0.86151
443.724,49.50952,-2.77442,0.005157223,0.86099
444.424,49.5783,-2.77572,0.005142381,0.86048
445.124,49.6466,-2.77706,0.007206537,0.85997
445.824,49.71522,-2.77844,0.008463237,0.85945
446.524,49.7839,-2.78132,0.01036658,0.85894
447.224,49.85269,-2.78321,0.01049122,0.85842
447.924,49.92133,-2.78513,0.01404796,0.85791
448.624,49.99001,-2.78784,0.01479717,0.85739
449.324,50.05888,-2.79006,0.01388615,0.85688
450.024,50.12748,-2.79172,0.01727441,0.85636
450.724,50.19611,-2.79174,0.01728196,0.85584
451.424,50.26475,-2.79305,0.01603922,0.85533
452.124,50.33377,-2.79437,0.01891902,0.85481
452.824,50.4026,-2.79584,0.01927441,0.85429
453.524,50.47146,-2.7983,0.02027879,0.85377
454.224,50.53987,-2.79965,0.01998625,0.85325
454.924,50.60839,-2.79829,0.02005495,0.85274
455.624,50.6772,-2.80093,0.02148144,0.85222
456.324,50.7462,-2.80343,0.02454613,0.8517
457.024,50.81497,-2.80456,0.02345782,0.85118
457.724,50.8837,-2.80711,0.02557829,0.85066
458.424,50.95243,-2.80889,0.02868263,0.85014
459.124,51.02129,-2.81002,0.02777055,0.84962
459.824,51.0899,-2.81085,0.02798861,0.84909
460.524,51.15882,-2.80982,0.02650384,0.84857
461.224,51.2278,-2.81322,0.03009367,0.84805
461.924,51.29698,-2.81409,0.03024618,0.84753
462.624,51.3658,-2.81432,0.0302516,0.84701
463.324,51.4347,-2.81597,0.03106036,0.84648
464.024,51.5034,-2.81833,0.03009126,0.84596
464.724,51.5723,-2.82035,0.03082224,0.84543
465.424,51.6413,-2.82073,0.02951657,0.84491
466.124,51.71028,-2.82233,0.03087074,0.84439
466.824,51.7791,-2.82365,0.0296731,0.84386
467.524,51.8479,-2.82531,0.03196247,0.84334
468.224,51.91661,-2.8264,0.0331246,0.84281
468.924,51.98553,-2.8286,0.03308294,0.84228
469.624,52.05464,-2.82765,0.0329268,0.84176
470.324,52.1238,-2.83026,0.03313713,0.84123
471.024,52.19299,-2.83105,0.03613229,0.84071
471.724,52.26193,-2.83415,0.03281855,0.84018
472.424,52.33102,-2.83559,0.03589311,0.83965
473.124,52.39976,-2.83691,0.03546102,0.83912
473.824,52.46833,-2.83633,0.03369476,0.83859
474.524,52.53694,-2.83692,0.03378838,0.83807
475.224,52.60572,-2.83823,0.03446074,0.83754
475.924,52.67508,-2.83954,0.03495933,0.83701
476.624,52.7445,-2.84086,0.03350327,0.83648
477.324,52.81394,-2.84261,0.03529821,0.83595
478.024,52.8832,-2.8449,0.03443782,0.83542
478.724,52.95235,-2.84584,0.03259478,0.83489
479.424,53.0213,-2.84629,0.0335013,0.83436
480.124,53.08999,-2.84894,0.0341142,0.83383
480.824,53.1589,-2.84754,0.03383779,0.83329
481.524,53.22784,-2.84887,0.03478999,0.83276
482.224,53.29682,-2.85018,0.03702901,0.83223
482.924,53.3658,-2.85084,0.03322934,0.8317
483.624,53.4348,-2.8515,0.03485141,0.83117
484.324,53.5039,-2.85142,0.03322723,0.83063
485.024,53.57286,-2.85418,0.03657986,0.8301
485.724,53.64176,-2.85568,0.03416472,0.82957
486.424,53.71069,-2.85823,0.03317173,0.82903
487.124,53.77958,-2.85953,0.03232086,0.8285
487.824,53.8485,-2.85952,0.0333008,0.82796
488.524,53.9173,-2.86032,0.03139705,0.82743
489.224,53.98633,-2.86217,0.03296639,0.82689
489.924,54.0554,-2.86354,0.03428306,0.82636
490.624,54.12461,-2.86346,0.03541284,0.82582
491.324,54.1938,-2.86388,0.03604278,0.82528
492.024,54.26294,-2.86414,0.03440537,0.82475
492.724,54.33197,-2.86474,0.03310634,0.82421
493.424,54.4011,-2.86558,0.03437732,0.82367
494.124,54.47022,-2.8675,0.03550476,0.82314
494.824,54.53901,-2.87004,0.03419827,0.8226
495.524,54.6083,-2.87092,0.03495903,0.82206
496.224,54.6776,-2.87202,0.03463515,0.82152
496.924,54.74735,-2.87326,0.03741695,0.82098
497.624,54.8165,-2.87465,0.03730848,0.82045
498.324,54.88593,-2.87603,0.0379953,0.81991
499.024,54.95527,-2.87464,0.03540502,0.81937
499.724,55.02471,-2.87517,0.03831377,0.81883
500.424,55.09409,-2.87597,0.03897815,0.81829
501.124,55.16352,-2.87631,0.03932743,0.81775
501.824,55.2329,-2.87802,0.04088762,0.81721
502.524,55.3022,-2.87959,0.04017225,0.81666
503.224,55.37154,-2.881,0.03995081,0.81612
503.924,55.4409,-2.88089,0.04159112,0.81558
504.624,55.51031,-2.88222,0.04340985,0.81504
505.324,55.57962,-2.88353,0.0446057,0.8145
506.024,55.649,-2.88354,0.04992429,0.81396
506.724,55.71826,-2.88485,0.05112432,0.81341
507.424,55.7875,-2.88617,0.05263932,0.81287
508.124,55.85669,-2.88618,0.05545861,0.81233
508.824,55.9261,-2.88683,0.05776758,0.81178
509.524,55.99544,-2.88739,0.05870605,0.81124
510.224,56.06479,-2.88882,0.05649567,0.8107
510.924,56.13415,-2.88986,0.05626888,0.81015
511.624,56.2036,-2.89029,0.0577695,0.80961
512.324,56.2729,-2.89055,0.05809183,0.80906
513.024,56.3422,-2.89154,0.05644982,0.80852
513.724,56.4115,-2.89286,0.06214976,0.80797
514.424,56.481,-2.89282,0.05958357,0.80742
515.124,56.5505,-2.89394,0.05998148,0.80688
515.824,56.61999,-2.89287,0.06040195,0.80633
516.524,56.68942,-2.89418,0.0611489,0.80579
517.224,56.75881,-2.8968,0.0646307,0.80524
517.924,56.82819,-2.89814,0.06003618,0.80469
518.624,56.89755,-2.89944,0.06142013,0.80414
519.324,56.96699,-2.89944,0.0606523,0.8036
520.024,57.0362,-2.90077,0.06025285,0.80305
520.724,57.10561,-2.90322,0.0638298,0.8025
521.424,57.175,-2.90202,0.06030762,0.80195
522.124,57.2448,-2.90339,0.06196541,0.8014
522.824,57.31446,-2.90216,0.06154736,0.80085
523.524,57.38414,-2.90339,0.06298428,0.80031
524.224,57.4538,-2.9047,0.06242371,0.79976
524.924,57.5233,-2.90604,0.06049806,0.79921
525.624,57.5928,-2.90863,0.06002727,0.79866
526.324,57.6623,-2.90996,0.05758594,0.79811
527.024,57.7317,-2.91,0.06247689,0.79755
527.724,57.8013,-2.90979,0.05761713,0.797
528.424,57.871,-2.9099,0.05499106,0.79645
529.124,57.9406,-2.91135,0.05732201,0.7959
529.824,58.01008,-2.91262,0.05728961,0.79535
530.524,58.07956,-2.91261,0.05773749,0.7948
531.224,58.14894,-2.91291,0.05625241,0.79425
531.924,58.2184,-2.91392,0.05747797,0.79369
532.624,58.28779,-2.91478,0.05818847,0.79314
533.324,58.3575,-2.91524,0.0566455,0.79259
534.024,58.4272,-2.91802,0.05850192,0.79203
534.724,58.4971,-2.91502,0.05761299,0.79148
535.424,58.56697,-2.91503,0.05451012,0.79093
536.124,58.63661,-2.91626,0.0537895,0.79037
536.824,58.70638,-2.91633,0.05162944,0.78982
537.524,58.7761,-2.91875,0.05295334,0.78927
538.224,58.8459,-2.92039,0.05569578,0.78871
538.924,58.9154,-2.92171,0.05371754,0.78816
539.624,58.9848,-2.92171,0.05431948,0.7876
540.324,59.0545,-2.92279,0.05188351,0.78705
541.024,59.1242,-2.92297,0.05289647,0.78649
541.724,59.1942,-2.92436,0.05151779,0.78593
542.424,59.26406,-2.92505,0.04912116,0.78538
543.124,59.3339,-2.925,0.0452025,0.78482
543.824,59.4037,-2.92632,0.0428808,0.78427
544.524,59.4733,-2.92696,0.04231691,0.78371
545.224,59.54322,-2.92317,0.0386306,0.78315
545.924,59.61291,-2.92357,0.03721677,0.78259
546.624,59.68277,-2.92613,0.03633747,0.78204
547.324,59.7524,-2.92713,0.0333508,0.78148
548.024,59.8223,-2.92752,0.03280213,0.78092
548.724,59.89193,-2.9302,0.03267645,0.78036
549.424,59.96155,-2.93015,0.03084561,0.77981
550.124,60.03096,-2.93145,0.03156318,0.77925
550.824,60.10057,-2.93146,0.02744318,0.77869
551.524,60.1704,-2.93103,0.02391811,0.77813
552.224,60.24038,-2.9315,0.02777147,0.77757
552.924,60.31018,-2.93148,0.02749681,0.77701
553.624,60.37953,-2.93279,0.02952479,0.77645
554.324,60.44891,-2.93541,0.02828943,0.77589
555.024,60.5183,-2.93541,0.0291532,0.77533
555.724,60.5877,-2.93674,0.02596567,0.77477
556.424,60.6572,-2.93542,0.02633607,0.77421
557.124,60.72675,-2.93609,0.02480027,0.77365
557.824,60.79665,-2.93689,0.02647001,0.77309
558.524,60.8663,-2.93805,0.02636434,0.77253
559.224,60.936,-2.93872,0.02502997,0.77196
559.924,61.00509,-2.93937,0.02468106,0.7714
560.624,61.0742,-2.93937,0.02491686,0.77084
561.324,61.14383,-2.94073,0.02355494,0.77028
562.024,61.21388,-2.93927,0.02104963,0.76972
562.724,61.28416,-2.93938,0.02290847,0.76915
563.424,61.35403,-2.94068,0.02018795,0.76859
564.124,61.42406,-2.94096,0.02277818,0.76803
564.824,61.494,-2.94327,0.02483577,0.76747
565.524,61.5639,-2.94463,0.0187014,0.7669
566.224,61.63389,-2.94469,0.01987058,0.76634
566.924,61.70377,-2.94454,0.02072545,0.76577
567.624,61.77366,-2.94463,0.01907352,0.76521
568.324,61.8433,-2.94592,0.01945488,0.76465
569.024,61.9131,-2.94595,0.02207248,0.76408
569.724,61.98279,-2.94857,0.02164991,0.76352
570.424,62.05274,-2.94858,0.02111756,0.76295
571.124,62.12271,-2.94859,0.01828232,0.76239
571.824,62.1924,-2.9486,0.0166459,0.76182
572.524,62.2623,-2.94993,0.01491105,0.76126
573.224,62.33211,-2.94976,0.01523082,0.76069
573.924,62.4022,-2.94989,0.01590791,0.76013
574.624,62.472,-2.95097,0.01896808,0.75956
575.324,62.54178,-2.95118,0.01549493,0.75899
576.024,62.61176,-2.95144,0.01694299,0.75843
576.724,62.68175,-2.95286,0.01949451,0.75786
577.424,62.7519,-2.95402,0.01789314,0.75729
578.124,62.82187,-2.95386,0.01765256,0.75673
578.824,62.8921,-2.95519,0.01730801,0.75616
579.524,62.96204,-2.95615,0.0195103,0.75559
580.224,63.03219,-2.95615,0.01677602,0.75503
580.924,63.1021,-2.95615,0.01198423,0.75446
581.624,63.1723,-2.95632,0.01314657,0.75389
582.324,63.2421,-2.95483,0.01376508,0.75332
583.024,63.3119,-2.95505,0.01538692,0.75275
583.724,63.38185,-2.95746,0.01513541,0.75218
584.424,63.45196,-2.95876,0.01837215,0.75162
585.124,63.5221,-2.95876,0.01659808,0.75105
585.824,63.59216,-2.95911,0.01757471,0.75048
586.524,63.6622,-2.95925,0.01734499,0.74991
587.224,63.7323,-2.96057,0.01691046,0.74934
587.924,63.80254,-2.96174,0.0186098,0.74877
588.624,63.8728,-2.96138,0.01760071,0.7482
589.324,63.9429,-2.96041,0.01733497,0.74763
590.024,64.013,-2.96174,0.01825317,0.74706
590.724,64.08292,-2.96316,0.01728718,0.74649
591.424,64.15311,-2.96306,0.01748405,0.74592
592.124,64.22329,-2.96307,0.01689739,0.74535
592.824,64.2935,-2.96405,0.01535115,0.74478
593.524,64.36364,-2.96406,0.01217111,0.74421
594.224,64.4337,-2.96273,0.01436192,0.74364
594.924,64.5039,-2.96447,0.01283773,0.74307
595.624,64.57396,-2.96433,0.01357729,0.74249
596.324,64.64413,-2.96438,0.00826801,0.74192
597.024,64.7142,-2.96576,0.01042195,0.74135
597.724,64.78421,-2.96569,0.01082178,0.74078
598.424,64.85433,-2.96564,0.01043387,0.74021
599.124,64.9243,-2.96841,0.008431042,0.73963
599.824,64.99436,-2.96964,0.01439598,0.73906
600.524,65.06421,-2.96964,0.009152883,0.73849
601.224,65.13449,-2.97068,0.007660483,0.73792
601.924,65.20452,-2.96964,0.00793561,0.73734
602.624,65.27481,-2.97017,0.008991838,0.73677
603.324,65.34486,-2.97096,0.004211719,0.7362
604.024,65.41525,-2.97226,0.0061019,0.73562
604.724,65.4854,-2.97245,0.00738863,0.73505
605.424,65.55561,-2.97227,0.00661488,0.73448
606.124,65.62544,-2.97357,0.004623883,0.7339
606.824,65.6955,-2.97362,0.003659982,0.73333
607.524,65.76556,-2.97494,0.003217244,0.73276
608.224,65.83581,-2.97533,0.001295251,0.73218
608.924,65.90598,-2.97425,0.002402726,0.73161
609.624,65.97629,-2.97344,0.0005436511,0.73103
610.324,66.04669,-2.97364,0.002820052,0.73046
611.024,66.11689,-2.97349,0.00147383,0.72988
611.724,66.187,-2.97357,-0.000720155,0.72931
612.424,66.2571,-2.9749,0.000244011,0.72873
613.124,66.32726,-2.9749,-0.000873478,0.72816
613.824,66.39693,-2.97492,-2.934133e-05,0.72758
614.524,66.46679,-2.97651,0.0001195403,0.72701
615.224,66.53708,-2.97885,0.00187434,0.72643
615.924,66.60781,-2.97787,-0.0007002683,0.72585
616.624,66.67818,-2.97787,0.0007509142,0.72528
617.324,66.7484,-2.97788,-0.003777778,0.7247
618.024,66.81855,-2.97881,0.00126107,0.72413
618.724,66.88877,-2.97885,0.003356156,0.72355
619.424,66.95874,-2.98018,-0.000576198,0.72297
620.124,67.02903,-2.98017,-5.85134e-05,0.7224
620.824,67.09939,-2.97885,-0.0008201428,0.72182
621.524,67.17,-2.97885,-0.0044398,0.72124
622.224,67.24045,-2.98023,-0.0002082048,0.72067
622.924,67.31074,-2.9816,-0.0058993,0.72009
623.624,67.38104,-2.9828,-0.005190774,0.71951
624.324,67.45152,-2.9828,-0.00526202,0.71893
625.024,67.52205,-2.9828,-0.006558471,0.71836
625.724,67.59244,-2.9838,-0.009137717,0.71778
626.424,67.6627,-2.98382,-0.007514895,0.7172
627.124,67.73286,-2.98379,-0.01056926,0.71662
627.824,67.80282,-2.9828,-0.01006387,0.71604
628.524,67.8729,-2.98313,-0.009846699,0.71547
629.224,67.94311,-2.98455,-0.008727216,0.71489
629.924,68.0134,-2.98511,-0.01105009,0.71431
630.624,68.08338,-2.98544,-0.01051594,0.71373
631.324,68.15346,-2.98543,-0.008382959,0.71315
632.024,68.22346,-2.98881,-0.008692604,0.71257
632.724,68.2937,-2.98612,-0.007953305,0.71199
633.424,68.36369,-2.9851,-0.01078405,0.71141
634.124,68.43403,-2.98422,-0.01333108,0.71084
634.824,68.50416,-2.98423,-0.01319779,0.71026
635.524,68.57427,-2.98686,-0.01076326,0.70968
636.224,68.6442,-2.98686,-0.008338701,0.7091
636.924,68.714,-2.9877,-0.00822823,0.70852
637.624,68.78401,-2.98817,-0.01076605,0.70794
638.324,68.8541,-2.98812,-0.01120233,0.70736
639.024,68.92424,-2.98949,-0.009454983,0.70678
639.724,68.99455,-2.98949,-0.01130815,0.7062
640.424,69.06477,-2.98946,-0.01244045,0.70562
641.124,69.13517,-2.98687,-0.01165496,0.70504
641.824,69.20541,-2.98836,-0.008844686,0.70446
642.524,69.27586,-2.98961,-0.008928805,0.70388
643.224,69.34635,-2.99107,-0.01145487,0.70329
643.924,69.41667,-2.99223,-0.00928797,0.70271
644.624,69.48691,-2.99156,-0.01067303,0.70213
645.324,69.557,-2.99152,-0.00994856,0.70155
646.024,69.62735,-2.99494,-0.009162214,0.70097
646.724,69.69759,-2.9931,-0.01085039,0.70039
647.424,69.76812,-2.99312,-0.01384006,0.69981
648.124,69.83853,-2.99376,-0.01225526,0.69923
648.824,69.90905,-2.99377,-0.01322332,0.69865
649.524,69.97951,-2.99309,-0.0156397,0.69806
650.224,70.04997,-2.99377,-0.0159502,0.69748
650.924,70.12056,-2.99377,-0.01617278,0.6969
651.624,70.19107,-2.99423,-0.01317546,0.69632
652.324,70.26155,-2.99476,-0.01684761,0.69574
653.024,70.3318,-2.99471,-0.01305741,0.69515
653.724,70.40209,-2.99634,-0.01647211,0.69457
654.424,70.47235,-2.99771,-0.01437922,0.69399
655.124,70.5428,-2.9964,-0.01822877,0.69341
655.824,70.61317,-2.99757,-0.01483858,0.69282
656.524,70.68356,-2.99542,-0.0182619,0.69224
657.224,70.75402,-2.99672,-0.01534232,0.69166
657.924,70.82423,-2.99739,-0.01536635,0.69108
658.624,70.8942,-2.99739,-0.01485699,0.69049
659.324,70.96446,-2.99772,-0.01587102,0.68991
660.024,71.03509,-2.99805,-0.01501498,0.68933
660.724,71.10615,-2.99907,-0.01490771,0.68874
661.424,71.17679,-2.99868,-0.01588533,0.68816
662.124,71.2474,-2.99772,-0.02040069,0.68758
662.824,71.318,-2.99772,-0.02330593,0.68699
663.524,71.38856,-2.99903,-0.02428875,0.68641
664.224,71.45896,-2.99903,-0.02298999,0.68583
664.924,71.5294,-2.99971,-0.0245438,0.68524
665.624,71.59989,-3.0003,-0.02415183,0.68466
666.324,71.67049,-2.99934,-0.02532484,0.68408
667.024,71.741,-3.00072,-0.02704155,0.68349
667.724,71.81156,-3.00069,-0.02487516,0.68291
668.424,71.88192,-3.00069,-0.02702969,0.68232
669.124,71.95214,-3.00201,-0.02831939,0.68174
669.824,72.02255,-3.002,-0.02850124,0.68116
670.524,72.09302,-3.002,-0.03033404,0.68057
671.224,72.16345,-3.00331,-0.02716989,0.67999
671.924,72.2341,-3.002,-0.02670159,0.6794
672.624,72.3049,-3.002,-0.0243389,0.67882
673.324,72.3759,-3.00134,-0.02725748,0.67823
674.024,72.44646,-3.00215,-0.02665152,0.67765
674.724,72.517,-3.00331,-0.02855501,0.67707
675.424,72.58761,-3.00197,-0.02718362,0.67648
676.124,72.65808,-3.002,-0.02786056,0.6759
676.824,72.7286,-3.00331,-0.02661479,0.67531
677.524,72.79894,-3.00428,-0.02484536,0.67473
678.224,72.86938,-3.00463,-0.02923287,0.67414
678.924,72.93975,-3.00595,-0.0262354,0.67356
679.624,73.01032,-3.00596,-0.02540241,0.67297
680.324,73.08074,-3.00727,-0.02628284,0.67239
681.024,73.15139,-3.00859,-0.03029731,0.6718
681.724,73.2219,-3.00967,-0.02763722,0.67122
682.424,73.29241,-3.00954,-0.0313228,0.67063
683.124,73.36273,-3.00856,-0.03325114,0.67004
683.824,73.43332,-3.00858,-0.02949978,0.66946
684.524,73.5039,-3.00858,-0.03065565,0.66887
685.224,73.57441,-3.00858,-0.03264359,0.66829
685.924,73.64451,-3.00859,-0.03260576,0.6677
686.624,73.71441,-3.00728,-0.03412383,0.66712
687.324,73.78474,-3.00594,-0.03479129,0.66653
688.024,73.85558,-3.00727,-0.0368449,0.66595
688.724,73.92656,-3.00858,-0.03296677,0.66536
689.424,73.99731,-3.01057,-0.03738713,0.66477
690.124,74.06783,-3.00945,-0.03684854,0.66419
690.824,74.13839,-3.01055,-0.03802074,0.6636
691.524,74.2088,-3.01055,-0.03938979,0.66302
692.224,74.27928,-3.01055,-0.03808798,0.66243
692.924,74.3497,-3.00923,-0.0314283,0.66184
693.624,74.4204,-3.01055,-0.03881476,0.66126
694.324,74.49075,-3.01056,-0.03412366,0.66067
695.024,74.5611,-3.01187,-0.03476306,0.66009
695.724,74.63116,-3.01187,-0.03714565,0.6595
696.424,74.70167,-3.01303,-0.0383105,0.65891
697.124,74.77218,-3.0135,-0.03707981,0.65833
697.824,74.843,-3.01253,-0.03830268,0.65774
698.524,74.91375,-3.01352,-0.04042164,0.65715
699.224,74.98488,-3.01347,-0.03897607,0.65657
699.924,75.05587,-3.01448,-0.04045943,0.65598
700.624,75.12675,-3.01582,-0.03426508,0.65539
701.324,75.19735,-3.01607,-0.03969151,0.65481
702.024,75.26801,-3.01648,-0.04176225,0.65422
702.724,75.33873,-3.01748,-0.04156222,0.65363
703.424,75.40934,-3.01647,-0.04094971,0.65305
704.124,75.48016,-3.01615,-0.0423208,0.65246
704.824,75.55091,-3.01611,-0.04703311,0.65187
705.524,75.62164,-3.01648,-0.04256579,0.65129
706.224,75.69204,-3.01648,-0.04405899,0.6507
706.924,75.76253,-3.01488,-0.04184326,0.65011
707.624,75.83325,-3.01299,-0.04284993,0.64953
708.324,75.90393,-3.01371,-0.04768414,0.64894
709.024,75.97466,-3.01614,-0.04521732,0.64835
709.724,76.04524,-3.01733,-0.04564943,0.64777
710.424,76.116,-3.01892,-0.04423338,0.64718
711.124,76.18672,-3.01933,-0.04165627,0.64659
711.824,76.25763,-3.02034,-0.04236315,0.646
712.524,76.32835,-3.01899,-0.04649316,0.64542
713.224,76.39891,-3.01964,-0.04536071,0.64483
713.924,76.46969,-3.02032,-0.04440808,0.64424
714.624,76.54058,-3.0203,-0.04801983,0.64366
715.324,76.6118,-3.02032,-0.04228824,0.64307
716.024,76.68266,-3.02163,-0.04524478,0.64248
716.724,76.75368,-3.02033,-0.04645867,0.64189
717.424,76.8248,-3.02032,-0.0463288,0.64131
718.124,76.896,-3.02032,-0.04963378,0.64072
718.824,76.96699,-3.02165,-0.04451685,0.64013
719.524,77.0379,-3.02169,-0.04735089,0.63955
720.224,77.10896,-3.02032,-0.04765312,0.63896
720.924,77.1801,-3.02033,-0.04805737,0.63837
721.624,77.2512,-3.0213,-0.05126075,0.63778
722.324,77.32208,-3.0213,-0.05152234,0.6372
723.024,77.39294,-3.02163,-0.05038401,0.63661
723.724,77.46388,-3.02163,-0.0502973,0.63602
724.424,77.53475,-3.02029,-0.04962936,0.63543
725.124,77.60512,-3.02163,-0.04870998,0.63485
725.824,77.6755,-3.02366,-0.05246279,0.63426
726.524,77.74601,-3.02361,-0.05113085,0.63367
727.224,77.81685,-3.02362,-0.05029773,0.63308
727.924,77.8878,-3.02229,-0.04900317,0.6325
728.624,77.95883,-3.02294,-0.05672988,0.63191
729.324,78.03036,-3.0246,-0.05169072,0.63132
730.024,78.10184,-3.02521,-0.05289348,0.63074
730.724,78.17317,-3.02206,-0.05391313,0.63015
731.424,78.24414,-3.02197,-0.05293319,0.62956
732.124,78.3151,-3.02493,-0.05450849,0.62897
732.824,78.3861,-3.02327,-0.05474329,0.62839
733.524,78.4571,-3.02329,-0.05404674,0.6278
734.224,78.52809,-3.02197,-0.05629406,0.62721
734.924,78.5991,-3.02328,-0.0541369,0.62662
735.624,78.67002,-3.02459,-0.05882757,0.62604
736.324,78.741,-3.02379,-0.0576843,0.62545
737.024,78.81178,-3.02328,-0.05701963,0.62486
737.724,78.8826,-3.0246,-0.05895317,0.62427
738.424,78.95311,-3.02538,-0.05407321,0.62369
739.124,79.0239,-3.02657,-0.05841112,0.6231
739.824,79.0946,-3.02657,-0.05788274,0.62251
740.524,79.16535,-3.02658,-0.05320022,0.62193
741.224,79.23597,-3.02689,-0.05737585,0.62134
741.924,79.30685,-3.02698,-0.05679424,0.62075
742.624,79.37762,-3.0269,-0.05149612,0.62016
743.324,79.44842,-3.02822,-0.05372198,0.61958
744.024,79.51905,-3.02821,-0.05726435,0.61899
744.724,79.58989,-3.02894,-0.05399183,0.6184
745.424,79.66083,-3.03274,-0.05692106,0.61781
746.124,79.73172,-3.0275,-0.05667783,0.61723
746.824,79.80247,-3.02755,-0.05817571,0.61664
747.524,79.8732,-3.02988,-0.05775566,0.61605
748.224,79.9439,-3.03022,-0.05517835,0.61547
748.924,80.0146,-3.0316,-0.05576964,0.61488
749.624,80.08539,-3.03151,-0.05827548,0.61429
750.324,80.15635,-3.03023,-0.06170603,0.6137
751.024,80.2272,-3.0268,-0.06554806,0.61312
751.724,80.29805,-3.02998,-0.06423167,0.61253
752.424,80.36895,-3.03128,-0.06418693,0.61194
753.124,80.43995,-3.03161,-0.06814817,0.61136
753.824,80.51088,-3.03229,-0.07000273,0.61077
754.524,80.58185,-3.03226,-0.06940644,0.61018
755.224,80.6528,-3.03195,-0.07175551,0.6096
755.924,80.72376,-3.03267,-0.06689447,0.60901
756.624,80.79462,-3.03373,-0.06811468,0.60842
757.324,80.8655,-3.03523,-0.06642742,0.60784
758.024,80.93655,-3.03392,-0.06926506,0.60725
758.724,81.0077,-3.03257,-0.06956335,0.60666
759.424,81.07881,-3.0339,-0.06383809,0.60607
760.124,81.14939,-3.03392,-0.06653056,0.60549
760.824,81.22001,-3.03524,-0.06830203,0.6049
761.524,81.29098,-3.03524,-0.07018824,0.60431
762.224,81.36232,-3.03387,-0.07177323,0.60373
762.924,81.43365,-3.03384,-0.07017096,0.60314
763.624,81.50415,-3.03517,-0.06994887,0.60256
764.324,81.57505,-3.03395,-0.06896724,0.60197
765.024,81.64583,-3.03523,-0.06747246,0.60138
765.724,81.71733,-3.03574,-0.06940486,0.6008
766.424,81.78815,-3.03523,-0.06737022,0.60021
767.124,81.85919,-3.03622,-0.06716014,0.59962
767.824,81.93007,-3.0349,-0.06833922,0.59904
768.524,82.00113,-3.03391,-0.0676079,0.59845
769.224,82.07185,-3.03386,-0.06877046,0.59786
769.924,82.14277,-3.03523,-0.06591363,0.59728
770.624,82.21376,-3.03391,-0.06632004,0.59669
771.324,82.28479,-3.03524,-0.06918849,0.59611
772.024,82.35529,-3.03621,-0.06842887,0.59552
772.724,82.42611,-3.03773,-0.07044646,0.59493
773.424,82.4974,-3.03787,-0.06922817,0.59435
774.124,82.56885,-3.03787,-0.06314474,0.59376
774.824,82.6399,-3.03941,-0.06884332,0.59318
775.524,82.71085,-3.03625,-0.06925749,0.59259
776.224,82.78185,-3.03622,-0.06581896,0.59201
776.924,82.85287,-3.03721,-0.06506672,0.59142
777.624,82.9238,-3.03697,-0.06545892,0.59083
778.324,82.99467,-3.03589,-0.06493741,0.59025
779.024,83.06563,-3.03869,-0.06545991,0.58966
779.724,83.1365,-3.03851,-0.06395544,0.58908
780.424,83.20753,-3.03653,-0.06431391,0.58849
781.124,83.27848,-3.03589,-0.06525903,0.58791
781.824,83.34944,-3.0372,-0.06667463,0.58732
782.524,83.42041,-3.03589,-0.06512141,0.58674
783.224,83.4914,-3.03589,-0.06548037,0.58615
783.924,83.5624,-3.03622,-0.06399038,0.58557
784.624,83.63342,-3.03687,-0.06646823,0.58498
785.324,83.70451,-3.03688,-0.06465744,0.5844
786.024,83.77541,-3.03688,-0.06174191,0.58381
786.724,83.84648,-3.03779,-0.06563852,0.58323
787.424,83.91744,-3.03768,-0.06244889,0.58264
788.124,83.98838,-3.03787,-0.06359428,0.58206
788.824,84.05943,-3.04051,-0.06433985,0.58147
789.524,84.13061,-3.04182,-0.06700142,0.58089
790.224,84.20206,-3.04039,-0.06351147,0.5803
790.924,84.27316,-3.03919,-0.06613899,0.57972
791.624,84.34437,-3.0392,-0.06559711,0.57913
792.324,84.4157,-3.03928,-0.07228931,0.57855
793.024,84.48693,-3.03795,-0.06915416,0.57797
793.724,84.55799,-3.03786,-0.06631613,0.57738
794.424,84.62889,-3.03558,-0.07411929,0.5768
795.124,84.7,-3.03392,-0.06855787,0.57621
795.824,84.77093,-3.03454,-0.06897221,0.57563
796.524,84.84182,-3.03725,-0.06681542,0.57505
797.224,84.91277,-3.03918,-0.07147856,0.57446
797.924,84.984,-3.03918,-0.07286324,0.57388
798.024,84.99396,-3.03918,-0.07422098,0.57379